05/20/2022	16:09:26	Ver.	4.1	UNKNOWN
Optical Delay	639.982744	Delta X		0.078125	Sweeps	1	Scan Rate	0/0
Coordinates	Axis 1	NaN	Axis 2	NaN	Axis 3	NaN	Axis 4	NaN	Axis 5	NaN	Axis 6	0.000000
TX Power	0.000000	RX Power	0.000000

639.983	0.0148363
640.061	0.0147375
640.139	0.0147775
640.217	0.0149309
640.295	0.0148501
640.373	0.0147153
640.451	0.0147867
640.530	0.0147975
640.608	0.0149475
640.686	0.0147888
640.764	0.0148883
640.842	0.0148563
640.920	0.0146517
640.998	0.0148257
641.076	0.0148809
641.155	0.0147664
641.233	0.0147922
641.311	0.0147234
641.389	0.0148935
641.467	0.0148026
641.545	0.0147898
641.623	0.0146787
641.701	0.0148091
641.780	0.0149140
641.858	0.0148613
641.936	0.0149107
642.014	0.0148425
642.092	0.0148267
642.170	0.0147793
642.248	0.0147284
642.326	0.0149532
642.405	0.0148105
642.483	0.0148743
642.561	0.0147061
642.639	0.0148109
642.717	0.0149699
642.795	0.0148852
642.873	0.0148302
642.951	0.0147586
643.030	0.0148926
643.108	0.0149301
643.186	0.0148756
643.264	0.0148065
643.342	0.0148858
643.420	0.0149965
643.498	0.0148589
643.576	0.0148255
643.655	0.0148466
643.733	0.0149052
643.811	0.0147820
643.889	0.0149474
643.967	0.0147891
644.045	0.0149024
644.123	0.0149075
644.201	0.0148338
644.280	0.0148264
644.358	0.0147652
644.436	0.0147276
644.514	0.0147813
644.592	0.0148724
644.670	0.0147234
644.748	0.0148826
644.826	0.0148491
644.905	0.0148297
644.983	0.0148109
645.061	0.0147776
645.139	0.0149224
645.217	0.0148565
645.295	0.0150027
645.373	0.0148120
645.451	0.0148126
645.530	0.0148343
645.608	0.0148245
645.686	0.0147575
645.764	0.0147858
645.842	0.0147344
645.920	0.0147434
645.998	0.0148461
646.076	0.0147698
646.155	0.0148737
646.233	0.0148265
646.311	0.0146863
646.389	0.0148779
646.467	0.0149262
646.545	0.0149179
646.623	0.0147906
646.701	0.0147006
646.780	0.0147664
646.858	0.0147491
646.936	0.0148186
647.014	0.0148273
647.092	0.0148083
647.170	0.0147234
647.248	0.0148590
647.326	0.0148647
647.405	0.0147369
647.483	0.0147533
647.561	0.0148759
647.639	0.0148433
647.717	0.0147443
647.795	0.0148767
647.873	0.0148631
647.951	0.0148017
648.030	0.0148605
648.108	0.0147910
648.186	0.0146672
648.264	0.0147191
648.342	0.0149321
648.420	0.0148760
648.498	0.0147301
648.576	0.0147446
648.655	0.0148378
648.733	0.0147831
648.811	0.0147373
648.889	0.0148440
648.967	0.0148323
649.045	0.0148201
649.123	0.0149463
649.201	0.0148074
649.280	0.0147605
649.358	0.0145901
649.436	0.0148112
649.514	0.0148728
649.592	0.0148171
649.670	0.0146802
649.748	0.0147515
649.826	0.0147879
649.905	0.0148293
649.983	0.0148689
650.061	0.0148710
650.139	0.0148031
650.217	0.0147406
650.295	0.0148162
650.373	0.0148654
650.451	0.0148290
650.530	0.0147585
650.608	0.0148314
650.686	0.0148203
650.764	0.0148199
650.842	0.0147169
650.920	0.0146817
650.998	0.0147202
651.076	0.0148109
651.155	0.0147789
651.233	0.0149425
651.311	0.0148724
651.389	0.0147834
651.467	0.0148963
651.545	0.0148856
651.623	0.0147676
651.701	0.0147955
651.780	0.0149207
651.858	0.0146735
651.936	0.0149319
652.014	0.0148544
652.092	0.0148959
652.170	0.0148804
652.248	0.0148937
652.326	0.0147717
652.405	0.0148624
652.483	0.0149308
652.561	0.0148876
652.639	0.0147852
652.717	0.0149321
652.795	0.0148246
652.873	0.0148141
652.951	0.0148545
653.030	0.0148686
653.108	0.0147367
653.186	0.0148725
653.264	0.0147076
653.342	0.0149563
653.420	0.0148479
653.498	0.0147270
653.576	0.0148006
653.655	0.0147292
653.733	0.0149004
653.811	0.0148634
653.889	0.0147906
653.967	0.0147977
654.045	0.0148202
654.123	0.0148061
654.201	0.0148446
654.280	0.0149284
654.358	0.0147968
654.436	0.0148547
654.514	0.0146671
654.592	0.0149287
654.670	0.0148511
654.748	0.0148150
654.826	0.0148985
654.905	0.0147466
654.983	0.0146584
655.061	0.0147975
655.139	0.0147601
655.217	0.0148756
655.295	0.0146546
655.373	0.0147929
655.451	0.0148592
655.530	0.0149149
655.608	0.0148184
655.686	0.0148290
655.764	0.0146807
655.842	0.0149374
655.920	0.0148679
655.998	0.0148135
656.076	0.0149324
656.155	0.0148511
656.233	0.0149130
656.311	0.0149014
656.389	0.0148804
656.467	0.0146733
656.545	0.0147330
656.623	0.0147079
656.701	0.0148865
656.780	0.0149841
656.858	0.0147832
656.936	0.0148725
657.014	0.0149033
657.092	0.0146703
657.170	0.0147592
657.248	0.0149053
657.326	0.0145982
657.405	0.0147270
657.483	0.0148571
657.561	0.0147894
657.639	0.0148228
657.717	0.0147607
657.795	0.0147299
657.873	0.0147682
657.951	0.0149207
658.030	0.0148667
658.108	0.0148554
658.186	0.0148344
658.264	0.0147950
658.342	0.0148569
658.420	0.0149286
658.498	0.0148361
658.576	0.0146696
658.655	0.0149311
658.733	0.0149371
658.811	0.0147789
658.889	0.0147157
658.967	0.0148024
659.045	0.0148912
659.123	0.0148158
659.201	0.0148409
659.280	0.0148638
659.358	0.0147506
659.436	0.0147647
659.514	0.0147915
659.592	0.0148345
659.670	0.0147782
659.748	0.0149097
659.826	0.0147433
659.905	0.0147742
659.983	0.0149747
660.061	0.0148055
660.139	0.0147769
660.217	0.0148320
660.295	0.0148420
660.373	0.0148240
660.451	0.0147521
660.530	0.0148801
660.608	0.0148855
660.686	0.0147580
660.764	0.0147412
660.842	0.0148184
660.920	0.0148643
660.998	0.0148030
661.076	0.0146813
661.155	0.0148636
661.233	0.0148194
661.311	0.0148685
661.389	0.0147363
661.467	0.0149235
661.545	0.0148327
661.623	0.0148539
661.701	0.0147598
661.780	0.0147211
661.858	0.0147803
661.936	0.0148858
662.014	0.0149010
662.092	0.0147951
662.170	0.0148582
662.248	0.0147811
662.326	0.0149586
662.405	0.0148515
662.483	0.0148330
662.561	0.0148385
662.639	0.0148079
662.717	0.0148024
662.795	0.0148467
662.873	0.0149311
662.951	0.0147887
663.030	0.0147728
663.108	0.0148138
663.186	0.0149377
663.264	0.0148890
663.342	0.0149139
663.420	0.0147343
663.498	0.0147428
663.576	0.0148560
663.655	0.0147760
663.733	0.0147540
663.811	0.0147853
663.889	0.0147322
663.967	0.0148589
664.045	0.0147425
664.123	0.0147997
664.201	0.0147594
664.280	0.0147410
664.358	0.0148410
664.436	0.0148725
664.514	0.0147182
664.592	0.0147675
664.670	0.0148444
664.748	0.0148586
664.826	0.0147105
664.905	0.0147012
664.983	0.0146800
665.061	0.0148313
665.139	0.0149126
665.217	0.0148511
665.295	0.0148713
665.373	0.0147593
665.451	0.0148454
665.530	0.0147791
665.608	0.0147997
665.686	0.0147614
665.764	0.0148612
665.842	0.0147546
665.920	0.0148048
665.998	0.0148500
666.076	0.0147086
666.155	0.0147776
666.233	0.0148112
666.311	0.0148344
666.389	0.0148780
666.467	0.0147230
666.545	0.0146501
666.623	0.0149054
666.701	0.0148782
666.780	0.0147517
666.858	0.0148436
666.936	0.0147668
667.014	0.0147480
667.092	0.0148640
667.170	0.0148943
667.248	0.0148026
667.326	0.0148799
667.405	0.0148678
667.483	0.0148754
667.561	0.0147938
667.639	0.0148322
667.717	0.0149628
667.795	0.0150061
667.873	0.0148254
667.951	0.0148634
668.030	0.0149055
668.108	0.0147765
668.186	0.0147918
668.264	0.0149361
668.342	0.0148891
668.420	0.0149343
668.498	0.0148694
668.576	0.0148814
668.655	0.0148428
668.733	0.0146974
668.811	0.0148294
668.889	0.0148872
668.967	0.0147807
669.045	0.0148872
669.123	0.0147933
669.201	0.0148343
669.280	0.0147675
669.358	0.0147839
669.436	0.0149832
669.514	0.0150468
669.592	0.0147591
669.670	0.0148575
669.748	0.0148201
669.826	0.0150346
669.905	0.0148540
669.983	0.0148164
670.061	0.0147510
670.139	0.0148967
670.217	0.0148864
670.295	0.0148669
670.373	0.0148708
670.451	0.0148712
670.530	0.0148109
670.608	0.0150060
670.686	0.0148458
670.764	0.0147777
670.842	0.0149208
670.920	0.0148518
670.998	0.0147746
671.076	0.0148486
671.155	0.0149506
671.233	0.0148711
671.311	0.0148504
671.389	0.0149831
671.467	0.0150850
671.545	0.0148812
671.623	0.0148746
671.701	0.0148338
671.780	0.0149329
671.858	0.0149098
671.936	0.0148260
672.014	0.0148146
672.092	0.0149232
672.170	0.0150016
672.248	0.0148864
672.326	0.0149009
672.405	0.0149406
672.483	0.0149158
672.561	0.0149936
672.639	0.0149155
672.717	0.0149901
672.795	0.0148672
672.873	0.0148348
672.951	0.0147838
673.030	0.0149501
673.108	0.0147639
673.186	0.0148943
673.264	0.0148814
673.342	0.0149353
673.420	0.0147772
673.498	0.0148758
673.576	0.0149075
673.655	0.0149068
673.733	0.0148786
673.811	0.0149384
673.889	0.0148038
673.967	0.0148325
674.045	0.0149358
674.123	0.0149117
674.201	0.0147617
674.280	0.0148595
674.358	0.0147765
674.436	0.0149349
674.514	0.0148536
674.592	0.0148836
674.670	0.0147965
674.748	0.0147823
674.826	0.0148961
674.905	0.0149084
674.983	0.0147179
675.061	0.0148199
675.139	0.0147755
675.217	0.0148648
675.295	0.0147729
675.373	0.0147953
675.451	0.0147280
675.530	0.0147598
675.608	0.0148653
675.686	0.0148401
675.764	0.0148263
675.842	0.0148058
675.920	0.0148875
675.998	0.0147034
676.076	0.0148899
676.155	0.0147314
676.233	0.0148410
676.311	0.0148048
676.389	0.0147770
676.467	0.0148772
676.545	0.0149806
676.623	0.0148520
676.701	0.0147150
676.780	0.0148441
676.858	0.0149769
676.936	0.0148338
677.014	0.0148679
677.092	0.0148626
677.170	0.0146753
677.248	0.0148579
677.326	0.0148319
677.405	0.0146972
677.483	0.0147604
677.561	0.0147337
677.639	0.0148952
677.717	0.0148926
677.795	0.0148875
677.873	0.0147952
677.951	0.0148804
678.030	0.0147183
678.108	0.0147929
678.186	0.0147805
678.264	0.0147784
678.342	0.0147678
678.420	0.0149159
678.498	0.0146776
678.576	0.0147650
678.655	0.0147511
678.733	0.0147443
678.811	0.0148422
678.889	0.0148645
678.967	0.0147507
679.045	0.0148013
679.123	0.0149109
679.201	0.0149716
679.280	0.0149613
679.358	0.0146705
679.436	0.0148751
679.514	0.0147993
679.592	0.0146172
679.670	0.0149009
679.748	0.0147556
679.826	0.0147398
679.905	0.0149176
679.983	0.0148462
680.061	0.0147575
680.139	0.0147818
680.217	0.0148460
680.295	0.0147662
680.373	0.0147881
680.451	0.0148100
680.530	0.0148138
680.608	0.0148475
680.686	0.0148179
680.764	0.0148378
680.842	0.0148557
680.920	0.0148505
680.998	0.0148455
681.076	0.0147551
681.155	0.0148631
681.233	0.0149917
681.311	0.0149513
681.389	0.0146478
681.467	0.0147984
681.545	0.0150116
681.623	0.0149181
681.701	0.0149696
681.780	0.0147253
681.858	0.0147915
681.936	0.0148690
682.014	0.0149707
682.092	0.0147687
682.170	0.0147760
682.248	0.0149287
682.326	0.0149907
682.405	0.0149376
682.483	0.0148448
682.561	0.0149023
682.639	0.0147479
682.717	0.0148965
682.795	0.0148151
682.873	0.0148251
682.951	0.0147707
683.030	0.0147112
683.108	0.0148532
683.186	0.0147433
683.264	0.0147891
683.342	0.0147594
683.420	0.0147973
683.498	0.0146944
683.576	0.0148646
683.655	0.0148055
683.733	0.0148107
683.811	0.0148721
683.889	0.0149148
683.967	0.0148389
684.045	0.0149133
684.123	0.0148803
684.201	0.0148145
684.280	0.0148273
684.358	0.0148244
684.436	0.0148257
684.514	0.0148659
684.592	0.0149364
684.670	0.0148690
684.748	0.0147937
684.826	0.0148213
684.905	0.0149067
684.983	0.0147807
685.061	0.0149541
685.139	0.0148351
685.217	0.0149169
685.295	0.0148840
685.373	0.0148847
685.451	0.0148569
685.530	0.0148323
685.608	0.0148776
685.686	0.0147861
685.764	0.0149165
685.842	0.0148380
685.920	0.0148241
685.998	0.0149760
686.076	0.0148119
686.155	0.0147299
686.233	0.0148404
686.311	0.0148907
686.389	0.0149363
686.467	0.0148279
686.545	0.0147334
686.623	0.0147842
686.701	0.0148785
686.780	0.0147731
686.858	0.0146471
686.936	0.0146745
687.014	0.0148952
687.092	0.0146825
687.170	0.0146155
687.248	0.0147318
687.326	0.0146220
687.405	0.0146404
687.483	0.0147572
687.561	0.0146861
687.639	0.0147415
687.717	0.0147831
687.795	0.0146946
687.873	0.0147594
687.951	0.0149506
688.030	0.0149186
688.108	0.0151945
688.186	0.0151434
688.264	0.0152588
688.342	0.0153611
688.420	0.0154715
688.498	0.0155533
688.576	0.0155832
688.655	0.0155759
688.733	0.0155128
688.811	0.0153391
688.889	0.0153571
688.967	0.0149143
689.045	0.0147008
689.123	0.0142547
689.201	0.0139415
689.280	0.0135741
689.358	0.0131978
689.436	0.0127463
689.514	0.0126180
689.592	0.0125434
689.670	0.0126573
689.748	0.0130105
689.826	0.0132838
689.905	0.0138779
689.983	0.0144983
690.061	0.0151269
690.139	0.0159602
690.217	0.0165886
690.295	0.0171734
690.373	0.0178762
690.451	0.0179867
690.530	0.0181615
690.608	0.0182617
690.686	0.0182265
690.764	0.0178824
690.842	0.0176289
690.920	0.0171384
690.998	0.0165826
691.076	0.0160029
691.155	0.0156440
691.233	0.0150088
691.311	0.0146244
691.389	0.0141900
691.467	0.0135999
691.545	0.0130865
691.623	0.0125538
691.701	0.0120364
691.780	0.0115506
691.858	0.0108836
691.936	0.0102917
692.014	0.00973679
692.092	0.00961197
692.170	0.00939804
692.248	0.00925591
692.326	0.00972771
692.405	0.0100164
692.483	0.0108052
692.561	0.0117944
692.639	0.0129095
692.717	0.0142937
692.795	0.0155980
692.873	0.0170976
692.951	0.0185699
693.030	0.0199256
693.108	0.0211510
693.186	0.0220883
693.264	0.0231171
693.342	0.0236465
693.420	0.0236926
693.498	0.0235431
693.576	0.0230559
693.655	0.0222775
693.733	0.0214751
693.811	0.0204044
693.889	0.0189389
693.967	0.0174859
694.045	0.0163242
694.123	0.0150035
694.201	0.0136120
694.280	0.0123714
694.358	0.0112128
694.436	0.0101879
694.514	0.00951897
694.592	0.00867050
694.670	0.00812073
694.748	0.00764290
694.826	0.00714317
694.905	0.00677643
694.983	0.00670204
695.061	0.00656929
695.139	0.00643829
695.217	0.00663795
695.295	0.00679405
695.373	0.00723495
695.451	0.00798988
695.530	0.00868317
695.608	0.00980766
695.686	0.0110761
695.764	0.0124516
695.842	0.0140371
695.920	0.0156657
695.998	0.0173752
696.076	0.0190156
696.155	0.0204494
696.233	0.0221092
696.311	0.0234241
696.389	0.0245281
696.467	0.0256770
696.545	0.0264433
696.623	0.0271093
696.701	0.0275201
696.780	0.0276539
696.858	0.0275274
696.936	0.0268810
697.014	0.0259805
697.092	0.0247044
697.170	0.0232096
697.248	0.0212411
697.326	0.0190213
697.405	0.0168192
697.483	0.0145555
697.561	0.0124635
697.639	0.0103071
697.717	0.00834267
697.795	0.00688660
697.873	0.00575966
697.951	0.00455795
698.030	0.00405334
698.108	0.00390656
698.186	0.00392105
698.264	0.00393242
698.342	0.00442627
698.420	0.00489601
698.498	0.00551468
698.576	0.00604698
698.655	0.00670006
698.733	0.00755638
698.811	0.00817650
698.889	0.00881371
698.967	0.00959465
699.045	0.0102917
699.123	0.0112177
699.201	0.0121743
699.280	0.0134567
699.358	0.0144930
699.436	0.0156989
699.514	0.0169469
699.592	0.0181803
699.670	0.0194878
699.748	0.0206597
699.826	0.0214929
699.905	0.0224443
699.983	0.0231814
700.061	0.0235728
700.139	0.0241373
700.217	0.0244884
700.295	0.0246512
700.373	0.0247479
700.451	0.0246558
700.530	0.0244862
700.608	0.0241384
700.686	0.0237188
700.764	0.0231159
700.842	0.0223562
700.920	0.0213620
700.998	0.0202165
701.076	0.0188914
701.155	0.0174088
701.233	0.0159004
701.311	0.0143494
701.389	0.0127986
701.467	0.0109401
701.545	0.00957230
701.623	0.00835228
701.701	0.00709702
701.780	0.00642891
701.858	0.00598671
701.936	0.00565948
702.014	0.00543938
702.092	0.00569679
702.170	0.00615082
702.248	0.00655991
702.326	0.00710045
702.405	0.00772278
702.483	0.00835426
702.561	0.00886490
702.639	0.00945862
702.717	0.0100275
702.795	0.0105633
702.873	0.0109908
702.951	0.0114377
703.030	0.0118327
703.108	0.0123586
703.186	0.0128346
703.264	0.0133891
703.342	0.0139219
703.420	0.0146718
703.498	0.0155246
703.576	0.0163367
703.655	0.0172638
703.733	0.0183421
703.811	0.0193141
703.889	0.0201215
703.967	0.0209905
704.045	0.0217992
704.123	0.0225462
704.201	0.0232781
704.280	0.0237537
704.358	0.0238342
704.436	0.0238406
704.514	0.0237028
704.592	0.0234789
704.670	0.0227876
704.748	0.0222018
704.826	0.0214744
704.905	0.0204580
704.983	0.0194795
705.061	0.0182932
705.139	0.0171559
705.217	0.0158298
705.295	0.0146725
705.373	0.0135532
705.451	0.0124176
705.530	0.0110928
705.608	0.00990997
705.686	0.00905876
705.764	0.00831352
705.842	0.00778099
705.920	0.00745621
705.998	0.00717812
706.076	0.00758575
706.155	0.00763130
706.233	0.00803421
706.311	0.00861145
706.389	0.00922050
706.467	0.0100494
706.545	0.0106638
706.623	0.0112535
706.701	0.0118813
706.780	0.0124677
706.858	0.0129250
706.936	0.0133525
707.014	0.0136585
707.092	0.0140676
707.170	0.0144240
707.248	0.0146311
707.326	0.0150124
707.405	0.0153452
707.483	0.0157036
707.561	0.0162563
707.639	0.0165059
707.717	0.0169749
707.795	0.0175387
707.873	0.0178291
707.951	0.0181448
708.030	0.0184745
708.108	0.0188725
708.186	0.0189861
708.264	0.0192196
708.342	0.0192634
708.420	0.0193944
708.498	0.0194124
708.576	0.0189999
708.655	0.0186596
708.733	0.0182262
708.811	0.0179239
708.889	0.0174500
708.967	0.0169173
709.045	0.0163391
709.123	0.0159085
709.201	0.0153770
709.280	0.0148138
709.358	0.0142162
709.436	0.0136767
709.514	0.0131143
709.592	0.0125684
709.670	0.0119836
709.748	0.0114869
709.826	0.0113277
709.905	0.0110993
709.983	0.0109277
710.061	0.0109220
710.139	0.0110276
710.217	0.0114746
710.295	0.0116673
710.373	0.0120708
710.451	0.0125994
710.530	0.0132505
710.608	0.0137457
710.686	0.0142133
710.764	0.0146212
710.842	0.0150180
710.920	0.0154643
710.998	0.0158011
711.076	0.0159572
711.155	0.0160942
711.233	0.0161485
711.311	0.0159534
711.389	0.0160529
711.467	0.0158960
711.545	0.0158994
711.623	0.0158305
711.701	0.0158133
711.780	0.0159335
711.858	0.0160033
711.936	0.0160877
712.014	0.0162158
712.092	0.0163320
712.170	0.0162508
712.248	0.0162689
712.326	0.0163078
712.405	0.0161539
712.483	0.0160427
712.561	0.0158930
712.639	0.0156602
712.717	0.0155437
712.795	0.0153701
712.873	0.0150974
712.951	0.0148849
713.030	0.0146609
713.108	0.0144550
713.186	0.0140664
713.264	0.0139017
713.342	0.0137479
713.420	0.0136839
713.498	0.0133015
713.576	0.0131590
713.655	0.0131949
713.733	0.0131211
713.811	0.0128513
713.889	0.0128830
713.967	0.0127769
714.045	0.0129074
714.123	0.0129255
714.201	0.0129095
714.280	0.0132389
714.358	0.0134462
714.436	0.0138934
714.514	0.0140601
714.592	0.0143519
714.670	0.0147987
714.748	0.0153617
714.826	0.0155445
714.905	0.0156242
714.983	0.0159010
715.061	0.0160625
715.139	0.0160160
715.217	0.0160968
715.295	0.0161005
715.373	0.0160363
715.451	0.0160677
715.530	0.0158698
715.608	0.0158332
715.686	0.0157912
715.764	0.0157787
715.842	0.0158582
715.920	0.0159304
715.998	0.0157520
716.076	0.0158367
716.155	0.0158076
716.233	0.0157428
716.311	0.0158883
716.389	0.0156951
716.467	0.0154649
716.545	0.0153300
716.623	0.0152937
716.701	0.0150410
716.780	0.0149174
716.858	0.0146934
716.936	0.0146098
717.014	0.0144489
717.092	0.0141738
717.170	0.0142306
717.248	0.0141445
717.326	0.0141862
717.405	0.0140363
717.483	0.0140066
717.561	0.0140536
717.639	0.0141361
717.717	0.0141274
717.795	0.0141328
717.873	0.0140260
717.951	0.0141852
718.030	0.0141610
718.108	0.0141740
718.186	0.0141362
718.264	0.0143269
718.342	0.0144939
718.420	0.0146161
718.498	0.0147668
718.576	0.0148026
718.655	0.0150482
718.733	0.0153876
718.811	0.0154905
718.889	0.0153477
718.967	0.0154483
719.045	0.0154535
719.123	0.0154218
719.201	0.0152855
719.280	0.0150768
719.358	0.0150916
719.436	0.0148658
719.514	0.0147876
719.592	0.0147860
719.670	0.0145856
719.748	0.0146017
719.826	0.0145198
719.905	0.0142056
719.983	0.0142248
720.061	0.0143757
720.139	0.0142085
720.217	0.0143602
720.295	0.0142761
720.373	0.0143715
720.451	0.0145104
720.530	0.0145464
720.608	0.0145653
720.686	0.0145855
720.764	0.0145818
720.842	0.0146596
720.920	0.0148471
720.998	0.0149111
721.076	0.0148553
721.155	0.0149650
721.233	0.0150441
721.311	0.0151540
721.389	0.0152353
721.467	0.0153538
721.545	0.0154266
721.623	0.0154912
721.701	0.0155175
721.780	0.0155914
721.858	0.0156345
721.936	0.0156484
722.014	0.0156419
722.092	0.0156831
722.170	0.0155767
722.248	0.0155453
722.326	0.0155149
722.405	0.0156896
722.483	0.0156097
722.561	0.0153918
722.639	0.0151739
722.717	0.0152753
722.795	0.0151367
722.873	0.0149342
722.951	0.0147123
723.030	0.0145729
723.108	0.0143290
723.186	0.0142974
723.264	0.0141515
723.342	0.0138612
723.420	0.0137701
723.498	0.0137572
723.576	0.0138931
723.655	0.0137673
723.733	0.0138362
723.811	0.0140339
723.889	0.0141321
723.967	0.0142033
724.045	0.0143656
724.123	0.0146297
724.201	0.0150343
724.280	0.0150746
724.358	0.0152352
724.436	0.0152751
724.514	0.0154271
724.592	0.0153703
724.670	0.0154552
724.748	0.0153973
724.826	0.0153288
724.905	0.0150257
724.983	0.0149057
725.061	0.0148787
725.139	0.0147196
725.217	0.0145843
725.295	0.0143624
725.373	0.0144678
725.451	0.0142285
725.530	0.0143254
725.608	0.0143845
725.686	0.0143872
725.764	0.0146042
725.842	0.0146830
725.920	0.0146054
725.998	0.0147263
726.076	0.0149612
726.155	0.0150123
726.233	0.0150292
726.311	0.0150459
726.389	0.0151214
726.467	0.0150912
726.545	0.0150722
726.623	0.0150964
726.701	0.0149221
726.780	0.0148460
726.858	0.0146840
726.936	0.0146515
727.014	0.0147192
727.092	0.0146416
727.170	0.0145522
727.248	0.0145856
727.326	0.0146545
727.405	0.0146953
727.483	0.0148841
727.561	0.0149648
727.639	0.0149940
727.717	0.0148826
727.795	0.0150948
727.873	0.0152872
727.951	0.0154411
728.030	0.0155831
728.108	0.0156064
728.186	0.0155444
728.264	0.0158769
728.342	0.0159095
728.420	0.0156775
728.498	0.0156407
728.576	0.0156285
728.655	0.0155775
728.733	0.0153966
728.811	0.0151730
728.889	0.0150164
728.967	0.0148877
729.045	0.0148452
729.123	0.0146178
729.201	0.0144123
729.280	0.0142239
729.358	0.0141911
729.436	0.0141702
729.514	0.0142020
729.592	0.0143195
729.670	0.0142789
729.748	0.0142414
729.826	0.0142265
729.905	0.0143529
729.983	0.0144175
730.061	0.0145099
730.139	0.0145126
730.217	0.0145197
730.295	0.0145128
730.373	0.0145967
730.451	0.0144811
730.530	0.0144805
730.608	0.0144329
730.686	0.0142723
730.764	0.0142535
730.842	0.0144180
730.920	0.0142699
730.998	0.0143514
731.076	0.0144975
731.155	0.0147267
731.233	0.0148052
731.311	0.0147588
731.389	0.0149622
731.467	0.0152559
731.545	0.0154935
731.623	0.0155376
731.701	0.0158329
731.780	0.0159077
731.858	0.0158652
731.936	0.0159256
732.014	0.0160900
732.092	0.0159927
732.170	0.0159344
732.248	0.0159686
732.326	0.0156857
732.405	0.0154408
732.483	0.0153065
732.561	0.0151135
732.639	0.0148909
732.717	0.0146967
732.795	0.0143498
732.873	0.0142017
732.951	0.0142303
733.030	0.0139508
733.108	0.0138441
733.186	0.0139571
733.264	0.0140243
733.342	0.0139843
733.420	0.0142522
733.498	0.0142901
733.576	0.0144978
733.655	0.0147585
733.733	0.0147324
733.811	0.0149122
733.889	0.0149734
733.967	0.0151072
734.045	0.0151658
734.123	0.0151706
734.201	0.0150187
734.280	0.0151545
734.358	0.0151064
734.436	0.0150382
734.514	0.0151553
734.592	0.0150184
734.670	0.0149362
734.748	0.0149590
734.826	0.0148782
734.905	0.0150268
734.983	0.0149496
735.061	0.0148700
735.139	0.0149838
735.217	0.0149463
735.295	0.0149454
735.373	0.0149521
735.451	0.0151105
735.530	0.0150455
735.608	0.0150162
735.686	0.0150412
735.764	0.0151597
735.842	0.0150765
735.920	0.0149129
735.998	0.0148233
736.076	0.0148360
736.155	0.0147677
736.233	0.0146864
736.311	0.0147127
736.389	0.0145007
736.467	0.0144805
736.545	0.0144370
736.623	0.0144485
736.701	0.0144058
736.780	0.0144035
736.858	0.0144658
736.936	0.0144751
737.014	0.0146947
737.092	0.0145712
737.170	0.0147804
737.248	0.0148933
737.326	0.0148022
737.405	0.0150329
737.483	0.0150571
737.561	0.0151241
737.639	0.0153262
737.717	0.0153281
737.795	0.0152947
737.873	0.0153002
737.951	0.0152409
738.030	0.0151682
738.108	0.0151610
738.186	0.0151018
738.264	0.0150732
738.342	0.0148205
738.420	0.0148568
738.498	0.0145755
738.576	0.0147251
738.655	0.0146667
738.733	0.0144103
738.811	0.0143600
738.889	0.0141376
738.967	0.0143272
739.045	0.0144405
739.123	0.0142986
739.201	0.0145334
739.280	0.0144873
739.358	0.0144547
739.436	0.0145767
739.514	0.0146583
739.592	0.0146917
739.670	0.0147695
739.748	0.0147759
739.826	0.0146632
739.905	0.0148125
739.983	0.0147662
740.061	0.0149409
740.139	0.0149434
740.217	0.0150928
740.295	0.0149252
740.373	0.0150105
740.451	0.0150953
740.530	0.0151828
740.608	0.0151921
740.686	0.0151040
740.764	0.0151209
740.842	0.0150229
740.920	0.0150069
740.998	0.0151418
741.076	0.0150544
741.155	0.0151334
741.233	0.0151366
741.311	0.0149837
741.389	0.0148565
741.467	0.0150143
741.545	0.0150381
741.623	0.0148895
741.701	0.0149233
741.780	0.0149884
741.858	0.0148611
741.936	0.0149844
742.014	0.0149815
742.092	0.0148869
742.170	0.0147753
742.248	0.0146611
742.326	0.0146264
742.405	0.0147934
742.483	0.0145911
742.561	0.0146822
742.639	0.0146477
742.717	0.0146497
742.795	0.0147515
742.873	0.0146475
742.951	0.0146623
743.030	0.0146790
743.108	0.0147276
743.186	0.0146641
743.264	0.0146225
743.342	0.0146059
743.420	0.0146401
743.498	0.0147098
743.576	0.0146725
743.655	0.0147092
743.733	0.0146560
743.811	0.0145827
743.889	0.0146737
743.967	0.0148524
744.045	0.0148622
744.123	0.0148404
744.201	0.0148633
744.280	0.0148821
744.358	0.0149793
744.436	0.0149035
744.514	0.0150699
744.592	0.0149950
744.670	0.0150368
744.748	0.0149992
744.826	0.0151277
744.905	0.0150952
744.983	0.0151413
745.061	0.0149020
745.139	0.0149756
745.217	0.0151251
745.295	0.0150500
745.373	0.0149382
745.451	0.0150152
745.530	0.0148626
745.608	0.0149081
745.686	0.0149904
745.764	0.0147180
745.842	0.0148325
745.920	0.0149488
745.998	0.0149337
746.076	0.0148058
746.155	0.0147276
746.233	0.0147398
746.311	0.0147117
746.389	0.0147089
746.467	0.0145309
746.545	0.0144744
746.623	0.0145562
746.701	0.0144567
746.780	0.0145834
746.858	0.0145414
746.936	0.0145914
747.014	0.0146099
747.092	0.0146085
747.170	0.0146327
747.248	0.0146741
747.326	0.0147402
747.405	0.0148569
747.483	0.0147951
747.561	0.0147935
747.639	0.0149792
747.717	0.0149900
747.795	0.0149693
747.873	0.0148221
747.951	0.0148758
748.030	0.0150504
748.108	0.0149522
748.186	0.0148899
748.264	0.0150994
748.342	0.0151562
748.420	0.0149923
748.498	0.0151271
748.576	0.0150647
748.655	0.0149574
748.733	0.0150216
748.811	0.0149444
748.889	0.0149667
748.967	0.0149364
749.045	0.0150071
749.123	0.0148927
749.201	0.0149219
749.280	0.0150100
749.358	0.0149906
749.436	0.0151160
749.514	0.0150741
749.592	0.0150629
749.670	0.0149378
749.748	0.0150321
749.826	0.0150550
749.905	0.0150089
749.983	0.0151060
750.061	0.0149954
750.139	0.0149314
750.217	0.0149080
750.295	0.0148845
750.373	0.0147861
750.451	0.0147142
750.530	0.0147188
750.608	0.0147014
750.686	0.0147235
750.764	0.0146928
750.842	0.0148028
750.920	0.0146286
750.998	0.0145417
751.076	0.0145230
751.155	0.0147382
751.233	0.0146715
751.311	0.0147335
751.389	0.0147755
751.467	0.0147399
751.545	0.0146398
751.623	0.0145832
751.701	0.0146656
751.780	0.0148747
751.858	0.0148698
751.936	0.0147906
752.014	0.0148161
752.092	0.0147887
752.170	0.0147080
752.248	0.0149249
752.326	0.0147910
752.405	0.0148997
752.483	0.0149139
752.561	0.0147591
752.639	0.0147621
752.717	0.0148141
752.795	0.0147621
752.873	0.0149066
752.951	0.0148161
753.030	0.0149489
753.108	0.0150769
753.186	0.0150895
753.264	0.0149653
753.342	0.0150298
753.420	0.0152619
753.498	0.0151574
753.576	0.0152661
753.655	0.0151289
753.733	0.0150925
753.811	0.0149372
753.889	0.0150042
753.967	0.0150653
754.045	0.0150982
754.123	0.0150121
754.201	0.0149506
754.280	0.0148254
754.358	0.0148534
754.436	0.0148667
754.514	0.0147394
754.592	0.0147130
754.670	0.0148827
754.748	0.0148022
754.826	0.0147734
754.905	0.0148246
754.983	0.0147806
755.061	0.0148895
755.139	0.0148927
755.217	0.0149292
755.295	0.0148077
755.373	0.0149722
755.451	0.0149029
755.530	0.0150450
755.608	0.0149752
755.686	0.0148704
755.764	0.0150281
755.842	0.0149268
755.920	0.0147472
755.998	0.0149372
756.076	0.0148196
756.155	0.0149110
756.233	0.0148292
756.311	0.0148639
756.389	0.0148354
756.467	0.0148476
756.545	0.0146642
756.623	0.0148299
756.701	0.0150050
756.780	0.0148743
756.858	0.0146921
756.936	0.0149719
757.014	0.0149851
757.092	0.0149467
757.170	0.0148698
757.248	0.0150891
757.326	0.0150202
757.405	0.0151043
757.483	0.0150694
757.561	0.0150175
757.639	0.0150198
757.717	0.0149532
757.795	0.0149918
757.873	0.0149245
757.951	0.0148715
758.030	0.0148278
758.108	0.0148627
758.186	0.0148101
758.264	0.0146007
758.342	0.0147063
758.420	0.0146659
758.498	0.0147659
758.576	0.0146528
758.655	0.0146400
758.733	0.0145602
758.811	0.0146552
758.889	0.0145919
758.967	0.0148431
759.045	0.0147156
759.123	0.0146445
759.201	0.0146490
759.280	0.0147247
759.358	0.0146916
759.436	0.0149136
759.514	0.0147521
759.592	0.0147202
759.670	0.0148062
759.748	0.0147385
759.826	0.0147976
759.905	0.0149046
759.983	0.0150074
760.061	0.0149813
760.139	0.0150892
760.217	0.0151468
760.295	0.0150972
760.373	0.0151698
760.451	0.0151919
760.530	0.0153690
760.608	0.0149934
760.686	0.0151206
760.764	0.0151598
760.842	0.0152083
760.920	0.0151057
760.998	0.0151254
761.076	0.0148518
761.155	0.0151726
761.233	0.0151865
761.311	0.0151290
761.389	0.0151309
761.467	0.0149260
761.545	0.0148631
761.623	0.0149488
761.701	0.0150234
761.780	0.0149342
761.858	0.0148550
761.936	0.0149659
762.014	0.0148295
762.092	0.0146645
762.170	0.0147807
762.248	0.0147403
762.326	0.0147161
762.405	0.0145876
762.483	0.0144799
762.561	0.0145831
762.639	0.0144350
762.717	0.0144457
762.795	0.0144914
762.873	0.0146656
762.951	0.0145777
763.030	0.0145877
763.108	0.0145611
763.186	0.0145945
763.264	0.0145569
763.342	0.0145538
763.420	0.0145911
763.498	0.0145487
763.576	0.0145436
763.655	0.0146243
763.733	0.0146391
763.811	0.0147481
763.889	0.0149101
763.967	0.0147367
764.045	0.0148952
764.123	0.0149615
764.201	0.0149699
764.280	0.0151128
764.358	0.0151824
764.436	0.0151756
764.514	0.0150447
764.592	0.0151712
764.670	0.0150211
764.748	0.0151511
764.826	0.0151605
764.905	0.0150727
764.983	0.0150797
765.061	0.0152152
765.139	0.0152534
765.217	0.0150066
765.295	0.0149181
765.373	0.0150560
765.451	0.0151348
765.530	0.0149243
765.608	0.0150951
765.686	0.0149426
765.764	0.0151284
765.842	0.0149055
765.920	0.0149458
765.998	0.0149886
766.076	0.0149117
766.155	0.0148188
766.233	0.0147580
766.311	0.0149783
766.389	0.0147868
766.467	0.0146985
766.545	0.0147492
766.623	0.0148387
766.701	0.0146761
766.780	0.0147752
766.858	0.0148674
766.936	0.0148392
767.014	0.0148978
767.092	0.0148583
767.170	0.0148396
767.248	0.0149045
767.326	0.0148728
767.405	0.0148420
767.483	0.0149008
767.561	0.0146839
767.639	0.0148393
767.717	0.0147833
767.795	0.0149503
767.873	0.0150059
767.951	0.0148837
768.030	0.0148894
768.108	0.0148915
768.186	0.0149312
768.264	0.0149074
768.342	0.0147887
768.420	0.0146214
768.498	0.0146446
768.576	0.0147625
768.655	0.0147872
768.733	0.0146648
768.811	0.0145205
768.889	0.0147250
768.967	0.0146443
769.045	0.0145547
769.123	0.0148496
769.201	0.0148232
769.280	0.0148504
769.358	0.0147411
769.436	0.0149203
769.514	0.0149979
769.592	0.0149681
769.670	0.0151386
769.748	0.0151470
769.826	0.0149960
769.905	0.0151029
769.983	0.0151524
770.061	0.0150025
770.139	0.0150539
770.217	0.0149097
770.295	0.0147442
770.373	0.0148538
770.451	0.0146992
770.530	0.0147041
770.608	0.0147156
770.686	0.0146815
770.764	0.0148890
770.842	0.0148023
770.920	0.0147663
770.998	0.0148298
771.076	0.0147559
771.155	0.0148312
771.233	0.0148576
771.311	0.0146944
771.389	0.0148963
771.467	0.0146808
771.545	0.0148103
771.623	0.0150206
771.701	0.0148558
771.780	0.0147799
771.858	0.0147991
771.936	0.0149556
772.014	0.0149606
772.092	0.0149575
772.170	0.0148727
772.248	0.0150546
772.326	0.0150125
772.405	0.0149796
772.483	0.0149700
772.561	0.0151096
772.639	0.0150204
772.717	0.0151297
772.795	0.0150486
772.873	0.0151750
772.951	0.0150764
773.030	0.0149825
773.108	0.0149047
773.186	0.0150249
773.264	0.0149686
773.342	0.0148618
773.420	0.0149537
773.498	0.0150663
773.576	0.0149440
773.655	0.0148340
773.733	0.0147486
773.811	0.0147175
773.889	0.0146517
773.967	0.0146072
774.045	0.0147253
774.123	0.0147194
774.201	0.0145890
774.280	0.0145691
774.358	0.0145074
774.436	0.0144989
774.514	0.0146058
774.592	0.0145152
774.670	0.0145842
774.748	0.0144476
774.826	0.0147263
774.905	0.0147022
774.983	0.0147535
775.061	0.0147814
775.139	0.0148852
775.217	0.0148076
775.295	0.0149056
775.373	0.0147800
775.451	0.0149050
775.530	0.0148593
775.608	0.0147578
775.686	0.0149852
775.764	0.0149369
775.842	0.0150086
775.920	0.0148727
775.998	0.0151586
776.076	0.0149676
776.155	0.0150699
776.233	0.0148495
776.311	0.0148665
776.389	0.0150397
776.467	0.0149245
776.545	0.0148505
776.623	0.0148804
776.701	0.0148944
776.780	0.0147610
776.858	0.0147913
776.936	0.0148247
777.014	0.0147633
777.092	0.0148758
777.170	0.0148166
777.248	0.0149082
777.326	0.0148113
777.405	0.0148814
777.483	0.0149895
777.561	0.0149782
777.639	0.0150198
777.717	0.0150032
777.795	0.0149937
777.873	0.0149481
777.951	0.0149087
778.030	0.0148920
778.108	0.0148973
778.186	0.0149493
778.264	0.0148836
778.342	0.0147265
778.420	0.0147743
778.498	0.0146580
778.576	0.0145426
778.655	0.0146996
778.733	0.0147179
778.811	0.0147560
778.889	0.0147588
778.967	0.0146947
779.045	0.0148448
779.123	0.0147385
779.201	0.0147425
779.280	0.0148049
779.358	0.0148912
779.436	0.0148506
779.514	0.0148830
779.592	0.0147504
779.670	0.0148859
779.748	0.0147382
779.826	0.0148974
779.905	0.0147308
779.983	0.0147904
780.061	0.0146450
780.139	0.0149741
780.217	0.0149532
780.295	0.0149372
780.373	0.0149211
780.451	0.0149083
780.530	0.0148785
780.608	0.0149812
780.686	0.0147588
780.764	0.0149011
780.842	0.0148035
780.920	0.0149579
780.998	0.0149438
781.076	0.0149195
781.155	0.0148287
781.233	0.0149368
781.311	0.0148107
781.389	0.0149696
781.467	0.0149921
781.545	0.0149378
781.623	0.0148965
781.701	0.0149128
781.780	0.0148399
781.858	0.0148176
781.936	0.0147585
782.014	0.0148763
782.092	0.0148209
782.170	0.0147704
782.248	0.0148473
782.326	0.0148122
782.405	0.0147104
782.483	0.0147638
782.561	0.0146770
782.639	0.0147378
782.717	0.0147901
782.795	0.0148245
782.873	0.0148364
782.951	0.0147338
783.030	0.0148446
783.108	0.0147584
783.186	0.0147241
783.264	0.0148275
783.342	0.0147805
783.420	0.0148844
783.498	0.0148933
783.576	0.0148566
783.655	0.0149596
783.733	0.0150327
783.811	0.0150439
783.889	0.0150671
783.967	0.0150937
784.045	0.0149911
784.123	0.0151219
784.201	0.0151221
784.280	0.0149944
784.358	0.0151381
784.436	0.0151296
784.514	0.0149795
784.592	0.0148838
784.670	0.0149925
784.748	0.0149320
784.826	0.0147938
784.905	0.0147436
784.983	0.0147308
785.061	0.0147529
785.139	0.0147083
785.217	0.0147618
785.295	0.0146620
785.373	0.0146085
785.451	0.0146751
785.530	0.0146586
785.608	0.0147137
785.686	0.0147892
785.764	0.0147204
785.842	0.0146686
785.920	0.0147280
785.998	0.0146989
786.076	0.0146629
786.155	0.0146487
786.233	0.0146318
786.311	0.0147134
786.389	0.0147225
786.467	0.0147904
786.545	0.0148126
786.623	0.0148417
786.701	0.0150006
786.780	0.0149787
786.858	0.0150619
786.936	0.0150250
787.014	0.0151304
787.092	0.0152326
787.170	0.0151801
787.248	0.0153139
787.326	0.0152705
787.405	0.0151709
787.483	0.0152321
787.561	0.0152746
787.639	0.0151479
787.717	0.0150444
787.795	0.0150089
787.873	0.0149294
787.951	0.0147278
788.030	0.0147538
788.108	0.0145677
788.186	0.0144173
788.264	0.0143180
788.342	0.0143108
788.420	0.0143314
788.498	0.0143237
788.576	0.0142195
788.655	0.0142587
788.733	0.0144314
788.811	0.0143082
788.889	0.0142519
788.967	0.0145301
789.045	0.0145356
789.123	0.0146423
789.201	0.0148135
789.280	0.0149495
789.358	0.0151090
789.436	0.0150291
789.514	0.0153078
789.592	0.0152739
789.670	0.0153058
789.748	0.0155241
789.826	0.0155517
789.905	0.0154382
789.983	0.0154883
790.061	0.0154711
790.139	0.0154403
790.217	0.0153595
790.295	0.0152833
790.373	0.0152120
790.451	0.0151099
790.530	0.0151183
790.608	0.0149041
790.686	0.0147313
790.764	0.0145796
790.842	0.0143920
790.920	0.0143950
790.998	0.0142570
791.076	0.0142841
791.155	0.0141451
791.233	0.0141064
791.311	0.0139046
791.389	0.0138533
791.467	0.0139126
791.545	0.0139368
791.623	0.0138503
791.701	0.0138457
791.780	0.0139772
791.858	0.0140521
791.936	0.0140020
792.014	0.0141248
792.092	0.0142441
792.170	0.0145901
792.248	0.0145860
792.326	0.0148779
792.405	0.0151329
792.483	0.0150758
792.561	0.0152369
792.639	0.0153497
792.717	0.0154640
792.795	0.0157608
792.873	0.0159446
792.951	0.0159765
793.030	0.0161431
793.108	0.0162088
793.186	0.0162309
793.264	0.0163683
793.342	0.0163943
793.420	0.0161667
793.498	0.0161029
793.576	0.0160481
793.655	0.0159045
793.733	0.0157000
793.811	0.0156664
793.889	0.0154681
793.967	0.0153584
794.045	0.0151041
794.123	0.0147536
794.201	0.0145298
794.280	0.0142706
794.358	0.0141064
794.436	0.0140228
794.514	0.0137926
794.592	0.0137192
794.670	0.0136591
794.748	0.0134110
794.826	0.0133670
794.905	0.0132626
794.983	0.0134172
795.061	0.0133061
795.139	0.0132698
795.217	0.0135000
795.295	0.0136679
795.373	0.0137843
795.451	0.0139255
795.530	0.0140421
795.608	0.0141562
795.686	0.0144006
795.764	0.0147398
795.842	0.0149107
795.920	0.0149222
795.998	0.0151492
796.076	0.0152694
796.155	0.0154317
796.233	0.0154673
796.311	0.0155404
796.389	0.0157359
796.467	0.0158115
796.545	0.0159894
796.623	0.0160571
796.701	0.0161527
796.780	0.0161763
796.858	0.0161438
796.936	0.0160600
797.014	0.0162093
797.092	0.0162651
797.170	0.0161263
797.248	0.0159482
797.326	0.0158340
797.405	0.0158238
797.483	0.0155743
797.561	0.0153052
797.639	0.0152873
797.717	0.0150876
797.795	0.0146988
797.873	0.0145651
797.951	0.0146073
798.030	0.0144560
798.108	0.0141476
798.186	0.0139981
798.264	0.0139643
798.342	0.0139771
798.420	0.0138965
798.498	0.0136978
798.576	0.0137892
798.655	0.0136397
798.733	0.0136639
798.811	0.0137363
798.889	0.0137394
798.967	0.0136227
799.045	0.0138218
799.123	0.0138766
799.201	0.0139132
799.280	0.0142311
799.358	0.0143039
799.436	0.0142999
799.514	0.0143725
799.592	0.0147050
799.670	0.0147869
799.748	0.0148595
799.826	0.0149918
799.905	0.0151354
799.983	0.0152741
800.061	0.0153970
800.139	0.0155489
800.217	0.0154887
800.295	0.0155720
800.373	0.0158063
800.451	0.0157601
800.530	0.0157639
800.608	0.0157269
800.686	0.0157568
800.764	0.0156560
800.842	0.0155527
800.920	0.0156174
800.998	0.0155394
801.076	0.0155278
801.155	0.0154676
801.233	0.0152760
801.311	0.0153345
801.389	0.0152724
801.467	0.0149218
801.545	0.0148968
801.623	0.0147777
801.701	0.0148656
801.780	0.0147633
801.858	0.0145779
801.936	0.0145830
802.014	0.0146758
802.092	0.0145153
802.170	0.0143307
802.248	0.0143367
802.326	0.0143447
802.405	0.0143721
802.483	0.0144667
802.561	0.0142418
802.639	0.0143362
802.717	0.0143393
802.795	0.0142533
802.873	0.0143381
802.951	0.0142630
803.030	0.0142220
803.108	0.0143565
803.186	0.0143264
803.264	0.0143642
803.342	0.0145031
803.420	0.0144234
803.498	0.0146201
803.576	0.0145193
803.655	0.0146164
803.733	0.0146665
803.811	0.0148348
803.889	0.0148740
803.967	0.0148815
804.045	0.0150445
804.123	0.0151118
804.201	0.0148774
804.280	0.0149815
804.358	0.0149256
804.436	0.0149148
804.514	0.0150386
804.592	0.0150679
804.670	0.0152216
804.748	0.0151665
804.826	0.0148783
804.905	0.0151627
804.983	0.0152634
805.061	0.0151482
805.139	0.0151069
805.217	0.0150221
805.295	0.0151630
805.373	0.0152087
805.451	0.0151926
805.530	0.0152484
805.608	0.0151063
805.686	0.0151406
805.764	0.0151561
805.842	0.0150022
805.920	0.0149166
805.998	0.0149759
806.076	0.0149522
806.155	0.0148922
806.233	0.0148780
806.311	0.0149419
806.389	0.0145644
806.467	0.0145798
806.545	0.0146599
806.623	0.0145166
806.701	0.0145676
806.780	0.0145691
806.858	0.0146661
806.936	0.0145428
807.014	0.0145146
807.092	0.0145392
807.170	0.0145953
807.248	0.0146027
807.326	0.0147526
807.405	0.0146458
807.483	0.0147173
807.561	0.0148240
807.639	0.0148080
807.717	0.0147198
807.795	0.0147984
807.873	0.0149985
807.951	0.0149870
808.030	0.0149384
808.108	0.0149530
808.186	0.0151430
808.264	0.0150549
808.342	0.0150296
808.420	0.0150595
808.498	0.0150858
808.576	0.0151981
808.655	0.0151903
808.733	0.0151470
808.811	0.0151699
808.889	0.0152734
808.967	0.0151771
809.045	0.0150987
809.123	0.0151135
809.201	0.0151871
809.280	0.0150143
809.358	0.0149036
809.436	0.0149992
809.514	0.0150208
809.592	0.0149218
809.670	0.0148495
809.748	0.0146763
809.826	0.0146854
809.905	0.0146603
809.983	0.0145427
810.061	0.0145557
810.139	0.0145835
810.217	0.0145728
810.295	0.0144481
810.373	0.0144701
810.451	0.0145033
810.530	0.0144861
810.608	0.0145479
810.686	0.0145683
810.764	0.0145087
810.842	0.0146021
810.920	0.0145592
810.998	0.0146307
811.076	0.0146426
811.155	0.0146602
811.233	0.0146374
811.311	0.0147871
811.389	0.0148362
811.467	0.0147359
811.545	0.0148126
811.623	0.0148605
811.701	0.0149234
811.780	0.0150665
811.858	0.0148334
811.936	0.0149851
812.014	0.0151457
812.092	0.0150917
812.170	0.0151362
812.248	0.0151797
812.326	0.0152361
812.405	0.0152155
812.483	0.0150133
812.561	0.0151316
812.639	0.0150497
812.717	0.0151349
812.795	0.0150491
812.873	0.0150764
812.951	0.0150355
813.030	0.0150908
813.108	0.0149245
813.186	0.0149562
813.264	0.0149383
813.342	0.0149339
813.420	0.0149826
813.498	0.0148968
813.576	0.0148443
813.655	0.0148201
813.733	0.0146785
813.811	0.0148283
813.889	0.0148238
813.967	0.0149355
814.045	0.0147784
814.123	0.0147228
814.201	0.0147716
814.280	0.0146516
814.358	0.0146366
814.436	0.0147119
814.514	0.0146084
814.592	0.0145352
814.670	0.0145080
814.748	0.0145555
814.826	0.0146546
814.905	0.0148557
814.983	0.0145981
815.061	0.0146512
815.139	0.0146613
815.217	0.0147954
815.295	0.0148500
815.373	0.0148069
815.451	0.0148320
815.530	0.0146117
815.608	0.0148477
815.686	0.0148564
815.764	0.0147433
815.842	0.0147337
815.920	0.0148354
815.998	0.0147987
816.076	0.0147775
816.155	0.0147207
816.233	0.0147685
816.311	0.0147704
816.389	0.0147816
816.467	0.0148908
816.545	0.0149957
816.623	0.0148517
816.701	0.0147608
816.780	0.0148232
816.858	0.0147676
816.936	0.0149365
817.014	0.0149349
817.092	0.0150164
817.170	0.0149055
817.248	0.0149890
817.326	0.0150635
817.405	0.0150619
817.483	0.0151023
817.561	0.0150515
817.639	0.0151878
817.717	0.0150935
817.795	0.0150523
817.873	0.0152507
817.951	0.0151265
818.030	0.0151355
818.108	0.0151478
818.186	0.0150234
818.264	0.0149683
818.342	0.0149133
818.420	0.0149526
818.498	0.0149127
818.576	0.0147505
818.655	0.0148342
818.733	0.0145602
818.811	0.0146331
818.889	0.0146827
818.967	0.0146030
819.045	0.0145747
819.123	0.0146846
819.201	0.0145925
819.280	0.0145708
819.358	0.0146814
819.436	0.0145427
819.514	0.0146832
819.592	0.0146984
819.670	0.0145504
819.748	0.0148515
819.826	0.0147156
819.905	0.0147806
819.983	0.0147041
820.061	0.0146700
820.139	0.0148147
820.217	0.0147728
820.295	0.0149409
820.373	0.0148731
820.451	0.0149307
820.530	0.0150309
820.608	0.0149128
820.686	0.0150813
820.764	0.0151212
820.842	0.0149680
820.920	0.0148370
820.998	0.0149835
821.076	0.0150670
821.155	0.0149598
821.233	0.0149123
821.311	0.0148114
821.389	0.0149948
821.467	0.0148621
821.545	0.0148871
821.623	0.0148196
821.701	0.0146988
821.780	0.0146684
821.858	0.0148864
821.936	0.0148283
822.014	0.0148083
822.092	0.0148273
822.170	0.0146564
822.248	0.0146961
822.326	0.0146545
822.405	0.0146881
822.483	0.0147781
822.561	0.0147232
822.639	0.0148055
822.717	0.0150154
822.795	0.0149905
822.873	0.0147124
822.951	0.0149402
823.030	0.0149997
823.108	0.0149397
823.186	0.0151084
823.264	0.0149506
823.342	0.0150580
823.420	0.0150092
823.498	0.0150011
823.576	0.0150101
823.655	0.0150657
823.733	0.0149531
823.811	0.0148885
823.889	0.0150024
823.967	0.0149734
824.045	0.0149344
824.123	0.0149203
824.201	0.0148386
824.280	0.0148171
824.358	0.0149122
824.436	0.0148824
824.514	0.0148613
824.592	0.0147152
824.670	0.0146986
824.748	0.0147990
824.826	0.0147807
824.905	0.0145879
824.983	0.0146581
825.061	0.0147866
825.139	0.0146967
825.217	0.0146835
825.295	0.0147313
825.373	0.0148956
825.451	0.0149116
825.530	0.0147948
825.608	0.0148861
825.686	0.0149321
825.764	0.0149824
825.842	0.0148485
825.920	0.0149110
825.998	0.0148828
826.076	0.0149024
826.155	0.0150146
826.233	0.0148999
826.311	0.0147958
826.389	0.0148294
826.467	0.0148425
826.545	0.0148821
826.623	0.0150457
826.701	0.0149312
826.780	0.0148343
826.858	0.0149614
826.936	0.0149075
827.014	0.0148825
827.092	0.0148903
827.170	0.0149534
827.248	0.0150083
827.326	0.0150753
827.405	0.0149480
827.483	0.0150463
827.561	0.0150788
827.639	0.0149011
827.717	0.0149703
827.795	0.0150189
827.873	0.0148964
827.951	0.0149495
828.030	0.0149213
828.108	0.0148291
828.186	0.0147413
828.264	0.0147056
828.342	0.0147665
828.420	0.0148965
828.498	0.0149175
828.576	0.0148094
828.655	0.0148044
828.733	0.0148728
828.811	0.0148507
828.889	0.0149751
828.967	0.0149032
829.045	0.0148508
829.123	0.0149017
829.201	0.0149817
829.280	0.0150296
829.358	0.0149329
829.436	0.0148470
829.514	0.0149173
829.592	0.0148906
829.670	0.0148762
829.748	0.0147625
829.826	0.0147971
829.905	0.0147493
829.983	0.0148601
830.061	0.0148279
830.139	0.0147002
830.217	0.0147659
830.295	0.0148286
830.373	0.0148577
830.451	0.0147880
830.530	0.0149086
830.608	0.0148853
830.686	0.0148386
830.764	0.0147755
830.842	0.0147215
830.920	0.0148284
830.998	0.0148729
831.076	0.0146611
831.155	0.0147343
831.233	0.0148196
831.311	0.0147474
831.389	0.0148032
831.467	0.0148298
831.545	0.0147939
831.623	0.0147416
831.701	0.0148112
831.780	0.0148785
831.858	0.0147762
831.936	0.0148788
832.014	0.0148615
832.092	0.0147443
832.170	0.0148853
832.248	0.0147832
832.326	0.0147694
832.405	0.0147733
832.483	0.0147832
832.561	0.0147633
832.639	0.0148505
832.717	0.0148179
832.795	0.0149645
832.873	0.0149237
832.951	0.0147935
833.030	0.0149050
833.108	0.0148878
833.186	0.0148114
833.264	0.0148356
833.342	0.0149663
833.420	0.0149281
833.498	0.0150696
833.576	0.0150737
833.655	0.0150607
833.733	0.0150021
833.811	0.0151841
833.889	0.0152040
833.967	0.0149885
834.045	0.0151817
834.123	0.0150016
834.201	0.0150774
834.280	0.0151967
834.358	0.0149867
834.436	0.0150321
834.514	0.0149356
834.592	0.0150245
834.670	0.0150095
834.748	0.0148675
834.826	0.0149326
834.905	0.0149270
834.983	0.0148386
835.061	0.0148885
835.139	0.0146047
835.217	0.0147526
835.295	0.0146683
835.373	0.0147306
835.451	0.0146936
835.530	0.0146947
835.608	0.0145956
835.686	0.0146139
835.764	0.0146821
835.842	0.0146202
835.920	0.0147331
835.998	0.0147203
836.076	0.0147705
836.155	0.0147205
836.233	0.0148168
836.311	0.0146925
836.389	0.0146522
836.467	0.0146959
836.545	0.0146243
836.623	0.0147026
836.701	0.0146977
836.780	0.0147471
836.858	0.0147192
836.936	0.0146748
837.014	0.0146570
837.092	0.0146837
837.170	0.0149208
837.248	0.0148018
837.326	0.0149065
837.405	0.0150382
837.483	0.0148223
837.561	0.0149812
837.639	0.0150099
837.717	0.0150729
837.795	0.0147490
837.873	0.0148547
837.951	0.0150558
838.030	0.0149651
838.108	0.0149311
838.186	0.0150109
838.264	0.0149902
838.342	0.0148540
838.420	0.0149785
838.498	0.0149921
838.576	0.0149153
838.655	0.0150101
838.733	0.0149063
838.811	0.0148781
838.889	0.0148278
838.967	0.0149483
839.045	0.0149471
839.123	0.0149783
839.201	0.0148289
839.280	0.0149039
839.358	0.0148313
839.436	0.0149426
839.514	0.0148580
839.592	0.0148280
839.670	0.0148133
839.748	0.0147808
839.826	0.0148723
839.905	0.0147945
839.983	0.0147198
840.061	0.0147829
840.139	0.0147412
840.217	0.0146669
840.295	0.0146613
840.373	0.0145837
840.451	0.0147293
840.530	0.0147707
840.608	0.0147836
840.686	0.0147406
840.764	0.0148627
840.842	0.0147004
840.920	0.0147008
840.998	0.0147787
841.076	0.0148144
841.155	0.0148499
841.233	0.0146654
841.311	0.0148232
841.389	0.0149133
841.467	0.0149174
841.545	0.0149453
841.623	0.0148882
841.701	0.0148232
841.780	0.0149235
841.858	0.0149679
841.936	0.0148978
842.014	0.0148589
842.092	0.0148994
842.170	0.0149794
842.248	0.0149190
842.326	0.0149741
842.405	0.0150679
842.483	0.0149873
842.561	0.0150409
842.639	0.0150906
842.717	0.0150264
842.795	0.0151218
842.873	0.0149603
842.951	0.0150766
843.030	0.0148728
843.108	0.0148837
843.186	0.0148849
843.264	0.0148739
843.342	0.0148479
843.420	0.0149018
843.498	0.0148740
843.576	0.0147612
843.655	0.0148809
843.733	0.0146544
843.811	0.0147453
843.889	0.0145962
843.967	0.0147280
844.045	0.0147945
844.123	0.0147242
844.201	0.0147191
844.280	0.0147345
844.358	0.0147032
844.436	0.0147822
844.514	0.0147613
844.592	0.0146650
844.670	0.0147675
844.748	0.0148019
844.826	0.0147184
844.905	0.0147369
844.983	0.0148343
845.061	0.0147974
845.139	0.0148096
845.217	0.0147444
845.295	0.0146944
845.373	0.0147903
845.451	0.0148927
845.530	0.0147610
845.608	0.0147931
845.686	0.0149372
845.764	0.0149558
845.842	0.0148817
845.920	0.0149745
845.998	0.0148790
846.076	0.0148070
846.155	0.0149438
846.233	0.0150061
846.311	0.0149848
846.389	0.0150384
846.467	0.0148986
846.545	0.0150433
846.623	0.0150389
846.701	0.0149177
846.780	0.0149107
846.858	0.0149186
846.936	0.0149712
847.014	0.0149952
847.092	0.0150528
847.170	0.0149888
847.248	0.0150165
847.326	0.0150224
847.405	0.0149516
847.483	0.0149608
847.561	0.0149564
847.639	0.0149052
847.717	0.0149148
847.795	0.0149531
847.873	0.0149922
847.951	0.0148039
848.030	0.0149091
848.108	0.0147747
848.186	0.0148492
848.264	0.0150119
848.342	0.0149535
848.420	0.0147953
848.498	0.0147952
848.576	0.0148139
848.655	0.0147066
848.733	0.0145944
848.811	0.0146539
848.889	0.0146972
848.967	0.0146712
849.045	0.0148028
849.123	0.0146143
849.201	0.0146311
849.280	0.0147028
849.358	0.0147015
849.436	0.0146016
849.514	0.0147983
849.592	0.0148310
849.670	0.0148636
849.748	0.0148761
849.826	0.0148843
849.905	0.0148604
849.983	0.0150063
850.061	0.0150770
850.139	0.0151023
850.217	0.0150968
850.295	0.0150383
850.373	0.0150906
850.451	0.0150846
850.530	0.0151062
850.608	0.0149624
850.686	0.0150446
850.764	0.0149699
850.842	0.0149927
850.920	0.0150190
850.998	0.0149561
851.076	0.0149863
851.155	0.0149653
851.233	0.0149603
851.311	0.0148624
851.389	0.0148653
851.467	0.0147978
851.545	0.0148781
851.623	0.0147717
851.701	0.0147883
851.780	0.0148451
851.858	0.0146633
851.936	0.0148514
852.014	0.0147025
852.092	0.0148692
852.170	0.0147616
852.248	0.0147922
852.326	0.0147515
852.405	0.0147937
852.483	0.0148017
852.561	0.0147920
852.639	0.0148962
852.717	0.0147418
852.795	0.0148199
852.873	0.0148646
852.951	0.0148355
853.030	0.0148920
853.108	0.0148769
853.186	0.0148409
853.264	0.0148126
853.342	0.0148664
853.420	0.0150048
853.498	0.0149992
853.576	0.0148962
853.655	0.0148936
853.733	0.0151034
853.811	0.0149062
853.889	0.0149680
853.967	0.0150751
854.045	0.0151431
854.123	0.0151017
854.201	0.0150663
854.280	0.0150285
854.358	0.0150523
854.436	0.0150953
854.514	0.0151947
854.592	0.0150571
854.670	0.0148921
854.748	0.0149056
854.826	0.0149647
854.905	0.0149490
854.983	0.0148887
855.061	0.0148553
855.139	0.0148318
855.217	0.0147382
855.295	0.0146825
855.373	0.0147131
855.451	0.0146987
855.530	0.0147334
855.608	0.0147626
855.686	0.0145464
855.764	0.0147310
855.842	0.0147179
855.920	0.0147653
855.998	0.0147301
856.076	0.0146315
856.155	0.0146494
856.233	0.0148522
856.311	0.0147206
856.389	0.0148499
856.467	0.0148341
856.545	0.0147840
856.623	0.0148637
856.701	0.0148125
856.780	0.0148066
856.858	0.0149153
856.936	0.0148302
857.014	0.0148347
857.092	0.0147578
857.170	0.0148982
857.248	0.0150010
857.326	0.0148038
857.405	0.0146730
857.483	0.0148069
857.561	0.0148693
857.639	0.0147610
857.717	0.0147744
857.795	0.0148335
857.873	0.0149487
857.951	0.0148950
858.030	0.0149548
858.108	0.0149236
858.186	0.0148061
858.264	0.0148112
858.342	0.0148821
858.420	0.0147961
858.498	0.0148766
858.576	0.0148849
858.655	0.0149673
858.733	0.0148164
858.811	0.0149084
858.889	0.0149098
858.967	0.0148853
859.045	0.0148590
859.123	0.0149280
859.201	0.0148249
859.280	0.0148872
859.358	0.0149847
859.436	0.0150040
859.514	0.0148389
859.592	0.0149986
859.670	0.0149915
859.748	0.0148096
859.826	0.0148277
859.905	0.0149645
859.983	0.0149484
860.061	0.0147451
860.139	0.0148411
860.217	0.0148117
860.295	0.0147977
860.373	0.0147592
860.451	0.0150220
860.530	0.0148471
860.608	0.0148464
860.686	0.0149329
860.764	0.0148696
860.842	0.0149770
860.920	0.0149929
860.998	0.0148224
861.076	0.0148428
861.155	0.0148575
861.233	0.0148837
861.311	0.0146813
861.389	0.0148801
861.467	0.0148220
861.545	0.0147671
861.623	0.0148781
861.701	0.0147425
861.780	0.0147244
861.858	0.0148780
861.936	0.0147952
862.014	0.0147370
862.092	0.0148527
862.170	0.0148114
862.248	0.0147796
862.326	0.0147620
862.405	0.0147672
862.483	0.0147417
862.561	0.0147951
862.639	0.0147426
862.717	0.0145834
862.795	0.0146624
862.873	0.0146825
862.951	0.0146925
863.030	0.0147549
863.108	0.0147090
863.186	0.0147811
863.264	0.0149958
863.342	0.0148590
863.420	0.0147939
863.498	0.0149338
863.576	0.0149018
863.655	0.0148219
863.733	0.0149903
863.811	0.0151102
863.889	0.0150757
863.967	0.0150462
864.045	0.0149573
864.123	0.0149335
864.201	0.0148896
864.280	0.0149512
864.358	0.0149996
864.436	0.0148704
864.514	0.0148917
864.592	0.0148227
864.670	0.0148550
864.748	0.0149050
864.826	0.0148437
864.905	0.0148530
864.983	0.0148091
865.061	0.0147988
865.139	0.0149043
865.217	0.0148088
865.295	0.0147314
865.373	0.0146870
865.451	0.0148202
865.530	0.0148734
865.608	0.0148296
865.686	0.0148014
865.764	0.0146686
865.842	0.0147623
865.920	0.0149313
865.998	0.0148022
866.076	0.0147160
866.155	0.0147683
866.233	0.0147002
866.311	0.0147785
866.389	0.0147185
866.467	0.0148705
866.545	0.0147983
866.623	0.0147318
866.701	0.0148935
866.780	0.0149512
866.858	0.0147693
866.936	0.0148506
867.014	0.0148483
867.092	0.0148159
867.170	0.0149088
867.248	0.0148780
867.326	0.0149461
867.405	0.0149458
867.483	0.0149287
867.561	0.0148547
867.639	0.0148512
867.717	0.0147535
867.795	0.0148743
867.873	0.0146269
867.951	0.0145438
868.030	0.0146494
868.108	0.0147187
868.186	0.0147805
868.264	0.0147341
868.342	0.0146838
868.420	0.0146201
868.498	0.0144931
868.576	0.0147210
868.655	0.0148009
868.733	0.0148260
868.811	0.0149241
868.889	0.0148682
868.967	0.0149133
869.045	0.0147867
869.123	0.0149306
869.201	0.0150007
869.280	0.0148495
869.358	0.0148021
869.436	0.0148811
869.514	0.0148714
869.592	0.0149597
869.670	0.0148827
869.748	0.0146840
869.826	0.0148466
869.905	0.0148810
869.983	0.0149058
870.061	0.0147798
870.139	0.0148324
870.217	0.0148682
870.295	0.0148041
870.373	0.0145810
870.451	0.0147042
870.530	0.0147028
870.608	0.0147411
870.686	0.0148927
870.764	0.0148524
870.842	0.0147696
870.920	0.0147798
870.998	0.0148603
871.076	0.0149150
871.155	0.0148265
871.233	0.0149422
871.311	0.0149502
871.389	0.0148512
871.467	0.0148656
871.545	0.0148249
871.623	0.0150155
871.701	0.0149132
871.780	0.0147223
871.858	0.0148462
871.936	0.0149619
872.014	0.0148647
872.092	0.0148547
872.170	0.0148853
872.248	0.0147943
872.326	0.0147660
872.405	0.0148347
872.483	0.0147630
872.561	0.0147221
872.639	0.0147005
872.717	0.0147604
872.795	0.0148151
872.873	0.0149472
872.951	0.0149107
873.030	0.0149638
873.108	0.0148563
873.186	0.0148685
873.264	0.0147573
873.342	0.0149004
873.420	0.0149483
873.498	0.0148463
873.576	0.0146748
873.655	0.0147776
873.733	0.0146358
873.811	0.0146514
873.889	0.0147498
873.967	0.0147742
874.045	0.0146725
874.123	0.0146751
874.201	0.0146573
874.280	0.0147188
874.358	0.0145300
874.436	0.0146694
874.514	0.0147762
874.592	0.0147304
874.670	0.0147387
874.748	0.0147808
874.826	0.0148042
874.905	0.0149323
874.983	0.0150354
875.061	0.0149099
875.139	0.0148989
875.217	0.0150442
875.295	0.0149734
875.373	0.0149841
875.451	0.0149220
875.530	0.0150004
875.608	0.0151562
875.686	0.0149725
875.764	0.0148225
875.842	0.0150433
875.920	0.0149486
875.998	0.0149080
876.076	0.0149567
876.155	0.0148557
876.233	0.0149018
876.311	0.0148073
876.389	0.0148679
876.467	0.0147667
876.545	0.0148343
876.623	0.0147404
876.701	0.0147603
876.780	0.0147690
876.858	0.0148177
876.936	0.0148338
877.014	0.0148238
877.092	0.0146081
877.170	0.0147372
877.248	0.0149346
877.326	0.0147180
877.405	0.0146933
877.483	0.0146956
877.561	0.0148322
877.639	0.0146159
877.717	0.0147676
877.795	0.0145863
877.873	0.0146364
877.951	0.0145862
878.030	0.0147695
878.108	0.0145799
878.186	0.0146696
878.264	0.0147305
878.342	0.0146674
878.420	0.0148590
878.498	0.0147828
878.576	0.0148539
878.655	0.0147457
878.733	0.0148615
878.811	0.0148781
878.889	0.0149539
878.967	0.0149248
879.045	0.0148223
879.123	0.0149973
879.201	0.0148435
879.280	0.0148624
879.358	0.0150327
879.436	0.0149776
879.514	0.0149059
879.592	0.0149189
879.670	0.0148790
879.748	0.0150237
879.826	0.0148216
879.905	0.0149488
879.983	0.0149271
880.061	0.0148263
880.139	0.0148423
880.217	0.0149248
880.295	0.0149924
880.373	0.0149340
880.451	0.0148680
880.530	0.0147491
880.608	0.0148602
880.686	0.0147858
880.764	0.0147503
880.842	0.0146877
880.920	0.0145374
880.998	0.0145740
881.076	0.0145403
881.155	0.0145731
881.233	0.0145181
881.311	0.0144934
881.389	0.0145118
881.467	0.0145508
881.545	0.0146270
881.623	0.0146888
881.701	0.0148252
881.780	0.0147936
881.858	0.0149602
881.936	0.0149096
882.014	0.0150368
882.092	0.0150755
882.170	0.0150081
882.248	0.0149828
882.326	0.0151222
882.405	0.0151167
882.483	0.0150172
882.561	0.0149028
882.639	0.0148328
882.717	0.0148132
882.795	0.0147153
882.873	0.0146493
882.951	0.0146593
883.030	0.0147882
883.108	0.0146390
883.186	0.0147507
883.264	0.0147488
883.342	0.0145715
883.420	0.0146485
883.498	0.0146093
883.576	0.0146886
883.655	0.0145040
883.733	0.0145597
883.811	0.0145879
883.889	0.0146547
883.967	0.0146217
884.045	0.0146736
884.123	0.0146978
884.201	0.0146726
884.280	0.0147762
884.358	0.0150253
884.436	0.0150412
884.514	0.0151058
884.592	0.0151943
884.670	0.0154099
884.748	0.0153762
884.826	0.0153571
884.905	0.0154144
884.983	0.0153934
885.061	0.0153797
885.139	0.0154764
885.217	0.0152114
885.295	0.0151272
885.373	0.0149128
885.451	0.0148237
885.530	0.0147799
885.608	0.0147687
885.686	0.0146310
885.764	0.0144191
885.842	0.0143339
885.920	0.0142648
885.998	0.0142429
886.076	0.0142324
886.155	0.0141667
886.233	0.0142180
886.311	0.0141751
886.389	0.0141005
886.467	0.0143086
886.545	0.0143268
886.623	0.0144304
886.701	0.0145190
886.780	0.0145699
886.858	0.0146804
886.936	0.0147144
887.014	0.0148678
887.092	0.0149374
887.170	0.0150761
887.248	0.0150941
887.326	0.0151617
887.405	0.0152516
887.483	0.0152520
887.561	0.0152939
887.639	0.0155292
887.717	0.0154668
887.795	0.0155890
887.873	0.0156763
887.951	0.0156348
888.030	0.0156809
888.108	0.0155434
888.186	0.0155281
888.264	0.0155059
888.342	0.0154170
888.420	0.0152094
888.498	0.0153226
888.576	0.0150835
888.655	0.0150668
888.733	0.0149263
888.811	0.0147464
888.889	0.0145957
888.967	0.0144487
889.045	0.0142675
889.123	0.0142057
889.201	0.0140406
889.280	0.0138950
889.358	0.0138676
889.436	0.0138619
889.514	0.0136707
889.592	0.0138696
889.670	0.0138431
889.748	0.0140785
889.826	0.0140469
889.905	0.0142957
889.983	0.0144194
890.061	0.0146546
890.139	0.0149141
890.217	0.0148601
890.295	0.0149302
890.373	0.0149868
890.451	0.0151737
890.530	0.0152828
890.608	0.0153637
890.686	0.0151853
890.764	0.0153046
890.842	0.0151401
890.920	0.0152853
890.998	0.0151627
891.076	0.0152908
891.155	0.0152364
891.233	0.0150582
891.311	0.0151169
891.389	0.0152518
891.467	0.0150169
891.545	0.0151864
891.623	0.0152795
891.701	0.0151048
891.780	0.0151476
891.858	0.0150520
891.936	0.0149852
892.014	0.0150295
892.092	0.0148422
892.170	0.0147864
892.248	0.0149373
892.326	0.0149239
892.405	0.0148605
892.483	0.0147095
892.561	0.0148246
892.639	0.0147003
892.717	0.0147129
892.795	0.0145691
892.873	0.0144634
892.951	0.0144747
893.030	0.0144624
893.108	0.0144101
893.186	0.0142495
893.264	0.0142372
893.342	0.0142336
893.420	0.0142495
893.498	0.0142677
893.576	0.0142378
893.655	0.0143913
893.733	0.0146002
893.811	0.0146333
893.889	0.0148006
893.967	0.0147646
894.045	0.0148399
894.123	0.0151141
894.201	0.0151376
894.280	0.0152267
894.358	0.0153046
894.436	0.0152460
894.514	0.0152058
894.592	0.0152703
894.670	0.0151315
894.748	0.0151928
894.826	0.0149869
894.905	0.0148512
894.983	0.0149366
895.061	0.0150008
895.139	0.0147806
895.217	0.0148657
895.295	0.0147654
895.373	0.0148569
895.451	0.0147788
895.530	0.0148314
895.608	0.0147346
895.686	0.0148863
895.764	0.0149361
895.842	0.0149208
895.920	0.0149310
895.998	0.0148843
896.076	0.0150264
896.155	0.0149258
896.233	0.0148415
896.311	0.0150863
896.389	0.0148952
896.467	0.0148731
896.545	0.0148421
896.623	0.0149347
896.701	0.0148960
896.780	0.0146835
896.858	0.0147429
896.936	0.0148270
897.014	0.0146049
897.092	0.0146949
897.170	0.0147208
897.248	0.0146080
897.326	0.0145975
897.405	0.0144988
897.483	0.0148165
897.561	0.0147279
897.639	0.0147870
897.717	0.0146030
897.795	0.0148563
897.873	0.0148785
897.951	0.0148145
898.030	0.0149940
898.108	0.0150040
898.186	0.0150562
898.264	0.0149165
898.342	0.0149673
898.420	0.0149272
898.498	0.0148939
898.576	0.0149649
898.655	0.0149373
898.733	0.0148487
898.811	0.0148605
898.889	0.0146386
898.967	0.0148092
899.045	0.0147700
899.123	0.0147878
899.201	0.0145927
899.280	0.0148428
899.358	0.0147876
899.436	0.0147858
899.514	0.0149231
899.592	0.0149586
899.670	0.0151331
899.748	0.0150440
899.826	0.0149943
899.905	0.0151302
899.983	0.0150869
900.061	0.0151729
900.139	0.0153938
900.217	0.0152580
900.295	0.0152715
900.373	0.0151865
900.451	0.0152399
900.530	0.0151594
900.608	0.0152333
900.686	0.0150715
900.764	0.0150361
900.842	0.0151881
900.920	0.0150002
900.998	0.0148840
901.076	0.0148658
901.155	0.0148972
901.233	0.0147525
901.311	0.0147030
901.389	0.0147227
901.467	0.0145177
901.545	0.0146038
901.623	0.0145364
901.701	0.0145667
901.780	0.0143456
901.858	0.0145183
901.936	0.0144241
902.014	0.0146033
902.092	0.0144704
902.170	0.0144926
902.248	0.0145361
902.326	0.0146507
902.405	0.0146581
902.483	0.0146809
902.561	0.0148267
902.639	0.0148641
902.717	0.0148240
902.795	0.0149508
902.873	0.0150375
902.951	0.0149610
903.030	0.0150721
903.108	0.0150931
903.186	0.0150011
903.264	0.0149784
903.342	0.0150582
903.420	0.0151723
903.498	0.0151443
903.576	0.0150785
903.655	0.0151669
903.733	0.0152301
903.811	0.0152003
903.889	0.0152477
903.967	0.0152415
904.045	0.0152147
904.123	0.0151612
904.201	0.0151751
904.280	0.0152228
904.358	0.0151523
904.436	0.0150468
904.514	0.0149734
904.592	0.0148978
904.670	0.0148393
904.748	0.0147638
904.826	0.0149196
904.905	0.0148577
904.983	0.0146995
905.061	0.0147227
905.139	0.0146901
905.217	0.0147916
905.295	0.0146115
905.373	0.0147124
905.451	0.0146278
905.530	0.0146700
905.608	0.0145944
905.686	0.0146761
905.764	0.0146990
905.842	0.0146868
905.920	0.0146348
905.998	0.0147658
906.076	0.0148614
906.155	0.0146784
906.233	0.0146979
906.311	0.0148194
906.389	0.0147138
906.467	0.0148936
906.545	0.0149321
906.623	0.0147888
906.701	0.0149456
906.780	0.0149390
906.858	0.0149000
906.936	0.0148609
907.014	0.0149031
907.092	0.0148853
907.170	0.0147991
907.248	0.0148155
907.326	0.0147710
907.405	0.0148618
907.483	0.0151037
907.561	0.0149699
907.639	0.0148680
907.717	0.0149491
907.795	0.0151138
907.873	0.0151239
907.951	0.0149980
908.030	0.0150555
908.108	0.0151810
908.186	0.0151721
908.264	0.0150855
908.342	0.0150391
908.420	0.0150353
908.498	0.0150879
908.576	0.0151437
908.655	0.0150667
908.733	0.0151006
908.811	0.0149809
908.889	0.0148335
908.967	0.0149403
909.045	0.0148164
909.123	0.0148476
909.201	0.0148141
909.280	0.0149968
909.358	0.0149311
909.436	0.0147960
909.514	0.0148885
909.592	0.0149013
909.670	0.0147591
909.748	0.0147027
909.826	0.0148681
909.905	0.0146835
909.983	0.0147224
910.061	0.0147119
910.139	0.0145770
910.217	0.0146781
910.295	0.0145210
910.373	0.0145686
910.451	0.0145834
910.530	0.0145612
910.608	0.0144146
910.686	0.0144781
910.764	0.0146613
910.842	0.0146648
910.920	0.0145129
910.998	0.0145516
911.076	0.0147463
911.155	0.0149718
911.233	0.0148585
911.311	0.0150376
911.389	0.0148674
911.467	0.0149891
911.545	0.0151659
911.623	0.0150843
911.701	0.0151394
911.780	0.0150301
911.858	0.0150549
911.936	0.0151705
912.014	0.0150920
912.092	0.0150168
912.170	0.0150983
912.248	0.0149988
912.326	0.0151368
912.405	0.0151219
912.483	0.0149071
912.561	0.0149817
912.639	0.0149162
912.717	0.0149124
912.795	0.0148637
912.873	0.0148888
912.951	0.0147478
913.030	0.0147456
913.108	0.0146667
913.186	0.0146656
913.264	0.0146917
913.342	0.0146176
913.420	0.0146474
913.498	0.0147477
913.576	0.0145844
913.655	0.0146917
913.733	0.0148146
913.811	0.0147630
913.889	0.0146869
913.967	0.0145988
914.045	0.0147937
914.123	0.0148594
914.201	0.0146432
914.280	0.0147341
914.358	0.0148257
914.436	0.0147987
914.514	0.0147815
914.592	0.0147903
914.670	0.0148833
914.748	0.0149026
914.826	0.0148557
914.905	0.0147970
914.983	0.0147038
915.061	0.0148595
915.139	0.0150473
915.217	0.0149809
915.295	0.0147490
915.373	0.0149021
915.451	0.0149470
915.530	0.0150230
915.608	0.0149667
915.686	0.0150838
915.764	0.0149646
915.842	0.0148075
915.920	0.0150027
915.998	0.0151552
916.076	0.0151028
916.155	0.0149363
916.233	0.0148435
916.311	0.0149731
916.389	0.0150139
916.467	0.0149145
916.545	0.0148136
916.623	0.0149434
916.701	0.0147933
916.780	0.0148435
916.858	0.0148231
916.936	0.0148701
917.014	0.0148779
917.092	0.0147485
917.170	0.0148103
917.248	0.0149032
917.326	0.0151056
917.405	0.0148715
917.483	0.0149835
917.561	0.0149675
917.639	0.0149858
917.717	0.0148509
917.795	0.0150742
917.873	0.0150967
917.951	0.0149911
918.030	0.0148894
918.108	0.0149076
918.186	0.0150616
918.264	0.0148972
918.342	0.0148792
918.420	0.0148407
918.498	0.0148151
918.576	0.0148359
918.655	0.0147610
918.733	0.0148238
918.811	0.0148355
918.889	0.0148453
918.967	0.0146704
919.045	0.0148566
919.123	0.0147688
919.201	0.0147995
919.280	0.0146664
919.358	0.0147253
919.436	0.0147837
919.514	0.0147871
919.592	0.0149051
919.670	0.0147726
919.748	0.0147557
919.826	0.0149324
919.905	0.0149660
919.983	0.0149886
920.061	0.0150440
920.139	0.0150636
920.217	0.0149758
920.295	0.0149506
920.373	0.0149005
920.451	0.0149057
920.530	0.0148581
920.608	0.0149138
920.686	0.0149209
920.764	0.0149002
920.842	0.0149405
920.920	0.0148907
920.998	0.0149170
921.076	0.0147643
921.155	0.0148711
921.233	0.0150208
921.311	0.0150737
921.389	0.0149502
921.467	0.0149875
921.545	0.0150064
921.623	0.0150826
921.701	0.0151003
921.780	0.0149993
921.858	0.0151540
921.936	0.0149774
922.014	0.0150838
922.092	0.0148813
922.170	0.0150626
922.248	0.0149942
922.326	0.0149261
922.405	0.0149039
922.483	0.0147285
922.561	0.0148490
922.639	0.0149316
922.717	0.0149619
922.795	0.0148650
922.873	0.0148904
922.951	0.0149115
923.030	0.0148713
923.108	0.0149462
923.186	0.0148212
923.264	0.0148918
923.342	0.0149052
923.420	0.0149188
923.498	0.0148704
923.576	0.0148930
923.655	0.0149216
923.733	0.0147013
923.811	0.0148914
923.889	0.0148133
923.967	0.0148418
924.045	0.0148556
924.123	0.0147712
924.201	0.0148549
924.280	0.0146883
924.358	0.0146555
924.436	0.0149529
924.514	0.0149095
924.592	0.0147607
924.670	0.0147844
924.748	0.0147298
924.826	0.0148848
924.905	0.0148859
924.983	0.0149345
925.061	0.0149400
925.139	0.0149861
925.217	0.0150343
925.295	0.0149312
925.373	0.0150945
925.451	0.0151041
925.530	0.0150489
925.608	0.0150832
925.686	0.0150995
925.764	0.0152062
925.842	0.0150726
925.920	0.0150067
925.998	0.0150394
926.076	0.0149484
926.155	0.0150777
926.233	0.0149978
926.311	0.0149903
926.389	0.0148897
926.467	0.0149461
926.545	0.0149561
926.623	0.0148520
926.701	0.0149332
926.780	0.0148938
926.858	0.0150172
926.936	0.0149319
927.014	0.0148672
927.092	0.0148314
927.170	0.0149156
927.248	0.0147544
927.326	0.0148063
927.405	0.0148357
927.483	0.0148194
927.561	0.0148019
927.639	0.0148075
927.717	0.0146720
927.795	0.0147418
927.873	0.0146474
927.951	0.0147722
928.030	0.0148372
928.108	0.0146326
928.186	0.0146543
928.264	0.0146850
928.342	0.0148885
928.420	0.0148642
928.498	0.0147771
928.576	0.0146976
928.655	0.0150270
928.733	0.0150127
928.811	0.0150686
928.889	0.0151392
928.967	0.0150751
929.045	0.0151662
929.123	0.0151615
929.201	0.0151384
929.280	0.0152206
929.358	0.0154377
929.436	0.0152657
929.514	0.0151314
929.592	0.0152111
929.670	0.0153091
929.748	0.0151683
929.826	0.0152243
929.905	0.0151483
929.983	0.0152039
930.061	0.0150249
930.139	0.0150721
930.217	0.0151215
930.295	0.0151059
930.373	0.0150074
930.451	0.0149578
930.530	0.0149659
930.608	0.0149847
930.686	0.0148787
930.764	0.0148342
930.842	0.0147486
930.920	0.0148566
930.998	0.0147823
931.076	0.0147495
931.155	0.0148019
931.233	0.0146823
931.311	0.0147665
931.389	0.0147586
931.467	0.0146668
931.545	0.0146940
931.623	0.0147056
931.701	0.0147814
931.780	0.0148631
931.858	0.0148256
931.936	0.0147175
932.014	0.0148080
932.092	0.0147600
932.170	0.0149004
932.248	0.0147739
932.326	0.0148893
932.405	0.0148585
932.483	0.0149420
932.561	0.0148683
932.639	0.0149480
932.717	0.0148588
932.795	0.0148392
932.873	0.0148650
932.951	0.0150726
933.030	0.0149391
933.108	0.0149108
933.186	0.0150034
933.264	0.0149503
933.342	0.0148808
933.420	0.0149996
933.498	0.0149483
933.576	0.0148929
933.655	0.0148851
933.733	0.0148205
933.811	0.0148341
933.889	0.0148629
933.967	0.0147906
934.045	0.0148421
934.123	0.0147442
934.201	0.0149719
934.280	0.0149820
934.358	0.0149931
934.436	0.0150227
934.514	0.0150832
934.592	0.0149872
934.670	0.0151385
934.748	0.0151099
934.826	0.0150952
934.905	0.0150709
934.983	0.0150972
935.061	0.0150513
935.139	0.0148901
935.217	0.0149845
935.295	0.0150534
935.373	0.0149523
935.451	0.0147800
935.530	0.0149043
935.608	0.0149039
935.686	0.0147960
935.764	0.0147122
935.842	0.0147984
935.920	0.0148389
935.998	0.0147247
936.076	0.0148672
936.155	0.0147205
936.233	0.0147903
936.311	0.0148252
936.389	0.0146619
936.467	0.0148083
936.545	0.0147982
936.623	0.0147682
936.701	0.0146626
936.780	0.0148796
936.858	0.0149678
936.936	0.0148274
937.014	0.0148575
937.092	0.0148650
937.170	0.0148148
937.248	0.0148624
937.326	0.0147617
937.405	0.0149037
937.483	0.0149186
937.561	0.0149104
937.639	0.0149626
937.717	0.0148601
937.795	0.0149196
937.873	0.0148586
937.951	0.0150690
938.030	0.0149194
938.108	0.0150069
938.186	0.0149388
938.264	0.0147809
938.342	0.0148460
938.420	0.0150158
938.498	0.0149751
938.576	0.0148383
938.655	0.0147723
938.733	0.0148470
938.811	0.0149777
938.889	0.0147009
938.967	0.0148934
939.045	0.0149150
939.123	0.0148865
939.201	0.0148260
939.280	0.0148414
939.358	0.0147543
939.436	0.0148613
939.514	0.0147822
939.592	0.0148237
939.670	0.0149920
939.748	0.0148365
939.826	0.0148144
939.905	0.0150412
939.983	0.0149967
940.061	0.0148083
940.139	0.0149208
940.217	0.0150585
940.295	0.0148975
940.373	0.0148750
940.451	0.0149763
940.530	0.0150687
940.608	0.0150588
940.686	0.0149215
940.764	0.0148920
940.842	0.0150091
940.920	0.0150202
940.998	0.0149104
941.076	0.0147701
941.155	0.0148339
941.233	0.0148179
941.311	0.0147029
941.389	0.0147121
941.467	0.0148085
941.545	0.0146735
941.623	0.0145115
941.701	0.0144410
941.780	0.0146261
941.858	0.0145183
941.936	0.0145229
942.014	0.0144256
942.092	0.0143791
942.170	0.0144888
942.248	0.0146959
942.326	0.0146011
942.405	0.0146039
942.483	0.0147497
942.561	0.0146589
942.639	0.0146751
942.717	0.0149368
942.795	0.0150176
942.873	0.0150151
942.951	0.0149992
943.030	0.0150484
943.108	0.0151231
943.186	0.0151545
943.264	0.0151299
943.342	0.0153335
943.420	0.0151837
943.498	0.0152264
943.576	0.0153334
943.655	0.0152368
943.733	0.0152174
943.811	0.0152329
943.889	0.0150978
943.967	0.0150958
944.045	0.0150735
944.123	0.0151434
944.201	0.0150794
944.280	0.0149968
944.358	0.0149055
944.436	0.0148174
944.514	0.0149239
944.592	0.0149049
944.670	0.0148022
944.748	0.0147900
944.826	0.0147099
944.905	0.0147070
944.983	0.0146307
945.061	0.0146866
945.139	0.0145181
945.217	0.0146167
945.295	0.0145182
945.373	0.0146198
945.451	0.0146252
945.530	0.0146687
945.608	0.0146291
945.686	0.0146547
945.764	0.0146500
945.842	0.0146002
945.920	0.0147890
945.998	0.0147424
946.076	0.0148377
946.155	0.0149012
946.233	0.0147175
946.311	0.0150261
946.389	0.0149687
946.467	0.0148133
946.545	0.0149248
946.623	0.0149377
946.701	0.0150587
946.780	0.0150182
946.858	0.0151257
946.936	0.0151470
947.014	0.0149479
947.092	0.0151228
947.170	0.0150198
947.248	0.0150175
947.326	0.0152296
947.405	0.0150784
947.483	0.0150175
947.561	0.0149453
947.639	0.0150191
947.717	0.0149973
947.795	0.0150229
947.873	0.0149795
947.951	0.0148429
948.030	0.0149104
948.108	0.0148996
948.186	0.0149822
948.264	0.0148141
948.342	0.0148168
948.420	0.0149306
948.498	0.0148512
948.576	0.0146914
948.655	0.0148993
948.733	0.0150071
948.811	0.0146680
948.889	0.0148145
948.967	0.0148502
949.045	0.0149273
949.123	0.0148622
949.201	0.0149884
949.280	0.0149593
949.358	0.0148772
949.436	0.0147598
949.514	0.0148742
949.592	0.0149037
949.670	0.0147044
949.748	0.0148128
949.826	0.0149284
949.905	0.0147174
949.983	0.0149138
950.061	0.0149184
950.139	0.0148212
950.217	0.0147340
950.295	0.0148016
950.373	0.0148898
950.451	0.0147738
950.530	0.0148371
950.608	0.0147683
950.686	0.0147596
950.764	0.0147068
950.842	0.0148733
950.920	0.0149146
950.998	0.0149856
951.076	0.0150642
951.155	0.0148158
951.233	0.0148538
951.311	0.0149236
951.389	0.0149802
951.467	0.0149779
951.545	0.0150364
951.623	0.0148962
951.701	0.0148308
951.780	0.0148977
951.858	0.0148296
951.936	0.0149421
952.014	0.0148415
952.092	0.0150191
952.170	0.0148573
952.248	0.0149490
952.326	0.0149580
952.405	0.0149204
952.483	0.0148709
952.561	0.0149170
952.639	0.0148935
952.717	0.0149850
952.795	0.0149876
952.873	0.0149611
952.951	0.0150006
953.030	0.0149638
953.108	0.0148849
953.186	0.0149469
953.264	0.0149734
953.342	0.0149487
953.420	0.0148627
953.498	0.0147025
953.576	0.0147038
953.655	0.0147980
953.733	0.0148109
953.811	0.0148862
953.889	0.0149432
953.967	0.0146928
954.045	0.0147105
954.123	0.0148083
954.201	0.0148125
954.280	0.0148479
954.358	0.0148212
954.436	0.0149270
954.514	0.0148715
954.592	0.0149588
954.670	0.0149542
954.748	0.0149072
954.826	0.0149348
954.905	0.0148006
954.983	0.0150010
955.061	0.0148739
955.139	0.0149574
955.217	0.0148253
955.295	0.0149617
955.373	0.0148981
955.451	0.0150266
955.530	0.0147794
955.608	0.0148225
955.686	0.0147900
955.764	0.0148129
955.842	0.0148154
955.920	0.0150062
955.998	0.0149966
956.076	0.0149366
956.155	0.0149234
956.233	0.0148158
956.311	0.0147935
956.389	0.0149509
956.467	0.0148301
956.545	0.0147611
956.623	0.0149385
956.701	0.0150508
956.780	0.0148291
956.858	0.0148912
956.936	0.0147726
957.014	0.0148421
957.092	0.0149197
957.170	0.0148612
957.248	0.0148965
957.326	0.0148539
957.405	0.0147803
957.483	0.0149560
957.561	0.0148382
957.639	0.0149035
957.717	0.0149174
957.795	0.0148026
957.873	0.0148677
957.951	0.0149161
958.030	0.0148344
958.108	0.0149574
958.186	0.0150173
958.264	0.0150869
958.342	0.0149211
958.420	0.0149811
958.498	0.0148831
958.576	0.0149141
958.655	0.0150350
958.733	0.0149293
958.811	0.0148677
958.889	0.0149810
958.967	0.0148765
959.045	0.0147867
959.123	0.0149227
959.201	0.0148648
959.280	0.0147875
959.358	0.0147340
959.436	0.0149490
959.514	0.0148241
959.592	0.0147659
959.670	0.0147238
959.748	0.0148099
959.826	0.0148046
959.905	0.0148383
