05/20/2022	16:10:26	Ver.	4.1	UNKNOWN
Optical Delay	639.982744	Delta X		0.078125	Sweeps	1	Scan Rate	0/0
Coordinates	Axis 1	NaN	Axis 2	NaN	Axis 3	NaN	Axis 4	NaN	Axis 5	NaN	Axis 6	0.000000
TX Power	0.000000	RX Power	0.000000

639.983	0.0144588
640.061	0.0144704
640.139	0.0144530
640.217	0.0144796
640.295	0.0144357
640.373	0.0145256
640.451	0.0145282
640.530	0.0144037
640.608	0.0143784
640.686	0.0144355
640.764	0.0145032
640.842	0.0144776
640.920	0.0144669
640.998	0.0144700
641.076	0.0144417
641.155	0.0145686
641.233	0.0144977
641.311	0.0145356
641.389	0.0144669
641.467	0.0144521
641.545	0.0144814
641.623	0.0144450
641.701	0.0145946
641.780	0.0146367
641.858	0.0145976
641.936	0.0146017
642.014	0.0143420
642.092	0.0144926
642.170	0.0146216
642.248	0.0144627
642.326	0.0143904
642.405	0.0145895
642.483	0.0144695
642.561	0.0145537
642.639	0.0145197
642.717	0.0144246
642.795	0.0143883
642.873	0.0145575
642.951	0.0144401
643.030	0.0145779
643.108	0.0144788
643.186	0.0144048
643.264	0.0145205
643.342	0.0145133
643.420	0.0143913
643.498	0.0144524
643.576	0.0145753
643.655	0.0143147
643.733	0.0145090
643.811	0.0145168
643.889	0.0144926
643.967	0.0145192
644.045	0.0144585
644.123	0.0144977
644.201	0.0144157
644.280	0.0144800
644.358	0.0144867
644.436	0.0145502
644.514	0.0145087
644.592	0.0144753
644.670	0.0144369
644.748	0.0143703
644.826	0.0144283
644.905	0.0144775
644.983	0.0143920
645.061	0.0146252
645.139	0.0145171
645.217	0.0144653
645.295	0.0145436
645.373	0.0144363
645.451	0.0145676
645.530	0.0144632
645.608	0.0144798
645.686	0.0144324
645.764	0.0145042
645.842	0.0144965
645.920	0.0145164
645.998	0.0145502
646.076	0.0145108
646.155	0.0144851
646.233	0.0145101
646.311	0.0145378
646.389	0.0144411
646.467	0.0145135
646.545	0.0145148
646.623	0.0144199
646.701	0.0144093
646.780	0.0144910
646.858	0.0143699
646.936	0.0144891
647.014	0.0144678
647.092	0.0144260
647.170	0.0145219
647.248	0.0145441
647.326	0.0144144
647.405	0.0144436
647.483	0.0145036
647.561	0.0144908
647.639	0.0144179
647.717	0.0146591
647.795	0.0143811
647.873	0.0145470
647.951	0.0144005
648.030	0.0145097
648.108	0.0144099
648.186	0.0145988
648.264	0.0144668
648.342	0.0144818
648.420	0.0145392
648.498	0.0144521
648.576	0.0145174
648.655	0.0145814
648.733	0.0145694
648.811	0.0146591
648.889	0.0145555
648.967	0.0143156
649.045	0.0144453
649.123	0.0146449
649.201	0.0144343
649.280	0.0144720
649.358	0.0144149
649.436	0.0145177
649.514	0.0144476
649.592	0.0145231
649.670	0.0146922
649.748	0.0145370
649.826	0.0144411
649.905	0.0145037
649.983	0.0145608
650.061	0.0145159
650.139	0.0145456
650.217	0.0145628
650.295	0.0144648
650.373	0.0144921
650.451	0.0145025
650.530	0.0145934
650.608	0.0145506
650.686	0.0146016
650.764	0.0145011
650.842	0.0144163
650.920	0.0143639
650.998	0.0145249
651.076	0.0144606
651.155	0.0145590
651.233	0.0145082
651.311	0.0146007
651.389	0.0144507
651.467	0.0145512
651.545	0.0144619
651.623	0.0143723
651.701	0.0146135
651.780	0.0146651
651.858	0.0144628
651.936	0.0145883
652.014	0.0146285
652.092	0.0144966
652.170	0.0145673
652.248	0.0144202
652.326	0.0144777
652.405	0.0144741
652.483	0.0144570
652.561	0.0145161
652.639	0.0144133
652.717	0.0144725
652.795	0.0145423
652.873	0.0144033
652.951	0.0144987
653.030	0.0145431
653.108	0.0145325
653.186	0.0144040
653.264	0.0144960
653.342	0.0144891
653.420	0.0144579
653.498	0.0144688
653.576	0.0144812
653.655	0.0144134
653.733	0.0145463
653.811	0.0145024
653.889	0.0142577
653.967	0.0144929
654.045	0.0146086
654.123	0.0144313
654.201	0.0145805
654.280	0.0145434
654.358	0.0144904
654.436	0.0145910
654.514	0.0144919
654.592	0.0145123
654.670	0.0143920
654.748	0.0144880
654.826	0.0145966
654.905	0.0145452
654.983	0.0144309
655.061	0.0146021
655.139	0.0145177
655.217	0.0144890
655.295	0.0145287
655.373	0.0144781
655.451	0.0145317
655.530	0.0144843
655.608	0.0144456
655.686	0.0145615
655.764	0.0144735
655.842	0.0143376
655.920	0.0144254
655.998	0.0144938
656.076	0.0144049
656.155	0.0144874
656.233	0.0145071
656.311	0.0144674
656.389	0.0144118
656.467	0.0144199
656.545	0.0146664
656.623	0.0144597
656.701	0.0145348
656.780	0.0144555
656.858	0.0143991
656.936	0.0144639
657.014	0.0144304
657.092	0.0144960
657.170	0.0145427
657.248	0.0145238
657.326	0.0143974
657.405	0.0143729
657.483	0.0145903
657.561	0.0143739
657.639	0.0145126
657.717	0.0144464
657.795	0.0145100
657.873	0.0144624
657.951	0.0144492
658.030	0.0145930
658.108	0.0144615
658.186	0.0144245
658.264	0.0145747
658.342	0.0144902
658.420	0.0144835
658.498	0.0144662
658.576	0.0146516
658.655	0.0145340
658.733	0.0144310
658.811	0.0145049
658.889	0.0145840
658.967	0.0144080
659.045	0.0144153
659.123	0.0144366
659.201	0.0145852
659.280	0.0145979
659.358	0.0146286
659.436	0.0145580
659.514	0.0145155
659.592	0.0144154
659.670	0.0145566
659.748	0.0145211
659.826	0.0144637
659.905	0.0146142
659.983	0.0143718
660.061	0.0144956
660.139	0.0145886
660.217	0.0145317
660.295	0.0144370
660.373	0.0145507
660.451	0.0144443
660.530	0.0143883
660.608	0.0144933
660.686	0.0145967
660.764	0.0144236
660.842	0.0144140
660.920	0.0144265
660.998	0.0145478
661.076	0.0144296
661.155	0.0144502
661.233	0.0145720
661.311	0.0143796
661.389	0.0145223
661.467	0.0145004
661.545	0.0144388
661.623	0.0144128
661.701	0.0144086
661.780	0.0144254
661.858	0.0144342
661.936	0.0144202
662.014	0.0143181
662.092	0.0144569
662.170	0.0144490
662.248	0.0144591
662.326	0.0144561
662.405	0.0144526
662.483	0.0144954
662.561	0.0144705
662.639	0.0144305
662.717	0.0143937
662.795	0.0144867
662.873	0.0144180
662.951	0.0145564
663.030	0.0145061
663.108	0.0144776
663.186	0.0145694
663.264	0.0145618
663.342	0.0144328
663.420	0.0144335
663.498	0.0143221
663.576	0.0144653
663.655	0.0145174
663.733	0.0144743
663.811	0.0145486
663.889	0.0143809
663.967	0.0144846
664.045	0.0145059
664.123	0.0144020
664.201	0.0143494
664.280	0.0144668
664.358	0.0143913
664.436	0.0145203
664.514	0.0144144
664.592	0.0145022
664.670	0.0144979
664.748	0.0144571
664.826	0.0144903
664.905	0.0144215
664.983	0.0144031
665.061	0.0144226
665.139	0.0145541
665.217	0.0144665
665.295	0.0144537
665.373	0.0144477
665.451	0.0143839
665.530	0.0144969
665.608	0.0144991
665.686	0.0145630
665.764	0.0144387
665.842	0.0144822
665.920	0.0144683
665.998	0.0143880
666.076	0.0145242
666.155	0.0145065
666.233	0.0145818
666.311	0.0145480
666.389	0.0143877
666.467	0.0144915
666.545	0.0144534
666.623	0.0145029
666.701	0.0144675
666.780	0.0144044
666.858	0.0144084
666.936	0.0146198
667.014	0.0144349
667.092	0.0144689
667.170	0.0144666
667.248	0.0146027
667.326	0.0144051
667.405	0.0145112
667.483	0.0145564
667.561	0.0145485
667.639	0.0145045
667.717	0.0144096
667.795	0.0145200
667.873	0.0145366
667.951	0.0143880
668.030	0.0144167
668.108	0.0145463
668.186	0.0144974
668.264	0.0145265
668.342	0.0145554
668.420	0.0145001
668.498	0.0144881
668.576	0.0144511
668.655	0.0146046
668.733	0.0145686
668.811	0.0144068
668.889	0.0146011
668.967	0.0144328
669.045	0.0144015
669.123	0.0144271
669.201	0.0144137
669.280	0.0146245
669.358	0.0145686
669.436	0.0144221
669.514	0.0143806
669.592	0.0144279
669.670	0.0143727
669.748	0.0146152
669.826	0.0145757
669.905	0.0144341
669.983	0.0145301
670.061	0.0145695
670.139	0.0144015
670.217	0.0146185
670.295	0.0145905
670.373	0.0144661
670.451	0.0145219
670.530	0.0145325
670.608	0.0144827
670.686	0.0144726
670.764	0.0145637
670.842	0.0144762
670.920	0.0144888
670.998	0.0146169
671.076	0.0147228
671.155	0.0145363
671.233	0.0144556
671.311	0.0146164
671.389	0.0144923
671.467	0.0144994
671.545	0.0144711
671.623	0.0145718
671.701	0.0144543
671.780	0.0144906
671.858	0.0145859
671.936	0.0144955
672.014	0.0144920
672.092	0.0144655
672.170	0.0145810
672.248	0.0146088
672.326	0.0145380
672.405	0.0145512
672.483	0.0145071
672.561	0.0144839
672.639	0.0146344
672.717	0.0145487
672.795	0.0145575
672.873	0.0145222
672.951	0.0145338
673.030	0.0146331
673.108	0.0145145
673.186	0.0144669
673.264	0.0145490
673.342	0.0145675
673.420	0.0145734
673.498	0.0145542
673.576	0.0145696
673.655	0.0144134
673.733	0.0144511
673.811	0.0143848
673.889	0.0146900
673.967	0.0146786
674.045	0.0143758
674.123	0.0144437
674.201	0.0145708
674.280	0.0144614
674.358	0.0144151
674.436	0.0145278
674.514	0.0145510
674.592	0.0145692
674.670	0.0144971
674.748	0.0145998
674.826	0.0144350
674.905	0.0146216
674.983	0.0145045
675.061	0.0145745
675.139	0.0145177
675.217	0.0145082
675.295	0.0145274
675.373	0.0146522
675.451	0.0144993
675.530	0.0145515
675.608	0.0144564
675.686	0.0144975
675.764	0.0145102
675.842	0.0144662
675.920	0.0144485
675.998	0.0143998
676.076	0.0144865
676.155	0.0144431
676.233	0.0142784
676.311	0.0144386
676.389	0.0146343
676.467	0.0144373
676.545	0.0143429
676.623	0.0142937
676.701	0.0145122
676.780	0.0145584
676.858	0.0144651
676.936	0.0144659
677.014	0.0144882
677.092	0.0144656
677.170	0.0144559
677.248	0.0145081
677.326	0.0144230
677.405	0.0144190
677.483	0.0143674
677.561	0.0145251
677.639	0.0145326
677.717	0.0143736
677.795	0.0143676
677.873	0.0144833
677.951	0.0145692
678.030	0.0145897
678.108	0.0145513
678.186	0.0143796
678.264	0.0145014
678.342	0.0144609
678.420	0.0143638
678.498	0.0145171
678.576	0.0143827
678.655	0.0144694
678.733	0.0145762
678.811	0.0146152
678.889	0.0145094
678.967	0.0144175
679.045	0.0144652
679.123	0.0144595
679.201	0.0147195
679.280	0.0145712
679.358	0.0144469
679.436	0.0144555
679.514	0.0144855
679.592	0.0144511
679.670	0.0144332
679.748	0.0143845
679.826	0.0144517
679.905	0.0144727
679.983	0.0144943
680.061	0.0144750
680.139	0.0143939
680.217	0.0145786
680.295	0.0145190
680.373	0.0144143
680.451	0.0144315
680.530	0.0144484
680.608	0.0143719
680.686	0.0144279
680.764	0.0144491
680.842	0.0143948
680.920	0.0144777
680.998	0.0145257
681.076	0.0145412
681.155	0.0144105
681.233	0.0145443
681.311	0.0144149
681.389	0.0145541
681.467	0.0144541
681.545	0.0144949
681.623	0.0145538
681.701	0.0144931
681.780	0.0144601
681.858	0.0145806
681.936	0.0145169
682.014	0.0144453
682.092	0.0144145
682.170	0.0145760
682.248	0.0144557
682.326	0.0144744
682.405	0.0143380
682.483	0.0143526
682.561	0.0143556
682.639	0.0143808
682.717	0.0145019
682.795	0.0144155
682.873	0.0145274
682.951	0.0144616
683.030	0.0143800
683.108	0.0144477
683.186	0.0144490
683.264	0.0144214
683.342	0.0145419
683.420	0.0144571
683.498	0.0144563
683.576	0.0144302
683.655	0.0143169
683.733	0.0144455
683.811	0.0145173
683.889	0.0144485
683.967	0.0143372
684.045	0.0144416
684.123	0.0145497
684.201	0.0145555
684.280	0.0146102
684.358	0.0146171
684.436	0.0144681
684.514	0.0145103
684.592	0.0144182
684.670	0.0144281
684.748	0.0144877
684.826	0.0145818
684.905	0.0144485
684.983	0.0145710
685.061	0.0144813
685.139	0.0143594
685.217	0.0144892
685.295	0.0145581
685.373	0.0146644
685.451	0.0144414
685.530	0.0144759
685.608	0.0145201
685.686	0.0143703
685.764	0.0143670
685.842	0.0145539
685.920	0.0145124
685.998	0.0145061
686.076	0.0145908
686.155	0.0143571
686.233	0.0143182
686.311	0.0144424
686.389	0.0145435
686.467	0.0144056
686.545	0.0143987
686.623	0.0144929
686.701	0.0145557
686.780	0.0144799
686.858	0.0143920
686.936	0.0143596
687.014	0.0144388
687.092	0.0145471
687.170	0.0144411
687.248	0.0143925
687.326	0.0144700
687.405	0.0145042
687.483	0.0146172
687.561	0.0146684
687.639	0.0146929
687.717	0.0147582
687.795	0.0148245
687.873	0.0149170
687.951	0.0146696
688.030	0.0148561
688.108	0.0149185
688.186	0.0148200
688.264	0.0147025
688.342	0.0146236
688.420	0.0145427
688.498	0.0144491
688.576	0.0143987
688.655	0.0141853
688.733	0.0139342
688.811	0.0137769
688.889	0.0136587
688.967	0.0136370
689.045	0.0134623
689.123	0.0133943
689.201	0.0134724
689.280	0.0135538
689.358	0.0135818
689.436	0.0137140
689.514	0.0138857
689.592	0.0142612
689.670	0.0145884
689.748	0.0149702
689.826	0.0153850
689.905	0.0156289
689.983	0.0161356
690.061	0.0163954
690.139	0.0166662
690.217	0.0169184
690.295	0.0172444
690.373	0.0171315
690.451	0.0169800
690.530	0.0167380
690.608	0.0165122
690.686	0.0159842
690.764	0.0153751
690.842	0.0148242
690.920	0.0142823
690.998	0.0135947
691.076	0.0129536
691.155	0.0124463
691.233	0.0118536
691.311	0.0114287
691.389	0.0111979
691.467	0.0109135
691.545	0.0108949
691.623	0.0108787
691.701	0.0109057
691.780	0.0110443
691.858	0.0111730
691.936	0.0114083
692.014	0.0117941
692.092	0.0121520
692.170	0.0127158
692.248	0.0132518
692.326	0.0137124
692.405	0.0145069
692.483	0.0155012
692.561	0.0163995
692.639	0.0171613
692.717	0.0182134
692.795	0.0189580
692.873	0.0195089
692.951	0.0201691
693.030	0.0204707
693.108	0.0207912
693.186	0.0205210
693.264	0.0202982
693.342	0.0199407
693.420	0.0194393
693.498	0.0185891
693.576	0.0176234
693.655	0.0170787
693.733	0.0160128
693.811	0.0150651
693.889	0.0143492
693.967	0.0135271
694.045	0.0127527
694.123	0.0120183
694.201	0.0112292
694.280	0.0105070
694.358	0.00977760
694.436	0.00922424
694.514	0.00870186
694.592	0.00819298
694.670	0.00777481
694.748	0.00765793
694.826	0.00750008
694.905	0.00742668
694.983	0.00769348
695.061	0.00796959
695.139	0.00858490
695.217	0.00942001
695.295	0.0103202
695.373	0.0111426
695.451	0.0123618
695.530	0.0134528
695.608	0.0146362
695.686	0.0158247
695.764	0.0169939
695.842	0.0180343
695.920	0.0189503
695.998	0.0195837
696.076	0.0204450
696.155	0.0209490
696.233	0.0216444
696.311	0.0223461
696.389	0.0228152
696.467	0.0233018
696.545	0.0235252
696.623	0.0237730
696.701	0.0238622
696.780	0.0235100
696.858	0.0229555
696.936	0.0222797
697.014	0.0213475
697.092	0.0200159
697.170	0.0184680
697.248	0.0167225
697.326	0.0150523
697.405	0.0132406
697.483	0.0116273
697.561	0.0100021
697.639	0.00869057
697.717	0.00766846
697.795	0.00695137
697.873	0.00630333
697.951	0.00614281
698.030	0.00630333
698.108	0.00636993
698.186	0.00663216
698.264	0.00713615
698.342	0.00758263
698.420	0.00812439
698.498	0.00851524
698.576	0.00872704
698.655	0.00896126
698.733	0.00916985
698.811	0.00925827
698.889	0.00923492
698.967	0.00944199
699.045	0.00972923
699.123	0.0101230
699.201	0.0108024
699.280	0.0114104
699.358	0.0123170
699.436	0.0132687
699.514	0.0144967
699.592	0.0154929
699.670	0.0169852
699.748	0.0182854
699.826	0.0194068
699.905	0.0205329
699.983	0.0216151
700.061	0.0226346
700.139	0.0233891
700.217	0.0242080
700.295	0.0247919
700.373	0.0253298
700.451	0.0255327
700.530	0.0257864
700.608	0.0257553
700.686	0.0255668
700.764	0.0249647
700.842	0.0244850
700.920	0.0236019
700.998	0.0224165
701.076	0.0211158
701.155	0.0195351
701.233	0.0178204
701.311	0.0159600
701.389	0.0142771
701.467	0.0121103
701.545	0.0102252
701.623	0.00827278
701.701	0.00666016
701.780	0.00517906
701.858	0.00426155
701.936	0.00343216
702.014	0.00283058
702.092	0.00273102
702.170	0.00291191
702.248	0.00328957
702.326	0.00386978
702.405	0.00454086
702.483	0.00538467
702.561	0.00635483
702.639	0.00725639
702.717	0.00826637
702.795	0.00920074
702.873	0.0100011
702.951	0.0108919
703.030	0.0115114
703.108	0.0119584
703.186	0.0126626
703.264	0.0131555
703.342	0.0134666
703.420	0.0141134
703.498	0.0146166
703.576	0.0152105
703.655	0.0159647
703.733	0.0168008
703.811	0.0177085
703.889	0.0184874
703.967	0.0194779
704.045	0.0205350
704.123	0.0213834
704.201	0.0221933
704.280	0.0228840
704.358	0.0234643
704.436	0.0237136
704.514	0.0239991
704.592	0.0240974
704.670	0.0240018
704.748	0.0237788
704.826	0.0234371
704.905	0.0229502
704.983	0.0223859
705.061	0.0217796
705.139	0.0210326
705.217	0.0201723
705.295	0.0193729
705.373	0.0182355
705.451	0.0169924
705.530	0.0156979
705.608	0.0144072
705.686	0.0129699
705.764	0.0113280
705.842	0.0100542
705.920	0.00862541
705.998	0.00717766
706.076	0.00621239
706.155	0.00537636
706.233	0.00460991
706.311	0.00421341
706.389	0.00382027
706.467	0.00392250
706.545	0.00424149
706.623	0.00477356
706.701	0.00545120
706.780	0.00626450
706.858	0.00757874
706.936	0.00864571
707.014	0.00972237
707.092	0.0108890
707.170	0.0121214
707.248	0.0129922
707.326	0.0137094
707.405	0.0145065
707.483	0.0152982
707.561	0.0156144
707.639	0.0159583
707.717	0.0164257
707.795	0.0164050
707.873	0.0165629
707.951	0.0169500
708.030	0.0169985
708.108	0.0172900
708.186	0.0176862
708.264	0.0178365
708.342	0.0183002
708.420	0.0185345
708.498	0.0187927
708.576	0.0189600
708.655	0.0191183
708.733	0.0195030
708.811	0.0195586
708.889	0.0197555
708.967	0.0197201
709.045	0.0196292
709.123	0.0194111
709.201	0.0190765
709.280	0.0188760
709.358	0.0185758
709.436	0.0181884
709.514	0.0175992
709.592	0.0170698
709.670	0.0164078
709.748	0.0157912
709.826	0.0151936
709.905	0.0144482
709.983	0.0137858
710.061	0.0128354
710.139	0.0121938
710.217	0.0115279
710.295	0.0111185
710.373	0.0105893
710.451	0.0102786
710.530	0.00986618
710.608	0.00974350
710.686	0.00969933
710.764	0.00960976
710.842	0.00984238
710.920	0.00988869
710.998	0.00999947
711.076	0.0105196
711.155	0.0110309
711.233	0.0114925
711.311	0.0118122
711.389	0.0123019
711.467	0.0129764
711.545	0.0136593
711.623	0.0142341
711.701	0.0147590
711.780	0.0152074
711.858	0.0156326
711.936	0.0157867
712.014	0.0161679
712.092	0.0161189
712.170	0.0161065
712.248	0.0158621
712.326	0.0157322
712.405	0.0157520
712.483	0.0153514
712.561	0.0151927
712.639	0.0150542
712.717	0.0148497
712.795	0.0149358
712.873	0.0151380
712.951	0.0151218
713.030	0.0151895
713.108	0.0152822
713.186	0.0156726
713.264	0.0158956
713.342	0.0160165
713.420	0.0161101
713.498	0.0161143
713.576	0.0161507
713.655	0.0159592
713.733	0.0158242
713.811	0.0155253
713.889	0.0154202
713.967	0.0151012
714.045	0.0148162
714.123	0.0147356
714.201	0.0143732
714.280	0.0140634
714.358	0.0140608
714.436	0.0139633
714.514	0.0137078
714.592	0.0135813
714.670	0.0135857
714.748	0.0136051
714.826	0.0136263
714.905	0.0134444
714.983	0.0136160
715.061	0.0136332
715.139	0.0135838
715.217	0.0136102
715.295	0.0138013
715.373	0.0138283
715.451	0.0136932
715.530	0.0139102
715.608	0.0140247
715.686	0.0139362
715.764	0.0141113
715.842	0.0142513
715.920	0.0145220
715.998	0.0147180
716.076	0.0148267
716.155	0.0149563
716.233	0.0151821
716.311	0.0152548
716.389	0.0155089
716.467	0.0153938
716.545	0.0153697
716.623	0.0152465
716.701	0.0150912
716.780	0.0149563
716.858	0.0147873
716.936	0.0145866
717.014	0.0142678
717.092	0.0140853
717.170	0.0139388
717.248	0.0138123
717.326	0.0140509
717.405	0.0139736
717.483	0.0141733
717.561	0.0143189
717.639	0.0145127
717.717	0.0147774
717.795	0.0150796
717.873	0.0150247
717.951	0.0151524
718.030	0.0151715
718.108	0.0151994
718.186	0.0150834
718.264	0.0149934
718.342	0.0150624
718.420	0.0148634
718.498	0.0146708
718.576	0.0145512
718.655	0.0144675
718.733	0.0144707
718.811	0.0144775
718.889	0.0144415
718.967	0.0143903
719.045	0.0143612
719.123	0.0142574
719.201	0.0141912
719.280	0.0142185
719.358	0.0142003
719.436	0.0140853
719.514	0.0141267
719.592	0.0138387
719.670	0.0138797
719.748	0.0135767
719.826	0.0136879
719.905	0.0136704
719.983	0.0134120
720.061	0.0134290
720.139	0.0133128
720.217	0.0135222
720.295	0.0136317
720.373	0.0136858
720.451	0.0138493
720.530	0.0140165
720.608	0.0142705
720.686	0.0144716
720.764	0.0146542
720.842	0.0148902
720.920	0.0151324
720.998	0.0151497
721.076	0.0149709
721.155	0.0153316
721.233	0.0152499
721.311	0.0152422
721.389	0.0150822
721.467	0.0150906
721.545	0.0149851
721.623	0.0149154
721.701	0.0149671
721.780	0.0149688
721.858	0.0149347
721.936	0.0150250
722.014	0.0150481
722.092	0.0150793
722.170	0.0150799
722.248	0.0153586
722.326	0.0153185
722.405	0.0151958
722.483	0.0153002
722.561	0.0153622
722.639	0.0151835
722.717	0.0152170
722.795	0.0150999
722.873	0.0149399
722.951	0.0147365
723.030	0.0145786
723.108	0.0145614
723.186	0.0142800
723.264	0.0141841
723.342	0.0140607
723.420	0.0140242
723.498	0.0136292
723.576	0.0137068
723.655	0.0136712
723.733	0.0136102
723.811	0.0137728
723.889	0.0137823
723.967	0.0139378
724.045	0.0140463
724.123	0.0141282
724.201	0.0142459
724.280	0.0142358
724.358	0.0143303
724.436	0.0144128
724.514	0.0143274
724.592	0.0143076
724.670	0.0144660
724.748	0.0144501
724.826	0.0144405
724.905	0.0143622
724.983	0.0144070
725.061	0.0143360
725.139	0.0143745
725.217	0.0143534
725.295	0.0143516
725.373	0.0143731
725.451	0.0144041
725.530	0.0144303
725.608	0.0144926
725.686	0.0145022
725.764	0.0145577
725.842	0.0142880
725.920	0.0144150
725.998	0.0143614
726.076	0.0144164
726.155	0.0143884
726.233	0.0144633
726.311	0.0144286
726.389	0.0146194
726.467	0.0145455
726.545	0.0147472
726.623	0.0146494
726.701	0.0146473
726.780	0.0147261
726.858	0.0147470
726.936	0.0147405
727.014	0.0146974
727.092	0.0146147
727.170	0.0145840
727.248	0.0145806
727.326	0.0146436
727.405	0.0145174
727.483	0.0145701
727.561	0.0145658
727.639	0.0146227
727.717	0.0146253
727.795	0.0146419
727.873	0.0149122
727.951	0.0150548
728.030	0.0151434
728.108	0.0153529
728.186	0.0153033
728.264	0.0155086
728.342	0.0156794
728.420	0.0157013
728.498	0.0155292
728.576	0.0154470
728.655	0.0153494
728.733	0.0152594
728.811	0.0152226
728.889	0.0150012
728.967	0.0148092
729.045	0.0145771
729.123	0.0143521
729.201	0.0143049
729.280	0.0140081
729.358	0.0138108
729.436	0.0136988
729.514	0.0136436
729.592	0.0135606
729.670	0.0135409
729.748	0.0136327
729.826	0.0136356
729.905	0.0137064
729.983	0.0136561
730.061	0.0137776
730.139	0.0137174
730.217	0.0138866
730.295	0.0138721
730.373	0.0139565
730.451	0.0139339
730.530	0.0141077
730.608	0.0139909
730.686	0.0141482
730.764	0.0141526
730.842	0.0140739
730.920	0.0142929
730.998	0.0143413
731.076	0.0144363
731.155	0.0144754
731.233	0.0147188
731.311	0.0149497
731.389	0.0148321
731.467	0.0149605
731.545	0.0151215
731.623	0.0152760
731.701	0.0152918
731.780	0.0152803
731.858	0.0152760
731.936	0.0153742
732.014	0.0152460
732.092	0.0151572
732.170	0.0151662
732.248	0.0151381
732.326	0.0149764
732.405	0.0148896
732.483	0.0147780
732.561	0.0147656
732.639	0.0146236
732.717	0.0143623
732.795	0.0143895
732.873	0.0144815
732.951	0.0143353
733.030	0.0142857
733.108	0.0144292
733.186	0.0142159
733.264	0.0143833
733.342	0.0142744
733.420	0.0142818
733.498	0.0141927
733.576	0.0144969
733.655	0.0143764
733.733	0.0143706
733.811	0.0142986
733.889	0.0143468
733.967	0.0142858
734.045	0.0143090
734.123	0.0142642
734.201	0.0143851
734.280	0.0145947
734.358	0.0144817
734.436	0.0145724
734.514	0.0148329
734.592	0.0146059
734.670	0.0146535
734.748	0.0147251
734.826	0.0147186
734.905	0.0146482
734.983	0.0145408
735.061	0.0146181
735.139	0.0145992
735.217	0.0143382
735.295	0.0142185
735.373	0.0143015
735.451	0.0143033
735.530	0.0141787
735.608	0.0141565
735.686	0.0143426
735.764	0.0144412
735.842	0.0142522
735.920	0.0143539
735.998	0.0141572
736.076	0.0143797
736.155	0.0144289
736.233	0.0144629
736.311	0.0145330
736.389	0.0145512
736.467	0.0143574
736.545	0.0144814
736.623	0.0143653
736.701	0.0144025
736.780	0.0142857
736.858	0.0142706
736.936	0.0142917
737.014	0.0143408
737.092	0.0144012
737.170	0.0144993
737.248	0.0144461
737.326	0.0144704
737.405	0.0144892
737.483	0.0145269
737.561	0.0146677
737.639	0.0146399
737.717	0.0147145
737.795	0.0146417
737.873	0.0146084
737.951	0.0147209
738.030	0.0146867
738.108	0.0145377
738.186	0.0144872
738.264	0.0143729
738.342	0.0143968
738.420	0.0143380
738.498	0.0142460
738.576	0.0142767
738.655	0.0142719
738.733	0.0141834
738.811	0.0142685
738.889	0.0141550
738.967	0.0142998
739.045	0.0142754
739.123	0.0143706
739.201	0.0146497
739.280	0.0143562
739.358	0.0142903
739.436	0.0144406
739.514	0.0143358
739.592	0.0143722
739.670	0.0143483
739.748	0.0142782
739.826	0.0144410
739.905	0.0143565
739.983	0.0141685
740.061	0.0142798
740.139	0.0142868
740.217	0.0143459
740.295	0.0143021
740.373	0.0144989
740.451	0.0146713
740.530	0.0146565
740.608	0.0146188
740.686	0.0147757
740.764	0.0148738
740.842	0.0146676
740.920	0.0147566
740.998	0.0147779
741.076	0.0149079
741.155	0.0147771
741.233	0.0147337
741.311	0.0146596
741.389	0.0148497
741.467	0.0147213
741.545	0.0146206
741.623	0.0145395
741.701	0.0145353
741.780	0.0146059
741.858	0.0145392
741.936	0.0144628
742.014	0.0144625
742.092	0.0144052
742.170	0.0143800
742.248	0.0145720
742.326	0.0144631
742.405	0.0143900
742.483	0.0143028
742.561	0.0143951
742.639	0.0141868
742.717	0.0141384
742.795	0.0141398
742.873	0.0142447
742.951	0.0141708
743.030	0.0139411
743.108	0.0140579
743.186	0.0141905
743.264	0.0142149
743.342	0.0141457
743.420	0.0140807
743.498	0.0140958
743.576	0.0142216
743.655	0.0143807
743.733	0.0144183
743.811	0.0144421
743.889	0.0145716
743.967	0.0147979
744.045	0.0147433
744.123	0.0148219
744.201	0.0149054
744.280	0.0149078
744.358	0.0147217
744.436	0.0147687
744.514	0.0150094
744.592	0.0147501
744.670	0.0147302
744.748	0.0148584
744.826	0.0148191
744.905	0.0148315
744.983	0.0148019
745.061	0.0149021
745.139	0.0148255
745.217	0.0148255
745.295	0.0148734
745.373	0.0148932
745.451	0.0147715
745.530	0.0148769
745.608	0.0145979
745.686	0.0145273
745.764	0.0145506
745.842	0.0144916
745.920	0.0144612
745.998	0.0145239
746.076	0.0144491
746.155	0.0143197
746.233	0.0142744
746.311	0.0142023
746.389	0.0141820
746.467	0.0141018
746.545	0.0140036
746.623	0.0140019
746.701	0.0141271
746.780	0.0141431
746.858	0.0140768
746.936	0.0141671
747.014	0.0142070
747.092	0.0143269
747.170	0.0143685
747.248	0.0144733
747.326	0.0144859
747.405	0.0146053
747.483	0.0144794
747.561	0.0145048
747.639	0.0146465
747.717	0.0146100
747.795	0.0145807
747.873	0.0146329
747.951	0.0147426
748.030	0.0146000
748.108	0.0146760
748.186	0.0146244
748.264	0.0146383
748.342	0.0146494
748.420	0.0147167
748.498	0.0147756
748.576	0.0147643
748.655	0.0147385
748.733	0.0147868
748.811	0.0148095
748.889	0.0149133
748.967	0.0148814
749.045	0.0148455
749.123	0.0149091
749.201	0.0148088
749.280	0.0150170
749.358	0.0148228
749.436	0.0147890
749.514	0.0148423
749.592	0.0149252
749.670	0.0147751
749.748	0.0148032
749.826	0.0147182
749.905	0.0146693
749.983	0.0145218
750.061	0.0146288
750.139	0.0145753
750.217	0.0144852
750.295	0.0146129
750.373	0.0144424
750.451	0.0144441
750.530	0.0144027
750.608	0.0143115
750.686	0.0142606
750.764	0.0143833
750.842	0.0142345
750.920	0.0142291
750.998	0.0142456
751.076	0.0143287
751.155	0.0142474
751.233	0.0142450
751.311	0.0141787
751.389	0.0142759
751.467	0.0142101
751.545	0.0142583
751.623	0.0142251
751.701	0.0142921
751.780	0.0144656
751.858	0.0142996
751.936	0.0144032
752.014	0.0144347
752.092	0.0144661
752.170	0.0144675
752.248	0.0144785
752.326	0.0143844
752.405	0.0144031
752.483	0.0144418
752.561	0.0142683
752.639	0.0144148
752.717	0.0145737
752.795	0.0144883
752.873	0.0145305
752.951	0.0147163
753.030	0.0147951
753.108	0.0146758
753.186	0.0149706
753.264	0.0148331
753.342	0.0149219
753.420	0.0149545
753.498	0.0148820
753.576	0.0148758
753.655	0.0148493
753.733	0.0148797
753.811	0.0147855
753.889	0.0146421
753.967	0.0146601
754.045	0.0145401
754.123	0.0145776
754.201	0.0145514
754.280	0.0146129
754.358	0.0145789
754.436	0.0144427
754.514	0.0144587
754.592	0.0144900
754.670	0.0143816
754.748	0.0144114
754.826	0.0144324
754.905	0.0142479
754.983	0.0142070
755.061	0.0143967
755.139	0.0142779
755.217	0.0142887
755.295	0.0143179
755.373	0.0142596
755.451	0.0144414
755.530	0.0143865
755.608	0.0143197
755.686	0.0143314
755.764	0.0143124
755.842	0.0143713
755.920	0.0143026
755.998	0.0142178
756.076	0.0143874
756.155	0.0143882
756.233	0.0143609
756.311	0.0143622
756.389	0.0143317
756.467	0.0143571
756.545	0.0144108
756.623	0.0144699
756.701	0.0145026
756.780	0.0144555
756.858	0.0142572
756.936	0.0144750
757.014	0.0144548
757.092	0.0144698
757.170	0.0144698
757.248	0.0146127
757.326	0.0145949
757.405	0.0144788
757.483	0.0145330
757.561	0.0145468
757.639	0.0145209
757.717	0.0145435
757.795	0.0145942
757.873	0.0145798
757.951	0.0143926
758.030	0.0145037
758.108	0.0144387
758.186	0.0145087
758.264	0.0145841
758.342	0.0145534
758.420	0.0143713
758.498	0.0145868
758.576	0.0144552
758.655	0.0144740
758.733	0.0144264
758.811	0.0143633
758.889	0.0143607
758.967	0.0142747
759.045	0.0143513
759.123	0.0143930
759.201	0.0145129
759.280	0.0142793
759.358	0.0143010
759.436	0.0143907
759.514	0.0143759
759.592	0.0144233
759.670	0.0144377
759.748	0.0143851
759.826	0.0144132
759.905	0.0145156
759.983	0.0145771
760.061	0.0144848
760.139	0.0145364
760.217	0.0145654
760.295	0.0146713
760.373	0.0147790
760.451	0.0146709
760.530	0.0146669
760.608	0.0146695
760.686	0.0147067
760.764	0.0146459
760.842	0.0146006
760.920	0.0145615
760.998	0.0147187
761.076	0.0148187
761.155	0.0146279
761.233	0.0146439
761.311	0.0144482
761.389	0.0145011
761.467	0.0145803
761.545	0.0143164
761.623	0.0143680
761.701	0.0143954
761.780	0.0143559
761.858	0.0143840
761.936	0.0142796
762.014	0.0142818
762.092	0.0142343
762.170	0.0142381
762.248	0.0142931
762.326	0.0144124
762.405	0.0143250
762.483	0.0142641
762.561	0.0143365
762.639	0.0142387
762.717	0.0141174
762.795	0.0142941
762.873	0.0142759
762.951	0.0143239
763.030	0.0141799
763.108	0.0142363
763.186	0.0143139
763.264	0.0143518
763.342	0.0142553
763.420	0.0142953
763.498	0.0143605
763.576	0.0143927
763.655	0.0143143
763.733	0.0145313
763.811	0.0145036
763.889	0.0144959
763.967	0.0144730
764.045	0.0146144
764.123	0.0145428
764.201	0.0147538
764.280	0.0146357
764.358	0.0147929
764.436	0.0145870
764.514	0.0146715
764.592	0.0148383
764.670	0.0146378
764.748	0.0146719
764.826	0.0146594
764.905	0.0144476
764.983	0.0145316
765.061	0.0146364
765.139	0.0147674
765.217	0.0146002
765.295	0.0146539
765.373	0.0146937
765.451	0.0146015
765.530	0.0145358
765.608	0.0144344
765.686	0.0145026
765.764	0.0144492
765.842	0.0144834
765.920	0.0145085
765.998	0.0143034
766.076	0.0143440
766.155	0.0144341
766.233	0.0142646
766.311	0.0141945
766.389	0.0143249
766.467	0.0142770
766.545	0.0143971
766.623	0.0144060
766.701	0.0143486
766.780	0.0143320
766.858	0.0143719
766.936	0.0142741
767.014	0.0142964
767.092	0.0141426
767.170	0.0142415
767.248	0.0142741
767.326	0.0142932
767.405	0.0143566
767.483	0.0143773
767.561	0.0142530
767.639	0.0141949
767.717	0.0143237
767.795	0.0144797
767.873	0.0143168
767.951	0.0144623
768.030	0.0144046
768.108	0.0143447
768.186	0.0143482
768.264	0.0144228
768.342	0.0143182
768.420	0.0145805
768.498	0.0144501
768.576	0.0144225
768.655	0.0144456
768.733	0.0143997
768.811	0.0145457
768.889	0.0145432
768.967	0.0145032
769.045	0.0146539
769.123	0.0146276
769.201	0.0148209
769.280	0.0147321
769.358	0.0147295
769.436	0.0145185
769.514	0.0147035
769.592	0.0146996
769.670	0.0146907
769.748	0.0147012
769.826	0.0146120
769.905	0.0146521
769.983	0.0146551
770.061	0.0144494
770.139	0.0145634
770.217	0.0143890
770.295	0.0144672
770.373	0.0144057
770.451	0.0144200
770.530	0.0143549
770.608	0.0143753
770.686	0.0143461
770.764	0.0142356
770.842	0.0142837
770.920	0.0141968
770.998	0.0142796
771.076	0.0141593
771.155	0.0142983
771.233	0.0143899
771.311	0.0143318
771.389	0.0142495
771.467	0.0144424
771.545	0.0144239
771.623	0.0143397
771.701	0.0144082
771.780	0.0145089
771.858	0.0143887
771.936	0.0145085
772.014	0.0146605
772.092	0.0146275
772.170	0.0146313
772.248	0.0146300
772.326	0.0146279
772.405	0.0147492
772.483	0.0147523
772.561	0.0146093
772.639	0.0146150
772.717	0.0146530
772.795	0.0145902
772.873	0.0146074
772.951	0.0145984
773.030	0.0145895
773.108	0.0145735
773.186	0.0147289
773.264	0.0146117
773.342	0.0146433
773.420	0.0147036
773.498	0.0145074
773.576	0.0144863
773.655	0.0144593
773.733	0.0144019
773.811	0.0144034
773.889	0.0144511
773.967	0.0143388
774.045	0.0144025
774.123	0.0143194
774.201	0.0142492
774.280	0.0144128
774.358	0.0143574
774.436	0.0144370
774.514	0.0143711
774.592	0.0142858
774.670	0.0143475
774.748	0.0143442
774.826	0.0143333
774.905	0.0143172
774.983	0.0142085
775.061	0.0143566
775.139	0.0144186
775.217	0.0144678
775.295	0.0144177
775.373	0.0142590
775.451	0.0144136
775.530	0.0144090
775.608	0.0143144
775.686	0.0144529
775.764	0.0144028
775.842	0.0143462
775.920	0.0144868
775.998	0.0145839
776.076	0.0146133
776.155	0.0145132
776.233	0.0144058
776.311	0.0146284
776.389	0.0144952
776.467	0.0144087
776.545	0.0143909
776.623	0.0144922
776.701	0.0146200
776.780	0.0144497
776.858	0.0145255
776.936	0.0144994
777.014	0.0145576
777.092	0.0146206
777.170	0.0147562
777.248	0.0148399
777.326	0.0147076
777.405	0.0147779
777.483	0.0148206
777.561	0.0148299
777.639	0.0147700
777.717	0.0146854
777.795	0.0144684
777.873	0.0145819
777.951	0.0145888
778.030	0.0145880
778.108	0.0145873
778.186	0.0144206
778.264	0.0143974
778.342	0.0142473
778.420	0.0143822
778.498	0.0142173
778.576	0.0144374
778.655	0.0143398
778.733	0.0143758
778.811	0.0143921
778.889	0.0141997
778.967	0.0143359
779.045	0.0144167
779.123	0.0142320
779.201	0.0144509
779.280	0.0143592
779.358	0.0142630
779.436	0.0143334
779.514	0.0143355
779.592	0.0143227
779.670	0.0144355
779.748	0.0142508
779.826	0.0142808
779.905	0.0142638
779.983	0.0144711
780.061	0.0144719
780.139	0.0143797
780.217	0.0145501
780.295	0.0146828
780.373	0.0147012
780.451	0.0146483
780.530	0.0144653
780.608	0.0145410
780.686	0.0146088
780.764	0.0146896
780.842	0.0145039
780.920	0.0145184
780.998	0.0146382
781.076	0.0144242
781.155	0.0144681
781.233	0.0144022
781.311	0.0143621
781.389	0.0145163
781.467	0.0144990
781.545	0.0143540
781.623	0.0143841
781.701	0.0144946
781.780	0.0144227
781.858	0.0143226
781.936	0.0143530
782.014	0.0144194
782.092	0.0145377
782.170	0.0143800
782.248	0.0144392
782.326	0.0143441
782.405	0.0144426
782.483	0.0145035
782.561	0.0142828
782.639	0.0143784
782.717	0.0145111
782.795	0.0143970
782.873	0.0143676
782.951	0.0146028
783.030	0.0144812
783.108	0.0144463
783.186	0.0145007
783.264	0.0144073
783.342	0.0143974
783.420	0.0144571
783.498	0.0145632
783.576	0.0144723
783.655	0.0144543
783.733	0.0144775
783.811	0.0144618
783.889	0.0145345
783.967	0.0145800
784.045	0.0145767
784.123	0.0145097
784.201	0.0145654
784.280	0.0146084
784.358	0.0144991
784.436	0.0145051
784.514	0.0145766
784.592	0.0144288
784.670	0.0145634
784.748	0.0144887
784.826	0.0145124
784.905	0.0144820
784.983	0.0143781
785.061	0.0143713
785.139	0.0144668
785.217	0.0143906
785.295	0.0144232
785.373	0.0143789
785.451	0.0142538
785.530	0.0143851
785.608	0.0144745
785.686	0.0144862
785.764	0.0144193
785.842	0.0144465
785.920	0.0144827
785.998	0.0143987
786.076	0.0143864
786.155	0.0143275
786.233	0.0143706
786.311	0.0145171
786.389	0.0146358
786.467	0.0146094
786.545	0.0145667
786.623	0.0144889
786.701	0.0145892
786.780	0.0147933
786.858	0.0147746
786.936	0.0147690
787.014	0.0148351
787.092	0.0147231
787.170	0.0146558
787.248	0.0147572
787.326	0.0146597
787.405	0.0144978
787.483	0.0145742
787.561	0.0145057
787.639	0.0144466
787.717	0.0143261
787.795	0.0143546
787.873	0.0143147
787.951	0.0141716
788.030	0.0141477
788.108	0.0141116
788.186	0.0142113
788.264	0.0141274
788.342	0.0141697
788.420	0.0141367
788.498	0.0142972
788.576	0.0141683
788.655	0.0142805
788.733	0.0142349
788.811	0.0142841
788.889	0.0144772
788.967	0.0146043
789.045	0.0146033
789.123	0.0148070
789.201	0.0147704
789.280	0.0148823
789.358	0.0149529
789.436	0.0148591
789.514	0.0149071
789.592	0.0150799
789.670	0.0149343
789.748	0.0148949
789.826	0.0148111
789.905	0.0147598
789.983	0.0146956
790.061	0.0147192
790.139	0.0147123
790.217	0.0145010
790.295	0.0145377
790.373	0.0143437
790.451	0.0144379
790.530	0.0144121
790.608	0.0141933
790.686	0.0141425
790.764	0.0140372
790.842	0.0140658
790.920	0.0140020
790.998	0.0139601
791.076	0.0140992
791.155	0.0139697
791.233	0.0137977
791.311	0.0137327
791.389	0.0137704
791.467	0.0138410
791.545	0.0139154
791.623	0.0138170
791.701	0.0138863
791.780	0.0141865
791.858	0.0142657
791.936	0.0142178
792.014	0.0142644
792.092	0.0144821
792.170	0.0144848
792.248	0.0145670
792.326	0.0146820
792.405	0.0146947
792.483	0.0149598
792.561	0.0150772
792.639	0.0151713
792.717	0.0152511
792.795	0.0152861
792.873	0.0153930
792.951	0.0154618
793.030	0.0155906
793.108	0.0156160
793.186	0.0156365
793.264	0.0155692
793.342	0.0156631
793.420	0.0155277
793.498	0.0154790
793.576	0.0153133
793.655	0.0152631
793.733	0.0151310
793.811	0.0146429
793.889	0.0145986
793.967	0.0144359
794.045	0.0143147
794.123	0.0140462
794.201	0.0138640
794.280	0.0137506
794.358	0.0136395
794.436	0.0134422
794.514	0.0134065
794.592	0.0133700
794.670	0.0133588
794.748	0.0131499
794.826	0.0131954
794.905	0.0132903
794.983	0.0131310
795.061	0.0133583
795.139	0.0133620
795.217	0.0133276
795.295	0.0135403
795.373	0.0136446
795.451	0.0137085
795.530	0.0138674
795.608	0.0140615
795.686	0.0143453
795.764	0.0143576
795.842	0.0145031
795.920	0.0145265
795.998	0.0146819
796.076	0.0148665
796.155	0.0150610
796.233	0.0152633
796.311	0.0153334
796.389	0.0153457
796.467	0.0155917
796.545	0.0156934
796.623	0.0158444
796.701	0.0158110
796.780	0.0155804
796.858	0.0157013
796.936	0.0160532
797.014	0.0159038
797.092	0.0157481
797.170	0.0158888
797.248	0.0157530
797.326	0.0155139
797.405	0.0153680
797.483	0.0153280
797.561	0.0152003
797.639	0.0149367
797.717	0.0148096
797.795	0.0146069
797.873	0.0144365
797.951	0.0141933
798.030	0.0139655
798.108	0.0139540
798.186	0.0136590
798.264	0.0135436
798.342	0.0132768
798.420	0.0132406
798.498	0.0130840
798.576	0.0130647
798.655	0.0131068
798.733	0.0130426
798.811	0.0131010
798.889	0.0131075
798.967	0.0131002
799.045	0.0131725
799.123	0.0133006
799.201	0.0135150
799.280	0.0134271
799.358	0.0136147
799.436	0.0137521
799.514	0.0138094
799.592	0.0139714
799.670	0.0141678
799.748	0.0142842
799.826	0.0144711
799.905	0.0146094
799.983	0.0147443
800.061	0.0147614
800.139	0.0150073
800.217	0.0151683
800.295	0.0151257
800.373	0.0152679
800.451	0.0152975
800.530	0.0153266
800.608	0.0155008
800.686	0.0154788
800.764	0.0154532
800.842	0.0155275
800.920	0.0155914
800.998	0.0156155
801.076	0.0155563
801.155	0.0155634
801.233	0.0154567
801.311	0.0155500
801.389	0.0154877
801.467	0.0154197
801.545	0.0153809
801.623	0.0153038
801.701	0.0152774
801.780	0.0151335
801.858	0.0150914
801.936	0.0148715
802.014	0.0147086
802.092	0.0145036
802.170	0.0144133
802.248	0.0141644
802.326	0.0141109
802.405	0.0140127
802.483	0.0137370
802.561	0.0135008
802.639	0.0134161
802.717	0.0131451
802.795	0.0133084
802.873	0.0133861
802.951	0.0131556
803.030	0.0131512
803.108	0.0131857
803.186	0.0133039
803.264	0.0134940
803.342	0.0135642
803.420	0.0134257
803.498	0.0137345
803.576	0.0137374
803.655	0.0138058
803.733	0.0141370
803.811	0.0140651
803.889	0.0141619
803.967	0.0143286
804.045	0.0143760
804.123	0.0145371
804.201	0.0144892
804.280	0.0145940
804.358	0.0146897
804.436	0.0147430
804.514	0.0147466
804.592	0.0150026
804.670	0.0148623
804.748	0.0148740
804.826	0.0150237
804.905	0.0150188
804.983	0.0152130
805.061	0.0151352
805.139	0.0150874
805.217	0.0150948
805.295	0.0152544
805.373	0.0150790
805.451	0.0153123
805.530	0.0152161
805.608	0.0152096
805.686	0.0152957
805.764	0.0151918
805.842	0.0152013
805.920	0.0150901
805.998	0.0149998
806.076	0.0149989
806.155	0.0149302
806.233	0.0148590
806.311	0.0147659
806.389	0.0146134
806.467	0.0146282
806.545	0.0144603
806.623	0.0143796
806.701	0.0143060
806.780	0.0141590
806.858	0.0141216
806.936	0.0139712
807.014	0.0139213
807.092	0.0140217
807.170	0.0140125
807.248	0.0138847
807.326	0.0139713
807.405	0.0139079
807.483	0.0137572
807.561	0.0139331
807.639	0.0140359
807.717	0.0140439
807.795	0.0140928
807.873	0.0138814
807.951	0.0141315
808.030	0.0141176
808.108	0.0141043
808.186	0.0141740
808.264	0.0143068
808.342	0.0143694
808.420	0.0143577
808.498	0.0144714
808.576	0.0144761
808.655	0.0145881
808.733	0.0146056
808.811	0.0146986
808.889	0.0146282
808.967	0.0146372
809.045	0.0145888
809.123	0.0147426
809.201	0.0147739
809.280	0.0146820
809.358	0.0145283
809.436	0.0146783
809.514	0.0146439
809.592	0.0145928
809.670	0.0145798
809.748	0.0145559
809.826	0.0145315
809.905	0.0145274
809.983	0.0143804
810.061	0.0145531
810.139	0.0143719
810.217	0.0144616
810.295	0.0144991
810.373	0.0144707
810.451	0.0144196
810.530	0.0143324
810.608	0.0142126
810.686	0.0144014
810.764	0.0144666
810.842	0.0143372
810.920	0.0144951
810.998	0.0144081
811.076	0.0144726
811.155	0.0144160
811.233	0.0143688
811.311	0.0145114
811.389	0.0144913
811.467	0.0143704
811.545	0.0145390
811.623	0.0145879
811.701	0.0144378
811.780	0.0145615
811.858	0.0145766
811.936	0.0146336
812.014	0.0148222
812.092	0.0146345
812.170	0.0146954
812.248	0.0146326
812.326	0.0147517
812.405	0.0145660
812.483	0.0145771
812.561	0.0145295
812.639	0.0146079
812.717	0.0145684
812.795	0.0144898
812.873	0.0145790
812.951	0.0144873
813.030	0.0144604
813.108	0.0143491
813.186	0.0143888
813.264	0.0143636
813.342	0.0144757
813.420	0.0145464
813.498	0.0144252
813.576	0.0144936
813.655	0.0146099
813.733	0.0144882
813.811	0.0144240
813.889	0.0144627
813.967	0.0143987
814.045	0.0144256
814.123	0.0143726
814.201	0.0144328
814.280	0.0143964
814.358	0.0143017
814.436	0.0142731
814.514	0.0142516
814.592	0.0143757
814.670	0.0143782
814.748	0.0142640
814.826	0.0142177
814.905	0.0143501
814.983	0.0142957
815.061	0.0143484
815.139	0.0143321
815.217	0.0143082
815.295	0.0143922
815.373	0.0141960
815.451	0.0142861
815.530	0.0143288
815.608	0.0144173
815.686	0.0144918
815.764	0.0143025
815.842	0.0141980
815.920	0.0142911
815.998	0.0143523
816.076	0.0144537
816.155	0.0143458
816.233	0.0144063
816.311	0.0144892
816.389	0.0145596
816.467	0.0144561
816.545	0.0145025
816.623	0.0145120
816.701	0.0144929
816.780	0.0145893
816.858	0.0146196
816.936	0.0146330
817.014	0.0146474
817.092	0.0146957
817.170	0.0148305
817.248	0.0147288
817.326	0.0148155
817.405	0.0148128
817.483	0.0147031
817.561	0.0147549
817.639	0.0147193
817.717	0.0149284
817.795	0.0146612
817.873	0.0145226
817.951	0.0145931
818.030	0.0145767
818.108	0.0145659
818.186	0.0144762
818.264	0.0145274
818.342	0.0144627
818.420	0.0146075
818.498	0.0144305
818.576	0.0144009
818.655	0.0143850
818.733	0.0144642
818.811	0.0143840
818.889	0.0143345
818.967	0.0144137
819.045	0.0143929
819.123	0.0144574
819.201	0.0144872
819.280	0.0144179
819.358	0.0144753
819.436	0.0144183
819.514	0.0143703
819.592	0.0142842
819.670	0.0143385
819.748	0.0143793
819.826	0.0142621
819.905	0.0144736
819.983	0.0144730
820.061	0.0145458
820.139	0.0144967
820.217	0.0145446
820.295	0.0145120
820.373	0.0145422
820.451	0.0144567
820.530	0.0144687
820.608	0.0145932
820.686	0.0144407
820.764	0.0143674
820.842	0.0144741
820.920	0.0144080
820.998	0.0143436
821.076	0.0143764
821.155	0.0144078
821.233	0.0144512
821.311	0.0143436
821.389	0.0144173
821.467	0.0144209
821.545	0.0145867
821.623	0.0145338
821.701	0.0145045
821.780	0.0146632
821.858	0.0144791
821.936	0.0145035
822.014	0.0145280
822.092	0.0146095
822.170	0.0145289
822.248	0.0144362
822.326	0.0144989
822.405	0.0146368
822.483	0.0144765
822.561	0.0145007
822.639	0.0144447
822.717	0.0144965
822.795	0.0146570
822.873	0.0144934
822.951	0.0145081
823.030	0.0145371
823.108	0.0145497
823.186	0.0144294
823.264	0.0145568
823.342	0.0146037
823.420	0.0145841
823.498	0.0145597
823.576	0.0145863
823.655	0.0146024
823.733	0.0146228
823.811	0.0145727
823.889	0.0145088
823.967	0.0146414
824.045	0.0147400
824.123	0.0146853
824.201	0.0146576
824.280	0.0146052
824.358	0.0144736
824.436	0.0144998
824.514	0.0145136
824.592	0.0145280
824.670	0.0145920
824.748	0.0145605
824.826	0.0145461
824.905	0.0144255
824.983	0.0143665
825.061	0.0145126
825.139	0.0144379
825.217	0.0144836
825.295	0.0143727
825.373	0.0146211
825.451	0.0144099
825.530	0.0144477
825.608	0.0145881
825.686	0.0144592
825.764	0.0143823
825.842	0.0144103
825.920	0.0142934
825.998	0.0143185
826.076	0.0144642
826.155	0.0144227
826.233	0.0143038
826.311	0.0145143
826.389	0.0143541
826.467	0.0145351
826.545	0.0145680
826.623	0.0143864
826.701	0.0145239
826.780	0.0144167
826.858	0.0145360
826.936	0.0146061
827.014	0.0145119
827.092	0.0145016
827.170	0.0146125
827.248	0.0147398
827.326	0.0144839
827.405	0.0145523
827.483	0.0145701
827.561	0.0145817
827.639	0.0145189
827.717	0.0146124
827.795	0.0145228
827.873	0.0144532
827.951	0.0145831
828.030	0.0143852
828.108	0.0143159
828.186	0.0144512
828.264	0.0143798
828.342	0.0144186
828.420	0.0144446
828.498	0.0145627
828.576	0.0145004
828.655	0.0145837
828.733	0.0146172
828.811	0.0145521
828.889	0.0145232
828.967	0.0145306
829.045	0.0147124
829.123	0.0146586
829.201	0.0145849
829.280	0.0146065
829.358	0.0146642
829.436	0.0145820
829.514	0.0145260
829.592	0.0144632
829.670	0.0144814
829.748	0.0146729
829.826	0.0145589
829.905	0.0146938
829.983	0.0146601
830.061	0.0145748
830.139	0.0146453
830.217	0.0145840
830.295	0.0145905
830.373	0.0145467
830.451	0.0145957
830.530	0.0144836
830.608	0.0146500
830.686	0.0145556
830.764	0.0144469
830.842	0.0144893
830.920	0.0144445
830.998	0.0144153
831.076	0.0144941
831.155	0.0144800
831.233	0.0145067
831.311	0.0144804
831.389	0.0143327
831.467	0.0143612
831.545	0.0144027
831.623	0.0142738
831.701	0.0144363
831.780	0.0144839
831.858	0.0143647
831.936	0.0144042
832.014	0.0144167
832.092	0.0143426
832.170	0.0144793
832.248	0.0144735
832.326	0.0145399
832.405	0.0144859
832.483	0.0145917
832.561	0.0144996
832.639	0.0145856
832.717	0.0145979
832.795	0.0146011
832.873	0.0146172
832.951	0.0145156
833.030	0.0144581
833.108	0.0145472
833.186	0.0145236
833.264	0.0145820
833.342	0.0145866
833.420	0.0144513
833.498	0.0146213
833.576	0.0144794
833.655	0.0145618
833.733	0.0145090
833.811	0.0147049
833.889	0.0146423
833.967	0.0145884
834.045	0.0146393
834.123	0.0147018
834.201	0.0147206
834.280	0.0144770
834.358	0.0146225
834.436	0.0148106
834.514	0.0146214
834.592	0.0146130
834.670	0.0145348
834.748	0.0145072
834.826	0.0145897
834.905	0.0144180
834.983	0.0144349
835.061	0.0146035
835.139	0.0143655
835.217	0.0143555
835.295	0.0145043
835.373	0.0144827
835.451	0.0144085
835.530	0.0142598
835.608	0.0143825
835.686	0.0145166
835.764	0.0144042
835.842	0.0143423
835.920	0.0144072
835.998	0.0142263
836.076	0.0142977
836.155	0.0144076
836.233	0.0141887
836.311	0.0141689
836.389	0.0143201
836.467	0.0143161
836.545	0.0143096
836.623	0.0143830
836.701	0.0144953
836.780	0.0143161
836.858	0.0144304
836.936	0.0145496
837.014	0.0145500
837.092	0.0145540
837.170	0.0145726
837.248	0.0146477
837.326	0.0147046
837.405	0.0146680
837.483	0.0146494
837.561	0.0147484
837.639	0.0146937
837.717	0.0146316
837.795	0.0147539
837.873	0.0147864
837.951	0.0146593
838.030	0.0146815
838.108	0.0146077
838.186	0.0147502
838.264	0.0147342
838.342	0.0146725
838.420	0.0145541
838.498	0.0145435
838.576	0.0145635
838.655	0.0145277
838.733	0.0145921
838.811	0.0145742
838.889	0.0143953
838.967	0.0144401
839.045	0.0144430
839.123	0.0143266
839.201	0.0143099
839.280	0.0144045
839.358	0.0144086
839.436	0.0141867
839.514	0.0143155
839.592	0.0143371
839.670	0.0140956
839.748	0.0143302
839.826	0.0143417
839.905	0.0143099
839.983	0.0141658
840.061	0.0142869
840.139	0.0141887
840.217	0.0143472
840.295	0.0142523
840.373	0.0143152
840.451	0.0144459
840.530	0.0143264
840.608	0.0142570
840.686	0.0143393
840.764	0.0144430
840.842	0.0144443
840.920	0.0144746
840.998	0.0144654
841.076	0.0145322
841.155	0.0144272
841.233	0.0146148
841.311	0.0146238
841.389	0.0147041
841.467	0.0146197
841.545	0.0146197
841.623	0.0146915
841.701	0.0146996
841.780	0.0147293
841.858	0.0147198
841.936	0.0147902
842.014	0.0147693
842.092	0.0148106
842.170	0.0147910
842.248	0.0147608
842.326	0.0147263
842.405	0.0149216
842.483	0.0147649
842.561	0.0147549
842.639	0.0147432
842.717	0.0148036
842.795	0.0146556
842.873	0.0146036
842.951	0.0147150
843.030	0.0146428
843.108	0.0147242
843.186	0.0146239
843.264	0.0145865
843.342	0.0145065
843.420	0.0145763
843.498	0.0145154
843.576	0.0143518
843.655	0.0143404
843.733	0.0144034
843.811	0.0141811
843.889	0.0143789
843.967	0.0142830
844.045	0.0141769
844.123	0.0140926
844.201	0.0143906
844.280	0.0142026
844.358	0.0139996
844.436	0.0139764
844.514	0.0141286
844.592	0.0143081
844.670	0.0141908
844.748	0.0141002
844.826	0.0141483
844.905	0.0141920
844.983	0.0142535
845.061	0.0140822
845.139	0.0141475
845.217	0.0143708
845.295	0.0143922
845.373	0.0143232
845.451	0.0144757
845.530	0.0145000
845.608	0.0145370
845.686	0.0146146
845.764	0.0147289
845.842	0.0145598
845.920	0.0147830
845.998	0.0147362
846.076	0.0147113
846.155	0.0148365
846.233	0.0149291
846.311	0.0149123
846.389	0.0149918
846.467	0.0149747
846.545	0.0150682
846.623	0.0150508
846.701	0.0150763
846.780	0.0151968
846.858	0.0149518
846.936	0.0150558
847.014	0.0151569
847.092	0.0150688
847.170	0.0150342
847.248	0.0148458
847.326	0.0150648
847.405	0.0149235
847.483	0.0149703
847.561	0.0149303
847.639	0.0147906
847.717	0.0148059
847.795	0.0146619
847.873	0.0145502
847.951	0.0145618
848.030	0.0144746
848.108	0.0143081
848.186	0.0142804
848.264	0.0142371
848.342	0.0143758
848.420	0.0140642
848.498	0.0140070
848.576	0.0140059
848.655	0.0139440
848.733	0.0138268
848.811	0.0138586
848.889	0.0138427
848.967	0.0138960
849.045	0.0138697
849.123	0.0139414
849.201	0.0141009
849.280	0.0141022
849.358	0.0139626
849.436	0.0140364
849.514	0.0141960
849.592	0.0142403
849.670	0.0142480
849.748	0.0144067
849.826	0.0144108
849.905	0.0145004
849.983	0.0144432
850.061	0.0145770
850.139	0.0145570
850.217	0.0146179
850.295	0.0146850
850.373	0.0146780
850.451	0.0147480
850.530	0.0148378
850.608	0.0147710
850.686	0.0148268
850.764	0.0147210
850.842	0.0147787
850.920	0.0148059
850.998	0.0148898
851.076	0.0146807
851.155	0.0147309
851.233	0.0147496
851.311	0.0147248
851.389	0.0148077
851.467	0.0148244
851.545	0.0147712
851.623	0.0146294
851.701	0.0146433
851.780	0.0147174
851.858	0.0147272
851.936	0.0148009
852.014	0.0146478
852.092	0.0146789
852.170	0.0148206
852.248	0.0146947
852.326	0.0144269
852.405	0.0145374
852.483	0.0145100
852.561	0.0144900
852.639	0.0144964
852.717	0.0144964
852.795	0.0143312
852.873	0.0145181
852.951	0.0145278
853.030	0.0143069
853.108	0.0143545
853.186	0.0142487
853.264	0.0141682
853.342	0.0144005
853.420	0.0143004
853.498	0.0142729
853.576	0.0142494
853.655	0.0143903
853.733	0.0143620
853.811	0.0143432
853.889	0.0143434
853.967	0.0144741
854.045	0.0145572
854.123	0.0144655
854.201	0.0145404
854.280	0.0144576
854.358	0.0144606
854.436	0.0146397
854.514	0.0146853
854.592	0.0146374
854.670	0.0146920
854.748	0.0145238
854.826	0.0144068
854.905	0.0144475
854.983	0.0145139
855.061	0.0143942
855.139	0.0143422
855.217	0.0144416
855.295	0.0143288
855.373	0.0143531
855.451	0.0143456
855.530	0.0143839
855.608	0.0143314
855.686	0.0144906
855.764	0.0142570
855.842	0.0144606
855.920	0.0144216
855.998	0.0144331
856.076	0.0145142
856.155	0.0145007
856.233	0.0144463
856.311	0.0145738
856.389	0.0144577
856.467	0.0144271
856.545	0.0143019
856.623	0.0145165
856.701	0.0143864
856.780	0.0144448
856.858	0.0144187
856.936	0.0143005
857.014	0.0146597
857.092	0.0144865
857.170	0.0143152
857.248	0.0143786
857.326	0.0142896
857.405	0.0144544
857.483	0.0143263
857.561	0.0142568
857.639	0.0143437
857.717	0.0144617
857.795	0.0144044
857.873	0.0143691
857.951	0.0144884
858.030	0.0143587
858.108	0.0145077
858.186	0.0143526
858.264	0.0145728
858.342	0.0144467
858.420	0.0144983
858.498	0.0143837
858.576	0.0144430
858.655	0.0144437
858.733	0.0145551
858.811	0.0144987
858.889	0.0145367
858.967	0.0145241
859.045	0.0146193
859.123	0.0145910
859.201	0.0145937
859.280	0.0145922
859.358	0.0146108
859.436	0.0144869
859.514	0.0146396
859.592	0.0145204
859.670	0.0145081
859.748	0.0145351
859.826	0.0144200
859.905	0.0145677
859.983	0.0145231
860.061	0.0144910
860.139	0.0145247
860.217	0.0145565
860.295	0.0145454
860.373	0.0145823
860.451	0.0145576
860.530	0.0146076
860.608	0.0145324
860.686	0.0142844
860.764	0.0143870
860.842	0.0144425
860.920	0.0144098
860.998	0.0143636
861.076	0.0144796
861.155	0.0144478
861.233	0.0142805
861.311	0.0144751
861.389	0.0144309
861.467	0.0143091
861.545	0.0143428
861.623	0.0143790
861.701	0.0143935
861.780	0.0143391
861.858	0.0144598
861.936	0.0144030
862.014	0.0143644
862.092	0.0144170
862.170	0.0144505
862.248	0.0144210
862.326	0.0143129
862.405	0.0143293
862.483	0.0144647
862.561	0.0143003
862.639	0.0143676
862.717	0.0144484
862.795	0.0142670
862.873	0.0144913
862.951	0.0144942
863.030	0.0143850
863.108	0.0145113
863.186	0.0143997
863.264	0.0144704
863.342	0.0145774
863.420	0.0145121
863.498	0.0146281
863.576	0.0145647
863.655	0.0144277
863.733	0.0144971
863.811	0.0146304
863.889	0.0146108
863.967	0.0144860
864.045	0.0145911
864.123	0.0145290
864.201	0.0145332
864.280	0.0145611
864.358	0.0144615
864.436	0.0146609
864.514	0.0144159
864.592	0.0143005
864.670	0.0143613
864.748	0.0145597
864.826	0.0144774
864.905	0.0143539
864.983	0.0144527
865.061	0.0144881
865.139	0.0144781
865.217	0.0143793
865.295	0.0143783
865.373	0.0142131
865.451	0.0144684
865.530	0.0144965
865.608	0.0145278
865.686	0.0144547
865.764	0.0144665
865.842	0.0143744
865.920	0.0144807
865.998	0.0145034
866.076	0.0144791
866.155	0.0145741
866.233	0.0143826
866.311	0.0143501
866.389	0.0145560
866.467	0.0144815
866.545	0.0145031
866.623	0.0145892
866.701	0.0145766
866.780	0.0145294
866.858	0.0146497
866.936	0.0146097
867.014	0.0146215
867.092	0.0146899
867.170	0.0146890
867.248	0.0146758
867.326	0.0145975
867.405	0.0145363
867.483	0.0145725
867.561	0.0144141
867.639	0.0144783
867.717	0.0146561
867.795	0.0144999
867.873	0.0144633
867.951	0.0143079
868.030	0.0144213
868.108	0.0144567
868.186	0.0142947
868.264	0.0143912
868.342	0.0142831
868.420	0.0142659
868.498	0.0143484
868.576	0.0144311
868.655	0.0144407
868.733	0.0142580
868.811	0.0142535
868.889	0.0144718
868.967	0.0143976
869.045	0.0143214
869.123	0.0143481
869.201	0.0144077
869.280	0.0142521
869.358	0.0142324
869.436	0.0143278
869.514	0.0143769
869.592	0.0141692
869.670	0.0142950
869.748	0.0142435
869.826	0.0142262
869.905	0.0143278
869.983	0.0142796
870.061	0.0143169
870.139	0.0144283
870.217	0.0144428
870.295	0.0143858
870.373	0.0145124
870.451	0.0144086
870.530	0.0145156
870.608	0.0144482
870.686	0.0145621
870.764	0.0146629
870.842	0.0147098
870.920	0.0146882
870.998	0.0146189
871.076	0.0147224
871.155	0.0147020
871.233	0.0146945
871.311	0.0146947
871.389	0.0147108
871.467	0.0146878
871.545	0.0147521
871.623	0.0148978
871.701	0.0148466
871.780	0.0147549
871.858	0.0146854
871.936	0.0146866
872.014	0.0147187
872.092	0.0147029
872.170	0.0144651
872.248	0.0144787
872.326	0.0145792
872.405	0.0146030
872.483	0.0143723
872.561	0.0143360
872.639	0.0143338
872.717	0.0144983
872.795	0.0143896
872.873	0.0143445
872.951	0.0144670
873.030	0.0143752
873.108	0.0145883
873.186	0.0144743
873.264	0.0144180
873.342	0.0143359
873.420	0.0143922
873.498	0.0142853
873.576	0.0143927
873.655	0.0144272
873.733	0.0143359
873.811	0.0142593
873.889	0.0142188
873.967	0.0139799
874.045	0.0141230
874.123	0.0141304
874.201	0.0141367
874.280	0.0141808
874.358	0.0141108
874.436	0.0141768
874.514	0.0142602
874.592	0.0143677
874.670	0.0143593
874.748	0.0144718
874.826	0.0146347
874.905	0.0144391
874.983	0.0145663
875.061	0.0146964
875.139	0.0147618
875.217	0.0146564
875.295	0.0147588
875.373	0.0148810
875.451	0.0148316
875.530	0.0147351
875.608	0.0148158
875.686	0.0146872
875.764	0.0147160
875.842	0.0146771
875.920	0.0147054
875.998	0.0146732
876.076	0.0145716
876.155	0.0145737
876.233	0.0145853
876.311	0.0144023
876.389	0.0144849
876.467	0.0144078
876.545	0.0144183
876.623	0.0144577
876.701	0.0144254
876.780	0.0145118
876.858	0.0143484
876.936	0.0145010
877.014	0.0144189
877.092	0.0142967
877.170	0.0144902
877.248	0.0143499
877.326	0.0145490
877.405	0.0144454
877.483	0.0143717
877.561	0.0143673
877.639	0.0144574
877.717	0.0143954
877.795	0.0143279
877.873	0.0142941
877.951	0.0143742
878.030	0.0141872
878.108	0.0143241
878.186	0.0143826
878.264	0.0143385
878.342	0.0143307
878.420	0.0142484
878.498	0.0142885
878.576	0.0143526
878.655	0.0143091
878.733	0.0142837
878.811	0.0144223
878.889	0.0143824
878.967	0.0145010
879.045	0.0143072
879.123	0.0143141
879.201	0.0145070
879.280	0.0144800
879.358	0.0143839
879.436	0.0145461
879.514	0.0145700
879.592	0.0146215
879.670	0.0145738
879.748	0.0146175
879.826	0.0146349
879.905	0.0146352
879.983	0.0146442
880.061	0.0146476
880.139	0.0147266
880.217	0.0144975
880.295	0.0144286
880.373	0.0145489
880.451	0.0144691
880.530	0.0144220
880.608	0.0143442
880.686	0.0143542
880.764	0.0143642
880.842	0.0143514
880.920	0.0141679
880.998	0.0142760
881.076	0.0142977
881.155	0.0144490
881.233	0.0144539
881.311	0.0145454
881.389	0.0144601
881.467	0.0143595
881.545	0.0145879
881.623	0.0145910
881.701	0.0145989
881.780	0.0147487
881.858	0.0146265
881.936	0.0143806
882.014	0.0147546
882.092	0.0147760
882.170	0.0147025
882.248	0.0146391
882.326	0.0146709
882.405	0.0145119
882.483	0.0145947
882.561	0.0145310
882.639	0.0145596
882.717	0.0143724
882.795	0.0143997
882.873	0.0144948
882.951	0.0143414
883.030	0.0144180
883.108	0.0142043
883.186	0.0144095
883.264	0.0143622
883.342	0.0141933
883.420	0.0144253
883.498	0.0143810
883.576	0.0144557
883.655	0.0144974
883.733	0.0144337
883.811	0.0145055
883.889	0.0144567
883.967	0.0145152
884.045	0.0145269
884.123	0.0146012
884.201	0.0147999
884.280	0.0145762
884.358	0.0146651
884.436	0.0147990
884.514	0.0148302
884.592	0.0147912
884.670	0.0148504
884.748	0.0146720
884.826	0.0147070
884.905	0.0147661
884.983	0.0147355
885.061	0.0147386
885.139	0.0143469
885.217	0.0142322
885.295	0.0142030
885.373	0.0142922
885.451	0.0141719
885.530	0.0140086
885.608	0.0139896
885.686	0.0140435
885.764	0.0140139
885.842	0.0139917
885.920	0.0140375
885.998	0.0142529
886.076	0.0141376
886.155	0.0141061
886.233	0.0141983
886.311	0.0144267
886.389	0.0142016
886.467	0.0141197
886.545	0.0142525
886.623	0.0143893
886.701	0.0143456
886.780	0.0145679
886.858	0.0145321
886.936	0.0145797
887.014	0.0146301
887.092	0.0147723
887.170	0.0148958
887.248	0.0149053
887.326	0.0150153
887.405	0.0149634
887.483	0.0149578
887.561	0.0150308
887.639	0.0150129
887.717	0.0149429
887.795	0.0148880
887.873	0.0147906
887.951	0.0146577
888.030	0.0147409
888.108	0.0146255
888.186	0.0146362
888.264	0.0145213
888.342	0.0145946
888.420	0.0147660
888.498	0.0145644
888.576	0.0145498
888.655	0.0145340
888.733	0.0143668
888.811	0.0143121
888.889	0.0142820
888.967	0.0141788
889.045	0.0139762
889.123	0.0138838
889.201	0.0139041
889.280	0.0136687
889.358	0.0137096
889.436	0.0136623
889.514	0.0136876
889.592	0.0137193
889.670	0.0139702
889.748	0.0140203
889.826	0.0141549
889.905	0.0142481
889.983	0.0143327
890.061	0.0145323
890.139	0.0146375
890.217	0.0147073
890.295	0.0145874
890.373	0.0145496
890.451	0.0147640
890.530	0.0145959
890.608	0.0146132
890.686	0.0145773
890.764	0.0144904
890.842	0.0144274
890.920	0.0145067
890.998	0.0145409
891.076	0.0145126
891.155	0.0146781
891.233	0.0148018
891.311	0.0147328
891.389	0.0146435
891.467	0.0147349
891.545	0.0149572
891.623	0.0148370
891.701	0.0148399
891.780	0.0148893
891.858	0.0148111
891.936	0.0146362
892.014	0.0148537
892.092	0.0146569
892.170	0.0146694
892.248	0.0145866
892.326	0.0146240
892.405	0.0145466
892.483	0.0145840
892.561	0.0144354
892.639	0.0143816
892.717	0.0143272
892.795	0.0142648
892.873	0.0142448
892.951	0.0140455
893.030	0.0139813
893.108	0.0139646
893.186	0.0138825
893.264	0.0138504
893.342	0.0138757
893.420	0.0139658
893.498	0.0138692
893.576	0.0139130
893.655	0.0139393
893.733	0.0138615
893.811	0.0140283
893.889	0.0142366
893.967	0.0143146
894.045	0.0145381
894.123	0.0145992
894.201	0.0146759
894.280	0.0148414
894.358	0.0150220
894.436	0.0150594
894.514	0.0148732
894.592	0.0151344
894.670	0.0150575
894.748	0.0149564
894.826	0.0147945
894.905	0.0148042
894.983	0.0148627
895.061	0.0148127
895.139	0.0147079
895.217	0.0145944
895.295	0.0144185
895.373	0.0145224
895.451	0.0144025
895.530	0.0144865
895.608	0.0145126
895.686	0.0144005
895.764	0.0144262
895.842	0.0145697
895.920	0.0146058
895.998	0.0143964
896.076	0.0145348
896.155	0.0147076
896.233	0.0145815
896.311	0.0145856
896.389	0.0145770
896.467	0.0144868
896.545	0.0144878
896.623	0.0145633
896.701	0.0144456
896.780	0.0145264
896.858	0.0145539
896.936	0.0143715
897.014	0.0143090
897.092	0.0146001
897.170	0.0144337
897.248	0.0142840
897.326	0.0143378
897.405	0.0142281
897.483	0.0142908
897.561	0.0143026
897.639	0.0143267
897.717	0.0142118
897.795	0.0142633
897.873	0.0142073
897.951	0.0141817
898.030	0.0141998
898.108	0.0142715
898.186	0.0141880
898.264	0.0143100
898.342	0.0143771
898.420	0.0144353
898.498	0.0144787
898.576	0.0147090
898.655	0.0147419
898.733	0.0147498
898.811	0.0148592
898.889	0.0148586
898.967	0.0148465
899.045	0.0148094
899.123	0.0148695
899.201	0.0148203
899.280	0.0147620
899.358	0.0146568
899.436	0.0146299
899.514	0.0146252
899.592	0.0145612
899.670	0.0143078
899.748	0.0144359
899.826	0.0144928
899.905	0.0145686
899.983	0.0143627
900.061	0.0145959
900.139	0.0145181
900.217	0.0145023
900.295	0.0145628
900.373	0.0145892
900.451	0.0147148
900.530	0.0146756
900.608	0.0146727
900.686	0.0146844
900.764	0.0147186
900.842	0.0146323
900.920	0.0145091
900.998	0.0145161
901.076	0.0145248
901.155	0.0144381
901.233	0.0143450
901.311	0.0143748
901.389	0.0143152
901.467	0.0142125
901.545	0.0141586
901.623	0.0140623
901.701	0.0142825
901.780	0.0140241
901.858	0.0139479
901.936	0.0140836
902.014	0.0141561
902.092	0.0142065
902.170	0.0140965
902.248	0.0141681
902.326	0.0141666
902.405	0.0142535
902.483	0.0143466
902.561	0.0144247
902.639	0.0144090
902.717	0.0144297
902.795	0.0145470
902.873	0.0146711
902.951	0.0145348
903.030	0.0147349
903.108	0.0146890
903.186	0.0148085
903.264	0.0147547
903.342	0.0146881
903.420	0.0148961
903.498	0.0147562
903.576	0.0148268
903.655	0.0147700
903.733	0.0146051
903.811	0.0147713
903.889	0.0145970
903.967	0.0146599
904.045	0.0145583
904.123	0.0145791
904.201	0.0146515
904.280	0.0144994
904.358	0.0145379
904.436	0.0144620
904.514	0.0146130
904.592	0.0144152
904.670	0.0145382
904.748	0.0145119
904.826	0.0145292
904.905	0.0145721
904.983	0.0145509
905.061	0.0145435
905.139	0.0146624
905.217	0.0145831
905.295	0.0145153
905.373	0.0145218
905.451	0.0144497
905.530	0.0145476
905.608	0.0144324
905.686	0.0145038
905.764	0.0143488
905.842	0.0145103
905.920	0.0143632
905.998	0.0142561
906.076	0.0143592
906.155	0.0143092
906.233	0.0142299
906.311	0.0143815
906.389	0.0143348
906.467	0.0142521
906.545	0.0144371
906.623	0.0143310
906.701	0.0142912
906.780	0.0144096
906.858	0.0143732
906.936	0.0144918
907.014	0.0144408
907.092	0.0143906
907.170	0.0143851
907.248	0.0145084
907.326	0.0144180
907.405	0.0145136
907.483	0.0143955
907.561	0.0145224
907.639	0.0143906
907.717	0.0145316
907.795	0.0144325
907.873	0.0145473
907.951	0.0147693
908.030	0.0147205
908.108	0.0147184
908.186	0.0147550
908.264	0.0148943
908.342	0.0148252
908.420	0.0146750
908.498	0.0146992
908.576	0.0147708
908.655	0.0147451
908.733	0.0147994
908.811	0.0147128
908.889	0.0146862
908.967	0.0145451
909.045	0.0145649
909.123	0.0145426
909.201	0.0145673
909.280	0.0144627
909.358	0.0145333
909.436	0.0146604
909.514	0.0144960
909.592	0.0144828
909.670	0.0144788
909.748	0.0145460
909.826	0.0144227
909.905	0.0145063
909.983	0.0143286
910.061	0.0143111
910.139	0.0142172
910.217	0.0143516
910.295	0.0143862
910.373	0.0141506
910.451	0.0141441
910.530	0.0143549
910.608	0.0143298
910.686	0.0142375
910.764	0.0144468
910.842	0.0144825
910.920	0.0144865
910.998	0.0144432
911.076	0.0145348
911.155	0.0144618
911.233	0.0144695
911.311	0.0144961
911.389	0.0144867
911.467	0.0144662
911.545	0.0145432
911.623	0.0144785
911.701	0.0144343
911.780	0.0144005
911.858	0.0145227
911.936	0.0144720
912.014	0.0144839
912.092	0.0144882
912.170	0.0144958
912.248	0.0146652
912.326	0.0145461
912.405	0.0145886
912.483	0.0146297
912.561	0.0146700
912.639	0.0146010
912.717	0.0147099
912.795	0.0147742
912.873	0.0145441
912.951	0.0146581
913.030	0.0145036
913.108	0.0145401
913.186	0.0145061
913.264	0.0146066
913.342	0.0145004
913.420	0.0144197
913.498	0.0144985
913.576	0.0145813
913.655	0.0145125
913.733	0.0145644
913.811	0.0144826
913.889	0.0142168
913.967	0.0144310
914.045	0.0145042
914.123	0.0144175
914.201	0.0144379
914.280	0.0143957
914.358	0.0144539
914.436	0.0143950
914.514	0.0143797
914.592	0.0143948
914.670	0.0144614
914.748	0.0143735
914.826	0.0142517
914.905	0.0143303
914.983	0.0144014
915.061	0.0144000
915.139	0.0142656
915.217	0.0143925
915.295	0.0144250
915.373	0.0145280
915.451	0.0144269
915.530	0.0144234
915.608	0.0144122
915.686	0.0146545
915.764	0.0146127
915.842	0.0147015
915.920	0.0144899
915.998	0.0146812
916.076	0.0146105
916.155	0.0145538
916.233	0.0147011
916.311	0.0145554
916.389	0.0146428
916.467	0.0146735
916.545	0.0146410
916.623	0.0143893
916.701	0.0144875
916.780	0.0144990
916.858	0.0145795
916.936	0.0144320
917.014	0.0145839
917.092	0.0146032
917.170	0.0145409
917.248	0.0144812
917.326	0.0144629
917.405	0.0144649
917.483	0.0144736
917.561	0.0145953
917.639	0.0145921
917.717	0.0145322
917.795	0.0144891
917.873	0.0144267
917.951	0.0144848
918.030	0.0144237
918.108	0.0145087
918.186	0.0144836
918.264	0.0143432
918.342	0.0144412
918.420	0.0143826
918.498	0.0143312
918.576	0.0144195
918.655	0.0144978
918.733	0.0144095
918.811	0.0144833
918.889	0.0144913
918.967	0.0144028
919.045	0.0144354
919.123	0.0143979
919.201	0.0143916
919.280	0.0144176
919.358	0.0142703
919.436	0.0144720
919.514	0.0144604
919.592	0.0145341
919.670	0.0143802
919.748	0.0144543
919.826	0.0145922
919.905	0.0145661
919.983	0.0145949
920.061	0.0147406
920.139	0.0146993
920.217	0.0146902
920.295	0.0146510
920.373	0.0146834
920.451	0.0145515
920.530	0.0146719
920.608	0.0146462
920.686	0.0146463
920.764	0.0146285
920.842	0.0145307
920.920	0.0145707
920.998	0.0146604
921.076	0.0147033
921.155	0.0146328
921.233	0.0145619
921.311	0.0145590
921.389	0.0145478
921.467	0.0146320
921.545	0.0146230
921.623	0.0146928
921.701	0.0147515
921.780	0.0146632
921.858	0.0145487
921.936	0.0147607
922.014	0.0146169
922.092	0.0145714
922.170	0.0146192
922.248	0.0146433
922.326	0.0145066
922.405	0.0145632
922.483	0.0145602
922.561	0.0145412
922.639	0.0145200
922.717	0.0144431
922.795	0.0144522
922.873	0.0145892
922.951	0.0145799
923.030	0.0144900
923.108	0.0144967
923.186	0.0144444
923.264	0.0144886
923.342	0.0143906
923.420	0.0142708
923.498	0.0145441
923.576	0.0142743
923.655	0.0144650
923.733	0.0144579
923.811	0.0143245
923.889	0.0142581
923.967	0.0143076
924.045	0.0144374
924.123	0.0144570
924.201	0.0144945
924.280	0.0142695
924.358	0.0143931
924.436	0.0143999
924.514	0.0143682
924.592	0.0144093
924.670	0.0143364
924.748	0.0145193
924.826	0.0145816
924.905	0.0144963
924.983	0.0145889
925.061	0.0146079
925.139	0.0146767
925.217	0.0146592
925.295	0.0146990
925.373	0.0147909
925.451	0.0147276
925.530	0.0148941
925.608	0.0148447
925.686	0.0147237
925.764	0.0146535
925.842	0.0148409
925.920	0.0147256
925.998	0.0147272
926.076	0.0147837
926.155	0.0147968
926.233	0.0147005
926.311	0.0148514
926.389	0.0145739
926.467	0.0146215
926.545	0.0146282
926.623	0.0146444
926.701	0.0147437
926.780	0.0145089
926.858	0.0145819
926.936	0.0145542
927.014	0.0144263
927.092	0.0145043
927.170	0.0144677
927.248	0.0144279
927.326	0.0145906
927.405	0.0144163
927.483	0.0144762
927.561	0.0145212
927.639	0.0144404
927.717	0.0143906
927.795	0.0144589
927.873	0.0145411
927.951	0.0143781
928.030	0.0143378
928.108	0.0144037
928.186	0.0145644
928.264	0.0144299
928.342	0.0142850
928.420	0.0144707
928.498	0.0143313
928.576	0.0144793
928.655	0.0145319
928.733	0.0145530
928.811	0.0145859
928.889	0.0146745
928.967	0.0147246
929.045	0.0147137
929.123	0.0147446
929.201	0.0147888
929.280	0.0146471
929.358	0.0146928
929.436	0.0147849
929.514	0.0147309
929.592	0.0147865
929.670	0.0149139
929.748	0.0148373
929.826	0.0147190
929.905	0.0146308
929.983	0.0147338
930.061	0.0146950
930.139	0.0147408
930.217	0.0146436
930.295	0.0146302
930.373	0.0146114
930.451	0.0146840
930.530	0.0146014
930.608	0.0145338
930.686	0.0144103
930.764	0.0143619
930.842	0.0144558
930.920	0.0143633
930.998	0.0143653
931.076	0.0144222
931.155	0.0144330
931.233	0.0144429
931.311	0.0143883
931.389	0.0143961
931.467	0.0143680
931.545	0.0142808
931.623	0.0142284
931.701	0.0143149
931.780	0.0142200
931.858	0.0142397
931.936	0.0143630
932.014	0.0142913
932.092	0.0141962
932.170	0.0142981
932.248	0.0142297
932.326	0.0144139
932.405	0.0144072
932.483	0.0143649
932.561	0.0143443
932.639	0.0142966
932.717	0.0144410
932.795	0.0144293
932.873	0.0143736
932.951	0.0144193
933.030	0.0145392
933.108	0.0144320
933.186	0.0144855
933.264	0.0145685
933.342	0.0144931
933.420	0.0145278
933.498	0.0146482
933.576	0.0146261
933.655	0.0145971
933.733	0.0144904
933.811	0.0146812
933.889	0.0146796
933.967	0.0146542
934.045	0.0146828
934.123	0.0147702
934.201	0.0146536
934.280	0.0145449
934.358	0.0148625
934.436	0.0149281
934.514	0.0147697
934.592	0.0147764
934.670	0.0148278
934.748	0.0148506
934.826	0.0148083
934.905	0.0147099
934.983	0.0146955
935.061	0.0145673
935.139	0.0145308
935.217	0.0145993
935.295	0.0147285
935.373	0.0146124
935.451	0.0143610
935.530	0.0143665
935.608	0.0143356
935.686	0.0144288
935.764	0.0144054
935.842	0.0144062
935.920	0.0142851
935.998	0.0143848
936.076	0.0142387
936.155	0.0142274
936.233	0.0141225
936.311	0.0142250
936.389	0.0143372
936.467	0.0142725
936.545	0.0143124
936.623	0.0144411
936.701	0.0143034
936.780	0.0144556
936.858	0.0144362
936.936	0.0144379
937.014	0.0144958
937.092	0.0144195
937.170	0.0144138
937.248	0.0143399
937.326	0.0143243
937.405	0.0144215
937.483	0.0143935
937.561	0.0145597
937.639	0.0146079
937.717	0.0144704
937.795	0.0145769
937.873	0.0144607
937.951	0.0144955
938.030	0.0145386
938.108	0.0145596
938.186	0.0145275
938.264	0.0144530
938.342	0.0145034
938.420	0.0145085
938.498	0.0146143
938.576	0.0146559
938.655	0.0146829
938.733	0.0147234
938.811	0.0146320
938.889	0.0147228
938.967	0.0147946
939.045	0.0146836
939.123	0.0147102
939.201	0.0146268
939.280	0.0147911
939.358	0.0147369
939.436	0.0147751
939.514	0.0146583
939.592	0.0146854
939.670	0.0146806
939.748	0.0146529
939.826	0.0145961
939.905	0.0144859
939.983	0.0146043
940.061	0.0146214
940.139	0.0145634
940.217	0.0145443
940.295	0.0145324
940.373	0.0144115
940.451	0.0143927
940.530	0.0145232
940.608	0.0143520
940.686	0.0142818
940.764	0.0141819
940.842	0.0142513
940.920	0.0143436
940.998	0.0143484
941.076	0.0141981
941.155	0.0141682
941.233	0.0142642
941.311	0.0143083
941.389	0.0141984
941.467	0.0141071
941.545	0.0140729
941.623	0.0142094
941.701	0.0141138
941.780	0.0142711
941.858	0.0143476
941.936	0.0143694
942.014	0.0142465
942.092	0.0143506
942.170	0.0143749
942.248	0.0143896
942.326	0.0144631
942.405	0.0143771
942.483	0.0146275
942.561	0.0146665
942.639	0.0145330
942.717	0.0147327
942.795	0.0148315
942.873	0.0147202
942.951	0.0147165
943.030	0.0147602
943.108	0.0149489
943.186	0.0148670
943.264	0.0148288
943.342	0.0148622
943.420	0.0148627
943.498	0.0150279
943.576	0.0149702
943.655	0.0148785
943.733	0.0148347
943.811	0.0147555
943.889	0.0149129
943.967	0.0147590
944.045	0.0146807
944.123	0.0147311
944.201	0.0145980
944.280	0.0146418
944.358	0.0145284
944.436	0.0146510
944.514	0.0146654
944.592	0.0142974
944.670	0.0144556
944.748	0.0144244
944.826	0.0143797
944.905	0.0143524
944.983	0.0143106
945.061	0.0141003
945.139	0.0141840
945.217	0.0142623
945.295	0.0141113
945.373	0.0141096
945.451	0.0141416
945.530	0.0142018
945.608	0.0142384
945.686	0.0142500
945.764	0.0142956
945.842	0.0143753
945.920	0.0142948
945.998	0.0142676
946.076	0.0144786
946.155	0.0143775
946.233	0.0143495
946.311	0.0143504
946.389	0.0144264
946.467	0.0145592
946.545	0.0145639
946.623	0.0145776
946.701	0.0147397
946.780	0.0146234
946.858	0.0146017
946.936	0.0146971
947.014	0.0145625
947.092	0.0146115
947.170	0.0145904
947.248	0.0146028
947.326	0.0146805
947.405	0.0145647
947.483	0.0146268
947.561	0.0145287
947.639	0.0147042
947.717	0.0145531
947.795	0.0146684
947.873	0.0146268
947.951	0.0145953
948.030	0.0145095
948.108	0.0146057
948.186	0.0145778
948.264	0.0145384
948.342	0.0147100
948.420	0.0146607
948.498	0.0145451
948.576	0.0145390
948.655	0.0147169
948.733	0.0146439
948.811	0.0145563
948.889	0.0146302
948.967	0.0145783
949.045	0.0145410
949.123	0.0145348
949.201	0.0144964
949.280	0.0142877
949.358	0.0145530
949.436	0.0145871
949.514	0.0145409
949.592	0.0145482
949.670	0.0144255
949.748	0.0144048
949.826	0.0143797
949.905	0.0145162
949.983	0.0145233
950.061	0.0145052
950.139	0.0145205
950.217	0.0145159
950.295	0.0145006
950.373	0.0144455
950.451	0.0145262
950.530	0.0145257
950.608	0.0146400
950.686	0.0143858
950.764	0.0145326
950.842	0.0144903
950.920	0.0144144
950.998	0.0144913
951.076	0.0144710
951.155	0.0144041
951.233	0.0144783
951.311	0.0143332
951.389	0.0143810
951.467	0.0144169
951.545	0.0144279
951.623	0.0143548
951.701	0.0144688
951.780	0.0145698
951.858	0.0144441
951.936	0.0144839
952.014	0.0144101
952.092	0.0146835
952.170	0.0146153
952.248	0.0145914
952.326	0.0145650
952.405	0.0145814
952.483	0.0146478
952.561	0.0144739
952.639	0.0146896
952.717	0.0147063
952.795	0.0145625
952.873	0.0145695
952.951	0.0144923
953.030	0.0145127
953.108	0.0145576
953.186	0.0144073
953.264	0.0144711
953.342	0.0144391
953.420	0.0144157
953.498	0.0144978
953.576	0.0144713
953.655	0.0144534
953.733	0.0144345
953.811	0.0144035
953.889	0.0143639
953.967	0.0143826
954.045	0.0144155
954.123	0.0143891
954.201	0.0145237
954.280	0.0144384
954.358	0.0145628
954.436	0.0146691
954.514	0.0144605
954.592	0.0145016
954.670	0.0145027
954.748	0.0145845
954.826	0.0145273
954.905	0.0145403
954.983	0.0144592
955.061	0.0145564
955.139	0.0144997
955.217	0.0143335
955.295	0.0143289
955.373	0.0144083
955.451	0.0143793
955.530	0.0143746
955.608	0.0143507
955.686	0.0144475
955.764	0.0143373
955.842	0.0142844
955.920	0.0144318
955.998	0.0142853
956.076	0.0144058
956.155	0.0144592
956.233	0.0143904
956.311	0.0144876
956.389	0.0145195
956.467	0.0144266
956.545	0.0145851
956.623	0.0145994
956.701	0.0146038
956.780	0.0144804
956.858	0.0145917
956.936	0.0148253
957.014	0.0147200
957.092	0.0145502
957.170	0.0145160
957.248	0.0145425
957.326	0.0144572
957.405	0.0144211
957.483	0.0145472
957.561	0.0145203
957.639	0.0146617
957.717	0.0144423
957.795	0.0143156
957.873	0.0143323
957.951	0.0145399
958.030	0.0143665
958.108	0.0143368
958.186	0.0146137
958.264	0.0144818
958.342	0.0144755
958.420	0.0145361
958.498	0.0144952
958.576	0.0145280
958.655	0.0145287
958.733	0.0144129
958.811	0.0145560
958.889	0.0143391
958.967	0.0144994
959.045	0.0145860
959.123	0.0144363
959.201	0.0143579
959.280	0.0144556
959.358	0.0144229
959.436	0.0145512
959.514	0.0143610
959.592	0.0143486
959.670	0.0145200
959.748	0.0145147
959.826	0.0143076
959.905	0.0143312
