05/20/2022	16:13:21	Ver.	4.1	UNKNOWN
Optical Delay	639.982744	Delta X		0.078125	Sweeps	1	Scan Rate	0/0
Coordinates	Axis 1	NaN	Axis 2	NaN	Axis 3	NaN	Axis 4	NaN	Axis 5	NaN	Axis 6	0.000000
TX Power	0.000000	RX Power	0.000000

639.983	0.0146474
640.061	0.0147081
640.139	0.0147678
640.217	0.0147175
640.295	0.0146935
640.373	0.0145036
640.451	0.0145594
640.530	0.0146757
640.608	0.0145528
640.686	0.0145362
640.764	0.0148239
640.842	0.0147341
640.920	0.0146705
640.998	0.0147115
641.076	0.0146455
641.155	0.0145892
641.233	0.0147485
641.311	0.0147349
641.389	0.0146719
641.467	0.0146899
641.545	0.0146820
641.623	0.0147298
641.701	0.0145496
641.780	0.0146014
641.858	0.0147483
641.936	0.0147437
642.014	0.0146722
642.092	0.0146851
642.170	0.0146104
642.248	0.0147418
642.326	0.0148985
642.405	0.0146603
642.483	0.0146320
642.561	0.0147292
642.639	0.0147406
642.717	0.0146440
642.795	0.0145831
642.873	0.0146017
642.951	0.0146963
643.030	0.0145837
643.108	0.0147059
643.186	0.0147375
643.264	0.0146455
643.342	0.0146128
643.420	0.0146659
643.498	0.0147003
643.576	0.0147617
643.655	0.0147679
643.733	0.0145667
643.811	0.0148305
643.889	0.0147439
643.967	0.0147647
644.045	0.0146070
644.123	0.0146553
644.201	0.0146679
644.280	0.0146636
644.358	0.0147604
644.436	0.0146970
644.514	0.0146391
644.592	0.0145940
644.670	0.0147626
644.748	0.0148597
644.826	0.0146691
644.905	0.0146629
644.983	0.0147696
645.061	0.0147143
645.139	0.0145776
645.217	0.0146182
645.295	0.0146889
645.373	0.0146724
645.451	0.0147128
645.530	0.0144997
645.608	0.0145380
645.686	0.0147669
645.764	0.0146427
645.842	0.0146632
645.920	0.0146518
645.998	0.0146257
646.076	0.0146605
646.155	0.0147227
646.233	0.0147334
646.311	0.0145735
646.389	0.0146574
646.467	0.0146120
646.545	0.0147231
646.623	0.0145679
646.701	0.0145715
646.780	0.0147412
646.858	0.0147219
646.936	0.0147173
647.014	0.0147389
647.092	0.0146028
647.170	0.0147488
647.248	0.0146963
647.326	0.0146914
647.405	0.0146785
647.483	0.0145177
647.561	0.0145572
647.639	0.0146578
647.717	0.0147704
647.795	0.0145921
647.873	0.0146986
647.951	0.0147709
648.030	0.0147086
648.108	0.0146924
648.186	0.0146666
648.264	0.0146239
648.342	0.0147890
648.420	0.0146344
648.498	0.0147060
648.576	0.0146597
648.655	0.0146032
648.733	0.0146165
648.811	0.0147389
648.889	0.0146540
648.967	0.0145033
649.045	0.0146090
649.123	0.0147936
649.201	0.0146235
649.280	0.0146241
649.358	0.0146559
649.436	0.0146864
649.514	0.0145744
649.592	0.0147818
649.670	0.0146670
649.748	0.0145979
649.826	0.0146402
649.905	0.0147302
649.983	0.0146194
650.061	0.0145975
650.139	0.0147398
650.217	0.0146577
650.295	0.0145310
650.373	0.0145316
650.451	0.0146434
650.530	0.0146423
650.608	0.0146209
650.686	0.0147492
650.764	0.0146638
650.842	0.0148406
650.920	0.0146717
650.998	0.0147573
651.076	0.0147066
651.155	0.0146761
651.233	0.0146866
651.311	0.0145222
651.389	0.0146581
651.467	0.0146784
651.545	0.0146004
651.623	0.0147771
651.701	0.0146006
651.780	0.0145456
651.858	0.0147028
651.936	0.0145422
652.014	0.0146078
652.092	0.0147045
652.170	0.0146689
652.248	0.0146660
652.326	0.0146178
652.405	0.0146377
652.483	0.0147312
652.561	0.0147243
652.639	0.0147050
652.717	0.0148070
652.795	0.0146565
652.873	0.0146246
652.951	0.0146977
653.030	0.0147307
653.108	0.0145883
653.186	0.0146613
653.264	0.0146902
653.342	0.0146715
653.420	0.0146828
653.498	0.0145798
653.576	0.0146156
653.655	0.0146415
653.733	0.0145046
653.811	0.0146790
653.889	0.0144381
653.967	0.0145956
654.045	0.0145943
654.123	0.0146420
654.201	0.0147475
654.280	0.0146451
654.358	0.0146007
654.436	0.0147299
654.514	0.0145635
654.592	0.0146117
654.670	0.0145077
654.748	0.0146252
654.826	0.0146780
654.905	0.0146663
654.983	0.0145519
655.061	0.0146832
655.139	0.0145368
655.217	0.0146988
655.295	0.0146554
655.373	0.0145484
655.451	0.0146449
655.530	0.0147074
655.608	0.0145641
655.686	0.0145083
655.764	0.0145357
655.842	0.0145119
655.920	0.0145076
655.998	0.0146527
656.076	0.0146303
656.155	0.0146680
656.233	0.0145900
656.311	0.0145143
656.389	0.0146158
656.467	0.0146552
656.545	0.0146477
656.623	0.0146704
656.701	0.0145321
656.780	0.0146793
656.858	0.0146836
656.936	0.0145966
657.014	0.0146269
657.092	0.0146267
657.170	0.0147289
657.248	0.0146715
657.326	0.0147137
657.405	0.0147496
657.483	0.0147254
657.561	0.0146848
657.639	0.0147063
657.717	0.0145340
657.795	0.0147305
657.873	0.0145872
657.951	0.0146691
658.030	0.0145670
658.108	0.0146716
658.186	0.0146414
658.264	0.0145950
658.342	0.0147062
658.420	0.0147245
658.498	0.0146574
658.576	0.0147508
658.655	0.0146812
658.733	0.0146296
658.811	0.0147002
658.889	0.0144843
658.967	0.0147504
659.045	0.0146352
659.123	0.0146683
659.201	0.0146076
659.280	0.0147101
659.358	0.0147100
659.436	0.0148236
659.514	0.0146598
659.592	0.0146795
659.670	0.0145888
659.748	0.0147204
659.826	0.0146633
659.905	0.0146059
659.983	0.0146523
660.061	0.0147452
660.139	0.0145645
660.217	0.0147354
660.295	0.0147029
660.373	0.0147882
660.451	0.0147752
660.530	0.0146574
660.608	0.0147303
660.686	0.0145804
660.764	0.0147321
660.842	0.0147233
660.920	0.0147025
660.998	0.0147293
661.076	0.0146612
661.155	0.0146597
661.233	0.0146333
661.311	0.0146098
661.389	0.0146399
661.467	0.0145872
661.545	0.0145421
661.623	0.0147321
661.701	0.0147889
661.780	0.0146405
661.858	0.0147014
661.936	0.0147355
662.014	0.0145763
662.092	0.0147332
662.170	0.0147498
662.248	0.0146659
662.326	0.0146778
662.405	0.0146014
662.483	0.0147823
662.561	0.0148378
662.639	0.0147215
662.717	0.0147891
662.795	0.0146643
662.873	0.0147556
662.951	0.0147788
663.030	0.0147549
663.108	0.0146270
663.186	0.0147648
663.264	0.0146894
663.342	0.0148255
663.420	0.0147426
663.498	0.0146526
663.576	0.0146935
663.655	0.0146214
663.733	0.0148547
663.811	0.0147231
663.889	0.0146066
663.967	0.0147147
664.045	0.0148357
664.123	0.0147170
664.201	0.0146882
664.280	0.0147180
664.358	0.0147299
664.436	0.0146895
664.514	0.0146702
664.592	0.0147211
664.670	0.0146038
664.748	0.0147625
664.826	0.0147748
664.905	0.0145917
664.983	0.0146756
665.061	0.0147620
665.139	0.0147668
665.217	0.0146076
665.295	0.0146859
665.373	0.0147835
665.451	0.0148231
665.530	0.0146878
665.608	0.0145705
665.686	0.0146432
665.764	0.0146918
665.842	0.0146577
665.920	0.0147022
665.998	0.0148135
666.076	0.0146152
666.155	0.0146827
666.233	0.0148579
666.311	0.0146822
666.389	0.0147765
666.467	0.0147430
666.545	0.0147175
666.623	0.0146645
666.701	0.0145741
666.780	0.0147671
666.858	0.0148166
666.936	0.0147689
667.014	0.0147515
667.092	0.0146622
667.170	0.0146389
667.248	0.0146124
667.326	0.0146841
667.405	0.0146481
667.483	0.0147018
667.561	0.0147058
667.639	0.0146496
667.717	0.0145694
667.795	0.0146957
667.873	0.0146461
667.951	0.0146479
668.030	0.0147398
668.108	0.0147510
668.186	0.0147495
668.264	0.0147726
668.342	0.0145918
668.420	0.0146004
668.498	0.0145835
668.576	0.0146838
668.655	0.0146712
668.733	0.0145265
668.811	0.0144660
668.889	0.0146198
668.967	0.0145967
669.045	0.0146904
669.123	0.0146314
669.201	0.0145796
669.280	0.0145420
669.358	0.0147304
669.436	0.0147477
669.514	0.0146710
669.592	0.0146774
669.670	0.0148238
669.748	0.0145757
669.826	0.0145656
669.905	0.0147361
669.983	0.0146957
670.061	0.0145938
670.139	0.0147075
670.217	0.0145895
670.295	0.0144716
670.373	0.0146706
670.451	0.0146748
670.530	0.0146204
670.608	0.0146490
670.686	0.0146812
670.764	0.0146870
670.842	0.0146737
670.920	0.0145824
670.998	0.0146732
671.076	0.0145764
671.155	0.0147094
671.233	0.0147782
671.311	0.0146706
671.389	0.0146026
671.467	0.0146354
671.545	0.0146816
671.623	0.0146618
671.701	0.0144717
671.780	0.0147021
671.858	0.0148235
671.936	0.0147270
672.014	0.0145349
672.092	0.0146091
672.170	0.0146609
672.248	0.0146722
672.326	0.0147559
672.405	0.0147382
672.483	0.0145618
672.561	0.0146146
672.639	0.0147269
672.717	0.0147392
672.795	0.0145222
672.873	0.0146786
672.951	0.0146976
673.030	0.0146342
673.108	0.0146196
673.186	0.0146238
673.264	0.0146485
673.342	0.0147663
673.420	0.0146935
673.498	0.0146704
673.576	0.0146613
673.655	0.0146806
673.733	0.0146832
673.811	0.0145954
673.889	0.0146602
673.967	0.0145174
674.045	0.0145300
674.123	0.0146929
674.201	0.0147646
674.280	0.0146951
674.358	0.0147261
674.436	0.0147332
674.514	0.0147719
674.592	0.0147556
674.670	0.0146138
674.748	0.0146134
674.826	0.0145282
674.905	0.0146122
674.983	0.0146033
675.061	0.0146165
675.139	0.0146455
675.217	0.0147034
675.295	0.0146189
675.373	0.0147686
675.451	0.0144371
675.530	0.0145137
675.608	0.0145162
675.686	0.0146052
675.764	0.0146765
675.842	0.0146595
675.920	0.0146667
675.998	0.0145496
676.076	0.0146674
676.155	0.0147171
676.233	0.0147710
676.311	0.0146915
676.389	0.0146645
676.467	0.0147225
676.545	0.0147205
676.623	0.0145484
676.701	0.0146695
676.780	0.0145486
676.858	0.0146270
676.936	0.0146796
677.014	0.0146998
677.092	0.0143741
677.170	0.0145903
677.248	0.0147388
677.326	0.0144529
677.405	0.0145576
677.483	0.0146500
677.561	0.0145920
677.639	0.0146661
677.717	0.0145890
677.795	0.0146275
677.873	0.0146541
677.951	0.0145716
678.030	0.0144534
678.108	0.0146682
678.186	0.0146408
678.264	0.0145399
678.342	0.0146312
678.420	0.0146835
678.498	0.0144732
678.576	0.0144730
678.655	0.0146646
678.733	0.0145786
678.811	0.0146216
678.889	0.0146561
678.967	0.0146949
679.045	0.0144682
679.123	0.0146851
679.201	0.0146291
679.280	0.0145665
679.358	0.0146698
679.436	0.0145547
679.514	0.0145637
679.592	0.0147064
679.670	0.0146329
679.748	0.0146853
679.826	0.0146641
679.905	0.0144530
679.983	0.0145156
680.061	0.0146371
680.139	0.0145339
680.217	0.0145356
680.295	0.0145424
680.373	0.0146107
680.451	0.0145577
680.530	0.0146177
680.608	0.0146298
680.686	0.0145873
680.764	0.0146080
680.842	0.0145139
680.920	0.0146042
680.998	0.0146050
681.076	0.0145037
681.155	0.0145724
681.233	0.0146680
681.311	0.0145222
681.389	0.0145460
681.467	0.0145056
681.545	0.0146654
681.623	0.0146355
681.701	0.0145638
681.780	0.0145649
681.858	0.0146133
681.936	0.0145188
682.014	0.0146724
682.092	0.0146854
682.170	0.0145315
682.248	0.0146811
682.326	0.0146392
682.405	0.0145412
682.483	0.0145364
682.561	0.0146518
682.639	0.0146081
682.717	0.0145339
682.795	0.0146023
682.873	0.0147828
682.951	0.0146088
683.030	0.0146547
683.108	0.0146523
683.186	0.0145305
683.264	0.0145224
683.342	0.0146143
683.420	0.0145740
683.498	0.0144592
683.576	0.0146310
683.655	0.0145569
683.733	0.0144947
683.811	0.0146287
683.889	0.0147116
683.967	0.0145612
684.045	0.0146902
684.123	0.0147076
684.201	0.0146796
684.280	0.0146298
684.358	0.0146362
684.436	0.0146489
684.514	0.0147739
684.592	0.0146252
684.670	0.0148617
684.748	0.0146965
684.826	0.0147165
684.905	0.0147411
684.983	0.0146799
685.061	0.0146113
685.139	0.0148659
685.217	0.0147482
685.295	0.0146422
685.373	0.0148535
685.451	0.0146597
685.530	0.0146404
685.608	0.0147999
685.686	0.0146290
685.764	0.0145757
685.842	0.0145483
685.920	0.0146145
685.998	0.0146437
686.076	0.0145683
686.155	0.0145940
686.233	0.0144212
686.311	0.0143343
686.389	0.0143356
686.467	0.0144871
686.545	0.0144869
686.623	0.0144048
686.701	0.0145575
686.780	0.0145606
686.858	0.0145556
686.936	0.0147182
687.014	0.0147498
687.092	0.0148395
687.170	0.0149144
687.248	0.0148552
687.326	0.0148087
687.405	0.0147319
687.483	0.0147795
687.561	0.0147356
687.639	0.0148566
687.717	0.0147856
687.795	0.0145908
687.873	0.0145383
687.951	0.0146786
688.030	0.0147591
688.108	0.0146864
688.186	0.0145766
688.264	0.0146719
688.342	0.0147850
688.420	0.0148392
688.498	0.0148966
688.576	0.0150251
688.655	0.0149419
688.733	0.0150359
688.811	0.0151521
688.889	0.0151366
688.967	0.0148727
689.045	0.0150468
689.123	0.0149459
689.201	0.0148112
689.280	0.0146003
689.358	0.0145846
689.436	0.0143507
689.514	0.0141851
689.592	0.0141531
689.670	0.0138379
689.748	0.0137225
689.826	0.0137280
689.905	0.0136860
689.983	0.0138807
690.061	0.0139466
690.139	0.0139182
690.217	0.0141397
690.295	0.0142139
690.373	0.0145609
690.451	0.0146574
690.530	0.0145418
690.608	0.0147913
690.686	0.0148325
690.764	0.0150056
690.842	0.0149705
690.920	0.0149419
690.998	0.0148343
691.076	0.0148819
691.155	0.0148700
691.233	0.0149595
691.311	0.0151031
691.389	0.0152224
691.467	0.0151999
691.545	0.0153522
691.623	0.0154732
691.701	0.0155014
691.780	0.0156792
691.858	0.0158208
691.936	0.0157308
692.014	0.0155009
692.092	0.0154305
692.170	0.0153535
692.248	0.0150851
692.326	0.0149743
692.405	0.0148881
692.483	0.0146515
692.561	0.0146088
692.639	0.0146471
692.717	0.0145403
692.795	0.0147526
692.873	0.0148048
692.951	0.0147917
693.030	0.0148467
693.108	0.0147359
693.186	0.0146131
693.264	0.0145183
693.342	0.0141821
693.420	0.0138570
693.498	0.0134748
693.576	0.0131512
693.655	0.0128011
693.733	0.0125659
693.811	0.0120965
693.889	0.0120949
693.967	0.0118102
694.045	0.0117826
694.123	0.0115092
694.201	0.0115762
694.280	0.0119566
694.358	0.0122785
694.436	0.0126128
694.514	0.0129993
694.592	0.0134759
694.670	0.0140032
694.748	0.0147570
694.826	0.0153757
694.905	0.0159998
694.983	0.0168071
695.061	0.0173816
695.139	0.0179745
695.217	0.0184792
695.295	0.0189316
695.373	0.0192714
695.451	0.0196746
695.530	0.0197763
695.608	0.0198066
695.686	0.0196487
695.764	0.0193917
695.842	0.0191481
695.920	0.0187938
695.998	0.0182140
696.076	0.0176187
696.155	0.0168500
696.233	0.0161543
696.311	0.0156715
696.389	0.0149285
696.467	0.0139691
696.545	0.0133501
696.623	0.0127216
696.701	0.0119794
696.780	0.0112766
696.858	0.0107280
696.936	0.0102444
697.014	0.00984398
697.092	0.00965744
697.170	0.00955032
697.248	0.00961624
697.326	0.00994492
697.405	0.0102194
697.483	0.0106284
697.561	0.0110600
697.639	0.0115249
697.717	0.0120101
697.795	0.0123226
697.873	0.0127224
697.951	0.0130357
698.030	0.0132857
698.108	0.0136192
698.186	0.0136153
698.264	0.0135354
698.342	0.0137412
698.420	0.0141357
698.498	0.0144050
698.576	0.0147189
698.655	0.0150234
698.733	0.0154861
698.811	0.0158156
698.889	0.0161443
698.967	0.0168179
699.045	0.0172364
699.123	0.0176785
699.201	0.0181141
699.280	0.0185075
699.358	0.0188790
699.436	0.0190550
699.514	0.0192810
699.592	0.0194160
699.670	0.0195010
699.748	0.0193875
699.826	0.0193051
699.905	0.0191911
699.983	0.0188603
700.061	0.0186226
700.139	0.0183196
700.217	0.0178118
700.295	0.0172730
700.373	0.0170423
700.451	0.0165134
700.530	0.0160480
700.608	0.0154031
700.686	0.0147900
700.764	0.0142447
700.842	0.0136880
700.920	0.0131588
700.998	0.0126759
701.076	0.0120373
701.155	0.0116946
701.233	0.0113442
701.311	0.0110191
701.389	0.0107288
701.467	0.0104297
701.545	0.0104040
701.623	0.0102190
701.701	0.0102318
701.780	0.0102120
701.858	0.0103300
701.936	0.0106777
702.014	0.0106643
702.092	0.0110361
702.170	0.0111736
702.248	0.0115228
702.326	0.0114907
702.405	0.0117208
702.483	0.0118810
702.561	0.0119776
702.639	0.0119543
702.717	0.0120414
702.795	0.0120569
702.873	0.0122776
702.951	0.0123866
703.030	0.0124658
703.108	0.0129124
703.186	0.0133315
703.264	0.0139812
703.342	0.0145579
703.420	0.0153599
703.498	0.0162209
703.576	0.0170592
703.655	0.0180921
703.733	0.0186429
703.811	0.0193629
703.889	0.0199248
703.967	0.0202766
704.045	0.0203923
704.123	0.0205949
704.201	0.0206738
704.280	0.0205643
704.358	0.0203593
704.436	0.0202069
704.514	0.0200136
704.592	0.0197688
704.670	0.0197030
704.748	0.0196251
704.826	0.0194663
704.905	0.0192906
704.983	0.0189190
705.061	0.0187074
705.139	0.0182627
705.217	0.0175613
705.295	0.0168498
705.373	0.0161908
705.451	0.0151895
705.530	0.0141846
705.608	0.0133835
705.686	0.0124464
705.764	0.0116950
705.842	0.0109505
705.920	0.0102951
705.998	0.00975296
706.076	0.00935799
706.155	0.00909683
706.233	0.00896347
706.311	0.00878311
706.389	0.00876198
706.467	0.00902092
706.545	0.00922852
706.623	0.00927269
706.701	0.00957390
706.780	0.00985909
706.858	0.0100198
706.936	0.0103557
707.014	0.0107425
707.092	0.0108331
707.170	0.0112340
707.248	0.0115766
707.326	0.0117645
707.405	0.0121636
707.483	0.0124409
707.561	0.0127225
707.639	0.0132660
707.717	0.0133866
707.795	0.0135778
707.873	0.0137413
707.951	0.0139661
708.030	0.0141124
708.108	0.0144186
708.186	0.0146685
708.264	0.0150083
708.342	0.0152316
708.420	0.0157492
708.498	0.0160308
708.576	0.0164635
708.655	0.0170330
708.733	0.0174689
708.811	0.0181583
708.889	0.0187704
708.967	0.0194559
709.045	0.0198961
709.123	0.0203609
709.201	0.0208665
709.280	0.0210543
709.358	0.0212565
709.436	0.0211724
709.514	0.0210850
709.592	0.0209022
709.670	0.0206877
709.748	0.0203497
709.826	0.0197758
709.905	0.0193362
709.983	0.0189685
710.061	0.0182618
710.139	0.0177017
710.217	0.0173556
710.295	0.0167671
710.373	0.0162676
710.451	0.0159409
710.530	0.0152818
710.608	0.0147743
710.686	0.0141646
710.764	0.0134016
710.842	0.0125865
710.920	0.0117660
710.998	0.0110934
711.076	0.0101449
711.155	0.00942924
711.233	0.00886337
711.311	0.00815956
711.389	0.00784470
711.467	0.00764259
711.545	0.00750259
711.623	0.00750450
711.701	0.00750008
711.780	0.00796577
711.858	0.00842087
711.936	0.00886040
712.014	0.00958038
712.092	0.0102456
712.170	0.0108953
712.248	0.0114906
712.326	0.0120994
712.405	0.0126591
712.483	0.0131697
712.561	0.0138571
712.639	0.0144436
712.717	0.0146731
712.795	0.0151616
712.873	0.0155361
712.951	0.0158580
713.030	0.0159390
713.108	0.0161420
713.186	0.0161308
713.264	0.0160770
713.342	0.0158795
713.420	0.0157877
713.498	0.0157252
713.576	0.0157671
713.655	0.0154894
713.733	0.0152647
713.811	0.0153220
713.889	0.0152957
713.967	0.0154789
714.045	0.0157215
714.123	0.0160838
714.201	0.0166557
714.280	0.0170457
714.358	0.0176541
714.436	0.0181779
714.514	0.0187682
714.592	0.0192161
714.670	0.0196730
714.748	0.0198292
714.826	0.0202323
714.905	0.0201748
714.983	0.0199815
715.061	0.0198473
715.139	0.0193797
715.217	0.0187649
715.295	0.0182460
715.373	0.0176778
715.451	0.0169743
715.530	0.0162981
715.608	0.0156123
715.686	0.0152425
715.764	0.0147672
715.842	0.0143829
715.920	0.0142094
715.998	0.0138261
716.076	0.0134483
716.155	0.0131176
716.233	0.0129317
716.311	0.0126511
716.389	0.0121143
716.467	0.0117612
716.545	0.0113770
716.623	0.0110663
716.701	0.0107206
716.780	0.0103878
716.858	0.0101659
716.936	0.00992081
717.014	0.00986946
717.092	0.00968552
717.170	0.00980545
717.248	0.00994209
717.326	0.0101521
717.405	0.0103983
717.483	0.0108929
717.561	0.0111951
717.639	0.0116321
717.717	0.0120173
717.795	0.0124527
717.873	0.0128342
717.951	0.0133421
718.030	0.0138033
718.108	0.0143520
718.186	0.0149420
718.264	0.0152541
718.342	0.0157749
718.420	0.0163253
718.498	0.0164568
718.576	0.0168596
718.655	0.0169463
718.733	0.0169273
718.811	0.0170081
718.889	0.0169257
718.967	0.0167171
719.045	0.0164333
719.123	0.0159654
719.201	0.0156174
719.280	0.0151128
719.358	0.0147426
719.436	0.0144937
719.514	0.0140399
719.592	0.0140170
719.670	0.0140295
719.748	0.0142401
719.826	0.0144804
719.905	0.0148881
719.983	0.0154331
720.061	0.0158291
720.139	0.0166077
720.217	0.0172275
720.295	0.0176427
720.373	0.0181177
720.451	0.0183882
720.530	0.0184882
720.608	0.0185381
720.686	0.0184414
720.764	0.0182216
720.842	0.0178094
720.920	0.0173417
720.998	0.0170512
721.076	0.0164828
721.155	0.0161816
721.233	0.0157357
721.311	0.0153344
721.389	0.0149682
721.467	0.0146012
721.545	0.0143844
721.623	0.0141781
721.701	0.0141174
721.780	0.0140553
721.858	0.0140723
721.936	0.0136731
722.014	0.0134086
722.092	0.0133898
722.170	0.0132704
722.248	0.0131938
722.326	0.0129020
722.405	0.0126859
722.483	0.0124911
722.561	0.0122137
722.639	0.0121408
722.717	0.0119450
722.795	0.0118914
722.873	0.0117355
722.951	0.0117334
723.030	0.0119271
723.108	0.0120107
723.186	0.0119439
723.264	0.0121312
723.342	0.0125226
723.420	0.0127126
723.498	0.0129709
723.576	0.0133557
723.655	0.0139049
723.733	0.0142026
723.811	0.0146368
723.889	0.0149261
723.967	0.0153003
724.045	0.0155968
724.123	0.0158340
724.201	0.0160436
724.280	0.0161374
724.358	0.0162725
724.436	0.0162483
724.514	0.0161314
724.592	0.0161991
724.670	0.0159202
724.748	0.0157660
724.826	0.0154732
724.905	0.0152525
724.983	0.0148069
725.061	0.0146099
725.139	0.0143281
725.217	0.0143137
725.295	0.0141264
725.373	0.0139307
725.451	0.0140710
725.530	0.0140197
725.608	0.0141909
725.686	0.0145937
725.764	0.0145289
725.842	0.0150139
725.920	0.0151587
725.998	0.0155765
726.076	0.0159335
726.155	0.0161885
726.233	0.0165334
726.311	0.0166711
726.389	0.0170004
726.467	0.0171119
726.545	0.0170660
726.623	0.0171136
726.701	0.0170477
726.780	0.0169077
726.858	0.0166354
726.936	0.0163127
727.014	0.0162211
727.092	0.0156964
727.170	0.0154575
727.248	0.0153036
727.326	0.0148440
727.405	0.0147981
727.483	0.0143771
727.561	0.0141854
727.639	0.0141687
727.717	0.0138966
727.795	0.0138684
727.873	0.0139305
727.951	0.0137643
728.030	0.0136053
728.108	0.0136983
728.186	0.0135691
728.264	0.0133902
728.342	0.0134701
728.420	0.0132646
728.498	0.0130955
728.576	0.0132536
728.655	0.0130315
728.733	0.0129350
728.811	0.0128677
728.889	0.0129361
728.967	0.0131136
729.045	0.0129806
729.123	0.0131652
729.201	0.0131642
729.280	0.0134614
729.358	0.0137076
729.436	0.0141106
729.514	0.0140179
729.592	0.0145531
729.670	0.0148527
729.748	0.0150137
729.826	0.0151239
729.905	0.0153446
729.983	0.0156034
730.061	0.0157313
730.139	0.0157310
730.217	0.0155548
730.295	0.0154510
730.373	0.0153539
730.451	0.0151797
730.530	0.0147580
730.608	0.0147135
730.686	0.0144231
730.764	0.0142640
730.842	0.0142257
730.920	0.0141158
730.998	0.0140433
731.076	0.0141816
731.155	0.0141399
731.233	0.0142147
731.311	0.0145169
731.389	0.0146782
731.467	0.0148033
731.545	0.0148686
731.623	0.0153157
731.701	0.0155038
731.780	0.0157102
731.858	0.0156367
731.936	0.0158038
732.014	0.0159985
732.092	0.0158707
732.170	0.0157631
732.248	0.0156098
732.326	0.0156072
732.405	0.0154100
732.483	0.0153145
732.561	0.0150462
732.639	0.0149176
732.717	0.0147578
732.795	0.0145380
732.873	0.0142950
732.951	0.0141582
733.030	0.0140436
733.108	0.0140319
733.186	0.0138745
733.264	0.0138652
733.342	0.0139335
733.420	0.0138908
733.498	0.0140145
733.576	0.0139198
733.655	0.0142265
733.733	0.0142574
733.811	0.0145273
733.889	0.0146124
733.967	0.0146870
734.045	0.0147597
734.123	0.0150705
734.201	0.0150383
734.280	0.0150164
734.358	0.0148523
734.436	0.0148031
734.514	0.0145840
734.592	0.0145542
734.670	0.0144165
734.748	0.0141045
734.826	0.0138775
734.905	0.0138860
734.983	0.0136938
735.061	0.0136907
735.139	0.0136614
735.217	0.0139884
735.295	0.0140322
735.373	0.0142795
735.451	0.0143011
735.530	0.0144380
735.608	0.0145881
735.686	0.0147182
735.764	0.0147111
735.842	0.0148661
735.920	0.0150169
735.998	0.0149444
736.076	0.0149541
736.155	0.0148777
736.233	0.0149093
736.311	0.0147220
736.389	0.0146722
736.467	0.0147387
736.545	0.0148546
736.623	0.0148235
736.701	0.0146275
736.780	0.0145966
736.858	0.0145821
736.936	0.0147334
737.014	0.0146300
737.092	0.0148174
737.170	0.0147462
737.248	0.0146442
737.326	0.0145609
737.405	0.0148723
737.483	0.0146777
737.561	0.0147361
737.639	0.0147327
737.717	0.0146143
737.795	0.0147890
737.873	0.0147947
737.951	0.0146330
738.030	0.0145699
738.108	0.0143969
738.186	0.0145131
738.264	0.0144884
738.342	0.0143697
738.420	0.0143379
738.498	0.0142705
738.576	0.0142867
738.655	0.0142941
738.733	0.0142379
738.811	0.0142086
738.889	0.0143835
738.967	0.0142622
739.045	0.0143444
739.123	0.0144211
739.201	0.0142922
739.280	0.0143918
739.358	0.0143596
739.436	0.0144653
739.514	0.0144785
739.592	0.0146504
739.670	0.0147453
739.748	0.0149080
739.826	0.0149181
739.905	0.0150828
739.983	0.0149848
740.061	0.0151733
740.139	0.0149615
740.217	0.0151034
740.295	0.0152306
740.373	0.0152022
740.451	0.0150360
740.530	0.0150693
740.608	0.0150976
740.686	0.0148116
740.764	0.0147050
740.842	0.0146230
740.920	0.0144025
740.998	0.0143090
741.076	0.0142531
741.155	0.0141869
741.233	0.0140815
741.311	0.0141201
741.389	0.0139940
741.467	0.0140982
741.545	0.0142822
741.623	0.0142897
741.701	0.0143242
741.780	0.0147560
741.858	0.0147871
741.936	0.0147772
742.014	0.0147668
742.092	0.0150415
742.170	0.0149490
742.248	0.0149461
742.326	0.0150902
742.405	0.0149010
742.483	0.0150882
742.561	0.0151237
742.639	0.0149527
742.717	0.0148735
742.795	0.0148238
742.873	0.0147569
742.951	0.0147344
743.030	0.0145440
743.108	0.0144190
743.186	0.0144205
743.264	0.0144844
743.342	0.0142278
743.420	0.0143303
743.498	0.0142324
743.576	0.0141948
743.655	0.0141737
743.733	0.0139246
743.811	0.0141408
743.889	0.0142488
743.967	0.0142876
744.045	0.0144248
744.123	0.0144510
744.201	0.0144578
744.280	0.0145195
744.358	0.0145788
744.436	0.0147758
744.514	0.0147844
744.592	0.0146868
744.670	0.0147977
744.748	0.0148575
744.826	0.0149585
744.905	0.0149767
744.983	0.0151318
745.061	0.0151533
745.139	0.0152916
745.217	0.0152356
745.295	0.0151079
745.373	0.0152021
745.451	0.0152547
745.530	0.0152721
745.608	0.0150335
745.686	0.0149569
745.764	0.0150727
745.842	0.0147769
745.920	0.0147194
745.998	0.0147362
746.076	0.0145258
746.155	0.0145216
746.233	0.0143413
746.311	0.0142342
746.389	0.0142139
746.467	0.0141051
746.545	0.0140667
746.623	0.0142102
746.701	0.0141230
746.780	0.0139513
746.858	0.0140482
746.936	0.0141663
747.014	0.0142910
747.092	0.0142778
747.170	0.0146124
747.248	0.0147079
747.326	0.0147710
747.405	0.0148203
747.483	0.0150411
747.561	0.0150202
747.639	0.0150594
747.717	0.0153519
747.795	0.0152362
747.873	0.0151643
747.951	0.0151266
748.030	0.0150882
748.108	0.0150542
748.186	0.0150140
748.264	0.0150259
748.342	0.0147873
748.420	0.0147250
748.498	0.0147738
748.576	0.0147456
748.655	0.0147028
748.733	0.0146506
748.811	0.0144594
748.889	0.0145039
748.967	0.0144675
749.045	0.0143745
749.123	0.0143042
749.201	0.0143533
749.280	0.0143274
749.358	0.0144084
749.436	0.0143401
749.514	0.0144260
749.592	0.0145621
749.670	0.0146872
749.748	0.0148100
749.826	0.0149619
749.905	0.0149328
749.983	0.0151156
750.061	0.0150954
750.139	0.0152241
750.217	0.0150976
750.295	0.0150820
750.373	0.0150388
750.451	0.0150266
750.530	0.0149419
750.608	0.0147866
750.686	0.0146760
750.764	0.0147396
750.842	0.0146784
750.920	0.0145414
750.998	0.0145595
751.076	0.0144739
751.155	0.0146257
751.233	0.0144957
751.311	0.0143296
751.389	0.0143238
751.467	0.0142054
751.545	0.0143439
751.623	0.0143497
751.701	0.0142363
751.780	0.0142539
751.858	0.0143953
751.936	0.0144901
752.014	0.0143401
752.092	0.0145136
752.170	0.0144651
752.248	0.0146112
752.326	0.0147279
752.405	0.0147670
752.483	0.0149193
752.561	0.0148737
752.639	0.0150774
752.717	0.0149541
752.795	0.0149155
752.873	0.0149454
752.951	0.0149499
753.030	0.0149290
753.108	0.0147769
753.186	0.0145958
753.264	0.0146883
753.342	0.0146704
753.420	0.0145692
753.498	0.0145084
753.576	0.0143038
753.655	0.0142590
753.733	0.0143245
753.811	0.0142928
753.889	0.0144223
753.967	0.0142239
754.045	0.0142921
754.123	0.0144650
754.201	0.0143349
754.280	0.0143694
754.358	0.0143596
754.436	0.0145968
754.514	0.0145807
754.592	0.0145579
754.670	0.0145917
754.748	0.0146564
754.826	0.0148374
754.905	0.0146677
754.983	0.0148653
755.061	0.0149249
755.139	0.0146796
755.217	0.0147442
755.295	0.0149348
755.373	0.0148677
755.451	0.0146449
755.530	0.0146746
755.608	0.0147527
755.686	0.0147971
755.764	0.0147297
755.842	0.0146663
755.920	0.0145554
755.998	0.0146217
756.076	0.0147828
756.155	0.0147057
756.233	0.0147314
756.311	0.0148199
756.389	0.0147411
756.467	0.0147968
756.545	0.0149146
756.623	0.0150840
756.701	0.0150233
756.780	0.0149864
756.858	0.0149588
756.936	0.0149709
757.014	0.0148928
757.092	0.0147008
757.170	0.0147211
757.248	0.0146970
757.326	0.0145680
757.405	0.0145700
757.483	0.0146527
757.561	0.0145801
757.639	0.0146431
757.717	0.0145271
757.795	0.0145483
757.873	0.0145944
757.951	0.0147614
758.030	0.0147256
758.108	0.0146523
758.186	0.0145318
758.264	0.0146622
758.342	0.0145947
758.420	0.0145950
758.498	0.0145235
758.576	0.0145056
758.655	0.0143888
758.733	0.0143072
758.811	0.0143529
758.889	0.0143720
758.967	0.0142458
759.045	0.0143350
759.123	0.0143333
759.201	0.0143353
759.280	0.0145019
759.358	0.0143124
759.436	0.0144640
759.514	0.0144236
759.592	0.0143914
759.670	0.0143784
759.748	0.0144975
759.826	0.0144998
759.905	0.0145088
759.983	0.0146353
760.061	0.0145680
760.139	0.0144517
760.217	0.0146573
760.295	0.0147601
760.373	0.0147044
760.451	0.0147384
760.530	0.0146849
760.608	0.0147610
760.686	0.0147345
760.764	0.0147128
760.842	0.0148723
760.920	0.0144812
760.998	0.0147287
761.076	0.0146825
761.155	0.0145958
761.233	0.0146829
761.311	0.0147028
761.389	0.0144511
761.467	0.0145421
761.545	0.0145150
761.623	0.0145217
761.701	0.0145502
761.780	0.0145567
761.858	0.0145253
761.936	0.0145216
762.014	0.0145774
762.092	0.0145126
762.170	0.0144524
762.248	0.0145623
762.326	0.0146629
762.405	0.0146116
762.483	0.0147935
762.561	0.0147021
762.639	0.0147443
762.717	0.0148909
762.795	0.0148812
762.873	0.0148148
762.951	0.0147132
763.030	0.0147832
763.108	0.0148367
763.186	0.0147257
763.264	0.0147279
763.342	0.0146224
763.420	0.0147280
763.498	0.0146165
763.576	0.0146696
763.655	0.0146466
763.733	0.0144833
763.811	0.0144638
763.889	0.0146473
763.967	0.0146706
764.045	0.0147157
764.123	0.0146789
764.201	0.0147285
764.280	0.0146698
764.358	0.0146957
764.436	0.0147076
764.514	0.0146597
764.592	0.0146992
764.670	0.0145687
764.748	0.0145135
764.826	0.0144656
764.905	0.0145218
764.983	0.0143503
765.061	0.0142346
765.139	0.0143501
765.217	0.0142799
765.295	0.0142790
765.373	0.0142305
765.451	0.0141898
765.530	0.0142089
765.608	0.0143494
765.686	0.0142390
765.764	0.0142876
765.842	0.0144065
765.920	0.0145372
765.998	0.0144450
766.076	0.0144881
766.155	0.0145504
766.233	0.0145615
766.311	0.0148266
766.389	0.0146326
766.467	0.0145647
766.545	0.0146340
766.623	0.0145544
766.701	0.0148022
766.780	0.0147357
766.858	0.0148005
766.936	0.0147034
767.014	0.0147286
767.092	0.0147888
767.170	0.0147755
767.248	0.0147964
767.326	0.0147479
767.405	0.0147929
767.483	0.0147171
767.561	0.0146526
767.639	0.0145846
767.717	0.0146114
767.795	0.0146055
767.873	0.0145175
767.951	0.0145985
768.030	0.0147552
768.108	0.0145911
768.186	0.0145765
768.264	0.0146855
768.342	0.0145109
768.420	0.0145664
768.498	0.0147665
768.576	0.0147093
768.655	0.0147496
768.733	0.0147843
768.811	0.0147157
768.889	0.0147951
768.967	0.0147291
769.045	0.0147704
769.123	0.0146691
769.201	0.0146191
769.280	0.0146262
769.358	0.0146004
769.436	0.0146767
769.514	0.0145464
769.592	0.0145592
769.670	0.0144698
769.748	0.0144983
769.826	0.0146206
769.905	0.0144270
769.983	0.0142861
770.061	0.0142605
770.139	0.0144123
770.217	0.0142906
770.295	0.0143847
770.373	0.0144714
770.451	0.0145230
770.530	0.0145985
770.608	0.0146353
770.686	0.0146944
770.764	0.0146026
770.842	0.0145650
770.920	0.0146806
770.998	0.0148461
771.076	0.0148560
771.155	0.0149789
771.233	0.0148180
771.311	0.0149441
771.389	0.0148948
771.467	0.0150298
771.545	0.0147890
771.623	0.0148577
771.701	0.0149891
771.780	0.0149098
771.858	0.0148186
771.936	0.0146874
772.014	0.0148540
772.092	0.0148774
772.170	0.0148297
772.248	0.0147519
772.326	0.0148032
772.405	0.0148865
772.483	0.0146632
772.561	0.0145636
772.639	0.0145188
772.717	0.0145492
772.795	0.0145583
772.873	0.0144791
772.951	0.0144175
773.030	0.0142798
773.108	0.0142131
773.186	0.0143931
773.264	0.0143021
773.342	0.0142789
773.420	0.0143650
773.498	0.0143449
773.576	0.0145780
773.655	0.0146172
773.733	0.0145878
773.811	0.0146841
773.889	0.0147248
773.967	0.0147921
774.045	0.0149474
774.123	0.0148375
774.201	0.0149010
774.280	0.0150693
774.358	0.0149037
774.436	0.0149503
774.514	0.0149674
774.592	0.0149185
774.670	0.0147279
774.748	0.0147030
774.826	0.0148617
774.905	0.0147796
774.983	0.0146677
775.061	0.0145238
775.139	0.0145401
775.217	0.0145112
775.295	0.0145382
775.373	0.0144949
775.451	0.0145128
775.530	0.0145140
775.608	0.0144870
775.686	0.0144955
775.764	0.0144059
775.842	0.0143600
775.920	0.0144959
775.998	0.0144472
776.076	0.0144348
776.155	0.0145847
776.233	0.0145133
776.311	0.0146729
776.389	0.0147248
776.467	0.0146392
776.545	0.0148331
776.623	0.0147859
776.701	0.0149224
776.780	0.0148481
776.858	0.0149204
776.936	0.0146962
777.014	0.0146911
777.092	0.0146393
777.170	0.0148157
777.248	0.0148478
777.326	0.0146984
777.405	0.0147121
777.483	0.0146929
777.561	0.0146147
777.639	0.0146458
777.717	0.0144646
777.795	0.0144393
777.873	0.0145482
777.951	0.0145939
778.030	0.0144852
778.108	0.0144582
778.186	0.0145824
778.264	0.0146040
778.342	0.0144868
778.420	0.0146490
778.498	0.0146349
778.576	0.0145865
778.655	0.0146846
778.733	0.0146776
778.811	0.0145522
778.889	0.0146304
778.967	0.0146310
779.045	0.0147581
779.123	0.0147907
779.201	0.0147398
779.280	0.0146558
779.358	0.0146212
779.436	0.0146044
779.514	0.0147514
779.592	0.0145995
779.670	0.0147460
779.748	0.0148283
779.826	0.0145487
779.905	0.0146058
779.983	0.0147197
780.061	0.0146455
780.139	0.0147987
780.217	0.0147871
780.295	0.0146088
780.373	0.0146589
780.451	0.0146211
780.530	0.0145419
780.608	0.0145704
780.686	0.0146249
780.764	0.0146958
780.842	0.0145040
780.920	0.0143674
780.998	0.0144562
781.076	0.0145173
781.155	0.0144708
781.233	0.0143803
781.311	0.0145108
781.389	0.0144357
781.467	0.0145475
781.545	0.0146652
781.623	0.0146304
781.701	0.0146936
781.780	0.0147816
781.858	0.0148515
781.936	0.0147964
782.014	0.0149284
782.092	0.0149657
782.170	0.0149274
782.248	0.0149086
782.326	0.0148064
782.405	0.0146465
782.483	0.0148846
782.561	0.0147028
782.639	0.0147623
782.717	0.0145603
782.795	0.0146874
782.873	0.0145621
782.951	0.0145232
783.030	0.0145047
783.108	0.0143960
783.186	0.0144490
783.264	0.0144759
783.342	0.0144579
783.420	0.0146200
783.498	0.0145528
783.576	0.0143627
783.655	0.0143546
783.733	0.0145423
783.811	0.0144422
783.889	0.0145218
783.967	0.0144477
784.045	0.0145164
784.123	0.0146124
784.201	0.0147076
784.280	0.0146085
784.358	0.0145672
784.436	0.0145372
784.514	0.0147404
784.592	0.0148447
784.670	0.0147425
784.748	0.0147475
784.826	0.0147449
784.905	0.0146581
784.983	0.0146396
785.061	0.0146899
785.139	0.0146877
785.217	0.0147393
785.295	0.0147100
785.373	0.0147211
785.451	0.0148077
785.530	0.0147755
785.608	0.0146842
785.686	0.0145482
785.764	0.0146756
785.842	0.0146877
785.920	0.0144895
785.998	0.0146024
786.076	0.0145031
786.155	0.0146246
786.233	0.0144971
786.311	0.0144482
786.389	0.0144728
786.467	0.0144035
786.545	0.0144302
786.623	0.0146127
786.701	0.0146218
786.780	0.0144460
786.858	0.0145781
786.936	0.0147157
787.014	0.0146883
787.092	0.0146227
787.170	0.0147328
787.248	0.0147284
787.326	0.0147166
787.405	0.0147586
787.483	0.0146861
787.561	0.0146315
787.639	0.0147787
787.717	0.0146484
787.795	0.0146210
787.873	0.0146101
787.951	0.0147593
788.030	0.0146172
788.108	0.0146799
788.186	0.0148047
788.264	0.0146187
788.342	0.0146726
788.420	0.0147827
788.498	0.0148302
788.576	0.0146331
788.655	0.0146992
788.733	0.0146894
788.811	0.0146849
788.889	0.0147849
788.967	0.0148030
789.045	0.0147919
789.123	0.0148055
789.201	0.0147139
789.280	0.0145868
789.358	0.0147305
789.436	0.0145974
789.514	0.0146445
789.592	0.0148209
789.670	0.0145896
789.748	0.0146162
789.826	0.0145844
789.905	0.0144007
789.983	0.0145776
790.061	0.0144380
790.139	0.0145893
790.217	0.0146123
790.295	0.0144149
790.373	0.0145609
790.451	0.0146169
790.530	0.0144759
790.608	0.0142879
790.686	0.0143516
790.764	0.0143654
790.842	0.0143607
790.920	0.0144139
790.998	0.0145047
791.076	0.0144594
791.155	0.0144027
791.233	0.0144036
791.311	0.0143970
791.389	0.0145579
791.467	0.0145718
791.545	0.0147556
791.623	0.0147163
791.701	0.0146992
791.780	0.0148615
791.858	0.0148389
791.936	0.0150646
792.014	0.0152321
792.092	0.0150658
792.170	0.0151294
792.248	0.0151516
792.326	0.0152181
792.405	0.0151361
792.483	0.0151637
792.561	0.0150816
792.639	0.0150161
792.717	0.0150852
792.795	0.0150233
792.873	0.0147982
792.951	0.0147676
793.030	0.0147867
793.108	0.0146152
793.186	0.0145793
793.264	0.0144492
793.342	0.0143713
793.420	0.0142808
793.498	0.0143317
793.576	0.0142826
793.655	0.0142830
793.733	0.0140906
793.811	0.0142127
793.889	0.0141373
793.967	0.0141104
794.045	0.0140626
794.123	0.0139479
794.201	0.0141152
794.280	0.0141836
794.358	0.0143581
794.436	0.0141612
794.514	0.0142622
794.592	0.0144765
794.670	0.0144939
794.748	0.0144214
794.826	0.0146432
794.905	0.0147363
794.983	0.0146250
795.061	0.0148525
795.139	0.0149282
795.217	0.0150535
795.295	0.0149180
795.373	0.0150903
795.451	0.0151402
795.530	0.0150321
795.608	0.0151407
795.686	0.0151615
795.764	0.0151994
795.842	0.0151715
795.920	0.0150979
795.998	0.0151848
796.076	0.0152066
796.155	0.0151611
796.233	0.0152192
796.311	0.0152489
796.389	0.0152621
796.467	0.0153106
796.545	0.0151607
796.623	0.0152889
796.701	0.0151160
796.780	0.0151082
796.858	0.0151491
796.936	0.0148716
797.014	0.0148342
797.092	0.0149484
797.170	0.0148324
797.248	0.0147036
797.326	0.0145779
797.405	0.0143804
797.483	0.0143928
797.561	0.0142322
797.639	0.0143403
797.717	0.0142149
797.795	0.0140882
797.873	0.0140166
797.951	0.0140159
798.030	0.0140789
798.108	0.0139769
798.186	0.0141656
798.264	0.0140856
798.342	0.0140243
798.420	0.0142213
798.498	0.0142496
798.576	0.0139861
798.655	0.0142228
798.733	0.0141552
798.811	0.0142258
798.889	0.0141956
798.967	0.0141820
799.045	0.0142312
799.123	0.0141736
799.201	0.0142538
799.280	0.0143948
799.358	0.0144393
799.436	0.0145060
799.514	0.0145747
799.592	0.0146198
799.670	0.0146851
799.748	0.0147076
799.826	0.0147049
799.905	0.0148029
799.983	0.0147941
800.061	0.0149564
800.139	0.0151044
800.217	0.0151793
800.295	0.0151496
800.373	0.0151894
800.451	0.0154005
800.530	0.0154166
800.608	0.0154048
800.686	0.0153362
800.764	0.0154037
800.842	0.0155699
800.920	0.0155740
800.998	0.0155499
801.076	0.0154662
801.155	0.0155771
801.233	0.0157727
801.311	0.0156312
801.389	0.0155940
801.467	0.0155070
801.545	0.0152727
801.623	0.0152382
801.701	0.0151142
801.780	0.0151182
801.858	0.0149120
801.936	0.0148404
802.014	0.0146172
802.092	0.0145045
802.170	0.0143537
802.248	0.0142909
802.326	0.0141763
802.405	0.0140631
802.483	0.0141216
802.561	0.0138815
802.639	0.0137502
802.717	0.0137911
802.795	0.0139079
802.873	0.0138461
802.951	0.0138322
803.030	0.0137939
803.108	0.0136920
803.186	0.0138091
803.264	0.0137358
803.342	0.0138538
803.420	0.0139719
803.498	0.0140628
803.576	0.0140953
803.655	0.0141585
803.733	0.0142343
803.811	0.0142580
803.889	0.0142876
803.967	0.0144493
804.045	0.0143856
804.123	0.0143173
804.201	0.0144241
804.280	0.0146425
804.358	0.0145474
804.436	0.0145710
804.514	0.0146612
804.592	0.0147456
804.670	0.0146896
804.748	0.0147577
804.826	0.0148672
804.905	0.0148689
804.983	0.0151826
805.061	0.0150885
805.139	0.0152080
805.217	0.0154222
805.295	0.0151621
805.373	0.0153663
805.451	0.0153944
805.530	0.0154635
805.608	0.0154557
805.686	0.0154227
805.764	0.0156458
805.842	0.0155074
805.920	0.0155484
805.998	0.0155643
806.076	0.0154474
806.155	0.0154915
806.233	0.0153540
806.311	0.0154554
806.389	0.0152613
806.467	0.0152081
806.545	0.0154154
806.623	0.0152782
806.701	0.0151737
806.780	0.0151679
806.858	0.0149579
806.936	0.0148656
807.014	0.0147989
807.092	0.0146520
807.170	0.0145606
807.248	0.0144834
807.326	0.0140901
807.405	0.0140820
807.483	0.0141730
807.561	0.0140211
807.639	0.0139446
807.717	0.0138499
807.795	0.0137867
807.873	0.0136593
807.951	0.0135822
808.030	0.0134313
808.108	0.0136063
808.186	0.0135532
808.264	0.0135708
808.342	0.0135970
808.420	0.0137845
808.498	0.0137101
808.576	0.0138195
808.655	0.0138034
808.733	0.0137605
808.811	0.0141163
808.889	0.0141714
808.967	0.0141669
809.045	0.0142619
809.123	0.0144439
809.201	0.0144382
809.280	0.0144733
809.358	0.0145972
809.436	0.0146509
809.514	0.0147786
809.592	0.0148612
809.670	0.0147827
809.748	0.0148239
809.826	0.0148312
809.905	0.0149586
809.983	0.0149281
810.061	0.0150291
810.139	0.0150049
810.217	0.0150815
810.295	0.0149531
810.373	0.0150887
810.451	0.0150795
810.530	0.0151166
810.608	0.0151187
810.686	0.0151241
810.764	0.0152547
810.842	0.0152214
810.920	0.0154017
810.998	0.0152866
811.076	0.0152509
811.155	0.0153404
811.233	0.0154557
811.311	0.0153034
811.389	0.0153306
811.467	0.0153426
811.545	0.0153490
811.623	0.0151838
811.701	0.0152538
811.780	0.0153046
811.858	0.0152893
811.936	0.0151575
812.014	0.0150549
812.092	0.0152104
812.170	0.0152158
812.248	0.0149569
812.326	0.0147969
812.405	0.0148073
812.483	0.0146649
812.561	0.0146463
812.639	0.0144637
812.717	0.0144274
812.795	0.0143430
812.873	0.0142735
812.951	0.0141746
813.030	0.0140552
813.108	0.0139148
813.186	0.0139801
813.264	0.0140009
813.342	0.0139459
813.420	0.0137370
813.498	0.0137879
813.576	0.0136606
813.655	0.0138878
813.733	0.0138371
813.811	0.0137321
813.889	0.0138520
813.967	0.0138230
814.045	0.0138916
814.123	0.0139140
814.201	0.0140192
814.280	0.0140244
814.358	0.0141624
814.436	0.0140673
814.514	0.0141711
814.592	0.0143264
814.670	0.0144267
814.748	0.0145701
814.826	0.0144946
814.905	0.0146197
814.983	0.0146340
815.061	0.0147343
815.139	0.0148784
815.217	0.0148096
815.295	0.0147750
815.373	0.0148910
815.451	0.0147496
815.530	0.0148032
815.608	0.0149457
815.686	0.0148100
815.764	0.0150040
815.842	0.0150238
815.920	0.0151146
815.998	0.0149934
816.076	0.0150930
816.155	0.0151839
816.233	0.0151145
816.311	0.0150938
816.389	0.0151944
816.467	0.0151717
816.545	0.0154072
816.623	0.0153294
816.701	0.0152430
816.780	0.0154239
816.858	0.0154179
816.936	0.0152319
817.014	0.0152156
817.092	0.0152866
817.170	0.0152869
817.248	0.0153111
817.326	0.0152740
817.405	0.0151468
817.483	0.0151458
817.561	0.0151408
817.639	0.0151513
817.717	0.0149966
817.795	0.0148608
817.873	0.0148795
817.951	0.0148826
818.030	0.0148798
818.108	0.0146351
818.186	0.0145671
818.264	0.0145515
818.342	0.0144816
818.420	0.0143529
818.498	0.0143018
818.576	0.0144331
818.655	0.0142549
818.733	0.0142482
818.811	0.0142002
818.889	0.0141193
818.967	0.0140634
819.045	0.0140808
819.123	0.0138766
819.201	0.0138992
819.280	0.0139764
819.358	0.0138968
819.436	0.0139409
819.514	0.0140376
819.592	0.0139130
819.670	0.0140215
819.748	0.0141451
819.826	0.0140305
819.905	0.0141860
819.983	0.0142676
820.061	0.0143410
820.139	0.0143535
820.217	0.0144551
820.295	0.0144244
820.373	0.0145636
820.451	0.0145818
820.530	0.0146114
820.608	0.0147422
820.686	0.0147765
820.764	0.0147573
820.842	0.0148673
820.920	0.0148936
820.998	0.0149754
821.076	0.0149651
821.155	0.0149682
821.233	0.0148905
821.311	0.0151605
821.389	0.0150999
821.467	0.0150300
821.545	0.0150298
821.623	0.0151637
821.701	0.0150363
821.780	0.0150671
821.858	0.0151978
821.936	0.0150468
822.014	0.0151077
822.092	0.0150679
822.170	0.0149889
822.248	0.0149929
822.326	0.0148567
822.405	0.0149094
822.483	0.0149679
822.561	0.0149732
822.639	0.0149542
822.717	0.0149551
822.795	0.0149111
822.873	0.0148955
822.951	0.0149048
823.030	0.0147659
823.108	0.0148348
823.186	0.0147433
823.264	0.0146775
823.342	0.0148264
823.420	0.0148598
823.498	0.0147816
823.576	0.0146577
823.655	0.0146625
823.733	0.0146355
823.811	0.0146703
823.889	0.0146918
823.967	0.0146804
824.045	0.0144550
824.123	0.0145402
824.201	0.0144863
824.280	0.0145547
824.358	0.0145432
824.436	0.0144744
824.514	0.0144069
824.592	0.0144312
824.670	0.0144451
824.748	0.0144780
824.826	0.0143505
824.905	0.0143256
824.983	0.0144883
825.061	0.0145862
825.139	0.0144243
825.217	0.0143296
825.295	0.0143819
825.373	0.0144338
825.451	0.0143547
825.530	0.0143282
825.608	0.0144979
825.686	0.0143395
825.764	0.0145128
825.842	0.0144199
825.920	0.0142783
825.998	0.0144070
826.076	0.0144612
826.155	0.0145288
826.233	0.0145983
826.311	0.0145428
826.389	0.0145901
826.467	0.0146222
826.545	0.0145939
826.623	0.0145757
826.701	0.0146396
826.780	0.0146523
826.858	0.0147689
826.936	0.0146304
827.014	0.0147947
827.092	0.0148622
827.170	0.0148788
827.248	0.0147731
827.326	0.0147946
827.405	0.0148208
827.483	0.0148967
827.561	0.0148560
827.639	0.0147147
827.717	0.0150388
827.795	0.0149135
827.873	0.0149181
827.951	0.0149326
828.030	0.0150378
828.108	0.0148356
828.186	0.0149676
828.264	0.0148421
828.342	0.0147704
828.420	0.0148295
828.498	0.0148564
828.576	0.0147022
828.655	0.0145903
828.733	0.0147845
828.811	0.0146855
828.889	0.0145096
828.967	0.0145232
829.045	0.0145896
829.123	0.0146369
829.201	0.0145102
829.280	0.0146091
829.358	0.0146215
829.436	0.0145120
829.514	0.0146444
829.592	0.0145986
829.670	0.0148554
829.748	0.0147890
829.826	0.0146270
829.905	0.0146844
829.983	0.0145699
830.061	0.0146959
830.139	0.0146362
830.217	0.0145628
830.295	0.0147350
830.373	0.0147139
830.451	0.0145908
830.530	0.0145243
830.608	0.0145566
830.686	0.0143848
830.764	0.0144904
830.842	0.0144835
830.920	0.0144055
830.998	0.0144396
831.076	0.0143028
831.155	0.0143349
831.233	0.0143892
831.311	0.0142941
831.389	0.0143645
831.467	0.0143655
831.545	0.0143761
831.623	0.0143443
831.701	0.0144601
831.780	0.0144517
831.858	0.0144499
831.936	0.0145788
832.014	0.0146653
832.092	0.0145817
832.170	0.0146262
832.248	0.0147375
832.326	0.0147545
832.405	0.0147948
832.483	0.0146192
832.561	0.0146920
832.639	0.0147794
832.717	0.0146615
832.795	0.0147041
832.873	0.0146784
832.951	0.0147488
833.030	0.0146873
833.108	0.0148501
833.186	0.0148054
833.264	0.0145858
833.342	0.0147951
833.420	0.0147155
833.498	0.0147336
833.576	0.0147603
833.655	0.0147118
833.733	0.0147841
833.811	0.0147995
833.889	0.0147608
833.967	0.0147135
834.045	0.0146980
834.123	0.0147362
834.201	0.0146848
834.280	0.0147195
834.358	0.0146236
834.436	0.0146166
834.514	0.0147385
834.592	0.0145847
834.670	0.0145300
834.748	0.0145300
834.826	0.0144949
834.905	0.0146503
834.983	0.0145148
835.061	0.0148532
835.139	0.0145627
835.217	0.0146049
835.295	0.0143967
835.373	0.0146643
835.451	0.0147321
835.530	0.0146612
835.608	0.0146974
835.686	0.0146016
835.764	0.0145415
835.842	0.0146165
835.920	0.0145548
835.998	0.0144893
836.076	0.0145326
836.155	0.0144226
836.233	0.0146210
836.311	0.0145745
836.389	0.0146301
836.467	0.0144476
836.545	0.0145590
836.623	0.0145078
836.701	0.0144141
836.780	0.0144875
836.858	0.0145052
836.936	0.0146838
837.014	0.0146417
837.092	0.0146331
837.170	0.0145837
837.248	0.0145004
837.326	0.0146342
837.405	0.0144984
837.483	0.0143972
837.561	0.0145737
837.639	0.0145137
837.717	0.0144680
837.795	0.0147244
837.873	0.0147850
837.951	0.0146253
838.030	0.0146320
838.108	0.0145141
838.186	0.0145564
838.264	0.0146294
838.342	0.0147186
838.420	0.0146069
838.498	0.0146841
838.576	0.0146967
838.655	0.0144691
838.733	0.0145243
838.811	0.0144694
838.889	0.0145287
838.967	0.0146372
839.045	0.0145777
839.123	0.0146094
839.201	0.0146462
839.280	0.0146089
839.358	0.0145384
839.436	0.0145526
839.514	0.0144762
839.592	0.0145322
839.670	0.0146573
839.748	0.0145952
839.826	0.0146771
839.905	0.0146168
839.983	0.0145194
840.061	0.0144783
840.139	0.0146059
840.217	0.0145299
840.295	0.0145710
840.373	0.0145687
840.451	0.0146989
840.530	0.0147121
840.608	0.0147240
840.686	0.0148009
840.764	0.0146694
840.842	0.0147118
840.920	0.0146680
840.998	0.0146637
841.076	0.0146860
841.155	0.0147031
841.233	0.0146779
841.311	0.0146112
841.389	0.0145248
841.467	0.0147088
841.545	0.0146116
841.623	0.0146173
841.701	0.0145825
841.780	0.0147042
841.858	0.0147644
841.936	0.0146091
842.014	0.0146924
842.092	0.0146655
842.170	0.0147474
842.248	0.0146333
842.326	0.0146021
842.405	0.0146045
842.483	0.0145924
842.561	0.0146214
842.639	0.0147401
842.717	0.0146647
842.795	0.0147901
842.873	0.0147058
842.951	0.0146930
843.030	0.0147084
843.108	0.0147480
843.186	0.0147950
843.264	0.0147435
843.342	0.0147832
843.420	0.0148026
843.498	0.0146268
843.576	0.0145999
843.655	0.0145959
843.733	0.0145436
843.811	0.0146085
843.889	0.0145505
843.967	0.0144804
844.045	0.0144979
844.123	0.0146233
844.201	0.0145685
844.280	0.0144917
844.358	0.0143174
844.436	0.0144879
844.514	0.0144302
844.592	0.0144336
844.670	0.0146332
844.748	0.0145225
844.826	0.0144340
844.905	0.0144418
844.983	0.0145319
845.061	0.0145036
845.139	0.0145080
845.217	0.0145883
845.295	0.0145277
845.373	0.0147055
845.451	0.0146758
845.530	0.0146348
845.608	0.0145798
845.686	0.0146210
845.764	0.0147388
845.842	0.0146296
845.920	0.0147221
845.998	0.0147626
846.076	0.0148026
846.155	0.0148330
846.233	0.0147242
846.311	0.0148483
846.389	0.0148140
846.467	0.0148586
846.545	0.0148120
846.623	0.0147687
846.701	0.0150653
846.780	0.0149647
846.858	0.0147801
846.936	0.0148309
847.014	0.0149157
847.092	0.0149842
847.170	0.0148635
847.248	0.0148219
847.326	0.0149476
847.405	0.0149058
847.483	0.0150214
847.561	0.0148075
847.639	0.0146436
847.717	0.0146183
847.795	0.0147923
847.873	0.0148293
847.951	0.0147463
848.030	0.0146886
848.108	0.0147660
848.186	0.0147427
848.264	0.0147326
848.342	0.0147463
848.420	0.0146994
848.498	0.0148299
848.576	0.0146993
848.655	0.0146786
848.733	0.0147903
848.811	0.0148273
848.889	0.0146150
848.967	0.0147218
849.045	0.0146502
849.123	0.0146603
849.201	0.0146132
849.280	0.0144951
849.358	0.0145785
849.436	0.0146826
849.514	0.0144160
849.592	0.0143368
849.670	0.0144563
849.748	0.0144099
849.826	0.0143869
849.905	0.0142731
849.983	0.0142336
850.061	0.0144278
850.139	0.0143768
850.217	0.0145049
850.295	0.0144334
850.373	0.0145112
850.451	0.0146331
850.530	0.0143850
850.608	0.0144393
850.686	0.0144975
850.764	0.0144764
850.842	0.0145864
850.920	0.0146704
850.998	0.0146600
851.076	0.0147024
851.155	0.0146822
851.233	0.0148352
851.311	0.0149032
851.389	0.0148118
851.467	0.0148013
851.545	0.0149098
851.623	0.0148005
851.701	0.0150056
851.780	0.0148094
851.858	0.0149413
851.936	0.0149194
852.014	0.0149192
852.092	0.0148998
852.170	0.0148917
852.248	0.0148544
852.326	0.0150092
852.405	0.0149580
852.483	0.0148776
852.561	0.0150932
852.639	0.0150450
852.717	0.0148734
852.795	0.0148591
852.873	0.0147945
852.951	0.0149198
853.030	0.0147675
853.108	0.0148671
853.186	0.0148646
853.264	0.0147909
853.342	0.0147600
853.420	0.0146278
853.498	0.0147942
853.576	0.0145587
853.655	0.0147151
853.733	0.0146828
853.811	0.0144324
853.889	0.0145675
853.967	0.0146790
854.045	0.0146240
854.123	0.0145351
854.201	0.0145277
854.280	0.0144367
854.358	0.0143810
854.436	0.0142629
854.514	0.0144270
854.592	0.0143779
854.670	0.0144123
854.748	0.0145842
854.826	0.0144193
854.905	0.0142127
854.983	0.0142706
855.061	0.0142859
855.139	0.0143415
855.217	0.0144091
855.295	0.0144464
855.373	0.0144247
855.451	0.0144977
855.530	0.0145790
855.608	0.0145429
855.686	0.0145370
855.764	0.0147157
855.842	0.0146072
855.920	0.0144646
855.998	0.0145683
856.076	0.0145030
856.155	0.0146199
856.233	0.0147371
856.311	0.0147276
856.389	0.0146904
856.467	0.0145834
856.545	0.0147104
856.623	0.0145853
856.701	0.0146866
856.780	0.0147319
856.858	0.0148109
856.936	0.0147261
857.014	0.0146630
857.092	0.0148029
857.170	0.0147842
857.248	0.0147253
857.326	0.0147227
857.405	0.0148991
857.483	0.0146354
857.561	0.0147530
857.639	0.0146872
857.717	0.0146850
857.795	0.0148293
857.873	0.0147315
857.951	0.0146748
858.030	0.0145321
858.108	0.0148570
858.186	0.0148077
858.264	0.0146191
858.342	0.0146527
858.420	0.0145892
858.498	0.0144910
858.576	0.0145702
858.655	0.0146950
858.733	0.0146398
858.811	0.0147161
858.889	0.0146813
858.967	0.0145659
859.045	0.0146416
859.123	0.0145995
859.201	0.0147228
859.280	0.0145546
859.358	0.0146523
859.436	0.0146716
859.514	0.0148059
859.592	0.0146790
859.670	0.0145335
859.748	0.0146805
859.826	0.0147834
859.905	0.0144682
859.983	0.0145690
860.061	0.0146675
860.139	0.0146500
860.217	0.0145191
860.295	0.0144494
860.373	0.0144574
860.451	0.0145082
860.530	0.0145598
860.608	0.0144556
860.686	0.0145211
860.764	0.0142774
860.842	0.0142992
860.920	0.0143691
860.998	0.0143241
861.076	0.0143620
861.155	0.0143397
861.233	0.0143926
861.311	0.0143468
861.389	0.0143237
861.467	0.0142844
861.545	0.0143531
861.623	0.0145255
861.701	0.0144270
861.780	0.0144968
861.858	0.0144428
861.936	0.0144114
862.014	0.0145370
862.092	0.0146584
862.170	0.0144168
862.248	0.0145166
862.326	0.0146746
862.405	0.0146077
862.483	0.0146970
862.561	0.0145609
862.639	0.0145338
862.717	0.0146186
862.795	0.0146990
862.873	0.0147623
862.951	0.0146982
863.030	0.0147164
863.108	0.0148999
863.186	0.0147755
863.264	0.0147783
863.342	0.0149268
863.420	0.0148448
863.498	0.0148586
863.576	0.0146719
863.655	0.0148729
863.733	0.0148019
863.811	0.0148674
863.889	0.0148019
863.967	0.0147854
864.045	0.0148775
864.123	0.0146465
864.201	0.0147932
864.280	0.0146405
864.358	0.0148281
864.436	0.0146785
864.514	0.0145775
864.592	0.0146754
864.670	0.0145731
864.748	0.0147684
864.826	0.0146281
864.905	0.0146555
864.983	0.0146347
865.061	0.0147033
865.139	0.0145750
865.217	0.0145045
865.295	0.0144468
865.373	0.0145499
865.451	0.0147025
865.530	0.0144582
865.608	0.0144540
865.686	0.0144808
865.764	0.0145340
865.842	0.0144253
865.920	0.0144864
865.998	0.0144628
866.076	0.0143558
866.155	0.0143668
866.233	0.0145090
866.311	0.0143503
866.389	0.0143565
866.467	0.0142412
866.545	0.0144365
866.623	0.0143787
866.701	0.0144174
866.780	0.0145480
866.858	0.0146289
866.936	0.0145503
867.014	0.0145261
867.092	0.0146304
867.170	0.0145839
867.248	0.0147594
867.326	0.0146235
867.405	0.0146120
867.483	0.0146777
867.561	0.0146255
867.639	0.0147443
867.717	0.0146460
867.795	0.0145669
867.873	0.0146293
867.951	0.0147392
868.030	0.0147592
868.108	0.0148129
868.186	0.0146758
868.264	0.0147291
868.342	0.0147284
868.420	0.0147460
868.498	0.0146350
868.576	0.0147527
868.655	0.0147147
868.733	0.0146870
868.811	0.0146633
868.889	0.0147738
868.967	0.0148085
869.045	0.0146062
869.123	0.0148283
869.201	0.0146830
869.280	0.0146150
869.358	0.0146503
869.436	0.0147384
869.514	0.0147832
869.592	0.0147490
869.670	0.0147739
869.748	0.0144907
869.826	0.0145753
869.905	0.0148306
869.983	0.0148084
870.061	0.0147873
870.139	0.0146674
870.217	0.0146758
870.295	0.0148842
870.373	0.0147722
870.451	0.0147947
870.530	0.0147331
870.608	0.0147586
870.686	0.0146286
870.764	0.0146313
870.842	0.0145145
870.920	0.0146815
870.998	0.0145712
871.076	0.0145340
871.155	0.0145766
871.233	0.0145807
871.311	0.0144987
871.389	0.0144704
871.467	0.0145415
871.545	0.0145314
871.623	0.0145796
871.701	0.0146485
871.780	0.0145410
871.858	0.0145056
871.936	0.0145676
872.014	0.0146934
872.092	0.0145390
872.170	0.0146007
872.248	0.0146069
872.326	0.0146827
872.405	0.0146287
872.483	0.0146685
872.561	0.0146703
872.639	0.0147083
872.717	0.0146332
872.795	0.0147121
872.873	0.0146751
872.951	0.0147103
873.030	0.0147987
873.108	0.0146391
873.186	0.0146734
873.264	0.0145541
873.342	0.0145560
873.420	0.0147096
873.498	0.0143954
873.576	0.0144901
873.655	0.0145210
873.733	0.0145701
873.811	0.0146590
873.889	0.0145348
873.967	0.0145466
874.045	0.0147022
874.123	0.0146352
874.201	0.0146788
874.280	0.0145460
874.358	0.0146977
874.436	0.0147678
874.514	0.0146976
874.592	0.0147363
874.670	0.0147089
874.748	0.0149854
874.826	0.0147411
874.905	0.0147021
874.983	0.0147247
875.061	0.0147829
875.139	0.0148661
875.217	0.0149181
875.295	0.0146891
875.373	0.0146611
875.451	0.0146108
875.530	0.0146946
875.608	0.0145684
875.686	0.0146249
875.764	0.0147388
875.842	0.0145638
875.920	0.0146049
875.998	0.0146655
876.076	0.0146466
876.155	0.0145523
876.233	0.0146424
876.311	0.0146571
876.389	0.0146440
876.467	0.0146503
876.545	0.0145424
876.623	0.0145309
876.701	0.0144708
876.780	0.0145840
876.858	0.0145634
876.936	0.0146072
877.014	0.0147309
877.092	0.0146544
877.170	0.0146239
877.248	0.0147816
877.326	0.0146964
877.405	0.0146973
877.483	0.0146385
877.561	0.0147074
877.639	0.0146716
877.717	0.0147570
877.795	0.0146957
877.873	0.0146483
877.951	0.0147361
878.030	0.0146519
878.108	0.0146619
878.186	0.0146131
878.264	0.0145753
878.342	0.0145849
878.420	0.0147083
878.498	0.0145956
878.576	0.0146384
878.655	0.0146519
878.733	0.0145974
878.811	0.0144020
878.889	0.0145199
878.967	0.0146265
879.045	0.0144839
879.123	0.0146593
879.201	0.0146272
879.280	0.0146793
879.358	0.0146299
879.436	0.0146230
879.514	0.0145882
879.592	0.0146686
879.670	0.0146693
879.748	0.0147153
879.826	0.0146877
879.905	0.0147022
879.983	0.0148960
880.061	0.0148117
880.139	0.0147057
880.217	0.0147002
880.295	0.0147164
880.373	0.0147942
880.451	0.0147208
880.530	0.0148872
880.608	0.0148838
880.686	0.0148386
880.764	0.0147373
880.842	0.0148040
880.920	0.0146758
880.998	0.0147172
881.076	0.0147397
881.155	0.0146736
881.233	0.0145949
881.311	0.0146766
881.389	0.0144806
881.467	0.0145627
881.545	0.0146219
881.623	0.0145011
881.701	0.0144775
881.780	0.0144324
881.858	0.0145491
881.936	0.0145872
882.014	0.0146690
882.092	0.0146020
882.170	0.0146758
882.248	0.0146475
882.326	0.0145274
882.405	0.0146409
882.483	0.0146416
882.561	0.0147562
882.639	0.0146115
882.717	0.0146734
882.795	0.0146613
882.873	0.0144318
882.951	0.0146407
883.030	0.0148623
883.108	0.0146786
883.186	0.0147399
883.264	0.0147451
883.342	0.0147449
883.420	0.0147681
883.498	0.0147218
883.576	0.0146999
883.655	0.0146120
883.733	0.0147316
883.811	0.0145788
883.889	0.0146178
883.967	0.0145470
884.045	0.0144061
884.123	0.0143832
884.201	0.0145140
884.280	0.0144767
884.358	0.0145168
884.436	0.0145517
884.514	0.0145464
884.592	0.0144912
884.670	0.0145670
884.748	0.0147562
884.826	0.0145647
884.905	0.0147663
884.983	0.0147222
885.061	0.0146674
885.139	0.0145107
885.217	0.0145975
885.295	0.0146690
885.373	0.0146838
885.451	0.0146214
885.530	0.0146716
885.608	0.0145131
885.686	0.0146503
885.764	0.0146535
885.842	0.0147188
885.920	0.0147792
885.998	0.0146178
886.076	0.0147980
886.155	0.0146453
886.233	0.0147184
886.311	0.0148766
886.389	0.0148587
886.467	0.0147649
886.545	0.0146854
886.623	0.0147084
886.701	0.0148858
886.780	0.0149151
886.858	0.0148497
886.936	0.0149146
887.014	0.0147434
887.092	0.0149089
887.170	0.0148428
887.248	0.0149564
887.326	0.0148743
887.405	0.0148553
887.483	0.0148745
887.561	0.0146512
887.639	0.0146181
887.717	0.0145763
887.795	0.0146509
887.873	0.0145053
887.951	0.0146996
888.030	0.0145397
888.108	0.0145412
888.186	0.0144106
888.264	0.0144583
888.342	0.0144073
888.420	0.0144330
888.498	0.0143901
888.576	0.0145201
888.655	0.0144815
888.733	0.0141732
888.811	0.0141426
888.889	0.0144255
888.967	0.0143412
889.045	0.0144092
889.123	0.0142402
889.201	0.0143314
889.280	0.0145364
889.358	0.0145770
889.436	0.0144724
889.514	0.0146716
889.592	0.0147034
889.670	0.0145774
889.748	0.0145078
889.826	0.0144930
889.905	0.0145817
889.983	0.0146925
890.061	0.0145986
890.139	0.0146052
890.217	0.0145771
890.295	0.0146600
890.373	0.0147498
890.451	0.0147082
890.530	0.0147440
890.608	0.0147311
890.686	0.0146780
890.764	0.0148216
890.842	0.0148631
890.920	0.0147749
890.998	0.0148879
891.076	0.0148552
891.155	0.0148779
891.233	0.0149315
891.311	0.0148515
891.389	0.0148767
891.467	0.0148283
891.545	0.0147723
891.623	0.0149255
891.701	0.0149342
891.780	0.0150609
891.858	0.0150137
891.936	0.0147881
892.014	0.0148067
892.092	0.0147636
892.170	0.0147980
892.248	0.0147406
892.326	0.0146543
892.405	0.0145614
892.483	0.0145049
892.561	0.0145465
892.639	0.0144286
892.717	0.0145390
892.795	0.0145340
892.873	0.0143717
892.951	0.0143092
893.030	0.0143518
893.108	0.0145028
893.186	0.0144359
893.264	0.0145118
893.342	0.0142706
893.420	0.0144413
893.498	0.0144718
893.576	0.0144167
893.655	0.0146580
893.733	0.0146728
893.811	0.0147277
893.889	0.0145488
893.967	0.0145167
894.045	0.0145007
894.123	0.0146892
894.201	0.0146412
894.280	0.0146866
894.358	0.0146152
894.436	0.0145094
894.514	0.0145822
894.592	0.0144989
894.670	0.0146664
894.748	0.0145184
894.826	0.0145353
894.905	0.0145697
894.983	0.0146156
895.061	0.0147047
895.139	0.0147556
895.217	0.0147933
895.295	0.0147745
895.373	0.0148447
895.451	0.0148634
895.530	0.0150012
895.608	0.0149320
895.686	0.0149208
895.764	0.0149073
895.842	0.0149360
895.920	0.0148178
895.998	0.0148428
896.076	0.0147368
896.155	0.0146516
896.233	0.0147318
896.311	0.0147261
896.389	0.0148558
896.467	0.0147785
896.545	0.0148354
896.623	0.0147304
896.701	0.0147612
896.780	0.0149869
896.858	0.0148634
896.936	0.0149329
897.014	0.0148575
897.092	0.0146741
897.170	0.0147216
897.248	0.0146336
897.326	0.0144987
897.405	0.0146377
897.483	0.0145160
897.561	0.0145184
897.639	0.0142195
897.717	0.0142770
897.795	0.0142771
897.873	0.0143039
897.951	0.0143986
898.030	0.0144616
898.108	0.0144113
898.186	0.0144177
898.264	0.0145898
898.342	0.0147562
898.420	0.0147721
898.498	0.0148088
898.576	0.0147900
898.655	0.0149845
898.733	0.0148724
898.811	0.0148301
898.889	0.0148659
898.967	0.0148828
899.045	0.0148277
899.123	0.0148878
899.201	0.0148508
899.280	0.0148122
899.358	0.0149070
899.436	0.0148539
899.514	0.0147958
899.592	0.0146989
899.670	0.0146172
899.748	0.0146442
899.826	0.0146622
899.905	0.0146495
899.983	0.0145757
900.061	0.0145049
900.139	0.0146011
900.217	0.0146906
900.295	0.0145682
900.373	0.0146611
900.451	0.0145029
900.530	0.0145069
900.608	0.0146356
900.686	0.0145563
900.764	0.0145373
900.842	0.0147053
900.920	0.0147100
900.998	0.0147701
901.076	0.0145813
901.155	0.0146385
901.233	0.0146016
901.311	0.0146490
901.389	0.0146442
901.467	0.0145625
901.545	0.0145177
901.623	0.0144265
901.701	0.0144485
901.780	0.0144344
901.858	0.0145192
901.936	0.0144585
902.014	0.0144535
902.092	0.0144768
902.170	0.0145273
902.248	0.0146248
902.326	0.0145783
902.405	0.0145164
902.483	0.0146342
902.561	0.0144996
902.639	0.0147057
902.717	0.0146656
902.795	0.0147153
902.873	0.0146526
902.951	0.0147568
903.030	0.0146564
903.108	0.0146329
903.186	0.0146835
903.264	0.0145881
903.342	0.0146762
903.420	0.0147087
903.498	0.0148542
903.576	0.0147621
903.655	0.0148482
903.733	0.0148248
903.811	0.0149461
903.889	0.0151188
903.967	0.0149969
904.045	0.0149840
904.123	0.0150282
904.201	0.0150329
904.280	0.0150335
904.358	0.0150079
904.436	0.0148064
904.514	0.0147193
904.592	0.0145098
904.670	0.0148012
904.748	0.0146414
904.826	0.0145502
904.905	0.0144351
904.983	0.0144335
905.061	0.0144054
905.139	0.0142363
905.217	0.0143293
905.295	0.0142161
905.373	0.0142789
905.451	0.0140714
905.530	0.0141270
905.608	0.0142088
905.686	0.0142310
905.764	0.0142203
905.842	0.0142585
905.920	0.0143999
905.998	0.0145238
906.076	0.0145090
906.155	0.0145513
906.233	0.0146055
906.311	0.0146712
906.389	0.0147346
906.467	0.0149092
906.545	0.0149757
906.623	0.0149241
906.701	0.0148058
906.780	0.0148830
906.858	0.0149583
906.936	0.0149229
907.014	0.0149692
907.092	0.0148409
907.170	0.0148502
907.248	0.0147672
907.326	0.0148007
907.405	0.0149445
907.483	0.0147976
907.561	0.0149268
907.639	0.0148424
907.717	0.0148834
907.795	0.0148696
907.873	0.0147826
907.951	0.0149552
908.030	0.0150126
908.108	0.0149420
908.186	0.0148267
908.264	0.0147136
908.342	0.0148931
908.420	0.0148519
908.498	0.0146856
908.576	0.0146035
908.655	0.0146525
908.733	0.0146468
908.811	0.0145963
908.889	0.0148795
908.967	0.0145529
909.045	0.0145687
909.123	0.0145449
909.201	0.0145734
909.280	0.0145440
909.358	0.0146886
909.436	0.0145445
909.514	0.0146421
909.592	0.0147289
909.670	0.0146480
909.748	0.0148577
909.826	0.0148293
909.905	0.0145622
909.983	0.0146651
910.061	0.0146888
910.139	0.0148027
910.217	0.0148086
910.295	0.0147606
910.373	0.0144575
910.451	0.0146489
910.530	0.0147784
910.608	0.0145178
910.686	0.0146140
910.764	0.0145265
910.842	0.0144802
910.920	0.0143214
910.998	0.0143807
911.076	0.0143672
911.155	0.0144890
911.233	0.0145154
911.311	0.0144266
911.389	0.0144949
911.467	0.0144097
911.545	0.0144076
911.623	0.0144849
911.701	0.0148931
911.780	0.0147927
911.858	0.0146639
911.936	0.0147282
912.014	0.0148714
912.092	0.0149005
912.170	0.0148537
912.248	0.0148489
912.326	0.0148637
912.405	0.0149123
912.483	0.0148702
912.561	0.0146686
912.639	0.0148461
912.717	0.0146641
912.795	0.0147020
912.873	0.0148175
912.951	0.0146317
913.030	0.0146385
913.108	0.0145469
913.186	0.0146577
913.264	0.0145804
913.342	0.0146359
913.420	0.0147294
913.498	0.0147601
913.576	0.0148210
913.655	0.0148204
913.733	0.0147074
913.811	0.0148143
913.889	0.0146371
913.967	0.0147395
914.045	0.0147682
914.123	0.0147498
914.201	0.0147655
914.280	0.0147342
914.358	0.0147529
914.436	0.0144556
914.514	0.0146337
914.592	0.0146178
914.670	0.0144398
914.748	0.0145100
914.826	0.0146142
914.905	0.0146249
914.983	0.0146101
915.061	0.0146304
915.139	0.0146814
915.217	0.0146211
915.295	0.0148229
915.373	0.0148831
915.451	0.0147351
915.530	0.0147063
915.608	0.0148341
915.686	0.0147218
915.764	0.0149722
915.842	0.0147386
915.920	0.0147534
915.998	0.0148181
916.076	0.0148869
916.155	0.0146552
916.233	0.0145361
916.311	0.0144813
916.389	0.0146591
916.467	0.0145191
916.545	0.0144085
916.623	0.0144945
916.701	0.0144177
916.780	0.0143080
916.858	0.0142765
916.936	0.0143838
917.014	0.0143616
917.092	0.0143338
917.170	0.0145589
917.248	0.0145006
917.326	0.0144608
917.405	0.0145377
917.483	0.0147276
917.561	0.0146737
917.639	0.0146575
917.717	0.0146935
917.795	0.0147276
917.873	0.0147964
917.951	0.0146548
918.030	0.0146613
918.108	0.0146583
918.186	0.0146228
918.264	0.0148188
918.342	0.0146331
918.420	0.0147147
918.498	0.0145676
918.576	0.0146428
918.655	0.0145813
918.733	0.0146597
918.811	0.0147089
918.889	0.0147529
918.967	0.0147610
919.045	0.0146309
919.123	0.0147096
919.201	0.0147353
919.280	0.0146331
919.358	0.0146674
919.436	0.0146783
919.514	0.0147390
919.592	0.0148425
919.670	0.0148370
919.748	0.0147630
919.826	0.0147209
919.905	0.0147031
919.983	0.0146517
920.061	0.0147196
920.139	0.0147655
920.217	0.0147626
920.295	0.0146190
920.373	0.0144946
920.451	0.0146933
920.530	0.0146453
920.608	0.0145583
920.686	0.0144864
920.764	0.0146794
920.842	0.0147153
920.920	0.0145514
920.998	0.0146266
921.076	0.0146739
921.155	0.0146203
921.233	0.0148061
921.311	0.0147348
921.389	0.0146825
921.467	0.0147832
921.545	0.0147189
921.623	0.0147179
921.701	0.0146571
921.780	0.0146128
921.858	0.0145609
921.936	0.0145341
922.014	0.0146005
922.092	0.0144597
922.170	0.0145987
922.248	0.0145009
922.326	0.0145324
922.405	0.0145554
922.483	0.0144016
922.561	0.0144819
922.639	0.0144073
922.717	0.0146235
922.795	0.0144624
922.873	0.0145641
922.951	0.0145497
923.030	0.0148243
923.108	0.0147079
923.186	0.0146542
923.264	0.0145090
923.342	0.0145850
923.420	0.0147574
923.498	0.0148141
923.576	0.0146170
923.655	0.0149033
923.733	0.0147343
923.811	0.0146095
923.889	0.0147704
923.967	0.0146182
924.045	0.0145065
924.123	0.0145809
924.201	0.0145903
924.280	0.0145676
924.358	0.0146089
924.436	0.0145099
924.514	0.0145004
924.592	0.0145578
924.670	0.0147227
924.748	0.0145702
924.826	0.0146830
924.905	0.0148135
924.983	0.0147977
925.061	0.0148470
925.139	0.0147643
925.217	0.0148312
925.295	0.0148648
925.373	0.0147678
925.451	0.0147521
925.530	0.0147633
925.608	0.0148299
925.686	0.0146762
925.764	0.0147260
925.842	0.0147044
925.920	0.0148035
925.998	0.0146645
926.076	0.0146320
926.155	0.0146422
926.233	0.0146251
926.311	0.0143960
926.389	0.0145622
926.467	0.0145753
926.545	0.0144747
926.623	0.0144242
926.701	0.0144897
926.780	0.0142967
926.858	0.0143863
926.936	0.0145055
927.014	0.0146157
927.092	0.0145882
927.170	0.0144822
927.248	0.0145514
927.326	0.0146317
927.405	0.0145716
927.483	0.0145763
927.561	0.0146273
927.639	0.0147559
927.717	0.0145972
927.795	0.0147128
927.873	0.0145963
927.951	0.0145862
928.030	0.0145541
928.108	0.0146399
928.186	0.0148032
928.264	0.0146151
928.342	0.0146478
928.420	0.0146353
928.498	0.0147739
928.576	0.0148141
928.655	0.0146962
928.733	0.0147551
928.811	0.0148043
928.889	0.0147904
928.967	0.0149467
929.045	0.0146930
929.123	0.0146821
929.201	0.0146754
929.280	0.0147276
929.358	0.0144719
929.436	0.0145191
929.514	0.0146981
929.592	0.0145685
929.670	0.0147723
929.748	0.0146365
929.826	0.0145305
929.905	0.0146033
929.983	0.0146198
930.061	0.0145621
930.139	0.0145464
930.217	0.0145568
930.295	0.0145168
930.373	0.0146076
930.451	0.0148381
930.530	0.0148694
930.608	0.0147044
930.686	0.0146863
930.764	0.0147401
930.842	0.0147454
930.920	0.0147719
930.998	0.0146866
931.076	0.0147474
931.155	0.0148270
931.233	0.0146748
931.311	0.0146146
931.389	0.0147390
931.467	0.0145403
931.545	0.0145932
931.623	0.0147017
931.701	0.0146091
931.780	0.0145181
931.858	0.0145147
931.936	0.0144669
932.014	0.0145206
932.092	0.0145026
932.170	0.0145956
932.248	0.0145243
932.326	0.0144408
932.405	0.0144537
932.483	0.0146013
932.561	0.0145920
932.639	0.0144393
932.717	0.0144721
932.795	0.0146201
932.873	0.0146982
932.951	0.0145351
933.030	0.0145754
933.108	0.0147207
933.186	0.0146886
933.264	0.0145904
933.342	0.0146418
933.420	0.0147476
933.498	0.0146886
933.576	0.0147669
933.655	0.0148734
933.733	0.0148129
933.811	0.0148442
933.889	0.0148760
933.967	0.0147908
934.045	0.0148773
934.123	0.0149870
934.201	0.0149052
934.280	0.0149574
934.358	0.0149307
934.436	0.0148891
934.514	0.0148966
934.592	0.0146903
934.670	0.0147043
934.748	0.0147591
934.826	0.0146964
934.905	0.0147922
934.983	0.0147786
935.061	0.0147600
935.139	0.0146445
935.217	0.0146320
935.295	0.0146499
935.373	0.0145981
935.451	0.0145200
935.530	0.0146091
935.608	0.0146297
935.686	0.0145741
935.764	0.0145708
935.842	0.0146075
935.920	0.0145033
935.998	0.0146135
936.076	0.0145056
936.155	0.0146443
936.233	0.0146092
936.311	0.0145197
936.389	0.0146209
936.467	0.0145805
936.545	0.0145032
936.623	0.0145415
936.701	0.0145417
936.780	0.0145609
936.858	0.0145364
936.936	0.0144983
937.014	0.0143845
937.092	0.0144473
937.170	0.0143955
937.248	0.0144080
937.326	0.0144836
937.405	0.0145189
937.483	0.0144069
937.561	0.0145236
937.639	0.0144383
937.717	0.0144916
937.795	0.0145719
937.873	0.0144579
937.951	0.0144773
938.030	0.0144918
938.108	0.0145160
938.186	0.0146263
938.264	0.0146140
938.342	0.0145909
938.420	0.0146387
938.498	0.0147107
938.576	0.0147955
938.655	0.0148186
938.733	0.0148273
938.811	0.0148621
938.889	0.0149045
938.967	0.0148928
939.045	0.0149328
939.123	0.0149774
939.201	0.0149249
939.280	0.0151410
939.358	0.0150221
939.436	0.0148888
939.514	0.0149090
939.592	0.0150083
939.670	0.0150348
939.748	0.0148463
939.826	0.0146872
939.905	0.0148232
939.983	0.0147473
940.061	0.0146497
940.139	0.0146798
940.217	0.0146402
940.295	0.0145818
940.373	0.0146432
940.451	0.0144224
940.530	0.0143629
940.608	0.0144928
940.686	0.0143497
940.764	0.0144389
940.842	0.0143901
940.920	0.0144810
940.998	0.0144307
941.076	0.0144695
941.155	0.0144691
941.233	0.0144738
941.311	0.0145060
941.389	0.0144006
941.467	0.0145110
941.545	0.0144481
941.623	0.0144550
941.701	0.0145150
941.780	0.0143678
941.858	0.0143442
941.936	0.0145565
942.014	0.0144665
942.092	0.0145689
942.170	0.0145451
942.248	0.0144635
942.326	0.0146884
942.405	0.0145441
942.483	0.0146329
942.561	0.0147375
942.639	0.0145641
942.717	0.0145776
942.795	0.0147520
942.873	0.0146819
942.951	0.0146709
943.030	0.0147852
943.108	0.0149022
943.186	0.0149519
943.264	0.0147256
943.342	0.0147905
943.420	0.0148366
943.498	0.0147818
943.576	0.0148248
943.655	0.0148616
943.733	0.0148102
943.811	0.0149420
943.889	0.0148194
943.967	0.0146653
944.045	0.0147442
944.123	0.0148167
944.201	0.0149361
944.280	0.0148193
944.358	0.0149128
944.436	0.0147717
944.514	0.0146691
944.592	0.0147076
944.670	0.0147814
944.748	0.0147066
944.826	0.0147035
944.905	0.0147157
944.983	0.0146658
945.061	0.0146410
945.139	0.0145679
945.217	0.0145722
945.295	0.0145305
945.373	0.0144957
945.451	0.0143875
945.530	0.0146201
945.608	0.0145413
945.686	0.0145142
945.764	0.0144919
945.842	0.0145711
945.920	0.0145596
945.998	0.0144495
946.076	0.0144160
946.155	0.0144244
946.233	0.0143974
946.311	0.0144941
946.389	0.0146150
946.467	0.0144826
946.545	0.0143836
946.623	0.0143994
946.701	0.0144406
946.780	0.0144807
946.858	0.0143709
946.936	0.0145514
947.014	0.0144162
947.092	0.0145218
947.170	0.0146533
947.248	0.0144938
947.326	0.0144986
947.405	0.0145057
947.483	0.0146965
947.561	0.0145168
947.639	0.0146842
947.717	0.0147697
947.795	0.0147464
947.873	0.0147176
947.951	0.0147813
948.030	0.0149146
948.108	0.0148108
948.186	0.0148563
948.264	0.0149129
948.342	0.0147141
948.420	0.0147336
948.498	0.0148271
948.576	0.0149137
948.655	0.0149192
948.733	0.0148390
948.811	0.0149284
948.889	0.0148491
948.967	0.0148103
949.045	0.0149999
949.123	0.0148842
949.201	0.0148794
949.280	0.0150002
949.358	0.0149738
949.436	0.0148862
949.514	0.0149108
949.592	0.0148666
949.670	0.0147582
949.748	0.0147585
949.826	0.0148946
949.905	0.0147813
949.983	0.0147552
950.061	0.0147705
950.139	0.0146561
950.217	0.0147162
950.295	0.0146560
950.373	0.0145457
950.451	0.0146963
950.530	0.0144598
950.608	0.0144823
950.686	0.0144260
950.764	0.0145753
950.842	0.0145065
950.920	0.0144528
950.998	0.0145348
951.076	0.0144682
951.155	0.0145591
951.233	0.0144605
951.311	0.0144061
951.389	0.0144140
951.467	0.0145015
951.545	0.0143517
951.623	0.0142290
951.701	0.0143874
951.780	0.0144166
951.858	0.0144877
951.936	0.0143681
952.014	0.0144339
952.092	0.0144112
952.170	0.0144297
952.248	0.0143413
952.326	0.0143592
952.405	0.0143826
952.483	0.0144735
952.561	0.0144395
952.639	0.0145366
952.717	0.0144626
952.795	0.0145274
952.873	0.0143919
952.951	0.0145554
953.030	0.0145604
953.108	0.0146272
953.186	0.0147958
953.264	0.0146693
953.342	0.0147068
953.420	0.0147102
953.498	0.0147362
953.576	0.0147719
953.655	0.0148871
953.733	0.0148256
953.811	0.0148325
953.889	0.0148598
953.967	0.0148812
954.045	0.0149443
954.123	0.0149349
954.201	0.0149429
954.280	0.0151645
954.358	0.0149874
954.436	0.0149014
954.514	0.0149737
954.592	0.0148215
954.670	0.0149125
954.748	0.0147630
954.826	0.0147984
954.905	0.0147432
954.983	0.0147438
955.061	0.0148120
955.139	0.0147652
955.217	0.0147521
955.295	0.0145216
955.373	0.0146677
955.451	0.0145525
955.530	0.0146616
955.608	0.0146233
955.686	0.0144718
955.764	0.0144668
955.842	0.0144236
955.920	0.0145736
955.998	0.0145294
956.076	0.0143791
956.155	0.0146051
956.233	0.0146532
956.311	0.0143670
956.389	0.0146172
956.467	0.0146554
956.545	0.0145947
956.623	0.0144250
956.701	0.0144942
956.780	0.0143694
956.858	0.0144387
956.936	0.0144823
957.014	0.0144346
957.092	0.0144790
957.170	0.0143368
957.248	0.0144264
957.326	0.0144626
957.405	0.0145115
957.483	0.0145611
957.561	0.0145287
957.639	0.0144722
957.717	0.0144653
957.795	0.0145499
957.873	0.0145781
957.951	0.0144956
958.030	0.0146288
958.108	0.0146570
958.186	0.0147237
958.264	0.0147099
958.342	0.0146160
958.420	0.0147911
958.498	0.0145896
958.576	0.0146427
958.655	0.0147428
958.733	0.0148581
958.811	0.0146434
958.889	0.0147877
958.967	0.0148895
959.045	0.0146984
959.123	0.0147075
959.201	0.0146875
959.280	0.0147517
959.358	0.0146990
959.436	0.0147222
959.514	0.0147794
959.592	0.0148457
959.670	0.0147564
959.748	0.0147572
959.826	0.0147933
959.905	0.0147706
