05/20/2022	16:14:56	Ver.	4.1	UNKNOWN
Optical Delay	639.982744	Delta X		0.078125	Sweeps	1	Scan Rate	0/0
Coordinates	Axis 1	NaN	Axis 2	NaN	Axis 3	NaN	Axis 4	NaN	Axis 5	NaN	Axis 6	0.000000
TX Power	0.000000	RX Power	0.000000

639.983	0.0143626
640.061	0.0144441
640.139	0.0143932
640.217	0.0144566
640.295	0.0142617
640.373	0.0143211
640.451	0.0143861
640.530	0.0144129
640.608	0.0145409
640.686	0.0143594
640.764	0.0142592
640.842	0.0143761
640.920	0.0144749
640.998	0.0142256
641.076	0.0144255
641.155	0.0144993
641.233	0.0145369
641.311	0.0143478
641.389	0.0144992
641.467	0.0144440
641.545	0.0144351
641.623	0.0144102
641.701	0.0143462
641.780	0.0144336
641.858	0.0143633
641.936	0.0143406
642.014	0.0144222
642.092	0.0143167
642.170	0.0142226
642.248	0.0143656
642.326	0.0142846
642.405	0.0143557
642.483	0.0143444
642.561	0.0142310
642.639	0.0141818
642.717	0.0143575
642.795	0.0143127
642.873	0.0143176
642.951	0.0144186
643.030	0.0143277
643.108	0.0143510
643.186	0.0144315
643.264	0.0143228
643.342	0.0141508
643.420	0.0143156
643.498	0.0142949
643.576	0.0142860
643.655	0.0142174
643.733	0.0143705
643.811	0.0143404
643.889	0.0142673
643.967	0.0141596
644.045	0.0142649
644.123	0.0143629
644.201	0.0142036
644.280	0.0144529
644.358	0.0142475
644.436	0.0144185
644.514	0.0143554
644.592	0.0142710
644.670	0.0144482
644.748	0.0144147
644.826	0.0142446
644.905	0.0142549
644.983	0.0142714
645.061	0.0143613
645.139	0.0144321
645.217	0.0142859
645.295	0.0143921
645.373	0.0143414
645.451	0.0142202
645.530	0.0143127
645.608	0.0141449
645.686	0.0144653
645.764	0.0143475
645.842	0.0142908
645.920	0.0144267
645.998	0.0143957
646.076	0.0143345
646.155	0.0142863
646.233	0.0142721
646.311	0.0143437
646.389	0.0143060
646.467	0.0145277
646.545	0.0143423
646.623	0.0143385
646.701	0.0143430
646.780	0.0143395
646.858	0.0143450
646.936	0.0144913
647.014	0.0144647
647.092	0.0142899
647.170	0.0144563
647.248	0.0142070
647.326	0.0143687
647.405	0.0144349
647.483	0.0143713
647.561	0.0142881
647.639	0.0143438
647.717	0.0143954
647.795	0.0143578
647.873	0.0142876
647.951	0.0143452
648.030	0.0143419
648.108	0.0143452
648.186	0.0144526
648.264	0.0144586
648.342	0.0144979
648.420	0.0142907
648.498	0.0142529
648.576	0.0142648
648.655	0.0144214
648.733	0.0142963
648.811	0.0142823
648.889	0.0143209
648.967	0.0142908
649.045	0.0143270
649.123	0.0142447
649.201	0.0144218
649.280	0.0144489
649.358	0.0143964
649.436	0.0143291
649.514	0.0143369
649.592	0.0144141
649.670	0.0143122
649.748	0.0143998
649.826	0.0144141
649.905	0.0142052
649.983	0.0143127
650.061	0.0144093
650.139	0.0143971
650.217	0.0143332
650.295	0.0142715
650.373	0.0143410
650.451	0.0143278
650.530	0.0142752
650.608	0.0144342
650.686	0.0143338
650.764	0.0143655
650.842	0.0143762
650.920	0.0143635
650.998	0.0142700
651.076	0.0143568
651.155	0.0143507
651.233	0.0144233
651.311	0.0142116
651.389	0.0143121
651.467	0.0144392
651.545	0.0144472
651.623	0.0143938
651.701	0.0143577
651.780	0.0143096
651.858	0.0143073
651.936	0.0144289
652.014	0.0144432
652.092	0.0143304
652.170	0.0142827
652.248	0.0143516
652.326	0.0144511
652.405	0.0144236
652.483	0.0142902
652.561	0.0143634
652.639	0.0143654
652.717	0.0143760
652.795	0.0142671
652.873	0.0143941
652.951	0.0143517
653.030	0.0144875
653.108	0.0143697
653.186	0.0143806
653.264	0.0143121
653.342	0.0145033
653.420	0.0143528
653.498	0.0143572
653.576	0.0145519
653.655	0.0142958
653.733	0.0143500
653.811	0.0143797
653.889	0.0144666
653.967	0.0143803
654.045	0.0145483
654.123	0.0145039
654.201	0.0143595
654.280	0.0145023
654.358	0.0144751
654.436	0.0142310
654.514	0.0144896
654.592	0.0143725
654.670	0.0144547
654.748	0.0144920
654.826	0.0144031
654.905	0.0143322
654.983	0.0144869
655.061	0.0144699
655.139	0.0142010
655.217	0.0143211
655.295	0.0142552
655.373	0.0144273
655.451	0.0144930
655.530	0.0143890
655.608	0.0143071
655.686	0.0144810
655.764	0.0143382
655.842	0.0142967
655.920	0.0143221
655.998	0.0143941
656.076	0.0144647
656.155	0.0143429
656.233	0.0144453
656.311	0.0143499
656.389	0.0143545
656.467	0.0144498
656.545	0.0143092
656.623	0.0143774
656.701	0.0143707
656.780	0.0143581
656.858	0.0144628
656.936	0.0145265
657.014	0.0144090
657.092	0.0143397
657.170	0.0145303
657.248	0.0145064
657.326	0.0143980
657.405	0.0144382
657.483	0.0143463
657.561	0.0145216
657.639	0.0145702
657.717	0.0144501
657.795	0.0144828
657.873	0.0145337
657.951	0.0144938
658.030	0.0144279
658.108	0.0143822
658.186	0.0143550
658.264	0.0144545
658.342	0.0145395
658.420	0.0144653
658.498	0.0144475
658.576	0.0142997
658.655	0.0144833
658.733	0.0145848
658.811	0.0144352
658.889	0.0143393
658.967	0.0144324
659.045	0.0144517
659.123	0.0143496
659.201	0.0143710
659.280	0.0143573
659.358	0.0144339
659.436	0.0144362
659.514	0.0145161
659.592	0.0144332
659.670	0.0145339
659.748	0.0143805
659.826	0.0143442
659.905	0.0143726
659.983	0.0144550
660.061	0.0144049
660.139	0.0143977
660.217	0.0144180
660.295	0.0143974
660.373	0.0143605
660.451	0.0144182
660.530	0.0144362
660.608	0.0144951
660.686	0.0142481
660.764	0.0143511
660.842	0.0142924
660.920	0.0142922
660.998	0.0143068
661.076	0.0144747
661.155	0.0143291
661.233	0.0143095
661.311	0.0142899
661.389	0.0143829
661.467	0.0143932
661.545	0.0144718
661.623	0.0143006
661.701	0.0143921
661.780	0.0143356
661.858	0.0143520
661.936	0.0145545
662.014	0.0143125
662.092	0.0143529
662.170	0.0143752
662.248	0.0142554
662.326	0.0144574
662.405	0.0143932
662.483	0.0144147
662.561	0.0143819
662.639	0.0142908
662.717	0.0142570
662.795	0.0142406
662.873	0.0144469
662.951	0.0142206
663.030	0.0143443
663.108	0.0143740
663.186	0.0143710
663.264	0.0143527
663.342	0.0143256
663.420	0.0143703
663.498	0.0142919
663.576	0.0142201
663.655	0.0143285
663.733	0.0144375
663.811	0.0144102
663.889	0.0143053
663.967	0.0142316
664.045	0.0143262
664.123	0.0142971
664.201	0.0142973
664.280	0.0144635
664.358	0.0143454
664.436	0.0143121
664.514	0.0143259
664.592	0.0142925
664.670	0.0142997
664.748	0.0143212
664.826	0.0142755
664.905	0.0143091
664.983	0.0143942
665.061	0.0143999
665.139	0.0144415
665.217	0.0144421
665.295	0.0142545
665.373	0.0144017
665.451	0.0143172
665.530	0.0143149
665.608	0.0144032
665.686	0.0141424
665.764	0.0143435
665.842	0.0143884
665.920	0.0141887
665.998	0.0143739
666.076	0.0142792
666.155	0.0142088
666.233	0.0142840
666.311	0.0143929
666.389	0.0143377
666.467	0.0143847
666.545	0.0142207
666.623	0.0142719
666.701	0.0143501
666.780	0.0143778
666.858	0.0143542
666.936	0.0143279
667.014	0.0143358
667.092	0.0141853
667.170	0.0141879
667.248	0.0142332
667.326	0.0142765
667.405	0.0143605
667.483	0.0142654
667.561	0.0144807
667.639	0.0142735
667.717	0.0142376
667.795	0.0143801
667.873	0.0143855
667.951	0.0142709
668.030	0.0143623
668.108	0.0142892
668.186	0.0143231
668.264	0.0141624
668.342	0.0142245
668.420	0.0144058
668.498	0.0143111
668.576	0.0143255
668.655	0.0143858
668.733	0.0143870
668.811	0.0143196
668.889	0.0143488
668.967	0.0142738
669.045	0.0144196
669.123	0.0144668
669.201	0.0144626
669.280	0.0141924
669.358	0.0143809
669.436	0.0143750
669.514	0.0143259
669.592	0.0144221
669.670	0.0142586
669.748	0.0142948
669.826	0.0143871
669.905	0.0143646
669.983	0.0144456
670.061	0.0144286
670.139	0.0144147
670.217	0.0143433
670.295	0.0145157
670.373	0.0143284
670.451	0.0143476
670.530	0.0143845
670.608	0.0143554
670.686	0.0144127
670.764	0.0143561
670.842	0.0143319
670.920	0.0143118
670.998	0.0144216
671.076	0.0144113
671.155	0.0143396
671.233	0.0143773
671.311	0.0143695
671.389	0.0143309
671.467	0.0144121
671.545	0.0143407
671.623	0.0142638
671.701	0.0143599
671.780	0.0143848
671.858	0.0143402
671.936	0.0144787
672.014	0.0143927
672.092	0.0144581
672.170	0.0142802
672.248	0.0143037
672.326	0.0144247
672.405	0.0142931
672.483	0.0143347
672.561	0.0143713
672.639	0.0142790
672.717	0.0143051
672.795	0.0143463
672.873	0.0143445
672.951	0.0143591
673.030	0.0144498
673.108	0.0143542
673.186	0.0144901
673.264	0.0143045
673.342	0.0143969
673.420	0.0143277
673.498	0.0142725
673.576	0.0143680
673.655	0.0144612
673.733	0.0144379
673.811	0.0144367
673.889	0.0143134
673.967	0.0143248
674.045	0.0143848
674.123	0.0142474
674.201	0.0143709
674.280	0.0142919
674.358	0.0143293
674.436	0.0143437
674.514	0.0143452
674.592	0.0144975
674.670	0.0143618
674.748	0.0142690
674.826	0.0143056
674.905	0.0143921
674.983	0.0143916
675.061	0.0143484
675.139	0.0143285
675.217	0.0142844
675.295	0.0143727
675.373	0.0144006
675.451	0.0143367
675.530	0.0144161
675.608	0.0143378
675.686	0.0143272
675.764	0.0143191
675.842	0.0142709
675.920	0.0143020
675.998	0.0143679
676.076	0.0142716
676.155	0.0144165
676.233	0.0143156
676.311	0.0141928
676.389	0.0143384
676.467	0.0143201
676.545	0.0143497
676.623	0.0143721
676.701	0.0143436
676.780	0.0144809
676.858	0.0143550
676.936	0.0142906
677.014	0.0143169
677.092	0.0142911
677.170	0.0143176
677.248	0.0143236
677.326	0.0142342
677.405	0.0142129
677.483	0.0142640
677.561	0.0143866
677.639	0.0143774
677.717	0.0143456
677.795	0.0142980
677.873	0.0143195
677.951	0.0143459
678.030	0.0143608
678.108	0.0142984
678.186	0.0142847
678.264	0.0142680
678.342	0.0143172
678.420	0.0143465
678.498	0.0144427
678.576	0.0144322
678.655	0.0143875
678.733	0.0143955
678.811	0.0142953
678.889	0.0144093
678.967	0.0144376
679.045	0.0143748
679.123	0.0144254
679.201	0.0143721
679.280	0.0142821
679.358	0.0143058
679.436	0.0143433
679.514	0.0143668
679.592	0.0141895
679.670	0.0142664
679.748	0.0143520
679.826	0.0143823
679.905	0.0142890
679.983	0.0143449
680.061	0.0141122
680.139	0.0142609
680.217	0.0143529
680.295	0.0142298
680.373	0.0142688
680.451	0.0142635
680.530	0.0142861
680.608	0.0145509
680.686	0.0144360
680.764	0.0143852
680.842	0.0143958
680.920	0.0143799
680.998	0.0143784
681.076	0.0143180
681.155	0.0142381
681.233	0.0142358
681.311	0.0144882
681.389	0.0143224
681.467	0.0144275
681.545	0.0144286
681.623	0.0143963
681.701	0.0144307
681.780	0.0143645
681.858	0.0143578
681.936	0.0144749
682.014	0.0144002
682.092	0.0143278
682.170	0.0143304
682.248	0.0145026
682.326	0.0144269
682.405	0.0143849
682.483	0.0142754
682.561	0.0143418
682.639	0.0142883
682.717	0.0144178
682.795	0.0143135
682.873	0.0143633
682.951	0.0143063
683.030	0.0143256
683.108	0.0142749
683.186	0.0142359
683.264	0.0143149
683.342	0.0143024
683.420	0.0141970
683.498	0.0144460
683.576	0.0144381
683.655	0.0145640
683.733	0.0143726
683.811	0.0143414
683.889	0.0144390
683.967	0.0145313
684.045	0.0146656
684.123	0.0145896
684.201	0.0145739
684.280	0.0146673
684.358	0.0146500
684.436	0.0146249
684.514	0.0145261
684.592	0.0144814
684.670	0.0145124
684.748	0.0144151
684.826	0.0143764
684.905	0.0144538
684.983	0.0143732
685.061	0.0141692
685.139	0.0142088
685.217	0.0142799
685.295	0.0141343
685.373	0.0140800
685.451	0.0141001
685.530	0.0142749
685.608	0.0141937
685.686	0.0140450
685.764	0.0141966
685.842	0.0142391
685.920	0.0144496
685.998	0.0144468
686.076	0.0144547
686.155	0.0146349
686.233	0.0148919
686.311	0.0148486
686.389	0.0147860
686.467	0.0149020
686.545	0.0148782
686.623	0.0148047
686.701	0.0146503
686.780	0.0145605
686.858	0.0146219
686.936	0.0143556
687.014	0.0145924
687.092	0.0144852
687.170	0.0143883
687.248	0.0145035
687.326	0.0144643
687.405	0.0143494
687.483	0.0144410
687.561	0.0144353
687.639	0.0145461
687.717	0.0145185
687.795	0.0144273
687.873	0.0143251
687.951	0.0143650
688.030	0.0144305
688.108	0.0143522
688.186	0.0143589
688.264	0.0143216
688.342	0.0141418
688.420	0.0143865
688.498	0.0144309
688.576	0.0143421
688.655	0.0142429
688.733	0.0141597
688.811	0.0141595
688.889	0.0141692
688.967	0.0141933
689.045	0.0141297
689.123	0.0141649
689.201	0.0140206
689.280	0.0141297
689.358	0.0142611
689.436	0.0141438
689.514	0.0143634
689.592	0.0143954
689.670	0.0145717
689.748	0.0145612
689.826	0.0145408
689.905	0.0148376
689.983	0.0149789
690.061	0.0148147
690.139	0.0150009
690.217	0.0151071
690.295	0.0152297
690.373	0.0150262
690.451	0.0151610
690.530	0.0150655
690.608	0.0148938
690.686	0.0149715
690.764	0.0148086
690.842	0.0147089
690.920	0.0147015
690.998	0.0145470
691.076	0.0145097
691.155	0.0143797
691.233	0.0142245
691.311	0.0143363
691.389	0.0142338
691.467	0.0139921
691.545	0.0140493
691.623	0.0140787
691.701	0.0138412
691.780	0.0138590
691.858	0.0138184
691.936	0.0136442
692.014	0.0139133
692.092	0.0139191
692.170	0.0140049
692.248	0.0138824
692.326	0.0141678
692.405	0.0142124
692.483	0.0141506
692.561	0.0142261
692.639	0.0142164
692.717	0.0142300
692.795	0.0139889
692.873	0.0140579
692.951	0.0138893
693.030	0.0140404
693.108	0.0140144
693.186	0.0139999
693.264	0.0140427
693.342	0.0139768
693.420	0.0140942
693.498	0.0143021
693.576	0.0144531
693.655	0.0143709
693.733	0.0146458
693.811	0.0148223
693.889	0.0148816
693.967	0.0149113
694.045	0.0149139
694.123	0.0149979
694.201	0.0150177
694.280	0.0149935
694.358	0.0151371
694.436	0.0150999
694.514	0.0150468
694.592	0.0150908
694.670	0.0151998
694.748	0.0153038
694.826	0.0153037
694.905	0.0152676
694.983	0.0154340
695.061	0.0152876
695.139	0.0152400
695.217	0.0151190
695.295	0.0152261
695.373	0.0151366
695.451	0.0151836
695.530	0.0153239
695.608	0.0151866
695.686	0.0151669
695.764	0.0149739
695.842	0.0150424
695.920	0.0148600
695.998	0.0147246
696.076	0.0145534
696.155	0.0144977
696.233	0.0142215
696.311	0.0140673
696.389	0.0138036
696.467	0.0135350
696.545	0.0133321
696.623	0.0130344
696.701	0.0127853
696.780	0.0124706
696.858	0.0122520
696.936	0.0119273
697.014	0.0117802
697.092	0.0114462
697.170	0.0112089
697.248	0.0109374
697.326	0.0109809
697.405	0.0109547
697.483	0.0112032
697.561	0.0114770
697.639	0.0117280
697.717	0.0120249
697.795	0.0124856
697.873	0.0131558
697.951	0.0136971
698.030	0.0142668
698.108	0.0149953
698.186	0.0153952
698.264	0.0158082
698.342	0.0165456
698.420	0.0171214
698.498	0.0174893
698.576	0.0180303
698.655	0.0183997
698.733	0.0188248
698.811	0.0190602
698.889	0.0191336
698.967	0.0192365
699.045	0.0194598
699.123	0.0193255
699.201	0.0189780
699.280	0.0189601
699.358	0.0185054
699.436	0.0180936
699.514	0.0175156
699.592	0.0168528
699.670	0.0161485
699.748	0.0155717
699.826	0.0148559
699.905	0.0142289
699.983	0.0134440
700.061	0.0127807
700.139	0.0122666
700.217	0.0116759
700.295	0.0112874
700.373	0.0108929
700.451	0.0106528
700.530	0.0104626
700.608	0.0103457
700.686	0.0102106
700.764	0.0101878
700.842	0.0102171
700.920	0.0104370
700.998	0.0105488
701.076	0.0108289
701.155	0.0111579
701.233	0.0113118
701.311	0.0116740
701.389	0.0119212
701.467	0.0121906
701.545	0.0124767
701.623	0.0127471
701.701	0.0128327
701.780	0.0129961
701.858	0.0131090
701.936	0.0132084
702.014	0.0135339
702.092	0.0136237
702.170	0.0136768
702.248	0.0137839
702.326	0.0140603
702.405	0.0143383
702.483	0.0146812
702.561	0.0149173
702.639	0.0153000
702.717	0.0157890
702.795	0.0161632
702.873	0.0164516
702.951	0.0168542
703.030	0.0171798
703.108	0.0174561
703.186	0.0175944
703.264	0.0176339
703.342	0.0177997
703.420	0.0178329
703.498	0.0179180
703.576	0.0177921
703.655	0.0177872
703.733	0.0175292
703.811	0.0173130
703.889	0.0173402
703.967	0.0173098
704.045	0.0172189
704.123	0.0170225
704.201	0.0169234
704.280	0.0169815
704.358	0.0169505
704.436	0.0167746
704.514	0.0166689
704.592	0.0164170
704.670	0.0159146
704.748	0.0153454
704.826	0.0147815
704.905	0.0142583
704.983	0.0134737
705.061	0.0128472
705.139	0.0122359
705.217	0.0116068
705.295	0.0110786
705.373	0.0105143
705.451	0.0101740
705.530	0.0100549
705.608	0.00991920
705.686	0.0100511
705.764	0.0102271
705.842	0.0103392
705.920	0.0107336
705.998	0.0111172
706.076	0.0113937
706.155	0.0118097
706.233	0.0122585
706.311	0.0124877
706.389	0.0129114
706.467	0.0131534
706.545	0.0134182
706.623	0.0136668
706.701	0.0138854
706.780	0.0138454
706.858	0.0139153
706.936	0.0141728
707.014	0.0140950
707.092	0.0141048
707.170	0.0139973
707.248	0.0137452
707.326	0.0138781
707.405	0.0135557
707.483	0.0136134
707.561	0.0133959
707.639	0.0132995
707.717	0.0131529
707.795	0.0130303
707.873	0.0131796
707.951	0.0133346
708.030	0.0136969
708.108	0.0140791
708.186	0.0146150
708.264	0.0152923
708.342	0.0159665
708.420	0.0167588
708.498	0.0174570
708.576	0.0182818
708.655	0.0187753
708.733	0.0192877
708.811	0.0197661
708.889	0.0198396
708.967	0.0199870
709.045	0.0200653
709.123	0.0198181
709.201	0.0195124
709.280	0.0191265
709.358	0.0186843
709.436	0.0183339
709.514	0.0176495
709.592	0.0173474
709.670	0.0169879
709.748	0.0164516
709.826	0.0162185
709.905	0.0158360
709.983	0.0157991
710.061	0.0154708
710.139	0.0148273
710.217	0.0146526
710.295	0.0142580
710.373	0.0138420
710.451	0.0130244
710.530	0.0126077
710.608	0.0119884
710.686	0.0114808
710.764	0.0108147
710.842	0.0105178
710.920	0.0101724
710.998	0.00980431
711.076	0.00957329
711.155	0.00944267
711.233	0.00947678
711.311	0.00930626
711.389	0.00945419
711.467	0.00947762
711.545	0.00971184
711.623	0.00988800
711.701	0.0102985
711.780	0.0104556
711.858	0.0108197
711.936	0.0111692
712.014	0.0116637
712.092	0.0122836
712.170	0.0129160
712.248	0.0134209
712.326	0.0140513
712.405	0.0150687
712.483	0.0152817
712.561	0.0155203
712.639	0.0159895
712.717	0.0161434
712.795	0.0162565
712.873	0.0161225
712.951	0.0160205
713.030	0.0156528
713.108	0.0154424
713.186	0.0150979
713.264	0.0147448
713.342	0.0145045
713.420	0.0143259
713.498	0.0140490
713.576	0.0140961
713.655	0.0142574
713.733	0.0144654
713.811	0.0149950
713.889	0.0155002
713.967	0.0159867
714.045	0.0166512
714.123	0.0172816
714.201	0.0178568
714.280	0.0184456
714.358	0.0188412
714.436	0.0191737
714.514	0.0196107
714.592	0.0195467
714.670	0.0196213
714.748	0.0193705
714.826	0.0190860
714.905	0.0188573
714.983	0.0184243
715.061	0.0180440
715.139	0.0174401
715.217	0.0166600
715.295	0.0161817
715.373	0.0157496
715.451	0.0150763
715.530	0.0146358
715.608	0.0141763
715.686	0.0137328
715.764	0.0133791
715.842	0.0130289
715.920	0.0129071
715.998	0.0127598
716.076	0.0123681
716.155	0.0122631
716.233	0.0120733
716.311	0.0118910
716.389	0.0115813
716.467	0.0114395
716.545	0.0112322
716.623	0.0110900
716.701	0.0108316
716.780	0.0106461
716.858	0.0104083
716.936	0.0102874
717.014	0.0102590
717.092	0.0102142
717.170	0.0101815
717.248	0.0102622
717.326	0.0103319
717.405	0.0104685
717.483	0.0107332
717.561	0.0112643
717.639	0.0116632
717.717	0.0121487
717.795	0.0126193
717.873	0.0133202
717.951	0.0138686
718.030	0.0143913
718.108	0.0148485
718.186	0.0154273
718.264	0.0160822
718.342	0.0164044
718.420	0.0165968
718.498	0.0167937
718.576	0.0168875
718.655	0.0169224
718.733	0.0168192
718.811	0.0166415
718.889	0.0162407
718.967	0.0158062
719.045	0.0153745
719.123	0.0147997
719.201	0.0143388
719.280	0.0139757
719.358	0.0137891
719.436	0.0135777
719.514	0.0135011
719.592	0.0135483
719.670	0.0137560
719.748	0.0139620
719.826	0.0143822
719.905	0.0148089
719.983	0.0154017
720.061	0.0159174
720.139	0.0164056
720.217	0.0167711
720.295	0.0171765
720.373	0.0175473
720.451	0.0178902
720.530	0.0182998
720.608	0.0184093
720.686	0.0184496
720.764	0.0184944
720.842	0.0184274
720.920	0.0182782
720.998	0.0180392
721.076	0.0178218
721.155	0.0174902
721.233	0.0169094
721.311	0.0163000
721.389	0.0159209
721.467	0.0153415
721.545	0.0147839
721.623	0.0143011
721.701	0.0140232
721.780	0.0135285
721.858	0.0132605
721.936	0.0131178
722.014	0.0127004
722.092	0.0127595
722.170	0.0125590
722.248	0.0124022
722.326	0.0123812
722.405	0.0121156
722.483	0.0120034
722.561	0.0116578
722.639	0.0113326
722.717	0.0109606
722.795	0.0106417
722.873	0.0102180
722.951	0.00985794
723.030	0.00981789
723.108	0.00965927
723.186	0.00967278
723.264	0.00979813
723.342	0.0101331
723.420	0.0106178
723.498	0.0110391
723.576	0.0115281
723.655	0.0121333
723.733	0.0127663
723.811	0.0133615
723.889	0.0139697
723.967	0.0141878
724.045	0.0147289
724.123	0.0151024
724.201	0.0154190
724.280	0.0157062
724.358	0.0160036
724.436	0.0162440
724.514	0.0164801
724.592	0.0166740
724.670	0.0167773
724.748	0.0168562
724.826	0.0169328
724.905	0.0167361
724.983	0.0165942
725.061	0.0164531
725.139	0.0160758
725.217	0.0156852
725.295	0.0152618
725.373	0.0149019
725.451	0.0144234
725.530	0.0141225
725.608	0.0138205
725.686	0.0135674
725.764	0.0136582
725.842	0.0137011
725.920	0.0139616
725.998	0.0143111
726.076	0.0145703
726.155	0.0149559
726.233	0.0153374
726.311	0.0157755
726.389	0.0163275
726.467	0.0164523
726.545	0.0166665
726.623	0.0171799
726.701	0.0172661
726.780	0.0172606
726.858	0.0173595
726.936	0.0173952
727.014	0.0170894
727.092	0.0168832
727.170	0.0168288
727.248	0.0164440
727.326	0.0161376
727.405	0.0157365
727.483	0.0152966
727.561	0.0150060
727.639	0.0145234
727.717	0.0142264
727.795	0.0135735
727.873	0.0134908
727.951	0.0132278
728.030	0.0131177
728.108	0.0127167
728.186	0.0126036
728.264	0.0124171
728.342	0.0125333
728.420	0.0125054
728.498	0.0124659
728.576	0.0124010
728.655	0.0125796
728.733	0.0124020
728.811	0.0123248
728.889	0.0122578
728.967	0.0121836
729.045	0.0121802
729.123	0.0121421
729.201	0.0118839
729.280	0.0119405
729.358	0.0118247
729.436	0.0119376
729.514	0.0120436
729.592	0.0120397
729.670	0.0121334
729.748	0.0124199
729.826	0.0124362
729.905	0.0128727
729.983	0.0130263
730.061	0.0134135
730.139	0.0137383
730.217	0.0139690
730.295	0.0144732
730.373	0.0148830
730.451	0.0153877
730.530	0.0157552
730.608	0.0162636
730.686	0.0165511
730.764	0.0168980
730.842	0.0170814
730.920	0.0173832
730.998	0.0173557
731.076	0.0173969
731.155	0.0172914
731.233	0.0170147
731.311	0.0168008
731.389	0.0165167
731.467	0.0160309
731.545	0.0155754
731.623	0.0150829
731.701	0.0145694
731.780	0.0140994
731.858	0.0137491
731.936	0.0135106
732.014	0.0130544
732.092	0.0129275
732.170	0.0128603
732.248	0.0129578
732.326	0.0131068
732.405	0.0132383
732.483	0.0135453
732.561	0.0136787
732.639	0.0143007
732.717	0.0146222
732.795	0.0148609
732.873	0.0151617
732.951	0.0156576
733.030	0.0160559
733.108	0.0162186
733.186	0.0163016
733.264	0.0165450
733.342	0.0166103
733.420	0.0166190
733.498	0.0164473
733.576	0.0161398
733.655	0.0158727
733.733	0.0154049
733.811	0.0152429
733.889	0.0149412
733.967	0.0144990
734.045	0.0143913
734.123	0.0140440
734.201	0.0136472
734.280	0.0135728
734.358	0.0134332
734.436	0.0133347
734.514	0.0133391
734.592	0.0131817
734.670	0.0131667
734.748	0.0132612
734.826	0.0132441
734.905	0.0133336
734.983	0.0134418
735.061	0.0131816
735.139	0.0133760
735.217	0.0134561
735.295	0.0132886
735.373	0.0134383
735.451	0.0133254
735.530	0.0132195
735.608	0.0132314
735.686	0.0132017
735.764	0.0131406
735.842	0.0131714
735.920	0.0133273
735.998	0.0132948
736.076	0.0133647
736.155	0.0135002
736.233	0.0137669
736.311	0.0137386
736.389	0.0139874
736.467	0.0143329
736.545	0.0144764
736.623	0.0146105
736.701	0.0149147
736.780	0.0150402
736.858	0.0154049
736.936	0.0156178
737.014	0.0158465
737.092	0.0160880
737.170	0.0159189
737.248	0.0160780
737.326	0.0159954
737.405	0.0157448
737.483	0.0156177
737.561	0.0153799
737.639	0.0151859
737.717	0.0148219
737.795	0.0145811
737.873	0.0141543
737.951	0.0140302
738.030	0.0136408
738.108	0.0134186
738.186	0.0132551
738.264	0.0131826
738.342	0.0131868
738.420	0.0131126
738.498	0.0131742
738.576	0.0135518
738.655	0.0135687
738.733	0.0137584
738.811	0.0141261
738.889	0.0142135
738.967	0.0145145
739.045	0.0147465
739.123	0.0149748
739.201	0.0151691
739.280	0.0153178
739.358	0.0153799
739.436	0.0154504
739.514	0.0155745
739.592	0.0155960
739.670	0.0153605
739.748	0.0156132
739.826	0.0155093
739.905	0.0153799
739.983	0.0152481
740.061	0.0149502
740.139	0.0148699
740.217	0.0147224
740.295	0.0146655
740.373	0.0144261
740.451	0.0143847
740.530	0.0142722
740.608	0.0141930
740.686	0.0139790
740.764	0.0141110
740.842	0.0140010
740.920	0.0138922
740.998	0.0139808
741.076	0.0139869
741.155	0.0139932
741.233	0.0140837
741.311	0.0141848
741.389	0.0140809
741.467	0.0138889
741.545	0.0139557
741.623	0.0140009
741.701	0.0137110
741.780	0.0137180
741.858	0.0135752
741.936	0.0137435
742.014	0.0136777
742.092	0.0134249
742.170	0.0132709
742.248	0.0133152
742.326	0.0133156
742.405	0.0133212
742.483	0.0134995
742.561	0.0135579
742.639	0.0137070
742.717	0.0137661
742.795	0.0139112
742.873	0.0141042
742.951	0.0144894
743.030	0.0145768
743.108	0.0147086
743.186	0.0150049
743.264	0.0151818
743.342	0.0152256
743.420	0.0153426
743.498	0.0154333
743.576	0.0154029
743.655	0.0154417
743.733	0.0153627
743.811	0.0150479
743.889	0.0149918
743.967	0.0148661
744.045	0.0145728
744.123	0.0143530
744.201	0.0141628
744.280	0.0141196
744.358	0.0139007
744.436	0.0138545
744.514	0.0137410
744.592	0.0138471
744.670	0.0137537
744.748	0.0138533
744.826	0.0141143
744.905	0.0139314
744.983	0.0140893
745.061	0.0143302
745.139	0.0144544
745.217	0.0144724
745.295	0.0146730
745.373	0.0145905
745.451	0.0146903
745.530	0.0147127
745.608	0.0148708
745.686	0.0148830
745.764	0.0148199
745.842	0.0146277
745.920	0.0147591
745.998	0.0147121
746.076	0.0147002
746.155	0.0144083
746.233	0.0144330
746.311	0.0142825
746.389	0.0143113
746.467	0.0141700
746.545	0.0141611
746.623	0.0141711
746.701	0.0141702
746.780	0.0141312
746.858	0.0141281
746.936	0.0142274
747.014	0.0143231
747.092	0.0143477
747.170	0.0143571
747.248	0.0144526
747.326	0.0144596
747.405	0.0145042
747.483	0.0145016
747.561	0.0146333
747.639	0.0146775
747.717	0.0145600
747.795	0.0145079
747.873	0.0146335
747.951	0.0146211
748.030	0.0145094
748.108	0.0145120
748.186	0.0143454
748.264	0.0143543
748.342	0.0142982
748.420	0.0140887
748.498	0.0139925
748.576	0.0139578
748.655	0.0137709
748.733	0.0137901
748.811	0.0135932
748.889	0.0137034
748.967	0.0136647
749.045	0.0137978
749.123	0.0139590
749.201	0.0140541
749.280	0.0142583
749.358	0.0142145
749.436	0.0144653
749.514	0.0145628
749.592	0.0147691
749.670	0.0147740
749.748	0.0148466
749.826	0.0149418
749.905	0.0149821
749.983	0.0150140
750.061	0.0149278
750.139	0.0149072
750.217	0.0148151
750.295	0.0148281
750.373	0.0148106
750.451	0.0145982
750.530	0.0145978
750.608	0.0146613
750.686	0.0145154
750.764	0.0144300
750.842	0.0143910
750.920	0.0143240
750.998	0.0139580
751.076	0.0140211
751.155	0.0141296
751.233	0.0140276
751.311	0.0139277
751.389	0.0139654
751.467	0.0137498
751.545	0.0139361
751.623	0.0141227
751.701	0.0140157
751.780	0.0141671
751.858	0.0141150
751.936	0.0143439
752.014	0.0143526
752.092	0.0144238
752.170	0.0146281
752.248	0.0146348
752.326	0.0145024
752.405	0.0146996
752.483	0.0147943
752.561	0.0147493
752.639	0.0147963
752.717	0.0145780
752.795	0.0145054
752.873	0.0145850
752.951	0.0144837
753.030	0.0144106
753.108	0.0142821
753.186	0.0142033
753.264	0.0142992
753.342	0.0141466
753.420	0.0141257
753.498	0.0141367
753.576	0.0141618
753.655	0.0139131
753.733	0.0141009
753.811	0.0141109
753.889	0.0142163
753.967	0.0139688
754.045	0.0142630
754.123	0.0142670
754.201	0.0143349
754.280	0.0144009
754.358	0.0143774
754.436	0.0144108
754.514	0.0145022
754.592	0.0145886
754.670	0.0146304
754.748	0.0148224
754.826	0.0146682
754.905	0.0147488
754.983	0.0147695
755.061	0.0148113
755.139	0.0148089
755.217	0.0147953
755.295	0.0146768
755.373	0.0146302
755.451	0.0146016
755.530	0.0145731
755.608	0.0144079
755.686	0.0146160
755.764	0.0146046
755.842	0.0145405
755.920	0.0145469
755.998	0.0146712
756.076	0.0146327
756.155	0.0146631
756.233	0.0147440
756.311	0.0146323
756.389	0.0146908
756.467	0.0146361
756.545	0.0146828
756.623	0.0146184
756.701	0.0147213
756.780	0.0146855
756.858	0.0143871
756.936	0.0144982
757.014	0.0145383
757.092	0.0143939
757.170	0.0144004
757.248	0.0146082
757.326	0.0145250
757.405	0.0144872
757.483	0.0143314
757.561	0.0143970
757.639	0.0144261
757.717	0.0142860
757.795	0.0142741
757.873	0.0141396
757.951	0.0140688
758.030	0.0140209
758.108	0.0139458
758.186	0.0139384
758.264	0.0140691
758.342	0.0138713
758.420	0.0140397
758.498	0.0139177
758.576	0.0141936
758.655	0.0141586
758.733	0.0143224
758.811	0.0142837
758.889	0.0143645
758.967	0.0142090
759.045	0.0143774
759.123	0.0144644
759.201	0.0143378
759.280	0.0143385
759.358	0.0143314
759.436	0.0144695
759.514	0.0143291
759.592	0.0144539
759.670	0.0144509
759.748	0.0144624
759.826	0.0145667
759.905	0.0145598
759.983	0.0145731
760.061	0.0145084
760.139	0.0144691
760.217	0.0144161
760.295	0.0144328
760.373	0.0145316
760.451	0.0145097
760.530	0.0145502
760.608	0.0143594
760.686	0.0143862
760.764	0.0144025
760.842	0.0142440
760.920	0.0142324
760.998	0.0141772
761.076	0.0142476
761.155	0.0143354
761.233	0.0142330
761.311	0.0143041
761.389	0.0142429
761.467	0.0142565
761.545	0.0143083
761.623	0.0143667
761.701	0.0143665
761.780	0.0142508
761.858	0.0143686
761.936	0.0143876
762.014	0.0144116
762.092	0.0145252
762.170	0.0145543
762.248	0.0144209
762.326	0.0145975
762.405	0.0145009
762.483	0.0146173
762.561	0.0147329
762.639	0.0147583
762.717	0.0146869
762.795	0.0147934
762.873	0.0147443
762.951	0.0148106
763.030	0.0145905
763.108	0.0146358
763.186	0.0146542
763.264	0.0147293
763.342	0.0144879
763.420	0.0144494
763.498	0.0146111
763.576	0.0144632
763.655	0.0143751
763.733	0.0143357
763.811	0.0143761
763.889	0.0144096
763.967	0.0142776
764.045	0.0140574
764.123	0.0140337
764.201	0.0141373
764.280	0.0140831
764.358	0.0141257
764.436	0.0140891
764.514	0.0140014
764.592	0.0141740
764.670	0.0141271
764.748	0.0139970
764.826	0.0141626
764.905	0.0140734
764.983	0.0141927
765.061	0.0141638
765.139	0.0142296
765.217	0.0141277
765.295	0.0141881
765.373	0.0143671
765.451	0.0142126
765.530	0.0143255
765.608	0.0144019
765.686	0.0145137
765.764	0.0144460
765.842	0.0143521
765.920	0.0141951
765.998	0.0143111
766.076	0.0142915
766.155	0.0142123
766.233	0.0140894
766.311	0.0143275
766.389	0.0143985
766.467	0.0142021
766.545	0.0143094
766.623	0.0144798
766.701	0.0143507
766.780	0.0144913
766.858	0.0145554
766.936	0.0144072
767.014	0.0145096
767.092	0.0144690
767.170	0.0146191
767.248	0.0146209
767.326	0.0144409
767.405	0.0145498
767.483	0.0145655
767.561	0.0142586
767.639	0.0145303
767.717	0.0144020
767.795	0.0143857
767.873	0.0144440
767.951	0.0144140
768.030	0.0142863
768.108	0.0141979
768.186	0.0142250
768.264	0.0142676
768.342	0.0143819
768.420	0.0143389
768.498	0.0141574
768.576	0.0143122
768.655	0.0143533
768.733	0.0142740
768.811	0.0143502
768.889	0.0143153
768.967	0.0143970
769.045	0.0144997
769.123	0.0143916
769.201	0.0144372
769.280	0.0144231
769.358	0.0145166
769.436	0.0144134
769.514	0.0144334
769.592	0.0145583
769.670	0.0145736
769.748	0.0144931
769.826	0.0143243
769.905	0.0144203
769.983	0.0143797
770.061	0.0144023
770.139	0.0144865
770.217	0.0143349
770.295	0.0142852
770.373	0.0144044
770.451	0.0142165
770.530	0.0143929
770.608	0.0144654
770.686	0.0144283
770.764	0.0144955
770.842	0.0144791
770.920	0.0144286
770.998	0.0145516
771.076	0.0146177
771.155	0.0146708
771.233	0.0145377
771.311	0.0145800
771.389	0.0146278
771.467	0.0145250
771.545	0.0145028
771.623	0.0145316
771.701	0.0146487
771.780	0.0146038
771.858	0.0144410
771.936	0.0144054
772.014	0.0144142
772.092	0.0144920
772.170	0.0144073
772.248	0.0144077
772.326	0.0143399
772.405	0.0142729
772.483	0.0142771
772.561	0.0141818
772.639	0.0141272
772.717	0.0140062
772.795	0.0141893
772.873	0.0142090
772.951	0.0141830
773.030	0.0140887
773.108	0.0141959
773.186	0.0140835
773.264	0.0142033
773.342	0.0142601
773.420	0.0142827
773.498	0.0143359
773.576	0.0143159
773.655	0.0144706
773.733	0.0143661
773.811	0.0144036
773.889	0.0144592
773.967	0.0144852
774.045	0.0144446
774.123	0.0143499
774.201	0.0144713
774.280	0.0144911
774.358	0.0143598
774.436	0.0143732
774.514	0.0143307
774.592	0.0144496
774.670	0.0144332
774.748	0.0144204
774.826	0.0144328
774.905	0.0143815
774.983	0.0144040
775.061	0.0145304
775.139	0.0143300
775.217	0.0143724
775.295	0.0143186
775.373	0.0143373
775.451	0.0144404
775.530	0.0141714
775.608	0.0143947
775.686	0.0143407
775.764	0.0143124
775.842	0.0143073
775.920	0.0143204
775.998	0.0145524
776.076	0.0143795
776.155	0.0142913
776.233	0.0143109
776.311	0.0142931
776.389	0.0145081
776.467	0.0144670
776.545	0.0145126
776.623	0.0145045
776.701	0.0146637
776.780	0.0146731
776.858	0.0147427
776.936	0.0147129
777.014	0.0145774
777.092	0.0145883
777.170	0.0145990
777.248	0.0145821
777.326	0.0146867
777.405	0.0145310
777.483	0.0144343
777.561	0.0145007
777.639	0.0143472
777.717	0.0143468
777.795	0.0141973
777.873	0.0142024
777.951	0.0143079
778.030	0.0142076
778.108	0.0142301
778.186	0.0143045
778.264	0.0143860
778.342	0.0142751
778.420	0.0143479
778.498	0.0143620
778.576	0.0145129
778.655	0.0143470
778.733	0.0144480
778.811	0.0144073
778.889	0.0146246
778.967	0.0145427
779.045	0.0145434
779.123	0.0144817
779.201	0.0145219
779.280	0.0146624
779.358	0.0144432
779.436	0.0145757
779.514	0.0145504
779.592	0.0144597
779.670	0.0144212
779.748	0.0145570
779.826	0.0145135
779.905	0.0145049
779.983	0.0143257
780.061	0.0143394
780.139	0.0143900
780.217	0.0144565
780.295	0.0142466
780.373	0.0143165
780.451	0.0143546
780.530	0.0142959
780.608	0.0143066
780.686	0.0142600
780.764	0.0142526
780.842	0.0141808
780.920	0.0142289
780.998	0.0143942
781.076	0.0143064
781.155	0.0143446
781.233	0.0143183
781.311	0.0143654
781.389	0.0143717
781.467	0.0146271
781.545	0.0146165
781.623	0.0144455
781.701	0.0146022
781.780	0.0146846
781.858	0.0147251
781.936	0.0146899
782.014	0.0147485
782.092	0.0145972
782.170	0.0146069
782.248	0.0146387
782.326	0.0145369
782.405	0.0144167
782.483	0.0143373
782.561	0.0143657
782.639	0.0143936
782.717	0.0144357
782.795	0.0143712
782.873	0.0142907
782.951	0.0143341
783.030	0.0142885
783.108	0.0143780
783.186	0.0144719
783.264	0.0142993
783.342	0.0143852
783.420	0.0143938
783.498	0.0143148
783.576	0.0143686
783.655	0.0143305
783.733	0.0145118
783.811	0.0144949
783.889	0.0144192
783.967	0.0143137
784.045	0.0145101
784.123	0.0143675
784.201	0.0143470
784.280	0.0144679
784.358	0.0144054
784.436	0.0143897
784.514	0.0144415
784.592	0.0143684
784.670	0.0145396
784.748	0.0145023
784.826	0.0144972
784.905	0.0144965
784.983	0.0145323
785.061	0.0144131
785.139	0.0146232
785.217	0.0145661
785.295	0.0143543
785.373	0.0145522
785.451	0.0143385
785.530	0.0143667
785.608	0.0144186
785.686	0.0143587
785.764	0.0141871
785.842	0.0141939
785.920	0.0143134
785.998	0.0143756
786.076	0.0143146
786.155	0.0145317
786.233	0.0143925
786.311	0.0145423
786.389	0.0144984
786.467	0.0146203
786.545	0.0146667
786.623	0.0146159
786.701	0.0146729
786.780	0.0145966
786.858	0.0146543
786.936	0.0148380
787.014	0.0146574
787.092	0.0145562
787.170	0.0145558
787.248	0.0145847
787.326	0.0144559
787.405	0.0144880
787.483	0.0143554
787.561	0.0142403
787.639	0.0143613
787.717	0.0143888
787.795	0.0142419
787.873	0.0143504
787.951	0.0144028
788.030	0.0142715
788.108	0.0142901
788.186	0.0144449
788.264	0.0143091
788.342	0.0144068
788.420	0.0145059
788.498	0.0143144
788.576	0.0142886
788.655	0.0140939
788.733	0.0142329
788.811	0.0144206
788.889	0.0142622
788.967	0.0143544
789.045	0.0143324
789.123	0.0144396
789.201	0.0144064
789.280	0.0143652
789.358	0.0144116
789.436	0.0144822
789.514	0.0147346
789.592	0.0146814
789.670	0.0145335
789.748	0.0146584
789.826	0.0146336
789.905	0.0146236
789.983	0.0145936
790.061	0.0147819
790.139	0.0146547
790.217	0.0145256
790.295	0.0145422
790.373	0.0144373
790.451	0.0144255
790.530	0.0143509
790.608	0.0141972
790.686	0.0141756
790.764	0.0142145
790.842	0.0141346
790.920	0.0141587
790.998	0.0140907
791.076	0.0141079
791.155	0.0141294
791.233	0.0141843
791.311	0.0142701
791.389	0.0143241
791.467	0.0144240
791.545	0.0143895
791.623	0.0145167
791.701	0.0144626
791.780	0.0145004
791.858	0.0145627
791.936	0.0147350
792.014	0.0147088
792.092	0.0145632
792.170	0.0146027
792.248	0.0145705
792.326	0.0144984
792.405	0.0144028
792.483	0.0142964
792.561	0.0144272
792.639	0.0145977
792.717	0.0144583
792.795	0.0143252
792.873	0.0144061
792.951	0.0143239
793.030	0.0143224
793.108	0.0143172
793.186	0.0143798
793.264	0.0142860
793.342	0.0143420
793.420	0.0141286
793.498	0.0141392
793.576	0.0141880
793.655	0.0142470
793.733	0.0140031
793.811	0.0140591
793.889	0.0141016
793.967	0.0140455
794.045	0.0140870
794.123	0.0142561
794.201	0.0143604
794.280	0.0143753
794.358	0.0143418
794.436	0.0144393
794.514	0.0145998
794.592	0.0146471
794.670	0.0148454
794.748	0.0147912
794.826	0.0148372
794.905	0.0146600
794.983	0.0148749
795.061	0.0149017
795.139	0.0150595
795.217	0.0149261
795.295	0.0148550
795.373	0.0148575
795.451	0.0148996
795.530	0.0148304
795.608	0.0147461
795.686	0.0148453
795.764	0.0146680
795.842	0.0147663
795.920	0.0146744
795.998	0.0145844
796.076	0.0145708
796.155	0.0145665
796.233	0.0144511
796.311	0.0145047
796.389	0.0143829
796.467	0.0143110
796.545	0.0142900
796.623	0.0143130
796.701	0.0141736
796.780	0.0140129
796.858	0.0139778
796.936	0.0139564
797.014	0.0139732
797.092	0.0139133
797.170	0.0138474
797.248	0.0138165
797.326	0.0137613
797.405	0.0138049
797.483	0.0137834
797.561	0.0138117
797.639	0.0139138
797.717	0.0140215
797.795	0.0140597
797.873	0.0140562
797.951	0.0140862
798.030	0.0140209
798.108	0.0141611
798.186	0.0141971
798.264	0.0141171
798.342	0.0142278
798.420	0.0141938
798.498	0.0143543
798.576	0.0143146
798.655	0.0141011
798.733	0.0141656
798.811	0.0141981
798.889	0.0142958
798.967	0.0142938
799.045	0.0143156
799.123	0.0142278
799.201	0.0144846
799.280	0.0144719
799.358	0.0146445
799.436	0.0146040
799.514	0.0146643
799.592	0.0148132
799.670	0.0149270
799.748	0.0148559
799.826	0.0150825
799.905	0.0150406
799.983	0.0150784
800.061	0.0151504
800.139	0.0151595
800.217	0.0150541
800.295	0.0149779
800.373	0.0148632
800.451	0.0150314
800.530	0.0150252
800.608	0.0149984
800.686	0.0148042
800.764	0.0148512
800.842	0.0148512
800.920	0.0146535
800.998	0.0146586
801.076	0.0145909
801.155	0.0146106
801.233	0.0144500
801.311	0.0143123
801.389	0.0143308
801.467	0.0143036
801.545	0.0141879
801.623	0.0141573
801.701	0.0140743
801.780	0.0137749
801.858	0.0138847
801.936	0.0138618
802.014	0.0137598
802.092	0.0136604
802.170	0.0136737
802.248	0.0138162
802.326	0.0139332
802.405	0.0138332
802.483	0.0139996
802.561	0.0139000
802.639	0.0138583
802.717	0.0140840
802.795	0.0141897
802.873	0.0141017
802.951	0.0143945
803.030	0.0142268
803.108	0.0142332
803.186	0.0142926
803.264	0.0141854
803.342	0.0144096
803.420	0.0143510
803.498	0.0142146
803.576	0.0143195
803.655	0.0143636
803.733	0.0143026
803.811	0.0142011
803.889	0.0142808
803.967	0.0142677
804.045	0.0141965
804.123	0.0141618
804.201	0.0140610
804.280	0.0142770
804.358	0.0144759
804.436	0.0144813
804.514	0.0144021
804.592	0.0145286
804.670	0.0146461
804.748	0.0146405
804.826	0.0147347
804.905	0.0148689
804.983	0.0148701
805.061	0.0148833
805.139	0.0151024
805.217	0.0152414
805.295	0.0151916
805.373	0.0151311
805.451	0.0151269
805.530	0.0153266
805.608	0.0152250
805.686	0.0151849
805.764	0.0150659
805.842	0.0152168
805.920	0.0150844
805.998	0.0151003
806.076	0.0151129
806.155	0.0150527
806.233	0.0149210
806.311	0.0149953
806.389	0.0148477
806.467	0.0147111
806.545	0.0147272
806.623	0.0145638
806.701	0.0144887
806.780	0.0143096
806.858	0.0142189
806.936	0.0141032
807.014	0.0140372
807.092	0.0138956
807.170	0.0137560
807.248	0.0137434
807.326	0.0136844
807.405	0.0135220
807.483	0.0134909
807.561	0.0136356
807.639	0.0134917
807.717	0.0135875
807.795	0.0136368
807.873	0.0136346
807.951	0.0136356
808.030	0.0137243
808.108	0.0137213
808.186	0.0138314
808.264	0.0138869
808.342	0.0139369
808.420	0.0140031
808.498	0.0140621
808.576	0.0140368
808.655	0.0141157
808.733	0.0142917
808.811	0.0142679
808.889	0.0142811
808.967	0.0143353
809.045	0.0144376
809.123	0.0144948
809.201	0.0144541
809.280	0.0144482
809.358	0.0146987
809.436	0.0146030
809.514	0.0146268
809.592	0.0146647
809.670	0.0147659
809.748	0.0146646
809.826	0.0147346
809.905	0.0146582
809.983	0.0148363
810.061	0.0148205
810.139	0.0149282
810.217	0.0148695
810.295	0.0148273
810.373	0.0148296
810.451	0.0149837
810.530	0.0148164
810.608	0.0150512
810.686	0.0150265
810.764	0.0150574
810.842	0.0150840
810.920	0.0152217
810.998	0.0150944
811.076	0.0150952
811.155	0.0151128
811.233	0.0151779
811.311	0.0151909
811.389	0.0152808
811.467	0.0150690
811.545	0.0151006
811.623	0.0149738
811.701	0.0148705
811.780	0.0147123
811.858	0.0147284
811.936	0.0147417
812.014	0.0145106
812.092	0.0144725
812.170	0.0145071
812.248	0.0142503
812.326	0.0142161
812.405	0.0142149
812.483	0.0141791
812.561	0.0141198
812.639	0.0140472
812.717	0.0138593
812.795	0.0138319
812.873	0.0137973
812.951	0.0139540
813.030	0.0139359
813.108	0.0136908
813.186	0.0136479
813.264	0.0137278
813.342	0.0137300
813.420	0.0137066
813.498	0.0137424
813.576	0.0134563
813.655	0.0135081
813.733	0.0135661
813.811	0.0137031
813.889	0.0136387
813.967	0.0135687
814.045	0.0137131
814.123	0.0137708
814.201	0.0137801
814.280	0.0139087
814.358	0.0140323
814.436	0.0140408
814.514	0.0141170
814.592	0.0141982
814.670	0.0145122
814.748	0.0145462
814.826	0.0145412
814.905	0.0146209
814.983	0.0148392
815.061	0.0147005
815.139	0.0147952
815.217	0.0148884
815.295	0.0148570
815.373	0.0148555
815.451	0.0148732
815.530	0.0149201
815.608	0.0147910
815.686	0.0148888
815.764	0.0148145
815.842	0.0149312
815.920	0.0148617
815.998	0.0147699
816.076	0.0148304
816.155	0.0149081
816.233	0.0149201
816.311	0.0147745
816.389	0.0147949
816.467	0.0147607
816.545	0.0147668
816.623	0.0148217
816.701	0.0149570
816.780	0.0148465
816.858	0.0147878
816.936	0.0149769
817.014	0.0151354
817.092	0.0149517
817.170	0.0149431
817.248	0.0149050
817.326	0.0148393
817.405	0.0150140
817.483	0.0149682
817.561	0.0149229
817.639	0.0147606
817.717	0.0146574
817.795	0.0147617
817.873	0.0147070
817.951	0.0145974
818.030	0.0144660
818.108	0.0145068
818.186	0.0143607
818.264	0.0142159
818.342	0.0142578
818.420	0.0142152
818.498	0.0141038
818.576	0.0140145
818.655	0.0139330
818.733	0.0137842
818.811	0.0136984
818.889	0.0136426
818.967	0.0135487
819.045	0.0137222
819.123	0.0135492
819.201	0.0134743
819.280	0.0135297
819.358	0.0134926
819.436	0.0135428
819.514	0.0135622
819.592	0.0134688
819.670	0.0135792
819.748	0.0137538
819.826	0.0135853
819.905	0.0137106
819.983	0.0137318
820.061	0.0138573
820.139	0.0139784
820.217	0.0140337
820.295	0.0140913
820.373	0.0141013
820.451	0.0141313
820.530	0.0141695
820.608	0.0145129
820.686	0.0145853
820.764	0.0145991
820.842	0.0147232
820.920	0.0148116
820.998	0.0149141
821.076	0.0149162
821.155	0.0149980
821.233	0.0150491
821.311	0.0151989
821.389	0.0150037
821.467	0.0150871
821.545	0.0149402
821.623	0.0149366
821.701	0.0148863
821.780	0.0148748
821.858	0.0149629
821.936	0.0146693
822.014	0.0145753
822.092	0.0145016
822.170	0.0144576
822.248	0.0143985
822.326	0.0143842
822.405	0.0144880
822.483	0.0143912
822.561	0.0143512
822.639	0.0143189
822.717	0.0143574
822.795	0.0144134
822.873	0.0144746
822.951	0.0143458
823.030	0.0144892
823.108	0.0145204
823.186	0.0143768
823.264	0.0144357
823.342	0.0146304
823.420	0.0146133
823.498	0.0146243
823.576	0.0146545
823.655	0.0146545
823.733	0.0145622
823.811	0.0144724
823.889	0.0144895
823.967	0.0144630
824.045	0.0142894
824.123	0.0142645
824.201	0.0141468
824.280	0.0142257
824.358	0.0140996
824.436	0.0141135
824.514	0.0141106
824.592	0.0140040
824.670	0.0140207
824.748	0.0138737
824.826	0.0141495
824.905	0.0140793
824.983	0.0141016
825.061	0.0140774
825.139	0.0140089
825.217	0.0139905
825.295	0.0140197
825.373	0.0140799
825.451	0.0139227
825.530	0.0139841
825.608	0.0138515
825.686	0.0138882
825.764	0.0139059
825.842	0.0138834
825.920	0.0137828
825.998	0.0138863
826.076	0.0139879
826.155	0.0140047
826.233	0.0139375
826.311	0.0139747
826.389	0.0142357
826.467	0.0140556
826.545	0.0143406
826.623	0.0142415
826.701	0.0142924
826.780	0.0144801
826.858	0.0145499
826.936	0.0145653
827.014	0.0145394
827.092	0.0146412
827.170	0.0147886
827.248	0.0147811
827.326	0.0148808
827.405	0.0147448
827.483	0.0148250
827.561	0.0149309
827.639	0.0150084
827.717	0.0148220
827.795	0.0148141
827.873	0.0148050
827.951	0.0147293
828.030	0.0147682
828.108	0.0145607
828.186	0.0143924
828.264	0.0144893
828.342	0.0145308
828.420	0.0143898
828.498	0.0144210
828.576	0.0141936
828.655	0.0142619
828.733	0.0143547
828.811	0.0143596
828.889	0.0142485
828.967	0.0142521
829.045	0.0143618
829.123	0.0143971
829.201	0.0144949
829.280	0.0144669
829.358	0.0144962
829.436	0.0144820
829.514	0.0145429
829.592	0.0144979
829.670	0.0145807
829.748	0.0146602
829.826	0.0145840
829.905	0.0145411
829.983	0.0145027
830.061	0.0144282
830.139	0.0143904
830.217	0.0143073
830.295	0.0142635
830.373	0.0142522
830.451	0.0142886
830.530	0.0141016
830.608	0.0141338
830.686	0.0141997
830.764	0.0140205
830.842	0.0139117
830.920	0.0141058
830.998	0.0141608
831.076	0.0141768
831.155	0.0139536
831.233	0.0141432
831.311	0.0142120
831.389	0.0142667
831.467	0.0142947
831.545	0.0141939
831.623	0.0142769
831.701	0.0144197
831.780	0.0143871
831.858	0.0142785
831.936	0.0142178
832.014	0.0142454
832.092	0.0142522
832.170	0.0142298
832.248	0.0142567
832.326	0.0141405
832.405	0.0143414
832.483	0.0143186
832.561	0.0143514
832.639	0.0144025
832.717	0.0142832
832.795	0.0142575
832.873	0.0143897
832.951	0.0143807
833.030	0.0144432
833.108	0.0146241
833.186	0.0145927
833.264	0.0146146
833.342	0.0147539
833.420	0.0146583
833.498	0.0145123
833.576	0.0145386
833.655	0.0145590
833.733	0.0146477
833.811	0.0145280
833.889	0.0146446
833.967	0.0146309
834.045	0.0146137
834.123	0.0146225
834.201	0.0146560
834.280	0.0147625
834.358	0.0145501
834.436	0.0145301
834.514	0.0145312
834.592	0.0145667
834.670	0.0145066
834.748	0.0146101
834.826	0.0145720
834.905	0.0142934
834.983	0.0142934
835.061	0.0145187
835.139	0.0143744
835.217	0.0143562
835.295	0.0143705
835.373	0.0143140
835.451	0.0142149
835.530	0.0142596
835.608	0.0142419
835.686	0.0143594
835.764	0.0144691
835.842	0.0143792
835.920	0.0143465
835.998	0.0142899
836.076	0.0142903
836.155	0.0143808
836.233	0.0143983
836.311	0.0143186
836.389	0.0144585
836.467	0.0143476
836.545	0.0142843
836.623	0.0143839
836.701	0.0144695
836.780	0.0143636
836.858	0.0144075
836.936	0.0144772
837.014	0.0143709
837.092	0.0143952
837.170	0.0143407
837.248	0.0144202
837.326	0.0142896
837.405	0.0143583
837.483	0.0143526
837.561	0.0142056
837.639	0.0143831
837.717	0.0142343
837.795	0.0142632
837.873	0.0143012
837.951	0.0141678
838.030	0.0141806
838.108	0.0142350
838.186	0.0141882
838.264	0.0140544
838.342	0.0141745
838.420	0.0142281
838.498	0.0140521
838.576	0.0140769
838.655	0.0139935
838.733	0.0141212
838.811	0.0142361
838.889	0.0142363
838.967	0.0142529
839.045	0.0142303
839.123	0.0143472
839.201	0.0144666
839.280	0.0144537
839.358	0.0144051
839.436	0.0144138
839.514	0.0145161
839.592	0.0145525
839.670	0.0145838
839.748	0.0146224
839.826	0.0146404
839.905	0.0145248
839.983	0.0145947
840.061	0.0146349
840.139	0.0146365
840.217	0.0145012
840.295	0.0145042
840.373	0.0145050
840.451	0.0144787
840.530	0.0146039
840.608	0.0146143
840.686	0.0144335
840.764	0.0145107
840.842	0.0145492
840.920	0.0144337
840.998	0.0143726
841.076	0.0143199
841.155	0.0144021
841.233	0.0143883
841.311	0.0144038
841.389	0.0144489
841.467	0.0143816
841.545	0.0144084
841.623	0.0144077
841.701	0.0143816
841.780	0.0143081
841.858	0.0143190
841.936	0.0143155
842.014	0.0143523
842.092	0.0142707
842.170	0.0142878
842.248	0.0142839
842.326	0.0142032
842.405	0.0142132
842.483	0.0142134
842.561	0.0141873
842.639	0.0141485
842.717	0.0143140
842.795	0.0143896
842.873	0.0143211
842.951	0.0143188
843.030	0.0142418
843.108	0.0141579
843.186	0.0143613
843.264	0.0143745
843.342	0.0142567
843.420	0.0142639
843.498	0.0143363
843.576	0.0142893
843.655	0.0140882
843.733	0.0142014
843.811	0.0141963
843.889	0.0142669
843.967	0.0142050
844.045	0.0142874
844.123	0.0143121
844.201	0.0142107
844.280	0.0143279
844.358	0.0142899
844.436	0.0143923
844.514	0.0142485
844.592	0.0143488
844.670	0.0144365
844.748	0.0144639
844.826	0.0144484
844.905	0.0144978
844.983	0.0146130
845.061	0.0145046
845.139	0.0144909
845.217	0.0145493
845.295	0.0145969
845.373	0.0144801
845.451	0.0146087
845.530	0.0144711
845.608	0.0144463
845.686	0.0146072
845.764	0.0146066
845.842	0.0146722
845.920	0.0145638
845.998	0.0143848
846.076	0.0144815
846.155	0.0145687
846.233	0.0145506
846.311	0.0145289
846.389	0.0145483
846.467	0.0143653
846.545	0.0144328
846.623	0.0144215
846.701	0.0142672
846.780	0.0143875
846.858	0.0144920
846.936	0.0143541
847.014	0.0143198
847.092	0.0144653
847.170	0.0143954
847.248	0.0144759
847.326	0.0144346
847.405	0.0142349
847.483	0.0143088
847.561	0.0143352
847.639	0.0144337
847.717	0.0142708
847.795	0.0145010
847.873	0.0143365
847.951	0.0143137
848.030	0.0144644
848.108	0.0142894
848.186	0.0142687
848.264	0.0143492
848.342	0.0143143
848.420	0.0143385
848.498	0.0142602
848.576	0.0141888
848.655	0.0143125
848.733	0.0142387
848.811	0.0141804
848.889	0.0142035
848.967	0.0143388
849.045	0.0143207
849.123	0.0141745
849.201	0.0141133
849.280	0.0141782
849.358	0.0143049
849.436	0.0142772
849.514	0.0141405
849.592	0.0143286
849.670	0.0142783
849.748	0.0141212
849.826	0.0142490
849.905	0.0143522
849.983	0.0143436
850.061	0.0143274
850.139	0.0143327
850.217	0.0143690
850.295	0.0144267
850.373	0.0145180
850.451	0.0143971
850.530	0.0145294
850.608	0.0143481
850.686	0.0143986
850.764	0.0145525
850.842	0.0144469
850.920	0.0144158
850.998	0.0145345
851.076	0.0146082
851.155	0.0144373
851.233	0.0145419
851.311	0.0146248
851.389	0.0145515
851.467	0.0145506
851.545	0.0148469
851.623	0.0145564
851.701	0.0144891
851.780	0.0146347
851.858	0.0144879
851.936	0.0145528
852.014	0.0147118
852.092	0.0146789
852.170	0.0144581
852.248	0.0145573
852.326	0.0145631
852.405	0.0144933
852.483	0.0145569
852.561	0.0143456
852.639	0.0144305
852.717	0.0144056
852.795	0.0144584
852.873	0.0144872
852.951	0.0143683
853.030	0.0144083
853.108	0.0144230
853.186	0.0144363
853.264	0.0143503
853.342	0.0143757
853.420	0.0143410
853.498	0.0143099
853.576	0.0144540
853.655	0.0144138
853.733	0.0143581
853.811	0.0144208
853.889	0.0143791
853.967	0.0142956
854.045	0.0142561
854.123	0.0143026
854.201	0.0143135
854.280	0.0143966
854.358	0.0143051
854.436	0.0142157
854.514	0.0142603
854.592	0.0141734
854.670	0.0141712
854.748	0.0141324
854.826	0.0142536
854.905	0.0142401
854.983	0.0140905
855.061	0.0142808
855.139	0.0142706
855.217	0.0141702
855.295	0.0142323
855.373	0.0140176
855.451	0.0142543
855.530	0.0143535
855.608	0.0144171
855.686	0.0144740
855.764	0.0145053
855.842	0.0144370
855.920	0.0144099
855.998	0.0144267
856.076	0.0144499
856.155	0.0145072
856.233	0.0144926
856.311	0.0143845
856.389	0.0145418
856.467	0.0144957
856.545	0.0144839
856.623	0.0145222
856.701	0.0145696
856.780	0.0145107
856.858	0.0145747
856.936	0.0145880
857.014	0.0145670
857.092	0.0146716
857.170	0.0146404
857.248	0.0144986
857.326	0.0145080
857.405	0.0145303
857.483	0.0145981
857.561	0.0145777
857.639	0.0146267
857.717	0.0144189
857.795	0.0145070
857.873	0.0144783
857.951	0.0145048
858.030	0.0144546
858.108	0.0144955
858.186	0.0144992
858.264	0.0143056
858.342	0.0144354
858.420	0.0144518
858.498	0.0143337
858.576	0.0144339
858.655	0.0144382
858.733	0.0144641
858.811	0.0143763
858.889	0.0142218
858.967	0.0142593
859.045	0.0143001
859.123	0.0144347
859.201	0.0144404
859.280	0.0143958
859.358	0.0143942
859.436	0.0143148
859.514	0.0144170
859.592	0.0143517
859.670	0.0142966
859.748	0.0143091
859.826	0.0143452
859.905	0.0143669
859.983	0.0143485
860.061	0.0144405
860.139	0.0144827
860.217	0.0145264
860.295	0.0143147
860.373	0.0144456
860.451	0.0143008
860.530	0.0143391
860.608	0.0143243
860.686	0.0143394
860.764	0.0143749
860.842	0.0143348
860.920	0.0143260
860.998	0.0141954
861.076	0.0143466
861.155	0.0142368
861.233	0.0142033
861.311	0.0143598
861.389	0.0142266
861.467	0.0141508
861.545	0.0142332
861.623	0.0141994
861.701	0.0142179
861.780	0.0142149
861.858	0.0142119
861.936	0.0141882
862.014	0.0143534
862.092	0.0142598
862.170	0.0141512
862.248	0.0142463
862.326	0.0142390
862.405	0.0142349
862.483	0.0143682
862.561	0.0142886
862.639	0.0144102
862.717	0.0144695
862.795	0.0143931
862.873	0.0144612
862.951	0.0145729
863.030	0.0145364
863.108	0.0145508
863.186	0.0146910
863.264	0.0145606
863.342	0.0145207
863.420	0.0145573
863.498	0.0146014
863.576	0.0146213
863.655	0.0145284
863.733	0.0145415
863.811	0.0146920
863.889	0.0146748
863.967	0.0144740
864.045	0.0145770
864.123	0.0145903
864.201	0.0145608
864.280	0.0145782
864.358	0.0145776
864.436	0.0144521
864.514	0.0143380
864.592	0.0144586
864.670	0.0145073
864.748	0.0143353
864.826	0.0144365
864.905	0.0144329
864.983	0.0143335
865.061	0.0143831
865.139	0.0144253
865.217	0.0143642
865.295	0.0144693
865.373	0.0144508
865.451	0.0143761
865.530	0.0143320
865.608	0.0145337
865.686	0.0144735
865.764	0.0143891
865.842	0.0142934
865.920	0.0142927
865.998	0.0141815
866.076	0.0143151
866.155	0.0143783
866.233	0.0141995
866.311	0.0141062
866.389	0.0142557
866.467	0.0142135
866.545	0.0142175
866.623	0.0142200
866.701	0.0142889
866.780	0.0142879
866.858	0.0143514
866.936	0.0144451
867.014	0.0143034
867.092	0.0143071
867.170	0.0144698
867.248	0.0143510
867.326	0.0142913
867.405	0.0143870
867.483	0.0142799
867.561	0.0144073
867.639	0.0143665
867.717	0.0142265
867.795	0.0143992
867.873	0.0143389
867.951	0.0142391
868.030	0.0143956
868.108	0.0143105
868.186	0.0143475
868.264	0.0144975
868.342	0.0145319
868.420	0.0144160
868.498	0.0143061
868.576	0.0143626
868.655	0.0144529
868.733	0.0143526
868.811	0.0144978
868.889	0.0144018
868.967	0.0145107
869.045	0.0145827
869.123	0.0146189
869.201	0.0145174
869.280	0.0145905
869.358	0.0145820
869.436	0.0145540
869.514	0.0147903
869.592	0.0145912
869.670	0.0145935
869.748	0.0147110
869.826	0.0145503
869.905	0.0146542
869.983	0.0145872
870.061	0.0144640
870.139	0.0146075
870.217	0.0145567
870.295	0.0145808
870.373	0.0144530
870.451	0.0143279
870.530	0.0144992
870.608	0.0143649
870.686	0.0143642
870.764	0.0142593
870.842	0.0142455
870.920	0.0142413
870.998	0.0143135
871.076	0.0143066
871.155	0.0142892
871.233	0.0143018
871.311	0.0142464
871.389	0.0142545
871.467	0.0143410
871.545	0.0142753
871.623	0.0143279
871.701	0.0143807
871.780	0.0143696
871.858	0.0143882
871.936	0.0141652
872.014	0.0143266
872.092	0.0143192
872.170	0.0143275
872.248	0.0143684
872.326	0.0143172
872.405	0.0143268
872.483	0.0143999
872.561	0.0143729
872.639	0.0145260
872.717	0.0143952
872.795	0.0141982
872.873	0.0143773
872.951	0.0143888
873.030	0.0143289
873.108	0.0142528
873.186	0.0144282
873.264	0.0143484
873.342	0.0143269
873.420	0.0143996
873.498	0.0145480
873.576	0.0143804
873.655	0.0144263
873.733	0.0144917
873.811	0.0144621
873.889	0.0144588
873.967	0.0145943
874.045	0.0145442
874.123	0.0144319
874.201	0.0144506
874.280	0.0144944
874.358	0.0145321
874.436	0.0144634
874.514	0.0145652
874.592	0.0146172
874.670	0.0145792
874.748	0.0145962
874.826	0.0143418
874.905	0.0144339
874.983	0.0145033
875.061	0.0144540
875.139	0.0145441
875.217	0.0144785
875.295	0.0145705
875.373	0.0146394
875.451	0.0145526
875.530	0.0144745
875.608	0.0145644
875.686	0.0144275
875.764	0.0144709
875.842	0.0146759
875.920	0.0146169
875.998	0.0144520
876.076	0.0143996
876.155	0.0144418
876.233	0.0145733
876.311	0.0143826
876.389	0.0144053
876.467	0.0143655
876.545	0.0143802
876.623	0.0143516
876.701	0.0142097
876.780	0.0143796
876.858	0.0142534
876.936	0.0143106
877.014	0.0143623
877.092	0.0142091
877.170	0.0141496
877.248	0.0143498
877.326	0.0143297
877.405	0.0142482
877.483	0.0143553
877.561	0.0142079
877.639	0.0143464
877.717	0.0143998
877.795	0.0142585
877.873	0.0144738
877.951	0.0142908
878.030	0.0144061
878.108	0.0144669
878.186	0.0144994
878.264	0.0143253
878.342	0.0144447
878.420	0.0144649
878.498	0.0144550
878.576	0.0143972
878.655	0.0144773
878.733	0.0143732
878.811	0.0143613
878.889	0.0144789
878.967	0.0145207
879.045	0.0144992
879.123	0.0145090
879.201	0.0143969
879.280	0.0144414
879.358	0.0145666
879.436	0.0144678
879.514	0.0145437
879.592	0.0146654
879.670	0.0146165
879.748	0.0145097
879.826	0.0145919
879.905	0.0146400
879.983	0.0145576
880.061	0.0144578
880.139	0.0145297
880.217	0.0145847
880.295	0.0145264
880.373	0.0144425
880.451	0.0144592
880.530	0.0145357
880.608	0.0143356
880.686	0.0143819
880.764	0.0143879
880.842	0.0143425
880.920	0.0143983
880.998	0.0142474
881.076	0.0143297
881.155	0.0143644
881.233	0.0143806
881.311	0.0142757
881.389	0.0142875
881.467	0.0143178
881.545	0.0143124
881.623	0.0144196
881.701	0.0143903
881.780	0.0143842
881.858	0.0144353
881.936	0.0145332
882.014	0.0144012
882.092	0.0143423
882.170	0.0143206
882.248	0.0143786
882.326	0.0144048
882.405	0.0143983
882.483	0.0144060
882.561	0.0143810
882.639	0.0143553
882.717	0.0143694
882.795	0.0145250
882.873	0.0143993
882.951	0.0142519
883.030	0.0143785
883.108	0.0143015
883.186	0.0143520
883.264	0.0143163
883.342	0.0143289
883.420	0.0143076
883.498	0.0142955
883.576	0.0141244
883.655	0.0141405
883.733	0.0142141
883.811	0.0142258
883.889	0.0140997
883.967	0.0142818
884.045	0.0142515
884.123	0.0143165
884.201	0.0144016
884.280	0.0144352
884.358	0.0144133
884.436	0.0143341
884.514	0.0143241
884.592	0.0143077
884.670	0.0143070
884.748	0.0145187
884.826	0.0144614
884.905	0.0144091
884.983	0.0144839
885.061	0.0144617
885.139	0.0144884
885.217	0.0145911
885.295	0.0144358
885.373	0.0144995
885.451	0.0146149
885.530	0.0144804
885.608	0.0145005
885.686	0.0144727
885.764	0.0144238
885.842	0.0142799
885.920	0.0144228
885.998	0.0143807
886.076	0.0144160
886.155	0.0141838
886.233	0.0143331
886.311	0.0144410
886.389	0.0144518
886.467	0.0142912
886.545	0.0143458
886.623	0.0144033
886.701	0.0144648
886.780	0.0144234
886.858	0.0145341
886.936	0.0144831
887.014	0.0145149
887.092	0.0144807
887.170	0.0143798
887.248	0.0144397
887.326	0.0144489
887.405	0.0144244
887.483	0.0145097
887.561	0.0143291
887.639	0.0144817
887.717	0.0144003
887.795	0.0144220
887.873	0.0143632
887.951	0.0143929
888.030	0.0141429
888.108	0.0143970
888.186	0.0144376
888.264	0.0144134
888.342	0.0142941
888.420	0.0141340
888.498	0.0142223
888.576	0.0142662
888.655	0.0142447
888.733	0.0141459
888.811	0.0141827
888.889	0.0141590
888.967	0.0141532
889.045	0.0141082
889.123	0.0139877
889.201	0.0140965
889.280	0.0141929
889.358	0.0140863
889.436	0.0143142
889.514	0.0142004
889.592	0.0142495
889.670	0.0143269
889.748	0.0144312
889.826	0.0145574
889.905	0.0144489
889.983	0.0144899
890.061	0.0144998
890.139	0.0145112
890.217	0.0145107
890.295	0.0145076
890.373	0.0144043
890.451	0.0144286
890.530	0.0145123
890.608	0.0144988
890.686	0.0144671
890.764	0.0145457
890.842	0.0144799
890.920	0.0144477
890.998	0.0145573
891.076	0.0145170
891.155	0.0146109
891.233	0.0144916
891.311	0.0143163
891.389	0.0144357
891.467	0.0144913
891.545	0.0144127
891.623	0.0143410
891.701	0.0142083
891.780	0.0142142
891.858	0.0141958
891.936	0.0141814
892.014	0.0142045
892.092	0.0141705
892.170	0.0142712
892.248	0.0142297
892.326	0.0142826
892.405	0.0141842
892.483	0.0142947
892.561	0.0143242
892.639	0.0143343
892.717	0.0142264
892.795	0.0144753
892.873	0.0144678
892.951	0.0143648
893.030	0.0143603
893.108	0.0142519
893.186	0.0143797
893.264	0.0143999
893.342	0.0143249
893.420	0.0144441
893.498	0.0143444
893.576	0.0143356
893.655	0.0143151
893.733	0.0141931
893.811	0.0142719
893.889	0.0144794
893.967	0.0143060
894.045	0.0143672
894.123	0.0143476
894.201	0.0143826
894.280	0.0143171
894.358	0.0144691
894.436	0.0143252
894.514	0.0143690
894.592	0.0143948
894.670	0.0143143
894.748	0.0143511
894.826	0.0145066
894.905	0.0143550
894.983	0.0142837
895.061	0.0142384
895.139	0.0142645
895.217	0.0143209
895.295	0.0143147
895.373	0.0144433
895.451	0.0144271
895.530	0.0142638
895.608	0.0142313
895.686	0.0143442
895.764	0.0144170
895.842	0.0143899
895.920	0.0145084
895.998	0.0145625
896.076	0.0145005
896.155	0.0145945
896.233	0.0145932
896.311	0.0145675
896.389	0.0145701
896.467	0.0147340
896.545	0.0146122
896.623	0.0143716
896.701	0.0144803
896.780	0.0144218
896.858	0.0143517
896.936	0.0142209
897.014	0.0141897
897.092	0.0142375
897.170	0.0140885
897.248	0.0141729
897.326	0.0142565
897.405	0.0141669
897.483	0.0141892
897.561	0.0144376
897.639	0.0145455
897.717	0.0145504
897.795	0.0146294
897.873	0.0146009
897.951	0.0146736
898.030	0.0146251
898.108	0.0146261
898.186	0.0147478
898.264	0.0146929
898.342	0.0146716
898.420	0.0145287
898.498	0.0145180
898.576	0.0145068
898.655	0.0143143
898.733	0.0143001
898.811	0.0142800
898.889	0.0144019
898.967	0.0142857
899.045	0.0141338
899.123	0.0140904
899.201	0.0141999
899.280	0.0139857
899.358	0.0143062
899.436	0.0142464
899.514	0.0141378
899.592	0.0140978
899.670	0.0141259
899.748	0.0143033
899.826	0.0141859
899.905	0.0143160
899.983	0.0143955
900.061	0.0144235
900.139	0.0143908
900.217	0.0144707
900.295	0.0144275
900.373	0.0143989
900.451	0.0145884
900.530	0.0147463
900.608	0.0146553
900.686	0.0145493
900.764	0.0145303
900.842	0.0143567
900.920	0.0144135
900.998	0.0143022
901.076	0.0143066
901.155	0.0142007
901.233	0.0143295
901.311	0.0143846
901.389	0.0143362
901.467	0.0142043
901.545	0.0145023
901.623	0.0144246
901.701	0.0142143
901.780	0.0144072
901.858	0.0144286
901.936	0.0145319
902.014	0.0145597
902.092	0.0145373
902.170	0.0144213
902.248	0.0145457
902.326	0.0145090
902.405	0.0144747
902.483	0.0144490
902.561	0.0144597
902.639	0.0144908
902.717	0.0144476
902.795	0.0143422
902.873	0.0143659
902.951	0.0144717
903.030	0.0142947
903.108	0.0145685
903.186	0.0147066
903.264	0.0145625
903.342	0.0145435
903.420	0.0145062
903.498	0.0146445
903.576	0.0146946
903.655	0.0147788
903.733	0.0146264
903.811	0.0146333
903.889	0.0145454
903.967	0.0146902
904.045	0.0145118
904.123	0.0144450
904.201	0.0144802
904.280	0.0144534
904.358	0.0145503
904.436	0.0141854
904.514	0.0140517
904.592	0.0142056
904.670	0.0142110
904.748	0.0139809
904.826	0.0139349
904.905	0.0137546
904.983	0.0138157
905.061	0.0139162
905.139	0.0137500
905.217	0.0138381
905.295	0.0139642
905.373	0.0138752
905.451	0.0140479
905.530	0.0140251
905.608	0.0142020
905.686	0.0141371
905.764	0.0143118
905.842	0.0144694
905.920	0.0145107
905.998	0.0145837
906.076	0.0146480
906.155	0.0146789
906.233	0.0145782
906.311	0.0146670
906.389	0.0146264
906.467	0.0147765
906.545	0.0148178
906.623	0.0146536
906.701	0.0146985
906.780	0.0145217
906.858	0.0145518
906.936	0.0146751
907.014	0.0144192
907.092	0.0144981
907.170	0.0145142
907.248	0.0143334
907.326	0.0143483
907.405	0.0144434
907.483	0.0144376
907.561	0.0143619
907.639	0.0143562
907.717	0.0144247
907.795	0.0143208
907.873	0.0145703
907.951	0.0144444
908.030	0.0143467
908.108	0.0144256
908.186	0.0144233
908.264	0.0143359
908.342	0.0142676
908.420	0.0142548
908.498	0.0144529
908.576	0.0142989
908.655	0.0142117
908.733	0.0142527
908.811	0.0142540
908.889	0.0142380
908.967	0.0141756
909.045	0.0143066
909.123	0.0143848
909.201	0.0143041
909.280	0.0142585
909.358	0.0142893
909.436	0.0143464
909.514	0.0143607
909.592	0.0143761
909.670	0.0143754
909.748	0.0144923
909.826	0.0145399
909.905	0.0144350
909.983	0.0145187
910.061	0.0145371
910.139	0.0144612
910.217	0.0143335
910.295	0.0143446
910.373	0.0143404
910.451	0.0143100
910.530	0.0142478
910.608	0.0141200
910.686	0.0140775
910.764	0.0140413
910.842	0.0142030
910.920	0.0140495
910.998	0.0140208
911.076	0.0141369
911.155	0.0140251
911.233	0.0142339
911.311	0.0142323
911.389	0.0141811
911.467	0.0143354
911.545	0.0143561
911.623	0.0144167
911.701	0.0143374
911.780	0.0144143
911.858	0.0145898
911.936	0.0145274
912.014	0.0146144
912.092	0.0146596
912.170	0.0146484
912.248	0.0146535
912.326	0.0146671
912.405	0.0146317
912.483	0.0146302
912.561	0.0145977
912.639	0.0146616
912.717	0.0145769
912.795	0.0146541
912.873	0.0145973
912.951	0.0145331
913.030	0.0146327
913.108	0.0144311
913.186	0.0143336
913.264	0.0144592
913.342	0.0144432
913.420	0.0143848
913.498	0.0144052
913.576	0.0143035
913.655	0.0142918
913.733	0.0142513
913.811	0.0142874
913.889	0.0144089
913.967	0.0143444
914.045	0.0143668
914.123	0.0143681
914.201	0.0144198
914.280	0.0142876
914.358	0.0144086
914.436	0.0144520
914.514	0.0142718
914.592	0.0143057
914.670	0.0143174
914.748	0.0143008
914.826	0.0143874
914.905	0.0143268
914.983	0.0144666
915.061	0.0143761
915.139	0.0144102
915.217	0.0145145
915.295	0.0144434
915.373	0.0144573
915.451	0.0146781
915.530	0.0145762
915.608	0.0145007
915.686	0.0146125
915.764	0.0146196
915.842	0.0145640
915.920	0.0146469
915.998	0.0144942
916.076	0.0144323
916.155	0.0145049
916.233	0.0144612
916.311	0.0143409
916.389	0.0143410
916.467	0.0142695
916.545	0.0142603
916.623	0.0143588
916.701	0.0142992
916.780	0.0143463
916.858	0.0141356
916.936	0.0142394
917.014	0.0142168
917.092	0.0140662
917.170	0.0141304
917.248	0.0140524
917.326	0.0141118
917.405	0.0140723
917.483	0.0140916
917.561	0.0140180
917.639	0.0140710
917.717	0.0141445
917.795	0.0141898
917.873	0.0143768
917.951	0.0144108
918.030	0.0144314
918.108	0.0144497
918.186	0.0145547
918.264	0.0147310
918.342	0.0147312
918.420	0.0147218
918.498	0.0146507
918.576	0.0147705
918.655	0.0147448
918.733	0.0147441
918.811	0.0148493
918.889	0.0148292
918.967	0.0148003
919.045	0.0147881
919.123	0.0146224
919.201	0.0145711
919.280	0.0145853
919.358	0.0145963
919.436	0.0144827
919.514	0.0144913
919.592	0.0145329
919.670	0.0142810
919.748	0.0141470
919.826	0.0142921
919.905	0.0143481
919.983	0.0141752
920.061	0.0142831
920.139	0.0142850
920.217	0.0142589
920.295	0.0141461
920.373	0.0142857
920.451	0.0143368
920.530	0.0142986
920.608	0.0143690
920.686	0.0142348
920.764	0.0141568
920.842	0.0142544
920.920	0.0142458
920.998	0.0140417
921.076	0.0140599
921.155	0.0141373
921.233	0.0141376
921.311	0.0140978
921.389	0.0141796
921.467	0.0142009
921.545	0.0142248
921.623	0.0142583
921.701	0.0142941
921.780	0.0143699
921.858	0.0145626
921.936	0.0144310
922.014	0.0143082
922.092	0.0143073
922.170	0.0145924
922.248	0.0144932
922.326	0.0144537
922.405	0.0144870
922.483	0.0145605
922.561	0.0143078
922.639	0.0144218
922.717	0.0144248
922.795	0.0144398
922.873	0.0143620
922.951	0.0143436
923.030	0.0143202
923.108	0.0142072
923.186	0.0143353
923.264	0.0143093
923.342	0.0143053
923.420	0.0141311
923.498	0.0140644
923.576	0.0140938
923.655	0.0141853
923.733	0.0142180
923.811	0.0142436
923.889	0.0142709
923.967	0.0142493
924.045	0.0142893
924.123	0.0142884
924.201	0.0143108
924.280	0.0144431
924.358	0.0144601
924.436	0.0145552
924.514	0.0145847
924.592	0.0146146
924.670	0.0146369
924.748	0.0147063
924.826	0.0146677
924.905	0.0148671
924.983	0.0147172
925.061	0.0148148
925.139	0.0148394
925.217	0.0146975
925.295	0.0147289
925.373	0.0146786
925.451	0.0145493
925.530	0.0145287
925.608	0.0144010
925.686	0.0144663
925.764	0.0143608
925.842	0.0142739
925.920	0.0142510
925.998	0.0141724
926.076	0.0141643
926.155	0.0140846
926.233	0.0141037
926.311	0.0140555
926.389	0.0141948
926.467	0.0140627
926.545	0.0140231
926.623	0.0141203
926.701	0.0141792
926.780	0.0142067
926.858	0.0141277
926.936	0.0141622
927.014	0.0141405
927.092	0.0142522
927.170	0.0142506
927.248	0.0142924
927.326	0.0142647
927.405	0.0142022
927.483	0.0142801
927.561	0.0143428
927.639	0.0145195
927.717	0.0144289
927.795	0.0144487
927.873	0.0145571
927.951	0.0144556
928.030	0.0145660
928.108	0.0147696
928.186	0.0145874
928.264	0.0144993
928.342	0.0146061
928.420	0.0146153
928.498	0.0146764
928.576	0.0146686
928.655	0.0147101
928.733	0.0146138
928.811	0.0145522
928.889	0.0145167
928.967	0.0146165
929.045	0.0145023
929.123	0.0145296
929.201	0.0144268
929.280	0.0143687
929.358	0.0142499
929.436	0.0142287
929.514	0.0140776
929.592	0.0141132
929.670	0.0142175
929.748	0.0140781
929.826	0.0140445
929.905	0.0141148
929.983	0.0141566
930.061	0.0140692
930.139	0.0142259
930.217	0.0142048
930.295	0.0140910
930.373	0.0142404
930.451	0.0143848
930.530	0.0143020
930.608	0.0144193
930.686	0.0145020
930.764	0.0142903
930.842	0.0145147
930.920	0.0145203
930.998	0.0145504
931.076	0.0145057
931.155	0.0145158
931.233	0.0145504
931.311	0.0145796
931.389	0.0145803
931.467	0.0143875
931.545	0.0145070
931.623	0.0144459
931.701	0.0145330
931.780	0.0143009
931.858	0.0144093
931.936	0.0144155
932.014	0.0144317
932.092	0.0142216
932.170	0.0142213
932.248	0.0143375
932.326	0.0143172
932.405	0.0142015
932.483	0.0142239
932.561	0.0142695
932.639	0.0143302
932.717	0.0143089
932.795	0.0143034
932.873	0.0143074
932.951	0.0143845
933.030	0.0143278
933.108	0.0143696
933.186	0.0146083
933.264	0.0145422
933.342	0.0143536
933.420	0.0144883
933.498	0.0144544
933.576	0.0143793
933.655	0.0144930
933.733	0.0143880
933.811	0.0145562
933.889	0.0146052
933.967	0.0144587
934.045	0.0144837
934.123	0.0144598
934.201	0.0145087
934.280	0.0144597
934.358	0.0146240
934.436	0.0145253
934.514	0.0146696
934.592	0.0147029
934.670	0.0145509
934.748	0.0145777
934.826	0.0145415
934.905	0.0145916
934.983	0.0145721
935.061	0.0146356
935.139	0.0146627
935.217	0.0145837
935.295	0.0145364
935.373	0.0145615
935.451	0.0145249
935.530	0.0144887
935.608	0.0145102
935.686	0.0144108
935.764	0.0142165
935.842	0.0141731
935.920	0.0141730
935.998	0.0142096
936.076	0.0142863
936.155	0.0141743
936.233	0.0141278
936.311	0.0141804
936.389	0.0142067
936.467	0.0141209
936.545	0.0142777
936.623	0.0143732
936.701	0.0142279
936.780	0.0142524
936.858	0.0144241
936.936	0.0143591
937.014	0.0142381
937.092	0.0145411
937.170	0.0144803
937.248	0.0144460
937.326	0.0143668
937.405	0.0144324
937.483	0.0144227
937.561	0.0143884
937.639	0.0143478
937.717	0.0144269
937.795	0.0143946
937.873	0.0143170
937.951	0.0143758
938.030	0.0143479
938.108	0.0143985
938.186	0.0142828
938.264	0.0143204
938.342	0.0144038
938.420	0.0144005
938.498	0.0144477
938.576	0.0144189
938.655	0.0144467
938.733	0.0143285
938.811	0.0144493
938.889	0.0144389
938.967	0.0144384
939.045	0.0145812
939.123	0.0145588
939.201	0.0146643
939.280	0.0145100
939.358	0.0143947
939.436	0.0144833
939.514	0.0145697
939.592	0.0145537
939.670	0.0144946
939.748	0.0145610
939.826	0.0144522
939.905	0.0144823
939.983	0.0144034
940.061	0.0143041
940.139	0.0143062
940.217	0.0144606
940.295	0.0142806
940.373	0.0142178
940.451	0.0141836
940.530	0.0144215
940.608	0.0142349
940.686	0.0141192
940.764	0.0141460
940.842	0.0142363
940.920	0.0142223
940.998	0.0143596
941.076	0.0142980
941.155	0.0143110
941.233	0.0142255
941.311	0.0142766
941.389	0.0142764
941.467	0.0142802
941.545	0.0141712
941.623	0.0143257
941.701	0.0142747
941.780	0.0145673
941.858	0.0142406
941.936	0.0143504
942.014	0.0143373
942.092	0.0141973
942.170	0.0142432
942.248	0.0143304
942.326	0.0143698
942.405	0.0143348
942.483	0.0143829
942.561	0.0143055
942.639	0.0143198
942.717	0.0143820
942.795	0.0144363
942.873	0.0143287
942.951	0.0144267
943.030	0.0143995
943.108	0.0144974
943.186	0.0144268
943.264	0.0143504
943.342	0.0143963
943.420	0.0144141
943.498	0.0144253
943.576	0.0145042
943.655	0.0143406
943.733	0.0143771
943.811	0.0143598
943.889	0.0144942
943.967	0.0144369
944.045	0.0143805
944.123	0.0143620
944.201	0.0143080
944.280	0.0143521
944.358	0.0142623
944.436	0.0144816
944.514	0.0143849
944.592	0.0144888
944.670	0.0143391
944.748	0.0142060
944.826	0.0143063
944.905	0.0144211
944.983	0.0143402
945.061	0.0142677
945.139	0.0143672
945.217	0.0142549
945.295	0.0143773
945.373	0.0143075
945.451	0.0142113
945.530	0.0141999
945.608	0.0142114
945.686	0.0142357
945.764	0.0142604
945.842	0.0142520
945.920	0.0142350
945.998	0.0143038
946.076	0.0141942
946.155	0.0141685
946.233	0.0141692
946.311	0.0141532
946.389	0.0141810
946.467	0.0141970
946.545	0.0141531
946.623	0.0141538
946.701	0.0140952
946.780	0.0140842
946.858	0.0142419
946.936	0.0141926
947.014	0.0143518
947.092	0.0143536
947.170	0.0143018
947.248	0.0143298
947.326	0.0143724
947.405	0.0144347
947.483	0.0145331
947.561	0.0146328
947.639	0.0145251
947.717	0.0144391
947.795	0.0145605
947.873	0.0147343
947.951	0.0147069
948.030	0.0146328
948.108	0.0146820
948.186	0.0146340
948.264	0.0147218
948.342	0.0147186
948.420	0.0146089
948.498	0.0146906
948.576	0.0145631
948.655	0.0145174
948.733	0.0145999
948.811	0.0145322
948.889	0.0146589
948.967	0.0146101
949.045	0.0146899
949.123	0.0145206
949.201	0.0144952
949.280	0.0145354
949.358	0.0145213
949.436	0.0143551
949.514	0.0143655
949.592	0.0143470
949.670	0.0145052
949.748	0.0144157
949.826	0.0142680
949.905	0.0144105
949.983	0.0142916
950.061	0.0143567
950.139	0.0144019
950.217	0.0142699
950.295	0.0141829
950.373	0.0143172
950.451	0.0142268
950.530	0.0141335
950.608	0.0142864
950.686	0.0142652
950.764	0.0142352
950.842	0.0142723
950.920	0.0142469
950.998	0.0141800
951.076	0.0142337
951.155	0.0141760
951.233	0.0142213
951.311	0.0142023
951.389	0.0143124
951.467	0.0142078
951.545	0.0141358
951.623	0.0142637
951.701	0.0141935
951.780	0.0142634
951.858	0.0142706
951.936	0.0142842
952.014	0.0142661
952.092	0.0143171
952.170	0.0144228
952.248	0.0142725
952.326	0.0142535
952.405	0.0143505
952.483	0.0142701
952.561	0.0144500
952.639	0.0143198
952.717	0.0143314
952.795	0.0143130
952.873	0.0143645
952.951	0.0144150
953.030	0.0145546
953.108	0.0144348
953.186	0.0144672
953.264	0.0145469
953.342	0.0146489
953.420	0.0146040
953.498	0.0146622
953.576	0.0145502
953.655	0.0146542
953.733	0.0146581
953.811	0.0147961
953.889	0.0146608
953.967	0.0147765
954.045	0.0147987
954.123	0.0147295
954.201	0.0148529
954.280	0.0147807
954.358	0.0148119
954.436	0.0147125
954.514	0.0147475
954.592	0.0147093
954.670	0.0145167
954.748	0.0145753
954.826	0.0146089
954.905	0.0144942
954.983	0.0144706
955.061	0.0143033
955.139	0.0142190
955.217	0.0144233
955.295	0.0142873
955.373	0.0143250
955.451	0.0143377
955.530	0.0143176
955.608	0.0144277
955.686	0.0142442
955.764	0.0143185
955.842	0.0141811
955.920	0.0143428
955.998	0.0143896
956.076	0.0143230
956.155	0.0142615
956.233	0.0142977
956.311	0.0142589
956.389	0.0141808
956.467	0.0143838
956.545	0.0143102
956.623	0.0144403
956.701	0.0143395
956.780	0.0142351
956.858	0.0143323
956.936	0.0144023
957.014	0.0141339
957.092	0.0142311
957.170	0.0144389
957.248	0.0142995
957.326	0.0142672
957.405	0.0142905
957.483	0.0141097
957.561	0.0141750
957.639	0.0141361
957.717	0.0142143
957.795	0.0141723
957.873	0.0141572
957.951	0.0142000
958.030	0.0143021
958.108	0.0143716
958.186	0.0144124
958.264	0.0143287
958.342	0.0145872
958.420	0.0144193
958.498	0.0144663
958.576	0.0143579
958.655	0.0144441
958.733	0.0146168
958.811	0.0144794
958.889	0.0145409
958.967	0.0145985
959.045	0.0146942
959.123	0.0145365
959.201	0.0145007
959.280	0.0144759
959.358	0.0145959
959.436	0.0145709
959.514	0.0144891
959.592	0.0146651
959.670	0.0145068
959.748	0.0144025
959.826	0.0144359
959.905	0.0143670
