05/20/2022	16:16:21	Ver.	4.1	UNKNOWN
Optical Delay	639.982744	Delta X		0.078125	Sweeps	1	Scan Rate	0/0
Coordinates	Axis 1	NaN	Axis 2	NaN	Axis 3	NaN	Axis 4	NaN	Axis 5	NaN	Axis 6	0.000000
TX Power	0.000000	RX Power	0.000000

639.983	0.0142645
640.061	0.0143008
640.139	0.0142778
640.217	0.0142583
640.295	0.0142964
640.373	0.0141800
640.451	0.0142488
640.530	0.0142796
640.608	0.0142870
640.686	0.0142103
640.764	0.0142266
640.842	0.0143309
640.920	0.0142847
640.998	0.0142469
641.076	0.0141315
641.155	0.0142187
641.233	0.0142768
641.311	0.0142357
641.389	0.0142277
641.467	0.0142896
641.545	0.0143267
641.623	0.0142646
641.701	0.0141693
641.780	0.0142883
641.858	0.0142596
641.936	0.0143607
642.014	0.0141901
642.092	0.0141928
642.170	0.0142208
642.248	0.0142013
642.326	0.0142206
642.405	0.0142075
642.483	0.0143021
642.561	0.0142815
642.639	0.0142509
642.717	0.0142730
642.795	0.0141901
642.873	0.0142446
642.951	0.0141691
643.030	0.0142903
643.108	0.0140493
643.186	0.0140923
643.264	0.0142059
643.342	0.0140421
643.420	0.0141780
643.498	0.0141523
643.576	0.0143979
643.655	0.0141698
643.733	0.0143249
643.811	0.0141296
643.889	0.0141839
643.967	0.0142377
644.045	0.0142365
644.123	0.0141046
644.201	0.0141042
644.280	0.0142313
644.358	0.0141559
644.436	0.0141531
644.514	0.0142126
644.592	0.0141733
644.670	0.0142278
644.748	0.0142876
644.826	0.0142488
644.905	0.0142236
644.983	0.0140984
645.061	0.0141003
645.139	0.0142130
645.217	0.0142652
645.295	0.0142388
645.373	0.0141032
645.451	0.0141783
645.530	0.0141166
645.608	0.0142943
645.686	0.0143320
645.764	0.0142454
645.842	0.0141307
645.920	0.0142896
645.998	0.0142542
646.076	0.0142292
646.155	0.0141691
646.233	0.0142211
646.311	0.0141668
646.389	0.0141863
646.467	0.0141531
646.545	0.0142522
646.623	0.0142390
646.701	0.0143164
646.780	0.0142075
646.858	0.0141611
646.936	0.0141822
647.014	0.0142894
647.092	0.0141548
647.170	0.0141417
647.248	0.0141111
647.326	0.0142209
647.405	0.0141461
647.483	0.0140875
647.561	0.0142103
647.639	0.0141289
647.717	0.0142902
647.795	0.0140708
647.873	0.0141797
647.951	0.0142439
648.030	0.0142035
648.108	0.0142108
648.186	0.0140936
648.264	0.0143195
648.342	0.0140870
648.420	0.0141801
648.498	0.0142751
648.576	0.0140898
648.655	0.0141940
648.733	0.0140960
648.811	0.0141387
648.889	0.0142590
648.967	0.0142346
649.045	0.0142457
649.123	0.0142465
649.201	0.0141292
649.280	0.0140570
649.358	0.0141051
649.436	0.0142627
649.514	0.0141936
649.592	0.0141843
649.670	0.0142410
649.748	0.0140539
649.826	0.0142302
649.905	0.0142630
649.983	0.0141129
650.061	0.0142704
650.139	0.0141209
650.217	0.0140550
650.295	0.0141167
650.373	0.0142194
650.451	0.0141958
650.530	0.0141872
650.608	0.0142911
650.686	0.0142318
650.764	0.0141709
650.842	0.0140929
650.920	0.0143917
650.998	0.0142986
651.076	0.0141460
651.155	0.0142845
651.233	0.0142822
651.311	0.0142271
651.389	0.0143010
651.467	0.0142995
651.545	0.0142724
651.623	0.0141606
651.701	0.0142236
651.780	0.0142587
651.858	0.0142657
651.936	0.0142789
652.014	0.0141137
652.092	0.0142205
652.170	0.0143124
652.248	0.0143144
652.326	0.0140773
652.405	0.0141728
652.483	0.0142074
652.561	0.0141454
652.639	0.0142924
652.717	0.0142541
652.795	0.0143807
652.873	0.0141282
652.951	0.0142326
653.030	0.0141329
653.108	0.0143495
653.186	0.0142506
653.264	0.0141124
653.342	0.0140881
653.420	0.0143044
653.498	0.0141725
653.576	0.0141325
653.655	0.0141370
653.733	0.0141471
653.811	0.0143289
653.889	0.0141753
653.967	0.0142408
654.045	0.0142262
654.123	0.0142440
654.201	0.0142212
654.280	0.0141497
654.358	0.0142609
654.436	0.0142862
654.514	0.0140733
654.592	0.0143278
654.670	0.0142635
654.748	0.0141858
654.826	0.0143187
654.905	0.0142637
654.983	0.0141711
655.061	0.0142338
655.139	0.0142363
655.217	0.0141764
655.295	0.0142836
655.373	0.0142378
655.451	0.0141879
655.530	0.0144089
655.608	0.0141518
655.686	0.0140997
655.764	0.0142540
655.842	0.0141898
655.920	0.0143237
655.998	0.0142347
656.076	0.0141842
656.155	0.0141534
656.233	0.0141922
656.311	0.0142343
656.389	0.0143222
656.467	0.0141828
656.545	0.0141367
656.623	0.0141927
656.701	0.0141362
656.780	0.0143692
656.858	0.0144067
656.936	0.0141718
657.014	0.0141700
657.092	0.0141161
657.170	0.0142113
657.248	0.0143906
657.326	0.0143243
657.405	0.0141014
657.483	0.0141444
657.561	0.0141978
657.639	0.0141589
657.717	0.0142030
657.795	0.0142404
657.873	0.0142304
657.951	0.0141440
658.030	0.0142056
658.108	0.0141013
658.186	0.0141767
658.264	0.0141173
658.342	0.0141184
658.420	0.0142461
658.498	0.0142276
658.576	0.0142039
658.655	0.0142656
658.733	0.0141988
658.811	0.0142213
658.889	0.0142184
658.967	0.0140450
659.045	0.0141195
659.123	0.0141559
659.201	0.0141998
659.280	0.0142829
659.358	0.0142393
659.436	0.0142247
659.514	0.0142198
659.592	0.0142004
659.670	0.0141526
659.748	0.0140656
659.826	0.0141687
659.905	0.0142551
659.983	0.0142931
660.061	0.0141624
660.139	0.0142039
660.217	0.0141695
660.295	0.0142393
660.373	0.0141599
660.451	0.0142224
660.530	0.0143054
660.608	0.0141173
660.686	0.0140984
660.764	0.0141689
660.842	0.0142345
660.920	0.0140922
660.998	0.0142864
661.076	0.0142196
661.155	0.0141721
661.233	0.0141605
661.311	0.0142249
661.389	0.0141920
661.467	0.0142825
661.545	0.0141441
661.623	0.0142242
661.701	0.0142236
661.780	0.0142341
661.858	0.0141354
661.936	0.0142095
662.014	0.0142386
662.092	0.0141604
662.170	0.0141054
662.248	0.0142136
662.326	0.0142792
662.405	0.0141927
662.483	0.0141080
662.561	0.0142284
662.639	0.0143853
662.717	0.0142181
662.795	0.0141855
662.873	0.0141511
662.951	0.0142719
663.030	0.0141379
663.108	0.0141862
663.186	0.0142133
663.264	0.0140809
663.342	0.0140970
663.420	0.0142319
663.498	0.0142013
663.576	0.0141879
663.655	0.0142185
663.733	0.0142379
663.811	0.0141898
663.889	0.0142764
663.967	0.0141759
664.045	0.0142093
664.123	0.0143035
664.201	0.0141611
664.280	0.0142168
664.358	0.0141972
664.436	0.0141404
664.514	0.0141928
664.592	0.0141784
664.670	0.0141751
664.748	0.0142548
664.826	0.0142419
664.905	0.0141278
664.983	0.0142718
665.061	0.0141720
665.139	0.0142204
665.217	0.0142189
665.295	0.0141732
665.373	0.0142143
665.451	0.0141506
665.530	0.0142701
665.608	0.0141297
665.686	0.0142987
665.764	0.0141803
665.842	0.0141332
665.920	0.0142153
665.998	0.0140765
666.076	0.0142583
666.155	0.0141294
666.233	0.0142344
666.311	0.0141169
666.389	0.0142319
666.467	0.0141937
666.545	0.0142533
666.623	0.0141357
666.701	0.0142032
666.780	0.0141170
666.858	0.0141980
666.936	0.0141935
667.014	0.0142002
667.092	0.0141781
667.170	0.0142703
667.248	0.0141390
667.326	0.0140557
667.405	0.0141692
667.483	0.0141142
667.561	0.0141010
667.639	0.0142313
667.717	0.0142095
667.795	0.0141917
667.873	0.0141959
667.951	0.0142294
668.030	0.0140707
668.108	0.0142682
668.186	0.0143028
668.264	0.0142673
668.342	0.0142088
668.420	0.0142906
668.498	0.0142414
668.576	0.0142487
668.655	0.0140168
668.733	0.0141322
668.811	0.0142049
668.889	0.0142421
668.967	0.0143192
669.045	0.0142931
669.123	0.0142644
669.201	0.0143046
669.280	0.0142796
669.358	0.0141750
669.436	0.0142638
669.514	0.0141025
669.592	0.0142107
669.670	0.0141832
669.748	0.0142788
669.826	0.0140916
669.905	0.0141473
669.983	0.0142660
670.061	0.0142098
670.139	0.0142509
670.217	0.0142457
670.295	0.0142637
670.373	0.0141926
670.451	0.0142621
670.530	0.0141178
670.608	0.0141810
670.686	0.0140987
670.764	0.0141999
670.842	0.0142513
670.920	0.0141838
670.998	0.0142286
671.076	0.0142262
671.155	0.0141811
671.233	0.0141250
671.311	0.0143497
671.389	0.0142654
671.467	0.0142849
671.545	0.0142677
671.623	0.0141864
671.701	0.0142287
671.780	0.0143146
671.858	0.0142992
671.936	0.0143058
672.014	0.0141644
672.092	0.0141472
672.170	0.0142010
672.248	0.0141712
672.326	0.0141497
672.405	0.0143158
672.483	0.0141958
672.561	0.0141544
672.639	0.0141418
672.717	0.0143525
672.795	0.0141392
672.873	0.0141285
672.951	0.0142461
673.030	0.0142143
673.108	0.0142760
673.186	0.0142873
673.264	0.0142349
673.342	0.0142297
673.420	0.0141852
673.498	0.0141680
673.576	0.0143047
673.655	0.0141501
673.733	0.0142594
673.811	0.0142044
673.889	0.0142892
673.967	0.0142287
674.045	0.0142348
674.123	0.0142129
674.201	0.0141915
674.280	0.0143510
674.358	0.0141670
674.436	0.0142780
674.514	0.0141277
674.592	0.0142799
674.670	0.0142113
674.748	0.0142127
674.826	0.0142297
674.905	0.0142347
674.983	0.0143446
675.061	0.0142749
675.139	0.0141883
675.217	0.0142910
675.295	0.0142581
675.373	0.0142774
675.451	0.0142666
675.530	0.0142770
675.608	0.0141482
675.686	0.0142554
675.764	0.0141289
675.842	0.0143110
675.920	0.0142746
675.998	0.0142386
676.076	0.0142087
676.155	0.0142256
676.233	0.0142143
676.311	0.0141308
676.389	0.0141696
676.467	0.0141978
676.545	0.0140870
676.623	0.0143273
676.701	0.0141721
676.780	0.0143402
676.858	0.0142516
676.936	0.0143086
677.014	0.0142086
677.092	0.0142197
677.170	0.0140756
677.248	0.0141827
677.326	0.0143320
677.405	0.0143012
677.483	0.0142816
677.561	0.0142534
677.639	0.0142654
677.717	0.0142722
677.795	0.0142311
677.873	0.0142916
677.951	0.0142719
678.030	0.0142784
678.108	0.0141210
678.186	0.0141892
678.264	0.0141900
678.342	0.0142974
678.420	0.0143179
678.498	0.0142526
678.576	0.0140842
678.655	0.0141197
678.733	0.0141733
678.811	0.0141686
678.889	0.0141785
678.967	0.0140198
679.045	0.0141451
679.123	0.0140047
679.201	0.0140922
679.280	0.0141412
679.358	0.0140620
679.436	0.0140237
679.514	0.0141972
679.592	0.0142635
679.670	0.0142796
679.748	0.0142331
679.826	0.0142201
679.905	0.0143515
679.983	0.0142588
680.061	0.0142780
680.139	0.0145061
680.217	0.0143308
680.295	0.0144145
680.373	0.0142041
680.451	0.0141583
680.530	0.0141528
680.608	0.0142103
680.686	0.0142191
680.764	0.0141885
680.842	0.0140862
680.920	0.0141724
680.998	0.0140506
681.076	0.0140961
681.155	0.0140681
681.233	0.0141342
681.311	0.0140555
681.389	0.0140447
681.467	0.0140730
681.545	0.0140800
681.623	0.0140147
681.701	0.0141737
681.780	0.0141204
681.858	0.0140434
681.936	0.0142492
682.014	0.0142274
682.092	0.0142466
682.170	0.0143168
682.248	0.0143179
682.326	0.0142773
682.405	0.0144804
682.483	0.0141893
682.561	0.0143074
682.639	0.0142086
682.717	0.0143082
682.795	0.0142835
682.873	0.0143044
682.951	0.0142480
683.030	0.0141390
683.108	0.0141903
683.186	0.0141666
683.264	0.0141063
683.342	0.0140577
683.420	0.0142692
683.498	0.0142171
683.576	0.0141656
683.655	0.0141307
683.733	0.0140629
683.811	0.0141576
683.889	0.0141508
683.967	0.0140009
684.045	0.0141268
684.123	0.0140924
684.201	0.0140428
684.280	0.0138922
684.358	0.0140576
684.436	0.0141549
684.514	0.0141428
684.592	0.0142429
684.670	0.0141784
684.748	0.0143373
684.826	0.0144805
684.905	0.0144310
684.983	0.0143912
685.061	0.0144034
685.139	0.0144587
685.217	0.0145389
685.295	0.0145119
685.373	0.0144480
685.451	0.0143833
685.530	0.0142655
685.608	0.0141288
685.686	0.0140849
685.764	0.0140455
685.842	0.0138226
685.920	0.0137566
685.998	0.0137234
686.076	0.0137062
686.155	0.0138309
686.233	0.0138333
686.311	0.0137689
686.389	0.0139527
686.467	0.0141132
686.545	0.0141713
686.623	0.0141493
686.701	0.0143102
686.780	0.0142847
686.858	0.0142751
686.936	0.0142719
687.014	0.0142556
687.092	0.0139875
687.170	0.0139650
687.248	0.0139267
687.326	0.0139031
687.405	0.0139843
687.483	0.0139175
687.561	0.0139320
687.639	0.0141918
687.717	0.0143192
687.795	0.0143478
687.873	0.0144473
687.951	0.0146080
688.030	0.0146705
688.108	0.0148137
688.186	0.0148456
688.264	0.0146989
688.342	0.0147140
688.420	0.0144526
688.498	0.0143306
688.576	0.0143419
688.655	0.0140859
688.733	0.0140787
688.811	0.0139912
688.889	0.0139671
688.967	0.0139851
689.045	0.0139915
689.123	0.0140337
689.201	0.0141272
689.280	0.0141495
689.358	0.0141600
689.436	0.0141711
689.514	0.0143741
689.592	0.0143137
689.670	0.0143394
689.748	0.0142663
689.826	0.0142531
689.905	0.0141202
689.983	0.0141975
690.061	0.0142069
690.139	0.0142381
690.217	0.0141902
690.295	0.0143134
690.373	0.0143179
690.451	0.0142150
690.530	0.0141739
690.608	0.0141687
690.686	0.0141700
690.764	0.0140270
690.842	0.0140054
690.920	0.0138077
690.998	0.0136511
691.076	0.0135365
691.155	0.0134322
691.233	0.0130116
691.311	0.0133074
691.389	0.0133403
691.467	0.0132952
691.545	0.0134924
691.623	0.0138493
691.701	0.0141406
691.780	0.0145992
691.858	0.0148097
691.936	0.0150404
692.014	0.0152335
692.092	0.0153935
692.170	0.0156659
692.248	0.0157020
692.326	0.0155772
692.405	0.0155442
692.483	0.0155950
692.561	0.0155384
692.639	0.0153047
692.717	0.0150330
692.795	0.0149856
692.873	0.0147142
692.951	0.0146204
693.030	0.0144041
693.108	0.0141818
693.186	0.0140838
693.264	0.0140809
693.342	0.0138897
693.420	0.0136794
693.498	0.0138226
693.576	0.0137382
693.655	0.0137708
693.733	0.0137018
693.811	0.0137460
693.889	0.0138027
693.967	0.0139505
694.045	0.0139785
694.123	0.0139755
694.201	0.0140046
694.280	0.0138486
694.358	0.0139502
694.436	0.0135963
694.514	0.0137930
694.592	0.0137486
694.670	0.0137939
694.748	0.0137030
694.826	0.0137906
694.905	0.0137904
694.983	0.0140211
695.061	0.0140939
695.139	0.0143038
695.217	0.0142511
695.295	0.0145268
695.373	0.0148445
695.451	0.0148605
695.530	0.0146841
695.608	0.0148329
695.686	0.0147887
695.764	0.0146523
695.842	0.0144479
695.920	0.0143243
695.998	0.0142524
696.076	0.0139046
696.155	0.0137630
696.233	0.0137398
696.311	0.0135026
696.389	0.0134560
696.467	0.0136688
696.545	0.0135397
696.623	0.0137099
696.701	0.0139300
696.780	0.0140197
696.858	0.0142525
696.936	0.0144575
697.014	0.0145978
697.092	0.0148903
697.170	0.0150180
697.248	0.0152353
697.326	0.0152486
697.405	0.0151028
697.483	0.0153558
697.561	0.0154501
697.639	0.0152094
697.717	0.0151373
697.795	0.0151373
697.873	0.0150620
697.951	0.0149898
698.030	0.0149327
698.108	0.0148788
698.186	0.0147923
698.264	0.0147398
698.342	0.0146520
698.420	0.0147098
698.498	0.0147366
698.576	0.0148698
698.655	0.0148724
698.733	0.0149760
698.811	0.0150870
698.889	0.0152707
698.967	0.0153864
699.045	0.0153722
699.123	0.0154300
699.201	0.0152531
699.280	0.0154331
699.358	0.0150258
699.436	0.0148693
699.514	0.0145306
699.592	0.0141325
699.670	0.0137428
699.748	0.0133369
699.826	0.0127912
699.905	0.0122112
699.983	0.0118980
700.061	0.0114588
700.139	0.0113017
700.217	0.0112405
700.295	0.0109678
700.373	0.0107835
700.451	0.0107305
700.530	0.0109098
700.608	0.0110162
700.686	0.0110555
700.764	0.0110621
700.842	0.0113519
700.920	0.0115987
700.998	0.0119532
701.076	0.0122448
701.155	0.0126309
701.233	0.0131261
701.311	0.0137662
701.389	0.0142506
701.467	0.0147657
701.545	0.0152055
701.623	0.0158424
701.701	0.0163114
701.780	0.0170649
701.858	0.0173798
701.936	0.0177657
702.014	0.0180621
702.092	0.0180952
702.170	0.0181657
702.248	0.0181750
702.326	0.0181820
702.405	0.0181112
702.483	0.0179260
702.561	0.0179490
702.639	0.0178133
702.717	0.0178181
702.795	0.0176815
702.873	0.0175076
702.951	0.0173835
703.030	0.0169994
703.108	0.0167818
703.186	0.0165902
703.264	0.0161540
703.342	0.0156698
703.420	0.0151379
703.498	0.0145729
703.576	0.0141163
703.655	0.0134631
703.733	0.0128542
703.811	0.0122464
703.889	0.0116068
703.967	0.0112688
704.045	0.0107030
704.123	0.0106246
704.201	0.0102992
704.280	0.00996811
704.358	0.00980606
704.436	0.00989471
704.514	0.00982468
704.592	0.0101876
704.670	0.0103898
704.748	0.0106186
704.826	0.0108058
704.905	0.0111738
704.983	0.0116380
705.061	0.0119764
705.139	0.0124438
705.217	0.0127985
705.295	0.0131594
705.373	0.0133003
705.451	0.0136604
705.530	0.0137829
705.608	0.0139556
705.686	0.0139297
705.764	0.0141105
705.842	0.0141118
705.920	0.0140683
705.998	0.0139935
706.076	0.0140134
706.155	0.0141242
706.233	0.0140621
706.311	0.0141875
706.389	0.0143597
706.467	0.0143991
706.545	0.0146700
706.623	0.0149490
706.701	0.0152631
706.780	0.0154098
706.858	0.0155728
706.936	0.0158405
707.014	0.0162395
707.092	0.0164895
707.170	0.0168438
707.248	0.0170415
707.326	0.0172058
707.405	0.0176264
707.483	0.0176628
707.561	0.0178333
707.639	0.0177991
707.717	0.0177255
707.795	0.0175422
707.873	0.0173312
707.951	0.0170489
708.030	0.0167527
708.108	0.0162875
708.186	0.0160315
708.264	0.0155699
708.342	0.0152536
708.420	0.0147794
708.498	0.0145203
708.576	0.0142388
708.655	0.0140134
708.733	0.0139828
708.811	0.0136820
708.889	0.0135873
708.967	0.0135494
709.045	0.0134103
709.123	0.0131648
709.201	0.0130132
709.280	0.0127291
709.358	0.0124060
709.436	0.0122175
709.514	0.0117574
709.592	0.0114600
709.670	0.0112465
709.748	0.0108681
709.826	0.0107235
709.905	0.0106506
709.983	0.0105878
710.061	0.0105120
710.139	0.0106128
710.217	0.0107865
710.295	0.0110548
710.373	0.0112983
710.451	0.0116512
710.530	0.0121569
710.608	0.0126595
710.686	0.0132481
710.764	0.0134747
710.842	0.0139388
710.920	0.0144330
710.998	0.0149073
711.076	0.0152531
711.155	0.0157530
711.233	0.0158929
711.311	0.0160455
711.389	0.0162435
711.467	0.0161401
711.545	0.0160634
711.623	0.0158343
711.701	0.0153485
711.780	0.0150150
711.858	0.0144350
711.936	0.0141297
712.014	0.0136517
712.092	0.0131342
712.170	0.0128803
712.248	0.0126881
712.326	0.0125230
712.405	0.0125890
712.483	0.0126034
712.561	0.0126793
712.639	0.0131254
712.717	0.0134842
712.795	0.0139624
712.873	0.0144537
712.951	0.0150513
713.030	0.0153961
713.108	0.0159030
713.186	0.0164320
713.264	0.0167155
713.342	0.0171555
713.420	0.0173602
713.498	0.0177321
713.576	0.0179025
713.655	0.0181159
713.733	0.0181464
713.811	0.0180869
713.889	0.0178024
713.967	0.0178243
714.045	0.0174616
714.123	0.0172391
714.201	0.0167951
714.280	0.0163686
714.358	0.0160261
714.436	0.0156957
714.514	0.0153413
714.592	0.0150095
714.670	0.0147437
714.748	0.0145947
714.826	0.0141164
714.905	0.0139658
714.983	0.0139558
715.061	0.0136768
715.139	0.0134337
715.217	0.0132790
715.295	0.0128749
715.373	0.0125012
715.451	0.0122105
715.530	0.0119586
715.608	0.0116130
715.686	0.0110307
715.764	0.0106083
715.842	0.0104964
715.920	0.0102122
715.998	0.0100086
716.076	0.0100513
716.155	0.0101245
716.233	0.0104342
716.311	0.0106051
716.389	0.0109350
716.467	0.0112828
716.545	0.0116547
716.623	0.0120275
716.701	0.0126088
716.780	0.0129626
716.858	0.0134746
716.936	0.0139084
717.014	0.0142890
717.092	0.0145426
717.170	0.0148991
717.248	0.0152341
717.326	0.0153669
717.405	0.0156167
717.483	0.0159702
717.561	0.0159484
717.639	0.0161518
717.717	0.0161618
717.795	0.0159931
717.873	0.0158590
717.951	0.0156448
718.030	0.0153080
718.108	0.0149828
718.186	0.0146011
718.264	0.0140407
718.342	0.0137618
718.420	0.0136336
718.498	0.0134960
718.576	0.0133675
718.655	0.0135329
718.733	0.0136092
718.811	0.0138206
718.889	0.0142436
718.967	0.0146169
719.045	0.0151098
719.123	0.0154494
719.201	0.0158125
719.280	0.0163988
719.358	0.0169736
719.436	0.0172228
719.514	0.0175533
719.592	0.0176723
719.670	0.0177547
719.748	0.0177582
719.826	0.0178744
719.905	0.0176766
719.983	0.0175974
720.061	0.0173079
720.139	0.0169144
720.217	0.0164414
720.295	0.0163263
720.373	0.0159547
720.451	0.0156087
720.530	0.0154295
720.608	0.0152058
720.686	0.0149435
720.764	0.0145904
720.842	0.0144422
720.920	0.0143198
720.998	0.0140491
721.076	0.0137912
721.155	0.0136576
721.233	0.0133772
721.311	0.0131158
721.389	0.0128171
721.467	0.0125471
721.545	0.0120898
721.623	0.0118376
721.701	0.0114944
721.780	0.0112351
721.858	0.0109658
721.936	0.0105471
722.014	0.0102867
722.092	0.0100357
722.170	0.0100291
722.248	0.00990784
722.326	0.0100152
722.405	0.0102306
722.483	0.0104648
722.561	0.0106532
722.639	0.0110178
722.717	0.0113792
722.795	0.0119730
722.873	0.0123193
722.951	0.0128259
723.030	0.0131857
723.108	0.0137635
723.186	0.0141923
723.264	0.0145065
723.342	0.0148956
723.420	0.0152097
723.498	0.0155431
723.576	0.0158689
723.655	0.0162733
723.733	0.0162376
723.811	0.0163597
723.889	0.0164704
723.967	0.0165620
724.045	0.0165296
724.123	0.0162786
724.201	0.0161114
724.280	0.0159771
724.358	0.0156828
724.436	0.0154079
724.514	0.0150568
724.592	0.0149135
724.670	0.0146259
724.748	0.0142068
724.826	0.0140690
724.905	0.0140614
724.983	0.0139072
725.061	0.0137363
725.139	0.0139070
725.217	0.0140222
725.295	0.0141644
725.373	0.0142986
725.451	0.0143831
725.530	0.0147137
725.608	0.0150947
725.686	0.0152714
725.764	0.0156151
725.842	0.0157426
725.920	0.0160617
725.998	0.0164371
726.076	0.0165941
726.155	0.0166453
726.233	0.0167409
726.311	0.0166193
726.389	0.0167284
726.467	0.0167635
726.545	0.0165234
726.623	0.0163039
726.701	0.0160053
726.780	0.0156357
726.858	0.0152344
726.936	0.0148293
727.014	0.0144975
727.092	0.0143575
727.170	0.0138862
727.248	0.0135551
727.326	0.0134966
727.405	0.0134336
727.483	0.0131957
727.561	0.0131847
727.639	0.0131836
727.717	0.0130763
727.795	0.0130490
727.873	0.0128835
727.951	0.0129187
728.030	0.0128185
728.108	0.0125409
728.186	0.0123755
728.264	0.0120361
728.342	0.0117962
728.420	0.0116618
728.498	0.0114455
728.576	0.0112889
728.655	0.0109972
728.733	0.0107708
728.811	0.0106828
728.889	0.0106836
728.967	0.0105956
729.045	0.0106696
729.123	0.0109073
729.201	0.0111892
729.280	0.0114180
729.358	0.0119299
729.436	0.0122365
729.514	0.0129619
729.592	0.0136044
729.670	0.0141142
729.748	0.0148289
729.826	0.0155314
729.905	0.0159686
729.983	0.0164114
730.061	0.0168929
730.139	0.0171945
730.217	0.0174541
730.295	0.0174450
730.373	0.0174742
730.451	0.0172962
730.530	0.0171317
730.608	0.0167152
730.686	0.0164033
730.764	0.0159454
730.842	0.0156241
730.920	0.0152952
730.998	0.0148745
731.076	0.0145182
731.155	0.0141632
731.233	0.0139870
731.311	0.0136517
731.389	0.0133782
731.467	0.0132907
731.545	0.0131169
731.623	0.0132388
731.701	0.0132533
731.780	0.0131763
731.858	0.0134950
731.936	0.0137106
732.014	0.0141302
732.092	0.0144617
732.170	0.0145523
732.248	0.0150749
732.326	0.0153863
732.405	0.0157176
732.483	0.0159969
732.561	0.0160477
732.639	0.0160464
732.717	0.0161432
732.795	0.0161696
732.873	0.0159184
732.951	0.0159443
733.030	0.0156032
733.108	0.0153645
733.186	0.0152177
733.264	0.0148529
733.342	0.0145350
733.420	0.0143849
733.498	0.0142165
733.576	0.0139420
733.655	0.0137170
733.733	0.0134809
733.811	0.0134782
733.889	0.0133974
733.967	0.0132854
734.045	0.0132207
734.123	0.0131387
734.201	0.0132818
734.280	0.0133139
734.358	0.0132966
734.436	0.0134193
734.514	0.0134747
734.592	0.0135738
734.670	0.0135117
734.748	0.0134937
734.826	0.0133403
734.905	0.0133234
734.983	0.0130206
735.061	0.0128778
735.139	0.0126380
735.217	0.0123689
735.295	0.0121043
735.373	0.0120530
735.451	0.0118182
735.530	0.0116599
735.608	0.0116721
735.686	0.0117745
735.764	0.0120191
735.842	0.0121697
735.920	0.0124649
735.998	0.0128848
736.076	0.0131887
736.155	0.0137440
736.233	0.0140670
736.311	0.0145745
736.389	0.0149446
736.467	0.0152799
736.545	0.0155614
736.623	0.0156878
736.701	0.0158764
736.780	0.0160388
736.858	0.0162939
736.936	0.0162483
737.014	0.0161159
737.092	0.0160085
737.170	0.0160031
737.248	0.0158696
737.326	0.0156817
737.405	0.0152879
737.483	0.0150643
737.561	0.0147971
737.639	0.0144414
737.717	0.0141485
737.795	0.0141058
737.873	0.0139165
737.951	0.0137410
738.030	0.0136617
738.108	0.0135259
738.186	0.0135050
738.264	0.0134854
738.342	0.0134341
738.420	0.0134336
738.498	0.0135975
738.576	0.0138097
738.655	0.0138805
738.733	0.0141586
738.811	0.0143081
738.889	0.0144433
738.967	0.0147121
739.045	0.0148447
739.123	0.0151642
739.201	0.0152538
739.280	0.0153513
739.358	0.0155283
739.436	0.0156774
739.514	0.0155308
739.592	0.0155949
739.670	0.0155447
739.748	0.0154642
739.826	0.0155795
739.905	0.0155581
739.983	0.0152611
740.061	0.0151333
740.139	0.0150034
740.217	0.0145795
740.295	0.0145178
740.373	0.0141427
740.451	0.0139070
740.530	0.0137519
740.608	0.0135059
740.686	0.0134482
740.764	0.0133525
740.842	0.0133073
740.920	0.0132443
740.998	0.0134068
741.076	0.0134406
741.155	0.0135377
741.233	0.0136627
741.311	0.0138834
741.389	0.0137706
741.467	0.0140440
741.545	0.0140784
741.623	0.0140378
741.701	0.0138148
741.780	0.0138124
741.858	0.0137480
741.936	0.0135316
742.014	0.0132164
742.092	0.0131393
742.170	0.0130007
742.248	0.0127266
742.326	0.0125465
742.405	0.0125821
742.483	0.0125446
742.561	0.0125013
742.639	0.0127414
742.717	0.0127214
742.795	0.0131627
742.873	0.0133182
742.951	0.0134177
743.030	0.0139839
743.108	0.0143523
743.186	0.0146420
743.264	0.0148431
743.342	0.0151196
743.420	0.0154587
743.498	0.0156693
743.576	0.0157891
743.655	0.0160672
743.733	0.0161014
743.811	0.0160451
743.889	0.0159644
743.967	0.0159328
744.045	0.0158372
744.123	0.0154098
744.201	0.0152451
744.280	0.0150118
744.358	0.0147128
744.436	0.0143495
744.514	0.0139750
744.592	0.0138654
744.670	0.0136784
744.748	0.0134808
744.826	0.0131863
744.905	0.0132682
744.983	0.0131904
745.061	0.0131229
745.139	0.0132059
745.217	0.0133275
745.295	0.0133957
745.373	0.0137065
745.451	0.0139213
745.530	0.0141983
745.608	0.0142120
745.686	0.0143563
745.764	0.0147321
745.842	0.0148833
745.920	0.0150780
745.998	0.0151122
746.076	0.0154065
746.155	0.0155683
746.233	0.0154362
746.311	0.0157782
746.389	0.0156294
746.467	0.0156232
746.545	0.0155267
746.623	0.0153596
746.701	0.0152815
746.780	0.0151978
746.858	0.0148631
746.936	0.0144772
747.014	0.0143694
747.092	0.0142577
747.170	0.0139697
747.248	0.0137837
747.326	0.0136161
747.405	0.0135345
747.483	0.0134782
747.561	0.0133959
747.639	0.0134354
747.717	0.0134924
747.795	0.0135818
747.873	0.0136272
747.951	0.0138012
748.030	0.0137411
748.108	0.0138666
748.186	0.0140343
748.264	0.0141856
748.342	0.0142518
748.420	0.0142262
748.498	0.0142034
748.576	0.0142523
748.655	0.0142105
748.733	0.0140168
748.811	0.0137771
748.889	0.0137045
748.967	0.0137565
749.045	0.0134174
749.123	0.0134515
749.201	0.0132379
749.280	0.0132574
749.358	0.0132993
749.436	0.0132284
749.514	0.0134071
749.592	0.0135282
749.670	0.0134234
749.748	0.0136256
749.826	0.0139220
749.905	0.0140437
749.983	0.0143308
750.061	0.0142857
750.139	0.0145844
750.217	0.0146670
750.295	0.0147482
750.373	0.0148579
750.451	0.0150713
750.530	0.0151247
750.608	0.0151366
750.686	0.0151087
750.764	0.0153909
750.842	0.0152731
750.920	0.0150898
750.998	0.0149588
751.076	0.0148886
751.155	0.0148133
751.233	0.0146011
751.311	0.0143710
751.389	0.0142399
751.467	0.0141695
751.545	0.0140541
751.623	0.0138277
751.701	0.0137321
751.780	0.0136261
751.858	0.0136764
751.936	0.0135174
752.014	0.0135782
752.092	0.0135905
752.170	0.0136687
752.248	0.0135587
752.326	0.0137326
752.405	0.0138490
752.483	0.0138483
752.561	0.0140027
752.639	0.0140938
752.717	0.0142500
752.795	0.0144168
752.873	0.0145838
752.951	0.0146576
753.030	0.0147970
753.108	0.0148323
753.186	0.0150493
753.264	0.0150369
753.342	0.0149821
753.420	0.0149883
753.498	0.0148259
753.576	0.0149850
753.655	0.0149303
753.733	0.0147399
753.811	0.0146329
753.889	0.0144709
753.967	0.0144722
754.045	0.0144710
754.123	0.0142569
754.201	0.0140430
754.280	0.0140285
754.358	0.0139253
754.436	0.0138468
754.514	0.0138902
754.592	0.0137593
754.670	0.0138736
754.748	0.0138956
754.826	0.0137875
754.905	0.0137643
754.983	0.0137717
755.061	0.0140208
755.139	0.0140924
755.217	0.0141235
755.295	0.0141241
755.373	0.0142778
755.451	0.0142005
755.530	0.0143047
755.608	0.0143198
755.686	0.0143213
755.764	0.0142025
755.842	0.0141520
755.920	0.0141139
755.998	0.0139079
756.076	0.0138740
756.155	0.0139117
756.233	0.0139864
756.311	0.0138370
756.389	0.0136584
756.467	0.0138803
756.545	0.0136786
756.623	0.0136906
756.701	0.0139545
756.780	0.0139817
756.858	0.0140516
756.936	0.0140094
757.014	0.0141899
757.092	0.0141382
757.170	0.0141330
757.248	0.0143788
757.326	0.0144325
757.405	0.0144161
757.483	0.0144048
757.561	0.0143027
757.639	0.0145198
757.717	0.0143974
757.795	0.0142803
757.873	0.0142658
757.951	0.0142464
758.030	0.0141267
758.108	0.0142406
758.186	0.0142965
758.264	0.0141369
758.342	0.0140625
758.420	0.0140212
758.498	0.0141614
758.576	0.0140564
758.655	0.0140156
758.733	0.0140200
758.811	0.0141090
758.889	0.0140984
758.967	0.0139275
759.045	0.0139448
759.123	0.0140202
759.201	0.0139497
759.280	0.0139001
759.358	0.0140243
759.436	0.0139853
759.514	0.0142042
759.592	0.0140244
759.670	0.0141779
759.748	0.0142415
759.826	0.0141273
759.905	0.0142282
759.983	0.0144106
760.061	0.0142477
760.139	0.0141833
760.217	0.0142982
760.295	0.0144114
760.373	0.0144104
760.451	0.0142598
760.530	0.0142561
760.608	0.0143295
760.686	0.0144049
760.764	0.0143385
760.842	0.0143243
760.920	0.0143683
760.998	0.0142290
761.076	0.0142310
761.155	0.0141960
761.233	0.0142806
761.311	0.0141911
761.389	0.0141763
761.467	0.0140675
761.545	0.0140651
761.623	0.0142265
761.701	0.0142921
761.780	0.0142260
761.858	0.0143192
761.936	0.0143696
762.014	0.0142694
762.092	0.0144255
762.170	0.0144891
762.248	0.0145757
762.326	0.0145779
762.405	0.0145571
762.483	0.0145090
762.561	0.0145256
762.639	0.0144769
762.717	0.0143727
762.795	0.0141656
762.873	0.0141362
762.951	0.0140942
763.030	0.0140133
763.108	0.0139747
763.186	0.0138926
763.264	0.0137795
763.342	0.0139123
763.420	0.0139304
763.498	0.0138937
763.576	0.0140794
763.655	0.0140459
763.733	0.0140724
763.811	0.0140736
763.889	0.0140967
763.967	0.0141100
764.045	0.0142793
764.123	0.0142665
764.201	0.0143490
764.280	0.0142076
764.358	0.0142403
764.436	0.0142290
764.514	0.0143271
764.592	0.0141296
764.670	0.0142688
764.748	0.0142436
764.826	0.0141656
764.905	0.0140578
764.983	0.0140535
765.061	0.0140549
765.139	0.0138628
765.217	0.0139178
765.295	0.0139474
765.373	0.0139372
765.451	0.0140917
765.530	0.0138814
765.608	0.0138884
765.686	0.0140452
765.764	0.0138519
765.842	0.0139252
765.920	0.0141505
765.998	0.0142308
766.076	0.0141306
766.155	0.0142940
766.233	0.0141651
766.311	0.0143084
766.389	0.0143289
766.467	0.0142838
766.545	0.0142347
766.623	0.0144656
766.701	0.0145277
766.780	0.0143756
766.858	0.0144840
766.936	0.0144012
767.014	0.0143096
767.092	0.0144972
767.170	0.0143871
767.248	0.0142656
767.326	0.0144472
767.405	0.0143833
767.483	0.0142767
767.561	0.0141994
767.639	0.0140818
767.717	0.0141428
767.795	0.0142043
767.873	0.0141563
767.951	0.0141288
768.030	0.0139897
768.108	0.0140163
768.186	0.0140083
768.264	0.0140352
768.342	0.0141692
768.420	0.0142156
768.498	0.0142420
768.576	0.0142070
768.655	0.0142163
768.733	0.0141559
768.811	0.0144166
768.889	0.0144267
768.967	0.0145525
769.045	0.0145238
769.123	0.0145751
769.201	0.0144293
769.280	0.0145061
769.358	0.0145255
769.436	0.0145229
769.514	0.0146091
769.592	0.0146664
769.670	0.0144787
769.748	0.0145192
769.826	0.0145744
769.905	0.0146240
769.983	0.0144624
770.061	0.0144562
770.139	0.0143163
770.217	0.0142466
770.295	0.0142727
770.373	0.0141898
770.451	0.0141872
770.530	0.0141422
770.608	0.0139284
770.686	0.0140814
770.764	0.0138898
770.842	0.0139940
770.920	0.0139700
770.998	0.0139986
771.076	0.0139491
771.155	0.0139600
771.233	0.0140333
771.311	0.0140636
771.389	0.0140643
771.467	0.0142073
771.545	0.0142129
771.623	0.0142746
771.701	0.0143329
771.780	0.0143803
771.858	0.0142847
771.936	0.0142035
772.014	0.0143450
772.092	0.0142744
772.170	0.0141824
772.248	0.0143009
772.326	0.0141098
772.405	0.0141921
772.483	0.0141786
772.561	0.0141183
772.639	0.0141847
772.717	0.0141298
772.795	0.0140830
772.873	0.0140408
772.951	0.0139716
773.030	0.0140816
773.108	0.0142938
773.186	0.0142020
773.264	0.0139786
773.342	0.0140410
773.420	0.0141014
773.498	0.0142035
773.576	0.0140995
773.655	0.0142084
773.733	0.0143810
773.811	0.0142554
773.889	0.0143533
773.967	0.0142534
774.045	0.0144346
774.123	0.0143370
774.201	0.0144868
774.280	0.0145058
774.358	0.0142757
774.436	0.0143545
774.514	0.0144695
774.592	0.0144324
774.670	0.0143426
774.748	0.0142905
774.826	0.0141516
774.905	0.0141833
774.983	0.0142788
775.061	0.0141702
775.139	0.0140964
775.217	0.0139442
775.295	0.0141871
775.373	0.0142485
775.451	0.0141115
775.530	0.0142554
775.608	0.0143343
775.686	0.0142157
775.764	0.0142982
775.842	0.0143245
775.920	0.0143897
775.998	0.0143104
776.076	0.0143156
776.155	0.0144274
776.233	0.0143552
776.311	0.0144332
776.389	0.0144715
776.467	0.0142894
776.545	0.0144065
776.623	0.0144353
776.701	0.0142710
776.780	0.0143665
776.858	0.0144720
776.936	0.0143735
777.014	0.0144637
777.092	0.0143101
777.170	0.0143168
777.248	0.0143780
777.326	0.0143009
777.405	0.0142658
777.483	0.0141545
777.561	0.0140046
777.639	0.0141019
777.717	0.0139409
777.795	0.0139671
777.873	0.0139908
777.951	0.0138982
778.030	0.0140906
778.108	0.0140847
778.186	0.0139407
778.264	0.0140775
778.342	0.0140236
778.420	0.0139662
778.498	0.0141173
778.576	0.0138259
778.655	0.0138532
778.733	0.0141459
778.811	0.0142424
778.889	0.0142039
778.967	0.0140634
779.045	0.0141372
779.123	0.0142964
779.201	0.0143289
779.280	0.0143427
779.358	0.0144006
779.436	0.0144557
779.514	0.0144202
779.592	0.0145367
779.670	0.0144205
779.748	0.0144389
779.826	0.0143816
779.905	0.0143887
779.983	0.0142504
780.061	0.0141434
780.139	0.0142086
780.217	0.0139342
780.295	0.0139704
780.373	0.0140188
780.451	0.0139693
780.530	0.0139076
780.608	0.0139603
780.686	0.0139986
780.764	0.0139948
780.842	0.0140335
780.920	0.0139779
780.998	0.0141764
781.076	0.0142052
781.155	0.0140551
781.233	0.0140370
781.311	0.0141306
781.389	0.0142162
781.467	0.0142131
781.545	0.0142001
781.623	0.0142874
781.701	0.0140668
781.780	0.0142736
781.858	0.0142652
781.936	0.0142316
782.014	0.0140737
782.092	0.0141533
782.170	0.0142136
782.248	0.0142112
782.326	0.0140832
782.405	0.0141901
782.483	0.0141618
782.561	0.0141489
782.639	0.0140611
782.717	0.0140154
782.795	0.0141848
782.873	0.0142348
782.951	0.0142538
783.030	0.0140796
783.108	0.0140493
783.186	0.0141245
783.264	0.0142519
783.342	0.0141354
783.420	0.0142364
783.498	0.0143069
783.576	0.0143412
783.655	0.0142449
783.733	0.0142793
783.811	0.0143864
783.889	0.0142943
783.967	0.0143107
784.045	0.0143945
784.123	0.0145023
784.201	0.0144349
784.280	0.0143046
784.358	0.0144196
784.436	0.0143371
784.514	0.0142996
784.592	0.0142963
784.670	0.0142039
784.748	0.0141756
784.826	0.0142670
784.905	0.0143149
784.983	0.0142769
785.061	0.0140106
785.139	0.0140560
785.217	0.0140866
785.295	0.0141318
785.373	0.0142251
785.451	0.0141455
785.530	0.0141421
785.608	0.0140737
785.686	0.0140910
785.764	0.0139797
785.842	0.0141117
785.920	0.0142191
785.998	0.0143026
786.076	0.0141287
786.155	0.0142880
786.233	0.0143359
786.311	0.0142069
786.389	0.0142365
786.467	0.0143106
786.545	0.0143375
786.623	0.0144187
786.701	0.0143150
786.780	0.0142087
786.858	0.0142184
786.936	0.0142371
787.014	0.0140343
787.092	0.0142201
787.170	0.0140141
787.248	0.0141563
787.326	0.0140348
787.405	0.0140973
787.483	0.0141359
787.561	0.0139293
787.639	0.0139865
787.717	0.0141217
787.795	0.0141195
787.873	0.0142503
787.951	0.0139421
788.030	0.0140112
788.108	0.0141384
788.186	0.0139964
788.264	0.0140452
788.342	0.0139733
788.420	0.0140011
788.498	0.0140736
788.576	0.0140653
788.655	0.0142044
788.733	0.0141498
788.811	0.0141459
788.889	0.0143037
788.967	0.0142355
789.045	0.0142352
789.123	0.0143481
789.201	0.0142060
789.280	0.0142271
789.358	0.0142178
789.436	0.0143763
789.514	0.0143562
789.592	0.0144060
789.670	0.0141942
789.748	0.0141115
789.826	0.0143744
789.905	0.0143414
789.983	0.0142336
790.061	0.0142224
790.139	0.0142120
790.217	0.0141270
790.295	0.0143497
790.373	0.0141998
790.451	0.0141321
790.530	0.0141429
790.608	0.0140347
790.686	0.0140924
790.764	0.0140695
790.842	0.0139616
790.920	0.0140239
790.998	0.0139368
791.076	0.0140374
791.155	0.0139000
791.233	0.0139427
791.311	0.0139530
791.389	0.0138889
791.467	0.0139297
791.545	0.0139647
791.623	0.0140871
791.701	0.0141790
791.780	0.0143201
791.858	0.0142811
791.936	0.0143728
792.014	0.0145054
792.092	0.0142619
792.170	0.0144708
792.248	0.0144971
792.326	0.0145349
792.405	0.0145365
792.483	0.0144968
792.561	0.0144812
792.639	0.0144304
792.717	0.0144446
792.795	0.0143823
792.873	0.0142339
792.951	0.0142458
793.030	0.0142744
793.108	0.0141702
793.186	0.0143162
793.264	0.0142217
793.342	0.0142997
793.420	0.0141826
793.498	0.0141508
793.576	0.0143485
793.655	0.0141544
793.733	0.0142046
793.811	0.0142012
793.889	0.0142545
793.967	0.0143852
794.045	0.0142994
794.123	0.0143684
794.201	0.0142933
794.280	0.0141634
794.358	0.0143237
794.436	0.0143191
794.514	0.0141278
794.592	0.0142769
794.670	0.0143537
794.748	0.0143237
794.826	0.0143311
794.905	0.0142027
794.983	0.0142408
795.061	0.0143104
795.139	0.0141776
795.217	0.0142906
795.295	0.0143873
795.373	0.0142309
795.451	0.0142969
795.530	0.0143803
795.608	0.0143197
795.686	0.0142947
795.764	0.0141547
795.842	0.0142175
795.920	0.0140834
795.998	0.0139969
796.076	0.0142399
796.155	0.0141437
796.233	0.0139978
796.311	0.0138284
796.389	0.0138410
796.467	0.0138809
796.545	0.0138222
796.623	0.0138319
796.701	0.0138585
796.780	0.0137267
796.858	0.0138937
796.936	0.0137157
797.014	0.0138057
797.092	0.0138736
797.170	0.0139364
797.248	0.0138805
797.326	0.0139352
797.405	0.0139697
797.483	0.0139523
797.561	0.0141304
797.639	0.0140901
797.717	0.0141662
797.795	0.0142389
797.873	0.0142391
797.951	0.0142195
798.030	0.0143050
798.108	0.0143512
798.186	0.0143935
798.264	0.0143720
798.342	0.0143455
798.420	0.0144213
798.498	0.0144447
798.576	0.0145189
798.655	0.0145879
798.733	0.0146146
798.811	0.0148898
798.889	0.0146177
798.967	0.0147035
799.045	0.0147738
799.123	0.0147367
799.201	0.0146298
799.280	0.0148205
799.358	0.0147669
799.436	0.0146949
799.514	0.0146888
799.592	0.0146811
799.670	0.0146294
799.748	0.0146379
799.826	0.0145092
799.905	0.0144021
799.983	0.0144576
800.061	0.0143981
800.139	0.0143283
800.217	0.0142342
800.295	0.0141339
800.373	0.0140578
800.451	0.0141357
800.530	0.0140166
800.608	0.0137979
800.686	0.0138325
800.764	0.0138313
800.842	0.0137314
800.920	0.0137080
800.998	0.0136134
801.076	0.0137671
801.155	0.0135582
801.233	0.0134551
801.311	0.0135373
801.389	0.0136270
801.467	0.0137376
801.545	0.0136073
801.623	0.0138535
801.701	0.0137222
801.780	0.0138158
801.858	0.0138892
801.936	0.0138313
802.014	0.0138161
802.092	0.0141193
802.170	0.0142321
802.248	0.0141079
802.326	0.0140852
802.405	0.0142413
802.483	0.0142795
802.561	0.0142737
802.639	0.0143160
802.717	0.0143273
802.795	0.0142619
802.873	0.0144032
802.951	0.0144181
803.030	0.0143541
803.108	0.0143295
803.186	0.0144819
803.264	0.0142673
803.342	0.0142480
803.420	0.0143562
803.498	0.0145293
803.576	0.0145477
803.655	0.0144132
803.733	0.0143483
803.811	0.0145475
803.889	0.0144967
803.967	0.0146147
804.045	0.0144534
804.123	0.0144683
804.201	0.0145380
804.280	0.0144440
804.358	0.0144245
804.436	0.0144773
804.514	0.0143433
804.592	0.0143684
804.670	0.0143436
804.748	0.0143901
804.826	0.0142968
804.905	0.0143918
804.983	0.0142687
805.061	0.0142535
805.139	0.0142746
805.217	0.0142813
805.295	0.0141029
805.373	0.0141029
805.451	0.0142083
805.530	0.0141763
805.608	0.0140707
805.686	0.0141763
805.764	0.0139480
805.842	0.0139805
805.920	0.0138998
805.998	0.0138801
806.076	0.0137778
806.155	0.0138707
806.233	0.0137975
806.311	0.0137856
806.389	0.0136581
806.467	0.0135793
806.545	0.0136297
806.623	0.0137498
806.701	0.0136723
806.780	0.0135427
806.858	0.0137704
806.936	0.0137523
807.014	0.0137051
807.092	0.0138055
807.170	0.0138177
807.248	0.0138398
807.326	0.0139966
807.405	0.0140105
807.483	0.0140251
807.561	0.0141992
807.639	0.0141833
807.717	0.0142644
807.795	0.0143542
807.873	0.0142133
807.951	0.0142934
808.030	0.0143401
808.108	0.0143703
808.186	0.0143534
808.264	0.0143219
808.342	0.0143501
808.420	0.0143536
808.498	0.0141761
808.576	0.0142797
808.655	0.0143232
808.733	0.0142088
808.811	0.0142178
808.889	0.0141695
808.967	0.0143400
809.045	0.0142325
809.123	0.0141519
809.201	0.0142853
809.280	0.0142328
809.358	0.0143096
809.436	0.0142814
809.514	0.0142463
809.592	0.0141573
809.670	0.0144576
809.748	0.0144210
809.826	0.0144790
809.905	0.0145966
809.983	0.0144722
810.061	0.0145926
810.139	0.0146313
810.217	0.0145929
810.295	0.0146630
810.373	0.0145387
810.451	0.0146015
810.530	0.0147358
810.608	0.0145897
810.686	0.0145535
810.764	0.0145525
810.842	0.0145094
810.920	0.0143727
810.998	0.0143204
811.076	0.0143725
811.155	0.0142522
811.233	0.0142539
811.311	0.0142772
811.389	0.0141081
811.467	0.0139832
811.545	0.0140804
811.623	0.0139493
811.701	0.0139240
811.780	0.0138655
811.858	0.0137714
811.936	0.0136988
812.014	0.0137580
812.092	0.0136534
812.170	0.0135153
812.248	0.0135309
812.326	0.0135430
812.405	0.0134731
812.483	0.0134385
812.561	0.0134761
812.639	0.0134914
812.717	0.0135375
812.795	0.0135054
812.873	0.0135012
812.951	0.0134990
813.030	0.0137183
813.108	0.0136951
813.186	0.0136700
813.264	0.0138135
813.342	0.0138392
813.420	0.0139188
813.498	0.0139407
813.576	0.0139198
813.655	0.0139962
813.733	0.0139965
813.811	0.0142078
813.889	0.0142905
813.967	0.0143056
814.045	0.0143845
814.123	0.0144276
814.201	0.0144859
814.280	0.0143787
814.358	0.0144092
814.436	0.0143795
814.514	0.0144357
814.592	0.0143578
814.670	0.0144373
814.748	0.0143717
814.826	0.0144938
814.905	0.0144006
814.983	0.0144133
815.061	0.0145354
815.139	0.0143423
815.217	0.0144386
815.295	0.0143336
815.373	0.0144938
815.451	0.0144603
815.530	0.0143963
815.608	0.0145172
815.686	0.0146326
815.764	0.0145061
815.842	0.0145171
815.920	0.0145380
815.998	0.0144148
816.076	0.0146522
816.155	0.0146014
816.233	0.0146059
816.311	0.0145441
816.389	0.0147964
816.467	0.0145535
816.545	0.0145089
816.623	0.0145830
816.701	0.0145300
816.780	0.0144824
816.858	0.0143291
816.936	0.0143036
817.014	0.0144286
817.092	0.0143420
817.170	0.0142501
817.248	0.0142832
817.326	0.0141477
817.405	0.0141644
817.483	0.0140038
817.561	0.0140310
817.639	0.0140119
817.717	0.0138565
817.795	0.0137391
817.873	0.0137319
817.951	0.0137028
818.030	0.0138708
818.108	0.0137185
818.186	0.0135357
818.264	0.0135801
818.342	0.0136889
818.420	0.0136070
818.498	0.0137734
818.576	0.0136769
818.655	0.0136168
818.733	0.0134676
818.811	0.0135576
818.889	0.0136224
818.967	0.0135373
819.045	0.0136067
819.123	0.0138089
819.201	0.0136640
819.280	0.0137081
819.358	0.0138371
819.436	0.0139314
819.514	0.0138972
819.592	0.0141028
819.670	0.0141825
819.748	0.0143239
819.826	0.0144447
819.905	0.0143760
819.983	0.0145424
820.061	0.0144442
820.139	0.0145155
820.217	0.0145998
820.295	0.0145975
820.373	0.0145202
820.451	0.0148396
820.530	0.0147713
820.608	0.0146960
820.686	0.0146759
820.764	0.0146449
820.842	0.0145229
820.920	0.0146388
820.998	0.0145264
821.076	0.0144808
821.155	0.0145625
821.233	0.0144115
821.311	0.0144495
821.389	0.0142479
821.467	0.0143062
821.545	0.0143790
821.623	0.0142088
821.701	0.0142422
821.780	0.0142525
821.858	0.0141823
821.936	0.0141095
822.014	0.0141920
822.092	0.0140476
822.170	0.0142520
822.248	0.0141820
822.326	0.0142415
822.405	0.0142991
822.483	0.0143631
822.561	0.0142568
822.639	0.0143696
822.717	0.0143570
822.795	0.0144057
822.873	0.0144250
822.951	0.0143942
823.030	0.0144534
823.108	0.0144053
823.186	0.0142926
823.264	0.0143816
823.342	0.0143401
823.420	0.0142925
823.498	0.0143036
823.576	0.0144396
823.655	0.0142435
823.733	0.0142239
823.811	0.0141185
823.889	0.0141900
823.967	0.0141689
824.045	0.0141589
824.123	0.0140980
824.201	0.0141639
824.280	0.0140482
824.358	0.0139341
824.436	0.0137930
824.514	0.0137614
824.592	0.0136965
824.670	0.0137975
824.748	0.0136221
824.826	0.0134766
824.905	0.0135312
824.983	0.0134657
825.061	0.0137099
825.139	0.0135374
825.217	0.0134237
825.295	0.0134541
825.373	0.0135754
825.451	0.0136681
825.530	0.0138014
825.608	0.0137708
825.686	0.0137635
825.764	0.0139441
825.842	0.0138912
825.920	0.0141265
825.998	0.0141310
826.076	0.0143121
826.155	0.0143887
826.233	0.0144232
826.311	0.0145631
826.389	0.0146278
826.467	0.0146862
826.545	0.0145928
826.623	0.0147401
826.701	0.0146780
826.780	0.0146439
826.858	0.0146000
826.936	0.0147206
827.014	0.0144590
827.092	0.0145679
827.170	0.0144133
827.248	0.0145189
827.326	0.0143685
827.405	0.0144009
827.483	0.0144027
827.561	0.0142211
827.639	0.0142679
827.717	0.0143491
827.795	0.0141926
827.873	0.0142309
827.951	0.0141729
828.030	0.0141699
828.108	0.0141636
828.186	0.0141196
828.264	0.0141600
828.342	0.0142482
828.420	0.0141499
828.498	0.0143149
828.576	0.0142275
828.655	0.0141328
828.733	0.0142538
828.811	0.0142368
828.889	0.0142233
828.967	0.0142461
829.045	0.0142074
829.123	0.0142221
829.201	0.0142415
829.280	0.0140990
829.358	0.0142168
829.436	0.0141423
829.514	0.0141479
829.592	0.0141852
829.670	0.0141582
829.748	0.0140981
829.826	0.0141508
829.905	0.0140633
829.983	0.0140352
830.061	0.0140249
830.139	0.0138165
830.217	0.0138733
830.295	0.0140152
830.373	0.0139848
830.451	0.0138819
830.530	0.0139470
830.608	0.0140485
830.686	0.0140311
830.764	0.0140278
830.842	0.0139323
830.920	0.0140719
830.998	0.0140709
831.076	0.0140300
831.155	0.0140301
831.233	0.0140771
831.311	0.0139386
831.389	0.0137586
831.467	0.0139263
831.545	0.0139514
831.623	0.0137930
831.701	0.0138499
831.780	0.0139314
831.858	0.0138293
831.936	0.0138610
832.014	0.0139784
832.092	0.0140873
832.170	0.0140800
832.248	0.0141199
832.326	0.0141759
832.405	0.0143021
832.483	0.0141888
832.561	0.0143656
832.639	0.0143691
832.717	0.0142215
832.795	0.0142036
832.873	0.0143829
832.951	0.0144259
833.030	0.0144372
833.108	0.0143638
833.186	0.0143847
833.264	0.0144655
833.342	0.0143925
833.420	0.0144633
833.498	0.0144970
833.576	0.0145099
833.655	0.0143381
833.733	0.0144627
833.811	0.0144791
833.889	0.0143566
833.967	0.0143187
834.045	0.0143523
834.123	0.0142731
834.201	0.0141872
834.280	0.0141980
834.358	0.0142358
834.436	0.0141498
834.514	0.0140041
834.592	0.0140550
834.670	0.0140327
834.748	0.0141091
834.826	0.0139130
834.905	0.0138701
834.983	0.0140184
835.061	0.0139745
835.139	0.0139458
835.217	0.0139736
835.295	0.0139669
835.373	0.0140257
835.451	0.0142258
835.530	0.0140381
835.608	0.0140028
835.686	0.0141996
835.764	0.0141633
835.842	0.0142758
835.920	0.0142517
835.998	0.0142553
836.076	0.0141692
836.155	0.0141348
836.233	0.0144089
836.311	0.0142591
836.389	0.0143010
836.467	0.0143776
836.545	0.0143968
836.623	0.0143583
836.701	0.0142511
836.780	0.0142838
836.858	0.0141817
836.936	0.0140810
837.014	0.0140146
837.092	0.0141147
837.170	0.0141355
837.248	0.0140199
837.326	0.0139622
837.405	0.0140157
837.483	0.0139344
837.561	0.0139852
837.639	0.0138676
837.717	0.0140311
837.795	0.0139381
837.873	0.0140944
837.951	0.0140523
838.030	0.0141332
838.108	0.0141225
838.186	0.0140733
838.264	0.0141388
838.342	0.0141978
838.420	0.0142002
838.498	0.0140213
838.576	0.0140662
838.655	0.0140165
838.733	0.0140817
838.811	0.0142755
838.889	0.0142163
838.967	0.0141852
839.045	0.0140627
839.123	0.0141584
839.201	0.0142853
839.280	0.0142342
839.358	0.0142796
839.436	0.0143606
839.514	0.0143314
839.592	0.0143832
839.670	0.0144401
839.748	0.0144587
839.826	0.0143125
839.905	0.0145134
839.983	0.0144785
840.061	0.0144927
840.139	0.0144580
840.217	0.0144578
840.295	0.0144675
840.373	0.0144331
840.451	0.0142950
840.530	0.0144799
840.608	0.0144096
840.686	0.0143147
840.764	0.0142576
840.842	0.0143879
840.920	0.0141097
840.998	0.0140971
841.076	0.0141604
841.155	0.0142173
841.233	0.0141537
841.311	0.0140936
841.389	0.0140373
841.467	0.0140273
841.545	0.0140250
841.623	0.0140041
841.701	0.0139008
841.780	0.0139935
841.858	0.0140913
841.936	0.0140459
842.014	0.0139257
842.092	0.0139652
842.170	0.0140459
842.248	0.0141378
842.326	0.0140798
842.405	0.0142146
842.483	0.0142085
842.561	0.0142306
842.639	0.0142958
842.717	0.0142013
842.795	0.0141782
842.873	0.0142290
842.951	0.0142432
843.030	0.0141462
843.108	0.0141767
843.186	0.0143723
843.264	0.0142599
843.342	0.0142069
843.420	0.0142251
843.498	0.0143871
843.576	0.0140794
843.655	0.0142678
843.733	0.0141509
843.811	0.0141263
843.889	0.0142983
843.967	0.0143054
844.045	0.0142427
844.123	0.0142588
844.201	0.0141666
844.280	0.0141342
844.358	0.0142625
844.436	0.0142824
844.514	0.0142989
844.592	0.0142628
844.670	0.0142973
844.748	0.0142348
844.826	0.0143219
844.905	0.0143484
844.983	0.0142686
845.061	0.0142352
845.139	0.0142328
845.217	0.0144218
845.295	0.0142588
845.373	0.0141655
845.451	0.0140777
845.530	0.0142104
845.608	0.0141372
845.686	0.0140100
845.764	0.0141876
845.842	0.0141437
845.920	0.0140440
845.998	0.0142187
846.076	0.0140916
846.155	0.0141190
846.233	0.0141246
846.311	0.0141343
846.389	0.0142405
846.467	0.0141842
846.545	0.0142023
846.623	0.0141299
846.701	0.0141283
846.780	0.0141374
846.858	0.0142914
846.936	0.0143502
847.014	0.0142455
847.092	0.0142455
847.170	0.0142413
847.248	0.0142656
847.326	0.0141309
847.405	0.0142720
847.483	0.0142217
847.561	0.0141081
847.639	0.0141889
847.717	0.0140999
847.795	0.0142441
847.873	0.0141886
847.951	0.0141412
848.030	0.0141412
848.108	0.0141254
848.186	0.0140987
848.264	0.0140550
848.342	0.0140457
848.420	0.0142184
848.498	0.0139610
848.576	0.0140900
848.655	0.0140688
848.733	0.0141525
848.811	0.0140968
848.889	0.0140941
848.967	0.0141410
849.045	0.0142191
849.123	0.0142137
849.201	0.0142562
849.280	0.0143488
849.358	0.0141990
849.436	0.0143178
849.514	0.0144473
849.592	0.0143272
849.670	0.0144279
849.748	0.0143751
849.826	0.0144493
849.905	0.0144465
849.983	0.0142985
850.061	0.0143874
850.139	0.0143595
850.217	0.0143086
850.295	0.0143044
850.373	0.0143678
850.451	0.0142641
850.530	0.0143570
850.608	0.0144398
850.686	0.0143541
850.764	0.0142967
850.842	0.0142785
850.920	0.0143835
850.998	0.0143010
851.076	0.0142380
851.155	0.0143113
851.233	0.0142935
851.311	0.0142085
851.389	0.0142908
851.467	0.0143245
851.545	0.0141729
851.623	0.0141370
851.701	0.0141843
851.780	0.0142168
851.858	0.0142222
851.936	0.0141120
852.014	0.0142751
852.092	0.0140144
852.170	0.0141701
852.248	0.0140946
852.326	0.0140356
852.405	0.0141322
852.483	0.0141051
852.561	0.0142026
852.639	0.0141351
852.717	0.0142397
852.795	0.0142381
852.873	0.0141142
852.951	0.0140916
853.030	0.0140083
853.108	0.0141153
853.186	0.0140639
853.264	0.0141866
853.342	0.0141711
853.420	0.0141639
853.498	0.0141837
853.576	0.0143769
853.655	0.0142608
853.733	0.0141953
853.811	0.0143044
853.889	0.0142100
853.967	0.0141982
854.045	0.0140376
854.123	0.0140837
854.201	0.0140881
854.280	0.0140924
854.358	0.0139516
854.436	0.0139725
854.514	0.0139671
854.592	0.0141825
854.670	0.0139745
854.748	0.0140308
854.826	0.0141382
854.905	0.0140469
854.983	0.0141096
855.061	0.0141190
855.139	0.0141154
855.217	0.0139918
855.295	0.0141023
855.373	0.0143738
855.451	0.0141199
855.530	0.0143049
855.608	0.0142621
855.686	0.0142757
855.764	0.0143214
855.842	0.0143980
855.920	0.0143664
855.998	0.0143685
856.076	0.0144647
856.155	0.0144047
856.233	0.0144492
856.311	0.0144443
856.389	0.0143794
856.467	0.0145372
856.545	0.0145802
856.623	0.0144778
856.701	0.0143693
856.780	0.0144701
856.858	0.0144625
856.936	0.0144054
857.014	0.0143594
857.092	0.0143040
857.170	0.0142279
857.248	0.0142546
857.326	0.0143340
857.405	0.0143237
857.483	0.0141753
857.561	0.0143427
857.639	0.0142858
857.717	0.0142735
857.795	0.0142856
857.873	0.0142919
857.951	0.0142551
858.030	0.0142613
858.108	0.0143394
858.186	0.0141250
858.264	0.0142030
858.342	0.0143341
858.420	0.0141253
858.498	0.0140966
858.576	0.0142407
858.655	0.0142120
858.733	0.0142014
858.811	0.0141762
858.889	0.0141033
858.967	0.0140410
859.045	0.0140131
859.123	0.0140196
859.201	0.0139236
859.280	0.0140129
859.358	0.0141151
859.436	0.0140726
859.514	0.0140585
859.592	0.0141535
859.670	0.0140510
859.748	0.0141341
859.826	0.0140886
859.905	0.0141129
859.983	0.0142538
860.061	0.0142159
860.139	0.0141961
860.217	0.0141808
860.295	0.0141183
860.373	0.0141113
860.451	0.0141063
860.530	0.0142159
860.608	0.0141496
860.686	0.0140979
860.764	0.0142014
860.842	0.0140434
860.920	0.0141650
860.998	0.0142410
861.076	0.0140557
861.155	0.0141304
861.233	0.0141938
861.311	0.0140930
861.389	0.0140562
861.467	0.0142058
861.545	0.0140826
861.623	0.0141469
861.701	0.0141026
861.780	0.0143098
861.858	0.0141180
861.936	0.0142775
862.014	0.0142564
862.092	0.0143727
862.170	0.0144352
862.248	0.0143221
862.326	0.0143291
862.405	0.0144290
862.483	0.0143919
862.561	0.0144037
862.639	0.0144977
862.717	0.0144798
862.795	0.0144488
862.873	0.0142778
862.951	0.0145451
863.030	0.0144617
863.108	0.0145136
863.186	0.0144707
863.264	0.0144561
863.342	0.0145011
863.420	0.0144302
863.498	0.0144405
863.576	0.0144062
863.655	0.0143470
863.733	0.0145460
863.811	0.0143819
863.889	0.0142930
863.967	0.0143233
864.045	0.0142928
864.123	0.0142433
864.201	0.0142351
864.280	0.0143712
864.358	0.0143504
864.436	0.0143211
864.514	0.0141296
864.592	0.0142200
864.670	0.0141763
864.748	0.0142753
864.826	0.0143193
864.905	0.0142805
864.983	0.0143588
865.061	0.0141967
865.139	0.0142955
865.217	0.0142400
865.295	0.0141309
865.373	0.0139725
865.451	0.0141536
865.530	0.0141536
865.608	0.0141632
865.686	0.0141017
865.764	0.0140897
865.842	0.0141100
865.920	0.0140536
865.998	0.0141658
866.076	0.0140895
866.155	0.0141226
866.233	0.0142713
866.311	0.0141214
866.389	0.0140553
866.467	0.0142789
866.545	0.0141169
866.623	0.0141174
866.701	0.0140963
866.780	0.0140672
866.858	0.0140606
866.936	0.0142278
867.014	0.0142075
867.092	0.0142710
867.170	0.0140918
867.248	0.0140018
867.326	0.0142569
867.405	0.0142377
867.483	0.0141649
867.561	0.0141733
867.639	0.0142644
867.717	0.0141712
867.795	0.0140781
867.873	0.0142270
867.951	0.0141985
868.030	0.0142128
868.108	0.0142986
868.186	0.0142376
868.264	0.0143089
868.342	0.0142635
868.420	0.0143066
868.498	0.0144205
868.576	0.0144402
868.655	0.0144128
868.733	0.0143482
868.811	0.0144308
868.889	0.0143908
868.967	0.0143065
869.045	0.0143960
869.123	0.0143855
869.201	0.0144009
869.280	0.0144007
869.358	0.0143400
869.436	0.0143451
869.514	0.0144242
869.592	0.0143970
869.670	0.0143974
869.748	0.0144131
869.826	0.0144131
869.905	0.0143085
869.983	0.0142228
870.061	0.0142276
870.139	0.0141967
870.217	0.0142847
870.295	0.0141654
870.373	0.0139942
870.451	0.0141300
870.530	0.0142110
870.608	0.0140945
870.686	0.0140169
870.764	0.0141960
870.842	0.0141816
870.920	0.0142458
870.998	0.0142048
871.076	0.0141391
871.155	0.0142323
871.233	0.0141383
871.311	0.0141588
871.389	0.0141071
871.467	0.0140094
871.545	0.0141475
871.623	0.0140990
871.701	0.0142166
871.780	0.0140753
871.858	0.0139868
871.936	0.0140405
872.014	0.0140388
872.092	0.0142094
872.170	0.0141149
872.248	0.0140443
872.326	0.0141994
872.405	0.0141719
872.483	0.0142618
872.561	0.0142946
872.639	0.0142672
872.717	0.0141482
872.795	0.0143321
872.873	0.0143015
872.951	0.0142387
873.030	0.0143842
873.108	0.0144166
873.186	0.0144191
873.264	0.0142337
873.342	0.0143999
873.420	0.0142298
873.498	0.0142312
873.576	0.0143693
873.655	0.0143488
873.733	0.0142690
873.811	0.0142696
873.889	0.0141633
873.967	0.0142844
874.045	0.0143445
874.123	0.0143031
874.201	0.0143690
874.280	0.0141961
874.358	0.0142840
874.436	0.0141891
874.514	0.0143906
874.592	0.0142971
874.670	0.0142855
874.748	0.0144434
874.826	0.0142762
874.905	0.0142446
874.983	0.0141574
875.061	0.0143273
875.139	0.0142232
875.217	0.0141861
875.295	0.0142508
875.373	0.0142365
875.451	0.0142551
875.530	0.0141834
875.608	0.0142189
875.686	0.0142830
875.764	0.0142639
875.842	0.0141753
875.920	0.0141858
875.998	0.0141159
876.076	0.0142122
876.155	0.0141042
876.233	0.0141589
876.311	0.0141743
876.389	0.0141745
876.467	0.0140246
876.545	0.0141730
876.623	0.0140777
876.701	0.0141378
876.780	0.0142654
876.858	0.0141626
876.936	0.0140071
877.014	0.0141038
877.092	0.0141660
877.170	0.0140754
877.248	0.0140929
877.326	0.0139928
877.405	0.0139538
877.483	0.0140844
877.561	0.0141872
877.639	0.0142364
877.717	0.0141676
877.795	0.0141538
877.873	0.0142258
877.951	0.0141722
878.030	0.0141039
878.108	0.0142445
878.186	0.0144563
878.264	0.0143904
878.342	0.0143821
878.420	0.0145461
878.498	0.0143517
878.576	0.0143078
878.655	0.0143820
878.733	0.0143747
878.811	0.0142688
878.889	0.0142883
878.967	0.0142527
879.045	0.0142982
879.123	0.0142558
879.201	0.0143126
879.280	0.0142291
879.358	0.0141497
879.436	0.0143833
879.514	0.0141985
879.592	0.0141704
879.670	0.0143412
879.748	0.0143108
879.826	0.0141893
879.905	0.0142948
879.983	0.0142400
880.061	0.0142723
880.139	0.0141129
880.217	0.0141550
880.295	0.0142291
880.373	0.0141975
880.451	0.0142265
880.530	0.0141969
880.608	0.0140993
880.686	0.0143903
880.764	0.0142847
880.842	0.0142207
880.920	0.0142802
880.998	0.0143259
881.076	0.0143470
881.155	0.0143360
881.233	0.0143925
881.311	0.0142755
881.389	0.0142257
881.467	0.0143439
881.545	0.0143567
881.623	0.0142133
881.701	0.0142132
881.780	0.0142415
881.858	0.0142058
881.936	0.0142126
882.014	0.0141338
882.092	0.0141286
882.170	0.0141036
882.248	0.0141532
882.326	0.0141171
882.405	0.0142522
882.483	0.0142259
882.561	0.0141091
882.639	0.0141541
882.717	0.0140891
882.795	0.0141785
882.873	0.0142472
882.951	0.0140228
883.030	0.0141081
883.108	0.0140647
883.186	0.0140218
883.264	0.0141744
883.342	0.0141547
883.420	0.0142287
883.498	0.0141616
883.576	0.0142040
883.655	0.0142975
883.733	0.0143026
883.811	0.0143508
883.889	0.0142922
883.967	0.0141841
884.045	0.0141419
884.123	0.0142089
884.201	0.0143259
884.280	0.0142825
884.358	0.0141157
884.436	0.0141478
884.514	0.0141343
884.592	0.0143643
884.670	0.0142267
884.748	0.0140768
884.826	0.0141010
884.905	0.0141457
884.983	0.0142141
885.061	0.0141998
885.139	0.0142049
885.217	0.0142452
885.295	0.0141675
885.373	0.0141706
885.451	0.0141403
885.530	0.0143076
885.608	0.0144456
885.686	0.0143782
885.764	0.0142694
885.842	0.0142751
885.920	0.0142876
885.998	0.0142163
886.076	0.0141690
886.155	0.0142841
886.233	0.0142142
886.311	0.0141992
886.389	0.0141054
886.467	0.0140826
886.545	0.0141032
886.623	0.0141257
886.701	0.0142262
886.780	0.0143018
886.858	0.0142395
886.936	0.0142446
887.014	0.0144352
887.092	0.0142090
887.170	0.0143495
887.248	0.0143329
887.326	0.0142084
887.405	0.0142278
887.483	0.0143111
887.561	0.0142902
887.639	0.0141019
887.717	0.0140513
887.795	0.0141550
887.873	0.0141200
887.951	0.0140462
888.030	0.0140722
888.108	0.0139529
888.186	0.0140438
888.264	0.0139845
888.342	0.0140965
888.420	0.0141145
888.498	0.0140474
888.576	0.0141528
888.655	0.0141335
888.733	0.0141440
888.811	0.0140913
888.889	0.0142014
888.967	0.0141652
889.045	0.0142371
889.123	0.0142719
889.201	0.0142438
889.280	0.0142997
889.358	0.0141540
889.436	0.0141013
889.514	0.0143423
889.592	0.0142555
889.670	0.0141045
889.748	0.0141364
889.826	0.0141363
889.905	0.0142247
889.983	0.0141859
890.061	0.0141501
890.139	0.0142924
890.217	0.0141360
890.295	0.0141959
890.373	0.0142101
890.451	0.0142589
890.530	0.0142924
890.608	0.0142265
890.686	0.0142255
890.764	0.0141434
890.842	0.0143213
890.920	0.0142296
890.998	0.0140973
891.076	0.0140698
891.155	0.0140246
891.233	0.0140642
891.311	0.0140994
891.389	0.0139869
891.467	0.0139311
891.545	0.0139294
891.623	0.0140156
891.701	0.0138549
891.780	0.0140357
891.858	0.0139535
891.936	0.0139194
892.014	0.0140738
892.092	0.0139519
892.170	0.0140771
892.248	0.0139249
892.326	0.0139396
892.405	0.0140523
892.483	0.0141815
892.561	0.0140525
892.639	0.0140891
892.717	0.0140675
892.795	0.0141241
892.873	0.0142196
892.951	0.0142106
893.030	0.0142438
893.108	0.0142854
893.186	0.0141994
893.264	0.0143315
893.342	0.0145068
893.420	0.0143613
893.498	0.0145222
893.576	0.0144263
893.655	0.0143996
893.733	0.0143496
893.811	0.0143854
893.889	0.0145519
893.967	0.0144263
894.045	0.0142759
894.123	0.0143531
894.201	0.0142626
894.280	0.0142311
894.358	0.0142279
894.436	0.0140265
894.514	0.0141759
894.592	0.0142086
894.670	0.0143291
894.748	0.0141348
894.826	0.0141637
894.905	0.0141561
894.983	0.0142120
895.061	0.0141907
895.139	0.0141801
895.217	0.0142457
895.295	0.0139616
895.373	0.0141144
895.451	0.0141069
895.530	0.0140419
895.608	0.0138846
895.686	0.0140135
895.764	0.0140220
895.842	0.0140513
895.920	0.0139777
895.998	0.0140304
896.076	0.0140222
896.155	0.0141245
896.233	0.0140822
896.311	0.0142544
896.389	0.0143308
896.467	0.0142861
896.545	0.0142100
896.623	0.0142304
896.701	0.0144202
896.780	0.0142267
896.858	0.0143410
896.936	0.0142881
897.014	0.0143595
897.092	0.0142059
897.170	0.0141364
897.248	0.0141768
897.326	0.0142838
897.405	0.0143230
897.483	0.0141639
897.561	0.0141259
897.639	0.0141074
897.717	0.0141943
897.795	0.0142118
897.873	0.0141292
897.951	0.0140442
898.030	0.0141136
898.108	0.0140891
898.186	0.0140737
898.264	0.0142699
898.342	0.0141556
898.420	0.0141023
898.498	0.0141518
898.576	0.0142139
898.655	0.0141529
898.733	0.0140480
898.811	0.0141940
898.889	0.0142433
898.967	0.0142042
899.045	0.0142297
899.123	0.0142227
899.201	0.0142133
899.280	0.0142823
899.358	0.0143412
899.436	0.0141267
899.514	0.0142722
899.592	0.0142490
899.670	0.0142312
899.748	0.0140137
899.826	0.0141965
899.905	0.0142341
899.983	0.0141956
900.061	0.0142310
900.139	0.0142244
900.217	0.0142568
900.295	0.0142301
900.373	0.0141117
900.451	0.0142458
900.530	0.0143410
900.608	0.0142814
900.686	0.0142347
900.764	0.0141108
900.842	0.0141879
900.920	0.0142738
900.998	0.0141508
901.076	0.0141290
901.155	0.0139730
901.233	0.0141101
901.311	0.0140519
901.389	0.0140675
901.467	0.0139149
901.545	0.0141536
901.623	0.0141662
901.701	0.0141351
901.780	0.0142171
901.858	0.0141743
901.936	0.0142281
902.014	0.0144485
902.092	0.0143800
902.170	0.0143567
902.248	0.0144241
902.326	0.0143724
902.405	0.0144862
902.483	0.0144765
902.561	0.0144746
902.639	0.0144545
902.717	0.0143762
902.795	0.0143479
902.873	0.0143700
902.951	0.0142912
903.030	0.0142726
903.108	0.0142072
903.186	0.0142181
903.264	0.0140591
903.342	0.0140955
903.420	0.0139597
903.498	0.0137914
903.576	0.0138458
903.655	0.0138423
903.733	0.0138752
903.811	0.0138633
903.889	0.0138019
903.967	0.0138592
904.045	0.0139760
904.123	0.0137646
904.201	0.0138125
904.280	0.0140694
904.358	0.0139793
904.436	0.0140173
904.514	0.0140594
904.592	0.0141929
904.670	0.0141737
904.748	0.0142223
904.826	0.0143177
904.905	0.0143523
904.983	0.0142863
905.061	0.0144601
905.139	0.0144803
905.217	0.0143801
905.295	0.0144895
905.373	0.0144375
905.451	0.0144918
905.530	0.0145348
905.608	0.0145441
905.686	0.0145028
905.764	0.0144370
905.842	0.0144053
905.920	0.0143389
905.998	0.0143134
906.076	0.0142268
906.155	0.0143391
906.233	0.0142755
906.311	0.0142161
906.389	0.0141429
906.467	0.0142126
906.545	0.0141909
906.623	0.0142132
906.701	0.0140686
906.780	0.0141862
906.858	0.0140599
906.936	0.0141285
907.014	0.0140539
907.092	0.0141702
907.170	0.0141586
907.248	0.0141597
907.326	0.0141000
907.405	0.0140282
907.483	0.0139897
907.561	0.0141537
907.639	0.0140884
907.717	0.0139446
907.795	0.0140016
907.873	0.0138795
907.951	0.0140591
908.030	0.0140623
908.108	0.0140643
908.186	0.0142429
908.264	0.0141528
908.342	0.0141576
908.420	0.0141693
908.498	0.0142498
908.576	0.0142061
908.655	0.0142704
908.733	0.0141868
908.811	0.0142355
908.889	0.0142873
908.967	0.0142319
909.045	0.0141560
909.123	0.0141608
909.201	0.0140899
909.280	0.0140730
909.358	0.0142516
909.436	0.0142133
909.514	0.0140443
909.592	0.0140915
909.670	0.0141331
909.748	0.0141162
909.826	0.0140703
909.905	0.0140897
909.983	0.0140009
910.061	0.0140633
910.139	0.0140306
910.217	0.0140154
910.295	0.0140076
910.373	0.0140243
910.451	0.0140917
910.530	0.0140761
910.608	0.0142152
910.686	0.0142384
910.764	0.0142852
910.842	0.0141137
910.920	0.0141832
910.998	0.0142611
911.076	0.0142050
911.155	0.0142542
911.233	0.0142119
911.311	0.0144592
911.389	0.0143656
911.467	0.0142696
911.545	0.0143336
911.623	0.0142997
911.701	0.0142977
911.780	0.0143226
911.858	0.0143147
911.936	0.0140961
912.014	0.0141639
912.092	0.0142100
912.170	0.0142564
912.248	0.0141432
912.326	0.0140807
912.405	0.0140612
912.483	0.0139989
912.561	0.0140462
912.639	0.0139402
912.717	0.0139632
912.795	0.0139811
912.873	0.0140593
912.951	0.0139037
913.030	0.0139964
913.108	0.0139990
913.186	0.0139568
913.264	0.0140137
913.342	0.0139697
913.420	0.0140443
913.498	0.0138525
913.576	0.0140853
913.655	0.0140176
913.733	0.0140662
913.811	0.0141379
913.889	0.0139610
913.967	0.0139377
914.045	0.0141231
914.123	0.0141807
914.201	0.0143723
914.280	0.0142412
914.358	0.0141601
914.436	0.0143587
914.514	0.0144305
914.592	0.0144852
914.670	0.0144281
914.748	0.0144339
914.826	0.0145173
914.905	0.0144066
914.983	0.0143810
915.061	0.0145559
915.139	0.0143284
915.217	0.0143616
915.295	0.0142937
915.373	0.0142669
915.451	0.0142161
915.530	0.0141866
915.608	0.0140486
915.686	0.0139596
915.764	0.0138707
915.842	0.0139771
915.920	0.0139590
915.998	0.0139631
916.076	0.0138905
916.155	0.0138755
916.233	0.0137051
916.311	0.0137794
916.389	0.0139279
916.467	0.0139287
916.545	0.0139455
916.623	0.0137109
916.701	0.0139241
916.780	0.0137805
916.858	0.0139658
916.936	0.0140436
917.014	0.0141428
917.092	0.0139428
917.170	0.0140396
917.248	0.0141667
917.326	0.0141603
917.405	0.0142462
917.483	0.0142503
917.561	0.0143715
917.639	0.0145634
917.717	0.0145077
917.795	0.0144553
917.873	0.0146320
917.951	0.0145739
918.030	0.0145072
918.108	0.0143893
918.186	0.0145117
918.264	0.0143283
918.342	0.0143894
918.420	0.0142730
918.498	0.0143965
918.576	0.0143388
918.655	0.0142045
918.733	0.0141474
918.811	0.0142113
918.889	0.0140606
918.967	0.0140598
919.045	0.0141531
919.123	0.0141281
919.201	0.0141827
919.280	0.0141279
919.358	0.0141750
919.436	0.0142042
919.514	0.0143151
919.592	0.0141682
919.670	0.0141833
919.748	0.0143887
919.826	0.0142944
919.905	0.0143185
919.983	0.0141389
920.061	0.0142417
920.139	0.0142308
920.217	0.0141071
920.295	0.0142575
920.373	0.0141634
920.451	0.0141237
920.530	0.0141949
920.608	0.0140530
920.686	0.0140684
920.764	0.0141647
920.842	0.0141723
920.920	0.0141579
920.998	0.0142154
921.076	0.0144469
921.155	0.0143193
921.233	0.0142291
921.311	0.0143562
921.389	0.0143951
921.467	0.0145188
921.545	0.0144957
921.623	0.0143663
921.701	0.0143327
921.780	0.0142545
921.858	0.0142628
921.936	0.0142641
922.014	0.0142658
922.092	0.0142146
922.170	0.0142816
922.248	0.0141906
922.326	0.0139793
922.405	0.0139227
922.483	0.0139889
922.561	0.0138466
922.639	0.0139851
922.717	0.0138612
922.795	0.0138795
922.873	0.0138893
922.951	0.0137363
923.030	0.0138290
923.108	0.0138414
923.186	0.0138213
923.264	0.0139342
923.342	0.0140648
923.420	0.0139819
923.498	0.0140418
923.576	0.0141555
923.655	0.0142070
923.733	0.0143275
923.811	0.0145436
923.889	0.0145687
923.967	0.0144611
924.045	0.0145869
924.123	0.0146387
924.201	0.0146378
924.280	0.0145647
924.358	0.0146645
924.436	0.0145406
924.514	0.0146684
924.592	0.0146689
924.670	0.0146394
924.748	0.0145367
924.826	0.0144693
924.905	0.0143725
924.983	0.0141818
925.061	0.0142214
925.139	0.0142101
925.217	0.0141581
925.295	0.0140181
925.373	0.0140710
925.451	0.0138497
925.530	0.0140019
925.608	0.0138903
925.686	0.0139014
925.764	0.0137821
925.842	0.0139146
925.920	0.0139341
925.998	0.0139954
926.076	0.0140762
926.155	0.0139684
926.233	0.0139897
926.311	0.0140694
926.389	0.0139860
926.467	0.0140510
926.545	0.0140972
926.623	0.0141117
926.701	0.0142026
926.780	0.0142984
926.858	0.0142192
926.936	0.0141663
927.014	0.0140431
927.092	0.0141507
927.170	0.0141350
927.248	0.0141093
927.326	0.0142246
927.405	0.0141691
927.483	0.0141154
927.561	0.0143176
927.639	0.0143894
927.717	0.0144134
927.795	0.0143118
927.873	0.0142590
927.951	0.0144466
928.030	0.0144556
928.108	0.0144344
928.186	0.0144032
928.264	0.0144229
928.342	0.0144036
928.420	0.0143765
928.498	0.0142183
928.576	0.0141433
928.655	0.0141217
928.733	0.0142042
928.811	0.0142879
928.889	0.0141377
928.967	0.0139545
929.045	0.0139085
929.123	0.0139697
929.201	0.0139750
929.280	0.0139819
929.358	0.0139949
929.436	0.0139204
929.514	0.0140411
929.592	0.0138895
929.670	0.0138946
929.748	0.0138969
929.826	0.0139014
929.905	0.0140396
929.983	0.0140282
930.061	0.0141739
930.139	0.0141422
930.217	0.0141705
930.295	0.0141336
930.373	0.0141550
930.451	0.0142607
930.530	0.0142467
930.608	0.0142014
930.686	0.0142957
930.764	0.0143578
930.842	0.0143406
930.920	0.0143609
930.998	0.0145087
931.076	0.0144648
931.155	0.0145487
931.233	0.0144199
931.311	0.0144359
931.389	0.0144410
931.467	0.0144358
931.545	0.0144279
931.623	0.0144256
931.701	0.0142451
931.780	0.0141611
931.858	0.0142014
931.936	0.0143019
932.014	0.0141436
932.092	0.0141652
932.170	0.0140842
932.248	0.0140814
932.326	0.0140015
932.405	0.0139771
932.483	0.0138551
932.561	0.0140567
932.639	0.0140324
932.717	0.0139854
932.795	0.0139529
932.873	0.0140224
932.951	0.0141859
933.030	0.0140834
933.108	0.0141065
933.186	0.0140856
933.264	0.0142021
933.342	0.0142051
933.420	0.0142152
933.498	0.0143131
933.576	0.0142223
933.655	0.0142508
933.733	0.0143217
933.811	0.0144630
933.889	0.0143400
933.967	0.0143368
934.045	0.0143635
934.123	0.0142281
934.201	0.0142530
934.280	0.0142521
934.358	0.0142582
934.436	0.0142026
934.514	0.0142539
934.592	0.0141782
934.670	0.0142641
934.748	0.0143423
934.826	0.0142929
934.905	0.0143324
934.983	0.0143314
935.061	0.0141975
935.139	0.0143645
935.217	0.0141853
935.295	0.0142628
935.373	0.0141414
935.451	0.0141884
935.530	0.0142003
935.608	0.0141379
935.686	0.0141940
935.764	0.0141486
935.842	0.0140851
935.920	0.0142044
935.998	0.0141549
936.076	0.0140735
936.155	0.0140902
936.233	0.0141344
936.311	0.0141580
936.389	0.0141673
936.467	0.0141974
936.545	0.0142947
936.623	0.0142098
936.701	0.0141572
936.780	0.0141077
936.858	0.0142742
936.936	0.0141961
937.014	0.0142500
937.092	0.0143796
937.170	0.0142293
937.248	0.0142223
937.326	0.0143748
937.405	0.0142010
937.483	0.0142528
937.561	0.0143198
937.639	0.0143842
937.717	0.0144128
937.795	0.0144073
937.873	0.0143140
937.951	0.0144759
938.030	0.0144225
938.108	0.0143231
938.186	0.0143504
938.264	0.0142802
938.342	0.0142339
938.420	0.0142747
938.498	0.0143162
938.576	0.0142796
938.655	0.0141321
938.733	0.0142297
938.811	0.0140300
938.889	0.0140987
938.967	0.0140313
939.045	0.0141027
939.123	0.0140318
939.201	0.0139441
939.280	0.0138008
939.358	0.0139114
939.436	0.0138953
939.514	0.0139668
939.592	0.0141350
939.670	0.0141596
939.748	0.0140623
939.826	0.0142302
939.905	0.0141084
939.983	0.0142308
940.061	0.0143919
940.139	0.0142225
940.217	0.0142525
940.295	0.0143590
940.373	0.0142370
940.451	0.0143778
940.530	0.0144453
940.608	0.0143559
940.686	0.0144747
940.764	0.0144447
940.842	0.0143173
940.920	0.0144551
940.998	0.0144914
941.076	0.0144196
941.155	0.0144431
941.233	0.0145507
941.311	0.0144981
941.389	0.0143133
941.467	0.0143985
941.545	0.0142286
941.623	0.0143520
941.701	0.0143687
941.780	0.0143000
941.858	0.0144414
941.936	0.0142348
942.014	0.0142174
942.092	0.0142435
942.170	0.0142431
942.248	0.0143771
942.326	0.0143396
942.405	0.0142538
942.483	0.0142580
942.561	0.0142793
942.639	0.0141434
942.717	0.0141088
942.795	0.0140790
942.873	0.0142535
942.951	0.0142529
943.030	0.0141061
943.108	0.0141792
943.186	0.0141003
943.264	0.0141449
943.342	0.0140233
943.420	0.0141666
943.498	0.0141290
943.576	0.0140497
943.655	0.0140699
943.733	0.0141453
943.811	0.0141438
943.889	0.0141932
943.967	0.0141694
944.045	0.0141238
944.123	0.0140473
944.201	0.0141438
944.280	0.0141009
944.358	0.0140757
944.436	0.0141463
944.514	0.0142480
944.592	0.0140828
944.670	0.0141110
944.748	0.0141965
944.826	0.0142377
944.905	0.0141201
944.983	0.0141924
945.061	0.0142516
945.139	0.0141029
945.217	0.0143349
945.295	0.0142760
945.373	0.0142670
945.451	0.0141046
945.530	0.0140937
945.608	0.0142028
945.686	0.0141795
945.764	0.0141164
945.842	0.0140237
945.920	0.0140668
945.998	0.0140893
946.076	0.0141936
946.155	0.0141808
946.233	0.0142325
946.311	0.0143057
946.389	0.0143628
946.467	0.0142436
946.545	0.0142654
946.623	0.0142477
946.701	0.0143786
946.780	0.0144945
946.858	0.0143657
946.936	0.0143953
947.014	0.0145413
947.092	0.0145425
947.170	0.0144062
947.248	0.0143735
947.326	0.0145502
947.405	0.0144574
947.483	0.0143861
947.561	0.0144139
947.639	0.0145184
947.717	0.0143596
947.795	0.0144855
947.873	0.0143366
947.951	0.0142374
948.030	0.0142898
948.108	0.0143426
948.186	0.0142620
948.264	0.0143102
948.342	0.0141576
948.420	0.0140405
948.498	0.0141312
948.576	0.0141451
948.655	0.0140292
948.733	0.0141330
948.811	0.0139977
948.889	0.0141367
948.967	0.0141142
949.045	0.0140490
949.123	0.0141061
949.201	0.0141143
949.280	0.0141622
949.358	0.0139975
949.436	0.0140646
949.514	0.0140716
949.592	0.0141116
949.670	0.0141185
949.748	0.0141023
949.826	0.0138898
949.905	0.0139940
949.983	0.0139278
950.061	0.0139932
950.139	0.0140556
950.217	0.0139420
950.295	0.0139111
950.373	0.0140442
950.451	0.0140633
950.530	0.0141325
950.608	0.0141036
950.686	0.0140449
950.764	0.0141257
950.842	0.0140051
950.920	0.0141637
950.998	0.0141060
951.076	0.0141644
951.155	0.0142077
951.233	0.0141007
951.311	0.0141158
951.389	0.0141082
951.467	0.0141238
951.545	0.0141730
951.623	0.0143832
951.701	0.0143401
951.780	0.0142254
951.858	0.0141503
951.936	0.0142329
952.014	0.0142841
952.092	0.0143984
952.170	0.0143514
952.248	0.0143481
952.326	0.0143236
952.405	0.0143600
952.483	0.0144331
952.561	0.0143277
952.639	0.0143172
952.717	0.0143675
952.795	0.0143747
952.873	0.0143102
952.951	0.0141537
953.030	0.0143491
953.108	0.0144672
953.186	0.0142368
953.264	0.0142023
953.342	0.0143148
953.420	0.0143344
953.498	0.0143224
953.576	0.0143149
953.655	0.0142630
953.733	0.0142477
953.811	0.0142603
953.889	0.0143758
953.967	0.0141495
954.045	0.0143876
954.123	0.0143969
954.201	0.0142712
954.280	0.0143979
954.358	0.0142257
954.436	0.0142599
954.514	0.0142039
954.592	0.0142777
954.670	0.0141324
954.748	0.0141314
954.826	0.0142207
954.905	0.0142688
954.983	0.0140806
955.061	0.0141308
955.139	0.0141755
955.217	0.0141827
955.295	0.0141695
955.373	0.0142432
955.451	0.0141017
955.530	0.0141459
955.608	0.0140674
955.686	0.0139284
955.764	0.0140026
955.842	0.0141580
955.920	0.0139310
955.998	0.0140523
956.076	0.0139635
956.155	0.0139168
956.233	0.0140675
956.311	0.0138931
956.389	0.0138821
956.467	0.0140396
956.545	0.0139111
956.623	0.0140794
956.701	0.0140468
956.780	0.0140327
956.858	0.0140781
956.936	0.0140379
957.014	0.0141364
957.092	0.0141977
957.170	0.0143002
957.248	0.0142718
957.326	0.0141314
957.405	0.0143633
957.483	0.0142804
957.561	0.0144918
957.639	0.0142850
957.717	0.0141677
957.795	0.0143114
957.873	0.0144627
957.951	0.0143752
958.030	0.0143896
958.108	0.0142556
958.186	0.0143739
958.264	0.0143117
958.342	0.0143401
958.420	0.0144826
958.498	0.0143090
958.576	0.0142178
958.655	0.0142365
958.733	0.0142635
958.811	0.0142999
958.889	0.0143812
958.967	0.0143603
959.045	0.0142579
959.123	0.0144207
959.201	0.0143738
959.280	0.0142767
959.358	0.0141146
959.436	0.0144207
959.514	0.0143806
959.592	0.0142399
959.670	0.0142625
959.748	0.0143018
959.826	0.0143259
959.905	0.0142971
