05/07/2022	17:05:01	Ver.	4.1	UNKNOWN
Optical Delay	639.996087	Delta X		0.078125	Sweeps	1	Scan Rate	0/0
Coordinates	Axis 1	NaN	Axis 2	NaN	Axis 3	NaN	Axis 4	NaN	Axis 5	NaN	Axis 6	0.000000
TX Power	0.000000	RX Power	0.000000

639.996	0.0125696
640.074	0.0126113
640.152	0.0125000
640.230	0.0126474
640.309	0.0126414
640.387	0.0125573
640.465	0.0126282
640.543	0.0125825
640.621	0.0125718
640.699	0.0124473
640.777	0.0125166
640.855	0.0124331
640.934	0.0125001
641.012	0.0127000
641.090	0.0125387
641.168	0.0126310
641.246	0.0125244
641.324	0.0125877
641.402	0.0125677
641.480	0.0126403
641.559	0.0126361
641.637	0.0126641
641.715	0.0124815
641.793	0.0126133
641.871	0.0125198
641.949	0.0125895
642.027	0.0125229
642.105	0.0126134
642.184	0.0126855
642.262	0.0124634
642.340	0.0124999
642.418	0.0126686
642.496	0.0126093
642.574	0.0125794
642.652	0.0126879
642.730	0.0126508
642.809	0.0125493
642.887	0.0125565
642.965	0.0125266
643.043	0.0126809
643.121	0.0126029
643.199	0.0124484
643.277	0.0126019
643.355	0.0125836
643.434	0.0124741
643.512	0.0125375
643.590	0.0125583
643.668	0.0124964
643.746	0.0125986
643.824	0.0125816
643.902	0.0126019
643.980	0.0125094
644.059	0.0124966
644.137	0.0125756
644.215	0.0126206
644.293	0.0126297
644.371	0.0125390
644.449	0.0125184
644.527	0.0126295
644.605	0.0125806
644.684	0.0125266
644.762	0.0126304
644.840	0.0127203
644.918	0.0125681
644.996	0.0125111
645.074	0.0124755
645.152	0.0126321
645.230	0.0127340
645.309	0.0125382
645.387	0.0123933
645.465	0.0126354
645.543	0.0125192
645.621	0.0125083
645.699	0.0125525
645.777	0.0127206
645.855	0.0126009
645.934	0.0126289
646.012	0.0125611
646.090	0.0126170
646.168	0.0125393
646.246	0.0125320
646.324	0.0126752
646.402	0.0127670
646.480	0.0125934
646.559	0.0125673
646.637	0.0125953
646.715	0.0124776
646.793	0.0125952
646.871	0.0126969
646.949	0.0126952
647.027	0.0126413
647.105	0.0125639
647.184	0.0126653
647.262	0.0125953
647.340	0.0126531
647.418	0.0126934
647.496	0.0124796
647.574	0.0125993
647.652	0.0126443
647.730	0.0125509
647.809	0.0126275
647.887	0.0126096
647.965	0.0125372
648.043	0.0124314
648.121	0.0126064
648.199	0.0125790
648.277	0.0125432
648.355	0.0126276
648.434	0.0125763
648.512	0.0126550
648.590	0.0124829
648.668	0.0125130
648.746	0.0126411
648.824	0.0125203
648.902	0.0124675
648.980	0.0125729
649.059	0.0125797
649.137	0.0125498
649.215	0.0125503
649.293	0.0124970
649.371	0.0126605
649.449	0.0125464
649.527	0.0126225
649.605	0.0126044
649.684	0.0125170
649.762	0.0125751
649.840	0.0126188
649.918	0.0126424
649.996	0.0126156
650.074	0.0124995
650.152	0.0125816
650.230	0.0127467
650.309	0.0125484
650.387	0.0125085
650.465	0.0124885
650.543	0.0126552
650.621	0.0125333
650.699	0.0126452
650.777	0.0125851
650.855	0.0125508
650.934	0.0125959
651.012	0.0124868
651.090	0.0124620
651.168	0.0125880
651.246	0.0125428
651.324	0.0125459
651.402	0.0125575
651.480	0.0126183
651.559	0.0126086
651.637	0.0126191
651.715	0.0125124
651.793	0.0125688
651.871	0.0125070
651.949	0.0125124
652.027	0.0127015
652.105	0.0126769
652.184	0.0125674
652.262	0.0125157
652.340	0.0126145
652.418	0.0124141
652.496	0.0124490
652.574	0.0125301
652.652	0.0126376
652.730	0.0125558
652.809	0.0124621
652.887	0.0124456
652.965	0.0125626
653.043	0.0125874
653.121	0.0125838
653.199	0.0125552
653.277	0.0125461
653.355	0.0125523
653.434	0.0124727
653.512	0.0125154
653.590	0.0126461
653.668	0.0125888
653.746	0.0125491
653.824	0.0125915
653.902	0.0126650
653.980	0.0125904
654.059	0.0124033
654.137	0.0125391
654.215	0.0126387
654.293	0.0125943
654.371	0.0126417
654.449	0.0124995
654.527	0.0127213
654.605	0.0126409
654.684	0.0125784
654.762	0.0126209
654.840	0.0126215
654.918	0.0125690
654.996	0.0124646
655.074	0.0124788
655.152	0.0126317
655.230	0.0125404
655.309	0.0126167
655.387	0.0125124
655.465	0.0123648
655.543	0.0126327
655.621	0.0125452
655.699	0.0125984
655.777	0.0126483
655.855	0.0127036
655.934	0.0125494
656.012	0.0125245
656.090	0.0125327
656.168	0.0124364
656.246	0.0125699
656.324	0.0126633
656.402	0.0126784
656.480	0.0126539
656.559	0.0125587
656.637	0.0125640
656.715	0.0126376
656.793	0.0124986
656.871	0.0126981
656.949	0.0126115
657.027	0.0125196
657.105	0.0125014
657.184	0.0125661
657.262	0.0125314
657.340	0.0125874
657.418	0.0126064
657.496	0.0127085
657.574	0.0127226
657.652	0.0125701
657.730	0.0125123
657.809	0.0126396
657.887	0.0128184
657.965	0.0125077
658.043	0.0125874
658.121	0.0127070
658.199	0.0125487
658.277	0.0124747
658.355	0.0126763
658.434	0.0126371
658.512	0.0127020
658.590	0.0126193
658.668	0.0125429
658.746	0.0126292
658.824	0.0126678
658.902	0.0125927
658.980	0.0126105
659.059	0.0126894
659.137	0.0125695
659.215	0.0125274
659.293	0.0125256
659.371	0.0126321
659.449	0.0125218
659.527	0.0126648
659.605	0.0126272
659.684	0.0125995
659.762	0.0125231
659.840	0.0126724
659.918	0.0125545
659.996	0.0126550
660.074	0.0126881
660.152	0.0125165
660.230	0.0126622
660.309	0.0126629
660.387	0.0126295
660.465	0.0126321
660.543	0.0125233
660.621	0.0126786
660.699	0.0126591
660.777	0.0125951
660.855	0.0125690
660.934	0.0125981
661.012	0.0125906
661.090	0.0125037
661.168	0.0126725
661.246	0.0126093
661.324	0.0125602
661.402	0.0124767
661.480	0.0126439
661.559	0.0125249
661.637	0.0124008
661.715	0.0126457
661.793	0.0126142
661.871	0.0125979
661.949	0.0125852
662.027	0.0125417
662.105	0.0126239
662.184	0.0126418
662.262	0.0125082
662.340	0.0124881
662.418	0.0125612
662.496	0.0127010
662.574	0.0125948
662.652	0.0125617
662.730	0.0126546
662.809	0.0125327
662.887	0.0126711
662.965	0.0127090
663.043	0.0126002
663.121	0.0125675
663.199	0.0124677
663.277	0.0125915
663.355	0.0124687
663.434	0.0125515
663.512	0.0125638
663.590	0.0124603
663.668	0.0124274
663.746	0.0125118
663.824	0.0124856
663.902	0.0125262
663.980	0.0125966
664.059	0.0124523
664.137	0.0126021
664.215	0.0126057
664.293	0.0124656
664.371	0.0124837
664.449	0.0126038
664.527	0.0123894
664.605	0.0123871
664.684	0.0125138
664.762	0.0126342
664.840	0.0126629
664.918	0.0124056
664.996	0.0125124
665.074	0.0125568
665.152	0.0125346
665.230	0.0125856
665.309	0.0126034
665.387	0.0124962
665.465	0.0124789
665.543	0.0126172
665.621	0.0126227
665.699	0.0125589
665.777	0.0125253
665.855	0.0126295
665.934	0.0125763
666.012	0.0124799
666.090	0.0126971
666.168	0.0126168
666.246	0.0126240
666.324	0.0125924
666.402	0.0126080
666.480	0.0125278
666.559	0.0125532
666.637	0.0126465
666.715	0.0126170
666.793	0.0126194
666.871	0.0125803
666.949	0.0124617
667.027	0.0126151
667.105	0.0126083
667.184	0.0127036
667.262	0.0125526
667.340	0.0126453
667.418	0.0125711
667.496	0.0125475
667.574	0.0125266
667.652	0.0126768
667.730	0.0126015
667.809	0.0125610
667.887	0.0126154
667.965	0.0125835
668.043	0.0125942
668.121	0.0125819
668.199	0.0125845
668.277	0.0126127
668.355	0.0127643
668.434	0.0126163
668.512	0.0126550
668.590	0.0125117
668.668	0.0126004
668.746	0.0126477
668.824	0.0126988
668.902	0.0127193
668.980	0.0126569
669.059	0.0126616
669.137	0.0126367
669.215	0.0126910
669.293	0.0127292
669.371	0.0127473
669.449	0.0127467
669.527	0.0126204
669.605	0.0126855
669.684	0.0126780
669.762	0.0127392
669.840	0.0126059
669.918	0.0126117
669.996	0.0127438
670.074	0.0128168
670.152	0.0126778
670.230	0.0125960
670.309	0.0126495
670.387	0.0126749
670.465	0.0126473
670.543	0.0126563
670.621	0.0126213
670.699	0.0125503
670.777	0.0125346
670.855	0.0127085
670.934	0.0127547
671.012	0.0126752
671.090	0.0125421
671.168	0.0126366
671.246	0.0126199
671.324	0.0126640
671.402	0.0126443
671.480	0.0126261
671.559	0.0125912
671.637	0.0126595
671.715	0.0126753
671.793	0.0125315
671.871	0.0125329
671.949	0.0127156
672.027	0.0126653
672.105	0.0126585
672.184	0.0124224
672.262	0.0126075
672.340	0.0126910
672.418	0.0124838
672.496	0.0125411
672.574	0.0126315
672.652	0.0126213
672.730	0.0127269
672.809	0.0125547
672.887	0.0125169
672.965	0.0126139
673.043	0.0126289
673.121	0.0126067
673.199	0.0125581
673.277	0.0126805
673.355	0.0126604
673.434	0.0126085
673.512	0.0125099
673.590	0.0125335
673.668	0.0127539
673.746	0.0127219
673.824	0.0125399
673.902	0.0127994
673.980	0.0126261
674.059	0.0125322
674.137	0.0125571
674.215	0.0125655
674.293	0.0125257
674.371	0.0124371
674.449	0.0124998
674.527	0.0125659
674.605	0.0124744
674.684	0.0124744
674.762	0.0124802
674.840	0.0125838
674.918	0.0124200
674.996	0.0125357
675.074	0.0124595
675.152	0.0125360
675.230	0.0125308
675.309	0.0124727
675.387	0.0125095
675.465	0.0125517
675.543	0.0125358
675.621	0.0126125
675.699	0.0126443
675.777	0.0124838
675.855	0.0124638
675.934	0.0125620
676.012	0.0125433
676.090	0.0124918
676.168	0.0126096
676.246	0.0124249
676.324	0.0124586
676.402	0.0126656
676.480	0.0126210
676.559	0.0124223
676.637	0.0124417
676.715	0.0124965
676.793	0.0125543
676.871	0.0126104
676.949	0.0124400
677.027	0.0124647
677.105	0.0124300
677.184	0.0124706
677.262	0.0125053
677.340	0.0125256
677.418	0.0123972
677.496	0.0125359
677.574	0.0126438
677.652	0.0125155
677.730	0.0124751
677.809	0.0124857
677.887	0.0123135
677.965	0.0124770
678.043	0.0124026
678.121	0.0125667
678.199	0.0124650
678.277	0.0125327
678.355	0.0125897
678.434	0.0123948
678.512	0.0124754
678.590	0.0124139
678.668	0.0125436
678.746	0.0123321
678.824	0.0125311
678.902	0.0126537
678.980	0.0125547
679.059	0.0126044
679.137	0.0126069
679.215	0.0124658
679.293	0.0126624
679.371	0.0125906
679.449	0.0124727
679.527	0.0124660
679.605	0.0126530
679.684	0.0127436
679.762	0.0126582
679.840	0.0127144
679.918	0.0124435
679.996	0.0125223
680.074	0.0126076
680.152	0.0124986
680.230	0.0124753
680.309	0.0124931
680.387	0.0125230
680.465	0.0125817
680.543	0.0126022
680.621	0.0126212
680.699	0.0126541
680.777	0.0126392
680.855	0.0125451
680.934	0.0124830
681.012	0.0125203
681.090	0.0125671
681.168	0.0124949
681.246	0.0125017
681.324	0.0126573
681.402	0.0126597
681.480	0.0125305
681.559	0.0124744
681.637	0.0125448
681.715	0.0126287
681.793	0.0125603
681.871	0.0126793
681.949	0.0127707
682.027	0.0126745
682.105	0.0126660
682.184	0.0126461
682.262	0.0126019
682.340	0.0126261
682.418	0.0126477
682.496	0.0126614
682.574	0.0124940
682.652	0.0126393
682.730	0.0124446
682.809	0.0123025
682.887	0.0122935
682.965	0.0123719
683.043	0.0122464
683.121	0.0121875
683.199	0.0124738
683.277	0.0125835
683.355	0.0127191
683.434	0.0127453
683.512	0.0129551
683.590	0.0129694
683.668	0.0132330
683.746	0.0132628
683.824	0.0132213
683.902	0.0132394
683.980	0.0131068
684.059	0.0130579
684.137	0.0129233
684.215	0.0127663
684.293	0.0125281
684.371	0.0122530
684.449	0.0119511
684.527	0.0118693
684.605	0.0117175
684.684	0.0114044
684.762	0.0115273
684.840	0.0114177
684.918	0.0114646
684.996	0.0116160
685.074	0.0118608
685.152	0.0122293
685.230	0.0125326
685.309	0.0129054
685.387	0.0132878
685.465	0.0134437
685.543	0.0137878
685.621	0.0139104
685.699	0.0140154
685.777	0.0142635
685.855	0.0142757
685.934	0.0141476
686.012	0.0139745
686.090	0.0137971
686.168	0.0135517
686.246	0.0132742
686.324	0.0126685
686.402	0.0123809
686.480	0.0119501
686.559	0.0115228
686.637	0.0112382
686.715	0.0107169
686.793	0.0104010
686.871	0.0100713
686.949	0.00990952
687.027	0.00983894
687.105	0.00988861
687.184	0.0101748
687.262	0.0107576
687.340	0.0110725
687.418	0.0116872
687.496	0.0124353
687.574	0.0130081
687.652	0.0137499
687.730	0.0143382
687.809	0.0148140
687.887	0.0153594
687.965	0.0156599
688.043	0.0158264
688.121	0.0157531
688.199	0.0158008
688.277	0.0153592
688.355	0.0149612
688.434	0.0146043
688.512	0.0141331
688.590	0.0135771
688.668	0.0130166
688.746	0.0127294
688.824	0.0120343
688.902	0.0115917
688.980	0.0111467
689.059	0.0106866
689.137	0.0103832
689.215	0.0100215
689.293	0.00981499
689.371	0.00977837
689.449	0.00964157
689.527	0.00973038
689.605	0.00983994
689.684	0.0101115
689.762	0.0105491
689.840	0.0109168
689.918	0.0115025
689.996	0.0118578
690.074	0.0124126
690.152	0.0128700
690.230	0.0132803
690.309	0.0136000
690.387	0.0139189
690.465	0.0140504
690.543	0.0144442
690.621	0.0146658
690.699	0.0146141
690.777	0.0147028
690.855	0.0148164
690.934	0.0146905
691.012	0.0146948
691.090	0.0146162
691.168	0.0146117
691.246	0.0145463
691.324	0.0143755
691.402	0.0141760
691.480	0.0137975
691.559	0.0135490
691.637	0.0133542
691.715	0.0128755
691.793	0.0123637
691.871	0.0117817
691.949	0.0113763
692.027	0.0110470
692.105	0.0106536
692.184	0.0103167
692.262	0.0100504
692.340	0.00978279
692.418	0.00978577
692.496	0.00958252
692.574	0.00971710
692.652	0.00984810
692.730	0.0100391
692.809	0.0105410
692.887	0.0108087
692.965	0.0112551
693.043	0.0117194
693.121	0.0121180
693.199	0.0126015
693.277	0.0130239
693.355	0.0134048
693.434	0.0139361
693.512	0.0142804
693.590	0.0145833
693.668	0.0148024
693.746	0.0148582
693.824	0.0151854
693.902	0.0153195
693.980	0.0152119
694.059	0.0151587
694.137	0.0148529
694.215	0.0147097
694.293	0.0146289
694.371	0.0142967
694.449	0.0138871
694.527	0.0134162
694.605	0.0130942
694.684	0.0128357
694.762	0.0125146
694.840	0.0120643
694.918	0.0117319
694.996	0.0112490
695.074	0.0111573
695.152	0.0109293
695.230	0.0107668
695.309	0.0106818
695.387	0.0105733
695.465	0.0107491
695.543	0.0108950
695.621	0.0108833
695.699	0.0110570
695.777	0.0113459
695.855	0.0116254
695.934	0.0118806
696.012	0.0122116
696.090	0.0124628
696.168	0.0127476
696.246	0.0130419
696.324	0.0132446
696.402	0.0135043
696.480	0.0137817
696.559	0.0138219
696.637	0.0139295
696.715	0.0137981
696.793	0.0138231
696.871	0.0134538
696.949	0.0134054
697.027	0.0132170
697.105	0.0129246
697.184	0.0127283
697.262	0.0126785
697.340	0.0121877
697.418	0.0121049
697.496	0.0118146
697.574	0.0115129
697.652	0.0114580
697.730	0.0113343
697.809	0.0113065
697.887	0.0113190
697.965	0.0115501
698.043	0.0114141
698.121	0.0117088
698.199	0.0121056
698.277	0.0122411
698.355	0.0125638
698.434	0.0127959
698.512	0.0132794
698.590	0.0134889
698.668	0.0136743
698.746	0.0137518
698.824	0.0140213
698.902	0.0142218
698.980	0.0141869
699.059	0.0143017
699.137	0.0141962
699.215	0.0141782
699.293	0.0139465
699.371	0.0140237
699.449	0.0137553
699.527	0.0132943
699.605	0.0130042
699.684	0.0127354
699.762	0.0124696
699.840	0.0122495
699.918	0.0120483
699.996	0.0115827
700.074	0.0114436
700.152	0.0111004
700.230	0.0109837
700.309	0.0107980
700.387	0.0108850
700.465	0.0106077
700.543	0.0104006
700.621	0.0106879
700.699	0.0106074
700.777	0.0107292
700.855	0.0110336
700.934	0.0110219
701.012	0.0113602
701.090	0.0114103
701.168	0.0115496
701.246	0.0120226
701.324	0.0124579
701.402	0.0126164
701.480	0.0127758
701.559	0.0130358
701.637	0.0132436
701.715	0.0135518
701.793	0.0136994
701.871	0.0139384
701.949	0.0139560
702.027	0.0140710
702.105	0.0140096
702.184	0.0139159
702.262	0.0139367
702.340	0.0138356
702.418	0.0136621
702.496	0.0134546
702.574	0.0133746
702.652	0.0132677
702.730	0.0129869
702.809	0.0127213
702.887	0.0125156
702.965	0.0122104
703.043	0.0121244
703.121	0.0122050
703.199	0.0120142
703.277	0.0120271
703.355	0.0118610
703.434	0.0119762
703.512	0.0119257
703.590	0.0119951
703.668	0.0121189
703.746	0.0123717
703.824	0.0124519
703.902	0.0123988
703.980	0.0125124
704.059	0.0126793
704.137	0.0128152
704.215	0.0127874
704.293	0.0129716
704.371	0.0129941
704.449	0.0131917
704.527	0.0131095
704.605	0.0130595
704.684	0.0129697
704.762	0.0129284
704.840	0.0128434
704.918	0.0128343
704.996	0.0125994
705.074	0.0125507
705.152	0.0123432
705.230	0.0123080
705.309	0.0121966
705.387	0.0120987
705.465	0.0120040
705.543	0.0119112
705.621	0.0118299
705.699	0.0116694
705.777	0.0116628
705.855	0.0116204
705.934	0.0115545
706.012	0.0116569
706.090	0.0115145
706.168	0.0114810
706.246	0.0116001
706.324	0.0115630
706.402	0.0118817
706.480	0.0118098
706.559	0.0118927
706.637	0.0121659
706.715	0.0121716
706.793	0.0123728
706.871	0.0126452
706.949	0.0127378
707.027	0.0127016
707.105	0.0130391
707.184	0.0132011
707.262	0.0132995
707.340	0.0134247
707.418	0.0135733
707.496	0.0137500
707.574	0.0138890
707.652	0.0138824
707.730	0.0139349
707.809	0.0139948
707.887	0.0140427
707.965	0.0139915
708.043	0.0140501
708.121	0.0140549
708.199	0.0139783
708.277	0.0138207
708.355	0.0138537
708.434	0.0135846
708.512	0.0133432
708.590	0.0130629
708.668	0.0128698
708.746	0.0127769
708.824	0.0125650
708.902	0.0123066
708.980	0.0121072
709.059	0.0118798
709.137	0.0115910
709.215	0.0117382
709.293	0.0114816
709.371	0.0114921
709.449	0.0113689
709.527	0.0111683
709.605	0.0110896
709.684	0.0111578
709.762	0.0113236
709.840	0.0113445
709.918	0.0113067
709.996	0.0113393
710.074	0.0113692
710.152	0.0114286
710.230	0.0116088
710.309	0.0115765
710.387	0.0117691
710.465	0.0117886
710.543	0.0118730
710.621	0.0119304
710.699	0.0121525
710.777	0.0124171
710.855	0.0123909
710.934	0.0124752
711.012	0.0126347
711.090	0.0127072
711.168	0.0126891
711.246	0.0127274
711.324	0.0127833
711.402	0.0128400
711.480	0.0128095
711.559	0.0129355
711.637	0.0129539
711.715	0.0128971
711.793	0.0130138
711.871	0.0132554
711.949	0.0132313
712.027	0.0133765
712.105	0.0135941
712.184	0.0137047
712.262	0.0136773
712.340	0.0138140
712.418	0.0139433
712.496	0.0139219
712.574	0.0139960
712.652	0.0139584
712.730	0.0139120
712.809	0.0138689
712.887	0.0139327
712.965	0.0137316
713.043	0.0133619
713.121	0.0132313
713.199	0.0131437
713.277	0.0127555
713.355	0.0124625
713.434	0.0124918
713.512	0.0121229
713.590	0.0118639
713.668	0.0116389
713.746	0.0114818
713.824	0.0113651
713.902	0.0112287
713.980	0.0109998
714.059	0.0110836
714.137	0.0111596
714.215	0.0110017
714.293	0.0109676
714.371	0.0111282
714.449	0.0112734
714.527	0.0113120
714.605	0.0113885
714.684	0.0114401
714.762	0.0117670
714.840	0.0119016
714.918	0.0118954
714.996	0.0121386
715.074	0.0122462
715.152	0.0124117
715.230	0.0124616
715.309	0.0126234
715.387	0.0126868
715.465	0.0126041
715.543	0.0126786
715.621	0.0126495
715.699	0.0127139
715.777	0.0129162
715.855	0.0128955
715.934	0.0127913
716.012	0.0126301
716.090	0.0127997
716.168	0.0126789
716.246	0.0126456
716.324	0.0126241
716.402	0.0125481
716.480	0.0126273
716.559	0.0126041
716.637	0.0127245
716.715	0.0127235
716.793	0.0127600
716.871	0.0128432
716.949	0.0129893
717.027	0.0131296
717.105	0.0134045
717.184	0.0132315
717.262	0.0135760
717.340	0.0134293
717.418	0.0135290
717.496	0.0137503
717.574	0.0136639
717.652	0.0137884
717.730	0.0137058
717.809	0.0136045
717.887	0.0134963
717.965	0.0134495
718.043	0.0132919
718.121	0.0131618
718.199	0.0129379
718.277	0.0129306
718.355	0.0127633
718.434	0.0127229
718.512	0.0126220
718.590	0.0125439
718.668	0.0124713
718.746	0.0122391
718.824	0.0122537
718.902	0.0120888
718.980	0.0121250
719.059	0.0121714
719.137	0.0120560
719.215	0.0122086
719.293	0.0121922
719.371	0.0120426
719.449	0.0119811
719.527	0.0119895
719.605	0.0117847
719.684	0.0118285
719.762	0.0118390
719.840	0.0118475
719.918	0.0117714
719.996	0.0115820
720.074	0.0117197
720.152	0.0117870
720.230	0.0117221
720.309	0.0118346
720.387	0.0118467
720.465	0.0119884
720.543	0.0119354
720.621	0.0119744
720.699	0.0120707
720.777	0.0122765
720.855	0.0122876
720.934	0.0123661
721.012	0.0125770
721.090	0.0127779
721.168	0.0126466
721.246	0.0126984
721.324	0.0129013
721.402	0.0128484
721.480	0.0128120
721.559	0.0128186
721.637	0.0128298
721.715	0.0128197
721.793	0.0129232
721.871	0.0128575
721.949	0.0128932
722.027	0.0128751
722.105	0.0130685
722.184	0.0132536
722.262	0.0131900
722.340	0.0133294
722.418	0.0134576
722.496	0.0134300
722.574	0.0136089
722.652	0.0137922
722.730	0.0137044
722.809	0.0138944
722.887	0.0139291
722.965	0.0137476
723.043	0.0137294
723.121	0.0137134
723.199	0.0135573
723.277	0.0132865
723.355	0.0130975
723.434	0.0128542
723.512	0.0128404
723.590	0.0125866
723.668	0.0123107
723.746	0.0120892
723.824	0.0118748
723.902	0.0117757
723.980	0.0117891
724.059	0.0116669
724.137	0.0116228
724.215	0.0116093
724.293	0.0117690
724.371	0.0115343
724.449	0.0114932
724.527	0.0117053
724.605	0.0116843
724.684	0.0119158
724.762	0.0119231
724.840	0.0120993
724.918	0.0119960
724.996	0.0121210
725.074	0.0123131
725.152	0.0124303
725.230	0.0123980
725.309	0.0124890
725.387	0.0128023
725.465	0.0127120
725.543	0.0126778
725.621	0.0126131
725.699	0.0125691
725.777	0.0126900
725.855	0.0124596
725.934	0.0124879
726.012	0.0124253
726.090	0.0123517
726.168	0.0122365
726.246	0.0122203
726.324	0.0122350
726.402	0.0120705
726.480	0.0120653
726.559	0.0120148
726.637	0.0121346
726.715	0.0121743
726.793	0.0121363
726.871	0.0123110
726.949	0.0124191
727.027	0.0124906
727.105	0.0128335
727.184	0.0129317
727.262	0.0131316
727.340	0.0134299
727.418	0.0133504
727.496	0.0134650
727.574	0.0136574
727.652	0.0137608
727.730	0.0138788
727.809	0.0139077
727.887	0.0139594
727.965	0.0138911
728.043	0.0136932
728.121	0.0135204
728.199	0.0135438
728.277	0.0135555
728.355	0.0132520
728.434	0.0131481
728.512	0.0129726
728.590	0.0128135
728.668	0.0124526
728.746	0.0122422
728.824	0.0121758
728.902	0.0121056
728.980	0.0119031
729.059	0.0117761
729.137	0.0115949
729.215	0.0115714
729.293	0.0115931
729.371	0.0115874
729.449	0.0116605
729.527	0.0115887
729.605	0.0117006
729.684	0.0118504
729.762	0.0120281
729.840	0.0121130
729.918	0.0121565
729.996	0.0123495
730.074	0.0123323
730.152	0.0124734
730.230	0.0126240
730.309	0.0128847
730.387	0.0128461
730.465	0.0129209
730.543	0.0129176
730.621	0.0130728
730.699	0.0130806
730.777	0.0131676
730.855	0.0130160
730.934	0.0131432
731.012	0.0129308
731.090	0.0127758
731.168	0.0127915
731.246	0.0127026
731.324	0.0126535
731.402	0.0125612
731.480	0.0124144
731.559	0.0123158
731.637	0.0120219
731.715	0.0120731
731.793	0.0120087
731.871	0.0118716
731.949	0.0118308
732.027	0.0119144
732.105	0.0117895
732.184	0.0118504
732.262	0.0118258
732.340	0.0120549
732.418	0.0120214
732.496	0.0122261
732.574	0.0123698
732.652	0.0123813
732.730	0.0126171
732.809	0.0125980
732.887	0.0129670
732.965	0.0130810
733.043	0.0132072
733.121	0.0133242
733.199	0.0135674
733.277	0.0135294
733.355	0.0134121
733.434	0.0135257
733.512	0.0135088
733.590	0.0136263
733.668	0.0134499
733.746	0.0135130
733.824	0.0133131
733.902	0.0132092
733.980	0.0132345
734.059	0.0129960
734.137	0.0129295
734.215	0.0127840
734.293	0.0125951
734.371	0.0123501
734.449	0.0123959
734.527	0.0120603
734.605	0.0118855
734.684	0.0120013
734.762	0.0119672
734.840	0.0118489
734.918	0.0118848
734.996	0.0119167
735.074	0.0118276
735.152	0.0118993
735.230	0.0120444
735.309	0.0120042
735.387	0.0119771
735.465	0.0121491
735.543	0.0122748
735.621	0.0123347
735.699	0.0124087
735.777	0.0124833
735.855	0.0125769
735.934	0.0126704
736.012	0.0127722
736.090	0.0128368
736.168	0.0128407
736.246	0.0127205
736.324	0.0128848
736.402	0.0128201
736.480	0.0127188
736.559	0.0125754
736.637	0.0126365
736.715	0.0126926
736.793	0.0125600
736.871	0.0125586
736.949	0.0124876
737.027	0.0124400
737.105	0.0124518
737.184	0.0124346
737.262	0.0123434
737.340	0.0123871
737.418	0.0123125
737.496	0.0124030
737.574	0.0123567
737.652	0.0123122
737.730	0.0122917
737.809	0.0123018
737.887	0.0123608
737.965	0.0122619
738.043	0.0122927
738.121	0.0123383
738.199	0.0125002
738.277	0.0122608
738.355	0.0124546
738.434	0.0125613
738.512	0.0126372
738.590	0.0126500
738.668	0.0127809
738.746	0.0126781
738.824	0.0127943
738.902	0.0128533
738.980	0.0128752
739.059	0.0128682
739.137	0.0130358
739.215	0.0131267
739.293	0.0130035
739.371	0.0130743
739.449	0.0130849
739.527	0.0129056
739.605	0.0130800
739.684	0.0130006
739.762	0.0129172
739.840	0.0129824
739.918	0.0128613
739.996	0.0129361
740.074	0.0127546
740.152	0.0125917
740.230	0.0125086
740.309	0.0126340
740.387	0.0124908
740.465	0.0124582
740.543	0.0123544
740.621	0.0123583
740.699	0.0121609
740.777	0.0121861
740.855	0.0121658
740.934	0.0122009
741.012	0.0120280
741.090	0.0119579
741.168	0.0120809
741.246	0.0120564
741.324	0.0120869
741.402	0.0121571
741.480	0.0121237
741.559	0.0120840
741.637	0.0122289
741.715	0.0122952
741.793	0.0123264
741.871	0.0124698
741.949	0.0125166
742.027	0.0125193
742.105	0.0125824
742.184	0.0127872
742.262	0.0129205
742.340	0.0129033
742.418	0.0129133
742.496	0.0130072
742.574	0.0130965
742.652	0.0130258
742.730	0.0130541
742.809	0.0129581
742.887	0.0130094
742.965	0.0129978
743.043	0.0129713
743.121	0.0127658
743.199	0.0128085
743.277	0.0129606
743.355	0.0127978
743.434	0.0127517
743.512	0.0127054
743.590	0.0125632
743.668	0.0124829
743.746	0.0124408
743.824	0.0122755
743.902	0.0124086
743.980	0.0122713
744.059	0.0121198
744.137	0.0121114
744.215	0.0122012
744.293	0.0120885
744.371	0.0120603
744.449	0.0122107
744.527	0.0122427
744.605	0.0122387
744.684	0.0123614
744.762	0.0124684
744.840	0.0125116
744.918	0.0125949
744.996	0.0126114
745.074	0.0126864
745.152	0.0128941
745.230	0.0128431
745.309	0.0128632
745.387	0.0129353
745.465	0.0130299
745.543	0.0130848
745.621	0.0130151
745.699	0.0130848
745.777	0.0129049
745.855	0.0128902
745.934	0.0128928
746.012	0.0129900
746.090	0.0128928
746.168	0.0126528
746.246	0.0126306
746.324	0.0125194
746.402	0.0125510
746.480	0.0124045
746.559	0.0123333
746.637	0.0121796
746.715	0.0123279
746.793	0.0121316
746.871	0.0119547
746.949	0.0121840
747.027	0.0121640
747.105	0.0121329
747.184	0.0120978
747.262	0.0122273
747.340	0.0122341
747.418	0.0124594
747.496	0.0125409
747.574	0.0126115
747.652	0.0126239
747.730	0.0126395
747.809	0.0128442
747.887	0.0128592
747.965	0.0129340
748.043	0.0129695
748.121	0.0130722
748.199	0.0132690
748.277	0.0132536
748.355	0.0132462
748.434	0.0132880
748.512	0.0130872
748.590	0.0131214
748.668	0.0132343
748.746	0.0130923
748.824	0.0129626
748.902	0.0129769
748.980	0.0127446
749.059	0.0128174
749.137	0.0127573
749.215	0.0126280
749.293	0.0126186
749.371	0.0125198
749.449	0.0123814
749.527	0.0123071
749.605	0.0124072
749.684	0.0121068
749.762	0.0121525
749.840	0.0122525
749.918	0.0121193
749.996	0.0120446
750.074	0.0121283
750.152	0.0119386
750.230	0.0118628
750.309	0.0118909
750.387	0.0118916
750.465	0.0119740
750.543	0.0119003
750.621	0.0119456
750.699	0.0118950
750.777	0.0119631
750.855	0.0120111
750.934	0.0120538
751.012	0.0122174
751.090	0.0122878
751.168	0.0124460
751.246	0.0123964
751.324	0.0124784
751.402	0.0126125
751.480	0.0126081
751.559	0.0127973
751.637	0.0127771
751.715	0.0127715
751.793	0.0129670
751.871	0.0129807
751.949	0.0130094
752.027	0.0130344
752.105	0.0129941
752.184	0.0131092
752.262	0.0130989
752.340	0.0130023
752.418	0.0129705
752.496	0.0130914
752.574	0.0130289
752.652	0.0129742
752.730	0.0131120
752.809	0.0130108
752.887	0.0128850
752.965	0.0128318
753.043	0.0127961
753.121	0.0130556
753.199	0.0128195
753.277	0.0127470
753.355	0.0127293
753.434	0.0128519
753.512	0.0128313
753.590	0.0126665
753.668	0.0128195
753.746	0.0127713
753.824	0.0126609
753.902	0.0126292
753.980	0.0125912
754.059	0.0126482
754.137	0.0126432
754.215	0.0127817
754.293	0.0126200
754.371	0.0126646
754.449	0.0128171
754.527	0.0127062
754.605	0.0126004
754.684	0.0125220
754.762	0.0123969
754.840	0.0126134
754.918	0.0124339
754.996	0.0126214
755.074	0.0125096
755.152	0.0124066
755.230	0.0125838
755.309	0.0126038
755.387	0.0125381
755.465	0.0124609
755.543	0.0125072
755.621	0.0125369
755.699	0.0124913
755.777	0.0124909
755.855	0.0124651
755.934	0.0124283
756.012	0.0125103
756.090	0.0124020
756.168	0.0123380
756.246	0.0122900
756.324	0.0122087
756.402	0.0120898
756.480	0.0121107
756.559	0.0120305
756.637	0.0119974
756.715	0.0119684
756.793	0.0120088
756.871	0.0120142
756.949	0.0121140
757.027	0.0120908
757.105	0.0122321
757.184	0.0123071
757.262	0.0123679
757.340	0.0124418
757.418	0.0127017
757.496	0.0128178
757.574	0.0128473
757.652	0.0129686
757.730	0.0130019
757.809	0.0130404
757.887	0.0130161
757.965	0.0131611
758.043	0.0132573
758.121	0.0131985
758.199	0.0131540
758.277	0.0131113
758.355	0.0130463
758.434	0.0131496
758.512	0.0131235
758.590	0.0130722
758.668	0.0129770
758.746	0.0128892
758.824	0.0128442
758.902	0.0128595
758.980	0.0126665
759.059	0.0126702
759.137	0.0126862
759.215	0.0125390
759.293	0.0125032
759.371	0.0125437
759.449	0.0126096
759.527	0.0125072
759.605	0.0126295
759.684	0.0125832
759.762	0.0125529
759.840	0.0125822
759.918	0.0125533
759.996	0.0126057
760.074	0.0126983
760.152	0.0126206
760.230	0.0125345
760.309	0.0125673
760.387	0.0126491
760.465	0.0126448
760.543	0.0125065
760.621	0.0122629
760.699	0.0124376
760.777	0.0123961
760.855	0.0124152
760.934	0.0121662
761.012	0.0122637
761.090	0.0123606
761.168	0.0124571
761.246	0.0122575
761.324	0.0121853
761.402	0.0122302
761.480	0.0122639
761.559	0.0123203
761.637	0.0122475
761.715	0.0123092
761.793	0.0122162
761.871	0.0122385
761.949	0.0121890
762.027	0.0122046
762.105	0.0122121
762.184	0.0120782
762.262	0.0122747
762.340	0.0122739
762.418	0.0120940
762.496	0.0121722
762.574	0.0122482
762.652	0.0122948
762.730	0.0122232
762.809	0.0124339
762.887	0.0123591
762.965	0.0124003
763.043	0.0123451
763.121	0.0123808
763.199	0.0126555
763.277	0.0125726
763.355	0.0126180
763.434	0.0128066
763.512	0.0128819
763.590	0.0130079
763.668	0.0131385
763.746	0.0132027
763.824	0.0132581
763.902	0.0133413
763.980	0.0132967
764.059	0.0133130
764.137	0.0134684
764.215	0.0133095
764.293	0.0133725
764.371	0.0134071
764.449	0.0132140
764.527	0.0132523
764.605	0.0132207
764.684	0.0130789
764.762	0.0130686
764.840	0.0130015
764.918	0.0128688
764.996	0.0128144
765.074	0.0127307
765.152	0.0127159
765.230	0.0125282
765.309	0.0125212
765.387	0.0123976
765.465	0.0124046
765.543	0.0123544
765.621	0.0122129
765.699	0.0121116
765.777	0.0122043
765.855	0.0121581
765.934	0.0121134
766.012	0.0120650
766.090	0.0122071
766.168	0.0121795
766.246	0.0121854
766.324	0.0121381
766.402	0.0123641
766.480	0.0122321
766.559	0.0122636
766.637	0.0125716
766.715	0.0124258
766.793	0.0125227
766.871	0.0124770
766.949	0.0126170
767.027	0.0126414
767.105	0.0125961
767.184	0.0129502
767.262	0.0128066
767.340	0.0128623
767.418	0.0129017
767.496	0.0129333
767.574	0.0130191
767.652	0.0129593
767.730	0.0129697
767.809	0.0128966
767.887	0.0128381
767.965	0.0127892
768.043	0.0128303
768.121	0.0126927
768.199	0.0125471
768.277	0.0127454
768.355	0.0127957
768.434	0.0126733
768.512	0.0125227
768.590	0.0123454
768.668	0.0124520
768.746	0.0124507
768.824	0.0125186
768.902	0.0123523
768.980	0.0124597
769.059	0.0124235
769.137	0.0124016
769.215	0.0123038
769.293	0.0122572
769.371	0.0121367
769.449	0.0122855
769.527	0.0123728
769.605	0.0122746
769.684	0.0123402
769.762	0.0123161
769.840	0.0123412
769.918	0.0124811
769.996	0.0123896
770.074	0.0124574
770.152	0.0125198
770.230	0.0125653
770.309	0.0125719
770.387	0.0127868
770.465	0.0128016
770.543	0.0127041
770.621	0.0127300
770.699	0.0129169
770.777	0.0129219
770.855	0.0130091
770.934	0.0128284
771.012	0.0129282
771.090	0.0128615
771.168	0.0129099
771.246	0.0129976
771.324	0.0129077
771.402	0.0127443
771.480	0.0127793
771.559	0.0127666
771.637	0.0127388
771.715	0.0127638
771.793	0.0126673
771.871	0.0126968
771.949	0.0125340
772.027	0.0125328
772.105	0.0126147
772.184	0.0125513
772.262	0.0125128
772.340	0.0123653
772.418	0.0124081
772.496	0.0123662
772.574	0.0123515
772.652	0.0123942
772.730	0.0123773
772.809	0.0122100
772.887	0.0122176
772.965	0.0122287
773.043	0.0121315
773.121	0.0123467
773.199	0.0123438
773.277	0.0122368
773.355	0.0122408
773.434	0.0124072
773.512	0.0123722
773.590	0.0125049
773.668	0.0125095
773.746	0.0126675
773.824	0.0125011
773.902	0.0125922
773.980	0.0125979
774.059	0.0126511
774.137	0.0127303
774.215	0.0128455
774.293	0.0128136
774.371	0.0127070
774.449	0.0127847
774.527	0.0128010
774.605	0.0128537
774.684	0.0128073
774.762	0.0126511
774.840	0.0126848
774.918	0.0126376
774.996	0.0124674
775.074	0.0124390
775.152	0.0124520
775.230	0.0125809
775.309	0.0123832
775.387	0.0123548
775.465	0.0122449
775.543	0.0123815
775.621	0.0123981
775.699	0.0122543
775.777	0.0122427
775.855	0.0122561
775.934	0.0122614
776.012	0.0123010
776.090	0.0122866
776.168	0.0123835
776.246	0.0123494
776.324	0.0123525
776.402	0.0124373
776.480	0.0125201
776.559	0.0125497
776.637	0.0126015
776.715	0.0125610
776.793	0.0125561
776.871	0.0125677
776.949	0.0127318
777.027	0.0127143
777.105	0.0126674
777.184	0.0126855
777.262	0.0126913
777.340	0.0127968
777.418	0.0126731
777.496	0.0127538
777.574	0.0130580
777.652	0.0130219
777.730	0.0129897
777.809	0.0129974
777.887	0.0130168
777.965	0.0129537
778.043	0.0130024
778.121	0.0130360
778.199	0.0130130
778.277	0.0130273
778.355	0.0130800
778.434	0.0129952
778.512	0.0128693
778.590	0.0127821
778.668	0.0127293
778.746	0.0126449
778.824	0.0126579
778.902	0.0125627
778.980	0.0123765
779.059	0.0125003
779.137	0.0124503
779.215	0.0123273
779.293	0.0122788
779.371	0.0124253
779.449	0.0123815
779.527	0.0121394
779.605	0.0122770
779.684	0.0122133
779.762	0.0123627
779.840	0.0122942
779.918	0.0123932
779.996	0.0124158
780.074	0.0124958
780.152	0.0123264
780.230	0.0124391
780.309	0.0123478
780.387	0.0123578
780.465	0.0124101
780.543	0.0123354
780.621	0.0124987
780.699	0.0124174
780.777	0.0124172
780.855	0.0123923
780.934	0.0125145
781.012	0.0125246
781.090	0.0123885
781.168	0.0125447
781.246	0.0124378
781.324	0.0125539
781.402	0.0126936
781.480	0.0127337
781.559	0.0125912
781.637	0.0125386
781.715	0.0125903
781.793	0.0126295
781.871	0.0126976
781.949	0.0126783
782.027	0.0126350
782.105	0.0125414
782.184	0.0125054
782.262	0.0125646
782.340	0.0126394
782.418	0.0124774
782.496	0.0125106
782.574	0.0124761
782.652	0.0125244
782.730	0.0125287
782.809	0.0125170
782.887	0.0125624
782.965	0.0125170
783.043	0.0124216
783.121	0.0124274
783.199	0.0125307
783.277	0.0125138
783.355	0.0126134
783.434	0.0125221
783.512	0.0125277
783.590	0.0124305
783.668	0.0126286
783.746	0.0126775
783.824	0.0126418
783.902	0.0126491
783.980	0.0126820
784.059	0.0128313
784.137	0.0128111
784.215	0.0128774
784.293	0.0129124
784.371	0.0129485
784.449	0.0128220
784.527	0.0127670
784.605	0.0127519
784.684	0.0128067
784.762	0.0129549
784.840	0.0127808
784.918	0.0128567
784.996	0.0128566
785.074	0.0128783
785.152	0.0127193
785.230	0.0126259
785.309	0.0125916
785.387	0.0125596
785.465	0.0124937
785.543	0.0124598
785.621	0.0124671
785.699	0.0125081
785.777	0.0122803
785.855	0.0123147
785.934	0.0124829
786.012	0.0122974
786.090	0.0122692
786.168	0.0123391
786.246	0.0123695
786.324	0.0123582
786.402	0.0124079
786.480	0.0125353
786.559	0.0124294
786.637	0.0125130
786.715	0.0124212
786.793	0.0126818
786.871	0.0125027
786.949	0.0124367
787.027	0.0125704
787.105	0.0126598
787.184	0.0127086
787.262	0.0126362
787.340	0.0127687
787.418	0.0128464
787.496	0.0130305
787.574	0.0127869
787.652	0.0128204
787.730	0.0129296
787.809	0.0128146
787.887	0.0128924
787.965	0.0129288
788.043	0.0129261
788.121	0.0127180
788.199	0.0127995
788.277	0.0127411
788.355	0.0127502
788.434	0.0126074
788.512	0.0124477
788.590	0.0123988
788.668	0.0124477
788.746	0.0122691
788.824	0.0122483
788.902	0.0121803
788.980	0.0122614
789.059	0.0121763
789.137	0.0122427
789.215	0.0120800
789.293	0.0122374
789.371	0.0122232
789.449	0.0120845
789.527	0.0122987
789.605	0.0124580
789.684	0.0123762
789.762	0.0122614
789.840	0.0123849
789.918	0.0125206
789.996	0.0125964
790.074	0.0126010
790.152	0.0126119
790.230	0.0127681
790.309	0.0128638
790.387	0.0129100
790.465	0.0128433
790.543	0.0129150
790.621	0.0128549
790.699	0.0129528
790.777	0.0128909
790.855	0.0129644
790.934	0.0129312
791.012	0.0128846
791.090	0.0128329
791.168	0.0127532
791.246	0.0126257
791.324	0.0125973
791.402	0.0126183
791.480	0.0126635
791.559	0.0125841
791.637	0.0124677
791.715	0.0124651
791.793	0.0123798
791.871	0.0122502
791.949	0.0122713
792.027	0.0123853
792.105	0.0120692
792.184	0.0121970
792.262	0.0122121
792.340	0.0121824
792.418	0.0122700
792.496	0.0123635
792.574	0.0122836
792.652	0.0121664
792.730	0.0124556
792.809	0.0125271
792.887	0.0124545
792.965	0.0125043
793.043	0.0125906
793.121	0.0125134
793.199	0.0126296
793.277	0.0127439
793.355	0.0125626
793.434	0.0125835
793.512	0.0127016
793.590	0.0127841
793.668	0.0126660
793.746	0.0125977
793.824	0.0127161
793.902	0.0126942
793.980	0.0126340
794.059	0.0126566
794.137	0.0126470
794.215	0.0126521
794.293	0.0125179
794.371	0.0127692
794.449	0.0126264
794.527	0.0126534
794.605	0.0125763
794.684	0.0126029
794.762	0.0126854
794.840	0.0125858
794.918	0.0125915
794.996	0.0125652
795.074	0.0126694
795.152	0.0123710
795.230	0.0125473
795.309	0.0125264
795.387	0.0124508
795.465	0.0125051
795.543	0.0125936
795.621	0.0125780
795.699	0.0126814
795.777	0.0125821
795.855	0.0124932
795.934	0.0125348
796.012	0.0126423
796.090	0.0126732
796.168	0.0126202
796.246	0.0125436
796.324	0.0126822
796.402	0.0125787
796.480	0.0126467
796.559	0.0126068
796.637	0.0125713
796.715	0.0124430
796.793	0.0125003
796.871	0.0125614
796.949	0.0124504
797.027	0.0125629
797.105	0.0125304
797.184	0.0125716
797.262	0.0126456
797.340	0.0125677
797.418	0.0125497
797.496	0.0124379
797.574	0.0125478
797.652	0.0125526
797.730	0.0124726
797.809	0.0123951
797.887	0.0126745
797.965	0.0125274
798.043	0.0125089
798.121	0.0125842
798.199	0.0125451
798.277	0.0125204
798.355	0.0123870
798.434	0.0125355
798.512	0.0125471
798.590	0.0127638
798.668	0.0126308
798.746	0.0125411
798.824	0.0125948
798.902	0.0124508
798.980	0.0125748
799.059	0.0126986
799.137	0.0128572
799.215	0.0128777
799.293	0.0127441
799.371	0.0126863
799.449	0.0128409
799.527	0.0127972
799.605	0.0126674
799.684	0.0127589
799.762	0.0127359
799.840	0.0126696
799.918	0.0125745
799.996	0.0126487
800.074	0.0125177
800.152	0.0124432
800.230	0.0124712
800.309	0.0124938
800.387	0.0125928
800.465	0.0124413
800.543	0.0125125
800.621	0.0124268
800.699	0.0124268
800.777	0.0123931
800.855	0.0123877
800.934	0.0124527
801.012	0.0123621
801.090	0.0124938
801.168	0.0125233
801.246	0.0122612
801.324	0.0123090
801.402	0.0123860
801.480	0.0123701
801.559	0.0122988
801.637	0.0124368
801.715	0.0124239
801.793	0.0125037
801.871	0.0122997
801.949	0.0123550
802.027	0.0124340
802.105	0.0123100
802.184	0.0124684
802.262	0.0125456
802.340	0.0124783
802.418	0.0124283
802.496	0.0125033
802.574	0.0124243
802.652	0.0123888
802.730	0.0125190
802.809	0.0125713
802.887	0.0125716
802.965	0.0124270
803.043	0.0124266
803.121	0.0126640
803.199	0.0127074
803.277	0.0126204
803.355	0.0127643
803.434	0.0127274
803.512	0.0126646
803.590	0.0127789
803.668	0.0128976
803.746	0.0128468
803.824	0.0128384
803.902	0.0128277
803.980	0.0128214
804.059	0.0128835
804.137	0.0128249
804.215	0.0128542
804.293	0.0128390
804.371	0.0129472
804.449	0.0128056
804.527	0.0127607
804.605	0.0128176
804.684	0.0128226
804.762	0.0128311
804.840	0.0127956
804.918	0.0128692
804.996	0.0128254
805.074	0.0127976
805.152	0.0127754
805.230	0.0127334
805.309	0.0128152
805.387	0.0126205
805.465	0.0126238
805.543	0.0125594
805.621	0.0125356
805.699	0.0123798
805.777	0.0124738
805.855	0.0123012
805.934	0.0124137
806.012	0.0123529
806.090	0.0122847
806.168	0.0122903
806.246	0.0121648
806.324	0.0123670
806.402	0.0121564
806.480	0.0122111
806.559	0.0123448
806.637	0.0122958
806.715	0.0123338
806.793	0.0124492
806.871	0.0122802
806.949	0.0123658
807.027	0.0124793
807.105	0.0123232
807.184	0.0123936
807.262	0.0121388
807.340	0.0123747
807.418	0.0123463
807.496	0.0124374
807.574	0.0123672
807.652	0.0123206
807.730	0.0122677
807.809	0.0121938
807.887	0.0122881
807.965	0.0123172
808.043	0.0124043
808.121	0.0123995
808.199	0.0124255
808.277	0.0124945
808.355	0.0124055
808.434	0.0126062
808.512	0.0125616
808.590	0.0125867
808.668	0.0127489
808.746	0.0126701
808.824	0.0127626
808.902	0.0129237
808.980	0.0130253
809.059	0.0129446
809.137	0.0128507
809.215	0.0129105
809.293	0.0129015
809.371	0.0128086
809.449	0.0130042
809.527	0.0129395
809.605	0.0128831
809.684	0.0127831
809.762	0.0127999
809.840	0.0127625
809.918	0.0126824
809.996	0.0127011
810.074	0.0126939
810.152	0.0126176
810.230	0.0125017
810.309	0.0125979
810.387	0.0125434
810.465	0.0125438
810.543	0.0125424
810.621	0.0126250
810.699	0.0126466
810.777	0.0124719
810.855	0.0125363
810.934	0.0126118
811.012	0.0126908
811.090	0.0127656
811.168	0.0126532
811.246	0.0126272
811.324	0.0127064
811.402	0.0127082
811.480	0.0125252
811.559	0.0125960
811.637	0.0127166
811.715	0.0125896
811.793	0.0125497
811.871	0.0125469
811.949	0.0126173
812.027	0.0125665
812.105	0.0125256
812.184	0.0126056
812.262	0.0124144
812.340	0.0125294
812.418	0.0124577
812.496	0.0123859
812.574	0.0125053
812.652	0.0123460
812.730	0.0124973
812.809	0.0125608
812.887	0.0125211
812.965	0.0123762
813.043	0.0125101
813.121	0.0124969
813.199	0.0124818
813.277	0.0124567
813.355	0.0126006
813.434	0.0124971
813.512	0.0124500
813.590	0.0125880
813.668	0.0125504
813.746	0.0125510
813.824	0.0124928
813.902	0.0125677
813.980	0.0125154
814.059	0.0126084
814.137	0.0127023
814.215	0.0126593
814.293	0.0125606
814.371	0.0127397
814.449	0.0127078
814.527	0.0127704
814.605	0.0126778
814.684	0.0126904
814.762	0.0127645
814.840	0.0126797
814.918	0.0127634
814.996	0.0128174
815.074	0.0127117
815.152	0.0126824
815.230	0.0127620
815.309	0.0126581
815.387	0.0127136
815.465	0.0125782
815.543	0.0125140
815.621	0.0125838
815.699	0.0125822
815.777	0.0124286
815.855	0.0124200
815.934	0.0124776
816.012	0.0123373
816.090	0.0125156
816.168	0.0124075
816.246	0.0123907
816.324	0.0124489
816.402	0.0125910
816.480	0.0123856
816.559	0.0124428
816.637	0.0123595
816.715	0.0125057
816.793	0.0124797
816.871	0.0126179
816.949	0.0124623
817.027	0.0125850
817.105	0.0127187
817.184	0.0127656
817.262	0.0128143
817.340	0.0128400
817.418	0.0129013
817.496	0.0128275
817.574	0.0129553
817.652	0.0129194
817.730	0.0128703
817.809	0.0128849
817.887	0.0128564
817.965	0.0128958
818.043	0.0128362
818.121	0.0128349
818.199	0.0127544
818.277	0.0127387
818.355	0.0127310
818.434	0.0127676
818.512	0.0125247
818.590	0.0125516
818.668	0.0124603
818.746	0.0124868
818.824	0.0124648
818.902	0.0124757
818.980	0.0124400
819.059	0.0123434
819.137	0.0122701
819.215	0.0123380
819.293	0.0123643
819.371	0.0124203
819.449	0.0122342
819.527	0.0123106
819.605	0.0122242
819.684	0.0124555
819.762	0.0124375
819.840	0.0124844
819.918	0.0125523
819.996	0.0124861
820.074	0.0124680
820.152	0.0123866
820.230	0.0124593
820.309	0.0125251
820.387	0.0125732
820.465	0.0124993
820.543	0.0124429
820.621	0.0123917
820.699	0.0123414
820.777	0.0123392
820.855	0.0123570
820.934	0.0124108
821.012	0.0124097
821.090	0.0124199
821.168	0.0123703
821.246	0.0123959
821.324	0.0123087
821.402	0.0123591
821.480	0.0122562
821.559	0.0124041
821.637	0.0123081
821.715	0.0124363
821.793	0.0124034
821.871	0.0123188
821.949	0.0124535
822.027	0.0123909
822.105	0.0125225
822.184	0.0125346
822.262	0.0124861
822.340	0.0126062
822.418	0.0125172
822.496	0.0126468
822.574	0.0127989
822.652	0.0128053
822.730	0.0128815
822.809	0.0128407
822.887	0.0128719
822.965	0.0128664
823.043	0.0128817
823.121	0.0128730
823.199	0.0129353
823.277	0.0129493
823.355	0.0129913
823.434	0.0129630
823.512	0.0128033
823.590	0.0127096
823.668	0.0128424
823.746	0.0128524
823.824	0.0127296
823.902	0.0128263
823.980	0.0128014
824.059	0.0128121
824.137	0.0127734
824.215	0.0126077
824.293	0.0127072
824.371	0.0128741
824.449	0.0126782
824.527	0.0127694
824.605	0.0127067
824.684	0.0126791
824.762	0.0127147
824.840	0.0126980
824.918	0.0127296
824.996	0.0127678
825.074	0.0126591
825.152	0.0126037
825.230	0.0126122
825.309	0.0125513
825.387	0.0125465
825.465	0.0125030
825.543	0.0124834
825.621	0.0124319
825.699	0.0123536
825.777	0.0124791
825.855	0.0124018
825.934	0.0124569
826.012	0.0123994
826.090	0.0124261
826.168	0.0124827
826.246	0.0124023
826.324	0.0122623
826.402	0.0123060
826.480	0.0122088
826.559	0.0123380
826.637	0.0123901
826.715	0.0123460
826.793	0.0123785
826.871	0.0123471
826.949	0.0125068
827.027	0.0125246
827.105	0.0124053
827.184	0.0124183
827.262	0.0125770
827.340	0.0124670
827.418	0.0125314
827.496	0.0126194
827.574	0.0125208
827.652	0.0125285
827.730	0.0125650
827.809	0.0126014
827.887	0.0126736
827.965	0.0126369
828.043	0.0126116
828.121	0.0126561
828.199	0.0125131
828.277	0.0126891
828.355	0.0127444
828.434	0.0126939
828.512	0.0127951
828.590	0.0127935
828.668	0.0126868
828.746	0.0127689
828.824	0.0128462
828.902	0.0126900
828.980	0.0127982
829.059	0.0128944
829.137	0.0128107
829.215	0.0128621
829.293	0.0128532
829.371	0.0127704
829.449	0.0126687
829.527	0.0127528
829.605	0.0128423
829.684	0.0126984
829.762	0.0127750
829.840	0.0128017
829.918	0.0127117
829.996	0.0127158
830.074	0.0128368
830.152	0.0126849
830.230	0.0127160
830.309	0.0127074
830.387	0.0126591
830.465	0.0126670
830.543	0.0127122
830.621	0.0125533
830.699	0.0125770
830.777	0.0125709
830.855	0.0126050
830.934	0.0125497
831.012	0.0124420
831.090	0.0126236
831.168	0.0125728
831.246	0.0124223
831.324	0.0122984
831.402	0.0122096
831.480	0.0123030
831.559	0.0123957
831.637	0.0123808
831.715	0.0124323
831.793	0.0123521
831.871	0.0123828
831.949	0.0124182
832.027	0.0123324
832.105	0.0123317
832.184	0.0122860
832.262	0.0124989
832.340	0.0125430
832.418	0.0124928
832.496	0.0124002
832.574	0.0124895
832.652	0.0127650
832.730	0.0126297
832.809	0.0126769
832.887	0.0127914
832.965	0.0128185
833.043	0.0128777
833.121	0.0128165
833.199	0.0128389
833.277	0.0127847
833.355	0.0128275
833.434	0.0129035
833.512	0.0129690
833.590	0.0129704
833.668	0.0128539
833.746	0.0128406
833.824	0.0128796
833.902	0.0128252
833.980	0.0128295
834.059	0.0127654
834.137	0.0128385
834.215	0.0128107
834.293	0.0127275
834.371	0.0127940
834.449	0.0127928
834.527	0.0126304
834.605	0.0127592
834.684	0.0126572
834.762	0.0127122
834.840	0.0124531
834.918	0.0126950
834.996	0.0126416
835.074	0.0126795
835.152	0.0126341
835.230	0.0126660
835.309	0.0127363
835.387	0.0126282
835.465	0.0127209
835.543	0.0127679
835.621	0.0126863
835.699	0.0127065
835.777	0.0127203
835.855	0.0128178
835.934	0.0126891
836.012	0.0127748
836.090	0.0128530
836.168	0.0127053
836.246	0.0127406
836.324	0.0127934
836.402	0.0127184
836.480	0.0127171
836.559	0.0128354
836.637	0.0128076
836.715	0.0127447
836.793	0.0126498
836.871	0.0126382
836.949	0.0127949
837.027	0.0125710
837.105	0.0124493
837.184	0.0126204
837.262	0.0125567
837.340	0.0124297
837.418	0.0125037
837.496	0.0122772
837.574	0.0124774
837.652	0.0124346
837.730	0.0123902
837.809	0.0123325
837.887	0.0124910
837.965	0.0123602
838.043	0.0124062
838.121	0.0124547
838.199	0.0123686
838.277	0.0124751
838.355	0.0125312
838.434	0.0124437
838.512	0.0126141
838.590	0.0125272
838.668	0.0125983
838.746	0.0125444
838.824	0.0124689
838.902	0.0126986
838.980	0.0125809
839.059	0.0126682
839.137	0.0127351
839.215	0.0127216
839.293	0.0125519
839.371	0.0127863
839.449	0.0127681
839.527	0.0126698
839.605	0.0126298
839.684	0.0126091
839.762	0.0126714
839.840	0.0128017
839.918	0.0128047
839.996	0.0128701
840.074	0.0125485
840.152	0.0127904
840.230	0.0126714
840.309	0.0128767
840.387	0.0127657
840.465	0.0127572
840.543	0.0127626
840.621	0.0127718
840.699	0.0127164
840.777	0.0127872
840.855	0.0125558
840.934	0.0125869
841.012	0.0125384
841.090	0.0125874
841.168	0.0125314
841.246	0.0126920
841.324	0.0126900
841.402	0.0125459
841.480	0.0124805
841.559	0.0125455
841.637	0.0126691
841.715	0.0126228
841.793	0.0125571
841.871	0.0126096
841.949	0.0126692
842.027	0.0127432
842.105	0.0125872
842.184	0.0125323
842.262	0.0125620
842.340	0.0126560
842.418	0.0125773
842.496	0.0125518
842.574	0.0125137
842.652	0.0126313
842.730	0.0124348
842.809	0.0125080
842.887	0.0124644
842.965	0.0124180
843.043	0.0124294
843.121	0.0124586
843.199	0.0124151
843.277	0.0123966
843.355	0.0123725
843.434	0.0123413
843.512	0.0125238
843.590	0.0124640
843.668	0.0125703
843.746	0.0124822
843.824	0.0125695
843.902	0.0126105
843.980	0.0125937
844.059	0.0127158
844.137	0.0125793
844.215	0.0125816
844.293	0.0126958
844.371	0.0126522
844.449	0.0126641
844.527	0.0126582
844.605	0.0127340
844.684	0.0127679
844.762	0.0128136
844.840	0.0127192
844.918	0.0128260
844.996	0.0129298
845.074	0.0130360
845.152	0.0128626
845.230	0.0128801
845.309	0.0129002
845.387	0.0128149
845.465	0.0126432
845.543	0.0128023
845.621	0.0129062
845.699	0.0127138
845.777	0.0127943
845.855	0.0125961
845.934	0.0126446
846.012	0.0127770
846.090	0.0125148
846.168	0.0126022
846.246	0.0125077
846.324	0.0124722
846.402	0.0126144
846.480	0.0124255
846.559	0.0125128
846.637	0.0124143
846.715	0.0125040
846.793	0.0125167
846.871	0.0125514
846.949	0.0124113
847.027	0.0126522
847.105	0.0125359
847.184	0.0125046
847.262	0.0125658
847.340	0.0123276
847.418	0.0124380
847.496	0.0125129
847.574	0.0124271
847.652	0.0124046
847.730	0.0124849
847.809	0.0125094
847.887	0.0125658
847.965	0.0125179
848.043	0.0124052
848.121	0.0124977
848.199	0.0125237
848.277	0.0123830
848.355	0.0125289
848.434	0.0124172
848.512	0.0126112
848.590	0.0126698
848.668	0.0125112
848.746	0.0125005
848.824	0.0126464
848.902	0.0125945
848.980	0.0125048
849.059	0.0125164
849.137	0.0127482
849.215	0.0126934
849.293	0.0127523
849.371	0.0127639
849.449	0.0127808
849.527	0.0126373
849.605	0.0127695
849.684	0.0129012
849.762	0.0127082
849.840	0.0127599
849.918	0.0127038
849.996	0.0126768
850.074	0.0127640
850.152	0.0126026
850.230	0.0127888
850.309	0.0128207
850.387	0.0128089
850.465	0.0128111
850.543	0.0129095
850.621	0.0128274
850.699	0.0127409
850.777	0.0129357
850.855	0.0127924
850.934	0.0128519
851.012	0.0127319
851.090	0.0128362
851.168	0.0127557
851.246	0.0127436
851.324	0.0128270
851.402	0.0127669
851.480	0.0125417
851.559	0.0126955
851.637	0.0125423
851.715	0.0125610
851.793	0.0126591
851.871	0.0126093
851.949	0.0125919
852.027	0.0124761
852.105	0.0124183
852.184	0.0124499
852.262	0.0123626
852.340	0.0124339
852.418	0.0124351
852.496	0.0122684
852.574	0.0123007
852.652	0.0123558
852.730	0.0123052
852.809	0.0122082
852.887	0.0120847
852.965	0.0122981
853.043	0.0123117
853.121	0.0122546
853.199	0.0123967
853.277	0.0123724
853.355	0.0124759
853.434	0.0123895
853.512	0.0124475
853.590	0.0126247
853.668	0.0126489
853.746	0.0127202
853.824	0.0126117
853.902	0.0126074
853.980	0.0127533
854.059	0.0127613
854.137	0.0127601
854.215	0.0127637
854.293	0.0128473
854.371	0.0127255
854.449	0.0127328
854.527	0.0127180
854.605	0.0126254
854.684	0.0126950
854.762	0.0127707
854.840	0.0127047
854.918	0.0127744
854.996	0.0127478
855.074	0.0126668
855.152	0.0126332
855.230	0.0127666
855.309	0.0125275
855.387	0.0125792
855.465	0.0127361
855.543	0.0127083
855.621	0.0128188
855.699	0.0126186
855.777	0.0127292
855.855	0.0124951
855.934	0.0127471
856.012	0.0127323
856.090	0.0126607
856.168	0.0126777
856.246	0.0125713
856.324	0.0126504
856.402	0.0125417
856.480	0.0125800
856.559	0.0125317
856.637	0.0126122
856.715	0.0126144
856.793	0.0125596
856.871	0.0125450
856.949	0.0124186
857.027	0.0124601
857.105	0.0127155
857.184	0.0124683
857.262	0.0123917
857.340	0.0124482
857.418	0.0124977
857.496	0.0125332
857.574	0.0124710
857.652	0.0124509
857.730	0.0124684
857.809	0.0125973
857.887	0.0126517
857.965	0.0124686
858.043	0.0127528
858.121	0.0127230
858.199	0.0126376
858.277	0.0128248
858.355	0.0126743
858.434	0.0126866
858.512	0.0126583
858.590	0.0127493
858.668	0.0126576
858.746	0.0125748
858.824	0.0126905
858.902	0.0126417
858.980	0.0126026
859.059	0.0125687
859.137	0.0125769
859.215	0.0126134
859.293	0.0124313
859.371	0.0123724
859.449	0.0123685
859.527	0.0123889
859.605	0.0124140
859.684	0.0125192
859.762	0.0123682
859.840	0.0125027
859.918	0.0124795
859.996	0.0125587
860.074	0.0124414
860.152	0.0123968
860.230	0.0124283
860.309	0.0126682
860.387	0.0125013
860.465	0.0126556
860.543	0.0126626
860.621	0.0126263
860.699	0.0128286
860.777	0.0127938
860.855	0.0127077
860.934	0.0128088
861.012	0.0127679
861.090	0.0126853
861.168	0.0127267
861.246	0.0127839
861.324	0.0127964
861.402	0.0128889
861.480	0.0126859
861.559	0.0126880
861.637	0.0125772
861.715	0.0124929
861.793	0.0124826
861.871	0.0124488
861.949	0.0123799
862.027	0.0123006
862.105	0.0123512
862.184	0.0123371
862.262	0.0123482
862.340	0.0122601
862.418	0.0121607
862.496	0.0122911
862.574	0.0123972
862.652	0.0123450
862.730	0.0123323
862.809	0.0123580
862.887	0.0125162
862.965	0.0125687
863.043	0.0126132
863.121	0.0125142
863.199	0.0126612
863.277	0.0127183
863.355	0.0128148
863.434	0.0127523
863.512	0.0126812
863.590	0.0128027
863.668	0.0126830
863.746	0.0127956
863.824	0.0127746
863.902	0.0127682
863.980	0.0127277
864.059	0.0126806
864.137	0.0125653
864.215	0.0126128
864.293	0.0127201
864.371	0.0126827
864.449	0.0127040
864.527	0.0126392
864.605	0.0126138
864.684	0.0125578
864.762	0.0126294
864.840	0.0127032
864.918	0.0126967
864.996	0.0127243
865.074	0.0127934
865.152	0.0125088
865.230	0.0126946
865.309	0.0127082
865.387	0.0126629
865.465	0.0126252
865.543	0.0127266
865.621	0.0126840
865.699	0.0127879
865.777	0.0127354
865.855	0.0125878
865.934	0.0126703
866.012	0.0127267
866.090	0.0127798
866.168	0.0126469
866.246	0.0126360
866.324	0.0126875
866.402	0.0126640
866.480	0.0123918
866.559	0.0126109
866.637	0.0124494
866.715	0.0126226
866.793	0.0124060
866.871	0.0123244
866.949	0.0122404
867.027	0.0123761
867.105	0.0123000
867.184	0.0124196
867.262	0.0123633
867.340	0.0123844
867.418	0.0123292
867.496	0.0123801
867.574	0.0124617
867.652	0.0125087
867.730	0.0126191
867.809	0.0123215
867.887	0.0125896
867.965	0.0125124
868.043	0.0124726
868.121	0.0125616
868.199	0.0127018
868.277	0.0126134
868.355	0.0127048
868.434	0.0126220
868.512	0.0125481
868.590	0.0126671
868.668	0.0125179
868.746	0.0125798
868.824	0.0127389
868.902	0.0125375
868.980	0.0125946
869.059	0.0125069
869.137	0.0125042
869.215	0.0125218
869.293	0.0123542
869.371	0.0124213
869.449	0.0126435
869.527	0.0125157
869.605	0.0124852
869.684	0.0124970
869.762	0.0125999
869.840	0.0127412
869.918	0.0126285
869.996	0.0126689
870.074	0.0126271
870.152	0.0126862
870.230	0.0126503
870.309	0.0126277
870.387	0.0126110
870.465	0.0125889
870.543	0.0127132
870.621	0.0127570
870.699	0.0128352
870.777	0.0127678
870.855	0.0126577
870.934	0.0126740
871.012	0.0127300
871.090	0.0127203
871.168	0.0125771
871.246	0.0126696
871.324	0.0126831
871.402	0.0126849
871.480	0.0125163
871.559	0.0125061
871.637	0.0124185
871.715	0.0124476
871.793	0.0123415
871.871	0.0124819
871.949	0.0125184
872.027	0.0125133
872.105	0.0124477
872.184	0.0123653
872.262	0.0123665
872.340	0.0124103
872.418	0.0124747
872.496	0.0123746
872.574	0.0124455
872.652	0.0125729
872.730	0.0123765
872.809	0.0123466
872.887	0.0124693
872.965	0.0124496
873.043	0.0123974
873.121	0.0123500
873.199	0.0125092
873.277	0.0125479
873.355	0.0123640
873.434	0.0126143
873.512	0.0126093
873.590	0.0125435
873.668	0.0125228
873.746	0.0126631
873.824	0.0128529
873.902	0.0126447
873.980	0.0126212
874.059	0.0123765
874.137	0.0126064
874.215	0.0125964
874.293	0.0125230
874.371	0.0127287
874.449	0.0126359
874.527	0.0126027
874.605	0.0124956
874.684	0.0124429
874.762	0.0126920
874.840	0.0125900
874.918	0.0124466
874.996	0.0125170
875.074	0.0125801
875.152	0.0126347
875.230	0.0125349
875.309	0.0127341
875.387	0.0127510
875.465	0.0127125
875.543	0.0128151
875.621	0.0127166
875.699	0.0126486
875.777	0.0128162
875.855	0.0127904
875.934	0.0127174
876.012	0.0125459
876.090	0.0126942
876.168	0.0126360
876.246	0.0126670
876.324	0.0125685
876.402	0.0125765
876.480	0.0125375
876.559	0.0126334
876.637	0.0126662
876.715	0.0126707
876.793	0.0125513
876.871	0.0126203
876.949	0.0127055
877.027	0.0126459
877.105	0.0125415
877.184	0.0126254
877.262	0.0127419
877.340	0.0127328
877.418	0.0126823
877.496	0.0125815
877.574	0.0125884
877.652	0.0126292
877.730	0.0126504
877.809	0.0127522
877.887	0.0125964
877.965	0.0124336
878.043	0.0124892
878.121	0.0124388
878.199	0.0124614
878.277	0.0123932
878.355	0.0123453
878.434	0.0123677
878.512	0.0123492
878.590	0.0122015
878.668	0.0123971
878.746	0.0122749
878.824	0.0123636
878.902	0.0123370
878.980	0.0124310
879.059	0.0124843
879.137	0.0124489
879.215	0.0126296
879.293	0.0127091
879.371	0.0126026
879.449	0.0128031
879.527	0.0129526
879.605	0.0129092
879.684	0.0130455
879.762	0.0131516
879.840	0.0129453
879.918	0.0128694
879.996	0.0128423
880.074	0.0127342
880.152	0.0126118
880.230	0.0126371
880.309	0.0126702
880.387	0.0124377
880.465	0.0124911
880.543	0.0123697
880.621	0.0123054
880.699	0.0124352
880.777	0.0123744
880.855	0.0123230
880.934	0.0122199
881.012	0.0122554
881.090	0.0122632
881.168	0.0123898
881.246	0.0122534
881.324	0.0123326
881.402	0.0124364
881.480	0.0124935
881.559	0.0125858
881.637	0.0126578
881.715	0.0127586
881.793	0.0127869
881.871	0.0129737
881.949	0.0128465
882.027	0.0129628
882.105	0.0128790
882.184	0.0129728
882.262	0.0131218
882.340	0.0130311
882.418	0.0129289
882.496	0.0128738
882.574	0.0128348
882.652	0.0127970
882.730	0.0126591
882.809	0.0125790
882.887	0.0125542
882.965	0.0125336
883.043	0.0123211
883.121	0.0123378
883.199	0.0124172
883.277	0.0124566
883.355	0.0123093
883.434	0.0122273
883.512	0.0123536
883.590	0.0121536
883.668	0.0121647
883.746	0.0121897
883.824	0.0122300
883.902	0.0122598
883.980	0.0122415
884.059	0.0122941
884.137	0.0124424
884.215	0.0123664
884.293	0.0122749
884.371	0.0123299
884.449	0.0124792
884.527	0.0125751
884.605	0.0124928
884.684	0.0125264
884.762	0.0125337
884.840	0.0125684
884.918	0.0126406
884.996	0.0125919
885.074	0.0125475
885.152	0.0125932
885.230	0.0126604
885.309	0.0126436
885.387	0.0127190
885.465	0.0125073
885.543	0.0125269
885.621	0.0126686
885.699	0.0126243
885.777	0.0126762
885.855	0.0125817
885.934	0.0125759
886.012	0.0125976
886.090	0.0125536
886.168	0.0126376
886.246	0.0124692
886.324	0.0125412
886.402	0.0128036
886.480	0.0127354
886.559	0.0126681
886.637	0.0126225
886.715	0.0125703
886.793	0.0125759
886.871	0.0127876
886.949	0.0126436
887.027	0.0125521
887.105	0.0126218
887.184	0.0126283
887.262	0.0125396
887.340	0.0125378
887.418	0.0126527
887.496	0.0127206
887.574	0.0125671
887.652	0.0126654
887.730	0.0126373
887.809	0.0126086
887.887	0.0128999
887.965	0.0126675
888.043	0.0127724
888.121	0.0127802
888.199	0.0127377
888.277	0.0127852
888.355	0.0126209
888.434	0.0126761
888.512	0.0128634
888.590	0.0126138
888.668	0.0126081
888.746	0.0125674
888.824	0.0122916
888.902	0.0125229
888.980	0.0125504
889.059	0.0125627
889.137	0.0124461
889.215	0.0125439
889.293	0.0125857
889.371	0.0124857
889.449	0.0125870
889.527	0.0126460
889.605	0.0126918
889.684	0.0126195
889.762	0.0128092
889.840	0.0126006
889.918	0.0126626
889.996	0.0128397
890.074	0.0129837
890.152	0.0128304
890.230	0.0129807
890.309	0.0127858
890.387	0.0128234
890.465	0.0128421
890.543	0.0128762
890.621	0.0128134
890.699	0.0128697
890.777	0.0127455
890.855	0.0127218
890.934	0.0125853
891.012	0.0124899
891.090	0.0125636
891.168	0.0123467
891.246	0.0123742
891.324	0.0124461
891.402	0.0122381
891.480	0.0122176
891.559	0.0121898
891.637	0.0120386
891.715	0.0122057
891.793	0.0123138
891.871	0.0122745
891.949	0.0122108
892.027	0.0123611
892.105	0.0123274
892.184	0.0122492
892.262	0.0122591
892.340	0.0125098
892.418	0.0125432
892.496	0.0125346
892.574	0.0127612
892.652	0.0127838
892.730	0.0127023
892.809	0.0127459
892.887	0.0128143
892.965	0.0127261
893.043	0.0126412
893.121	0.0128371
893.199	0.0127967
893.277	0.0125853
893.355	0.0126738
893.434	0.0127711
893.512	0.0124699
893.590	0.0125690
893.668	0.0126329
893.746	0.0125885
893.824	0.0123645
893.902	0.0124309
893.980	0.0124954
894.059	0.0122204
894.137	0.0123642
894.215	0.0122804
894.293	0.0123421
894.371	0.0121871
894.449	0.0124285
894.527	0.0123499
894.605	0.0122422
894.684	0.0123646
894.762	0.0124630
894.840	0.0124911
894.918	0.0124789
894.996	0.0125633
895.074	0.0125368
895.152	0.0125393
895.230	0.0126322
895.309	0.0128279
895.387	0.0128899
895.465	0.0128665
895.543	0.0129018
895.621	0.0129516
895.699	0.0129144
895.777	0.0128533
895.855	0.0127209
895.934	0.0128487
896.012	0.0128447
896.090	0.0127800
896.168	0.0126192
896.246	0.0127368
896.324	0.0125684
896.402	0.0125054
896.480	0.0123671
896.559	0.0124435
896.637	0.0123624
896.715	0.0123482
896.793	0.0123965
896.871	0.0123589
896.949	0.0122275
897.027	0.0122757
897.105	0.0123818
897.184	0.0121722
897.262	0.0124068
897.340	0.0124275
897.418	0.0124174
897.496	0.0125189
897.574	0.0125101
897.652	0.0124548
897.730	0.0126343
897.809	0.0126958
897.887	0.0126154
897.965	0.0126482
898.043	0.0127905
898.121	0.0126810
898.199	0.0126081
898.277	0.0127481
898.355	0.0127972
898.434	0.0127213
898.512	0.0126477
898.590	0.0127040
898.668	0.0127685
898.746	0.0128731
898.824	0.0125196
898.902	0.0126355
898.980	0.0125790
899.059	0.0124852
899.137	0.0126495
899.215	0.0125745
899.293	0.0124074
899.371	0.0123972
899.449	0.0125539
899.527	0.0125398
899.605	0.0124578
899.684	0.0125717
899.762	0.0125349
899.840	0.0123768
899.918	0.0123514
899.996	0.0125532
900.074	0.0126091
900.152	0.0125395
900.230	0.0125632
900.309	0.0126468
900.387	0.0127245
900.465	0.0126015
900.543	0.0124137
900.621	0.0126355
900.699	0.0125809
900.777	0.0124613
900.855	0.0125256
900.934	0.0126752
901.012	0.0126048
901.090	0.0124842
901.168	0.0125531
901.246	0.0124578
901.324	0.0124607
901.402	0.0123283
901.480	0.0125052
901.559	0.0124089
901.637	0.0123840
901.715	0.0125603
901.793	0.0124727
901.871	0.0125465
901.949	0.0124405
902.027	0.0124548
902.105	0.0124912
902.184	0.0126336
902.262	0.0125907
902.340	0.0125444
902.418	0.0125874
902.496	0.0127353
902.574	0.0126151
902.652	0.0124619
902.730	0.0127052
902.809	0.0127666
902.887	0.0127645
902.965	0.0125979
903.043	0.0126350
903.121	0.0126022
903.199	0.0125837
903.277	0.0124927
903.355	0.0124873
903.434	0.0126917
903.512	0.0127130
903.590	0.0126960
903.668	0.0126280
903.746	0.0126868
903.824	0.0126431
903.902	0.0126523
903.980	0.0125437
904.059	0.0125869
904.137	0.0124393
904.215	0.0123679
904.293	0.0124503
904.371	0.0124329
904.449	0.0123999
904.527	0.0124149
904.605	0.0123907
904.684	0.0124110
904.762	0.0124143
904.840	0.0123110
904.918	0.0122895
904.996	0.0123426
905.074	0.0123318
905.152	0.0123757
905.230	0.0123312
905.309	0.0125155
905.387	0.0124644
905.465	0.0124883
905.543	0.0125496
905.621	0.0126137
905.699	0.0126336
905.777	0.0126153
905.855	0.0125552
905.934	0.0126678
906.012	0.0127876
906.090	0.0127671
906.168	0.0128875
906.246	0.0127792
906.324	0.0127018
906.402	0.0128057
906.480	0.0126503
906.559	0.0127055
906.637	0.0127277
906.715	0.0126642
906.793	0.0126350
906.871	0.0127251
906.949	0.0126067
907.027	0.0126604
907.105	0.0125309
907.184	0.0124494
907.262	0.0125038
907.340	0.0124410
907.418	0.0123807
907.496	0.0123649
907.574	0.0125047
907.652	0.0124744
907.730	0.0123627
907.809	0.0125098
907.887	0.0124183
907.965	0.0125301
908.043	0.0124940
908.121	0.0124975
908.199	0.0125655
908.277	0.0126818
908.355	0.0128264
908.434	0.0128000
908.512	0.0128542
908.590	0.0127540
908.668	0.0129229
908.746	0.0129640
908.824	0.0129282
908.902	0.0128911
908.980	0.0129395
909.059	0.0129503
909.137	0.0129023
909.215	0.0130110
909.293	0.0128284
909.371	0.0128170
909.449	0.0127658
909.527	0.0128431
909.605	0.0128957
909.684	0.0126189
909.762	0.0125433
909.840	0.0125825
909.918	0.0125995
909.996	0.0123951
910.074	0.0124010
910.152	0.0123649
910.230	0.0123055
910.309	0.0124333
910.387	0.0124049
910.465	0.0125282
910.543	0.0123373
910.621	0.0124049
910.699	0.0123793
910.777	0.0124459
910.855	0.0125523
910.934	0.0125504
911.012	0.0126576
911.090	0.0127367
911.168	0.0125572
911.246	0.0127171
911.324	0.0127326
911.402	0.0126603
911.480	0.0128201
911.559	0.0127882
911.637	0.0126885
911.715	0.0127900
911.793	0.0127826
911.871	0.0126336
911.949	0.0127360
912.027	0.0127115
912.105	0.0126952
912.184	0.0128277
912.262	0.0128167
912.340	0.0127703
912.418	0.0127669
912.496	0.0127896
912.574	0.0127466
912.652	0.0126555
912.730	0.0126752
912.809	0.0127209
912.887	0.0126230
912.965	0.0126065
913.043	0.0128009
913.121	0.0127346
913.199	0.0125134
913.277	0.0124541
913.355	0.0125076
913.434	0.0124358
913.512	0.0124336
913.590	0.0123037
913.668	0.0123827
913.746	0.0125443
913.824	0.0124704
913.902	0.0124022
913.980	0.0123947
914.059	0.0124736
914.137	0.0125504
914.215	0.0126454
914.293	0.0127648
914.371	0.0126035
914.449	0.0126168
914.527	0.0127116
914.605	0.0127174
914.684	0.0127750
914.762	0.0127905
914.840	0.0127027
914.918	0.0127615
914.996	0.0128191
915.074	0.0127169
915.152	0.0127163
915.230	0.0125890
915.309	0.0126740
915.387	0.0125771
915.465	0.0126815
915.543	0.0125522
915.621	0.0126740
915.699	0.0126060
915.777	0.0125282
915.855	0.0125871
915.934	0.0125660
916.012	0.0123724
916.090	0.0124965
916.168	0.0124874
916.246	0.0125485
916.324	0.0125575
916.402	0.0123866
916.480	0.0124806
916.559	0.0125243
916.637	0.0124648
916.715	0.0125236
916.793	0.0125368
916.871	0.0124270
916.949	0.0125805
917.027	0.0125244
917.105	0.0125481
917.184	0.0125986
917.262	0.0126768
917.340	0.0125534
917.418	0.0125584
917.496	0.0125504
917.574	0.0126698
917.652	0.0127686
917.730	0.0127193
917.809	0.0126254
917.887	0.0125915
917.965	0.0125851
918.043	0.0124858
918.121	0.0126474
918.199	0.0125827
918.277	0.0126518
918.355	0.0125714
918.434	0.0124362
918.512	0.0125032
918.590	0.0125941
918.668	0.0126143
918.746	0.0124556
918.824	0.0125033
918.902	0.0124614
918.980	0.0125912
919.059	0.0126565
919.137	0.0126142
919.215	0.0126376
919.293	0.0126677
919.371	0.0126349
919.449	0.0127753
919.527	0.0127383
919.605	0.0127550
919.684	0.0128220
919.762	0.0128051
919.840	0.0127392
919.918	0.0129289
919.996	0.0127728
920.074	0.0127399
920.152	0.0127238
920.230	0.0125931
920.309	0.0127694
920.387	0.0128991
920.465	0.0126279
920.543	0.0126177
920.621	0.0125280
920.699	0.0125191
920.777	0.0124894
920.855	0.0124532
920.934	0.0124379
921.012	0.0124207
921.090	0.0124706
921.168	0.0124038
921.246	0.0124064
921.324	0.0122823
921.402	0.0124081
921.480	0.0124120
921.559	0.0123803
921.637	0.0124968
921.715	0.0124049
921.793	0.0124851
921.871	0.0126092
921.949	0.0125870
922.027	0.0125554
922.105	0.0127265
922.184	0.0127982
922.262	0.0126873
922.340	0.0127820
922.418	0.0129510
922.496	0.0128783
922.574	0.0127319
922.652	0.0127562
922.730	0.0127970
922.809	0.0128338
922.887	0.0126273
922.965	0.0126127
923.043	0.0128390
923.121	0.0126482
923.199	0.0126192
923.277	0.0125694
923.355	0.0124629
923.434	0.0124694
923.512	0.0124966
923.590	0.0123531
923.668	0.0124019
923.746	0.0123941
923.824	0.0124584
923.902	0.0125628
923.980	0.0125095
924.059	0.0124542
924.137	0.0124896
924.215	0.0125190
924.293	0.0127184
924.371	0.0124831
924.449	0.0125834
924.527	0.0126408
924.605	0.0126929
924.684	0.0127019
924.762	0.0127023
924.840	0.0126256
924.918	0.0127473
924.996	0.0126453
925.074	0.0127243
925.152	0.0127291
925.230	0.0127612
925.309	0.0126032
925.387	0.0126540
925.465	0.0126513
925.543	0.0125967
925.621	0.0125043
925.699	0.0125361
925.777	0.0125701
925.855	0.0124857
925.934	0.0124599
926.012	0.0126278
926.090	0.0126105
926.168	0.0125135
926.246	0.0125800
926.324	0.0125817
926.402	0.0126978
926.480	0.0125950
926.559	0.0126482
926.637	0.0127554
926.715	0.0126614
926.793	0.0127160
926.871	0.0127935
926.949	0.0126643
927.027	0.0125376
927.105	0.0124057
927.184	0.0125964
927.262	0.0127184
927.340	0.0126351
927.418	0.0126411
927.496	0.0125436
927.574	0.0125368
927.652	0.0125031
927.730	0.0126213
927.809	0.0126461
927.887	0.0124102
927.965	0.0123979
928.043	0.0126020
928.121	0.0124575
928.199	0.0123656
928.277	0.0123853
928.355	0.0124801
928.434	0.0125005
928.512	0.0122813
928.590	0.0124217
928.668	0.0124746
928.746	0.0124404
928.824	0.0125497
928.902	0.0124776
928.980	0.0123813
929.059	0.0124786
929.137	0.0126080
929.215	0.0125639
929.293	0.0124621
929.371	0.0127155
929.449	0.0124508
929.527	0.0127612
929.605	0.0127128
929.684	0.0126872
929.762	0.0126309
929.840	0.0126950
929.918	0.0127841
929.996	0.0126884
930.074	0.0127725
930.152	0.0127765
930.230	0.0127595
930.309	0.0129015
930.387	0.0128129
930.465	0.0127707
930.543	0.0128922
930.621	0.0127525
930.699	0.0127607
930.777	0.0127987
930.855	0.0126951
930.934	0.0126647
931.012	0.0127369
931.090	0.0126738
931.168	0.0124784
931.246	0.0125826
931.324	0.0125632
931.402	0.0126997
931.480	0.0125210
931.559	0.0125591
931.637	0.0125525
931.715	0.0126160
931.793	0.0125364
931.871	0.0124621
931.949	0.0125493
932.027	0.0124792
932.105	0.0125996
932.184	0.0126684
932.262	0.0125597
932.340	0.0126555
932.418	0.0126729
932.496	0.0126292
932.574	0.0127025
932.652	0.0125568
932.730	0.0127097
932.809	0.0126082
932.887	0.0127118
932.965	0.0126379
933.043	0.0125590
933.121	0.0126059
933.199	0.0126443
933.277	0.0126189
933.355	0.0126707
933.434	0.0127023
933.512	0.0125868
933.590	0.0124418
933.668	0.0124749
933.746	0.0126408
933.824	0.0126588
933.902	0.0125970
933.980	0.0125812
934.059	0.0125292
934.137	0.0124875
934.215	0.0125013
934.293	0.0124384
934.371	0.0125705
934.449	0.0126537
934.527	0.0127996
934.605	0.0126221
934.684	0.0125829
934.762	0.0126584
934.840	0.0126580
934.918	0.0128656
934.996	0.0127050
935.074	0.0127047
935.152	0.0127691
935.230	0.0127441
935.309	0.0127417
935.387	0.0129485
935.465	0.0127118
935.543	0.0127164
935.621	0.0127993
935.699	0.0127198
935.777	0.0126868
935.855	0.0126914
935.934	0.0125951
936.012	0.0127013
936.090	0.0127289
936.168	0.0126608
936.246	0.0125617
936.324	0.0125907
936.402	0.0126859
936.480	0.0125686
936.559	0.0126332
936.637	0.0127972
936.715	0.0127323
936.793	0.0126275
936.871	0.0127013
936.949	0.0126875
937.027	0.0127632
937.105	0.0128235
937.184	0.0129272
937.262	0.0127667
937.340	0.0128862
937.418	0.0128352
937.496	0.0127292
937.574	0.0129369
937.652	0.0128336
937.730	0.0129819
937.809	0.0129948
937.887	0.0128806
937.965	0.0128516
938.043	0.0128220
938.121	0.0129220
938.199	0.0128924
938.277	0.0126063
938.355	0.0128201
938.434	0.0127298
938.512	0.0127492
938.590	0.0126289
938.668	0.0125427
938.746	0.0125647
938.824	0.0124646
938.902	0.0123654
938.980	0.0124857
939.059	0.0124976
939.137	0.0125536
939.215	0.0125191
939.293	0.0124764
939.371	0.0124986
939.449	0.0124924
939.527	0.0124918
939.605	0.0124371
939.684	0.0125291
939.762	0.0124698
939.840	0.0125872
939.918	0.0124765
939.996	0.0125378
940.074	0.0126437
940.152	0.0125804
940.230	0.0125848
940.309	0.0126371
940.387	0.0128254
940.465	0.0128890
940.543	0.0128922
940.621	0.0127252
940.699	0.0126395
940.777	0.0128379
940.855	0.0128211
940.934	0.0127754
941.012	0.0128609
941.090	0.0126356
941.168	0.0127564
941.246	0.0126463
941.324	0.0126841
941.402	0.0126955
941.480	0.0126922
941.559	0.0127161
941.637	0.0127120
941.715	0.0126583
941.793	0.0125877
941.871	0.0125840
941.949	0.0125645
942.027	0.0125677
942.105	0.0125432
942.184	0.0124580
942.262	0.0125056
942.340	0.0125539
942.418	0.0126801
942.496	0.0124525
942.574	0.0125906
942.652	0.0126131
942.730	0.0126532
942.809	0.0125771
942.887	0.0126849
942.965	0.0127052
943.043	0.0125676
943.121	0.0126474
943.199	0.0126905
943.277	0.0127901
943.355	0.0126126
943.434	0.0127337
943.512	0.0126791
943.590	0.0125948
943.668	0.0126749
943.746	0.0127214
943.824	0.0126478
943.902	0.0126355
943.980	0.0126594
944.059	0.0125542
944.137	0.0124972
944.215	0.0125573
944.293	0.0125102
944.371	0.0124556
944.449	0.0125611
944.527	0.0124660
944.605	0.0124063
944.684	0.0126098
944.762	0.0124449
944.840	0.0123825
944.918	0.0125483
944.996	0.0124511
945.074	0.0124116
945.152	0.0124433
945.230	0.0124872
945.309	0.0125305
945.387	0.0124378
945.465	0.0124199
945.543	0.0124098
945.621	0.0125623
945.699	0.0125746
945.777	0.0125014
945.855	0.0125528
945.934	0.0126841
946.012	0.0125205
946.090	0.0124867
946.168	0.0126551
946.246	0.0125719
946.324	0.0125119
946.402	0.0125359
946.480	0.0125522
946.559	0.0127120
946.637	0.0126658
946.715	0.0125544
946.793	0.0124726
946.871	0.0126062
946.949	0.0127496
947.027	0.0125533
947.105	0.0125870
947.184	0.0126955
947.262	0.0127052
947.340	0.0127312
947.418	0.0126526
947.496	0.0127341
947.574	0.0126495
947.652	0.0125529
947.730	0.0126808
947.809	0.0127023
947.887	0.0126264
947.965	0.0126464
948.043	0.0125056
948.121	0.0126856
948.199	0.0126914
948.277	0.0125662
948.355	0.0125220
948.434	0.0127470
948.512	0.0125798
948.590	0.0126507
948.668	0.0127269
948.746	0.0126470
948.824	0.0125781
948.902	0.0127538
948.980	0.0128609
949.059	0.0127772
949.137	0.0127314
949.215	0.0127612
949.293	0.0128426
949.371	0.0128645
949.449	0.0127187
949.527	0.0126884
949.605	0.0126469
949.684	0.0125755
949.762	0.0125343
949.840	0.0125412
949.918	0.0125228
949.996	0.0124606
950.074	0.0125290
950.152	0.0124036
950.230	0.0124332
950.309	0.0125975
950.387	0.0125707
950.465	0.0125928
950.543	0.0125586
950.621	0.0125081
950.699	0.0124507
950.777	0.0125127
950.855	0.0124804
950.934	0.0124438
951.012	0.0125961
951.090	0.0126556
951.168	0.0125919
951.246	0.0126456
951.324	0.0125079
951.402	0.0125761
951.480	0.0126503
951.559	0.0125788
951.637	0.0125667
951.715	0.0128202
951.793	0.0128133
951.871	0.0127265
951.949	0.0127501
952.027	0.0127816
952.105	0.0128526
952.184	0.0129539
952.262	0.0128555
952.340	0.0127837
952.418	0.0126817
952.496	0.0126917
952.574	0.0126397
952.652	0.0127647
952.730	0.0125314
952.809	0.0125542
952.887	0.0126601
952.965	0.0124548
953.043	0.0125145
953.121	0.0124716
953.199	0.0125648
953.277	0.0125526
953.355	0.0125993
953.434	0.0124542
953.512	0.0124369
953.590	0.0124390
953.668	0.0126205
953.746	0.0125027
953.824	0.0126289
953.902	0.0125073
953.980	0.0127084
954.059	0.0126352
954.137	0.0128339
954.215	0.0125596
954.293	0.0126604
954.371	0.0127360
954.449	0.0127097
954.527	0.0127372
954.605	0.0127220
954.684	0.0126061
954.762	0.0126961
954.840	0.0126482
954.918	0.0126514
954.996	0.0125957
955.074	0.0125721
955.152	0.0125311
955.230	0.0127136
955.309	0.0126396
955.387	0.0126235
955.465	0.0125590
955.543	0.0126955
955.621	0.0126229
955.699	0.0128300
955.777	0.0126953
955.855	0.0126336
955.934	0.0127180
956.012	0.0126776
956.090	0.0124929
956.168	0.0127302
956.246	0.0125951
956.324	0.0126496
956.402	0.0126233
956.480	0.0125417
956.559	0.0126003
956.637	0.0125838
956.715	0.0127520
956.793	0.0124514
956.871	0.0126564
956.949	0.0124532
957.027	0.0126532
957.105	0.0125960
957.184	0.0124211
957.262	0.0125387
957.340	0.0126144
957.418	0.0126199
957.496	0.0125384
957.574	0.0125578
957.652	0.0125866
957.730	0.0125478
957.809	0.0124541
957.887	0.0125111
957.965	0.0125817
958.043	0.0124770
958.121	0.0125985
958.199	0.0125478
958.277	0.0126122
958.355	0.0125459
958.434	0.0126764
958.512	0.0124648
958.590	0.0124084
958.668	0.0123486
958.746	0.0125306
958.824	0.0126921
958.902	0.0125762
958.980	0.0124557
959.059	0.0124702
959.137	0.0125070
959.215	0.0125658
959.293	0.0126154
959.371	0.0126170
959.449	0.0126051
959.527	0.0125925
959.605	0.0126188
959.684	0.0126663
959.762	0.0125622
959.840	0.0126067
959.918	0.0126838
