05/04/2022	20:46:36	Ver.	4.1	UNKNOWN
Optical Delay	679.003072	Delta X		0.078125	Sweeps	1	Scan Rate	0/0
Coordinates	Axis 1	NaN	Axis 2	NaN	Axis 3	NaN	Axis 4	NaN	Axis 5	NaN	Axis 6	0.000000
TX Power	0.000000	RX Power	0.000000

679.003	0.0148499
679.081	0.0149642
679.159	0.0148343
679.237	0.0148231
679.316	0.0147955
679.394	0.0148785
679.472	0.0149084
679.550	0.0148731
679.628	0.0148095
679.706	0.0149090
679.784	0.0147640
679.862	0.0148918
679.941	0.0148726
680.019	0.0149678
680.097	0.0148824
680.175	0.0147446
680.253	0.0149587
680.331	0.0148358
680.409	0.0149400
680.487	0.0148451
680.566	0.0147620
680.644	0.0149109
680.722	0.0149255
680.800	0.0148077
680.878	0.0148424
680.956	0.0149036
681.034	0.0147848
681.112	0.0148145
681.191	0.0148299
681.269	0.0148634
681.347	0.0148141
681.425	0.0147968
681.503	0.0149278
681.581	0.0148563
681.659	0.0148225
681.737	0.0149042
681.816	0.0147930
681.894	0.0149089
681.972	0.0147871
682.050	0.0147821
682.128	0.0149165
682.206	0.0148874
682.284	0.0148900
682.362	0.0148886
682.441	0.0148546
682.519	0.0148532
682.597	0.0147646
682.675	0.0148033
682.753	0.0147179
682.831	0.0148784
682.909	0.0148656
682.987	0.0147292
683.066	0.0148059
683.144	0.0146856
683.222	0.0148571
683.300	0.0148827
683.378	0.0148511
683.456	0.0148906
683.534	0.0147459
683.612	0.0149180
683.691	0.0148458
683.769	0.0148585
683.847	0.0148407
683.925	0.0148505
684.003	0.0147931
684.081	0.0148453
684.159	0.0148954
684.237	0.0148415
684.316	0.0147106
684.394	0.0148111
684.472	0.0148001
684.550	0.0148154
684.628	0.0147472
684.706	0.0148286
684.784	0.0148833
684.862	0.0146588
684.941	0.0148425
685.019	0.0148933
685.097	0.0148363
685.175	0.0147795
685.253	0.0146760
685.331	0.0148015
685.409	0.0147449
685.487	0.0149567
685.566	0.0149156
685.644	0.0148202
685.722	0.0148676
685.800	0.0147249
685.878	0.0149020
685.956	0.0148396
686.034	0.0148144
686.112	0.0148164
686.191	0.0147010
686.269	0.0148280
686.347	0.0147208
686.425	0.0148770
686.503	0.0148759
686.581	0.0149230
686.659	0.0149113
686.737	0.0148351
686.816	0.0148341
686.894	0.0148257
686.972	0.0147695
687.050	0.0149447
687.128	0.0149143
687.206	0.0148283
687.284	0.0148079
687.362	0.0148126
687.441	0.0148150
687.519	0.0149651
687.597	0.0148294
687.675	0.0148493
687.753	0.0149376
687.831	0.0148866
687.909	0.0147959
687.987	0.0147814
688.066	0.0148073
688.144	0.0148900
688.222	0.0149137
688.300	0.0148709
688.378	0.0147491
688.456	0.0148558
688.534	0.0147684
688.612	0.0147522
688.691	0.0148373
688.769	0.0148723
688.847	0.0149852
688.925	0.0148367
689.003	0.0149179
689.081	0.0148938
689.159	0.0147925
689.237	0.0148682
689.316	0.0149058
689.394	0.0148825
689.472	0.0149495
689.550	0.0148592
689.628	0.0148672
689.706	0.0148690
689.784	0.0148856
689.862	0.0147796
689.941	0.0149868
690.019	0.0149200
690.097	0.0149159
690.175	0.0148620
690.253	0.0149129
690.331	0.0149062
690.409	0.0148489
690.487	0.0148695
690.566	0.0149700
690.644	0.0149854
690.722	0.0149050
690.800	0.0148920
690.878	0.0148602
690.956	0.0149502
691.034	0.0147621
691.112	0.0148226
691.191	0.0149746
691.269	0.0147890
691.347	0.0148299
691.425	0.0148995
691.503	0.0149186
691.581	0.0150145
691.659	0.0148681
691.737	0.0148386
691.816	0.0150064
691.894	0.0148196
691.972	0.0148521
692.050	0.0149368
692.128	0.0149023
692.206	0.0148157
692.284	0.0148721
692.362	0.0149049
692.441	0.0148163
692.519	0.0149357
692.597	0.0149106
692.675	0.0149964
692.753	0.0150034
692.831	0.0149358
692.909	0.0148144
692.987	0.0148658
693.066	0.0148727
693.144	0.0148653
693.222	0.0147810
693.300	0.0148645
693.378	0.0148700
693.456	0.0148117
693.534	0.0148841
693.612	0.0149388
693.691	0.0148824
693.769	0.0146189
693.847	0.0147476
693.925	0.0148164
694.003	0.0149808
694.081	0.0149604
694.159	0.0148267
694.237	0.0148270
694.316	0.0148689
694.394	0.0148547
694.472	0.0147773
694.550	0.0147161
694.628	0.0147725
694.706	0.0148323
694.784	0.0147787
694.862	0.0149771
694.941	0.0147603
695.019	0.0148246
695.097	0.0148602
695.175	0.0147614
695.253	0.0148257
695.331	0.0147635
695.409	0.0147421
695.487	0.0148769
695.566	0.0147787
695.644	0.0148134
695.722	0.0147530
695.800	0.0148573
695.878	0.0149088
695.956	0.0147328
696.034	0.0148194
696.112	0.0147417
696.191	0.0148723
696.269	0.0148293
696.347	0.0148625
696.425	0.0149157
696.503	0.0147305
696.581	0.0149515
696.659	0.0148318
696.737	0.0148251
696.816	0.0147627
696.894	0.0149750
696.972	0.0147659
697.050	0.0148532
697.128	0.0147597
697.206	0.0148476
697.284	0.0147922
697.362	0.0148019
697.441	0.0147447
697.519	0.0147279
697.597	0.0147562
697.675	0.0147868
697.753	0.0148736
697.831	0.0146903
697.909	0.0147024
697.987	0.0147995
698.066	0.0149130
698.144	0.0147781
698.222	0.0148726
698.300	0.0149406
698.378	0.0149066
698.456	0.0148231
698.534	0.0146765
698.612	0.0147157
698.691	0.0148399
698.769	0.0149210
698.847	0.0147635
698.925	0.0148549
699.003	0.0148370
699.081	0.0147607
699.159	0.0148196
699.237	0.0148198
699.316	0.0149273
699.394	0.0146896
699.472	0.0146851
699.550	0.0148941
699.628	0.0148597
699.706	0.0148699
699.784	0.0149005
699.862	0.0149240
699.941	0.0147343
700.019	0.0149107
700.097	0.0149495
700.175	0.0148788
700.253	0.0148096
700.331	0.0148730
700.409	0.0147688
700.487	0.0147561
700.566	0.0147906
700.644	0.0148271
700.722	0.0149700
700.800	0.0147971
700.878	0.0150457
700.956	0.0148314
701.034	0.0147935
701.112	0.0147484
701.191	0.0147883
701.269	0.0148260
701.347	0.0148544
701.425	0.0147955
701.503	0.0148109
701.581	0.0148773
701.659	0.0149078
701.737	0.0149795
701.816	0.0149170
701.894	0.0148011
701.972	0.0148866
702.050	0.0148915
702.128	0.0149171
702.206	0.0149010
702.284	0.0147072
702.362	0.0149511
702.441	0.0148841
702.519	0.0148367
702.597	0.0148441
702.675	0.0147138
702.753	0.0148703
702.831	0.0148354
702.909	0.0149039
702.987	0.0147930
703.066	0.0147826
703.144	0.0148302
703.222	0.0148521
703.300	0.0149075
703.378	0.0148818
703.456	0.0148711
703.534	0.0149732
703.612	0.0150756
703.691	0.0148505
703.769	0.0147955
703.847	0.0148036
703.925	0.0147683
704.003	0.0148083
704.081	0.0148317
704.159	0.0147789
704.237	0.0148461
704.316	0.0148951
704.394	0.0149741
704.472	0.0149100
704.550	0.0149082
704.628	0.0149828
704.706	0.0148463
704.784	0.0147367
704.862	0.0148605
704.941	0.0148930
705.019	0.0150263
705.097	0.0148086
705.175	0.0148924
705.253	0.0148097
705.331	0.0147388
705.409	0.0149216
705.487	0.0148556
705.566	0.0147752
705.644	0.0149188
705.722	0.0148391
705.800	0.0148541
705.878	0.0149437
705.956	0.0147687
706.034	0.0148057
706.112	0.0147399
706.191	0.0148286
706.269	0.0148470
706.347	0.0149131
706.425	0.0148009
706.503	0.0147904
706.581	0.0148118
706.659	0.0148034
706.737	0.0148907
706.816	0.0148032
706.894	0.0146855
706.972	0.0147493
707.050	0.0148785
707.128	0.0148463
707.206	0.0148164
707.284	0.0147235
707.362	0.0147363
707.441	0.0147509
707.519	0.0149028
707.597	0.0148708
707.675	0.0148519
707.753	0.0148994
707.831	0.0147396
707.909	0.0147420
707.987	0.0148648
708.066	0.0147179
708.144	0.0148872
708.222	0.0147996
708.300	0.0147570
708.378	0.0148021
708.456	0.0148618
708.534	0.0149716
708.612	0.0147878
708.691	0.0149007
708.769	0.0149288
708.847	0.0148396
708.925	0.0147406
709.003	0.0148235
709.081	0.0148417
709.159	0.0148910
709.237	0.0147285
709.316	0.0148158
709.394	0.0148283
709.472	0.0147746
709.550	0.0148036
709.628	0.0147413
709.706	0.0147590
709.784	0.0148576
709.862	0.0147562
709.941	0.0147253
710.019	0.0148062
710.097	0.0149178
710.175	0.0147624
710.253	0.0147934
710.331	0.0148672
710.409	0.0150634
710.487	0.0148920
710.566	0.0147742
710.644	0.0148408
710.722	0.0148864
710.800	0.0147247
710.878	0.0148113
710.956	0.0149022
711.034	0.0147870
711.112	0.0148697
711.191	0.0149594
711.269	0.0148346
711.347	0.0148174
711.425	0.0147683
711.503	0.0148202
711.581	0.0148138
711.659	0.0148581
711.737	0.0149127
711.816	0.0147391
711.894	0.0147401
711.972	0.0148452
712.050	0.0148040
712.128	0.0148635
712.206	0.0148757
712.284	0.0148356
712.362	0.0149075
712.441	0.0149666
712.519	0.0147848
712.597	0.0148423
712.675	0.0148289
712.753	0.0148453
712.831	0.0147076
712.909	0.0147609
712.987	0.0148644
713.066	0.0148029
713.144	0.0148181
713.222	0.0149130
713.300	0.0148301
713.378	0.0149255
713.456	0.0146995
713.534	0.0148708
713.612	0.0148949
713.691	0.0149323
713.769	0.0148780
713.847	0.0147155
713.925	0.0147718
714.003	0.0147260
714.081	0.0147514
714.159	0.0149312
714.237	0.0149613
714.316	0.0148840
714.394	0.0148476
714.472	0.0149834
714.550	0.0148634
714.628	0.0149099
714.706	0.0148370
714.784	0.0147826
714.862	0.0149312
714.941	0.0147755
715.019	0.0148685
715.097	0.0150469
715.175	0.0149126
715.253	0.0149183
715.331	0.0149203
715.409	0.0148624
715.487	0.0150610
715.566	0.0149342
715.644	0.0149653
715.722	0.0148817
715.800	0.0148811
715.878	0.0149515
715.956	0.0148431
716.034	0.0148070
716.112	0.0149974
716.191	0.0148824
716.269	0.0149407
716.347	0.0147339
716.425	0.0148216
716.503	0.0148323
716.581	0.0148091
716.659	0.0148678
716.737	0.0148209
716.816	0.0147990
716.894	0.0147856
716.972	0.0148543
717.050	0.0148103
717.128	0.0146829
717.206	0.0147913
717.284	0.0148798
717.362	0.0148817
717.441	0.0148321
717.519	0.0149368
717.597	0.0149156
717.675	0.0148811
717.753	0.0148316
717.831	0.0148934
717.909	0.0148312
717.987	0.0147260
718.066	0.0150259
718.144	0.0149543
718.222	0.0148151
718.300	0.0147919
718.378	0.0149834
718.456	0.0149035
718.534	0.0148974
718.612	0.0148679
718.691	0.0149457
718.769	0.0150204
718.847	0.0149007
718.925	0.0149059
719.003	0.0147630
719.081	0.0147153
719.159	0.0148824
719.237	0.0147395
719.316	0.0148411
719.394	0.0147767
719.472	0.0147659
719.550	0.0149485
719.628	0.0147522
719.706	0.0148524
719.784	0.0149741
719.862	0.0147272
719.941	0.0147353
720.019	0.0148255
720.097	0.0146564
720.175	0.0147018
720.253	0.0148306
720.331	0.0147506
720.409	0.0147895
720.487	0.0147451
720.566	0.0148541
720.644	0.0146733
720.722	0.0148673
720.800	0.0147046
720.878	0.0146421
720.956	0.0148077
721.034	0.0147639
721.112	0.0148272
721.191	0.0148507
721.269	0.0149054
721.347	0.0147384
721.425	0.0147743
721.503	0.0148056
721.581	0.0147644
721.659	0.0149052
721.737	0.0149482
721.816	0.0148621
721.894	0.0150654
721.972	0.0149576
722.050	0.0148648
722.128	0.0148728
722.206	0.0148070
722.284	0.0148437
722.362	0.0147900
722.441	0.0147180
722.519	0.0147261
722.597	0.0146617
722.675	0.0146726
722.753	0.0146415
722.831	0.0148219
722.909	0.0148907
722.987	0.0146848
723.066	0.0148761
723.144	0.0148460
723.222	0.0146785
723.300	0.0146692
723.378	0.0148584
723.456	0.0147236
723.534	0.0147846
723.612	0.0147272
723.691	0.0147343
723.769	0.0148122
723.847	0.0149166
723.925	0.0148991
724.003	0.0148283
724.081	0.0148646
724.159	0.0149191
724.237	0.0149168
724.316	0.0147926
724.394	0.0148687
724.472	0.0149281
724.550	0.0147692
724.628	0.0148867
724.706	0.0149224
724.784	0.0147921
724.862	0.0149651
724.941	0.0148367
725.019	0.0148435
725.097	0.0147499
725.175	0.0147900
725.253	0.0148298
725.331	0.0148811
725.409	0.0147563
725.487	0.0148466
725.566	0.0147044
725.644	0.0148221
725.722	0.0147614
725.800	0.0147289
725.878	0.0147230
725.956	0.0147442
726.034	0.0148186
726.112	0.0148138
726.191	0.0148504
726.269	0.0148362
726.347	0.0149049
726.425	0.0148413
726.503	0.0147199
726.581	0.0149244
726.659	0.0149358
726.737	0.0149040
726.816	0.0148648
726.894	0.0148917
726.972	0.0148737
727.050	0.0149026
727.128	0.0147669
727.206	0.0148141
727.284	0.0148231
727.362	0.0148885
727.441	0.0148856
727.519	0.0148325
727.597	0.0148132
727.675	0.0148965
727.753	0.0148161
727.831	0.0147289
727.909	0.0147678
727.987	0.0148663
728.066	0.0146223
728.144	0.0147852
728.222	0.0149234
728.300	0.0148820
728.378	0.0148152
728.456	0.0147379
728.534	0.0147555
728.612	0.0148909
728.691	0.0148249
728.769	0.0148442
728.847	0.0147741
728.925	0.0148994
729.003	0.0147948
729.081	0.0148190
729.159	0.0148699
729.237	0.0149612
729.316	0.0149502
729.394	0.0149088
729.472	0.0148186
729.550	0.0148946
729.628	0.0150488
729.706	0.0149926
729.784	0.0150453
729.862	0.0150112
729.941	0.0149165
730.019	0.0149651
730.097	0.0150813
730.175	0.0149443
730.253	0.0148922
730.331	0.0149006
730.409	0.0149023
730.487	0.0149312
730.566	0.0148952
730.644	0.0149516
730.722	0.0150726
730.800	0.0148383
730.878	0.0149935
730.956	0.0148705
731.034	0.0147602
731.112	0.0148631
731.191	0.0150084
731.269	0.0149133
731.347	0.0148566
731.425	0.0148512
731.503	0.0148945
731.581	0.0149628
731.659	0.0148611
731.737	0.0148598
731.816	0.0149219
731.894	0.0147686
731.972	0.0151409
732.050	0.0148916
732.128	0.0146936
732.206	0.0148672
732.284	0.0147721
732.362	0.0149462
732.441	0.0148442
732.519	0.0146801
732.597	0.0147676
732.675	0.0147867
732.753	0.0147768
732.831	0.0147945
732.909	0.0148089
732.987	0.0146567
733.066	0.0148845
733.144	0.0147371
733.222	0.0147528
733.300	0.0146770
733.378	0.0145605
733.456	0.0148244
733.534	0.0148938
733.612	0.0147914
733.691	0.0146534
733.769	0.0147151
733.847	0.0148277
733.925	0.0148920
734.003	0.0148428
734.081	0.0148914
734.159	0.0148050
734.237	0.0147160
734.316	0.0146621
734.394	0.0146883
734.472	0.0148029
734.550	0.0147707
734.628	0.0148105
734.706	0.0147007
734.784	0.0148221
734.862	0.0148552
734.941	0.0147669
735.019	0.0148673
735.097	0.0148631
735.175	0.0148547
735.253	0.0149340
735.331	0.0148034
735.409	0.0149003
735.487	0.0150272
735.566	0.0148161
735.644	0.0149670
735.722	0.0149207
735.800	0.0148563
735.878	0.0148094
735.956	0.0149955
736.034	0.0149562
736.112	0.0149599
736.191	0.0148018
736.269	0.0149018
736.347	0.0148983
736.425	0.0148698
736.503	0.0150171
736.581	0.0148795
736.659	0.0147920
736.737	0.0147966
736.816	0.0148399
736.894	0.0146606
736.972	0.0148022
737.050	0.0147218
737.128	0.0148016
737.206	0.0148839
737.284	0.0147413
737.362	0.0148288
737.441	0.0147436
737.519	0.0149261
737.597	0.0148378
737.675	0.0146829
737.753	0.0147803
737.831	0.0148850
737.909	0.0148553
737.987	0.0148737
738.066	0.0149365
738.144	0.0149272
738.222	0.0148772
738.300	0.0147929
738.378	0.0148333
738.456	0.0148695
738.534	0.0149361
738.612	0.0149231
738.691	0.0147521
738.769	0.0146031
738.847	0.0147241
738.925	0.0147739
739.003	0.0147427
739.081	0.0148084
739.159	0.0148169
739.237	0.0147422
739.316	0.0147490
739.394	0.0148671
739.472	0.0147522
739.550	0.0147837
739.628	0.0146146
739.706	0.0147361
739.784	0.0148808
739.862	0.0148669
739.941	0.0149020
740.019	0.0148174
740.097	0.0148785
740.175	0.0147809
740.253	0.0147979
740.331	0.0149092
740.409	0.0148280
740.487	0.0148254
740.566	0.0147861
740.644	0.0148051
740.722	0.0147845
740.800	0.0148057
740.878	0.0147550
740.956	0.0147311
741.034	0.0146739
741.112	0.0147414
741.191	0.0146845
741.269	0.0147406
741.347	0.0147904
741.425	0.0149381
741.503	0.0147569
741.581	0.0147157
741.659	0.0147623
741.737	0.0147445
741.816	0.0147770
741.894	0.0147392
741.972	0.0149127
742.050	0.0146833
742.128	0.0147649
742.206	0.0148191
742.284	0.0148241
742.362	0.0147381
742.441	0.0148420
742.519	0.0147309
742.597	0.0147964
742.675	0.0147668
742.753	0.0147329
742.831	0.0148596
742.909	0.0146663
742.987	0.0146916
743.066	0.0147887
743.144	0.0148293
743.222	0.0148376
743.300	0.0148421
743.378	0.0148471
743.456	0.0147723
743.534	0.0150928
743.612	0.0147266
743.691	0.0148005
743.769	0.0148125
743.847	0.0148183
743.925	0.0149226
744.003	0.0148093
744.081	0.0148556
744.159	0.0148505
744.237	0.0149104
744.316	0.0149043
744.394	0.0147532
744.472	0.0148004
744.550	0.0149023
744.628	0.0148780
744.706	0.0148473
744.784	0.0148753
744.862	0.0148434
744.941	0.0148788
745.019	0.0148798
745.097	0.0149340
745.175	0.0149273
745.253	0.0149425
745.331	0.0148351
745.409	0.0148859
745.487	0.0148660
745.566	0.0148775
745.644	0.0148768
745.722	0.0149368
745.800	0.0148592
745.878	0.0149114
745.956	0.0148921
746.034	0.0148368
746.112	0.0148725
746.191	0.0148486
746.269	0.0148316
746.347	0.0148950
746.425	0.0147711
746.503	0.0148431
746.581	0.0148820
746.659	0.0149163
746.737	0.0149077
746.816	0.0149213
746.894	0.0148085
746.972	0.0148854
747.050	0.0148714
747.128	0.0148003
747.206	0.0148621
747.284	0.0149545
747.362	0.0148222
747.441	0.0148277
747.519	0.0148975
747.597	0.0146841
747.675	0.0148565
747.753	0.0148235
747.831	0.0147819
747.909	0.0148683
747.987	0.0148058
748.066	0.0150137
748.144	0.0148610
748.222	0.0149242
748.300	0.0148078
748.378	0.0149310
748.456	0.0149152
748.534	0.0148374
748.612	0.0148745
748.691	0.0146915
748.769	0.0148733
748.847	0.0148156
748.925	0.0147824
749.003	0.0148003
749.081	0.0148505
749.159	0.0147683
749.237	0.0148898
749.316	0.0148285
749.394	0.0148700
749.472	0.0149020
749.550	0.0148587
749.628	0.0147005
749.706	0.0148480
749.784	0.0148082
749.862	0.0147793
749.941	0.0147004
750.019	0.0147939
750.097	0.0148064
750.175	0.0147530
750.253	0.0148667
750.331	0.0148049
750.409	0.0148590
750.487	0.0147901
750.566	0.0148066
750.644	0.0146853
750.722	0.0147855
750.800	0.0149098
750.878	0.0147131
750.956	0.0147928
751.034	0.0147815
751.112	0.0146902
751.191	0.0147102
751.269	0.0146378
751.347	0.0148277
751.425	0.0148333
751.503	0.0147295
751.581	0.0147157
751.659	0.0148049
751.737	0.0149070
751.816	0.0148456
751.894	0.0147690
751.972	0.0146809
752.050	0.0148427
752.128	0.0148292
752.206	0.0149664
752.284	0.0148179
752.362	0.0148052
752.441	0.0149728
752.519	0.0148798
752.597	0.0149067
752.675	0.0147816
752.753	0.0147978
752.831	0.0147883
752.909	0.0148550
752.987	0.0148236
753.066	0.0148660
753.144	0.0148137
753.222	0.0148859
753.300	0.0148066
753.378	0.0147495
753.456	0.0148696
753.534	0.0149020
753.612	0.0148800
753.691	0.0147349
753.769	0.0148946
753.847	0.0148404
753.925	0.0147777
754.003	0.0146864
754.081	0.0147538
754.159	0.0149110
754.237	0.0147464
754.316	0.0147095
754.394	0.0147311
754.472	0.0148461
754.550	0.0147446
754.628	0.0147444
754.706	0.0145960
754.784	0.0147052
754.862	0.0146335
754.941	0.0147366
755.019	0.0145469
755.097	0.0145850
755.175	0.0145674
755.253	0.0147939
755.331	0.0147457
755.409	0.0147484
755.487	0.0148283
755.566	0.0146550
755.644	0.0147105
755.722	0.0148835
755.800	0.0147243
755.878	0.0148328
755.956	0.0148206
756.034	0.0148309
756.112	0.0148917
756.191	0.0149332
756.269	0.0147790
756.347	0.0148352
756.425	0.0149278
756.503	0.0148030
756.581	0.0148494
756.659	0.0150055
756.737	0.0148808
756.816	0.0149525
756.894	0.0149182
756.972	0.0149006
757.050	0.0149628
757.128	0.0149146
757.206	0.0149086
757.284	0.0148393
757.362	0.0149503
757.441	0.0149423
757.519	0.0148566
757.597	0.0148862
757.675	0.0150334
757.753	0.0149184
757.831	0.0150191
757.909	0.0150639
757.987	0.0150033
758.066	0.0149012
758.144	0.0150127
758.222	0.0150043
758.300	0.0149750
758.378	0.0148125
758.456	0.0149437
758.534	0.0150313
758.612	0.0149339
758.691	0.0149371
758.769	0.0147913
758.847	0.0148605
758.925	0.0150327
759.003	0.0149944
759.081	0.0148485
759.159	0.0148222
759.237	0.0148124
759.316	0.0148106
759.394	0.0147600
759.472	0.0148229
759.550	0.0148553
759.628	0.0148035
759.706	0.0147682
759.784	0.0149153
759.862	0.0149641
759.941	0.0147274
760.019	0.0147858
760.097	0.0147951
760.175	0.0148268
760.253	0.0148133
760.331	0.0148526
760.409	0.0149430
760.487	0.0148724
760.566	0.0148686
760.644	0.0148966
760.722	0.0148928
760.800	0.0148510
760.878	0.0148082
760.956	0.0148529
761.034	0.0148289
761.112	0.0148204
761.191	0.0149277
761.269	0.0148755
761.347	0.0147986
761.425	0.0148232
761.503	0.0148302
761.581	0.0147701
761.659	0.0147991
761.737	0.0148723
761.816	0.0148283
761.894	0.0149307
761.972	0.0149489
762.050	0.0147861
762.128	0.0148759
762.206	0.0149033
762.284	0.0148380
762.362	0.0147981
762.441	0.0149345
762.519	0.0149290
762.597	0.0148824
762.675	0.0147781
762.753	0.0147803
762.831	0.0148101
762.909	0.0148129
762.987	0.0149835
763.066	0.0148647
763.144	0.0149152
763.222	0.0149963
763.300	0.0148141
763.378	0.0148639
763.456	0.0150332
763.534	0.0149776
763.612	0.0149362
763.691	0.0149255
763.769	0.0149337
763.847	0.0148837
763.925	0.0149501
764.003	0.0147913
764.081	0.0148422
764.159	0.0149248
764.237	0.0149464
764.316	0.0148962
764.394	0.0149886
764.472	0.0149015
764.550	0.0148310
764.628	0.0149876
764.706	0.0147636
764.784	0.0148277
764.862	0.0150476
764.941	0.0148727
765.019	0.0148197
765.097	0.0148373
765.175	0.0146325
765.253	0.0148868
765.331	0.0148813
765.409	0.0149100
765.487	0.0148173
765.566	0.0149524
765.644	0.0148544
765.722	0.0148478
765.800	0.0148245
765.878	0.0147504
765.956	0.0147765
766.034	0.0149905
766.112	0.0147475
766.191	0.0148033
766.269	0.0148100
766.347	0.0148128
766.425	0.0147895
766.503	0.0147110
766.581	0.0148158
766.659	0.0147993
766.737	0.0147285
766.816	0.0147919
766.894	0.0149172
766.972	0.0147967
767.050	0.0148136
767.128	0.0149782
767.206	0.0148405
767.284	0.0148583
767.362	0.0146733
767.441	0.0146809
767.519	0.0147564
767.597	0.0147048
767.675	0.0148613
767.753	0.0148446
767.831	0.0147862
767.909	0.0147811
767.987	0.0147784
768.066	0.0148753
768.144	0.0147840
768.222	0.0148699
768.300	0.0148036
768.378	0.0148383
768.456	0.0149573
768.534	0.0149478
768.612	0.0146950
768.691	0.0147217
768.769	0.0148174
768.847	0.0147929
768.925	0.0147913
769.003	0.0148457
769.081	0.0149182
769.159	0.0148184
769.237	0.0148289
769.316	0.0147497
769.394	0.0148054
769.472	0.0148068
769.550	0.0148215
769.628	0.0148916
769.706	0.0148177
769.784	0.0148477
769.862	0.0146873
769.941	0.0148875
770.019	0.0149134
770.097	0.0149163
770.175	0.0147717
770.253	0.0147644
770.331	0.0148344
770.409	0.0149252
770.487	0.0147918
770.566	0.0148495
770.644	0.0149211
770.722	0.0148917
770.800	0.0148392
770.878	0.0147946
770.956	0.0146906
771.034	0.0148147
771.112	0.0148142
771.191	0.0148418
771.269	0.0148323
771.347	0.0149846
771.425	0.0147726
771.503	0.0147377
771.581	0.0147966
771.659	0.0148679
771.737	0.0149619
771.816	0.0148971
771.894	0.0147704
771.972	0.0148598
772.050	0.0149998
772.128	0.0148899
772.206	0.0147845
772.284	0.0148942
772.362	0.0148158
772.441	0.0148708
772.519	0.0147715
772.597	0.0148329
772.675	0.0147022
772.753	0.0149507
772.831	0.0149194
772.909	0.0146366
772.987	0.0148695
773.066	0.0148154
773.144	0.0149925
773.222	0.0148031
773.300	0.0147846
773.378	0.0149377
773.456	0.0147194
773.534	0.0148620
773.612	0.0148273
773.691	0.0148266
773.769	0.0150014
773.847	0.0148378
773.925	0.0148127
774.003	0.0148972
774.081	0.0149239
774.159	0.0147753
774.237	0.0148173
774.316	0.0148270
774.394	0.0146686
774.472	0.0146684
774.550	0.0148424
774.628	0.0147424
774.706	0.0147233
774.784	0.0148518
774.862	0.0147855
774.941	0.0147668
775.019	0.0148631
775.097	0.0147901
775.175	0.0147570
775.253	0.0148506
775.331	0.0148532
775.409	0.0148418
775.487	0.0147464
775.566	0.0148155
775.644	0.0148911
775.722	0.0148602
775.800	0.0148152
775.878	0.0147607
775.956	0.0149348
776.034	0.0148511
776.112	0.0148076
776.191	0.0148766
776.269	0.0147875
776.347	0.0148669
776.425	0.0148071
776.503	0.0148692
776.581	0.0147650
776.659	0.0149450
776.737	0.0149734
776.816	0.0148724
776.894	0.0148808
776.972	0.0147600
777.050	0.0148515
777.128	0.0148431
777.206	0.0148387
777.284	0.0148608
777.362	0.0146111
777.441	0.0149043
777.519	0.0148753
777.597	0.0148331
777.675	0.0147923
777.753	0.0147096
777.831	0.0148420
777.909	0.0149195
777.987	0.0148322
778.066	0.0148261
778.144	0.0148435
778.222	0.0148643
778.300	0.0147504
778.378	0.0147874
778.456	0.0149408
778.534	0.0148792
778.612	0.0148035
778.691	0.0147222
778.769	0.0147548
778.847	0.0148399
778.925	0.0148791
779.003	0.0148582
779.081	0.0148889
779.159	0.0147816
779.237	0.0148536
779.316	0.0148341
779.394	0.0147843
779.472	0.0147775
779.550	0.0147940
779.628	0.0146959
779.706	0.0148060
779.784	0.0149148
779.862	0.0147065
779.941	0.0147500
780.019	0.0148563
780.097	0.0148338
780.175	0.0147684
780.253	0.0147530
780.331	0.0147282
780.409	0.0148407
780.487	0.0148715
780.566	0.0147960
780.644	0.0147395
780.722	0.0147372
780.800	0.0149651
780.878	0.0149684
780.956	0.0148653
781.034	0.0148237
781.112	0.0148414
781.191	0.0148257
781.269	0.0147852
781.347	0.0147401
781.425	0.0147684
781.503	0.0148528
781.581	0.0148504
781.659	0.0149121
781.737	0.0148201
781.816	0.0148804
781.894	0.0148677
781.972	0.0148205
782.050	0.0149331
782.128	0.0148740
782.206	0.0149524
782.284	0.0149815
782.362	0.0148173
782.441	0.0149499
782.519	0.0148853
782.597	0.0148531
782.675	0.0148200
782.753	0.0148474
782.831	0.0147692
782.909	0.0148392
782.987	0.0148463
783.066	0.0147321
783.144	0.0147253
783.222	0.0147746
783.300	0.0148096
783.378	0.0148486
783.456	0.0148531
783.534	0.0148432
783.612	0.0149776
783.691	0.0148489
783.769	0.0147155
783.847	0.0148526
783.925	0.0148456
784.003	0.0148931
784.081	0.0147846
784.159	0.0148280
784.237	0.0147871
784.316	0.0148082
784.394	0.0147612
784.472	0.0149531
784.550	0.0147960
784.628	0.0149239
784.706	0.0148688
784.784	0.0148650
784.862	0.0148618
784.941	0.0147762
785.019	0.0149098
785.097	0.0149111
785.175	0.0147950
785.253	0.0148225
785.331	0.0147945
785.409	0.0148708
785.487	0.0149610
785.566	0.0149160
785.644	0.0148646
785.722	0.0148165
785.800	0.0148308
785.878	0.0148558
785.956	0.0147849
786.034	0.0149500
786.112	0.0148671
786.191	0.0148627
786.269	0.0148026
786.347	0.0149444
786.425	0.0149622
786.503	0.0148264
786.581	0.0148304
786.659	0.0147914
786.737	0.0148269
786.816	0.0148075
786.894	0.0149385
786.972	0.0148640
787.050	0.0149317
787.128	0.0149276
787.206	0.0149010
787.284	0.0149094
787.362	0.0149916
787.441	0.0148390
787.519	0.0147214
787.597	0.0148554
787.675	0.0149026
787.753	0.0149023
787.831	0.0149643
787.909	0.0148402
787.987	0.0149974
788.066	0.0148771
788.144	0.0148920
788.222	0.0149455
788.300	0.0148939
788.378	0.0149407
788.456	0.0148351
788.534	0.0148923
788.612	0.0149186
788.691	0.0149211
788.769	0.0150301
788.847	0.0149188
788.925	0.0150090
789.003	0.0148581
789.081	0.0147514
789.159	0.0149638
789.237	0.0149863
789.316	0.0149252
789.394	0.0148955
789.472	0.0149039
789.550	0.0147800
789.628	0.0147446
789.706	0.0149243
789.784	0.0149125
789.862	0.0148623
789.941	0.0149318
790.019	0.0150041
790.097	0.0149765
790.175	0.0149943
790.253	0.0148444
790.331	0.0148933
790.409	0.0148773
790.487	0.0149433
790.566	0.0150217
790.644	0.0147472
790.722	0.0148701
790.800	0.0147182
790.878	0.0148810
790.956	0.0150212
791.034	0.0148444
791.112	0.0148338
791.191	0.0148114
791.269	0.0149335
791.347	0.0147600
791.425	0.0149443
791.503	0.0149547
791.581	0.0149077
791.659	0.0149231
791.737	0.0147964
791.816	0.0147443
791.894	0.0149035
791.972	0.0148515
792.050	0.0149450
792.128	0.0147643
792.206	0.0149036
792.284	0.0148663
792.362	0.0148116
792.441	0.0147728
792.519	0.0147294
792.597	0.0148757
792.675	0.0146709
792.753	0.0147059
792.831	0.0146597
792.909	0.0148530
792.987	0.0148199
793.066	0.0146343
793.144	0.0148434
793.222	0.0148728
793.300	0.0147301
793.378	0.0145751
793.456	0.0147437
793.534	0.0147364
793.612	0.0147809
793.691	0.0148719
793.769	0.0147427
793.847	0.0147500
793.925	0.0148484
794.003	0.0148335
794.081	0.0149069
794.159	0.0149166
794.237	0.0149377
794.316	0.0149622
794.394	0.0148752
794.472	0.0148497
794.550	0.0148459
794.628	0.0148103
794.706	0.0149083
794.784	0.0148518
794.862	0.0148070
794.941	0.0148472
795.019	0.0148073
795.097	0.0148278
795.175	0.0149004
795.253	0.0147326
795.331	0.0147980
795.409	0.0147654
795.487	0.0147234
795.566	0.0146617
795.644	0.0148805
795.722	0.0148972
795.800	0.0147235
795.878	0.0147340
795.956	0.0148280
796.034	0.0148889
796.112	0.0148144
796.191	0.0149248
796.269	0.0148922
796.347	0.0148399
796.425	0.0148183
796.503	0.0147728
796.581	0.0147424
796.659	0.0148262
796.737	0.0150105
796.816	0.0149226
796.894	0.0147118
796.972	0.0148276
797.050	0.0149121
797.128	0.0149361
797.206	0.0148717
797.284	0.0148270
797.362	0.0148695
797.441	0.0148004
797.519	0.0148105
797.597	0.0147633
797.675	0.0148453
797.753	0.0148889
797.831	0.0149247
797.909	0.0148268
797.987	0.0146876
798.066	0.0149357
798.144	0.0148496
798.222	0.0148120
798.300	0.0147648
798.378	0.0147243
798.456	0.0148595
798.534	0.0148342
798.612	0.0148206
798.691	0.0149875
798.769	0.0147888
798.847	0.0148402
798.925	0.0146730
799.003	0.0148508
799.081	0.0149551
799.159	0.0148263
799.237	0.0149023
799.316	0.0148543
799.394	0.0148849
799.472	0.0147029
799.550	0.0149383
799.628	0.0148869
799.706	0.0147065
799.784	0.0148327
799.862	0.0150011
799.941	0.0147858
800.019	0.0148372
800.097	0.0149587
800.175	0.0147532
800.253	0.0147032
800.331	0.0147846
800.409	0.0149571
800.487	0.0148488
800.566	0.0147832
800.644	0.0149368
800.722	0.0147369
800.800	0.0148659
800.878	0.0147941
800.956	0.0148348
801.034	0.0148179
801.112	0.0147179
801.191	0.0148120
801.269	0.0148105
801.347	0.0147766
801.425	0.0147913
801.503	0.0148164
801.581	0.0147472
801.659	0.0148178
801.737	0.0147843
801.816	0.0147079
801.894	0.0148889
801.972	0.0148483
802.050	0.0148342
802.128	0.0148563
802.206	0.0148907
802.284	0.0148456
802.362	0.0147977
802.441	0.0147594
802.519	0.0147836
802.597	0.0148169
802.675	0.0148882
802.753	0.0147855
802.831	0.0147610
802.909	0.0149087
802.987	0.0147572
803.066	0.0148073
803.144	0.0147581
803.222	0.0148814
803.300	0.0148839
803.378	0.0148688
803.456	0.0147514
803.534	0.0148371
803.612	0.0148666
803.691	0.0149256
803.769	0.0148164
803.847	0.0147404
803.925	0.0147086
804.003	0.0149323
804.081	0.0149131
804.159	0.0148212
804.237	0.0148705
804.316	0.0149021
804.394	0.0147573
804.472	0.0148759
804.550	0.0148265
804.628	0.0147929
804.706	0.0148808
804.784	0.0148730
804.862	0.0147047
804.941	0.0147240
805.019	0.0148682
805.097	0.0148725
805.175	0.0146885
805.253	0.0149011
805.331	0.0148994
805.409	0.0150071
805.487	0.0149153
805.566	0.0147812
805.644	0.0148401
805.722	0.0148425
805.800	0.0148764
805.878	0.0148676
805.956	0.0147830
806.034	0.0148595
806.112	0.0148674
806.191	0.0149773
806.269	0.0149462
806.347	0.0147905
806.425	0.0147195
806.503	0.0148569
806.581	0.0148812
806.659	0.0148602
806.737	0.0148504
806.816	0.0148882
806.894	0.0148741
806.972	0.0148011
807.050	0.0149636
807.128	0.0148701
807.206	0.0148523
807.284	0.0149421
807.362	0.0149903
807.441	0.0148872
807.519	0.0149380
807.597	0.0148862
807.675	0.0148642
807.753	0.0149390
807.831	0.0147691
807.909	0.0148522
807.987	0.0148743
808.066	0.0149604
808.144	0.0148198
808.222	0.0148199
808.300	0.0148325
808.378	0.0148308
808.456	0.0148012
808.534	0.0148337
808.612	0.0147903
808.691	0.0150031
808.769	0.0149345
808.847	0.0148190
808.925	0.0147308
809.003	0.0147373
809.081	0.0149001
809.159	0.0149852
809.237	0.0148898
809.316	0.0148268
809.394	0.0147401
809.472	0.0149409
809.550	0.0149957
809.628	0.0147373
809.706	0.0150065
809.784	0.0149063
809.862	0.0149113
809.941	0.0148250
810.019	0.0147967
810.097	0.0148827
810.175	0.0148522
810.253	0.0147781
810.331	0.0147208
810.409	0.0147577
810.487	0.0149348
810.566	0.0148581
810.644	0.0148588
810.722	0.0148846
810.800	0.0148483
810.878	0.0149543
810.956	0.0149881
811.034	0.0147912
811.112	0.0148078
811.191	0.0148363
811.269	0.0149189
811.347	0.0148080
811.425	0.0149893
811.503	0.0148569
811.581	0.0148808
811.659	0.0147294
811.737	0.0148972
811.816	0.0149284
811.894	0.0148291
811.972	0.0147926
812.050	0.0149142
812.128	0.0150029
812.206	0.0147990
812.284	0.0148181
812.362	0.0149059
812.441	0.0148590
812.519	0.0149341
812.597	0.0149205
812.675	0.0149406
812.753	0.0148264
812.831	0.0148366
812.909	0.0149689
812.987	0.0149118
813.066	0.0148339
813.144	0.0148898
813.222	0.0149787
813.300	0.0148895
813.378	0.0148822
813.456	0.0148559
813.534	0.0148690
813.612	0.0149173
813.691	0.0149125
813.769	0.0148354
813.847	0.0149924
813.925	0.0149967
814.003	0.0148683
814.081	0.0149492
814.159	0.0149425
814.237	0.0149512
814.316	0.0148741
814.394	0.0147763
814.472	0.0148412
814.550	0.0148679
814.628	0.0148930
814.706	0.0148154
814.784	0.0149270
814.862	0.0150410
814.941	0.0149043
815.019	0.0149758
815.097	0.0148766
815.175	0.0148976
815.253	0.0148821
815.331	0.0147829
815.409	0.0149171
815.487	0.0150423
815.566	0.0147978
815.644	0.0147868
815.722	0.0148254
815.800	0.0148856
815.878	0.0149577
815.956	0.0148602
816.034	0.0147746
816.112	0.0146611
816.191	0.0148852
816.269	0.0149024
816.347	0.0149059
816.425	0.0147774
816.503	0.0148161
816.581	0.0149348
816.659	0.0148203
816.737	0.0149230
816.816	0.0149789
816.894	0.0148956
816.972	0.0148830
817.050	0.0149619
817.128	0.0149359
817.206	0.0147470
817.284	0.0148900
817.362	0.0149303
817.441	0.0148951
817.519	0.0149722
817.597	0.0147929
817.675	0.0149622
817.753	0.0149205
817.831	0.0147910
817.909	0.0149587
817.987	0.0147289
818.066	0.0148694
818.144	0.0148069
818.222	0.0148238
818.300	0.0149589
818.378	0.0148898
818.456	0.0148206
818.534	0.0148808
818.612	0.0147539
818.691	0.0147964
818.769	0.0148700
818.847	0.0146665
818.925	0.0148136
819.003	0.0148196
819.081	0.0148883
819.159	0.0147408
819.237	0.0147493
819.316	0.0148266
819.394	0.0147602
819.472	0.0146759
819.550	0.0148679
819.628	0.0147978
819.706	0.0146825
819.784	0.0149667
819.862	0.0147716
819.941	0.0147569
820.019	0.0147475
820.097	0.0148485
820.175	0.0147737
820.253	0.0150015
820.331	0.0150022
820.409	0.0150047
820.487	0.0148252
820.566	0.0148211
820.644	0.0149617
820.722	0.0148769
820.800	0.0148792
820.878	0.0149104
820.956	0.0150614
821.034	0.0148989
821.112	0.0148954
821.191	0.0149676
821.269	0.0148816
821.347	0.0148404
821.425	0.0147895
821.503	0.0148897
821.581	0.0148095
821.659	0.0148615
821.737	0.0148090
821.816	0.0147864
821.894	0.0148501
821.972	0.0148012
822.050	0.0147694
822.128	0.0148410
822.206	0.0148131
822.284	0.0149111
822.362	0.0148607
822.441	0.0147044
822.519	0.0148048
822.597	0.0147940
822.675	0.0148386
822.753	0.0146477
822.831	0.0148365
822.909	0.0147939
822.987	0.0148338
823.066	0.0147252
823.144	0.0148186
823.222	0.0147429
823.300	0.0146591
823.378	0.0147537
823.456	0.0147447
823.534	0.0148160
823.612	0.0147461
823.691	0.0147631
823.769	0.0147033
823.847	0.0148453
823.925	0.0148660
824.003	0.0148430
824.081	0.0147916
824.159	0.0148042
824.237	0.0149531
824.316	0.0148795
824.394	0.0147730
824.472	0.0148230
824.550	0.0148338
824.628	0.0149346
824.706	0.0147316
824.784	0.0146925
824.862	0.0147598
824.941	0.0147645
825.019	0.0147878
825.097	0.0148763
825.175	0.0147527
825.253	0.0147748
825.331	0.0148245
825.409	0.0149678
825.487	0.0148157
825.566	0.0147970
825.644	0.0149400
825.722	0.0148808
825.800	0.0148991
825.878	0.0148740
825.956	0.0147788
826.034	0.0148115
826.112	0.0148624
826.191	0.0148431
826.269	0.0148725
826.347	0.0147662
826.425	0.0149100
826.503	0.0148309
826.581	0.0149084
826.659	0.0148224
826.737	0.0148595
826.816	0.0148722
826.894	0.0147421
826.972	0.0148972
827.050	0.0147237
827.128	0.0148923
827.206	0.0148195
827.284	0.0149800
827.362	0.0149182
827.441	0.0147479
827.519	0.0148789
827.597	0.0148693
827.675	0.0148241
827.753	0.0146854
827.831	0.0147448
827.909	0.0148721
827.987	0.0148678
828.066	0.0147995
828.144	0.0147613
828.222	0.0147404
828.300	0.0147060
828.378	0.0147820
828.456	0.0148119
828.534	0.0149722
828.612	0.0148746
828.691	0.0148846
828.769	0.0148418
828.847	0.0147372
828.925	0.0147291
829.003	0.0148822
829.081	0.0147020
829.159	0.0148920
829.237	0.0149770
829.316	0.0147851
829.394	0.0148690
829.472	0.0147509
829.550	0.0147931
829.628	0.0147314
829.706	0.0147681
829.784	0.0148421
829.862	0.0149377
829.941	0.0147665
830.019	0.0146984
830.097	0.0148059
830.175	0.0148652
830.253	0.0147548
830.331	0.0148333
830.409	0.0148126
830.487	0.0146770
830.566	0.0149099
830.644	0.0148856
830.722	0.0148621
830.800	0.0149770
830.878	0.0148969
830.956	0.0148779
831.034	0.0149951
831.112	0.0149054
831.191	0.0148869
831.269	0.0147333
831.347	0.0148870
831.425	0.0148183
831.503	0.0148812
831.581	0.0148344
831.659	0.0149817
831.737	0.0149439
831.816	0.0148053
831.894	0.0149003
831.972	0.0148512
832.050	0.0148878
832.128	0.0149178
832.206	0.0148477
832.284	0.0149235
832.362	0.0147736
832.441	0.0148116
832.519	0.0148444
832.597	0.0148313
832.675	0.0148129
832.753	0.0148322
832.831	0.0147662
832.909	0.0149324
832.987	0.0149084
833.066	0.0148176
833.144	0.0148591
833.222	0.0148866
833.300	0.0147833
833.378	0.0149475
833.456	0.0149010
833.534	0.0149280
833.612	0.0149810
833.691	0.0148026
833.769	0.0147650
833.847	0.0148524
833.925	0.0148382
834.003	0.0149201
834.081	0.0148283
834.159	0.0147622
834.237	0.0148116
834.316	0.0148454
834.394	0.0149422
834.472	0.0148563
834.550	0.0148856
834.628	0.0148728
834.706	0.0147829
834.784	0.0147464
834.862	0.0147927
834.941	0.0147983
835.019	0.0148459
835.097	0.0149389
835.175	0.0148093
835.253	0.0147736
835.331	0.0149015
835.409	0.0149358
835.487	0.0147161
835.566	0.0148618
835.644	0.0147865
835.722	0.0148141
835.800	0.0147021
835.878	0.0148039
835.956	0.0147720
836.034	0.0147987
836.112	0.0147794
836.191	0.0147500
836.269	0.0149162
836.347	0.0149255
836.425	0.0148381
836.503	0.0147277
836.581	0.0146555
836.659	0.0147869
836.737	0.0149465
836.816	0.0148354
836.894	0.0148211
836.972	0.0148579
837.050	0.0148564
837.128	0.0148778
837.206	0.0148871
837.284	0.0148808
837.362	0.0149726
837.441	0.0148543
837.519	0.0147810
837.597	0.0148724
837.675	0.0148364
837.753	0.0148898
837.831	0.0148639
837.909	0.0149090
837.987	0.0148143
838.066	0.0149499
838.144	0.0150694
838.222	0.0148534
838.300	0.0150371
838.378	0.0148285
838.456	0.0148784
838.534	0.0149870
838.612	0.0150981
838.691	0.0150079
838.769	0.0148792
838.847	0.0149344
838.925	0.0149079
839.003	0.0148799
839.081	0.0150336
839.159	0.0149222
839.237	0.0148467
839.316	0.0148909
839.394	0.0149142
839.472	0.0149281
839.550	0.0149212
839.628	0.0148935
839.706	0.0147826
839.784	0.0148352
839.862	0.0148642
839.941	0.0149594
840.019	0.0148889
840.097	0.0148404
840.175	0.0148978
840.253	0.0148835
840.331	0.0148554
840.409	0.0147701
840.487	0.0149673
840.566	0.0148978
840.644	0.0148517
840.722	0.0149144
840.800	0.0147985
840.878	0.0148969
840.956	0.0148320
841.034	0.0149400
841.112	0.0148551
841.191	0.0148244
841.269	0.0148472
841.347	0.0147854
841.425	0.0147171
841.503	0.0148476
841.581	0.0148636
841.659	0.0148174
841.737	0.0148621
841.816	0.0147542
841.894	0.0148388
841.972	0.0147418
842.050	0.0148577
842.128	0.0147836
842.206	0.0148817
842.284	0.0149271
842.362	0.0149325
842.441	0.0146862
842.519	0.0146484
842.597	0.0148360
842.675	0.0148196
842.753	0.0148043
842.831	0.0149302
842.909	0.0148131
842.987	0.0147995
843.066	0.0148090
843.144	0.0149280
843.222	0.0148428
843.300	0.0147939
843.378	0.0147128
843.456	0.0148367
843.534	0.0148016
843.612	0.0148437
843.691	0.0147587
843.769	0.0146845
843.847	0.0148659
843.925	0.0147984
844.003	0.0147865
844.081	0.0147980
844.159	0.0148202
844.237	0.0148575
844.316	0.0147692
844.394	0.0148476
844.472	0.0147694
844.550	0.0148629
844.628	0.0147489
844.706	0.0146593
844.784	0.0147816
844.862	0.0148459
844.941	0.0148276
845.019	0.0147955
845.097	0.0148547
845.175	0.0149072
845.253	0.0146910
845.331	0.0146923
845.409	0.0148998
845.487	0.0148083
845.566	0.0147851
845.644	0.0148265
845.722	0.0146882
845.800	0.0149061
845.878	0.0148203
845.956	0.0147729
846.034	0.0147704
846.112	0.0147763
846.191	0.0149392
846.269	0.0148009
846.347	0.0146258
846.425	0.0148460
846.503	0.0148549
846.581	0.0148852
846.659	0.0149757
846.737	0.0148657
846.816	0.0148341
846.894	0.0149307
846.972	0.0149001
847.050	0.0148389
847.128	0.0149192
847.206	0.0147880
847.284	0.0149477
847.362	0.0148090
847.441	0.0149170
847.519	0.0148158
847.597	0.0148232
847.675	0.0149615
847.753	0.0149596
847.831	0.0149459
847.909	0.0148366
847.987	0.0147968
848.066	0.0148244
848.144	0.0149216
848.222	0.0148448
848.300	0.0148260
848.378	0.0148518
848.456	0.0148112
848.534	0.0147761
848.612	0.0148164
848.691	0.0148112
848.769	0.0148043
848.847	0.0148504
848.925	0.0147859
849.003	0.0149102
849.081	0.0149595
849.159	0.0148741
849.237	0.0148373
849.316	0.0148680
849.394	0.0148573
849.472	0.0146157
849.550	0.0147684
849.628	0.0148991
849.706	0.0147798
849.784	0.0147352
849.862	0.0148077
849.941	0.0147969
850.019	0.0148814
850.097	0.0149277
850.175	0.0149530
850.253	0.0148582
850.331	0.0148737
850.409	0.0148206
850.487	0.0148494
850.566	0.0149584
850.644	0.0148087
850.722	0.0146913
850.800	0.0148660
850.878	0.0147556
850.956	0.0149226
851.034	0.0150729
851.112	0.0147668
851.191	0.0147668
851.269	0.0149103
851.347	0.0148341
851.425	0.0147572
851.503	0.0146546
851.581	0.0149605
851.659	0.0149114
851.737	0.0147506
851.816	0.0149232
851.894	0.0150158
851.972	0.0148141
852.050	0.0148557
852.128	0.0148730
852.206	0.0148556
852.284	0.0148767
852.362	0.0149905
852.441	0.0148879
852.519	0.0148516
852.597	0.0149397
852.675	0.0147858
852.753	0.0148016
852.831	0.0149229
852.909	0.0149828
852.987	0.0149038
853.066	0.0148500
853.144	0.0149742
853.222	0.0148578
853.300	0.0148925
853.378	0.0148717
853.456	0.0148608
853.534	0.0148181
853.612	0.0150292
853.691	0.0148837
853.769	0.0149243
853.847	0.0148067
853.925	0.0147061
854.003	0.0149274
854.081	0.0147314
854.159	0.0146128
854.237	0.0148456
854.316	0.0148000
854.394	0.0146098
854.472	0.0149165
854.550	0.0149134
854.628	0.0146774
854.706	0.0146758
854.784	0.0147408
854.862	0.0148501
854.941	0.0149330
855.019	0.0148765
855.097	0.0146972
855.175	0.0147385
855.253	0.0147787
855.331	0.0148289
855.409	0.0149676
855.487	0.0147480
855.566	0.0147320
855.644	0.0148119
855.722	0.0147371
855.800	0.0148269
855.878	0.0148265
855.956	0.0148865
856.034	0.0148665
856.112	0.0148112
856.191	0.0148669
856.269	0.0148265
856.347	0.0148222
856.425	0.0150172
856.503	0.0148730
856.581	0.0147721
856.659	0.0149133
856.737	0.0148782
856.816	0.0148925
856.894	0.0149718
856.972	0.0148383
857.050	0.0149986
857.128	0.0149640
857.206	0.0148779
857.284	0.0148006
857.362	0.0150014
857.441	0.0148793
857.519	0.0149008
857.597	0.0150478
857.675	0.0149525
857.753	0.0149487
857.831	0.0148500
857.909	0.0148011
857.987	0.0149485
858.066	0.0148679
858.144	0.0147888
858.222	0.0148553
858.300	0.0149119
858.378	0.0148567
858.456	0.0149802
858.534	0.0149497
858.612	0.0148591
858.691	0.0147713
858.769	0.0148792
858.847	0.0149580
858.925	0.0148594
859.003	0.0149563
859.081	0.0150599
859.159	0.0149515
859.237	0.0148862
859.316	0.0149486
859.394	0.0150247
859.472	0.0150058
859.550	0.0148848
859.628	0.0148528
859.706	0.0149152
859.784	0.0150022
859.862	0.0149530
859.941	0.0149471
860.019	0.0148387
860.097	0.0148624
860.175	0.0149277
860.253	0.0149411
860.331	0.0150928
860.409	0.0148706
860.487	0.0149349
860.566	0.0149528
860.644	0.0148794
860.722	0.0148902
860.800	0.0148431
860.878	0.0147675
860.956	0.0149860
861.034	0.0150071
861.112	0.0148644
861.191	0.0148314
861.269	0.0150089
861.347	0.0148165
861.425	0.0148442
861.503	0.0148647
861.581	0.0148836
861.659	0.0148392
861.737	0.0148833
861.816	0.0149187
861.894	0.0149049
861.972	0.0149088
862.050	0.0150057
862.128	0.0149091
862.206	0.0148061
862.284	0.0148444
862.362	0.0148279
862.441	0.0148819
862.519	0.0149403
862.597	0.0148636
862.675	0.0147118
862.753	0.0149277
862.831	0.0149673
862.909	0.0149094
862.987	0.0148050
863.066	0.0149256
863.144	0.0149126
863.222	0.0147563
863.300	0.0148520
863.378	0.0148465
863.456	0.0148620
863.534	0.0149521
863.612	0.0147816
863.691	0.0147021
863.769	0.0148895
863.847	0.0147652
863.925	0.0149139
864.003	0.0149105
864.081	0.0148304
864.159	0.0148087
864.237	0.0147931
864.316	0.0147018
864.394	0.0147746
864.472	0.0148045
864.550	0.0149644
864.628	0.0148518
864.706	0.0147498
864.784	0.0147930
864.862	0.0147590
864.941	0.0147956
865.019	0.0148199
865.097	0.0148729
865.175	0.0147932
865.253	0.0147613
865.331	0.0149106
865.409	0.0148665
865.487	0.0148762
865.566	0.0146790
865.644	0.0147216
865.722	0.0147800
865.800	0.0147221
865.878	0.0149164
865.956	0.0149288
866.034	0.0146935
866.112	0.0148833
866.191	0.0147569
866.269	0.0147548
866.347	0.0147466
866.425	0.0148233
866.503	0.0147454
866.581	0.0148781
866.659	0.0148971
866.737	0.0148407
866.816	0.0148875
866.894	0.0149634
866.972	0.0149534
867.050	0.0147230
867.128	0.0147813
867.206	0.0147950
867.284	0.0148779
867.362	0.0148979
867.441	0.0146202
867.519	0.0147109
867.597	0.0148448
867.675	0.0148029
867.753	0.0147617
867.831	0.0148333
867.909	0.0148889
867.987	0.0148031
868.066	0.0147885
868.144	0.0148198
868.222	0.0150859
868.300	0.0148225
868.378	0.0146390
868.456	0.0147068
868.534	0.0147894
868.612	0.0148046
868.691	0.0148773
868.769	0.0147556
868.847	0.0147802
868.925	0.0148107
869.003	0.0147622
869.081	0.0148524
869.159	0.0148112
869.237	0.0148669
869.316	0.0149079
869.394	0.0148241
869.472	0.0146782
869.550	0.0149214
869.628	0.0147050
869.706	0.0148061
869.784	0.0147694
869.862	0.0148856
869.941	0.0147504
870.019	0.0147845
870.097	0.0147762
870.175	0.0147402
870.253	0.0146979
870.331	0.0147135
870.409	0.0147570
870.487	0.0147785
870.566	0.0146909
870.644	0.0147365
870.722	0.0148881
870.800	0.0147005
870.878	0.0147552
870.956	0.0147482
871.034	0.0148267
871.112	0.0147984
871.191	0.0148113
871.269	0.0148295
871.347	0.0147800
871.425	0.0147510
871.503	0.0148605
871.581	0.0148269
871.659	0.0149982
871.737	0.0148067
871.816	0.0147414
871.894	0.0148817
871.972	0.0149889
872.050	0.0147326
872.128	0.0147105
872.206	0.0149732
872.284	0.0149449
872.362	0.0147868
872.441	0.0147722
872.519	0.0147360
872.597	0.0147652
872.675	0.0148607
872.753	0.0148604
872.831	0.0148914
872.909	0.0147638
872.987	0.0148672
873.066	0.0148688
873.144	0.0149353
873.222	0.0146837
873.300	0.0147328
873.378	0.0150485
873.456	0.0149586
873.534	0.0149442
873.612	0.0149139
873.691	0.0148217
873.769	0.0149387
873.847	0.0149023
873.925	0.0148672
874.003	0.0147089
874.081	0.0147205
874.159	0.0149180
874.237	0.0148772
874.316	0.0148072
874.394	0.0147897
874.472	0.0147306
874.550	0.0147996
874.628	0.0148937
874.706	0.0147731
874.784	0.0147614
874.862	0.0148201
874.941	0.0148692
875.019	0.0149473
875.097	0.0147417
875.175	0.0147739
875.253	0.0147878
875.331	0.0150263
875.409	0.0150176
875.487	0.0148624
875.566	0.0149184
875.644	0.0147900
875.722	0.0150021
875.800	0.0148877
875.878	0.0148927
875.956	0.0148274
876.034	0.0148674
876.112	0.0149236
876.191	0.0147660
876.269	0.0147998
876.347	0.0149992
876.425	0.0149854
876.503	0.0148791
876.581	0.0147829
876.659	0.0150027
876.737	0.0148868
876.816	0.0148811
876.894	0.0148196
876.972	0.0150207
877.050	0.0147674
877.128	0.0147198
877.206	0.0147116
877.284	0.0147806
877.362	0.0148075
877.441	0.0148328
877.519	0.0147905
877.597	0.0150309
877.675	0.0149278
877.753	0.0149158
877.831	0.0149275
877.909	0.0148893
877.987	0.0147916
878.066	0.0149132
878.144	0.0149442
878.222	0.0150785
878.300	0.0147577
878.378	0.0149313
878.456	0.0147980
878.534	0.0148025
878.612	0.0149535
878.691	0.0148767
878.769	0.0148593
878.847	0.0148978
878.925	0.0147923
879.003	0.0147829
879.081	0.0147975
879.159	0.0147715
879.237	0.0149377
879.316	0.0147908
879.394	0.0147289
879.472	0.0149006
879.550	0.0147877
879.628	0.0147121
879.706	0.0148389
879.784	0.0148580
879.862	0.0148650
879.941	0.0149007
880.019	0.0147794
880.097	0.0148433
880.175	0.0148242
880.253	0.0149371
880.331	0.0148242
880.409	0.0147421
880.487	0.0149754
880.566	0.0148399
880.644	0.0147408
880.722	0.0149567
880.800	0.0148042
880.878	0.0149883
880.956	0.0148853
881.034	0.0148151
881.112	0.0148774
881.191	0.0148609
881.269	0.0148327
881.347	0.0148588
881.425	0.0148031
881.503	0.0148505
881.581	0.0149031
881.659	0.0149577
881.737	0.0149631
881.816	0.0148973
881.894	0.0149707
881.972	0.0149478
882.050	0.0149078
882.128	0.0150160
882.206	0.0149345
882.284	0.0150296
882.362	0.0149796
882.441	0.0150147
882.519	0.0149304
882.597	0.0148519
882.675	0.0149776
882.753	0.0149799
882.831	0.0149031
882.909	0.0149059
882.987	0.0150333
883.066	0.0150539
883.144	0.0147656
883.222	0.0148158
883.300	0.0149478
883.378	0.0148781
883.456	0.0149179
883.534	0.0148064
883.612	0.0147683
883.691	0.0149111
883.769	0.0148235
883.847	0.0148204
883.925	0.0149056
884.003	0.0148161
884.081	0.0149632
884.159	0.0148554
884.237	0.0148426
884.316	0.0150251
884.394	0.0148194
884.472	0.0149054
884.550	0.0148019
884.628	0.0149567
884.706	0.0149140
884.784	0.0148147
884.862	0.0148993
884.941	0.0148796
885.019	0.0148203
885.097	0.0149438
885.175	0.0148590
885.253	0.0146876
885.331	0.0147275
885.409	0.0149677
885.487	0.0149638
885.566	0.0150030
885.644	0.0147981
885.722	0.0148957
885.800	0.0148288
885.878	0.0148509
885.956	0.0148109
886.034	0.0147697
886.112	0.0149035
886.191	0.0150046
886.269	0.0147557
886.347	0.0148079
886.425	0.0148398
886.503	0.0150813
886.581	0.0149775
886.659	0.0148154
886.737	0.0148149
886.816	0.0147741
886.894	0.0149084
886.972	0.0149742
887.050	0.0149809
887.128	0.0148274
887.206	0.0149532
887.284	0.0148708
887.362	0.0148087
887.441	0.0147714
887.519	0.0149049
887.597	0.0149573
887.675	0.0149358
887.753	0.0146801
887.831	0.0149554
887.909	0.0148605
887.987	0.0147734
888.066	0.0147398
888.144	0.0150977
888.222	0.0148619
888.300	0.0147272
888.378	0.0147203
888.456	0.0147694
888.534	0.0148384
888.612	0.0149149
888.691	0.0148174
888.769	0.0148949
888.847	0.0149399
888.925	0.0148446
889.003	0.0149139
889.081	0.0149183
889.159	0.0149453
889.237	0.0148363
889.316	0.0148900
889.394	0.0148737
889.472	0.0149765
889.550	0.0149220
889.628	0.0149744
889.706	0.0149223
889.784	0.0147237
889.862	0.0149351
889.941	0.0149295
890.019	0.0149651
890.097	0.0148089
890.175	0.0148812
890.253	0.0149277
890.331	0.0149967
890.409	0.0149422
890.487	0.0149752
890.566	0.0149258
890.644	0.0149140
890.722	0.0149722
890.800	0.0148724
890.878	0.0148386
890.956	0.0149128
891.034	0.0149939
891.112	0.0149433
891.191	0.0149530
891.269	0.0149164
891.347	0.0148943
891.425	0.0149172
891.503	0.0148948
891.581	0.0148738
891.659	0.0149870
891.737	0.0149645
891.816	0.0150246
891.894	0.0148996
891.972	0.0149726
892.050	0.0148356
892.128	0.0148771
892.206	0.0149573
892.284	0.0148703
892.362	0.0149280
892.441	0.0149978
892.519	0.0151021
892.597	0.0150273
892.675	0.0148877
892.753	0.0148550
892.831	0.0149352
892.909	0.0148741
892.987	0.0148323
893.066	0.0148642
893.144	0.0147516
893.222	0.0147881
893.300	0.0149105
893.378	0.0148812
893.456	0.0147431
893.534	0.0147082
893.612	0.0149227
893.691	0.0147965
893.769	0.0147266
893.847	0.0149515
893.925	0.0150162
894.003	0.0149478
894.081	0.0148514
894.159	0.0146635
894.237	0.0149218
894.316	0.0148875
894.394	0.0148326
894.472	0.0147785
894.550	0.0147976
894.628	0.0148836
894.706	0.0148358
894.784	0.0150089
894.862	0.0148956
894.941	0.0146772
895.019	0.0147961
895.097	0.0149429
895.175	0.0149638
895.253	0.0149710
895.331	0.0149504
895.409	0.0147726
895.487	0.0147717
895.566	0.0148118
895.644	0.0148520
895.722	0.0149160
895.800	0.0147607
895.878	0.0148218
895.956	0.0146860
896.034	0.0148592
896.112	0.0148842
896.191	0.0147385
896.269	0.0147715
896.347	0.0148422
896.425	0.0147952
896.503	0.0146998
896.581	0.0147543
896.659	0.0148219
896.737	0.0147639
896.816	0.0148594
896.894	0.0147910
896.972	0.0147376
897.050	0.0147645
897.128	0.0147546
897.206	0.0146574
897.284	0.0148392
897.362	0.0148398
897.441	0.0147962
897.519	0.0147849
897.597	0.0148299
897.675	0.0148096
897.753	0.0147089
897.831	0.0147964
897.909	0.0148341
897.987	0.0148576
898.066	0.0148507
898.144	0.0148628
898.222	0.0147701
898.300	0.0147751
898.378	0.0147413
898.456	0.0149149
898.534	0.0146913
898.612	0.0149348
898.691	0.0149989
898.769	0.0147786
898.847	0.0147436
898.925	0.0148264
899.003	0.0149541
899.081	0.0147964
899.159	0.0148100
899.237	0.0147652
899.316	0.0148280
899.394	0.0148406
899.472	0.0147569
899.550	0.0147184
899.628	0.0147699
899.706	0.0147269
899.784	0.0149162
899.862	0.0147766
899.941	0.0147939
900.019	0.0148232
900.097	0.0147764
900.175	0.0147681
900.253	0.0147929
900.331	0.0146944
900.409	0.0149056
900.487	0.0148435
900.566	0.0147903
900.644	0.0150068
900.722	0.0148048
900.800	0.0149907
900.878	0.0148819
900.956	0.0148782
901.034	0.0148235
901.112	0.0148493
901.191	0.0149481
901.269	0.0147693
901.347	0.0147317
901.425	0.0148450
901.503	0.0148291
901.581	0.0149474
901.659	0.0148670
901.737	0.0148428
901.816	0.0147816
901.894	0.0150090
901.972	0.0148964
902.050	0.0148644
902.128	0.0148103
902.206	0.0150214
902.284	0.0148475
902.362	0.0150111
902.441	0.0148951
902.519	0.0148013
902.597	0.0148633
902.675	0.0149153
902.753	0.0148846
902.831	0.0149216
902.909	0.0149255
902.987	0.0147231
903.066	0.0148174
903.144	0.0148725
903.222	0.0149712
903.300	0.0149130
903.378	0.0149259
903.456	0.0149336
903.534	0.0149731
903.612	0.0149397
903.691	0.0148425
903.769	0.0148811
903.847	0.0148109
903.925	0.0149574
904.003	0.0149428
904.081	0.0149776
904.159	0.0149068
904.237	0.0147903
904.316	0.0147919
904.394	0.0148772
904.472	0.0149043
904.550	0.0147340
904.628	0.0149454
904.706	0.0150249
904.784	0.0149063
904.862	0.0147944
904.941	0.0148309
905.019	0.0149368
905.097	0.0149235
905.175	0.0148803
905.253	0.0148896
905.331	0.0148945
905.409	0.0149271
905.487	0.0148117
905.566	0.0149556
905.644	0.0147999
905.722	0.0149365
905.800	0.0148658
905.878	0.0148462
905.956	0.0149184
906.034	0.0148234
906.112	0.0147192
906.191	0.0149388
906.269	0.0147999
906.347	0.0147893
906.425	0.0148492
906.503	0.0148685
906.581	0.0149030
906.659	0.0147820
906.737	0.0148187
906.816	0.0147926
906.894	0.0148724
906.972	0.0147791
907.050	0.0150175
907.128	0.0148512
907.206	0.0146875
907.284	0.0147918
907.362	0.0147681
907.441	0.0149268
907.519	0.0149654
907.597	0.0150328
907.675	0.0147306
907.753	0.0148961
907.831	0.0148382
907.909	0.0149803
907.987	0.0149140
908.066	0.0146716
908.144	0.0148114
908.222	0.0147646
908.300	0.0148755
908.378	0.0146665
908.456	0.0148158
908.534	0.0148857
908.612	0.0149171
908.691	0.0149661
908.769	0.0149173
908.847	0.0147665
908.925	0.0148186
909.003	0.0147112
909.081	0.0149333
909.159	0.0148192
909.237	0.0148411
909.316	0.0150086
909.394	0.0147816
909.472	0.0148881
909.550	0.0147451
909.628	0.0147543
909.706	0.0148228
909.784	0.0147688
909.862	0.0148299
909.941	0.0147861
910.019	0.0148151
910.097	0.0147704
910.175	0.0148987
910.253	0.0148678
910.331	0.0149440
910.409	0.0147913
910.487	0.0147375
910.566	0.0148489
910.644	0.0147858
910.722	0.0149725
910.800	0.0149968
910.878	0.0146653
910.956	0.0147414
911.034	0.0149149
911.112	0.0148413
911.191	0.0148264
911.269	0.0149489
911.347	0.0149407
911.425	0.0148459
911.503	0.0149712
911.581	0.0148590
911.659	0.0148024
911.737	0.0149081
911.816	0.0148894
911.894	0.0149815
911.972	0.0148852
912.050	0.0149745
912.128	0.0149310
912.206	0.0147932
912.284	0.0150046
912.362	0.0148433
912.441	0.0148450
912.519	0.0148772
912.597	0.0146413
912.675	0.0148817
912.753	0.0148005
912.831	0.0147398
912.909	0.0149081
912.987	0.0148414
913.066	0.0148903
913.144	0.0149596
913.222	0.0149037
913.300	0.0148345
913.378	0.0150101
913.456	0.0149461
913.534	0.0149986
913.612	0.0149475
913.691	0.0148032
913.769	0.0149397
913.847	0.0147606
913.925	0.0146787
914.003	0.0148076
914.081	0.0148100
914.159	0.0146967
914.237	0.0148063
914.316	0.0147456
914.394	0.0147916
914.472	0.0148224
914.550	0.0148560
914.628	0.0149108
914.706	0.0147685
914.784	0.0146914
914.862	0.0149250
914.941	0.0148598
915.019	0.0147625
915.097	0.0148087
915.175	0.0148591
915.253	0.0148801
915.331	0.0148112
915.409	0.0147837
915.487	0.0149803
915.566	0.0148858
915.644	0.0149158
915.722	0.0148124
915.800	0.0149112
915.878	0.0148418
915.956	0.0149449
916.034	0.0149642
916.112	0.0148657
916.191	0.0149085
916.269	0.0148804
916.347	0.0148674
916.425	0.0148733
916.503	0.0147932
916.581	0.0148183
916.659	0.0149020
916.737	0.0148653
916.816	0.0148486
916.894	0.0150143
916.972	0.0149726
917.050	0.0148247
917.128	0.0148437
917.206	0.0148651
917.284	0.0147085
917.362	0.0148182
917.441	0.0148445
917.519	0.0147828
917.597	0.0149007
917.675	0.0146503
917.753	0.0148772
917.831	0.0147493
917.909	0.0147628
917.987	0.0148856
918.066	0.0149314
918.144	0.0148226
918.222	0.0148415
918.300	0.0147753
918.378	0.0148189
918.456	0.0148448
918.534	0.0148294
918.612	0.0147607
918.691	0.0147860
918.769	0.0147726
918.847	0.0147661
918.925	0.0148361
919.003	0.0146418
919.081	0.0147630
919.159	0.0146170
919.237	0.0147410
919.316	0.0147776
919.394	0.0147116
919.472	0.0145996
919.550	0.0146577
919.628	0.0148463
919.706	0.0147124
919.784	0.0146652
919.862	0.0147126
919.941	0.0147736
920.019	0.0148395
920.097	0.0147436
920.175	0.0148069
920.253	0.0147500
920.331	0.0148798
920.409	0.0147797
920.487	0.0146211
920.566	0.0147435
920.644	0.0147202
920.722	0.0148386
920.800	0.0147437
920.878	0.0148645
920.956	0.0148993
921.034	0.0147311
921.112	0.0147320
921.191	0.0147194
921.269	0.0146638
921.347	0.0146135
921.425	0.0148557
921.503	0.0148829
921.581	0.0148145
921.659	0.0148457
921.737	0.0147672
921.816	0.0147096
921.894	0.0147843
921.972	0.0148758
922.050	0.0148302
922.128	0.0149049
922.206	0.0148510
922.284	0.0148637
922.362	0.0147157
922.441	0.0148555
922.519	0.0148229
922.597	0.0147797
922.675	0.0149126
922.753	0.0149670
922.831	0.0146849
922.909	0.0147394
922.987	0.0147835
923.066	0.0149421
923.144	0.0148933
923.222	0.0148447
923.300	0.0148071
923.378	0.0149294
923.456	0.0149899
923.534	0.0148156
923.612	0.0148508
923.691	0.0148936
923.769	0.0147876
923.847	0.0148245
923.925	0.0148853
924.003	0.0147210
924.081	0.0148225
924.159	0.0147550
924.237	0.0148180
924.316	0.0148416
924.394	0.0148421
924.472	0.0147404
924.550	0.0148652
924.628	0.0147900
924.706	0.0146617
924.784	0.0149013
924.862	0.0149252
924.941	0.0147702
925.019	0.0148939
925.097	0.0148267
925.175	0.0148558
925.253	0.0148677
925.331	0.0147680
925.409	0.0147652
925.487	0.0147475
925.566	0.0149175
925.644	0.0146823
925.722	0.0148438
925.800	0.0148108
925.878	0.0147003
925.956	0.0147820
926.034	0.0147359
926.112	0.0146722
926.191	0.0148217
926.269	0.0148981
926.347	0.0148905
926.425	0.0148092
926.503	0.0149245
926.581	0.0147807
926.659	0.0148672
926.737	0.0147535
926.816	0.0149055
926.894	0.0147947
926.972	0.0148613
927.050	0.0147573
927.128	0.0147841
927.206	0.0148702
927.284	0.0147583
927.362	0.0148143
927.441	0.0149304
927.519	0.0148672
927.597	0.0148334
927.675	0.0147903
927.753	0.0148592
927.831	0.0147953
927.909	0.0145236
927.987	0.0147032
928.066	0.0147493
928.144	0.0146881
928.222	0.0148512
928.300	0.0148447
928.378	0.0149162
928.456	0.0148878
928.534	0.0148154
928.612	0.0148534
928.691	0.0149326
928.769	0.0147710
928.847	0.0148765
928.925	0.0147836
929.003	0.0148799
929.081	0.0149575
929.159	0.0149221
929.237	0.0148193
929.316	0.0147609
929.394	0.0148950
929.472	0.0149064
929.550	0.0149696
929.628	0.0148647
929.706	0.0148107
929.784	0.0148586
929.862	0.0149100
929.941	0.0148299
930.019	0.0149436
930.097	0.0149978
930.175	0.0148573
930.253	0.0148395
930.331	0.0148203
930.409	0.0148450
930.487	0.0149841
930.566	0.0149149
930.644	0.0147400
930.722	0.0147771
930.800	0.0148446
930.878	0.0148805
930.956	0.0149567
931.034	0.0149713
931.112	0.0148605
931.191	0.0147620
931.269	0.0148756
931.347	0.0148795
931.425	0.0149019
931.503	0.0148404
931.581	0.0147494
931.659	0.0148439
931.737	0.0149051
931.816	0.0148796
931.894	0.0147874
931.972	0.0148631
932.050	0.0149075
932.128	0.0149649
932.206	0.0149137
932.284	0.0148735
932.362	0.0149282
932.441	0.0150446
932.519	0.0150301
932.597	0.0147680
932.675	0.0148431
932.753	0.0148289
932.831	0.0148604
932.909	0.0149379
932.987	0.0149109
933.066	0.0149271
933.144	0.0147188
933.222	0.0148633
933.300	0.0149640
933.378	0.0147996
933.456	0.0146922
933.534	0.0149377
933.612	0.0148038
933.691	0.0148733
933.769	0.0149487
933.847	0.0149607
933.925	0.0147596
934.003	0.0149194
934.081	0.0147530
934.159	0.0149049
934.237	0.0147720
934.316	0.0146523
934.394	0.0148865
934.472	0.0149613
934.550	0.0147999
934.628	0.0146884
934.706	0.0147223
934.784	0.0147864
934.862	0.0148261
934.941	0.0147909
935.019	0.0148045
935.097	0.0149280
935.175	0.0148351
935.253	0.0149140
935.331	0.0149299
935.409	0.0147459
935.487	0.0147823
935.566	0.0147816
935.644	0.0148526
935.722	0.0149824
935.800	0.0148131
935.878	0.0148418
935.956	0.0148335
936.034	0.0149686
936.112	0.0147999
936.191	0.0149378
936.269	0.0148467
936.347	0.0148627
936.425	0.0149383
936.503	0.0148888
936.581	0.0148453
936.659	0.0149500
936.737	0.0148941
936.816	0.0148811
936.894	0.0148757
936.972	0.0148963
937.050	0.0148707
937.128	0.0150441
937.206	0.0149547
937.284	0.0149493
937.362	0.0148599
937.441	0.0147641
937.519	0.0148608
937.597	0.0148683
937.675	0.0148290
937.753	0.0148683
937.831	0.0148255
937.909	0.0147604
937.987	0.0147869
938.066	0.0147046
938.144	0.0148495
938.222	0.0148867
938.300	0.0148419
938.378	0.0148441
938.456	0.0148084
938.534	0.0148169
938.612	0.0146719
938.691	0.0145805
938.769	0.0148364
938.847	0.0146550
938.925	0.0146582
939.003	0.0145783
939.081	0.0146210
939.159	0.0147554
939.237	0.0147790
939.316	0.0149001
939.394	0.0147030
939.472	0.0147153
939.550	0.0147574
939.628	0.0146065
939.706	0.0147228
939.784	0.0149097
939.862	0.0146468
939.941	0.0146642
940.019	0.0148100
940.097	0.0147988
940.175	0.0147933
940.253	0.0146813
940.331	0.0147868
940.409	0.0148357
940.487	0.0147916
940.566	0.0146869
940.644	0.0148295
940.722	0.0148663
940.800	0.0148603
940.878	0.0146774
940.956	0.0148463
941.034	0.0147582
941.112	0.0148292
941.191	0.0146602
941.269	0.0147715
941.347	0.0147998
941.425	0.0146770
941.503	0.0146607
941.581	0.0149142
941.659	0.0150481
941.737	0.0147653
941.816	0.0147154
941.894	0.0147567
941.972	0.0149239
942.050	0.0147818
942.128	0.0147286
942.206	0.0147868
942.284	0.0148180
942.362	0.0148664
942.441	0.0147641
942.519	0.0148873
942.597	0.0147670
942.675	0.0148025
942.753	0.0148735
942.831	0.0148152
942.909	0.0147398
942.987	0.0147272
943.066	0.0146392
943.144	0.0147572
943.222	0.0147582
943.300	0.0148933
943.378	0.0147862
943.456	0.0147902
943.534	0.0146841
943.612	0.0147157
943.691	0.0148021
943.769	0.0147404
943.847	0.0147905
943.925	0.0148168
944.003	0.0148031
944.081	0.0147237
944.159	0.0146839
944.237	0.0148404
944.316	0.0149216
944.394	0.0146726
944.472	0.0146855
944.550	0.0147669
944.628	0.0148305
944.706	0.0147725
944.784	0.0147198
944.862	0.0148416
944.941	0.0148432
945.019	0.0148251
945.097	0.0147443
945.175	0.0148376
945.253	0.0148147
945.331	0.0148001
945.409	0.0149017
945.487	0.0147588
945.566	0.0147343
945.644	0.0149104
945.722	0.0149561
945.800	0.0147824
945.878	0.0148286
945.956	0.0148424
946.034	0.0148685
946.112	0.0148911
946.191	0.0147377
946.269	0.0149438
946.347	0.0148718
946.425	0.0149210
946.503	0.0150231
946.581	0.0149134
946.659	0.0148964
946.737	0.0148231
946.816	0.0147491
946.894	0.0148523
946.972	0.0147845
947.050	0.0149007
947.128	0.0149041
947.206	0.0148281
947.284	0.0148756
947.362	0.0149083
947.441	0.0148148
947.519	0.0148656
947.597	0.0148569
947.675	0.0148324
947.753	0.0149277
947.831	0.0147186
947.909	0.0149119
947.987	0.0149015
948.066	0.0147929
948.144	0.0147666
948.222	0.0147521
948.300	0.0148464
948.378	0.0147795
948.456	0.0148193
948.534	0.0147961
948.612	0.0147395
948.691	0.0148718
948.769	0.0148969
948.847	0.0148108
948.925	0.0148072
949.003	0.0148380
949.081	0.0146890
949.159	0.0147031
949.237	0.0147723
949.316	0.0147746
949.394	0.0147269
949.472	0.0148520
949.550	0.0148000
949.628	0.0147401
949.706	0.0149427
949.784	0.0149068
949.862	0.0149320
949.941	0.0147755
950.019	0.0146629
950.097	0.0149100
950.175	0.0148624
950.253	0.0148187
950.331	0.0148991
950.409	0.0147977
950.487	0.0147999
950.566	0.0147871
950.644	0.0148871
950.722	0.0148380
950.800	0.0148015
950.878	0.0148616
950.956	0.0149115
951.034	0.0147929
951.112	0.0147501
951.191	0.0148147
951.269	0.0148386
951.347	0.0147862
951.425	0.0148359
951.503	0.0147967
951.581	0.0148726
951.659	0.0148510
951.737	0.0148063
951.816	0.0148902
951.894	0.0147743
951.972	0.0147740
952.050	0.0148505
952.128	0.0148554
952.206	0.0148756
952.284	0.0148574
952.362	0.0149596
952.441	0.0147520
952.519	0.0147986
952.597	0.0147832
952.675	0.0148251
952.753	0.0148064
952.831	0.0148017
952.909	0.0146391
952.987	0.0148336
953.066	0.0147908
953.144	0.0147682
953.222	0.0149525
953.300	0.0149545
953.378	0.0149771
953.456	0.0148991
953.534	0.0148198
953.612	0.0148726
953.691	0.0147349
953.769	0.0148615
953.847	0.0148697
953.925	0.0147783
954.003	0.0149191
954.081	0.0149325
954.159	0.0148235
954.237	0.0147389
954.316	0.0148143
954.394	0.0146630
954.472	0.0149303
954.550	0.0148078
954.628	0.0148997
954.706	0.0149484
954.784	0.0148598
954.862	0.0147847
954.941	0.0149275
955.019	0.0148232
955.097	0.0148280
955.175	0.0149136
955.253	0.0148761
955.331	0.0148623
955.409	0.0147923
955.487	0.0148593
955.566	0.0147683
955.644	0.0148457
955.722	0.0148876
955.800	0.0148942
955.878	0.0148867
955.956	0.0149665
956.034	0.0149461
956.112	0.0148965
956.191	0.0149977
956.269	0.0148766
956.347	0.0146625
956.425	0.0148146
956.503	0.0148746
956.581	0.0149583
956.659	0.0148508
956.737	0.0148640
956.816	0.0148019
956.894	0.0146857
956.972	0.0148476
957.050	0.0148101
957.128	0.0148325
957.206	0.0148423
957.284	0.0148469
957.362	0.0147704
957.441	0.0147936
957.519	0.0147280
957.597	0.0148411
957.675	0.0147369
957.753	0.0147669
957.831	0.0148498
957.909	0.0147642
957.987	0.0148162
958.066	0.0149053
958.144	0.0148197
958.222	0.0149491
958.300	0.0147626
958.378	0.0149318
958.456	0.0147609
958.534	0.0147960
958.612	0.0148032
958.691	0.0148124
958.769	0.0148071
958.847	0.0148724
958.925	0.0147575
959.003	0.0148870
959.081	0.0147215
959.159	0.0147764
959.237	0.0148588
959.316	0.0149264
959.394	0.0148421
959.472	0.0148954
959.550	0.0148674
959.628	0.0148295
959.706	0.0148414
959.784	0.0148512
959.862	0.0147650
959.941	0.0149155
960.019	0.0148067
960.097	0.0148450
960.175	0.0148804
960.253	0.0148843
960.331	0.0148863
960.409	0.0148999
960.487	0.0148307
960.566	0.0147386
960.644	0.0149110
960.722	0.0148171
960.800	0.0148759
960.878	0.0147523
960.956	0.0147955
961.034	0.0148273
961.112	0.0148702
961.191	0.0148581
961.269	0.0148845
961.347	0.0149114
961.425	0.0147868
961.503	0.0148721
961.581	0.0150047
961.659	0.0147142
961.737	0.0148674
961.816	0.0149792
961.894	0.0148257
961.972	0.0147756
962.050	0.0148676
962.128	0.0148338
962.206	0.0148421
962.284	0.0148902
962.362	0.0148397
962.441	0.0148665
962.519	0.0148886
962.597	0.0148248
962.675	0.0147985
962.753	0.0148463
962.831	0.0147935
962.909	0.0147878
962.987	0.0146960
963.066	0.0148426
963.144	0.0147531
963.222	0.0149022
963.300	0.0148582
963.378	0.0147884
963.456	0.0148011
963.534	0.0147387
963.612	0.0147543
963.691	0.0147978
963.769	0.0147411
963.847	0.0146166
963.925	0.0147129
964.003	0.0146971
964.081	0.0147312
964.159	0.0148463
964.237	0.0148006
964.316	0.0148660
964.394	0.0148360
964.472	0.0148736
964.550	0.0148905
964.628	0.0148047
964.706	0.0148740
964.784	0.0147677
964.862	0.0148606
964.941	0.0149062
965.019	0.0147884
965.097	0.0147083
965.175	0.0146912
965.253	0.0148283
965.331	0.0148766
965.409	0.0148409
965.487	0.0148400
965.566	0.0148680
965.644	0.0147594
965.722	0.0146872
965.800	0.0148022
965.878	0.0148696
965.956	0.0149474
966.034	0.0148734
966.112	0.0147406
966.191	0.0148504
966.269	0.0149162
966.347	0.0147679
966.425	0.0147570
966.503	0.0147870
966.581	0.0148786
966.659	0.0148259
966.737	0.0146160
966.816	0.0148541
966.894	0.0147301
966.972	0.0149097
967.050	0.0145139
967.128	0.0147003
967.206	0.0147257
967.284	0.0146886
967.362	0.0147021
967.441	0.0148444
967.519	0.0147590
967.597	0.0147961
967.675	0.0147011
967.753	0.0148563
967.831	0.0148576
967.909	0.0146850
967.987	0.0148069
968.066	0.0149755
968.144	0.0148254
968.222	0.0148208
968.300	0.0148079
968.378	0.0147383
968.456	0.0149226
968.534	0.0148751
968.612	0.0147395
968.691	0.0149288
968.769	0.0148756
968.847	0.0147109
968.925	0.0148455
969.003	0.0147946
969.081	0.0148286
969.159	0.0148806
969.237	0.0149345
969.316	0.0149881
969.394	0.0148314
969.472	0.0148793
969.550	0.0150163
969.628	0.0148344
969.706	0.0149609
969.784	0.0150069
969.862	0.0148936
969.941	0.0148390
970.019	0.0150701
970.097	0.0149480
970.175	0.0148497
970.253	0.0146947
970.331	0.0149632
970.409	0.0149229
970.487	0.0148207
970.566	0.0148205
970.644	0.0149427
970.722	0.0149943
970.800	0.0147883
970.878	0.0150114
970.956	0.0149892
971.034	0.0149021
971.112	0.0147805
971.191	0.0147674
971.269	0.0149405
971.347	0.0149202
971.425	0.0149457
971.503	0.0149336
971.581	0.0148282
971.659	0.0148549
971.737	0.0149870
971.816	0.0148415
971.894	0.0147884
971.972	0.0149913
972.050	0.0150520
972.128	0.0150114
972.206	0.0148549
972.284	0.0148926
972.362	0.0148695
972.441	0.0148569
972.519	0.0148463
972.597	0.0148926
972.675	0.0150288
972.753	0.0149269
972.831	0.0148923
972.909	0.0147169
972.987	0.0148021
973.066	0.0149156
973.144	0.0147039
973.222	0.0149162
973.300	0.0148436
973.378	0.0148012
973.456	0.0150505
973.534	0.0148559
973.612	0.0148501
973.691	0.0148528
973.769	0.0148314
973.847	0.0149183
973.925	0.0149561
974.003	0.0149348
974.081	0.0149696
974.159	0.0148400
974.237	0.0149601
974.316	0.0149451
974.394	0.0148598
974.472	0.0148991
974.550	0.0149656
974.628	0.0147693
974.706	0.0148115
974.784	0.0148549
974.862	0.0148077
974.941	0.0149225
975.019	0.0148618
975.097	0.0148760
975.175	0.0148495
975.253	0.0148274
975.331	0.0148801
975.409	0.0147940
975.487	0.0148959
975.566	0.0149091
975.644	0.0149326
975.722	0.0149586
975.800	0.0148878
975.878	0.0148779
975.956	0.0149597
976.034	0.0148571
976.112	0.0149035
976.191	0.0148352
976.269	0.0149901
976.347	0.0148914
976.425	0.0149399
976.503	0.0148651
976.581	0.0148353
976.659	0.0148922
976.737	0.0148203
976.816	0.0149471
976.894	0.0147997
976.972	0.0148530
977.050	0.0148463
977.128	0.0148744
977.206	0.0148699
977.284	0.0147702
977.362	0.0147964
977.441	0.0148991
977.519	0.0149151
977.597	0.0148862
977.675	0.0147523
977.753	0.0148669
977.831	0.0148440
977.909	0.0148747
977.987	0.0148199
978.066	0.0148219
978.144	0.0148672
978.222	0.0147392
978.300	0.0147880
978.378	0.0147899
978.456	0.0147781
978.534	0.0147195
978.612	0.0147513
978.691	0.0146997
978.769	0.0148290
978.847	0.0147899
978.925	0.0146750
979.003	0.0146569
979.081	0.0147808
979.159	0.0146767
979.237	0.0146917
979.316	0.0147206
979.394	0.0148647
979.472	0.0147714
979.550	0.0147982
979.628	0.0147261
979.706	0.0147793
979.784	0.0147956
979.862	0.0148438
979.941	0.0148321
980.019	0.0148283
980.097	0.0148459
980.175	0.0147615
980.253	0.0148772
980.331	0.0148218
980.409	0.0147572
980.487	0.0147482
980.566	0.0148113
980.644	0.0146783
980.722	0.0148203
980.800	0.0147497
980.878	0.0147820
980.956	0.0148065
981.034	0.0147241
981.112	0.0147800
981.191	0.0148036
981.269	0.0148044
981.347	0.0148257
981.425	0.0148621
981.503	0.0148138
981.581	0.0147993
981.659	0.0148080
981.737	0.0147542
981.816	0.0149467
981.894	0.0149159
981.972	0.0148891
982.050	0.0149087
982.128	0.0150220
982.206	0.0149408
982.284	0.0149805
982.362	0.0149348
982.441	0.0150239
982.519	0.0148442
982.597	0.0149276
982.675	0.0150098
982.753	0.0149731
982.831	0.0147616
982.909	0.0147862
982.987	0.0148986
983.066	0.0149205
983.144	0.0148482
983.222	0.0149719
983.300	0.0149234
983.378	0.0147253
983.456	0.0148699
983.534	0.0149819
983.612	0.0148950
983.691	0.0148820
983.769	0.0148540
983.847	0.0148708
983.925	0.0148533
984.003	0.0149987
984.081	0.0150826
984.159	0.0149802
984.237	0.0147799
984.316	0.0149826
984.394	0.0149943
984.472	0.0150292
984.550	0.0148579
984.628	0.0149052
984.706	0.0149772
984.784	0.0148980
984.862	0.0149175
984.941	0.0149198
985.019	0.0149377
985.097	0.0148923
985.175	0.0148156
985.253	0.0148385
985.331	0.0149741
985.409	0.0149405
985.487	0.0149181
985.566	0.0148957
985.644	0.0147834
985.722	0.0148309
985.800	0.0148044
985.878	0.0148887
985.956	0.0149294
986.034	0.0148367
986.112	0.0148465
986.191	0.0148807
986.269	0.0148417
986.347	0.0148156
986.425	0.0147881
986.503	0.0148244
986.581	0.0149248
986.659	0.0148541
986.737	0.0148470
986.816	0.0147668
986.894	0.0148747
986.972	0.0148925
987.050	0.0147756
987.128	0.0148057
987.206	0.0149159
987.284	0.0148955
987.362	0.0149251
987.441	0.0148660
987.519	0.0148161
987.597	0.0147994
987.675	0.0149365
987.753	0.0149080
987.831	0.0148398
987.909	0.0149643
987.987	0.0147263
988.066	0.0149237
988.144	0.0149037
988.222	0.0148385
988.300	0.0149612
988.378	0.0149308
988.456	0.0149732
988.534	0.0147009
988.612	0.0148816
988.691	0.0149278
988.769	0.0149832
988.847	0.0148952
988.925	0.0148248
989.003	0.0148877
989.081	0.0147975
989.159	0.0147099
989.237	0.0147849
989.316	0.0148053
989.394	0.0149268
989.472	0.0147572
989.550	0.0148226
989.628	0.0148527
989.706	0.0147492
989.784	0.0147830
989.862	0.0146845
989.941	0.0148201
990.019	0.0148306
990.097	0.0148266
990.175	0.0147685
990.253	0.0147196
990.331	0.0148500
990.409	0.0148251
990.487	0.0148566
990.566	0.0147834
990.644	0.0147580
990.722	0.0148671
990.800	0.0148486
990.878	0.0148551
990.956	0.0148282
991.034	0.0147579
991.112	0.0148636
991.191	0.0147810
991.269	0.0148740
991.347	0.0147858
991.425	0.0148576
991.503	0.0148064
991.581	0.0148164
991.659	0.0150303
991.737	0.0148701
991.816	0.0148264
991.894	0.0147896
991.972	0.0148017
992.050	0.0148286
992.128	0.0149166
992.206	0.0149472
992.284	0.0148158
992.362	0.0148756
992.441	0.0148074
992.519	0.0148307
992.597	0.0149154
992.675	0.0147517
992.753	0.0149409
992.831	0.0148872
992.909	0.0148523
992.987	0.0148120
993.066	0.0149885
993.144	0.0148937
993.222	0.0148833
993.300	0.0148677
993.378	0.0149963
993.456	0.0149943
993.534	0.0151543
993.612	0.0149725
993.691	0.0149390
993.769	0.0150217
993.847	0.0149526
993.925	0.0150032
994.003	0.0149503
994.081	0.0148302
994.159	0.0148968
994.237	0.0148280
994.316	0.0149236
994.394	0.0149876
994.472	0.0148945
994.550	0.0148287
994.628	0.0149435
994.706	0.0149274
994.784	0.0149312
994.862	0.0149738
994.941	0.0149040
995.019	0.0148647
995.097	0.0148341
995.175	0.0149191
995.253	0.0151598
995.331	0.0148983
995.409	0.0148902
995.487	0.0146871
995.566	0.0148283
995.644	0.0148788
995.722	0.0149485
995.800	0.0147688
995.878	0.0149515
995.956	0.0149554
996.034	0.0148547
996.112	0.0149250
996.191	0.0149703
996.269	0.0149217
996.347	0.0149025
996.425	0.0150151
996.503	0.0149680
996.581	0.0148758
996.659	0.0148719
996.737	0.0149180
996.816	0.0149577
996.894	0.0150234
996.972	0.0149110
997.050	0.0148729
997.128	0.0149433
997.206	0.0149834
997.284	0.0148133
997.362	0.0148659
997.441	0.0148810
997.519	0.0148921
997.597	0.0149465
997.675	0.0149633
997.753	0.0149644
997.831	0.0147470
997.909	0.0148238
997.987	0.0149579
998.066	0.0149921
998.144	0.0149553
998.222	0.0148772
998.300	0.0148674
998.378	0.0147985
998.456	0.0148187
998.534	0.0148190
998.612	0.0148728
998.691	0.0148324
998.769	0.0148224
998.847	0.0148241
998.925	0.0147056
