05/04/2022	20:46:56	Ver.	4.1	UNKNOWN
Optical Delay	678.996401	Delta X		0.078125	Sweeps	1	Scan Rate	0/0
Coordinates	Axis 1	NaN	Axis 2	NaN	Axis 3	NaN	Axis 4	NaN	Axis 5	NaN	Axis 6	0.000000
TX Power	0.000000	RX Power	0.000000

678.996	0.0147532
679.075	0.0147544
679.153	0.0148933
679.231	0.0147558
679.309	0.0147998
679.387	0.0148183
679.465	0.0147260
679.543	0.0148147
679.621	0.0147437
679.700	0.0148316
679.778	0.0147591
679.856	0.0147759
679.934	0.0147541
680.012	0.0148109
680.090	0.0147560
680.168	0.0148609
680.246	0.0147913
680.325	0.0147176
680.403	0.0149147
680.481	0.0148441
680.559	0.0147649
680.637	0.0148428
680.715	0.0146819
680.793	0.0146123
680.871	0.0148514
680.950	0.0147848
681.028	0.0147009
681.106	0.0146836
681.184	0.0147916
681.262	0.0148206
681.340	0.0147218
681.418	0.0147940
681.496	0.0147855
681.575	0.0147377
681.653	0.0147657
681.731	0.0146667
681.809	0.0147625
681.887	0.0147269
681.965	0.0145974
682.043	0.0146625
682.121	0.0147758
682.200	0.0147002
682.278	0.0148147
682.356	0.0148408
682.434	0.0148388
682.512	0.0147846
682.590	0.0148360
682.668	0.0146732
682.746	0.0147382
682.825	0.0148035
682.903	0.0148640
682.981	0.0147011
683.059	0.0147141
683.137	0.0148386
683.215	0.0146362
683.293	0.0147395
683.371	0.0147160
683.450	0.0147095
683.528	0.0147108
683.606	0.0146984
683.684	0.0146951
683.762	0.0145440
683.840	0.0147469
683.918	0.0146471
683.996	0.0148691
684.075	0.0148199
684.153	0.0146989
684.231	0.0147147
684.309	0.0149341
684.387	0.0147710
684.465	0.0147745
684.543	0.0146275
684.621	0.0149067
684.700	0.0145483
684.778	0.0147619
684.856	0.0147554
684.934	0.0147448
685.012	0.0148611
685.090	0.0147215
685.168	0.0146017
685.246	0.0147596
685.325	0.0147169
685.403	0.0147051
685.481	0.0148201
685.559	0.0147005
685.637	0.0148014
685.715	0.0147825
685.793	0.0147557
685.871	0.0147003
685.950	0.0148225
686.028	0.0148211
686.106	0.0147919
686.184	0.0147344
686.262	0.0146387
686.340	0.0146071
686.418	0.0146977
686.496	0.0146180
686.575	0.0147958
686.653	0.0148085
686.731	0.0146917
686.809	0.0147374
686.887	0.0147723
686.965	0.0147324
687.043	0.0146175
687.121	0.0147528
687.200	0.0147417
687.278	0.0146972
687.356	0.0147782
687.434	0.0146091
687.512	0.0147609
687.590	0.0147932
687.668	0.0147070
687.746	0.0145972
687.825	0.0146794
687.903	0.0147499
687.981	0.0148362
688.059	0.0148086
688.137	0.0147940
688.215	0.0146780
688.293	0.0146700
688.371	0.0148846
688.450	0.0147170
688.528	0.0148141
688.606	0.0147081
688.684	0.0147478
688.762	0.0148479
688.840	0.0147403
688.918	0.0147213
688.996	0.0147992
689.075	0.0149162
689.153	0.0147977
689.231	0.0147157
689.309	0.0147522
689.387	0.0147420
689.465	0.0146663
689.543	0.0147212
689.621	0.0147955
689.700	0.0149079
689.778	0.0148219
689.856	0.0148633
689.934	0.0146025
690.012	0.0148215
690.090	0.0147063
690.168	0.0148267
690.246	0.0148194
690.325	0.0148009
690.403	0.0146754
690.481	0.0146481
690.559	0.0146837
690.637	0.0148753
690.715	0.0148325
690.793	0.0147408
690.871	0.0146326
690.950	0.0146883
691.028	0.0149112
691.106	0.0148095
691.184	0.0147200
691.262	0.0148339
691.340	0.0148421
691.418	0.0148804
691.496	0.0148140
691.575	0.0147195
691.653	0.0147970
691.731	0.0148523
691.809	0.0148417
691.887	0.0146937
691.965	0.0147820
692.043	0.0147279
692.121	0.0147152
692.200	0.0146551
692.278	0.0149460
692.356	0.0147630
692.434	0.0147956
692.512	0.0147940
692.590	0.0149499
692.668	0.0148513
692.746	0.0147598
692.825	0.0147879
692.903	0.0148585
692.981	0.0147264
693.059	0.0148146
693.137	0.0148681
693.215	0.0147691
693.293	0.0147239
693.371	0.0147077
693.450	0.0147391
693.528	0.0147104
693.606	0.0147819
693.684	0.0147126
693.762	0.0148184
693.840	0.0147816
693.918	0.0147404
693.996	0.0146986
694.075	0.0147033
694.153	0.0147816
694.231	0.0147164
694.309	0.0147398
694.387	0.0147520
694.465	0.0148220
694.543	0.0145921
694.621	0.0147102
694.700	0.0148742
694.778	0.0148292
694.856	0.0148183
694.934	0.0148145
695.012	0.0147848
695.090	0.0148644
695.168	0.0148973
695.246	0.0149086
695.325	0.0148103
695.403	0.0146188
695.481	0.0147990
695.559	0.0147460
695.637	0.0147909
695.715	0.0148009
695.793	0.0148840
695.871	0.0147781
695.950	0.0147566
696.028	0.0147262
696.106	0.0146417
696.184	0.0148416
696.262	0.0148242
696.340	0.0147533
696.418	0.0146427
696.496	0.0147326
696.575	0.0147459
696.653	0.0147041
696.731	0.0146992
696.809	0.0145240
696.887	0.0147783
696.965	0.0147581
697.043	0.0147958
697.121	0.0147796
697.200	0.0146905
697.278	0.0147614
697.356	0.0147517
697.434	0.0146212
697.512	0.0147952
697.590	0.0147311
697.668	0.0147969
697.746	0.0147590
697.825	0.0147707
697.903	0.0147070
697.981	0.0146986
698.059	0.0146605
698.137	0.0148811
698.215	0.0147454
698.293	0.0147273
698.371	0.0146262
698.450	0.0146461
698.528	0.0147641
698.606	0.0147158
698.684	0.0147115
698.762	0.0147689
698.840	0.0147794
698.918	0.0146146
698.996	0.0147168
699.075	0.0147382
699.153	0.0147012
699.231	0.0147775
699.309	0.0147720
699.387	0.0146347
699.465	0.0146564
699.543	0.0145487
699.621	0.0148092
699.700	0.0148981
699.778	0.0147857
699.856	0.0147264
699.934	0.0146799
700.012	0.0148201
700.090	0.0148502
700.168	0.0147736
700.246	0.0146821
700.325	0.0147078
700.403	0.0146356
700.481	0.0149271
700.559	0.0148621
700.637	0.0149223
700.715	0.0147908
700.793	0.0147575
700.871	0.0147824
700.950	0.0147813
701.028	0.0148828
701.106	0.0148859
701.184	0.0149226
701.262	0.0147807
701.340	0.0146185
701.418	0.0148089
701.496	0.0147461
701.575	0.0148432
701.653	0.0147775
701.731	0.0146752
701.809	0.0146167
701.887	0.0147930
701.965	0.0148182
702.043	0.0147667
702.121	0.0146765
702.200	0.0147364
702.278	0.0146231
702.356	0.0147881
702.434	0.0148424
702.512	0.0148866
702.590	0.0148108
702.668	0.0148687
702.746	0.0148978
702.825	0.0146896
702.903	0.0147903
702.981	0.0148126
703.059	0.0146782
703.137	0.0148350
703.215	0.0148084
703.293	0.0147569
703.371	0.0148032
703.450	0.0148757
703.528	0.0148634
703.606	0.0147146
703.684	0.0148181
703.762	0.0148559
703.840	0.0148682
703.918	0.0147712
703.996	0.0147246
704.075	0.0147036
704.153	0.0147143
704.231	0.0147788
704.309	0.0147808
704.387	0.0146755
704.465	0.0147945
704.543	0.0147788
704.621	0.0147800
704.700	0.0148599
704.778	0.0148929
704.856	0.0148206
704.934	0.0146887
705.012	0.0147282
705.090	0.0147727
705.168	0.0145856
705.246	0.0146918
705.325	0.0148920
705.403	0.0147028
705.481	0.0147012
705.559	0.0149017
705.637	0.0147543
705.715	0.0147297
705.793	0.0149093
705.871	0.0148495
705.950	0.0147179
706.028	0.0146765
706.106	0.0146902
706.184	0.0146523
706.262	0.0146454
706.340	0.0145925
706.418	0.0147248
706.496	0.0147869
706.575	0.0148218
706.653	0.0148218
706.731	0.0147127
706.809	0.0147967
706.887	0.0147489
706.965	0.0147800
707.043	0.0146868
707.121	0.0149160
707.200	0.0148132
707.278	0.0146501
707.356	0.0147392
707.434	0.0147790
707.512	0.0147403
707.590	0.0147796
707.668	0.0147800
707.746	0.0148401
707.825	0.0148389
707.903	0.0148133
707.981	0.0147416
708.059	0.0146403
708.137	0.0147887
708.215	0.0147188
708.293	0.0148049
708.371	0.0147996
708.450	0.0147473
708.528	0.0146995
708.606	0.0146384
708.684	0.0145847
708.762	0.0148577
708.840	0.0147710
708.918	0.0145947
708.996	0.0147772
709.075	0.0147381
709.153	0.0148089
709.231	0.0148005
709.309	0.0146445
709.387	0.0147407
709.465	0.0146506
709.543	0.0147217
709.621	0.0146062
709.700	0.0147263
709.778	0.0147371
709.856	0.0146278
709.934	0.0147768
710.012	0.0147308
710.090	0.0147517
710.168	0.0147483
710.246	0.0147168
710.325	0.0146806
710.403	0.0148286
710.481	0.0147889
710.559	0.0147941
710.637	0.0147156
710.715	0.0148190
710.793	0.0147620
710.871	0.0145943
710.950	0.0147832
711.028	0.0147842
711.106	0.0147670
711.184	0.0147503
711.262	0.0148310
711.340	0.0147161
711.418	0.0146133
711.496	0.0148232
711.575	0.0148444
711.653	0.0146806
711.731	0.0146107
711.809	0.0147194
711.887	0.0146841
711.965	0.0147459
712.043	0.0148174
712.121	0.0150233
712.200	0.0148004
712.278	0.0146064
712.356	0.0148065
712.434	0.0148551
712.512	0.0147173
712.590	0.0148077
712.668	0.0147060
712.746	0.0148219
712.825	0.0148202
712.903	0.0146707
712.981	0.0147472
713.059	0.0148074
713.137	0.0147029
713.215	0.0147105
713.293	0.0147826
713.371	0.0149237
713.450	0.0147958
713.528	0.0148113
713.606	0.0148856
713.684	0.0147557
713.762	0.0148305
713.840	0.0147660
713.918	0.0147976
713.996	0.0148880
714.075	0.0148011
714.153	0.0148115
714.231	0.0146550
714.309	0.0147806
714.387	0.0147334
714.465	0.0148042
714.543	0.0149509
714.621	0.0148789
714.700	0.0149486
714.778	0.0147489
714.856	0.0147963
714.934	0.0147780
715.012	0.0147408
715.090	0.0147752
715.168	0.0148157
715.246	0.0147768
715.325	0.0146552
715.403	0.0148612
715.481	0.0148689
715.559	0.0149157
715.637	0.0148641
715.715	0.0147903
715.793	0.0148101
715.871	0.0148577
715.950	0.0148918
716.028	0.0148392
716.106	0.0148342
716.184	0.0147059
716.262	0.0149613
716.340	0.0146446
716.418	0.0146259
716.496	0.0147337
716.575	0.0146770
716.653	0.0146635
716.731	0.0147771
716.809	0.0147393
716.887	0.0147265
716.965	0.0148492
717.043	0.0147087
717.121	0.0146137
717.200	0.0147037
717.278	0.0147687
717.356	0.0147857
717.434	0.0146818
717.512	0.0149014
717.590	0.0147264
717.668	0.0147054
717.746	0.0147421
717.825	0.0149086
717.903	0.0149127
717.981	0.0148539
718.059	0.0147314
718.137	0.0146349
718.215	0.0148029
718.293	0.0147508
718.371	0.0145604
718.450	0.0146739
718.528	0.0147746
718.606	0.0148407
718.684	0.0147856
718.762	0.0149009
718.840	0.0147504
718.918	0.0148033
718.996	0.0146961
719.075	0.0147397
719.153	0.0146828
719.231	0.0147227
719.309	0.0147245
719.387	0.0146643
719.465	0.0146932
719.543	0.0145964
719.621	0.0147854
719.700	0.0147482
719.778	0.0148721
719.856	0.0149838
719.934	0.0149046
720.012	0.0149594
720.090	0.0148061
720.168	0.0148848
720.246	0.0147494
720.325	0.0147650
720.403	0.0148611
720.481	0.0148384
720.559	0.0148841
720.637	0.0147970
720.715	0.0147655
720.793	0.0147862
720.871	0.0148569
720.950	0.0148594
721.028	0.0146810
721.106	0.0148466
721.184	0.0148534
721.262	0.0147646
721.340	0.0147832
721.418	0.0147962
721.496	0.0147206
721.575	0.0147819
721.653	0.0147839
721.731	0.0148354
721.809	0.0149121
721.887	0.0149342
721.965	0.0148067
722.043	0.0148206
722.121	0.0148242
722.200	0.0147636
722.278	0.0147794
722.356	0.0146130
722.434	0.0145895
722.512	0.0145932
722.590	0.0145260
722.668	0.0145036
722.746	0.0146900
722.825	0.0146507
722.903	0.0146798
722.981	0.0147343
723.059	0.0148081
723.137	0.0145963
723.215	0.0147510
723.293	0.0148716
723.371	0.0148552
723.450	0.0149210
723.528	0.0149608
723.606	0.0147678
723.684	0.0147469
723.762	0.0148847
723.840	0.0147390
723.918	0.0148026
723.996	0.0147518
724.075	0.0148134
724.153	0.0148732
724.231	0.0148133
724.309	0.0149660
724.387	0.0149024
724.465	0.0148448
724.543	0.0147858
724.621	0.0148373
724.700	0.0148195
724.778	0.0147333
724.856	0.0147732
724.934	0.0147881
725.012	0.0148435
725.090	0.0148866
725.168	0.0147339
725.246	0.0148319
725.325	0.0148307
725.403	0.0147569
725.481	0.0145711
725.559	0.0145466
725.637	0.0146508
725.715	0.0146976
725.793	0.0146931
725.871	0.0147637
725.950	0.0147385
726.028	0.0147465
726.106	0.0146781
726.184	0.0147383
726.262	0.0146777
726.340	0.0147283
726.418	0.0147372
726.496	0.0148130
726.575	0.0147820
726.653	0.0146861
726.731	0.0146850
726.809	0.0147952
726.887	0.0148183
726.965	0.0147990
727.043	0.0147810
727.121	0.0146838
727.200	0.0148768
727.278	0.0145409
727.356	0.0146239
727.434	0.0146391
727.512	0.0146897
727.590	0.0146492
727.668	0.0145988
727.746	0.0145550
727.825	0.0147166
727.903	0.0147064
727.981	0.0145702
728.059	0.0146890
728.137	0.0146951
728.215	0.0147272
728.293	0.0147753
728.371	0.0147848
728.450	0.0146921
728.528	0.0146745
728.606	0.0148063
728.684	0.0147034
728.762	0.0146772
728.840	0.0147726
728.918	0.0147977
728.996	0.0147914
729.075	0.0147410
729.153	0.0147941
729.231	0.0148381
729.309	0.0147364
729.387	0.0148367
729.465	0.0147540
729.543	0.0149467
729.621	0.0147512
729.700	0.0147972
729.778	0.0148235
729.856	0.0148635
729.934	0.0149249
730.012	0.0148844
730.090	0.0149118
730.168	0.0149778
730.246	0.0148257
730.325	0.0149763
730.403	0.0149597
730.481	0.0147646
730.559	0.0147793
730.637	0.0148155
730.715	0.0148173
730.793	0.0148327
730.871	0.0148328
730.950	0.0148612
731.028	0.0146688
731.106	0.0146926
731.184	0.0147479
731.262	0.0146946
731.340	0.0147598
731.418	0.0148316
731.496	0.0148409
731.575	0.0149410
731.653	0.0148308
731.731	0.0147954
731.809	0.0148283
731.887	0.0146683
731.965	0.0147487
732.043	0.0148508
732.121	0.0147794
732.200	0.0147000
732.278	0.0146864
732.356	0.0146831
732.434	0.0148344
732.512	0.0146328
732.590	0.0147560
732.668	0.0145219
732.746	0.0146059
732.825	0.0146377
732.903	0.0146579
732.981	0.0146820
733.059	0.0145834
733.137	0.0146003
733.215	0.0145844
733.293	0.0148852
733.371	0.0146343
733.450	0.0146937
733.528	0.0146617
733.606	0.0146591
733.684	0.0146610
733.762	0.0146552
733.840	0.0146172
733.918	0.0145966
733.996	0.0147431
734.075	0.0146368
734.153	0.0146136
734.231	0.0146836
734.309	0.0147815
734.387	0.0147681
734.465	0.0146243
734.543	0.0147693
734.621	0.0147706
734.700	0.0147331
734.778	0.0148251
734.856	0.0147918
734.934	0.0149027
735.012	0.0149316
735.090	0.0148634
735.168	0.0147634
735.246	0.0149127
735.325	0.0148317
735.403	0.0150449
735.481	0.0148405
735.559	0.0148637
735.637	0.0149483
735.715	0.0148582
735.793	0.0149485
735.871	0.0148932
735.950	0.0148999
736.028	0.0147261
736.106	0.0147987
736.184	0.0150076
736.262	0.0148936
736.340	0.0147267
736.418	0.0149235
736.496	0.0148986
736.575	0.0149180
736.653	0.0148579
736.731	0.0148126
736.809	0.0147627
736.887	0.0147639
736.965	0.0147124
737.043	0.0147555
737.121	0.0148289
737.200	0.0148148
737.278	0.0147012
737.356	0.0146560
737.434	0.0147614
737.512	0.0147435
737.590	0.0146862
737.668	0.0147081
737.746	0.0146522
737.825	0.0146510
737.903	0.0147218
737.981	0.0146211
738.059	0.0146986
738.137	0.0146326
738.215	0.0147511
738.293	0.0148456
738.371	0.0148693
738.450	0.0148531
738.528	0.0146717
738.606	0.0145204
738.684	0.0145485
738.762	0.0146839
738.840	0.0147235
738.918	0.0144673
738.996	0.0145831
739.075	0.0146030
739.153	0.0145151
739.231	0.0145541
739.309	0.0146522
739.387	0.0147385
739.465	0.0146988
739.543	0.0147131
739.621	0.0146089
739.700	0.0146988
739.778	0.0145860
739.856	0.0148386
739.934	0.0146779
740.012	0.0147072
740.090	0.0147205
740.168	0.0148377
740.246	0.0147845
740.325	0.0148600
740.403	0.0147809
740.481	0.0147358
740.559	0.0148039
740.637	0.0149171
740.715	0.0147939
740.793	0.0148389
740.871	0.0148074
740.950	0.0147323
741.028	0.0146420
741.106	0.0147186
741.184	0.0147772
741.262	0.0147872
741.340	0.0146844
741.418	0.0147582
741.496	0.0146735
741.575	0.0146247
741.653	0.0146857
741.731	0.0146474
741.809	0.0147115
741.887	0.0145265
741.965	0.0146497
742.043	0.0147256
742.121	0.0147257
742.200	0.0146716
742.278	0.0146444
742.356	0.0148204
742.434	0.0147618
742.512	0.0147395
742.590	0.0147566
742.668	0.0148502
742.746	0.0147860
742.825	0.0148203
742.903	0.0146600
742.981	0.0146903
743.059	0.0146490
743.137	0.0147052
743.215	0.0146825
743.293	0.0147516
743.371	0.0146620
743.450	0.0148394
743.528	0.0147552
743.606	0.0146702
743.684	0.0145762
743.762	0.0147366
743.840	0.0145850
743.918	0.0145460
743.996	0.0145546
744.075	0.0146471
744.153	0.0145415
744.231	0.0146749
744.309	0.0145451
744.387	0.0146110
744.465	0.0146749
744.543	0.0146833
744.621	0.0146661
744.700	0.0147761
744.778	0.0145544
744.856	0.0147411
744.934	0.0147727
745.012	0.0146786
745.090	0.0147738
745.168	0.0147280
745.246	0.0148717
745.325	0.0147614
745.403	0.0147618
745.481	0.0144407
745.559	0.0147288
745.637	0.0147729
745.715	0.0147437
745.793	0.0148172
745.871	0.0146552
745.950	0.0146670
746.028	0.0147775
746.106	0.0147221
746.184	0.0148113
746.262	0.0147835
746.340	0.0148145
746.418	0.0147575
746.496	0.0148142
746.575	0.0149078
746.653	0.0147916
746.731	0.0147266
746.809	0.0146967
746.887	0.0147722
746.965	0.0148049
747.043	0.0148489
747.121	0.0148125
747.200	0.0148141
747.278	0.0148141
747.356	0.0149103
747.434	0.0149289
747.512	0.0147661
747.590	0.0147035
747.668	0.0147892
747.746	0.0147462
747.825	0.0148381
747.903	0.0147307
747.981	0.0146222
748.059	0.0149128
748.137	0.0148128
748.215	0.0146069
748.293	0.0146767
748.371	0.0148537
748.450	0.0147588
748.528	0.0148132
748.606	0.0148996
748.684	0.0148751
748.762	0.0147395
748.840	0.0148162
748.918	0.0149160
748.996	0.0149223
749.075	0.0148508
749.153	0.0149055
749.231	0.0149403
749.309	0.0149305
749.387	0.0149921
749.465	0.0149426
749.543	0.0148345
749.621	0.0150137
749.700	0.0149374
749.778	0.0148392
749.856	0.0147327
749.934	0.0148877
750.012	0.0149039
750.090	0.0148432
750.168	0.0147199
750.246	0.0148963
750.325	0.0148778
750.403	0.0148451
750.481	0.0148273
750.559	0.0149806
750.637	0.0148437
750.715	0.0147914
750.793	0.0148138
750.871	0.0149086
750.950	0.0148474
751.028	0.0147858
751.106	0.0148643
751.184	0.0148177
751.262	0.0147344
751.340	0.0147238
751.418	0.0147928
751.496	0.0146631
751.575	0.0146855
751.653	0.0146590
751.731	0.0147288
751.809	0.0146460
751.887	0.0147430
751.965	0.0145442
752.043	0.0145350
752.121	0.0147325
752.200	0.0147530
752.278	0.0147793
752.356	0.0148824
752.434	0.0147581
752.512	0.0147399
752.590	0.0147697
752.668	0.0145692
752.746	0.0148369
752.825	0.0148832
752.903	0.0147655
752.981	0.0146345
753.059	0.0147450
753.137	0.0146841
753.215	0.0146713
753.293	0.0147716
753.371	0.0146703
753.450	0.0147003
753.528	0.0147771
753.606	0.0146688
753.684	0.0147330
753.762	0.0146787
753.840	0.0147365
753.918	0.0146152
753.996	0.0146216
754.075	0.0146734
754.153	0.0147379
754.231	0.0147082
754.309	0.0147891
754.387	0.0147130
754.465	0.0144924
754.543	0.0147213
754.621	0.0147839
754.700	0.0145618
754.778	0.0147381
754.856	0.0147045
754.934	0.0145464
755.012	0.0147149
755.090	0.0146329
755.168	0.0146297
755.246	0.0147173
755.325	0.0146382
755.403	0.0145981
755.481	0.0146185
755.559	0.0146481
755.637	0.0147021
755.715	0.0146355
755.793	0.0145818
755.871	0.0145359
755.950	0.0146992
756.028	0.0146058
756.106	0.0145877
756.184	0.0146036
756.262	0.0147321
756.340	0.0146671
756.418	0.0145197
756.496	0.0145743
756.575	0.0147002
756.653	0.0147276
756.731	0.0148093
756.809	0.0148125
756.887	0.0146482
756.965	0.0147442
757.043	0.0147471
757.121	0.0146961
757.200	0.0146664
757.278	0.0148814
757.356	0.0146775
757.434	0.0147439
757.512	0.0148511
757.590	0.0147932
757.668	0.0148032
757.746	0.0147702
757.825	0.0147453
757.903	0.0146503
757.981	0.0146677
758.059	0.0148351
758.137	0.0149017
758.215	0.0149064
758.293	0.0149621
758.371	0.0147926
758.450	0.0148114
758.528	0.0147775
758.606	0.0148479
758.684	0.0149876
758.762	0.0148629
758.840	0.0148327
758.918	0.0149683
758.996	0.0148184
759.075	0.0147966
759.153	0.0147430
759.231	0.0148714
759.309	0.0147654
759.387	0.0148338
759.465	0.0147327
759.543	0.0147353
759.621	0.0150474
759.700	0.0146893
759.778	0.0147537
759.856	0.0148726
759.934	0.0148779
760.012	0.0145917
760.090	0.0148154
760.168	0.0149203
760.246	0.0148151
760.325	0.0147057
760.403	0.0149088
760.481	0.0147954
760.559	0.0147885
760.637	0.0147750
760.715	0.0148727
760.793	0.0148470
760.871	0.0146951
760.950	0.0147702
761.028	0.0147787
761.106	0.0147971
761.184	0.0147192
761.262	0.0147357
761.340	0.0147888
761.418	0.0146824
761.496	0.0146111
761.575	0.0146456
761.653	0.0146951
761.731	0.0147974
761.809	0.0146024
761.887	0.0146716
761.965	0.0146062
762.043	0.0147901
762.121	0.0147723
762.200	0.0146482
762.278	0.0146323
762.356	0.0149158
762.434	0.0146725
762.512	0.0147086
762.590	0.0148479
762.668	0.0148420
762.746	0.0147482
762.825	0.0148795
762.903	0.0147767
762.981	0.0148584
763.059	0.0148217
763.137	0.0149086
763.215	0.0149281
763.293	0.0148547
763.371	0.0149934
763.450	0.0150510
763.528	0.0149260
763.606	0.0147550
763.684	0.0149375
763.762	0.0147163
763.840	0.0148912
763.918	0.0148909
763.996	0.0147992
764.075	0.0147656
764.153	0.0148968
764.231	0.0149370
764.309	0.0147973
764.387	0.0147541
764.465	0.0147913
764.543	0.0148692
764.621	0.0148758
764.700	0.0148253
764.778	0.0149157
764.856	0.0148463
764.934	0.0147966
765.012	0.0148283
765.090	0.0149696
765.168	0.0149246
765.246	0.0147787
765.325	0.0148925
765.403	0.0148366
765.481	0.0146756
765.559	0.0147440
765.637	0.0148441
765.715	0.0147228
765.793	0.0148087
765.871	0.0147398
765.950	0.0145455
766.028	0.0145624
766.106	0.0146477
766.184	0.0146118
766.262	0.0144289
766.340	0.0146175
766.418	0.0147298
766.496	0.0148371
766.575	0.0147404
766.653	0.0147365
766.731	0.0147190
766.809	0.0146571
766.887	0.0148089
766.965	0.0147175
767.043	0.0146398
767.121	0.0147020
767.200	0.0147327
767.278	0.0147565
767.356	0.0147002
767.434	0.0146873
767.512	0.0147197
767.590	0.0146206
767.668	0.0147239
767.746	0.0148506
767.825	0.0146841
767.903	0.0147752
767.981	0.0146864
768.059	0.0147720
768.137	0.0148347
768.215	0.0147421
768.293	0.0147654
768.371	0.0147056
768.450	0.0148974
768.528	0.0147799
768.606	0.0146382
768.684	0.0147389
768.762	0.0147528
768.840	0.0147160
768.918	0.0148143
768.996	0.0147958
769.075	0.0147115
769.153	0.0147239
769.231	0.0146969
769.309	0.0146944
769.387	0.0147868
769.465	0.0146880
769.543	0.0147466
769.621	0.0148072
769.700	0.0146858
769.778	0.0146972
769.856	0.0147564
769.934	0.0148071
770.012	0.0147800
770.090	0.0148997
770.168	0.0145846
770.246	0.0147317
770.325	0.0148486
770.403	0.0147533
770.481	0.0148035
770.559	0.0149920
770.637	0.0147692
770.715	0.0146300
770.793	0.0147093
770.871	0.0149347
770.950	0.0147878
771.028	0.0147967
771.106	0.0148131
771.184	0.0147699
771.262	0.0148878
771.340	0.0148806
771.418	0.0147925
771.496	0.0147758
771.575	0.0147851
771.653	0.0148332
771.731	0.0147780
771.809	0.0148486
771.887	0.0147923
771.965	0.0147973
772.043	0.0146760
772.121	0.0147089
772.200	0.0147028
772.278	0.0147034
772.356	0.0146690
772.434	0.0148393
772.512	0.0148417
772.590	0.0148120
772.668	0.0147763
772.746	0.0148013
772.825	0.0146951
772.903	0.0147418
772.981	0.0147757
773.059	0.0147749
773.137	0.0147270
773.215	0.0147531
773.293	0.0147931
773.371	0.0148970
773.450	0.0147443
773.528	0.0147257
773.606	0.0147871
773.684	0.0147701
773.762	0.0148417
773.840	0.0147754
773.918	0.0148399
773.996	0.0147854
774.075	0.0147704
774.153	0.0147351
774.231	0.0146282
774.309	0.0147765
774.387	0.0147585
774.465	0.0148039
774.543	0.0148732
774.621	0.0147441
774.700	0.0148413
774.778	0.0145859
774.856	0.0145966
774.934	0.0147723
775.012	0.0149026
775.090	0.0147639
775.168	0.0148517
775.246	0.0147356
775.325	0.0147840
775.403	0.0147419
775.481	0.0149349
775.559	0.0147769
775.637	0.0149114
775.715	0.0147851
775.793	0.0146252
775.871	0.0146220
775.950	0.0147800
776.028	0.0148348
776.106	0.0146521
776.184	0.0148062
776.262	0.0147484
776.340	0.0147697
776.418	0.0148352
776.496	0.0147617
776.575	0.0146859
776.653	0.0147008
776.731	0.0146696
776.809	0.0147132
776.887	0.0147868
776.965	0.0146498
777.043	0.0147501
777.121	0.0148310
777.200	0.0148222
777.278	0.0147140
777.356	0.0148071
777.434	0.0147258
777.512	0.0148895
777.590	0.0146964
777.668	0.0146432
777.746	0.0149231
777.825	0.0147789
777.903	0.0147655
777.981	0.0146534
778.059	0.0147568
778.137	0.0147469
778.215	0.0147224
778.293	0.0147961
778.371	0.0148461
778.450	0.0146893
778.528	0.0147005
778.606	0.0148967
778.684	0.0147219
778.762	0.0147222
778.840	0.0146737
778.918	0.0147342
778.996	0.0147193
779.075	0.0146962
779.153	0.0147916
779.231	0.0147163
779.309	0.0147800
779.387	0.0148717
779.465	0.0148457
779.543	0.0145895
779.621	0.0146369
779.700	0.0146428
779.778	0.0148573
779.856	0.0147503
779.934	0.0146739
780.012	0.0147439
780.090	0.0147559
780.168	0.0148476
780.246	0.0146957
780.325	0.0147339
780.403	0.0146336
780.481	0.0145432
780.559	0.0147020
780.637	0.0147717
780.715	0.0145860
780.793	0.0146889
780.871	0.0148009
780.950	0.0147096
781.028	0.0146352
781.106	0.0147979
781.184	0.0146078
781.262	0.0147166
781.340	0.0147094
781.418	0.0147426
781.496	0.0147343
781.575	0.0147327
781.653	0.0146616
781.731	0.0148040
781.809	0.0148627
781.887	0.0148111
781.965	0.0147828
782.043	0.0146928
782.121	0.0146632
782.200	0.0146418
782.278	0.0148040
782.356	0.0147487
782.434	0.0148070
782.512	0.0146233
782.590	0.0148126
782.668	0.0147768
782.746	0.0147036
782.825	0.0147963
782.903	0.0148194
782.981	0.0146628
783.059	0.0147544
783.137	0.0148079
783.215	0.0148262
783.293	0.0148002
783.371	0.0148199
783.450	0.0148510
783.528	0.0148500
783.606	0.0147917
783.684	0.0148196
783.762	0.0150739
783.840	0.0146834
783.918	0.0147605
783.996	0.0146828
784.075	0.0147864
784.153	0.0147435
784.231	0.0148212
784.309	0.0148545
784.387	0.0147896
784.465	0.0147562
784.543	0.0147633
784.621	0.0148814
784.700	0.0147179
784.778	0.0148055
784.856	0.0147109
784.934	0.0148320
785.012	0.0148244
785.090	0.0148212
785.168	0.0148239
785.246	0.0147586
785.325	0.0149069
785.403	0.0148405
785.481	0.0147096
785.559	0.0147684
785.637	0.0147550
785.715	0.0147795
785.793	0.0147957
785.871	0.0147774
785.950	0.0146976
786.028	0.0147011
786.106	0.0148399
786.184	0.0147768
786.262	0.0147546
786.340	0.0148215
786.418	0.0147068
786.496	0.0148893
786.575	0.0147264
786.653	0.0148246
786.731	0.0148733
786.809	0.0146729
786.887	0.0146293
786.965	0.0147533
787.043	0.0148544
787.121	0.0148957
787.200	0.0147736
787.278	0.0148047
787.356	0.0148521
787.434	0.0147450
787.512	0.0147902
787.590	0.0146747
787.668	0.0148372
787.746	0.0148793
787.825	0.0148688
787.903	0.0147150
787.981	0.0147579
788.059	0.0148567
788.137	0.0148068
788.215	0.0148164
788.293	0.0149734
788.371	0.0147838
788.450	0.0147654
788.528	0.0148404
788.606	0.0148064
788.684	0.0146606
788.762	0.0146741
788.840	0.0147047
788.918	0.0147688
788.996	0.0149547
789.075	0.0148819
789.153	0.0148450
789.231	0.0148531
789.309	0.0148734
789.387	0.0148067
789.465	0.0149066
789.543	0.0147264
789.621	0.0148621
789.700	0.0148085
789.778	0.0148056
789.856	0.0147858
789.934	0.0149356
790.012	0.0148046
790.090	0.0148279
790.168	0.0147911
790.246	0.0148384
790.325	0.0149165
790.403	0.0147637
790.481	0.0148693
790.559	0.0148129
790.637	0.0148508
790.715	0.0149811
790.793	0.0149143
790.871	0.0148650
790.950	0.0147622
791.028	0.0148198
791.106	0.0146862
791.184	0.0148102
791.262	0.0148930
791.340	0.0148055
791.418	0.0147858
791.496	0.0148203
791.575	0.0147355
791.653	0.0147839
791.731	0.0148400
791.809	0.0146633
791.887	0.0148392
791.965	0.0147894
792.043	0.0147543
792.121	0.0147768
792.200	0.0146827
792.278	0.0147087
792.356	0.0149003
792.434	0.0147940
792.512	0.0147754
792.590	0.0146811
792.668	0.0146626
792.746	0.0147454
792.825	0.0146165
792.903	0.0147408
792.981	0.0147823
793.059	0.0147694
793.137	0.0148215
793.215	0.0147643
793.293	0.0146885
793.371	0.0146059
793.450	0.0147095
793.528	0.0147197
793.606	0.0147943
793.684	0.0148435
793.762	0.0147210
793.840	0.0147256
793.918	0.0147957
793.996	0.0147685
794.075	0.0148825
794.153	0.0148080
794.231	0.0147208
794.309	0.0146853
794.387	0.0146932
794.465	0.0146786
794.543	0.0147124
794.621	0.0147398
794.700	0.0146997
794.778	0.0149352
794.856	0.0147428
794.934	0.0146646
795.012	0.0147649
795.090	0.0147777
795.168	0.0146394
795.246	0.0147569
795.325	0.0147342
795.403	0.0147694
795.481	0.0146964
795.559	0.0147653
795.637	0.0146824
795.715	0.0147797
795.793	0.0148241
795.871	0.0147234
795.950	0.0148440
796.028	0.0147191
796.106	0.0147108
796.184	0.0147491
796.262	0.0146518
796.340	0.0147179
796.418	0.0147552
796.496	0.0146378
796.575	0.0148087
796.653	0.0146532
796.731	0.0146719
796.809	0.0147978
796.887	0.0146058
796.965	0.0147960
797.043	0.0147257
797.121	0.0146877
797.200	0.0146929
797.278	0.0147871
797.356	0.0148871
797.434	0.0146679
797.512	0.0147651
797.590	0.0148391
797.668	0.0147445
797.746	0.0148439
797.825	0.0148919
797.903	0.0147372
797.981	0.0148052
798.059	0.0148723
798.137	0.0147214
798.215	0.0146027
798.293	0.0147012
798.371	0.0149280
798.450	0.0146617
798.528	0.0147341
798.606	0.0148421
798.684	0.0147788
798.762	0.0148213
798.840	0.0148092
798.918	0.0147947
798.996	0.0147899
799.075	0.0147083
799.153	0.0146461
799.231	0.0148179
799.309	0.0148661
799.387	0.0147772
799.465	0.0148224
799.543	0.0149078
799.621	0.0147928
799.700	0.0147977
799.778	0.0147606
799.856	0.0146802
799.934	0.0147754
800.012	0.0148322
800.090	0.0147798
800.168	0.0148902
800.246	0.0147536
800.325	0.0147350
800.403	0.0146488
800.481	0.0148227
800.559	0.0148460
800.637	0.0147003
800.715	0.0148359
800.793	0.0147435
800.871	0.0146979
800.950	0.0146204
801.028	0.0148016
801.106	0.0148103
801.184	0.0147517
801.262	0.0147538
801.340	0.0147545
801.418	0.0146619
801.496	0.0147916
801.575	0.0147987
801.653	0.0148849
801.731	0.0148015
801.809	0.0146209
801.887	0.0146730
801.965	0.0147895
802.043	0.0148759
802.121	0.0146481
802.200	0.0146837
802.278	0.0148002
802.356	0.0147827
802.434	0.0148107
802.512	0.0147256
802.590	0.0146716
802.668	0.0146609
802.746	0.0147224
802.825	0.0146960
802.903	0.0146951
802.981	0.0148056
803.059	0.0146983
803.137	0.0147336
803.215	0.0146338
803.293	0.0147942
803.371	0.0147953
803.450	0.0146223
803.528	0.0147467
803.606	0.0148020
803.684	0.0147177
803.762	0.0147787
803.840	0.0147926
803.918	0.0147990
803.996	0.0146558
804.075	0.0148410
804.153	0.0149449
804.231	0.0147063
804.309	0.0147269
804.387	0.0147768
804.465	0.0148206
804.543	0.0146769
804.621	0.0147986
804.700	0.0147894
804.778	0.0147728
804.856	0.0146526
804.934	0.0149699
805.012	0.0147282
805.090	0.0147271
805.168	0.0147869
805.246	0.0147108
805.325	0.0147452
805.403	0.0148014
805.481	0.0146841
805.559	0.0145747
805.637	0.0147396
805.715	0.0146819
805.793	0.0147250
805.871	0.0147829
805.950	0.0146813
806.028	0.0148859
806.106	0.0147745
806.184	0.0146764
806.262	0.0147662
806.340	0.0148142
806.418	0.0147451
806.496	0.0147427
806.575	0.0148661
806.653	0.0147858
806.731	0.0146731
806.809	0.0146239
806.887	0.0146223
806.965	0.0146380
807.043	0.0147331
807.121	0.0147363
807.200	0.0147806
807.278	0.0146421
807.356	0.0148447
807.434	0.0147238
807.512	0.0146856
807.590	0.0146657
807.668	0.0148257
807.746	0.0146764
807.825	0.0147881
807.903	0.0148047
807.981	0.0148661
808.059	0.0149054
808.137	0.0147637
808.215	0.0147701
808.293	0.0146993
808.371	0.0147311
808.450	0.0148911
808.528	0.0147710
808.606	0.0148205
808.684	0.0147968
808.762	0.0148036
808.840	0.0147643
808.918	0.0147312
808.996	0.0148524
809.075	0.0148963
809.153	0.0147375
809.231	0.0148642
809.309	0.0148400
809.387	0.0147540
809.465	0.0147603
809.543	0.0148585
809.621	0.0147897
809.700	0.0147743
809.778	0.0148969
809.856	0.0148989
809.934	0.0147733
810.012	0.0149255
810.090	0.0148645
810.168	0.0147679
810.246	0.0148994
810.325	0.0149315
810.403	0.0148080
810.481	0.0147752
810.559	0.0148155
810.637	0.0148730
810.715	0.0148154
810.793	0.0147723
810.871	0.0146913
810.950	0.0146971
811.028	0.0147498
811.106	0.0147422
811.184	0.0147037
811.262	0.0148494
811.340	0.0148701
811.418	0.0147721
811.496	0.0147862
811.575	0.0147165
811.653	0.0148045
811.731	0.0149516
811.809	0.0146986
811.887	0.0146960
811.965	0.0147353
812.043	0.0149816
812.121	0.0148494
812.200	0.0148160
812.278	0.0147522
812.356	0.0147417
812.434	0.0146666
812.512	0.0147633
812.590	0.0146341
812.668	0.0148045
812.746	0.0147784
812.825	0.0150344
812.903	0.0147754
812.981	0.0147883
813.059	0.0147125
813.137	0.0147534
813.215	0.0147588
813.293	0.0147334
813.371	0.0147159
813.450	0.0148958
813.528	0.0148023
813.606	0.0148099
813.684	0.0147440
813.762	0.0147258
813.840	0.0148682
813.918	0.0147319
813.996	0.0147090
814.075	0.0149294
814.153	0.0148848
814.231	0.0147677
814.309	0.0147586
814.387	0.0146819
814.465	0.0147160
814.543	0.0149576
814.621	0.0147522
814.700	0.0149362
814.778	0.0149055
814.856	0.0148175
814.934	0.0149480
815.012	0.0147430
815.090	0.0148872
815.168	0.0148328
815.246	0.0147389
815.325	0.0148349
815.403	0.0147962
815.481	0.0149461
815.559	0.0148126
815.637	0.0148819
815.715	0.0147668
815.793	0.0146671
815.871	0.0146988
815.950	0.0147479
816.028	0.0148751
816.106	0.0148518
816.184	0.0146619
816.262	0.0147443
816.340	0.0147515
816.418	0.0148606
816.496	0.0148400
816.575	0.0148762
816.653	0.0149651
816.731	0.0147490
816.809	0.0149155
816.887	0.0149451
816.965	0.0146526
817.043	0.0147252
817.121	0.0148862
817.200	0.0147261
817.278	0.0147372
817.356	0.0147805
817.434	0.0149368
817.512	0.0147678
817.590	0.0148797
817.668	0.0147771
817.746	0.0147664
817.825	0.0148092
817.903	0.0148460
817.981	0.0146968
818.059	0.0148474
818.137	0.0147100
818.215	0.0146631
818.293	0.0147181
818.371	0.0146924
818.450	0.0147360
818.528	0.0148061
818.606	0.0148023
818.684	0.0148917
818.762	0.0146909
818.840	0.0147732
818.918	0.0148557
818.996	0.0146852
819.075	0.0147364
819.153	0.0146259
819.231	0.0147540
819.309	0.0147722
819.387	0.0146828
819.465	0.0147614
819.543	0.0146867
819.621	0.0147597
819.700	0.0146752
819.778	0.0146967
819.856	0.0147264
819.934	0.0147271
820.012	0.0146712
820.090	0.0147169
820.168	0.0147047
820.246	0.0148141
820.325	0.0148034
820.403	0.0146731
820.481	0.0146949
820.559	0.0147070
820.637	0.0147740
820.715	0.0147151
820.793	0.0146613
820.871	0.0146291
820.950	0.0147631
821.028	0.0147523
821.106	0.0147655
821.184	0.0147994
821.262	0.0147625
821.340	0.0147766
821.418	0.0148795
821.496	0.0147594
821.575	0.0147029
821.653	0.0147023
821.731	0.0148425
821.809	0.0147845
821.887	0.0147945
821.965	0.0147802
822.043	0.0147275
822.121	0.0147081
822.200	0.0147345
822.278	0.0148006
822.356	0.0147614
822.434	0.0147678
822.512	0.0148427
822.590	0.0146636
822.668	0.0146858
822.746	0.0147800
822.825	0.0147213
822.903	0.0146460
822.981	0.0147273
823.059	0.0147445
823.137	0.0147577
823.215	0.0148309
823.293	0.0147370
823.371	0.0146786
823.450	0.0147369
823.528	0.0147668
823.606	0.0146147
823.684	0.0146951
823.762	0.0146873
823.840	0.0147156
823.918	0.0146832
823.996	0.0147833
824.075	0.0147158
824.153	0.0148260
824.231	0.0146308
824.309	0.0146655
824.387	0.0146901
824.465	0.0146173
824.543	0.0147729
824.621	0.0147711
824.700	0.0147756
824.778	0.0148233
824.856	0.0147921
824.934	0.0146337
825.012	0.0147910
825.090	0.0147832
825.168	0.0147713
825.246	0.0147262
825.325	0.0146865
825.403	0.0147718
825.481	0.0146848
825.559	0.0148222
825.637	0.0148557
825.715	0.0147179
825.793	0.0148164
825.871	0.0146983
825.950	0.0146953
826.028	0.0146550
826.106	0.0147198
826.184	0.0146881
826.262	0.0147706
826.340	0.0149109
826.418	0.0148106
826.496	0.0146663
826.575	0.0147525
826.653	0.0148296
826.731	0.0146563
826.809	0.0146666
826.887	0.0147645
826.965	0.0148776
827.043	0.0148324
827.121	0.0148416
827.200	0.0146609
827.278	0.0147261
827.356	0.0148091
827.434	0.0145921
827.512	0.0146777
827.590	0.0147101
827.668	0.0147470
827.746	0.0147839
827.825	0.0147935
827.903	0.0147311
827.981	0.0147698
828.059	0.0147715
828.137	0.0146121
828.215	0.0148706
828.293	0.0148491
828.371	0.0148272
828.450	0.0146021
828.528	0.0147499
828.606	0.0148112
828.684	0.0148837
828.762	0.0147428
828.840	0.0148195
828.918	0.0146867
828.996	0.0147089
829.075	0.0147293
829.153	0.0146728
829.231	0.0146528
829.309	0.0146486
829.387	0.0148978
829.465	0.0146710
829.543	0.0148366
829.621	0.0147051
829.700	0.0146167
829.778	0.0147284
829.856	0.0147572
829.934	0.0147249
830.012	0.0147614
830.090	0.0148143
830.168	0.0146996
830.246	0.0147362
830.325	0.0148167
830.403	0.0148410
830.481	0.0147368
830.559	0.0146710
830.637	0.0146284
830.715	0.0147054
830.793	0.0147286
830.871	0.0147798
830.950	0.0147475
831.028	0.0147636
831.106	0.0148697
831.184	0.0147220
831.262	0.0148196
831.340	0.0146483
831.418	0.0147240
831.496	0.0148731
831.575	0.0147823
831.653	0.0147305
831.731	0.0147794
831.809	0.0147789
831.887	0.0148284
831.965	0.0148095
832.043	0.0147824
832.121	0.0148592
832.200	0.0149046
832.278	0.0149279
832.356	0.0148323
832.434	0.0147350
832.512	0.0148062
832.590	0.0147606
832.668	0.0149132
832.746	0.0148077
832.825	0.0147621
832.903	0.0147194
832.981	0.0146692
833.059	0.0147260
833.137	0.0146492
833.215	0.0147042
833.293	0.0147413
833.371	0.0147784
833.450	0.0147485
833.528	0.0146230
833.606	0.0146027
833.684	0.0147038
833.762	0.0147568
833.840	0.0144814
833.918	0.0145911
833.996	0.0145403
834.075	0.0146640
834.153	0.0146326
834.231	0.0146407
834.309	0.0147488
834.387	0.0146823
834.465	0.0146256
834.543	0.0147675
834.621	0.0148193
834.700	0.0145442
834.778	0.0145802
834.856	0.0147753
834.934	0.0147579
835.012	0.0148000
835.090	0.0147757
835.168	0.0148331
835.246	0.0147926
835.325	0.0147551
835.403	0.0148325
835.481	0.0147768
835.559	0.0147830
835.637	0.0148473
835.715	0.0148297
835.793	0.0146654
835.871	0.0147273
835.950	0.0146279
836.028	0.0146860
836.106	0.0147717
836.184	0.0147596
836.262	0.0147929
836.340	0.0147378
836.418	0.0147247
836.496	0.0147408
836.575	0.0147581
836.653	0.0147661
836.731	0.0147672
836.809	0.0148649
836.887	0.0148549
836.965	0.0146631
837.043	0.0148492
837.121	0.0148042
837.200	0.0148039
837.278	0.0146667
837.356	0.0147010
837.434	0.0148686
837.512	0.0148150
837.590	0.0147379
837.668	0.0148977
837.746	0.0147495
837.825	0.0147859
837.903	0.0147578
837.981	0.0149094
838.059	0.0149792
838.137	0.0148241
838.215	0.0147785
838.293	0.0148148
838.371	0.0148284
838.450	0.0147475
838.528	0.0148284
838.606	0.0148444
838.684	0.0147843
838.762	0.0148415
838.840	0.0148188
838.918	0.0148045
838.996	0.0147498
839.075	0.0148521
839.153	0.0148934
839.231	0.0147459
839.309	0.0148326
839.387	0.0149207
839.465	0.0147247
839.543	0.0148116
839.621	0.0147890
839.700	0.0148886
839.778	0.0146870
839.856	0.0148572
839.934	0.0149673
840.012	0.0148376
840.090	0.0147206
840.168	0.0147488
840.246	0.0148332
840.325	0.0148135
840.403	0.0148817
840.481	0.0147734
840.559	0.0148062
840.637	0.0147699
840.715	0.0148186
840.793	0.0148257
840.871	0.0147100
840.950	0.0147684
841.028	0.0148502
841.106	0.0148465
841.184	0.0147504
841.262	0.0147448
841.340	0.0146867
841.418	0.0147591
841.496	0.0147026
841.575	0.0147087
841.653	0.0147058
841.731	0.0145817
841.809	0.0148177
841.887	0.0146903
841.965	0.0146581
842.043	0.0145949
842.121	0.0146156
842.200	0.0146574
842.278	0.0146872
842.356	0.0146841
842.434	0.0147537
842.512	0.0146763
842.590	0.0146613
842.668	0.0146426
842.746	0.0146980
842.825	0.0146453
842.903	0.0146824
842.981	0.0146035
843.059	0.0146647
843.137	0.0146680
843.215	0.0147266
843.293	0.0146233
843.371	0.0146697
843.450	0.0147762
843.528	0.0146302
843.606	0.0146710
843.684	0.0147223
843.762	0.0147358
843.840	0.0148153
843.918	0.0147625
843.996	0.0147805
844.075	0.0147157
844.153	0.0148663
844.231	0.0147220
844.309	0.0147638
844.387	0.0147706
844.465	0.0146655
844.543	0.0147583
844.621	0.0147804
844.700	0.0147636
844.778	0.0146291
844.856	0.0147968
844.934	0.0148516
845.012	0.0146877
845.090	0.0147272
845.168	0.0147704
845.246	0.0146336
845.325	0.0147485
845.403	0.0149784
845.481	0.0146848
845.559	0.0147557
845.637	0.0146944
845.715	0.0145259
845.793	0.0145984
845.871	0.0148928
845.950	0.0147530
846.028	0.0146661
846.106	0.0145301
846.184	0.0146413
846.262	0.0145825
846.340	0.0146750
846.418	0.0146857
846.496	0.0145703
846.575	0.0146726
846.653	0.0145380
846.731	0.0145447
846.809	0.0147218
846.887	0.0146188
846.965	0.0145834
847.043	0.0147948
847.121	0.0146211
847.200	0.0146360
847.278	0.0147041
847.356	0.0147701
847.434	0.0145654
847.512	0.0146103
847.590	0.0147519
847.668	0.0147661
847.746	0.0147231
847.825	0.0146793
847.903	0.0147117
847.981	0.0147658
848.059	0.0147506
848.137	0.0148394
848.215	0.0147793
848.293	0.0146770
848.371	0.0146915
848.450	0.0149363
848.528	0.0147269
848.606	0.0148177
848.684	0.0147749
848.762	0.0148321
848.840	0.0148396
848.918	0.0147438
848.996	0.0147688
849.075	0.0148508
849.153	0.0147379
849.231	0.0146575
849.309	0.0148077
849.387	0.0149092
849.465	0.0148304
849.543	0.0149061
849.621	0.0148371
849.700	0.0146976
849.778	0.0147683
849.856	0.0148895
849.934	0.0147233
850.012	0.0147380
850.090	0.0147821
850.168	0.0147894
850.246	0.0147374
850.325	0.0147438
850.403	0.0147459
850.481	0.0148080
850.559	0.0147883
850.637	0.0148677
850.715	0.0147488
850.793	0.0146883
850.871	0.0147364
850.950	0.0148564
851.028	0.0147852
851.106	0.0147225
851.184	0.0147268
851.262	0.0147617
851.340	0.0148118
851.418	0.0146828
851.496	0.0147472
851.575	0.0147457
851.653	0.0147327
851.731	0.0147688
851.809	0.0148065
851.887	0.0147498
851.965	0.0149084
852.043	0.0148475
852.121	0.0146526
852.200	0.0148377
852.278	0.0147858
852.356	0.0147187
852.434	0.0146777
852.512	0.0147666
852.590	0.0147653
852.668	0.0148400
852.746	0.0148339
852.825	0.0146943
852.903	0.0148385
852.981	0.0147913
853.059	0.0146934
853.137	0.0146387
853.215	0.0147250
853.293	0.0146613
853.371	0.0148276
853.450	0.0147395
853.528	0.0147402
853.606	0.0147258
853.684	0.0147866
853.762	0.0146558
853.840	0.0148413
853.918	0.0147463
853.996	0.0147546
854.075	0.0148224
854.153	0.0147649
854.231	0.0148369
854.309	0.0147878
854.387	0.0147877
854.465	0.0147344
854.543	0.0146393
854.621	0.0146918
854.700	0.0147704
854.778	0.0147655
854.856	0.0147189
854.934	0.0147699
855.012	0.0147734
855.090	0.0148969
855.168	0.0146240
855.246	0.0146595
855.325	0.0147887
855.403	0.0148291
855.481	0.0148249
855.559	0.0147883
855.637	0.0147339
855.715	0.0146253
855.793	0.0146231
855.871	0.0147034
855.950	0.0147874
856.028	0.0146661
856.106	0.0146719
856.184	0.0147545
856.262	0.0147915
856.340	0.0148590
856.418	0.0147353
856.496	0.0146873
856.575	0.0146579
856.653	0.0147602
856.731	0.0147066
856.809	0.0147697
856.887	0.0147260
856.965	0.0149026
857.043	0.0149032
857.121	0.0146887
857.200	0.0149031
857.278	0.0146497
857.356	0.0147583
857.434	0.0147324
857.512	0.0147229
857.590	0.0147925
857.668	0.0146707
857.746	0.0148080
857.825	0.0147767
857.903	0.0146507
857.981	0.0147469
858.059	0.0147720
858.137	0.0146608
858.215	0.0146931
858.293	0.0148418
858.371	0.0148360
858.450	0.0148848
858.528	0.0149438
858.606	0.0148760
858.684	0.0147292
858.762	0.0147352
858.840	0.0147783
858.918	0.0147894
858.996	0.0148212
859.075	0.0149181
859.153	0.0147561
859.231	0.0148202
859.309	0.0147189
859.387	0.0147765
859.465	0.0149036
859.543	0.0148463
859.621	0.0149622
859.700	0.0148605
859.778	0.0147581
859.856	0.0149181
859.934	0.0148315
860.012	0.0147772
860.090	0.0146869
860.168	0.0147812
860.246	0.0148813
860.325	0.0147541
860.403	0.0147318
860.481	0.0148181
860.559	0.0148257
860.637	0.0148622
860.715	0.0149887
860.793	0.0147839
860.871	0.0147545
860.950	0.0148170
861.028	0.0148014
861.106	0.0149004
861.184	0.0147492
861.262	0.0147907
861.340	0.0147337
861.418	0.0149290
861.496	0.0148232
861.575	0.0148416
861.653	0.0147182
861.731	0.0148682
861.809	0.0148660
861.887	0.0148951
861.965	0.0148571
862.043	0.0148249
862.121	0.0148647
862.200	0.0148054
862.278	0.0147150
862.356	0.0148583
862.434	0.0147549
862.512	0.0148894
862.590	0.0148857
862.668	0.0147767
862.746	0.0148420
862.825	0.0148717
862.903	0.0149102
862.981	0.0148595
863.059	0.0148088
863.137	0.0147541
863.215	0.0147171
863.293	0.0148976
863.371	0.0149254
863.450	0.0148106
863.528	0.0147234
863.606	0.0148701
863.684	0.0147162
863.762	0.0146752
863.840	0.0148283
863.918	0.0146974
863.996	0.0149973
864.075	0.0149597
864.153	0.0148847
864.231	0.0149634
864.309	0.0148853
864.387	0.0147806
864.465	0.0148660
864.543	0.0148233
864.621	0.0148111
864.700	0.0149026
864.778	0.0148840
864.856	0.0148122
864.934	0.0147663
865.012	0.0147277
865.090	0.0146841
865.168	0.0148209
865.246	0.0146610
865.325	0.0148281
865.403	0.0148835
865.481	0.0148386
865.559	0.0147627
865.637	0.0148373
865.715	0.0148116
865.793	0.0147710
865.871	0.0147768
865.950	0.0147550
866.028	0.0146303
866.106	0.0148829
866.184	0.0148893
866.262	0.0147352
866.340	0.0147881
866.418	0.0147643
866.496	0.0147739
866.575	0.0148435
866.653	0.0147831
866.731	0.0147544
866.809	0.0147736
866.887	0.0147554
866.965	0.0147114
867.043	0.0148590
867.121	0.0148088
867.200	0.0146323
867.278	0.0147826
867.356	0.0147361
867.434	0.0146947
867.512	0.0145583
867.590	0.0146864
867.668	0.0148112
867.746	0.0147740
867.825	0.0147877
867.903	0.0146718
867.981	0.0147540
868.059	0.0147664
868.137	0.0147175
868.215	0.0148480
868.293	0.0147610
868.371	0.0147046
868.450	0.0147673
868.528	0.0147238
868.606	0.0148281
868.684	0.0148596
868.762	0.0147620
868.840	0.0149165
868.918	0.0148199
868.996	0.0146769
869.075	0.0146797
869.153	0.0147243
869.231	0.0147688
869.309	0.0147688
869.387	0.0147128
869.465	0.0147128
869.543	0.0148145
869.621	0.0147019
869.700	0.0147050
869.778	0.0148405
869.856	0.0147910
869.934	0.0147427
870.012	0.0147827
870.090	0.0146902
870.168	0.0147157
870.246	0.0147484
870.325	0.0146351
870.403	0.0146948
870.481	0.0148088
870.559	0.0148458
870.637	0.0148154
870.715	0.0146780
870.793	0.0146067
870.871	0.0147900
870.950	0.0146995
871.028	0.0146978
871.106	0.0146953
871.184	0.0148180
871.262	0.0147250
871.340	0.0145911
871.418	0.0146559
871.496	0.0147647
871.575	0.0147013
871.653	0.0147427
871.731	0.0146683
871.809	0.0147279
871.887	0.0147702
871.965	0.0147240
872.043	0.0146547
872.121	0.0146928
872.200	0.0147303
872.278	0.0146239
872.356	0.0147109
872.434	0.0147273
872.512	0.0147789
872.590	0.0147964
872.668	0.0146692
872.746	0.0148108
872.825	0.0147456
872.903	0.0146801
872.981	0.0147469
873.059	0.0147910
873.137	0.0147891
873.215	0.0148646
873.293	0.0146922
873.371	0.0146487
873.450	0.0148850
873.528	0.0147687
873.606	0.0146920
873.684	0.0147549
873.762	0.0148857
873.840	0.0147753
873.918	0.0147604
873.996	0.0147949
874.075	0.0148071
874.153	0.0147176
874.231	0.0147313
874.309	0.0148456
874.387	0.0147070
874.465	0.0148144
874.543	0.0147359
874.621	0.0148547
874.700	0.0148297
874.778	0.0149028
874.856	0.0147138
874.934	0.0147499
875.012	0.0147649
875.090	0.0147425
875.168	0.0147880
875.246	0.0147483
875.325	0.0148049
875.403	0.0148443
875.481	0.0146333
875.559	0.0146542
875.637	0.0148336
875.715	0.0146317
875.793	0.0147070
875.871	0.0147694
875.950	0.0148135
876.028	0.0147808
876.106	0.0149383
876.184	0.0147873
876.262	0.0148016
876.340	0.0148175
876.418	0.0147284
876.496	0.0147743
876.575	0.0148499
876.653	0.0147545
876.731	0.0148610
876.809	0.0147667
876.887	0.0146613
876.965	0.0148396
877.043	0.0146954
877.121	0.0147471
877.200	0.0147914
877.278	0.0147429
877.356	0.0146825
877.434	0.0146573
877.512	0.0147709
877.590	0.0147449
877.668	0.0146955
877.746	0.0147620
877.825	0.0146678
877.903	0.0146467
877.981	0.0147950
878.059	0.0146491
878.137	0.0146584
878.215	0.0147588
878.293	0.0146787
878.371	0.0147478
878.450	0.0148051
878.528	0.0149372
878.606	0.0148003
878.684	0.0147694
878.762	0.0149339
878.840	0.0147991
878.918	0.0148440
878.996	0.0148581
879.075	0.0146783
879.153	0.0147574
879.231	0.0147566
879.309	0.0147335
879.387	0.0148137
879.465	0.0148981
879.543	0.0147476
879.621	0.0148515
879.700	0.0149595
879.778	0.0149208
879.856	0.0147617
879.934	0.0147760
880.012	0.0147086
880.090	0.0147128
880.168	0.0148324
880.246	0.0148361
880.325	0.0148895
880.403	0.0149290
880.481	0.0147415
880.559	0.0147079
880.637	0.0148420
880.715	0.0147609
880.793	0.0147838
880.871	0.0148508
880.950	0.0147639
881.028	0.0147405
881.106	0.0148097
881.184	0.0146761
881.262	0.0148217
881.340	0.0147463
881.418	0.0147087
881.496	0.0147882
881.575	0.0148021
881.653	0.0147045
881.731	0.0146855
881.809	0.0147548
881.887	0.0147573
881.965	0.0148840
882.043	0.0147591
882.121	0.0147400
882.200	0.0148199
882.278	0.0147940
882.356	0.0147446
882.434	0.0148374
882.512	0.0148109
882.590	0.0147935
882.668	0.0148273
882.746	0.0147184
882.825	0.0146792
882.903	0.0147636
882.981	0.0148860
883.059	0.0148405
883.137	0.0148708
883.215	0.0147660
883.293	0.0147694
883.371	0.0148201
883.450	0.0148165
883.528	0.0148344
883.606	0.0148640
883.684	0.0148246
883.762	0.0148731
883.840	0.0147944
883.918	0.0148542
883.996	0.0147116
884.075	0.0148087
884.153	0.0148769
884.231	0.0149911
884.309	0.0148560
884.387	0.0146511
884.465	0.0148484
884.543	0.0147884
884.621	0.0146802
884.700	0.0149187
884.778	0.0148060
884.856	0.0148637
884.934	0.0148306
885.012	0.0147704
885.090	0.0147852
885.168	0.0147871
885.246	0.0148009
885.325	0.0148007
885.403	0.0148774
885.481	0.0148939
885.559	0.0148938
885.637	0.0148129
885.715	0.0148261
885.793	0.0147411
885.871	0.0147328
885.950	0.0148104
886.028	0.0147897
886.106	0.0147736
886.184	0.0147879
886.262	0.0148438
886.340	0.0147528
886.418	0.0148145
886.496	0.0147623
886.575	0.0147419
886.653	0.0146600
886.731	0.0148669
886.809	0.0148022
886.887	0.0147958
886.965	0.0147902
887.043	0.0145951
887.121	0.0147392
887.200	0.0148160
887.278	0.0148383
887.356	0.0147913
887.434	0.0147028
887.512	0.0147861
887.590	0.0148367
887.668	0.0148694
887.746	0.0147340
887.825	0.0148350
887.903	0.0148787
887.981	0.0147474
888.059	0.0147070
888.137	0.0148412
888.215	0.0147217
888.293	0.0148138
888.371	0.0147865
888.450	0.0148420
888.528	0.0147390
888.606	0.0146495
888.684	0.0146484
888.762	0.0147105
888.840	0.0148904
888.918	0.0147818
888.996	0.0148124
889.075	0.0145558
889.153	0.0147856
889.231	0.0148264
889.309	0.0146700
889.387	0.0147146
889.465	0.0147572
889.543	0.0149381
889.621	0.0149490
889.700	0.0147048
889.778	0.0147632
889.856	0.0147942
889.934	0.0146555
890.012	0.0146560
890.090	0.0148254
890.168	0.0148413
890.246	0.0147424
890.325	0.0148192
890.403	0.0148943
890.481	0.0147758
890.559	0.0148435
890.637	0.0147031
890.715	0.0146056
890.793	0.0147068
890.871	0.0148598
890.950	0.0149028
891.028	0.0147768
891.106	0.0147511
891.184	0.0147556
891.262	0.0147832
891.340	0.0146657
891.418	0.0147894
891.496	0.0148235
891.575	0.0149207
891.653	0.0147159
891.731	0.0147453
891.809	0.0147449
891.887	0.0146164
891.965	0.0148399
892.043	0.0147430
892.121	0.0147628
892.200	0.0148516
892.278	0.0147343
892.356	0.0148111
892.434	0.0147829
892.512	0.0148519
892.590	0.0147540
892.668	0.0146869
892.746	0.0146731
892.825	0.0147739
892.903	0.0148638
892.981	0.0147422
893.059	0.0147633
893.137	0.0147375
893.215	0.0146741
893.293	0.0147511
893.371	0.0147095
893.450	0.0148421
893.528	0.0147784
893.606	0.0147496
893.684	0.0147369
893.762	0.0146761
893.840	0.0146404
893.918	0.0147144
893.996	0.0147836
894.075	0.0147866
894.153	0.0147898
894.231	0.0147588
894.309	0.0148988
894.387	0.0147408
894.465	0.0147041
894.543	0.0148066
894.621	0.0148346
894.700	0.0146595
894.778	0.0146440
894.856	0.0148405
894.934	0.0148796
895.012	0.0147990
895.090	0.0147767
895.168	0.0147375
895.246	0.0146661
895.325	0.0147305
895.403	0.0147912
895.481	0.0148496
895.559	0.0147743
895.637	0.0146520
895.715	0.0147227
895.793	0.0147897
895.871	0.0147204
895.950	0.0146334
896.028	0.0148480
896.106	0.0146703
896.184	0.0147396
896.262	0.0146948
896.340	0.0148038
896.418	0.0147525
896.496	0.0148579
896.575	0.0147882
896.653	0.0148131
896.731	0.0147790
896.809	0.0146408
896.887	0.0148019
896.965	0.0146890
897.043	0.0147572
897.121	0.0147590
897.200	0.0146796
897.278	0.0146436
897.356	0.0146938
897.434	0.0147989
897.512	0.0147960
897.590	0.0147354
897.668	0.0147282
897.746	0.0147959
897.825	0.0146967
897.903	0.0145730
897.981	0.0147366
898.059	0.0146755
898.137	0.0147214
898.215	0.0147670
898.293	0.0147506
898.371	0.0147086
898.450	0.0146491
898.528	0.0146920
898.606	0.0146674
898.684	0.0146709
898.762	0.0146870
898.840	0.0145479
898.918	0.0146609
898.996	0.0147277
899.075	0.0147249
899.153	0.0147648
899.231	0.0148168
899.309	0.0146841
899.387	0.0147258
899.465	0.0145752
899.543	0.0146764
899.621	0.0147316
899.700	0.0147029
899.778	0.0146105
899.856	0.0148036
899.934	0.0145740
900.012	0.0146864
900.090	0.0147510
900.168	0.0147089
900.246	0.0147128
900.325	0.0147855
900.403	0.0147371
900.481	0.0147527
900.559	0.0145525
900.637	0.0147099
900.715	0.0148926
900.793	0.0146989
900.871	0.0146090
900.950	0.0147092
901.028	0.0148259
901.106	0.0147817
901.184	0.0148108
901.262	0.0146609
901.340	0.0146095
901.418	0.0147607
901.496	0.0147958
901.575	0.0146992
901.653	0.0145941
901.731	0.0147896
901.809	0.0147322
901.887	0.0147080
901.965	0.0146922
902.043	0.0147129
902.121	0.0148355
902.200	0.0146841
902.278	0.0146678
902.356	0.0148293
902.434	0.0147250
902.512	0.0147296
902.590	0.0146954
902.668	0.0147575
902.746	0.0148114
902.825	0.0148119
902.903	0.0148066
902.981	0.0147387
903.059	0.0147053
903.137	0.0146957
903.215	0.0147449
903.293	0.0146430
903.371	0.0146819
903.450	0.0146420
903.528	0.0146436
903.606	0.0148090
903.684	0.0147511
903.762	0.0148177
903.840	0.0147340
903.918	0.0147433
903.996	0.0147057
904.075	0.0147043
904.153	0.0146982
904.231	0.0147292
904.309	0.0147127
904.387	0.0147271
904.465	0.0147088
904.543	0.0148210
904.621	0.0147857
904.700	0.0148399
904.778	0.0146918
904.856	0.0147930
904.934	0.0147143
905.012	0.0146882
905.090	0.0146766
905.168	0.0148020
905.246	0.0146991
905.325	0.0147515
905.403	0.0148022
905.481	0.0147990
905.559	0.0147229
905.637	0.0148382
905.715	0.0147581
905.793	0.0147564
905.871	0.0147379
905.950	0.0146661
906.028	0.0147645
906.106	0.0146393
906.184	0.0147446
906.262	0.0149199
906.340	0.0148701
906.418	0.0149261
906.496	0.0146997
906.575	0.0148389
906.653	0.0147070
906.731	0.0148897
906.809	0.0148333
906.887	0.0147791
906.965	0.0147225
907.043	0.0146713
907.121	0.0148682
907.200	0.0148215
907.278	0.0148518
907.356	0.0147403
907.434	0.0148993
907.512	0.0147549
907.590	0.0147272
907.668	0.0148111
907.746	0.0147803
907.825	0.0148065
907.903	0.0146497
907.981	0.0148001
908.059	0.0146216
908.137	0.0146998
908.215	0.0148709
908.293	0.0146885
908.371	0.0147679
908.450	0.0147172
908.528	0.0147285
908.606	0.0148255
908.684	0.0147281
908.762	0.0147395
908.840	0.0147391
908.918	0.0148045
908.996	0.0147448
909.075	0.0147829
909.153	0.0147381
909.231	0.0147413
909.309	0.0148239
909.387	0.0148199
909.465	0.0148465
909.543	0.0148680
909.621	0.0147662
909.700	0.0148457
909.778	0.0147872
909.856	0.0147007
909.934	0.0148978
910.012	0.0149471
910.090	0.0148062
910.168	0.0147646
910.246	0.0148401
910.325	0.0147779
910.403	0.0148163
910.481	0.0148317
910.559	0.0147775
910.637	0.0148312
910.715	0.0147775
910.793	0.0149123
910.871	0.0146664
910.950	0.0147095
911.028	0.0147853
911.106	0.0148207
911.184	0.0148003
911.262	0.0148181
911.340	0.0148609
911.418	0.0148372
911.496	0.0147709
911.575	0.0147590
911.653	0.0147118
911.731	0.0147251
911.809	0.0147034
911.887	0.0148146
911.965	0.0148447
912.043	0.0147531
912.121	0.0148251
912.200	0.0146632
912.278	0.0146175
912.356	0.0147643
912.434	0.0148312
912.512	0.0146810
912.590	0.0147371
912.668	0.0149166
912.746	0.0148092
912.825	0.0147616
912.903	0.0147895
912.981	0.0148627
913.059	0.0146214
913.137	0.0147453
913.215	0.0148161
913.293	0.0147818
913.371	0.0147923
913.450	0.0146149
913.528	0.0146491
913.606	0.0147253
913.684	0.0148025
913.762	0.0148023
913.840	0.0147823
913.918	0.0148933
913.996	0.0147775
914.075	0.0146915
914.153	0.0147323
914.231	0.0145499
914.309	0.0146185
914.387	0.0146470
914.465	0.0147607
914.543	0.0146847
914.621	0.0147397
914.700	0.0148163
914.778	0.0148743
914.856	0.0148038
914.934	0.0148654
915.012	0.0147852
915.090	0.0146626
915.168	0.0146743
915.246	0.0149107
915.325	0.0147072
915.403	0.0147455
915.481	0.0146492
915.559	0.0147298
915.637	0.0148196
915.715	0.0147948
915.793	0.0147323
915.871	0.0147829
915.950	0.0147452
916.028	0.0146232
916.106	0.0148005
916.184	0.0147824
916.262	0.0145210
916.340	0.0148416
916.418	0.0147095
916.496	0.0146790
916.575	0.0148019
916.653	0.0148589
916.731	0.0148873
916.809	0.0148260
916.887	0.0147890
916.965	0.0147768
917.043	0.0146656
917.121	0.0147514
917.200	0.0148120
917.278	0.0146963
917.356	0.0146836
917.434	0.0147203
917.512	0.0147514
917.590	0.0146841
917.668	0.0147157
917.746	0.0148019
917.825	0.0148701
917.903	0.0146204
917.981	0.0148331
918.059	0.0147884
918.137	0.0146967
918.215	0.0147688
918.293	0.0146603
918.371	0.0147008
918.450	0.0146986
918.528	0.0145589
918.606	0.0147482
918.684	0.0147751
918.762	0.0147961
918.840	0.0147433
918.918	0.0146652
918.996	0.0146994
919.075	0.0148655
919.153	0.0147063
919.231	0.0148400
919.309	0.0147797
919.387	0.0145995
919.465	0.0147563
919.543	0.0148902
919.621	0.0147569
919.700	0.0147318
919.778	0.0147969
919.856	0.0146230
919.934	0.0146758
920.012	0.0147434
920.090	0.0145612
920.168	0.0148025
920.246	0.0146538
920.325	0.0146615
920.403	0.0145895
920.481	0.0147794
920.559	0.0147346
920.637	0.0147661
920.715	0.0147706
920.793	0.0147119
920.871	0.0146365
920.950	0.0146740
921.028	0.0147414
921.106	0.0147676
921.184	0.0147305
921.262	0.0147057
921.340	0.0146603
921.418	0.0146800
921.496	0.0146920
921.575	0.0145887
921.653	0.0146756
921.731	0.0147017
921.809	0.0146331
921.887	0.0146415
921.965	0.0146654
922.043	0.0147409
922.121	0.0148775
922.200	0.0145685
922.278	0.0146554
922.356	0.0147272
922.434	0.0147709
922.512	0.0146508
922.590	0.0146578
922.668	0.0147392
922.746	0.0146307
922.825	0.0146480
922.903	0.0147770
922.981	0.0145419
923.059	0.0145228
923.137	0.0145981
923.215	0.0146490
923.293	0.0146437
923.371	0.0147046
923.450	0.0145673
923.528	0.0146404
923.606	0.0146918
923.684	0.0148116
923.762	0.0146881
923.840	0.0144917
923.918	0.0146475
923.996	0.0147968
924.075	0.0147361
924.153	0.0147150
924.231	0.0147647
924.309	0.0147188
924.387	0.0147511
924.465	0.0147784
924.543	0.0146889
924.621	0.0146575
924.700	0.0148132
924.778	0.0147771
924.856	0.0148334
924.934	0.0147633
925.012	0.0147006
925.090	0.0148304
925.168	0.0146835
925.246	0.0147643
925.325	0.0147006
925.403	0.0145919
925.481	0.0147239
925.559	0.0148318
925.637	0.0146269
925.715	0.0147301
925.793	0.0148056
925.871	0.0146681
925.950	0.0147681
926.028	0.0146265
926.106	0.0146695
926.184	0.0146869
926.262	0.0147324
926.340	0.0148650
926.418	0.0148073
926.496	0.0147398
926.575	0.0149184
926.653	0.0146676
926.731	0.0147794
926.809	0.0146720
926.887	0.0147784
926.965	0.0147324
927.043	0.0147550
927.121	0.0146156
927.200	0.0147035
927.278	0.0146818
927.356	0.0145933
927.434	0.0147242
927.512	0.0147816
927.590	0.0147091
927.668	0.0148070
927.746	0.0148230
927.825	0.0148270
927.903	0.0147556
927.981	0.0146970
928.059	0.0147420
928.137	0.0147474
928.215	0.0148241
928.293	0.0147859
928.371	0.0146564
928.450	0.0147456
928.528	0.0147578
928.606	0.0146014
928.684	0.0147483
928.762	0.0148206
928.840	0.0147597
928.918	0.0147025
928.996	0.0146816
929.075	0.0145934
929.153	0.0146624
929.231	0.0147192
929.309	0.0148106
929.387	0.0146756
929.465	0.0147169
929.543	0.0147111
929.621	0.0147088
929.700	0.0147099
929.778	0.0147374
929.856	0.0146071
929.934	0.0146896
930.012	0.0148194
930.090	0.0149517
930.168	0.0147929
930.246	0.0147270
930.325	0.0147674
930.403	0.0147224
930.481	0.0147853
930.559	0.0146983
930.637	0.0147763
930.715	0.0148187
930.793	0.0147082
930.871	0.0148080
930.950	0.0147662
931.028	0.0147255
931.106	0.0147217
931.184	0.0148336
931.262	0.0148448
931.340	0.0147713
931.418	0.0147594
931.496	0.0147665
931.575	0.0148424
931.653	0.0148337
931.731	0.0147728
931.809	0.0146782
931.887	0.0148609
931.965	0.0147556
932.043	0.0147454
932.121	0.0147906
932.200	0.0148140
932.278	0.0147092
932.356	0.0148166
932.434	0.0148140
932.512	0.0146564
932.590	0.0148385
932.668	0.0148024
932.746	0.0148024
932.825	0.0146697
932.903	0.0148201
932.981	0.0147326
933.059	0.0147596
933.137	0.0147732
933.215	0.0147718
933.293	0.0147550
933.371	0.0148852
933.450	0.0149222
933.528	0.0148875
933.606	0.0146593
933.684	0.0148046
933.762	0.0149856
933.840	0.0148172
933.918	0.0147848
933.996	0.0148266
934.075	0.0148578
934.153	0.0147824
934.231	0.0147165
934.309	0.0147897
934.387	0.0147453
934.465	0.0148624
934.543	0.0147413
934.621	0.0148774
934.700	0.0147727
934.778	0.0147900
934.856	0.0146313
934.934	0.0148499
935.012	0.0146693
935.090	0.0147846
935.168	0.0146671
935.246	0.0148660
935.325	0.0149087
935.403	0.0147581
935.481	0.0148151
935.559	0.0147610
935.637	0.0146977
935.715	0.0147639
935.793	0.0146759
935.871	0.0146874
935.950	0.0147570
936.028	0.0148983
936.106	0.0149577
936.184	0.0148079
936.262	0.0147758
936.340	0.0148231
936.418	0.0147594
936.496	0.0147891
936.575	0.0148424
936.653	0.0148116
936.731	0.0148012
936.809	0.0147915
936.887	0.0147842
936.965	0.0147487
937.043	0.0146983
937.121	0.0146898
937.200	0.0147948
937.278	0.0147917
937.356	0.0146944
937.434	0.0148258
937.512	0.0148116
937.590	0.0146931
937.668	0.0148691
937.746	0.0149074
937.825	0.0148880
937.903	0.0146957
937.981	0.0148150
938.059	0.0148212
938.137	0.0147932
938.215	0.0149501
938.293	0.0147280
938.371	0.0147093
938.450	0.0147819
938.528	0.0147092
938.606	0.0147217
938.684	0.0147787
938.762	0.0149376
938.840	0.0148097
938.918	0.0147174
938.996	0.0147070
939.075	0.0147997
939.153	0.0148695
939.231	0.0148406
939.309	0.0147590
939.387	0.0148100
939.465	0.0147955
939.543	0.0147079
939.621	0.0148032
939.700	0.0147721
939.778	0.0147985
939.856	0.0147282
939.934	0.0148373
940.012	0.0146745
940.090	0.0147943
940.168	0.0148458
940.246	0.0147155
940.325	0.0148397
940.403	0.0147517
940.481	0.0146507
940.559	0.0147049
940.637	0.0147630
940.715	0.0146390
940.793	0.0147908
940.871	0.0147635
940.950	0.0146766
941.028	0.0147781
941.106	0.0148664
941.184	0.0146927
941.262	0.0147596
941.340	0.0146189
941.418	0.0146010
941.496	0.0147852
941.575	0.0147717
941.653	0.0147205
941.731	0.0147827
941.809	0.0147407
941.887	0.0147144
941.965	0.0148335
942.043	0.0148485
942.121	0.0146198
942.200	0.0145543
942.278	0.0147301
942.356	0.0147805
942.434	0.0148312
942.512	0.0148286
942.590	0.0149168
942.668	0.0146375
942.746	0.0147227
942.825	0.0149112
942.903	0.0147371
942.981	0.0146967
943.059	0.0146442
943.137	0.0148715
943.215	0.0147128
943.293	0.0148392
943.371	0.0147263
943.450	0.0146714
943.528	0.0148384
943.606	0.0148008
943.684	0.0146629
943.762	0.0146503
943.840	0.0147280
943.918	0.0145775
943.996	0.0147163
944.075	0.0147158
944.153	0.0147495
944.231	0.0148045
944.309	0.0148756
944.387	0.0148167
944.465	0.0147945
944.543	0.0147247
944.621	0.0148340
944.700	0.0146122
944.778	0.0147533
944.856	0.0147390
944.934	0.0147086
945.012	0.0147958
945.090	0.0147312
945.168	0.0145537
945.246	0.0146263
945.325	0.0146087
945.403	0.0148214
945.481	0.0147816
945.559	0.0147838
945.637	0.0146616
945.715	0.0147172
945.793	0.0146903
945.871	0.0147861
945.950	0.0147687
946.028	0.0147442
946.106	0.0147512
946.184	0.0146167
946.262	0.0147163
946.340	0.0146438
946.418	0.0147414
946.496	0.0146846
946.575	0.0147942
946.653	0.0147298
946.731	0.0147308
946.809	0.0147039
946.887	0.0148096
946.965	0.0148895
947.043	0.0148525
947.121	0.0147907
947.200	0.0146613
947.278	0.0148302
947.356	0.0147212
947.434	0.0148830
947.512	0.0146358
947.590	0.0146435
947.668	0.0148253
947.746	0.0147704
947.825	0.0146172
947.903	0.0147079
947.981	0.0149113
948.059	0.0149200
948.137	0.0148814
948.215	0.0148168
948.293	0.0148300
948.371	0.0148296
948.450	0.0149171
948.528	0.0148317
948.606	0.0146757
948.684	0.0148014
948.762	0.0147919
948.840	0.0148267
948.918	0.0147958
948.996	0.0147972
949.075	0.0147159
949.153	0.0148032
949.231	0.0148480
949.309	0.0148190
949.387	0.0148511
949.465	0.0146674
949.543	0.0146886
949.621	0.0147948
949.700	0.0147397
949.778	0.0147257
949.856	0.0146752
949.934	0.0147593
950.012	0.0147655
950.090	0.0147111
950.168	0.0147334
950.246	0.0147275
950.325	0.0146803
950.403	0.0147903
950.481	0.0147024
950.559	0.0147238
950.637	0.0146786
950.715	0.0147692
950.793	0.0148298
950.871	0.0147678
950.950	0.0146593
951.028	0.0147372
951.106	0.0147459
951.184	0.0145479
951.262	0.0146992
951.340	0.0147788
951.418	0.0149133
951.496	0.0147433
951.575	0.0146598
951.653	0.0146603
951.731	0.0147401
951.809	0.0147033
951.887	0.0146940
951.965	0.0147263
952.043	0.0147865
952.121	0.0147009
952.200	0.0147586
952.278	0.0147379
952.356	0.0146338
952.434	0.0147086
952.512	0.0147102
952.590	0.0146877
952.668	0.0147078
952.746	0.0148244
952.825	0.0147372
952.903	0.0147581
952.981	0.0147585
953.059	0.0147353
953.137	0.0145826
953.215	0.0148267
953.293	0.0148995
953.371	0.0147318
953.450	0.0147666
953.528	0.0146375
953.606	0.0147366
953.684	0.0148867
953.762	0.0148006
953.840	0.0147385
953.918	0.0147273
953.996	0.0147247
954.075	0.0147482
954.153	0.0148751
954.231	0.0147267
954.309	0.0148643
954.387	0.0146529
954.465	0.0147639
954.543	0.0147668
954.621	0.0148759
954.700	0.0147025
954.778	0.0147623
954.856	0.0147531
954.934	0.0148671
955.012	0.0147879
955.090	0.0148730
955.168	0.0147078
955.246	0.0148470
955.325	0.0148879
955.403	0.0148518
955.481	0.0148494
955.559	0.0149496
955.637	0.0147010
955.715	0.0147133
955.793	0.0148128
955.871	0.0147629
955.950	0.0148580
956.028	0.0148042
956.106	0.0148042
956.184	0.0147382
956.262	0.0147514
956.340	0.0146853
956.418	0.0147839
956.496	0.0146758
956.575	0.0146592
956.653	0.0148170
956.731	0.0147616
956.809	0.0147662
956.887	0.0147752
956.965	0.0148505
957.043	0.0148527
957.121	0.0149043
957.200	0.0148469
957.278	0.0147195
957.356	0.0147749
957.434	0.0148032
957.512	0.0148280
957.590	0.0149351
957.668	0.0149512
957.746	0.0148000
957.825	0.0146564
957.903	0.0147881
957.981	0.0147757
958.059	0.0147115
958.137	0.0149246
958.215	0.0147643
958.293	0.0146840
958.371	0.0146573
958.450	0.0149178
958.528	0.0146198
958.606	0.0147258
958.684	0.0148088
958.762	0.0148309
958.840	0.0149022
958.918	0.0147107
958.996	0.0147577
959.075	0.0147734
959.153	0.0147589
959.231	0.0146945
959.309	0.0148518
959.387	0.0148690
959.465	0.0147372
959.543	0.0149444
959.621	0.0147279
959.700	0.0148444
959.778	0.0147168
959.856	0.0148109
959.934	0.0149162
960.012	0.0147387
960.090	0.0148169
960.168	0.0146581
960.246	0.0147760
960.325	0.0149239
960.403	0.0148970
960.481	0.0149181
960.559	0.0147227
960.637	0.0148126
960.715	0.0148115
960.793	0.0146598
960.871	0.0147988
960.950	0.0147508
961.028	0.0148882
961.106	0.0148733
961.184	0.0147234
961.262	0.0148196
961.340	0.0147904
961.418	0.0146811
961.496	0.0147961
961.575	0.0147784
961.653	0.0147399
961.731	0.0147334
961.809	0.0149317
961.887	0.0148076
961.965	0.0147028
962.043	0.0147953
962.121	0.0148479
962.200	0.0148381
962.278	0.0147696
962.356	0.0146741
962.434	0.0147759
962.512	0.0147816
962.590	0.0146641
962.668	0.0147490
962.746	0.0148134
962.825	0.0147980
962.903	0.0149186
962.981	0.0148151
963.059	0.0146687
963.137	0.0147124
963.215	0.0147724
963.293	0.0147411
963.371	0.0147176
963.450	0.0147057
963.528	0.0147563
963.606	0.0146645
963.684	0.0148013
963.762	0.0148782
963.840	0.0146963
963.918	0.0146807
963.996	0.0146886
964.075	0.0146786
964.153	0.0148249
964.231	0.0148289
964.309	0.0147861
964.387	0.0147305
964.465	0.0148278
964.543	0.0146674
964.621	0.0147204
964.700	0.0147785
964.778	0.0146429
964.856	0.0147407
964.934	0.0147868
965.012	0.0147922
965.090	0.0146896
965.168	0.0147124
965.246	0.0147587
965.325	0.0147222
965.403	0.0147672
965.481	0.0147271
965.559	0.0146413
965.637	0.0148059
965.715	0.0146944
965.793	0.0148309
965.871	0.0147427
965.950	0.0146519
966.028	0.0146946
966.106	0.0146663
966.184	0.0146398
966.262	0.0147038
966.340	0.0147203
966.418	0.0145915
966.496	0.0148111
966.575	0.0146640
966.653	0.0146161
966.731	0.0148256
966.809	0.0147559
966.887	0.0146615
966.965	0.0146976
967.043	0.0149007
967.121	0.0147186
967.200	0.0148518
967.278	0.0146336
967.356	0.0146700
967.434	0.0149199
967.512	0.0147373
967.590	0.0148516
967.668	0.0147317
967.746	0.0146178
967.825	0.0148024
967.903	0.0148209
967.981	0.0147231
968.059	0.0146555
968.137	0.0147333
968.215	0.0147072
968.293	0.0147684
968.371	0.0148477
968.450	0.0148447
968.528	0.0147722
968.606	0.0147935
968.684	0.0146970
968.762	0.0147452
968.840	0.0148811
968.918	0.0147574
968.996	0.0147795
969.075	0.0148856
969.153	0.0148738
969.231	0.0148609
969.309	0.0148291
969.387	0.0147116
969.465	0.0147949
969.543	0.0147162
969.621	0.0146841
969.700	0.0148769
969.778	0.0149046
969.856	0.0147086
969.934	0.0148920
970.012	0.0148363
970.090	0.0147599
970.168	0.0147994
970.246	0.0146750
970.325	0.0148402
970.403	0.0148116
970.481	0.0148548
970.559	0.0146918
970.637	0.0146389
970.715	0.0147428
970.793	0.0147643
970.871	0.0148685
970.950	0.0148245
971.028	0.0147453
971.106	0.0147180
971.184	0.0147389
971.262	0.0147835
971.340	0.0148078
971.418	0.0148860
971.496	0.0147458
971.575	0.0147602
971.653	0.0149142
971.731	0.0148335
971.809	0.0148030
971.887	0.0147524
971.965	0.0147744
972.043	0.0147829
972.121	0.0149604
972.200	0.0148131
972.278	0.0146942
972.356	0.0147901
972.434	0.0147556
972.512	0.0148299
972.590	0.0148144
972.668	0.0148042
972.746	0.0148322
972.825	0.0147939
972.903	0.0147140
972.981	0.0148154
973.059	0.0147298
973.137	0.0147863
973.215	0.0147643
973.293	0.0147996
973.371	0.0148730
973.450	0.0148306
973.528	0.0147681
973.606	0.0149186
973.684	0.0148433
973.762	0.0147687
973.840	0.0146502
973.918	0.0149121
973.996	0.0148583
974.075	0.0148312
974.153	0.0149175
974.231	0.0148217
974.309	0.0148879
974.387	0.0148519
974.465	0.0148387
974.543	0.0148952
974.621	0.0148074
974.700	0.0148286
974.778	0.0148370
974.856	0.0148079
974.934	0.0147090
975.012	0.0147556
975.090	0.0147446
975.168	0.0148154
975.246	0.0148603
975.325	0.0148364
975.403	0.0147330
975.481	0.0147783
975.559	0.0149852
975.637	0.0148680
975.715	0.0148294
975.793	0.0148627
975.871	0.0147695
975.950	0.0148244
976.028	0.0148064
976.106	0.0147536
976.184	0.0148450
976.262	0.0147478
976.340	0.0147815
976.418	0.0148185
976.496	0.0147260
976.575	0.0147292
976.653	0.0148075
976.731	0.0148375
976.809	0.0146867
976.887	0.0147775
976.965	0.0147711
977.043	0.0147388
977.121	0.0147942
977.200	0.0147853
977.278	0.0147239
977.356	0.0147861
977.434	0.0148124
977.512	0.0147669
977.590	0.0148614
977.668	0.0149162
977.746	0.0148936
977.825	0.0148990
977.903	0.0148692
977.981	0.0147661
978.059	0.0148869
978.137	0.0148710
978.215	0.0149348
978.293	0.0147475
978.371	0.0148660
978.450	0.0149741
978.528	0.0146424
978.606	0.0147154
978.684	0.0147279
978.762	0.0147701
978.840	0.0148989
978.918	0.0148524
978.996	0.0148388
979.075	0.0148121
979.153	0.0147755
979.231	0.0148537
979.309	0.0147974
979.387	0.0148410
979.465	0.0146746
979.543	0.0147482
979.621	0.0147735
979.700	0.0147850
979.778	0.0148244
979.856	0.0148630
979.934	0.0147820
980.012	0.0148309
980.090	0.0148636
980.168	0.0147780
980.246	0.0147421
980.325	0.0147155
980.403	0.0148158
980.481	0.0148514
980.559	0.0146687
980.637	0.0147035
980.715	0.0147695
980.793	0.0147732
980.871	0.0148433
980.950	0.0146927
981.028	0.0148199
981.106	0.0149316
981.184	0.0147083
981.262	0.0146967
981.340	0.0146914
981.418	0.0146836
981.496	0.0147242
981.575	0.0146325
981.653	0.0147260
981.731	0.0146864
981.809	0.0147342
981.887	0.0147414
981.965	0.0146623
982.043	0.0146253
982.121	0.0146913
982.200	0.0147134
982.278	0.0148216
982.356	0.0147787
982.434	0.0147351
982.512	0.0147337
982.590	0.0148589
982.668	0.0148442
982.746	0.0147898
982.825	0.0148271
982.903	0.0148083
982.981	0.0148286
983.059	0.0146655
983.137	0.0147551
983.215	0.0147725
983.293	0.0147836
983.371	0.0148674
983.450	0.0147377
983.528	0.0148363
983.606	0.0147899
983.684	0.0148076
983.762	0.0147106
983.840	0.0148345
983.918	0.0148357
983.996	0.0148493
984.075	0.0146893
984.153	0.0146216
984.231	0.0149181
984.309	0.0148756
984.387	0.0146690
984.465	0.0147099
984.543	0.0148569
984.621	0.0147057
984.700	0.0150004
984.778	0.0148531
984.856	0.0148188
984.934	0.0148961
985.012	0.0147900
985.090	0.0148270
985.168	0.0147575
985.246	0.0148491
985.325	0.0148072
985.403	0.0149103
985.481	0.0149036
985.559	0.0148412
985.637	0.0148183
985.715	0.0148302
985.793	0.0146857
985.871	0.0148471
985.950	0.0146497
986.028	0.0148289
986.106	0.0147329
986.184	0.0147141
986.262	0.0146749
986.340	0.0147143
986.418	0.0148106
986.496	0.0147810
986.575	0.0147323
986.653	0.0147336
986.731	0.0147619
986.809	0.0147842
986.887	0.0147944
986.965	0.0148083
987.043	0.0148615
987.121	0.0147812
987.200	0.0147575
987.278	0.0148276
987.356	0.0147808
987.434	0.0147024
987.512	0.0147533
987.590	0.0147003
987.668	0.0148213
987.746	0.0148605
987.825	0.0148660
987.903	0.0148533
987.981	0.0147569
988.059	0.0147521
988.137	0.0147341
988.215	0.0148967
988.293	0.0147099
988.371	0.0147668
988.450	0.0147659
988.528	0.0148189
988.606	0.0147833
988.684	0.0149202
988.762	0.0148051
988.840	0.0147717
988.918	0.0147383
988.996	0.0146531
989.075	0.0147563
989.153	0.0148065
989.231	0.0148378
989.309	0.0148609
989.387	0.0149117
989.465	0.0148354
989.543	0.0148009
989.621	0.0147166
989.700	0.0147802
989.778	0.0146121
989.856	0.0146665
989.934	0.0148386
990.012	0.0147321
990.090	0.0147102
990.168	0.0147189
990.246	0.0145046
990.325	0.0147768
990.403	0.0147009
990.481	0.0145362
990.559	0.0147338
990.637	0.0148750
990.715	0.0147643
990.793	0.0148557
990.871	0.0147356
990.950	0.0145363
991.028	0.0147975
991.106	0.0146040
991.184	0.0147584
991.262	0.0147615
991.340	0.0146828
991.418	0.0147424
991.496	0.0146088
991.575	0.0147153
991.653	0.0147291
991.731	0.0146431
991.809	0.0148953
991.887	0.0147852
991.965	0.0146442
992.043	0.0147838
992.121	0.0147431
992.200	0.0147856
992.278	0.0147813
992.356	0.0146256
992.434	0.0146697
992.512	0.0147659
992.590	0.0147871
992.668	0.0146322
992.746	0.0147763
992.825	0.0147454
992.903	0.0148666
992.981	0.0147329
993.059	0.0147693
993.137	0.0148486
993.215	0.0148120
993.293	0.0146542
993.371	0.0145950
993.450	0.0147575
993.528	0.0148448
993.606	0.0147826
993.684	0.0148242
993.762	0.0146815
993.840	0.0147746
993.918	0.0147276
993.996	0.0148360
994.075	0.0147514
994.153	0.0147485
994.231	0.0148004
994.309	0.0148431
994.387	0.0146403
994.465	0.0148412
994.543	0.0148216
994.621	0.0148584
994.700	0.0147215
994.778	0.0148217
994.856	0.0147279
994.934	0.0147786
995.012	0.0146943
995.090	0.0146941
995.168	0.0147179
995.246	0.0147623
995.325	0.0146971
995.403	0.0148853
995.481	0.0148199
995.559	0.0147808
995.637	0.0146865
995.715	0.0149034
995.793	0.0147590
995.871	0.0147622
995.950	0.0148558
996.028	0.0147984
996.106	0.0145490
996.184	0.0147498
996.262	0.0148973
996.340	0.0147040
996.418	0.0147571
996.496	0.0148347
996.575	0.0147627
996.653	0.0148239
996.731	0.0147961
996.809	0.0148388
996.887	0.0147175
996.965	0.0146999
997.043	0.0148234
997.121	0.0147684
997.200	0.0149257
997.278	0.0147641
997.356	0.0148106
997.434	0.0148824
997.512	0.0147881
997.590	0.0148759
997.668	0.0146871
997.746	0.0147567
997.825	0.0147786
997.903	0.0148104
997.981	0.0146776
998.059	0.0148917
998.137	0.0148155
998.215	0.0147618
998.293	0.0147578
998.371	0.0148304
998.450	0.0146719
998.528	0.0147405
998.606	0.0148161
998.684	0.0148045
998.762	0.0148013
998.840	0.0148859
998.918	0.0149339
