05/04/2022	21:32:18	Ver.	4.1	UNKNOWN
Optical Delay	678.996401	Delta X		0.078125	Sweeps	1	Scan Rate	0/0
Coordinates	Axis 1	NaN	Axis 2	NaN	Axis 3	NaN	Axis 4	NaN	Axis 5	NaN	Axis 6	0.000000
TX Power	0.000000	RX Power	0.000000

678.996	0.0145330
679.075	0.0145523
679.153	0.0146603
679.231	0.0146429
679.309	0.0144632
679.387	0.0146649
679.465	0.0146049
679.543	0.0145092
679.621	0.0146017
679.700	0.0146166
679.778	0.0145826
679.856	0.0146377
679.934	0.0145757
680.012	0.0145580
680.090	0.0145442
680.168	0.0146081
680.246	0.0145305
680.325	0.0145511
680.403	0.0144390
680.481	0.0143895
680.559	0.0144984
680.637	0.0144908
680.715	0.0145320
680.793	0.0144491
680.871	0.0144568
680.950	0.0145691
681.028	0.0146054
681.106	0.0145726
681.184	0.0147145
681.262	0.0145857
681.340	0.0145134
681.418	0.0145779
681.496	0.0145885
681.575	0.0144923
681.653	0.0145815
681.731	0.0145652
681.809	0.0144851
681.887	0.0145753
681.965	0.0146303
682.043	0.0146077
682.121	0.0146324
682.200	0.0144152
682.278	0.0144798
682.356	0.0144202
682.434	0.0144521
682.512	0.0144481
682.590	0.0145426
682.668	0.0146424
682.746	0.0146014
682.825	0.0144218
682.903	0.0145515
682.981	0.0146571
683.059	0.0147115
683.137	0.0146891
683.215	0.0146228
683.293	0.0146716
683.371	0.0145313
683.450	0.0146195
683.528	0.0145307
683.606	0.0145157
683.684	0.0145735
683.762	0.0146380
683.840	0.0147486
683.918	0.0145567
683.996	0.0146311
684.075	0.0145407
684.153	0.0145326
684.231	0.0144264
684.309	0.0144556
684.387	0.0144550
684.465	0.0144336
684.543	0.0145366
684.621	0.0145585
684.700	0.0144574
684.778	0.0144949
684.856	0.0145449
684.934	0.0146750
685.012	0.0147206
685.090	0.0146059
685.168	0.0146159
685.246	0.0147792
685.325	0.0146285
685.403	0.0146055
685.481	0.0148550
685.559	0.0147905
685.637	0.0146404
685.715	0.0146232
685.793	0.0146578
685.871	0.0146375
685.950	0.0147154
686.028	0.0145818
686.106	0.0144639
686.184	0.0145453
686.262	0.0144674
686.340	0.0143971
686.418	0.0143052
686.496	0.0142520
686.575	0.0143517
686.653	0.0143256
686.731	0.0142303
686.809	0.0143570
686.887	0.0143420
686.965	0.0145954
687.043	0.0144433
687.121	0.0144975
687.200	0.0144760
687.278	0.0145773
687.356	0.0146420
687.434	0.0147141
687.512	0.0146850
687.590	0.0147105
687.668	0.0148289
687.746	0.0147992
687.825	0.0148927
687.903	0.0149976
687.981	0.0149542
688.059	0.0150454
688.137	0.0148747
688.215	0.0148727
688.293	0.0148091
688.371	0.0147807
688.450	0.0145097
688.528	0.0144870
688.606	0.0144916
688.684	0.0142272
688.762	0.0141659
688.840	0.0142485
688.918	0.0142042
688.996	0.0141989
689.075	0.0140947
689.153	0.0139627
689.231	0.0141935
689.309	0.0142339
689.387	0.0142194
689.465	0.0142492
689.543	0.0143027
689.621	0.0144470
689.700	0.0145596
689.778	0.0147672
689.856	0.0148850
689.934	0.0148920
690.012	0.0149024
690.090	0.0149405
690.168	0.0149480
690.246	0.0149546
690.325	0.0147469
690.403	0.0150111
690.481	0.0148462
690.559	0.0146775
690.637	0.0147530
690.715	0.0147144
690.793	0.0145901
690.871	0.0145950
690.950	0.0147404
691.028	0.0147543
691.106	0.0147323
691.184	0.0145927
691.262	0.0146927
691.340	0.0146254
691.418	0.0146027
691.496	0.0145525
691.575	0.0144646
691.653	0.0144550
691.731	0.0144207
691.809	0.0143459
691.887	0.0142997
691.965	0.0142464
692.043	0.0143338
692.121	0.0141109
692.200	0.0141589
692.278	0.0141975
692.356	0.0140961
692.434	0.0142133
692.512	0.0142587
692.590	0.0141615
692.668	0.0143575
692.746	0.0145901
692.825	0.0145525
692.903	0.0148042
692.981	0.0148033
693.059	0.0147491
693.137	0.0150459
693.215	0.0150267
693.293	0.0150317
693.371	0.0150739
693.450	0.0149752
693.528	0.0150826
693.606	0.0149728
693.684	0.0147871
693.762	0.0148192
693.840	0.0149515
693.918	0.0150025
693.996	0.0148228
694.075	0.0146866
694.153	0.0148671
694.231	0.0146950
694.309	0.0146709
694.387	0.0146802
694.465	0.0144891
694.543	0.0144892
694.621	0.0142757
694.700	0.0143146
694.778	0.0142675
694.856	0.0141933
694.934	0.0143276
695.012	0.0143356
695.090	0.0141992
695.168	0.0142846
695.246	0.0143544
695.325	0.0142381
695.403	0.0142632
695.481	0.0143640
695.559	0.0144295
695.637	0.0142374
695.715	0.0144136
695.793	0.0144304
695.871	0.0146268
695.950	0.0145650
696.028	0.0147752
696.106	0.0148415
696.184	0.0150484
696.262	0.0152053
696.340	0.0152998
696.418	0.0152384
696.496	0.0152673
696.575	0.0152264
696.653	0.0150003
696.731	0.0151118
696.809	0.0148866
696.887	0.0147369
696.965	0.0147842
697.043	0.0146924
697.121	0.0146431
697.200	0.0145229
697.278	0.0145171
697.356	0.0144869
697.434	0.0143863
697.512	0.0143282
697.590	0.0143906
697.668	0.0143398
697.746	0.0140430
697.825	0.0142468
697.903	0.0142946
697.981	0.0143270
698.059	0.0143884
698.137	0.0142749
698.215	0.0143957
698.293	0.0144415
698.371	0.0144443
698.450	0.0144942
698.528	0.0145380
698.606	0.0145452
698.684	0.0143141
698.762	0.0144190
698.840	0.0143329
698.918	0.0143107
698.996	0.0143381
699.075	0.0143907
699.153	0.0143699
699.231	0.0143346
699.309	0.0145148
699.387	0.0146288
699.465	0.0147216
699.543	0.0146529
699.621	0.0148946
699.700	0.0149711
699.778	0.0149726
699.856	0.0150623
699.934	0.0150687
700.012	0.0149438
700.090	0.0149159
700.168	0.0149471
700.246	0.0149294
700.325	0.0148285
700.403	0.0146920
700.481	0.0145992
700.559	0.0144745
700.637	0.0144953
700.715	0.0144576
700.793	0.0143412
700.871	0.0141968
700.950	0.0141720
701.028	0.0142905
701.106	0.0141227
701.184	0.0141468
701.262	0.0142560
701.340	0.0142990
701.418	0.0143472
701.496	0.0144264
701.575	0.0145898
701.653	0.0147427
701.731	0.0146248
701.809	0.0148769
701.887	0.0148011
701.965	0.0147717
702.043	0.0150169
702.121	0.0146648
702.200	0.0146829
702.278	0.0147627
702.356	0.0146105
702.434	0.0146180
702.512	0.0146988
702.590	0.0147079
702.668	0.0146864
702.746	0.0145885
702.825	0.0146278
702.903	0.0146551
702.981	0.0147513
703.059	0.0147717
703.137	0.0147807
703.215	0.0147625
703.293	0.0147446
703.371	0.0146082
703.450	0.0145422
703.528	0.0146084
703.606	0.0147130
703.684	0.0145508
703.762	0.0145075
703.840	0.0146643
703.918	0.0144812
703.996	0.0143598
704.075	0.0144671
704.153	0.0143594
704.231	0.0142670
704.309	0.0144421
704.387	0.0143042
704.465	0.0142252
704.543	0.0144324
704.621	0.0144788
704.700	0.0145490
704.778	0.0145443
704.856	0.0146521
704.934	0.0147038
705.012	0.0146720
705.090	0.0145821
705.168	0.0146358
705.246	0.0146295
705.325	0.0145377
705.403	0.0144604
705.481	0.0145286
705.559	0.0145313
705.637	0.0144402
705.715	0.0145335
705.793	0.0145541
705.871	0.0144765
705.950	0.0145706
706.028	0.0146456
706.106	0.0148084
706.184	0.0147372
706.262	0.0147902
706.340	0.0150655
706.418	0.0149658
706.496	0.0149213
706.575	0.0147839
706.653	0.0146871
706.731	0.0147311
706.809	0.0146079
706.887	0.0145013
706.965	0.0144510
707.043	0.0144990
707.121	0.0144626
707.200	0.0143932
707.278	0.0143787
707.356	0.0142772
707.434	0.0143588
707.512	0.0145227
707.590	0.0144714
707.668	0.0145536
707.746	0.0145137
707.825	0.0146127
707.903	0.0146380
707.981	0.0144846
708.059	0.0146724
708.137	0.0148114
708.215	0.0148208
708.293	0.0145594
708.371	0.0147157
708.450	0.0145847
708.528	0.0146122
708.606	0.0146495
708.684	0.0144979
708.762	0.0145357
708.840	0.0145161
708.918	0.0146840
708.996	0.0144786
709.075	0.0146719
709.153	0.0146888
709.231	0.0146151
709.309	0.0147345
709.387	0.0146793
709.465	0.0147209
709.543	0.0146065
709.621	0.0146665
709.700	0.0145267
709.778	0.0143616
709.856	0.0144267
709.934	0.0145927
710.012	0.0143862
710.090	0.0144026
710.168	0.0144831
710.246	0.0145621
710.325	0.0144250
710.403	0.0145064
710.481	0.0145945
710.559	0.0145047
710.637	0.0144529
710.715	0.0146849
710.793	0.0148354
710.871	0.0147404
710.950	0.0146603
711.028	0.0147728
711.106	0.0148396
711.184	0.0149002
711.262	0.0148180
711.340	0.0147288
711.418	0.0147713
711.496	0.0146696
711.575	0.0145553
711.653	0.0144167
711.731	0.0143935
711.809	0.0144274
711.887	0.0144543
711.965	0.0145080
712.043	0.0144328
712.121	0.0145575
712.200	0.0146491
712.278	0.0146263
712.356	0.0146623
712.434	0.0147765
712.512	0.0147218
712.590	0.0146382
712.668	0.0145799
712.746	0.0144419
712.825	0.0144331
712.903	0.0146046
712.981	0.0145646
713.059	0.0144765
713.137	0.0143926
713.215	0.0145268
713.293	0.0144726
713.371	0.0144508
713.450	0.0145674
713.528	0.0145203
713.606	0.0144313
713.684	0.0145311
713.762	0.0145837
713.840	0.0146455
713.918	0.0147550
713.996	0.0148024
714.075	0.0146586
714.153	0.0146696
714.231	0.0146706
714.309	0.0146976
714.387	0.0145890
714.465	0.0146444
714.543	0.0144901
714.621	0.0145952
714.700	0.0145278
714.778	0.0145908
714.856	0.0146138
714.934	0.0146072
715.012	0.0146789
715.090	0.0145052
715.168	0.0144952
715.246	0.0144933
715.325	0.0146420
715.403	0.0146784
715.481	0.0145726
715.559	0.0145257
715.637	0.0146178
715.715	0.0145151
715.793	0.0144666
715.871	0.0143911
715.950	0.0143742
716.028	0.0145081
716.106	0.0143681
716.184	0.0143877
716.262	0.0145219
716.340	0.0144718
716.418	0.0144317
716.496	0.0144095
716.575	0.0145280
716.653	0.0144170
716.731	0.0145782
716.809	0.0145137
716.887	0.0145327
716.965	0.0146412
717.043	0.0145811
717.121	0.0145325
717.200	0.0146783
717.278	0.0146432
717.356	0.0146207
717.434	0.0146241
717.512	0.0147640
717.590	0.0146603
717.668	0.0146987
717.746	0.0145893
717.825	0.0146473
717.903	0.0146727
717.981	0.0144711
718.059	0.0145186
718.137	0.0144177
718.215	0.0147208
718.293	0.0145661
718.371	0.0146085
718.450	0.0147051
718.528	0.0146513
718.606	0.0148170
718.684	0.0147531
718.762	0.0147099
718.840	0.0147550
718.918	0.0149203
718.996	0.0147991
719.075	0.0147901
719.153	0.0147678
719.231	0.0145897
719.309	0.0146854
719.387	0.0148050
719.465	0.0147437
719.543	0.0146290
719.621	0.0145526
719.700	0.0145533
719.778	0.0144611
719.856	0.0145152
719.934	0.0144392
720.012	0.0145586
720.090	0.0146394
720.168	0.0145728
720.246	0.0145542
720.325	0.0145292
720.403	0.0144721
720.481	0.0145200
720.559	0.0144831
720.637	0.0146259
720.715	0.0144781
720.793	0.0147137
720.871	0.0145112
720.950	0.0144128
721.028	0.0145034
721.106	0.0144241
721.184	0.0144625
721.262	0.0145782
721.340	0.0147134
721.418	0.0144283
721.496	0.0145125
721.575	0.0147041
721.653	0.0146584
721.731	0.0145216
721.809	0.0145934
721.887	0.0146678
721.965	0.0147607
722.043	0.0145409
722.121	0.0146388
722.200	0.0147001
722.278	0.0147095
722.356	0.0148406
722.434	0.0147659
722.512	0.0148328
722.590	0.0147707
722.668	0.0146613
722.746	0.0148286
722.825	0.0148855
722.903	0.0147843
722.981	0.0144535
723.059	0.0146634
723.137	0.0147375
723.215	0.0146088
723.293	0.0144954
723.371	0.0144213
723.450	0.0144866
723.528	0.0144041
723.606	0.0144390
723.684	0.0143842
723.762	0.0144193
723.840	0.0143224
723.918	0.0143759
723.996	0.0144662
724.075	0.0144984
724.153	0.0145396
724.231	0.0146001
724.309	0.0146035
724.387	0.0144452
724.465	0.0146902
724.543	0.0147414
724.621	0.0145252
724.700	0.0146033
724.778	0.0146729
724.856	0.0147822
724.934	0.0147649
725.012	0.0145300
725.090	0.0148547
725.168	0.0148162
725.246	0.0146067
725.325	0.0146591
725.403	0.0147703
725.481	0.0146442
725.559	0.0147121
725.637	0.0147192
725.715	0.0146242
725.793	0.0146430
725.871	0.0146240
725.950	0.0145852
726.028	0.0146332
726.106	0.0145993
726.184	0.0146143
726.262	0.0146247
726.340	0.0145847
726.418	0.0144342
726.496	0.0144908
726.575	0.0145393
726.653	0.0144551
726.731	0.0143828
726.809	0.0145033
726.887	0.0144968
726.965	0.0144936
727.043	0.0145835
727.121	0.0146067
727.200	0.0145765
727.278	0.0146056
727.356	0.0144882
727.434	0.0144256
727.512	0.0144896
727.590	0.0146510
727.668	0.0145300
727.746	0.0145150
727.825	0.0144224
727.903	0.0144708
727.981	0.0145852
728.059	0.0145120
728.137	0.0145312
728.215	0.0145336
728.293	0.0145179
728.371	0.0146400
728.450	0.0147067
728.528	0.0145763
728.606	0.0145763
728.684	0.0146281
728.762	0.0145750
728.840	0.0147025
728.918	0.0145931
728.996	0.0146432
729.075	0.0148942
729.153	0.0147943
729.231	0.0146493
729.309	0.0146864
729.387	0.0146635
729.465	0.0146814
729.543	0.0146935
729.621	0.0145644
729.700	0.0148048
729.778	0.0146054
729.856	0.0146614
729.934	0.0145065
730.012	0.0144176
730.090	0.0145306
730.168	0.0144372
730.246	0.0144899
730.325	0.0143998
730.403	0.0145856
730.481	0.0144431
730.559	0.0145583
730.637	0.0145987
730.715	0.0143375
730.793	0.0144595
730.871	0.0145173
730.950	0.0145683
731.028	0.0146030
731.106	0.0144497
731.184	0.0143684
731.262	0.0143668
731.340	0.0145364
731.418	0.0144340
731.496	0.0144428
731.575	0.0143821
731.653	0.0144831
731.731	0.0145574
731.809	0.0146200
731.887	0.0146218
731.965	0.0145284
732.043	0.0145356
732.121	0.0147161
732.200	0.0147309
732.278	0.0148289
732.356	0.0146546
732.434	0.0147729
732.512	0.0146976
732.590	0.0148280
732.668	0.0147313
732.746	0.0146899
732.825	0.0146866
732.903	0.0146554
732.981	0.0147604
733.059	0.0145916
733.137	0.0146793
733.215	0.0145890
733.293	0.0143745
733.371	0.0145940
733.450	0.0144795
733.528	0.0145503
733.606	0.0143888
733.684	0.0143279
733.762	0.0143729
733.840	0.0143221
733.918	0.0143636
733.996	0.0143189
734.075	0.0143909
734.153	0.0143398
734.231	0.0141682
734.309	0.0143892
734.387	0.0144401
734.465	0.0143908
734.543	0.0144176
734.621	0.0145385
734.700	0.0145612
734.778	0.0145036
734.856	0.0145834
734.934	0.0145869
735.012	0.0147019
735.090	0.0146522
735.168	0.0147382
735.246	0.0148147
735.325	0.0146535
735.403	0.0146000
735.481	0.0148112
735.559	0.0147330
735.637	0.0146684
735.715	0.0146677
735.793	0.0146358
735.871	0.0146419
735.950	0.0147506
736.028	0.0147045
736.106	0.0145091
736.184	0.0146260
736.262	0.0145683
736.340	0.0144955
736.418	0.0143449
736.496	0.0145293
736.575	0.0145443
736.653	0.0144531
736.731	0.0143689
736.809	0.0144195
736.887	0.0143774
736.965	0.0144036
737.043	0.0146414
737.121	0.0144511
737.200	0.0144416
737.278	0.0144506
737.356	0.0143671
737.434	0.0145099
737.512	0.0145812
737.590	0.0146008
737.668	0.0146189
737.746	0.0145435
737.825	0.0146459
737.903	0.0148729
737.981	0.0147141
738.059	0.0145108
738.137	0.0145609
738.215	0.0146650
738.293	0.0145688
738.371	0.0147414
738.450	0.0147092
738.528	0.0144677
738.606	0.0145118
738.684	0.0146350
738.762	0.0145827
738.840	0.0145421
738.918	0.0146760
738.996	0.0144961
739.075	0.0144015
739.153	0.0146492
739.231	0.0146091
739.309	0.0146452
739.387	0.0145514
739.465	0.0144748
739.543	0.0147031
739.621	0.0146980
739.700	0.0144774
739.778	0.0146571
739.856	0.0146284
739.934	0.0145667
740.012	0.0145833
740.090	0.0144838
740.168	0.0146342
740.246	0.0146575
740.325	0.0145928
740.403	0.0146044
740.481	0.0147545
740.559	0.0146506
740.637	0.0145358
740.715	0.0146100
740.793	0.0145721
740.871	0.0145948
740.950	0.0146841
741.028	0.0145831
741.106	0.0145155
741.184	0.0144897
741.262	0.0145848
741.340	0.0145837
741.418	0.0145844
741.496	0.0144571
741.575	0.0146514
741.653	0.0146696
741.731	0.0145934
741.809	0.0146085
741.887	0.0146593
741.965	0.0145927
742.043	0.0148010
742.121	0.0146473
742.200	0.0148569
742.278	0.0147335
742.356	0.0146889
742.434	0.0149162
742.512	0.0147075
742.590	0.0146742
742.668	0.0147086
742.746	0.0146117
742.825	0.0146741
742.903	0.0146797
742.981	0.0145504
743.059	0.0145489
743.137	0.0146819
743.215	0.0145019
743.293	0.0145511
743.371	0.0145883
743.450	0.0144765
743.528	0.0143930
743.606	0.0143964
743.684	0.0144727
743.762	0.0144077
743.840	0.0143197
743.918	0.0143585
743.996	0.0143008
744.075	0.0143175
744.153	0.0142200
744.231	0.0144255
744.309	0.0145462
744.387	0.0143934
744.465	0.0145596
744.543	0.0145001
744.621	0.0146234
744.700	0.0145911
744.778	0.0147141
744.856	0.0146693
744.934	0.0148215
745.012	0.0148063
745.090	0.0147266
745.168	0.0146609
745.246	0.0147286
745.325	0.0149404
745.403	0.0147726
745.481	0.0147369
745.559	0.0147278
745.637	0.0148260
745.715	0.0146653
745.793	0.0146410
745.871	0.0146787
745.950	0.0145071
746.028	0.0146141
746.106	0.0146501
746.184	0.0145497
746.262	0.0144876
746.340	0.0144070
746.418	0.0144133
746.496	0.0144608
746.575	0.0145272
746.653	0.0143071
746.731	0.0143409
746.809	0.0144301
746.887	0.0145067
746.965	0.0143618
747.043	0.0144653
747.121	0.0145194
747.200	0.0144194
747.278	0.0144630
747.356	0.0146188
747.434	0.0146244
747.512	0.0146889
747.590	0.0145827
747.668	0.0146559
747.746	0.0144535
747.825	0.0147295
747.903	0.0146422
747.981	0.0147188
748.059	0.0146909
748.137	0.0145872
748.215	0.0145518
748.293	0.0145635
748.371	0.0146404
748.450	0.0145879
748.528	0.0145249
748.606	0.0144490
748.684	0.0146754
748.762	0.0147273
748.840	0.0146970
748.918	0.0144786
748.996	0.0143842
749.075	0.0145674
749.153	0.0145744
749.231	0.0146574
749.309	0.0146614
749.387	0.0144883
749.465	0.0145460
749.543	0.0147011
749.621	0.0146500
749.700	0.0147094
749.778	0.0146544
749.856	0.0145853
749.934	0.0145925
750.012	0.0147161
750.090	0.0147041
750.168	0.0146490
750.246	0.0147747
750.325	0.0145866
750.403	0.0145565
750.481	0.0146561
750.559	0.0146143
750.637	0.0145706
750.715	0.0145687
750.793	0.0144096
750.871	0.0143680
750.950	0.0145345
751.028	0.0145255
751.106	0.0145077
751.184	0.0144995
751.262	0.0144633
751.340	0.0144659
751.418	0.0144865
751.496	0.0144912
751.575	0.0145191
751.653	0.0145461
751.731	0.0143855
751.809	0.0144163
751.887	0.0145640
751.965	0.0146393
752.043	0.0144410
752.121	0.0145161
752.200	0.0146227
752.278	0.0145850
752.356	0.0145808
752.434	0.0147116
752.512	0.0147307
752.590	0.0147569
752.668	0.0147174
752.746	0.0146796
752.825	0.0148138
752.903	0.0146597
752.981	0.0146873
753.059	0.0147031
753.137	0.0147873
753.215	0.0147270
753.293	0.0147359
753.371	0.0146603
753.450	0.0147964
753.528	0.0148165
753.606	0.0145921
753.684	0.0145696
753.762	0.0146144
753.840	0.0144988
753.918	0.0145206
753.996	0.0146586
754.075	0.0145407
754.153	0.0144737
754.231	0.0145167
754.309	0.0144569
754.387	0.0145995
754.465	0.0145953
754.543	0.0145503
754.621	0.0145861
754.700	0.0147224
754.778	0.0145982
754.856	0.0145649
754.934	0.0145509
755.012	0.0144926
755.090	0.0145750
755.168	0.0145781
755.246	0.0146442
755.325	0.0145377
755.403	0.0146565
755.481	0.0146229
755.559	0.0147086
755.637	0.0145670
755.715	0.0146766
755.793	0.0147631
755.871	0.0146832
755.950	0.0146194
756.028	0.0146330
756.106	0.0145317
756.184	0.0146394
756.262	0.0145717
756.340	0.0144218
756.418	0.0145058
756.496	0.0144539
756.575	0.0145993
756.653	0.0144851
756.731	0.0143645
756.809	0.0144370
756.887	0.0144375
756.965	0.0144589
757.043	0.0144167
757.121	0.0145435
757.200	0.0145805
757.278	0.0144919
757.356	0.0144951
757.434	0.0146459
757.512	0.0144479
757.590	0.0145601
757.668	0.0145392
757.746	0.0145795
757.825	0.0146104
757.903	0.0145318
757.981	0.0146622
758.059	0.0146468
758.137	0.0145914
758.215	0.0146113
758.293	0.0146124
758.371	0.0145957
758.450	0.0146817
758.528	0.0145931
758.606	0.0145083
758.684	0.0146548
758.762	0.0145454
758.840	0.0145048
758.918	0.0144847
758.996	0.0144879
759.075	0.0145118
759.153	0.0144883
759.231	0.0146307
759.309	0.0144461
759.387	0.0144238
759.465	0.0145156
759.543	0.0144323
759.621	0.0144198
759.700	0.0144698
759.778	0.0144944
759.856	0.0145461
759.934	0.0144322
760.012	0.0145173
760.090	0.0145638
760.168	0.0143898
760.246	0.0145789
760.325	0.0146328
760.403	0.0145458
760.481	0.0147335
760.559	0.0145988
760.637	0.0144208
760.715	0.0146206
760.793	0.0146356
760.871	0.0147214
760.950	0.0146449
761.028	0.0146020
761.106	0.0146779
761.184	0.0146095
761.262	0.0144902
761.340	0.0145555
761.418	0.0145112
761.496	0.0144887
761.575	0.0146394
761.653	0.0145493
761.731	0.0144323
761.809	0.0146010
761.887	0.0145529
761.965	0.0145991
762.043	0.0145519
762.121	0.0144862
762.200	0.0145671
762.278	0.0146938
762.356	0.0145636
762.434	0.0145726
762.512	0.0145159
762.590	0.0145302
762.668	0.0146646
762.746	0.0146788
762.825	0.0145647
762.903	0.0145995
762.981	0.0146654
763.059	0.0145386
763.137	0.0144622
763.215	0.0143747
763.293	0.0145448
763.371	0.0143230
763.450	0.0144571
763.528	0.0144466
763.606	0.0144234
763.684	0.0142601
763.762	0.0144289
763.840	0.0144244
763.918	0.0143668
763.996	0.0144512
764.075	0.0144699
764.153	0.0144542
764.231	0.0145792
764.309	0.0144118
764.387	0.0144688
764.465	0.0145936
764.543	0.0144653
764.621	0.0146234
764.700	0.0146295
764.778	0.0146636
764.856	0.0146331
764.934	0.0145579
765.012	0.0146601
765.090	0.0145969
765.168	0.0145712
765.246	0.0147358
765.325	0.0145573
765.403	0.0144434
765.481	0.0146545
765.559	0.0146700
765.637	0.0144902
765.715	0.0146375
765.793	0.0145702
765.871	0.0144868
765.950	0.0146055
766.028	0.0143893
766.106	0.0146131
766.184	0.0145580
766.262	0.0144770
766.340	0.0144653
766.418	0.0145636
766.496	0.0145420
766.575	0.0146197
766.653	0.0144790
766.731	0.0145605
766.809	0.0146317
766.887	0.0146802
766.965	0.0145127
767.043	0.0145336
767.121	0.0146412
767.200	0.0146384
767.278	0.0145284
767.356	0.0146647
767.434	0.0145734
767.512	0.0146799
767.590	0.0145710
767.668	0.0145155
767.746	0.0146049
767.825	0.0145286
767.903	0.0146401
767.981	0.0145670
768.059	0.0145554
768.137	0.0146240
768.215	0.0146851
768.293	0.0144199
768.371	0.0145954
768.450	0.0145247
768.528	0.0145280
768.606	0.0145383
768.684	0.0146584
768.762	0.0145084
768.840	0.0145005
768.918	0.0146785
768.996	0.0146912
769.075	0.0145397
769.153	0.0144401
769.231	0.0146165
769.309	0.0145148
769.387	0.0145763
769.465	0.0145757
769.543	0.0146311
769.621	0.0145912
769.700	0.0145957
769.778	0.0145853
769.856	0.0145986
769.934	0.0145638
770.012	0.0145776
770.090	0.0146261
770.168	0.0146242
770.246	0.0145532
770.325	0.0146078
770.403	0.0146728
770.481	0.0145909
770.559	0.0146558
770.637	0.0147255
770.715	0.0147196
770.793	0.0146920
770.871	0.0146887
770.950	0.0146518
771.028	0.0145392
771.106	0.0145592
771.184	0.0146117
771.262	0.0147023
771.340	0.0147337
771.418	0.0146240
771.496	0.0145948
771.575	0.0146055
771.653	0.0145609
771.731	0.0146547
771.809	0.0146262
771.887	0.0146886
771.965	0.0145621
772.043	0.0145930
772.121	0.0145148
772.200	0.0146510
772.278	0.0146307
772.356	0.0144733
772.434	0.0145159
772.512	0.0146258
772.590	0.0145790
772.668	0.0144601
772.746	0.0146049
772.825	0.0146400
772.903	0.0146352
772.981	0.0144344
773.059	0.0144736
773.137	0.0146699
773.215	0.0145664
773.293	0.0145220
773.371	0.0145955
773.450	0.0146798
773.528	0.0147105
773.606	0.0145452
773.684	0.0146509
773.762	0.0146448
773.840	0.0147033
773.918	0.0147559
773.996	0.0146976
774.075	0.0146669
774.153	0.0147246
774.231	0.0147245
774.309	0.0146767
774.387	0.0148200
774.465	0.0146119
774.543	0.0146204
774.621	0.0146570
774.700	0.0146566
774.778	0.0145563
774.856	0.0146221
774.934	0.0145797
775.012	0.0145335
775.090	0.0145742
775.168	0.0146011
775.246	0.0145902
775.325	0.0145619
775.403	0.0144553
775.481	0.0145873
775.559	0.0144801
775.637	0.0145023
775.715	0.0145283
775.793	0.0144650
775.871	0.0145678
775.950	0.0147437
776.028	0.0146981
776.106	0.0145078
776.184	0.0144935
776.262	0.0145795
776.340	0.0146886
776.418	0.0145871
776.496	0.0146507
776.575	0.0146207
776.653	0.0145742
776.731	0.0146470
776.809	0.0147253
776.887	0.0145843
776.965	0.0145918
777.043	0.0146387
777.121	0.0146198
777.200	0.0145002
777.278	0.0145438
777.356	0.0146526
777.434	0.0146286
777.512	0.0146571
777.590	0.0146809
777.668	0.0146709
777.746	0.0147095
777.825	0.0147000
777.903	0.0145812
777.981	0.0146188
778.059	0.0146768
778.137	0.0145931
778.215	0.0145650
778.293	0.0146236
778.371	0.0147038
778.450	0.0146115
778.528	0.0144289
778.606	0.0144881
778.684	0.0145659
778.762	0.0144756
778.840	0.0147073
778.918	0.0147282
778.996	0.0145406
779.075	0.0144407
779.153	0.0145747
779.231	0.0146209
779.309	0.0145466
779.387	0.0145890
779.465	0.0146278
779.543	0.0146482
779.621	0.0146862
779.700	0.0146053
779.778	0.0145707
779.856	0.0146102
779.934	0.0145327
780.012	0.0145422
780.090	0.0144735
780.168	0.0146908
780.246	0.0145212
780.325	0.0145471
780.403	0.0144919
780.481	0.0146102
780.559	0.0146369
780.637	0.0145375
780.715	0.0146251
780.793	0.0145464
780.871	0.0145140
780.950	0.0145831
781.028	0.0146165
781.106	0.0145686
781.184	0.0145846
781.262	0.0145305
781.340	0.0145784
781.418	0.0146479
781.496	0.0145812
781.575	0.0145562
781.653	0.0146469
781.731	0.0145879
781.809	0.0146098
781.887	0.0146130
781.965	0.0146569
782.043	0.0146307
782.121	0.0145196
782.200	0.0145858
782.278	0.0146577
782.356	0.0146230
782.434	0.0146311
782.512	0.0144245
782.590	0.0145337
782.668	0.0146317
782.746	0.0147065
782.825	0.0146566
782.903	0.0146373
782.981	0.0146154
783.059	0.0147589
783.137	0.0147199
783.215	0.0145551
783.293	0.0145746
783.371	0.0145351
783.450	0.0146825
783.528	0.0146614
783.606	0.0145058
783.684	0.0146034
783.762	0.0146447
783.840	0.0145720
783.918	0.0146172
783.996	0.0145699
784.075	0.0145449
784.153	0.0144856
784.231	0.0145284
784.309	0.0145316
784.387	0.0146021
784.465	0.0145804
784.543	0.0145406
784.621	0.0146327
784.700	0.0147260
784.778	0.0144753
784.856	0.0147102
784.934	0.0145538
785.012	0.0145282
785.090	0.0145008
785.168	0.0146270
785.246	0.0144982
785.325	0.0145347
785.403	0.0146014
785.481	0.0146156
785.559	0.0145357
785.637	0.0146487
785.715	0.0145356
785.793	0.0146029
785.871	0.0145721
785.950	0.0146610
786.028	0.0146191
786.106	0.0146369
786.184	0.0146894
786.262	0.0146185
786.340	0.0146758
786.418	0.0146831
786.496	0.0146092
786.575	0.0146775
786.653	0.0147106
786.731	0.0146525
786.809	0.0145217
786.887	0.0145337
786.965	0.0145130
787.043	0.0145472
787.121	0.0145786
787.200	0.0146529
787.278	0.0145774
787.356	0.0144868
787.434	0.0144615
787.512	0.0144302
787.590	0.0146337
787.668	0.0145151
787.746	0.0146201
787.825	0.0146158
787.903	0.0144515
787.981	0.0145125
788.059	0.0145934
788.137	0.0145352
788.215	0.0144981
788.293	0.0144672
788.371	0.0144966
788.450	0.0144757
788.528	0.0144528
788.606	0.0145365
788.684	0.0146313
788.762	0.0145951
788.840	0.0145512
788.918	0.0144880
788.996	0.0145782
789.075	0.0145538
789.153	0.0146433
789.231	0.0145997
789.309	0.0146779
789.387	0.0146146
789.465	0.0146229
789.543	0.0146279
789.621	0.0146178
789.700	0.0146214
789.778	0.0146667
789.856	0.0145068
789.934	0.0144877
790.012	0.0145572
790.090	0.0146926
790.168	0.0146026
790.246	0.0145162
790.325	0.0145548
790.403	0.0145383
790.481	0.0144846
790.559	0.0145132
790.637	0.0146030
790.715	0.0145112
790.793	0.0145238
790.871	0.0143726
790.950	0.0144344
791.028	0.0144944
791.106	0.0145358
791.184	0.0144676
791.262	0.0144823
791.340	0.0144231
791.418	0.0146688
791.496	0.0145861
791.575	0.0144667
791.653	0.0144870
791.731	0.0146980
791.809	0.0145892
791.887	0.0146414
791.965	0.0147125
792.043	0.0145300
792.121	0.0146114
792.200	0.0146892
792.278	0.0145701
792.356	0.0145798
792.434	0.0145775
792.512	0.0145759
792.590	0.0146674
792.668	0.0144901
792.746	0.0146716
792.825	0.0145467
792.903	0.0146956
792.981	0.0146059
793.059	0.0145288
793.137	0.0145744
793.215	0.0148220
793.293	0.0145864
793.371	0.0145344
793.450	0.0145042
793.528	0.0145899
793.606	0.0146389
793.684	0.0145642
793.762	0.0144159
793.840	0.0145625
793.918	0.0144873
793.996	0.0145315
794.075	0.0145950
794.153	0.0144302
794.231	0.0145641
794.309	0.0146623
794.387	0.0145285
794.465	0.0145522
794.543	0.0145952
794.621	0.0146195
794.700	0.0147452
794.778	0.0147121
794.856	0.0146093
794.934	0.0146395
795.012	0.0146439
795.090	0.0145991
795.168	0.0145831
795.246	0.0147072
795.325	0.0146695
795.403	0.0146365
795.481	0.0146538
795.559	0.0145985
795.637	0.0147459
795.715	0.0146770
795.793	0.0143874
795.871	0.0145182
795.950	0.0145534
796.028	0.0144359
796.106	0.0145847
796.184	0.0147006
796.262	0.0144794
796.340	0.0144200
796.418	0.0145023
796.496	0.0145993
796.575	0.0145004
796.653	0.0145946
796.731	0.0145508
796.809	0.0146257
796.887	0.0145791
796.965	0.0145724
797.043	0.0145249
797.121	0.0146889
797.200	0.0146128
797.278	0.0147172
797.356	0.0146046
797.434	0.0147102
797.512	0.0146508
797.590	0.0144209
797.668	0.0145762
797.746	0.0146220
797.825	0.0145600
797.903	0.0145928
797.981	0.0146293
798.059	0.0145339
798.137	0.0147061
798.215	0.0145868
798.293	0.0146646
798.371	0.0147583
798.450	0.0145088
798.528	0.0145303
798.606	0.0146839
798.684	0.0146343
798.762	0.0145374
798.840	0.0146381
798.918	0.0145313
798.996	0.0145788
799.075	0.0145251
799.153	0.0145063
799.231	0.0144413
799.309	0.0144957
799.387	0.0144185
799.465	0.0145169
799.543	0.0145902
799.621	0.0145727
799.700	0.0145344
799.778	0.0145353
799.856	0.0145538
799.934	0.0146053
800.012	0.0145355
800.090	0.0145064
800.168	0.0146081
800.246	0.0145844
800.325	0.0146796
800.403	0.0147623
800.481	0.0145735
800.559	0.0146542
800.637	0.0146330
800.715	0.0145896
800.793	0.0145068
800.871	0.0146305
800.950	0.0146375
801.028	0.0145493
801.106	0.0145139
801.184	0.0145680
801.262	0.0147198
801.340	0.0145997
801.418	0.0145815
801.496	0.0146638
801.575	0.0146029
801.653	0.0145970
801.731	0.0145976
801.809	0.0146664
801.887	0.0146971
801.965	0.0144746
802.043	0.0147483
802.121	0.0145689
802.200	0.0147434
802.278	0.0147266
802.356	0.0144128
802.434	0.0146025
802.512	0.0145515
802.590	0.0146598
802.668	0.0147006
802.746	0.0146403
802.825	0.0145184
802.903	0.0146284
802.981	0.0146114
803.059	0.0146155
803.137	0.0146045
803.215	0.0144928
803.293	0.0147054
803.371	0.0144893
803.450	0.0146157
803.528	0.0147174
803.606	0.0145920
803.684	0.0146397
803.762	0.0144884
803.840	0.0145428
803.918	0.0146170
803.996	0.0145060
804.075	0.0144335
804.153	0.0146050
804.231	0.0145383
804.309	0.0144865
804.387	0.0145296
804.465	0.0147187
804.543	0.0145638
804.621	0.0146053
804.700	0.0147900
804.778	0.0147117
804.856	0.0146928
804.934	0.0145966
805.012	0.0145911
805.090	0.0145616
805.168	0.0146677
805.246	0.0145609
805.325	0.0144968
805.403	0.0145693
805.481	0.0147224
805.559	0.0146521
805.637	0.0146247
805.715	0.0145969
805.793	0.0144928
805.871	0.0145304
805.950	0.0145860
806.028	0.0144603
806.106	0.0145615
806.184	0.0147086
806.262	0.0146387
806.340	0.0145461
806.418	0.0145160
806.496	0.0145287
806.575	0.0145345
806.653	0.0146221
806.731	0.0146633
806.809	0.0144917
806.887	0.0145484
806.965	0.0145653
807.043	0.0145477
807.121	0.0146516
807.200	0.0144742
807.278	0.0145686
807.356	0.0146303
807.434	0.0146350
807.512	0.0146819
807.590	0.0143954
807.668	0.0145856
807.746	0.0146649
807.825	0.0145882
807.903	0.0146169
807.981	0.0147236
808.059	0.0146349
808.137	0.0145880
808.215	0.0146439
808.293	0.0145020
808.371	0.0144015
808.450	0.0145001
808.528	0.0145795
808.606	0.0146101
808.684	0.0146463
808.762	0.0145612
808.840	0.0145724
808.918	0.0146724
808.996	0.0146368
809.075	0.0145605
809.153	0.0146409
809.231	0.0145311
809.309	0.0145737
809.387	0.0146266
809.465	0.0146202
809.543	0.0146476
809.621	0.0146342
809.700	0.0145415
809.778	0.0146214
809.856	0.0146539
809.934	0.0145884
810.012	0.0147362
810.090	0.0146317
810.168	0.0145874
810.246	0.0145213
810.325	0.0146828
810.403	0.0145796
810.481	0.0146175
810.559	0.0146139
810.637	0.0146035
810.715	0.0145953
810.793	0.0146494
810.871	0.0146709
810.950	0.0146257
811.028	0.0145883
811.106	0.0145933
811.184	0.0145985
811.262	0.0146922
811.340	0.0145081
811.418	0.0145567
811.496	0.0146873
811.575	0.0146129
811.653	0.0144104
811.731	0.0143166
811.809	0.0144948
811.887	0.0145792
811.965	0.0145879
812.043	0.0145807
812.121	0.0146315
812.200	0.0143950
812.278	0.0145500
812.356	0.0145423
812.434	0.0147485
812.512	0.0144948
812.590	0.0145007
812.668	0.0146206
812.746	0.0146001
812.825	0.0145757
812.903	0.0145179
812.981	0.0146069
813.059	0.0146138
813.137	0.0146915
813.215	0.0145778
813.293	0.0146394
813.371	0.0145628
813.450	0.0144964
813.528	0.0146599
813.606	0.0145415
813.684	0.0145792
813.762	0.0146137
813.840	0.0145760
813.918	0.0144914
813.996	0.0146029
814.075	0.0144771
814.153	0.0146489
814.231	0.0144541
814.309	0.0144110
814.387	0.0145267
814.465	0.0145950
814.543	0.0144985
814.621	0.0146011
814.700	0.0144759
814.778	0.0144340
814.856	0.0145768
814.934	0.0147350
815.012	0.0145029
815.090	0.0146333
815.168	0.0146523
815.246	0.0146768
815.325	0.0146429
815.403	0.0147321
815.481	0.0146573
815.559	0.0146194
815.637	0.0147516
815.715	0.0146732
815.793	0.0144818
815.871	0.0144599
815.950	0.0145432
816.028	0.0146518
816.106	0.0146020
816.184	0.0144828
816.262	0.0145596
816.340	0.0145684
816.418	0.0145885
816.496	0.0146147
816.575	0.0145187
816.653	0.0144266
816.731	0.0145633
816.809	0.0143855
816.887	0.0145864
816.965	0.0144908
817.043	0.0144051
817.121	0.0145712
817.200	0.0145307
817.278	0.0145067
817.356	0.0144209
817.434	0.0144444
817.512	0.0145143
817.590	0.0146206
817.668	0.0146829
817.746	0.0146126
817.825	0.0145535
817.903	0.0146660
817.981	0.0145858
818.059	0.0145149
818.137	0.0145616
818.215	0.0147147
818.293	0.0146521
818.371	0.0146161
818.450	0.0144888
818.528	0.0146482
818.606	0.0146040
818.684	0.0145415
818.762	0.0146018
818.840	0.0146873
818.918	0.0146122
818.996	0.0146413
819.075	0.0144990
819.153	0.0145851
819.231	0.0145782
819.309	0.0146381
819.387	0.0147087
819.465	0.0143530
819.543	0.0145572
819.621	0.0146736
819.700	0.0146107
819.778	0.0145715
819.856	0.0145139
819.934	0.0144771
820.012	0.0146146
820.090	0.0145433
820.168	0.0147690
820.246	0.0147653
820.325	0.0145760
820.403	0.0146319
820.481	0.0145725
820.559	0.0144710
820.637	0.0145971
820.715	0.0144157
820.793	0.0144572
820.871	0.0146568
820.950	0.0147447
821.028	0.0145466
821.106	0.0143658
821.184	0.0146870
821.262	0.0146298
821.340	0.0145139
821.418	0.0146732
821.496	0.0145048
821.575	0.0147044
821.653	0.0146404
821.731	0.0144615
821.809	0.0144916
821.887	0.0146902
821.965	0.0145398
822.043	0.0144573
822.121	0.0145451
822.200	0.0146310
822.278	0.0145773
822.356	0.0145346
822.434	0.0145764
822.512	0.0145453
822.590	0.0145843
822.668	0.0145142
822.746	0.0144160
822.825	0.0145538
822.903	0.0145924
822.981	0.0146191
823.059	0.0145044
823.137	0.0145166
823.215	0.0146737
823.293	0.0146350
823.371	0.0146236
823.450	0.0148289
823.528	0.0147001
823.606	0.0145811
823.684	0.0146549
823.762	0.0148878
823.840	0.0148116
823.918	0.0147021
823.996	0.0147160
824.075	0.0146749
824.153	0.0146034
824.231	0.0146640
824.309	0.0147536
824.387	0.0147147
824.465	0.0145692
824.543	0.0145017
824.621	0.0145544
824.700	0.0145605
824.778	0.0145556
824.856	0.0144431
824.934	0.0145165
825.012	0.0144903
825.090	0.0145484
825.168	0.0145692
825.246	0.0143700
825.325	0.0145039
825.403	0.0145537
825.481	0.0144839
825.559	0.0147713
825.637	0.0147549
825.715	0.0146633
825.793	0.0148819
825.871	0.0147083
825.950	0.0147394
826.028	0.0146583
826.106	0.0147078
826.184	0.0146901
826.262	0.0146961
826.340	0.0146813
826.418	0.0147413
826.496	0.0147830
826.575	0.0146954
826.653	0.0146982
826.731	0.0146688
826.809	0.0145420
826.887	0.0145727
826.965	0.0146771
827.043	0.0145181
827.121	0.0145469
827.200	0.0144341
827.278	0.0144838
827.356	0.0145715
827.434	0.0145167
827.512	0.0144633
827.590	0.0146769
827.668	0.0145859
827.746	0.0146365
827.825	0.0146030
827.903	0.0146061
827.981	0.0146694
828.059	0.0147650
828.137	0.0147092
828.215	0.0146263
828.293	0.0146796
828.371	0.0146453
828.450	0.0146777
828.528	0.0146815
828.606	0.0147906
828.684	0.0147166
828.762	0.0147390
828.840	0.0146772
828.918	0.0146006
828.996	0.0147826
829.075	0.0146362
829.153	0.0146130
829.231	0.0146712
829.309	0.0145441
829.387	0.0146612
829.465	0.0146435
829.543	0.0146778
829.621	0.0146513
829.700	0.0147073
829.778	0.0146635
829.856	0.0145876
829.934	0.0146180
830.012	0.0146609
830.090	0.0146760
830.168	0.0147344
830.246	0.0145229
830.325	0.0145849
830.403	0.0145575
830.481	0.0147356
830.559	0.0145588
830.637	0.0145017
830.715	0.0145714
830.793	0.0147035
830.871	0.0145898
830.950	0.0145207
831.028	0.0146950
831.106	0.0145533
831.184	0.0146341
831.262	0.0147092
831.340	0.0146952
831.418	0.0145789
831.496	0.0146642
831.575	0.0146573
831.653	0.0146280
831.731	0.0145958
831.809	0.0147598
831.887	0.0148072
831.965	0.0146545
832.043	0.0146578
832.121	0.0146513
832.200	0.0146410
832.278	0.0147525
832.356	0.0147942
832.434	0.0145955
832.512	0.0145215
832.590	0.0146784
832.668	0.0145150
832.746	0.0144893
832.825	0.0145394
832.903	0.0146033
832.981	0.0147167
833.059	0.0145284
833.137	0.0145908
833.215	0.0146055
833.293	0.0145776
833.371	0.0145141
833.450	0.0145300
833.528	0.0145475
833.606	0.0146201
833.684	0.0146592
833.762	0.0144055
833.840	0.0147163
833.918	0.0146214
833.996	0.0145925
834.075	0.0145779
834.153	0.0146621
834.231	0.0146966
834.309	0.0146275
834.387	0.0146088
834.465	0.0146495
834.543	0.0146873
834.621	0.0145898
834.700	0.0146564
834.778	0.0146478
834.856	0.0145459
834.934	0.0147123
835.012	0.0147272
835.090	0.0146353
835.168	0.0147351
835.246	0.0145758
835.325	0.0145716
835.403	0.0146185
835.481	0.0146485
835.559	0.0145813
835.637	0.0145014
835.715	0.0145470
835.793	0.0145741
835.871	0.0146045
835.950	0.0145522
836.028	0.0144684
836.106	0.0145143
836.184	0.0145300
836.262	0.0143929
836.340	0.0144841
836.418	0.0145647
836.496	0.0144112
836.575	0.0145281
836.653	0.0144874
836.731	0.0145325
836.809	0.0145094
836.887	0.0145903
836.965	0.0145480
837.043	0.0146626
837.121	0.0145844
837.200	0.0147095
837.278	0.0146336
837.356	0.0146474
837.434	0.0147077
837.512	0.0146400
837.590	0.0147229
837.668	0.0145924
837.746	0.0146459
837.825	0.0148222
837.903	0.0146571
837.981	0.0146141
838.059	0.0146937
838.137	0.0146163
838.215	0.0145777
838.293	0.0145627
838.371	0.0147528
838.450	0.0147019
838.528	0.0145707
838.606	0.0146000
838.684	0.0145770
838.762	0.0146828
838.840	0.0144999
838.918	0.0145794
838.996	0.0147292
839.075	0.0145860
839.153	0.0145527
839.231	0.0145424
839.309	0.0146808
839.387	0.0145912
839.465	0.0143998
839.543	0.0147801
839.621	0.0145467
839.700	0.0145390
839.778	0.0145912
839.856	0.0145050
839.934	0.0144581
840.012	0.0145125
840.090	0.0145683
840.168	0.0144027
840.246	0.0145277
840.325	0.0145782
840.403	0.0144755
840.481	0.0146272
840.559	0.0145357
840.637	0.0146408
840.715	0.0147139
840.793	0.0146722
840.871	0.0146783
840.950	0.0146481
841.028	0.0144343
841.106	0.0145248
841.184	0.0146416
841.262	0.0144458
841.340	0.0144465
841.418	0.0144492
841.496	0.0143969
841.575	0.0144743
841.653	0.0144318
841.731	0.0146210
841.809	0.0145128
841.887	0.0145363
841.965	0.0145924
842.043	0.0146672
842.121	0.0145922
842.200	0.0146451
842.278	0.0143774
842.356	0.0146149
842.434	0.0145963
842.512	0.0145817
842.590	0.0146249
842.668	0.0145575
842.746	0.0144974
842.825	0.0146287
842.903	0.0145732
842.981	0.0146812
843.059	0.0146925
843.137	0.0145123
843.215	0.0145693
843.293	0.0145782
843.371	0.0145320
843.450	0.0144242
843.528	0.0145305
843.606	0.0144324
843.684	0.0144669
843.762	0.0146159
843.840	0.0145005
843.918	0.0145062
843.996	0.0146521
844.075	0.0146894
844.153	0.0146143
844.231	0.0146164
844.309	0.0145875
844.387	0.0144973
844.465	0.0145834
844.543	0.0146922
844.621	0.0145744
844.700	0.0144537
844.778	0.0146790
844.856	0.0145769
844.934	0.0146350
845.012	0.0145378
845.090	0.0146092
845.168	0.0145440
845.246	0.0145979
845.325	0.0145997
845.403	0.0145277
845.481	0.0146011
845.559	0.0145277
845.637	0.0144718
845.715	0.0144457
845.793	0.0145010
845.871	0.0145840
845.950	0.0145440
846.028	0.0145338
846.106	0.0144782
846.184	0.0145973
846.262	0.0146040
846.340	0.0145038
846.418	0.0146359
846.496	0.0146277
846.575	0.0145954
846.653	0.0145425
846.731	0.0145306
846.809	0.0145992
846.887	0.0146751
846.965	0.0145761
847.043	0.0145036
847.121	0.0145407
847.200	0.0144531
847.278	0.0146355
847.356	0.0146426
847.434	0.0147679
847.512	0.0145298
847.590	0.0145241
847.668	0.0144972
847.746	0.0144704
847.825	0.0145269
847.903	0.0146509
847.981	0.0145337
848.059	0.0144740
848.137	0.0146485
848.215	0.0145789
848.293	0.0145151
848.371	0.0144788
848.450	0.0145979
848.528	0.0146415
848.606	0.0145341
848.684	0.0144747
848.762	0.0144997
848.840	0.0146381
848.918	0.0145454
848.996	0.0145540
849.075	0.0146358
849.153	0.0145824
849.231	0.0146687
849.309	0.0146815
849.387	0.0146167
849.465	0.0147362
849.543	0.0144373
849.621	0.0144082
849.700	0.0146355
849.778	0.0145566
849.856	0.0145591
849.934	0.0144315
850.012	0.0146170
850.090	0.0146159
850.168	0.0145873
850.246	0.0144547
850.325	0.0144696
850.403	0.0148086
850.481	0.0146842
850.559	0.0145385
850.637	0.0146165
850.715	0.0145372
850.793	0.0145083
850.871	0.0146828
850.950	0.0145354
851.028	0.0146488
851.106	0.0146687
851.184	0.0145920
851.262	0.0146140
851.340	0.0146481
851.418	0.0146310
851.496	0.0145656
851.575	0.0144595
851.653	0.0145595
851.731	0.0145927
851.809	0.0145113
851.887	0.0145620
851.965	0.0145191
852.043	0.0145334
852.121	0.0145858
852.200	0.0145052
852.278	0.0145783
852.356	0.0145432
852.434	0.0145226
852.512	0.0146196
852.590	0.0146204
852.668	0.0146177
852.746	0.0145418
852.825	0.0143896
852.903	0.0145623
852.981	0.0145714
853.059	0.0145982
853.137	0.0144714
853.215	0.0144453
853.293	0.0145155
853.371	0.0145100
853.450	0.0146590
853.528	0.0145357
853.606	0.0145905
853.684	0.0145132
853.762	0.0145436
853.840	0.0145386
853.918	0.0145676
853.996	0.0145244
854.075	0.0145335
854.153	0.0144758
854.231	0.0146258
854.309	0.0146277
854.387	0.0145890
854.465	0.0145709
854.543	0.0146074
854.621	0.0145267
854.700	0.0144381
854.778	0.0146870
854.856	0.0147067
854.934	0.0146024
855.012	0.0146365
855.090	0.0146734
855.168	0.0146142
855.246	0.0144915
855.325	0.0145819
855.403	0.0146304
855.481	0.0146233
855.559	0.0145081
855.637	0.0145753
855.715	0.0145397
855.793	0.0146448
855.871	0.0145370
855.950	0.0144576
856.028	0.0145242
856.106	0.0146397
856.184	0.0146405
856.262	0.0147153
856.340	0.0145094
856.418	0.0145325
856.496	0.0146350
856.575	0.0146542
856.653	0.0146393
856.731	0.0146475
856.809	0.0144822
856.887	0.0145948
856.965	0.0146743
857.043	0.0146363
857.121	0.0145811
857.200	0.0145416
857.278	0.0145258
857.356	0.0145341
857.434	0.0146878
857.512	0.0147672
857.590	0.0146107
857.668	0.0146320
857.746	0.0146059
857.825	0.0145987
857.903	0.0145961
857.981	0.0146382
858.059	0.0145901
858.137	0.0145609
858.215	0.0146871
858.293	0.0145683
858.371	0.0145705
858.450	0.0145016
858.528	0.0145972
858.606	0.0145483
858.684	0.0145482
858.762	0.0145530
858.840	0.0144093
858.918	0.0145082
858.996	0.0146351
859.075	0.0146655
859.153	0.0146117
859.231	0.0146427
859.309	0.0144754
859.387	0.0144814
859.465	0.0145475
859.543	0.0144389
859.621	0.0145927
859.700	0.0144553
859.778	0.0146183
859.856	0.0146963
859.934	0.0144905
860.012	0.0146432
860.090	0.0146272
860.168	0.0145725
860.246	0.0144972
860.325	0.0146353
860.403	0.0146358
860.481	0.0145774
860.559	0.0145649
860.637	0.0146276
860.715	0.0145435
860.793	0.0145187
860.871	0.0145695
860.950	0.0145061
861.028	0.0145062
861.106	0.0144516
861.184	0.0146323
861.262	0.0143784
861.340	0.0144033
861.418	0.0145129
861.496	0.0145243
861.575	0.0144405
861.653	0.0145146
861.731	0.0145169
861.809	0.0145164
861.887	0.0145286
861.965	0.0145576
862.043	0.0143599
862.121	0.0144135
862.200	0.0144638
862.278	0.0145586
862.356	0.0146133
862.434	0.0146754
862.512	0.0145890
862.590	0.0145403
862.668	0.0144566
862.746	0.0145967
862.825	0.0144585
862.903	0.0146043
862.981	0.0146361
863.059	0.0146645
863.137	0.0146712
863.215	0.0145294
863.293	0.0145987
863.371	0.0145995
863.450	0.0145332
863.528	0.0146127
863.606	0.0146143
863.684	0.0145332
863.762	0.0145124
863.840	0.0147463
863.918	0.0145599
863.996	0.0146011
864.075	0.0146727
864.153	0.0146998
864.231	0.0145625
864.309	0.0146139
864.387	0.0146140
864.465	0.0145933
864.543	0.0145716
864.621	0.0145933
864.700	0.0146492
864.778	0.0145945
864.856	0.0146482
864.934	0.0145989
865.012	0.0146872
865.090	0.0145978
865.168	0.0146540
865.246	0.0147742
865.325	0.0145463
865.403	0.0146064
865.481	0.0145896
865.559	0.0145678
865.637	0.0145618
865.715	0.0144684
865.793	0.0144892
865.871	0.0145774
865.950	0.0144938
866.028	0.0145259
866.106	0.0146576
866.184	0.0146439
866.262	0.0145066
866.340	0.0145144
866.418	0.0146072
866.496	0.0145842
866.575	0.0146973
866.653	0.0146391
866.731	0.0146989
866.809	0.0146472
866.887	0.0146645
866.965	0.0145602
867.043	0.0146907
867.121	0.0145376
867.200	0.0146307
867.278	0.0147289
867.356	0.0145618
867.434	0.0145897
867.512	0.0144999
867.590	0.0145591
867.668	0.0145334
867.746	0.0145957
867.825	0.0146198
867.903	0.0145193
867.981	0.0145728
868.059	0.0146580
868.137	0.0145255
868.215	0.0146349
868.293	0.0147750
868.371	0.0145161
868.450	0.0146680
868.528	0.0146331
868.606	0.0145167
868.684	0.0145808
868.762	0.0146571
868.840	0.0145309
868.918	0.0145522
868.996	0.0145336
869.075	0.0146568
869.153	0.0145473
869.231	0.0145645
869.309	0.0146120
869.387	0.0145847
869.465	0.0145948
869.543	0.0146535
869.621	0.0147644
869.700	0.0145848
869.778	0.0146366
869.856	0.0147978
869.934	0.0145757
870.012	0.0145641
870.090	0.0145965
870.168	0.0147525
870.246	0.0147140
870.325	0.0146561
870.403	0.0146558
870.481	0.0147071
870.559	0.0147085
870.637	0.0146324
870.715	0.0145713
870.793	0.0146626
870.871	0.0145110
870.950	0.0144846
871.028	0.0145204
871.106	0.0145302
871.184	0.0145976
871.262	0.0146368
871.340	0.0145370
871.418	0.0145940
871.496	0.0144952
871.575	0.0146162
871.653	0.0144463
871.731	0.0144777
871.809	0.0145789
871.887	0.0145424
871.965	0.0144482
872.043	0.0146696
872.121	0.0145086
872.200	0.0144527
872.278	0.0145893
872.356	0.0145538
872.434	0.0145570
872.512	0.0145110
872.590	0.0143507
872.668	0.0144891
872.746	0.0145486
872.825	0.0146727
872.903	0.0145212
872.981	0.0145157
873.059	0.0144984
873.137	0.0145229
873.215	0.0144570
873.293	0.0145293
873.371	0.0144426
873.450	0.0146040
873.528	0.0146175
873.606	0.0144743
873.684	0.0144494
873.762	0.0145821
873.840	0.0145998
873.918	0.0145802
873.996	0.0146293
874.075	0.0144871
874.153	0.0144358
874.231	0.0145988
874.309	0.0146086
874.387	0.0145761
874.465	0.0144632
874.543	0.0144514
874.621	0.0146782
874.700	0.0145653
874.778	0.0145695
874.856	0.0145068
874.934	0.0145432
875.012	0.0145784
875.090	0.0145425
875.168	0.0145185
875.246	0.0145948
875.325	0.0145120
875.403	0.0145660
875.481	0.0145560
875.559	0.0146075
875.637	0.0146269
875.715	0.0146687
875.793	0.0146859
875.871	0.0145988
875.950	0.0145899
876.028	0.0145746
876.106	0.0146777
876.184	0.0145674
876.262	0.0146821
876.340	0.0146596
876.418	0.0146117
876.496	0.0145441
876.575	0.0144636
876.653	0.0145065
876.731	0.0145483
876.809	0.0146614
876.887	0.0146318
876.965	0.0146255
877.043	0.0146616
877.121	0.0144603
877.200	0.0146312
877.278	0.0144788
877.356	0.0145787
877.434	0.0145498
877.512	0.0144340
877.590	0.0145722
877.668	0.0146482
877.746	0.0145723
877.825	0.0147975
877.903	0.0146764
877.981	0.0145500
878.059	0.0146256
878.137	0.0146638
878.215	0.0145538
878.293	0.0147571
878.371	0.0147076
878.450	0.0146990
878.528	0.0146381
878.606	0.0146496
878.684	0.0146372
878.762	0.0146543
878.840	0.0146687
878.918	0.0145914
878.996	0.0146920
879.075	0.0146007
879.153	0.0146404
879.231	0.0145757
879.309	0.0145619
879.387	0.0145578
879.465	0.0146157
879.543	0.0146345
879.621	0.0147006
879.700	0.0146359
879.778	0.0145116
879.856	0.0145451
879.934	0.0146313
880.012	0.0146712
880.090	0.0146281
880.168	0.0145055
880.246	0.0145484
880.325	0.0145617
880.403	0.0145295
880.481	0.0145742
880.559	0.0145963
880.637	0.0145867
880.715	0.0145444
880.793	0.0145478
880.871	0.0145850
880.950	0.0145443
881.028	0.0145757
881.106	0.0146102
881.184	0.0146523
881.262	0.0145685
881.340	0.0145822
881.418	0.0146650
881.496	0.0146245
881.575	0.0146606
881.653	0.0147039
881.731	0.0146577
881.809	0.0147007
881.887	0.0146754
881.965	0.0148045
882.043	0.0146256
882.121	0.0146220
882.200	0.0145711
882.278	0.0146902
882.356	0.0146018
882.434	0.0145589
882.512	0.0145778
882.590	0.0145399
882.668	0.0146150
882.746	0.0145312
882.825	0.0146043
882.903	0.0146281
882.981	0.0145940
883.059	0.0146667
883.137	0.0145556
883.215	0.0146637
883.293	0.0146525
883.371	0.0146925
883.450	0.0145583
883.528	0.0144900
883.606	0.0146397
883.684	0.0144154
883.762	0.0144821
883.840	0.0145276
883.918	0.0145483
883.996	0.0145036
884.075	0.0145822
884.153	0.0146092
884.231	0.0144984
884.309	0.0145673
884.387	0.0146360
884.465	0.0145761
884.543	0.0144839
884.621	0.0144634
884.700	0.0146346
884.778	0.0146187
884.856	0.0145785
884.934	0.0146443
885.012	0.0146186
885.090	0.0147060
885.168	0.0145534
885.246	0.0146705
885.325	0.0146828
885.403	0.0146421
885.481	0.0145500
885.559	0.0145545
885.637	0.0146210
885.715	0.0145055
885.793	0.0146014
885.871	0.0145768
885.950	0.0145077
886.028	0.0146286
886.106	0.0144939
886.184	0.0146688
886.262	0.0145693
886.340	0.0145568
886.418	0.0145325
886.496	0.0145435
886.575	0.0145992
886.653	0.0144528
886.731	0.0145620
886.809	0.0145599
886.887	0.0146229
886.965	0.0146490
887.043	0.0145211
887.121	0.0146687
887.200	0.0146444
887.278	0.0146117
887.356	0.0145137
887.434	0.0146862
887.512	0.0146688
887.590	0.0147787
887.668	0.0145830
887.746	0.0144917
887.825	0.0145716
887.903	0.0146999
887.981	0.0146305
888.059	0.0146794
888.137	0.0148085
888.215	0.0147217
888.293	0.0147365
888.371	0.0146786
888.450	0.0147414
888.528	0.0146729
888.606	0.0145746
888.684	0.0145847
888.762	0.0146343
888.840	0.0145541
888.918	0.0146505
888.996	0.0146117
889.075	0.0146347
889.153	0.0146606
889.231	0.0145642
889.309	0.0145763
889.387	0.0144691
889.465	0.0145717
889.543	0.0146714
889.621	0.0146671
889.700	0.0146597
889.778	0.0146518
889.856	0.0146957
889.934	0.0147350
890.012	0.0146982
890.090	0.0147380
890.168	0.0147758
890.246	0.0146168
890.325	0.0145973
890.403	0.0147168
890.481	0.0146447
890.559	0.0146861
890.637	0.0147392
890.715	0.0145708
890.793	0.0146806
890.871	0.0148620
890.950	0.0147206
891.028	0.0146425
891.106	0.0146067
891.184	0.0146487
891.262	0.0147131
891.340	0.0148173
891.418	0.0146497
891.496	0.0146436
891.575	0.0145687
891.653	0.0145548
891.731	0.0147620
891.809	0.0146928
891.887	0.0146952
891.965	0.0146774
892.043	0.0146877
892.121	0.0145977
892.200	0.0145937
892.278	0.0146772
892.356	0.0146002
892.434	0.0145827
892.512	0.0147715
892.590	0.0146616
892.668	0.0145940
892.746	0.0145023
892.825	0.0146018
892.903	0.0146067
892.981	0.0145480
893.059	0.0145817
893.137	0.0146020
893.215	0.0145076
893.293	0.0145574
893.371	0.0145897
893.450	0.0145498
893.528	0.0144505
893.606	0.0146262
893.684	0.0146056
893.762	0.0145607
893.840	0.0145528
893.918	0.0145752
893.996	0.0144890
894.075	0.0144607
894.153	0.0145647
894.231	0.0147014
894.309	0.0145797
894.387	0.0146055
894.465	0.0146717
894.543	0.0145482
894.621	0.0147110
894.700	0.0145729
894.778	0.0145086
894.856	0.0145856
894.934	0.0145878
895.012	0.0146793
895.090	0.0145496
895.168	0.0146085
895.246	0.0145191
895.325	0.0146200
895.403	0.0145512
895.481	0.0145300
895.559	0.0144865
895.637	0.0145650
895.715	0.0147072
895.793	0.0145012
895.871	0.0146014
895.950	0.0145738
896.028	0.0145564
896.106	0.0145148
896.184	0.0146079
896.262	0.0146111
896.340	0.0146144
896.418	0.0146301
896.496	0.0145154
896.575	0.0146289
896.653	0.0146078
896.731	0.0146438
896.809	0.0146743
896.887	0.0147561
896.965	0.0147108
897.043	0.0144817
897.121	0.0144960
897.200	0.0145806
897.278	0.0144405
897.356	0.0144838
897.434	0.0143705
897.512	0.0145570
897.590	0.0145020
897.668	0.0144563
897.746	0.0144844
897.825	0.0145485
897.903	0.0145351
897.981	0.0145861
898.059	0.0146275
898.137	0.0145815
898.215	0.0146210
898.293	0.0146712
898.371	0.0146726
898.450	0.0145630
898.528	0.0146181
898.606	0.0145845
898.684	0.0147306
898.762	0.0146036
898.840	0.0145573
898.918	0.0146611
898.996	0.0144829
899.075	0.0147072
899.153	0.0146491
899.231	0.0145786
899.309	0.0145205
899.387	0.0146865
899.465	0.0146851
899.543	0.0146628
899.621	0.0145985
899.700	0.0146193
899.778	0.0147005
899.856	0.0147163
899.934	0.0146266
900.012	0.0145853
900.090	0.0145963
900.168	0.0146805
900.246	0.0145746
900.325	0.0146428
900.403	0.0146179
900.481	0.0146494
900.559	0.0145470
900.637	0.0145007
900.715	0.0145409
900.793	0.0146228
900.871	0.0146252
900.950	0.0145440
901.028	0.0146185
901.106	0.0147136
901.184	0.0146194
901.262	0.0144940
901.340	0.0146149
901.418	0.0146809
901.496	0.0146984
901.575	0.0145780
901.653	0.0146039
901.731	0.0147166
901.809	0.0146116
901.887	0.0146279
901.965	0.0145117
902.043	0.0148328
902.121	0.0146609
902.200	0.0145783
902.278	0.0146951
902.356	0.0146765
902.434	0.0146190
902.512	0.0145798
902.590	0.0146198
902.668	0.0145279
902.746	0.0147140
902.825	0.0146114
902.903	0.0146608
902.981	0.0145084
903.059	0.0145540
903.137	0.0146205
903.215	0.0145462
903.293	0.0146413
903.371	0.0146464
903.450	0.0145053
903.528	0.0144681
903.606	0.0145184
903.684	0.0146761
903.762	0.0146701
903.840	0.0145148
903.918	0.0146009
903.996	0.0146690
904.075	0.0146493
904.153	0.0146140
904.231	0.0145539
904.309	0.0146661
904.387	0.0148981
904.465	0.0145939
904.543	0.0144089
904.621	0.0146371
904.700	0.0146782
904.778	0.0146414
904.856	0.0145206
904.934	0.0145347
905.012	0.0144938
905.090	0.0147180
905.168	0.0146837
905.246	0.0145975
905.325	0.0145575
905.403	0.0145851
905.481	0.0146672
905.559	0.0145920
905.637	0.0147211
905.715	0.0147540
905.793	0.0147892
905.871	0.0147261
905.950	0.0146535
906.028	0.0147491
906.106	0.0147127
906.184	0.0147349
906.262	0.0147334
906.340	0.0147051
906.418	0.0145477
906.496	0.0146797
906.575	0.0146915
906.653	0.0146814
906.731	0.0147711
906.809	0.0147170
906.887	0.0146735
906.965	0.0146201
907.043	0.0147227
907.121	0.0146523
907.200	0.0145297
907.278	0.0144830
907.356	0.0146310
907.434	0.0145724
907.512	0.0145399
907.590	0.0148042
907.668	0.0147212
907.746	0.0146793
907.825	0.0148129
907.903	0.0146548
907.981	0.0146523
908.059	0.0146543
908.137	0.0148154
908.215	0.0146102
908.293	0.0146107
908.371	0.0146465
908.450	0.0148004
908.528	0.0146334
908.606	0.0145710
908.684	0.0145971
908.762	0.0146603
908.840	0.0147287
908.918	0.0146337
908.996	0.0147784
909.075	0.0146832
909.153	0.0146756
909.231	0.0146811
909.309	0.0146786
909.387	0.0146597
909.465	0.0147076
909.543	0.0146095
909.621	0.0145284
909.700	0.0146093
909.778	0.0144666
909.856	0.0146452
909.934	0.0146283
910.012	0.0145622
910.090	0.0145453
910.168	0.0146008
910.246	0.0144680
910.325	0.0145768
910.403	0.0145498
910.481	0.0145885
910.559	0.0146325
910.637	0.0146297
910.715	0.0145086
910.793	0.0145412
910.871	0.0145967
910.950	0.0144981
911.028	0.0147903
911.106	0.0145075
911.184	0.0144348
911.262	0.0146536
911.340	0.0145933
911.418	0.0146387
911.496	0.0146548
911.575	0.0145880
911.653	0.0146193
911.731	0.0145989
911.809	0.0146255
911.887	0.0147221
911.965	0.0147717
912.043	0.0146510
912.121	0.0146831
912.200	0.0146604
912.278	0.0146261
912.356	0.0146468
912.434	0.0146165
912.512	0.0147774
912.590	0.0145496
912.668	0.0146562
912.746	0.0146202
912.825	0.0145823
912.903	0.0144900
912.981	0.0145540
913.059	0.0145999
913.137	0.0145961
913.215	0.0146064
913.293	0.0146620
913.371	0.0145676
913.450	0.0145991
913.528	0.0146276
913.606	0.0146379
913.684	0.0145496
913.762	0.0147966
913.840	0.0146314
913.918	0.0145898
913.996	0.0145454
914.075	0.0144519
914.153	0.0144633
914.231	0.0145390
914.309	0.0146951
914.387	0.0145857
914.465	0.0145624
914.543	0.0145702
914.621	0.0145709
914.700	0.0146336
914.778	0.0146005
914.856	0.0146499
914.934	0.0145052
915.012	0.0146264
915.090	0.0146138
915.168	0.0146530
915.246	0.0144960
915.325	0.0146251
915.403	0.0145212
915.481	0.0145394
915.559	0.0146740
915.637	0.0145947
915.715	0.0145415
915.793	0.0146549
915.871	0.0146212
915.950	0.0146338
916.028	0.0144408
916.106	0.0145609
916.184	0.0147117
916.262	0.0145171
916.340	0.0147266
916.418	0.0145266
916.496	0.0146709
916.575	0.0146198
916.653	0.0145208
916.731	0.0146416
916.809	0.0146532
916.887	0.0145563
916.965	0.0144702
917.043	0.0145477
917.121	0.0145675
917.200	0.0145882
917.278	0.0144377
917.356	0.0146668
917.434	0.0145709
917.512	0.0146752
917.590	0.0145369
917.668	0.0146776
917.746	0.0146396
917.825	0.0145512
917.903	0.0144842
917.981	0.0147442
918.059	0.0145193
918.137	0.0144978
918.215	0.0143529
918.293	0.0145979
918.371	0.0145959
918.450	0.0144609
918.528	0.0146114
918.606	0.0145920
918.684	0.0144334
918.762	0.0145612
918.840	0.0146207
918.918	0.0145872
918.996	0.0144806
919.075	0.0144359
919.153	0.0145416
919.231	0.0145762
919.309	0.0145561
919.387	0.0145848
919.465	0.0146173
919.543	0.0146374
919.621	0.0145829
919.700	0.0145649
919.778	0.0147070
919.856	0.0146978
919.934	0.0145438
920.012	0.0147234
920.090	0.0147504
920.168	0.0146592
920.246	0.0146678
920.325	0.0146432
920.403	0.0146294
920.481	0.0145650
920.559	0.0146922
920.637	0.0147377
920.715	0.0146741
920.793	0.0145457
920.871	0.0145387
920.950	0.0147088
921.028	0.0146617
921.106	0.0146475
921.184	0.0146329
921.262	0.0146728
921.340	0.0147306
921.418	0.0146425
921.496	0.0146217
921.575	0.0146959
921.653	0.0146866
921.731	0.0145699
921.809	0.0146307
921.887	0.0146041
921.965	0.0146599
922.043	0.0146004
922.121	0.0146284
922.200	0.0146960
922.278	0.0147400
922.356	0.0147295
922.434	0.0145818
922.512	0.0143842
922.590	0.0146561
922.668	0.0145341
922.746	0.0144318
922.825	0.0145490
922.903	0.0144473
922.981	0.0145346
923.059	0.0145821
923.137	0.0146046
923.215	0.0143936
923.293	0.0146146
923.371	0.0146660
923.450	0.0146191
923.528	0.0145361
923.606	0.0145338
923.684	0.0146038
923.762	0.0146549
923.840	0.0145794
923.918	0.0146268
923.996	0.0146927
924.075	0.0146210
924.153	0.0146942
924.231	0.0146930
924.309	0.0145858
924.387	0.0145857
924.465	0.0146581
924.543	0.0146744
924.621	0.0147253
924.700	0.0146190
924.778	0.0147079
924.856	0.0146561
924.934	0.0145076
925.012	0.0145360
925.090	0.0146330
925.168	0.0147617
925.246	0.0145712
925.325	0.0145122
925.403	0.0147308
925.481	0.0146278
925.559	0.0146238
925.637	0.0146838
925.715	0.0146892
925.793	0.0146110
925.871	0.0146793
925.950	0.0146985
926.028	0.0147410
926.106	0.0147532
926.184	0.0147028
926.262	0.0146246
926.340	0.0147639
926.418	0.0147194
926.496	0.0147824
926.575	0.0146637
926.653	0.0146027
926.731	0.0146092
926.809	0.0147547
926.887	0.0147331
926.965	0.0145686
927.043	0.0144440
927.121	0.0146981
927.200	0.0146399
927.278	0.0145300
927.356	0.0144932
927.434	0.0146124
927.512	0.0145774
927.590	0.0145463
927.668	0.0146266
927.746	0.0145969
927.825	0.0144392
927.903	0.0143513
927.981	0.0145327
928.059	0.0144555
928.137	0.0145393
928.215	0.0144407
928.293	0.0143755
928.371	0.0144328
928.450	0.0145083
928.528	0.0145766
928.606	0.0145622
928.684	0.0144627
928.762	0.0146359
928.840	0.0145419
928.918	0.0146375
928.996	0.0144790
929.075	0.0145559
929.153	0.0146285
929.231	0.0145926
929.309	0.0147112
929.387	0.0146670
929.465	0.0145127
929.543	0.0146899
929.621	0.0147700
929.700	0.0147044
929.778	0.0146929
929.856	0.0146945
929.934	0.0146669
930.012	0.0146564
930.090	0.0147647
930.168	0.0145687
930.246	0.0145695
930.325	0.0144721
930.403	0.0145001
930.481	0.0145461
930.559	0.0144457
930.637	0.0145774
930.715	0.0145349
930.793	0.0145900
930.871	0.0144820
930.950	0.0146755
931.028	0.0144714
931.106	0.0145731
931.184	0.0144684
931.262	0.0145382
931.340	0.0146172
931.418	0.0145705
931.496	0.0145850
931.575	0.0146262
931.653	0.0145829
931.731	0.0145938
931.809	0.0146320
931.887	0.0148315
931.965	0.0147669
932.043	0.0145723
932.121	0.0146410
932.200	0.0145861
932.278	0.0145949
932.356	0.0146151
932.434	0.0147163
932.512	0.0146848
932.590	0.0145001
932.668	0.0143855
932.746	0.0145183
932.825	0.0147388
932.903	0.0145979
932.981	0.0144930
933.059	0.0144604
933.137	0.0145931
933.215	0.0145662
933.293	0.0146027
933.371	0.0144564
933.450	0.0145455
933.528	0.0145712
933.606	0.0145347
933.684	0.0146010
933.762	0.0144659
933.840	0.0146277
933.918	0.0144537
933.996	0.0145247
934.075	0.0146571
934.153	0.0143983
934.231	0.0146056
934.309	0.0147340
934.387	0.0146462
934.465	0.0146872
934.543	0.0146876
934.621	0.0145876
934.700	0.0146118
934.778	0.0146255
934.856	0.0146466
934.934	0.0147072
935.012	0.0146960
935.090	0.0147127
935.168	0.0147514
935.246	0.0145987
935.325	0.0147142
935.403	0.0146993
935.481	0.0147229
935.559	0.0147063
935.637	0.0145685
935.715	0.0146040
935.793	0.0145476
935.871	0.0146072
935.950	0.0145937
936.028	0.0144916
936.106	0.0145354
936.184	0.0145231
936.262	0.0146464
936.340	0.0145694
936.418	0.0144183
936.496	0.0145565
936.575	0.0144051
936.653	0.0145854
936.731	0.0146426
936.809	0.0146033
936.887	0.0146281
936.965	0.0145522
937.043	0.0146731
937.121	0.0148091
937.200	0.0146572
937.278	0.0145914
937.356	0.0146793
937.434	0.0147174
937.512	0.0145880
937.590	0.0146343
937.668	0.0147644
937.746	0.0146089
937.825	0.0145900
937.903	0.0146018
937.981	0.0145355
938.059	0.0146082
938.137	0.0145791
938.215	0.0145469
938.293	0.0144663
938.371	0.0143851
938.450	0.0145168
938.528	0.0144743
938.606	0.0144969
938.684	0.0143701
938.762	0.0145430
938.840	0.0145600
938.918	0.0145007
938.996	0.0144379
939.075	0.0146040
939.153	0.0145763
939.231	0.0145364
939.309	0.0145960
939.387	0.0146262
939.465	0.0144284
939.543	0.0144946
939.621	0.0145100
939.700	0.0148090
939.778	0.0145847
939.856	0.0144350
939.934	0.0144875
940.012	0.0147684
940.090	0.0146684
940.168	0.0147343
940.246	0.0147208
940.325	0.0145992
940.403	0.0145164
940.481	0.0145864
940.559	0.0146483
940.637	0.0148119
940.715	0.0147831
940.793	0.0147125
940.871	0.0147216
940.950	0.0147066
941.028	0.0147481
941.106	0.0145950
941.184	0.0147404
941.262	0.0147881
941.340	0.0146786
941.418	0.0145843
941.496	0.0147313
941.575	0.0147330
941.653	0.0145712
941.731	0.0146783
941.809	0.0145391
941.887	0.0145838
941.965	0.0146020
942.043	0.0145264
942.121	0.0146042
942.200	0.0145010
942.278	0.0146759
942.356	0.0146133
942.434	0.0145529
942.512	0.0144425
942.590	0.0147066
942.668	0.0146873
942.746	0.0145977
942.825	0.0147077
942.903	0.0145408
942.981	0.0145518
943.059	0.0147231
943.137	0.0145467
943.215	0.0144999
943.293	0.0145392
943.371	0.0146324
943.450	0.0146220
943.528	0.0145440
943.606	0.0145980
943.684	0.0146069
943.762	0.0145716
943.840	0.0144701
943.918	0.0146094
943.996	0.0145503
944.075	0.0145038
944.153	0.0145534
944.231	0.0147649
944.309	0.0146895
944.387	0.0146440
944.465	0.0146721
944.543	0.0146195
944.621	0.0146769
944.700	0.0147009
944.778	0.0147044
944.856	0.0147254
944.934	0.0146772
945.012	0.0145033
945.090	0.0145977
945.168	0.0145637
945.246	0.0145572
945.325	0.0146040
945.403	0.0146131
945.481	0.0144488
945.559	0.0145097
945.637	0.0146323
945.715	0.0145696
945.793	0.0145993
945.871	0.0145937
945.950	0.0146461
946.028	0.0145872
946.106	0.0144564
946.184	0.0146925
946.262	0.0146255
946.340	0.0145300
946.418	0.0145627
946.496	0.0144986
946.575	0.0145498
946.653	0.0145705
946.731	0.0146445
946.809	0.0146812
946.887	0.0146564
946.965	0.0145211
947.043	0.0144257
947.121	0.0146202
947.200	0.0146808
947.278	0.0146914
947.356	0.0146072
947.434	0.0145417
947.512	0.0144351
947.590	0.0146639
947.668	0.0145251
947.746	0.0144937
947.825	0.0144119
947.903	0.0145036
947.981	0.0143870
948.059	0.0144662
948.137	0.0145172
948.215	0.0145879
948.293	0.0145152
948.371	0.0145200
948.450	0.0146041
948.528	0.0146555
948.606	0.0146011
948.684	0.0143760
948.762	0.0145644
948.840	0.0146486
948.918	0.0145913
948.996	0.0144921
949.075	0.0145755
949.153	0.0146700
949.231	0.0147318
949.309	0.0146487
949.387	0.0145170
949.465	0.0146509
949.543	0.0145702
949.621	0.0145731
949.700	0.0146917
949.778	0.0147137
949.856	0.0145156
949.934	0.0146272
950.012	0.0147080
950.090	0.0146759
950.168	0.0145786
950.246	0.0145990
950.325	0.0145573
950.403	0.0145966
950.481	0.0146145
950.559	0.0144710
950.637	0.0146661
950.715	0.0148188
950.793	0.0146910
950.871	0.0146363
950.950	0.0145860
951.028	0.0146710
951.106	0.0145954
951.184	0.0146574
951.262	0.0146547
951.340	0.0146024
951.418	0.0146635
951.496	0.0147273
951.575	0.0146832
951.653	0.0145710
951.731	0.0146670
951.809	0.0145507
951.887	0.0144406
951.965	0.0145219
952.043	0.0146889
952.121	0.0146124
952.200	0.0144893
952.278	0.0145058
952.356	0.0146045
952.434	0.0146035
952.512	0.0146899
952.590	0.0147805
952.668	0.0146423
952.746	0.0146317
952.825	0.0147540
952.903	0.0147743
952.981	0.0146196
953.059	0.0148325
953.137	0.0147675
953.215	0.0146693
953.293	0.0148470
953.371	0.0148106
953.450	0.0146310
953.528	0.0148101
953.606	0.0145881
953.684	0.0145809
953.762	0.0147325
953.840	0.0146463
953.918	0.0145830
953.996	0.0146194
954.075	0.0145317
954.153	0.0147453
954.231	0.0145177
954.309	0.0144884
954.387	0.0145632
954.465	0.0144747
954.543	0.0144705
954.621	0.0143961
954.700	0.0145207
954.778	0.0146153
954.856	0.0143804
954.934	0.0145705
955.012	0.0144761
955.090	0.0146058
955.168	0.0147545
955.246	0.0145980
955.325	0.0146326
955.403	0.0147315
955.481	0.0147527
955.559	0.0146146
955.637	0.0146301
955.715	0.0146973
955.793	0.0147800
955.871	0.0147298
955.950	0.0146571
956.028	0.0146521
956.106	0.0147607
956.184	0.0144877
956.262	0.0145973
956.340	0.0145829
956.418	0.0146513
956.496	0.0146532
956.575	0.0145110
956.653	0.0146363
956.731	0.0146138
956.809	0.0146403
956.887	0.0146971
956.965	0.0145146
957.043	0.0144400
957.121	0.0146251
957.200	0.0148040
957.278	0.0145638
957.356	0.0144873
957.434	0.0144651
957.512	0.0144934
957.590	0.0144416
957.668	0.0146629
957.746	0.0144975
957.825	0.0144588
957.903	0.0144440
957.981	0.0145058
958.059	0.0145604
958.137	0.0145990
958.215	0.0145969
958.293	0.0146234
958.371	0.0147789
958.450	0.0146490
958.528	0.0145589
958.606	0.0146239
958.684	0.0146825
958.762	0.0146147
958.840	0.0146333
958.918	0.0145527
958.996	0.0146394
959.075	0.0145535
959.153	0.0145310
959.231	0.0145842
959.309	0.0145584
959.387	0.0145841
959.465	0.0146764
959.543	0.0146183
959.621	0.0144858
959.700	0.0146320
959.778	0.0146587
959.856	0.0146712
959.934	0.0146939
960.012	0.0147626
960.090	0.0146414
960.168	0.0147227
960.246	0.0145885
960.325	0.0145868
960.403	0.0146812
960.481	0.0146934
960.559	0.0147946
960.637	0.0146924
960.715	0.0146589
960.793	0.0145214
960.871	0.0145258
960.950	0.0146314
961.028	0.0146278
961.106	0.0144637
961.184	0.0145965
961.262	0.0145404
961.340	0.0146320
961.418	0.0147003
961.496	0.0146703
961.575	0.0146819
961.653	0.0146011
961.731	0.0145502
961.809	0.0145493
961.887	0.0146622
961.965	0.0146195
962.043	0.0145428
962.121	0.0145699
962.200	0.0146708
962.278	0.0147231
962.356	0.0146247
962.434	0.0145171
962.512	0.0146053
962.590	0.0145332
962.668	0.0145654
962.746	0.0145483
962.825	0.0146072
962.903	0.0145901
962.981	0.0146120
963.059	0.0145039
963.137	0.0145964
963.215	0.0146950
963.293	0.0146114
963.371	0.0145943
963.450	0.0146009
963.528	0.0145192
963.606	0.0146753
963.684	0.0145863
963.762	0.0145484
963.840	0.0144147
963.918	0.0146468
963.996	0.0146232
964.075	0.0146225
964.153	0.0145453
964.231	0.0146593
964.309	0.0146017
964.387	0.0146896
964.465	0.0144590
964.543	0.0145110
964.621	0.0146593
964.700	0.0145748
964.778	0.0145549
964.856	0.0145679
964.934	0.0145296
965.012	0.0146568
965.090	0.0146521
965.168	0.0146729
965.246	0.0146546
965.325	0.0145406
965.403	0.0147033
965.481	0.0145302
965.559	0.0146442
965.637	0.0145832
965.715	0.0147475
965.793	0.0146513
965.871	0.0147129
965.950	0.0147625
966.028	0.0146498
966.106	0.0147066
966.184	0.0146610
966.262	0.0146205
966.340	0.0147025
966.418	0.0145240
966.496	0.0144595
966.575	0.0146601
966.653	0.0146569
966.731	0.0145953
966.809	0.0145386
966.887	0.0144561
966.965	0.0145696
967.043	0.0145981
967.121	0.0145934
967.200	0.0144186
967.278	0.0145335
967.356	0.0145583
967.434	0.0146172
967.512	0.0145198
967.590	0.0145853
967.668	0.0145359
967.746	0.0144383
967.825	0.0144056
967.903	0.0144431
967.981	0.0146186
968.059	0.0145871
968.137	0.0146194
968.215	0.0145995
968.293	0.0145615
968.371	0.0146330
968.450	0.0146674
968.528	0.0145948
968.606	0.0146427
968.684	0.0147375
968.762	0.0145957
968.840	0.0146528
968.918	0.0146513
968.996	0.0145585
969.075	0.0146144
969.153	0.0145760
969.231	0.0145855
969.309	0.0146196
969.387	0.0146208
969.465	0.0146510
969.543	0.0144711
969.621	0.0145996
969.700	0.0146212
969.778	0.0145900
969.856	0.0144537
969.934	0.0146376
970.012	0.0145937
970.090	0.0145064
970.168	0.0146449
970.246	0.0146316
970.325	0.0145837
970.403	0.0146500
970.481	0.0146170
970.559	0.0146322
970.637	0.0146191
970.715	0.0146162
970.793	0.0145599
970.871	0.0146738
970.950	0.0147155
971.028	0.0145886
971.106	0.0146024
971.184	0.0146220
971.262	0.0147032
971.340	0.0146080
971.418	0.0146430
971.496	0.0146303
971.575	0.0146223
971.653	0.0147309
971.731	0.0146804
971.809	0.0146403
971.887	0.0146832
971.965	0.0146042
972.043	0.0145718
972.121	0.0145088
972.200	0.0146832
972.278	0.0145571
972.356	0.0145139
972.434	0.0144691
972.512	0.0146185
972.590	0.0145543
972.668	0.0145493
972.746	0.0146124
972.825	0.0145098
972.903	0.0146324
972.981	0.0146072
973.059	0.0145885
973.137	0.0145780
973.215	0.0144833
973.293	0.0145203
973.371	0.0147729
973.450	0.0145542
973.528	0.0145633
973.606	0.0147646
973.684	0.0147630
973.762	0.0147397
973.840	0.0148364
973.918	0.0147206
973.996	0.0147012
974.075	0.0146781
974.153	0.0146202
974.231	0.0146524
974.309	0.0146064
974.387	0.0145209
974.465	0.0147541
974.543	0.0146941
974.621	0.0145274
974.700	0.0145900
974.778	0.0146291
974.856	0.0145834
974.934	0.0144309
975.012	0.0144460
975.090	0.0144810
975.168	0.0145877
975.246	0.0145316
975.325	0.0144540
975.403	0.0144805
975.481	0.0143683
975.559	0.0145642
975.637	0.0142835
975.715	0.0144199
975.793	0.0146856
975.871	0.0146002
975.950	0.0145361
976.028	0.0145683
976.106	0.0146818
976.184	0.0146441
976.262	0.0145909
976.340	0.0147545
976.418	0.0147169
976.496	0.0145805
976.575	0.0146202
976.653	0.0146253
976.731	0.0147387
976.809	0.0147057
976.887	0.0146278
976.965	0.0146173
977.043	0.0146658
977.121	0.0146488
977.200	0.0146147
977.278	0.0147255
977.356	0.0145477
977.434	0.0145116
977.512	0.0146155
977.590	0.0145930
977.668	0.0145998
977.746	0.0145625
977.825	0.0145755
977.903	0.0146175
977.981	0.0145543
978.059	0.0146888
978.137	0.0145777
978.215	0.0146053
978.293	0.0145949
978.371	0.0147541
978.450	0.0146741
978.528	0.0146715
978.606	0.0146843
978.684	0.0146221
978.762	0.0144864
978.840	0.0147398
978.918	0.0145421
978.996	0.0146203
979.075	0.0146655
979.153	0.0145731
979.231	0.0146523
979.309	0.0147972
979.387	0.0147527
979.465	0.0145727
979.543	0.0146709
979.621	0.0146290
979.700	0.0145389
979.778	0.0145943
979.856	0.0146221
979.934	0.0145105
980.012	0.0146482
980.090	0.0146591
980.168	0.0145132
980.246	0.0147726
980.325	0.0146256
980.403	0.0145185
980.481	0.0146846
980.559	0.0147868
980.637	0.0148378
980.715	0.0146051
980.793	0.0147184
980.871	0.0147046
980.950	0.0146284
981.028	0.0147477
981.106	0.0145778
981.184	0.0146172
981.262	0.0147091
981.340	0.0146333
981.418	0.0145425
981.496	0.0145329
981.575	0.0146855
981.653	0.0145670
981.731	0.0146279
981.809	0.0145123
981.887	0.0145245
981.965	0.0146906
982.043	0.0145629
982.121	0.0145550
982.200	0.0145367
982.278	0.0146672
982.356	0.0147025
982.434	0.0146246
982.512	0.0146032
982.590	0.0145496
982.668	0.0147396
982.746	0.0146603
982.825	0.0147045
982.903	0.0146413
982.981	0.0145541
983.059	0.0147558
983.137	0.0145480
983.215	0.0145350
983.293	0.0146323
983.371	0.0146549
983.450	0.0145879
983.528	0.0144902
983.606	0.0145353
983.684	0.0147368
983.762	0.0146910
983.840	0.0146191
983.918	0.0145685
983.996	0.0146096
984.075	0.0145487
984.153	0.0145556
984.231	0.0145802
984.309	0.0145887
984.387	0.0145517
984.465	0.0146259
984.543	0.0146696
984.621	0.0146291
984.700	0.0145582
984.778	0.0146243
984.856	0.0146404
984.934	0.0145745
985.012	0.0145682
985.090	0.0146661
985.168	0.0148479
985.246	0.0145412
985.325	0.0145188
985.403	0.0147394
985.481	0.0147561
985.559	0.0145899
985.637	0.0146897
985.715	0.0147319
985.793	0.0148898
985.871	0.0144943
985.950	0.0146222
986.028	0.0147734
986.106	0.0148010
986.184	0.0145820
986.262	0.0146408
986.340	0.0145867
986.418	0.0145997
986.496	0.0147356
986.575	0.0147073
986.653	0.0145745
986.731	0.0146275
986.809	0.0147263
986.887	0.0147231
986.965	0.0145787
987.043	0.0147015
987.121	0.0146613
987.200	0.0145034
987.278	0.0145266
987.356	0.0146585
987.434	0.0145486
987.512	0.0145970
987.590	0.0147077
987.668	0.0145729
987.746	0.0145197
987.825	0.0144559
987.903	0.0147148
987.981	0.0145698
988.059	0.0145372
988.137	0.0145419
988.215	0.0146692
988.293	0.0145657
988.371	0.0145278
988.450	0.0145988
988.528	0.0145254
988.606	0.0145048
988.684	0.0146624
988.762	0.0145594
988.840	0.0145621
988.918	0.0145911
988.996	0.0145821
989.075	0.0145013
989.153	0.0145434
989.231	0.0145824
989.309	0.0144559
989.387	0.0145807
989.465	0.0146529
989.543	0.0146140
989.621	0.0144856
989.700	0.0147203
989.778	0.0146590
989.856	0.0145713
989.934	0.0146457
990.012	0.0146019
990.090	0.0146799
990.168	0.0147683
990.246	0.0146794
990.325	0.0147106
990.403	0.0146800
990.481	0.0145763
990.559	0.0146213
990.637	0.0146117
990.715	0.0145125
990.793	0.0146633
990.871	0.0146936
990.950	0.0146673
991.028	0.0145623
991.106	0.0146358
991.184	0.0145763
991.262	0.0144789
991.340	0.0146042
991.418	0.0144867
991.496	0.0145916
991.575	0.0146523
991.653	0.0146446
991.731	0.0145029
991.809	0.0145112
991.887	0.0146228
991.965	0.0145992
992.043	0.0146066
992.121	0.0146959
992.200	0.0145090
992.278	0.0145012
992.356	0.0146557
992.434	0.0146119
992.512	0.0144703
992.590	0.0144897
992.668	0.0144356
992.746	0.0146081
992.825	0.0146929
992.903	0.0145271
992.981	0.0146870
993.059	0.0145529
993.137	0.0144553
993.215	0.0145496
993.293	0.0145874
993.371	0.0145557
993.450	0.0145332
993.528	0.0145737
993.606	0.0145763
993.684	0.0146347
993.762	0.0145236
993.840	0.0144972
993.918	0.0144955
993.996	0.0145200
994.075	0.0145795
994.153	0.0144883
994.231	0.0145458
994.309	0.0146676
994.387	0.0146314
994.465	0.0144879
994.543	0.0145157
994.621	0.0146574
994.700	0.0145293
994.778	0.0146809
994.856	0.0146603
994.934	0.0146371
995.012	0.0147351
995.090	0.0147152
995.168	0.0146528
995.246	0.0145432
995.325	0.0147562
995.403	0.0148267
995.481	0.0146321
995.559	0.0147377
995.637	0.0146747
995.715	0.0146531
995.793	0.0146548
995.871	0.0146178
995.950	0.0146487
996.028	0.0145801
996.106	0.0146859
996.184	0.0146162
996.262	0.0145056
996.340	0.0146219
996.418	0.0147210
996.496	0.0147187
996.575	0.0144839
996.653	0.0145719
996.731	0.0145476
996.809	0.0146007
996.887	0.0145283
996.965	0.0145358
997.043	0.0147164
997.121	0.0146349
997.200	0.0145032
997.278	0.0147402
997.356	0.0147234
997.434	0.0147899
997.512	0.0146577
997.590	0.0147082
997.668	0.0146706
997.746	0.0147995
997.825	0.0147511
997.903	0.0147881
997.981	0.0147530
998.059	0.0146858
998.137	0.0146799
998.215	0.0146674
998.293	0.0146690
998.371	0.0146893
998.450	0.0145821
998.528	0.0145448
998.606	0.0146162
998.684	0.0145660
998.762	0.0147189
998.840	0.0146806
998.918	0.0145695
