05/04/2022	21:32:33	Ver.	4.1	UNKNOWN
Optical Delay	678.996401	Delta X		0.078125	Sweeps	1	Scan Rate	0/0
Coordinates	Axis 1	NaN	Axis 2	NaN	Axis 3	NaN	Axis 4	NaN	Axis 5	NaN	Axis 6	0.000000
TX Power	0.000000	RX Power	0.000000

678.996	0.0142853
679.075	0.0142328
679.153	0.0142702
679.231	0.0143083
679.309	0.0141338
679.387	0.0142652
679.465	0.0142872
679.543	0.0142069
679.621	0.0142880
679.700	0.0143677
679.778	0.0142191
679.856	0.0143808
679.934	0.0143995
680.012	0.0143506
680.090	0.0142332
680.168	0.0143748
680.246	0.0143785
680.325	0.0142954
680.403	0.0142632
680.481	0.0143237
680.559	0.0143238
680.637	0.0143272
680.715	0.0142621
680.793	0.0143549
680.871	0.0142568
680.950	0.0144472
681.028	0.0144127
681.106	0.0143851
681.184	0.0144254
681.262	0.0142551
681.340	0.0143418
681.418	0.0144007
681.496	0.0142831
681.575	0.0142380
681.653	0.0143491
681.731	0.0143555
681.809	0.0142739
681.887	0.0142799
681.965	0.0142878
682.043	0.0141952
682.121	0.0142029
682.200	0.0142188
682.278	0.0142834
682.356	0.0142419
682.434	0.0142641
682.512	0.0141587
682.590	0.0144312
682.668	0.0143635
682.746	0.0142983
682.825	0.0142902
682.903	0.0142721
682.981	0.0143789
683.059	0.0144466
683.137	0.0143139
683.215	0.0142956
683.293	0.0142168
683.371	0.0143408
683.450	0.0143731
683.528	0.0143769
683.606	0.0141280
683.684	0.0142085
683.762	0.0141358
683.840	0.0142219
683.918	0.0142512
683.996	0.0141651
684.075	0.0141980
684.153	0.0142995
684.231	0.0141341
684.309	0.0141589
684.387	0.0142087
684.465	0.0141892
684.543	0.0140954
684.621	0.0142252
684.700	0.0142319
684.778	0.0142570
684.856	0.0144029
684.934	0.0143208
685.012	0.0142886
685.090	0.0142874
685.168	0.0141905
685.246	0.0143124
685.325	0.0143498
685.403	0.0144640
685.481	0.0142336
685.559	0.0143436
685.637	0.0144111
685.715	0.0141692
685.793	0.0143958
685.871	0.0142975
685.950	0.0143005
686.028	0.0142307
686.106	0.0142068
686.184	0.0142267
686.262	0.0142390
686.340	0.0142216
686.418	0.0139970
686.496	0.0140480
686.575	0.0141604
686.653	0.0141607
686.731	0.0140575
686.809	0.0141098
686.887	0.0141618
686.965	0.0142706
687.043	0.0142823
687.121	0.0141695
687.200	0.0142564
687.278	0.0142443
687.356	0.0142832
687.434	0.0143930
687.512	0.0143271
687.590	0.0144840
687.668	0.0145077
687.746	0.0146033
687.825	0.0147299
687.903	0.0146934
687.981	0.0146068
688.059	0.0145198
688.137	0.0146024
688.215	0.0144040
688.293	0.0143752
688.371	0.0142960
688.450	0.0142105
688.528	0.0140854
688.606	0.0141190
688.684	0.0139585
688.762	0.0139924
688.840	0.0140252
688.918	0.0139299
688.996	0.0139190
689.075	0.0137838
689.153	0.0139506
689.231	0.0139639
689.309	0.0138028
689.387	0.0139656
689.465	0.0141129
689.543	0.0143060
689.621	0.0142405
689.700	0.0143340
689.778	0.0144042
689.856	0.0144833
689.934	0.0145253
690.012	0.0145596
690.090	0.0145823
690.168	0.0145464
690.246	0.0144952
690.325	0.0145356
690.403	0.0146835
690.481	0.0143466
690.559	0.0143488
690.637	0.0144530
690.715	0.0145116
690.793	0.0144046
690.871	0.0143601
690.950	0.0144959
691.028	0.0143360
691.106	0.0142785
691.184	0.0143017
691.262	0.0143981
691.340	0.0142961
691.418	0.0142088
691.496	0.0141055
691.575	0.0140333
691.653	0.0140539
691.731	0.0140675
691.809	0.0139270
691.887	0.0139356
691.965	0.0138091
692.043	0.0138357
692.121	0.0138862
692.200	0.0138325
692.278	0.0138289
692.356	0.0137521
692.434	0.0138944
692.512	0.0140358
692.590	0.0140863
692.668	0.0140985
692.746	0.0141814
692.825	0.0142803
692.903	0.0143150
692.981	0.0144198
693.059	0.0146254
693.137	0.0145361
693.215	0.0145413
693.293	0.0146698
693.371	0.0146778
693.450	0.0147260
693.528	0.0145517
693.606	0.0146223
693.684	0.0144790
693.762	0.0144154
693.840	0.0144604
693.918	0.0144974
693.996	0.0143955
694.075	0.0144436
694.153	0.0143893
694.231	0.0143970
694.309	0.0143622
694.387	0.0140945
694.465	0.0140733
694.543	0.0141959
694.621	0.0140486
694.700	0.0139417
694.778	0.0138039
694.856	0.0139148
694.934	0.0139453
695.012	0.0139520
695.090	0.0140453
695.168	0.0138803
695.246	0.0139072
695.325	0.0138910
695.403	0.0140221
695.481	0.0138400
695.559	0.0138484
695.637	0.0139816
695.715	0.0141299
695.793	0.0141625
695.871	0.0142314
695.950	0.0144518
696.028	0.0145791
696.106	0.0147008
696.184	0.0147306
696.262	0.0146697
696.340	0.0148540
696.418	0.0148270
696.496	0.0148257
696.575	0.0147730
696.653	0.0145979
696.731	0.0144653
696.809	0.0146226
696.887	0.0143936
696.965	0.0142307
697.043	0.0143126
697.121	0.0142729
697.200	0.0141540
697.278	0.0140903
697.356	0.0142030
697.434	0.0141703
697.512	0.0139856
697.590	0.0140569
697.668	0.0140618
697.746	0.0140066
697.825	0.0139957
697.903	0.0139331
697.981	0.0140579
698.059	0.0140546
698.137	0.0140556
698.215	0.0141290
698.293	0.0142538
698.371	0.0142762
698.450	0.0142471
698.528	0.0140401
698.606	0.0140439
698.684	0.0141375
698.762	0.0141558
698.840	0.0141460
698.918	0.0140823
698.996	0.0139936
699.075	0.0141395
699.153	0.0142113
699.231	0.0143147
699.309	0.0142727
699.387	0.0144617
699.465	0.0143304
699.543	0.0145523
699.621	0.0144491
699.700	0.0144682
699.778	0.0147166
699.856	0.0147603
699.934	0.0147623
700.012	0.0146275
700.090	0.0146994
700.168	0.0146323
700.246	0.0145677
700.325	0.0145502
700.403	0.0143990
700.481	0.0143764
700.559	0.0142084
700.637	0.0140862
700.715	0.0139917
700.793	0.0139497
700.871	0.0138245
700.950	0.0137361
701.028	0.0138566
701.106	0.0139609
701.184	0.0140192
701.262	0.0139159
701.340	0.0140341
701.418	0.0141833
701.496	0.0142628
701.575	0.0143592
701.653	0.0143778
701.731	0.0143826
701.809	0.0144308
701.887	0.0143983
701.965	0.0144315
702.043	0.0145606
702.121	0.0143758
702.200	0.0143649
702.278	0.0143637
702.356	0.0142764
702.434	0.0142507
702.512	0.0141846
702.590	0.0141425
702.668	0.0142067
702.746	0.0141933
702.825	0.0142493
702.903	0.0144124
702.981	0.0146329
703.059	0.0144781
703.137	0.0144261
703.215	0.0145689
703.293	0.0144576
703.371	0.0144915
703.450	0.0146140
703.528	0.0144801
703.606	0.0143353
703.684	0.0143083
703.762	0.0141602
703.840	0.0139970
703.918	0.0140434
703.996	0.0140651
704.075	0.0140594
704.153	0.0139956
704.231	0.0138571
704.309	0.0140173
704.387	0.0140359
704.465	0.0140637
704.543	0.0141032
704.621	0.0141852
704.700	0.0142068
704.778	0.0142170
704.856	0.0142854
704.934	0.0143600
705.012	0.0143496
705.090	0.0143240
705.168	0.0142313
705.246	0.0143511
705.325	0.0141354
705.403	0.0140691
705.481	0.0140723
705.559	0.0139078
705.637	0.0140783
705.715	0.0139898
705.793	0.0141634
705.871	0.0142173
705.950	0.0143969
706.028	0.0144083
706.106	0.0144341
706.184	0.0146517
706.262	0.0147092
706.340	0.0146003
706.418	0.0146063
706.496	0.0145974
706.575	0.0145606
706.653	0.0145310
706.731	0.0143934
706.809	0.0141821
706.887	0.0143046
706.965	0.0141660
707.043	0.0140473
707.121	0.0141615
707.200	0.0141259
707.278	0.0141338
707.356	0.0139133
707.434	0.0140148
707.512	0.0142101
707.590	0.0143068
707.668	0.0141846
707.746	0.0141623
707.825	0.0142921
707.903	0.0143366
707.981	0.0143300
708.059	0.0142312
708.137	0.0143227
708.215	0.0142728
708.293	0.0141491
708.371	0.0141766
708.450	0.0142036
708.528	0.0141351
708.606	0.0142073
708.684	0.0142235
708.762	0.0143166
708.840	0.0143057
708.918	0.0141008
708.996	0.0144485
709.075	0.0144616
709.153	0.0144398
709.231	0.0145003
709.309	0.0143861
709.387	0.0144601
709.465	0.0144086
709.543	0.0143673
709.621	0.0144059
709.700	0.0142149
709.778	0.0141909
709.856	0.0141563
709.934	0.0141995
710.012	0.0141840
710.090	0.0141566
710.168	0.0140091
710.246	0.0138834
710.325	0.0140108
710.403	0.0140940
710.481	0.0139390
710.559	0.0140595
710.637	0.0141476
710.715	0.0141926
710.793	0.0144202
710.871	0.0143378
710.950	0.0142780
711.028	0.0143977
711.106	0.0142808
711.184	0.0142268
711.262	0.0142371
711.340	0.0142004
711.418	0.0142531
711.496	0.0141471
711.575	0.0142258
711.653	0.0140639
711.731	0.0141812
711.809	0.0142567
711.887	0.0143124
711.965	0.0141651
712.043	0.0143441
712.121	0.0142403
712.200	0.0142533
712.278	0.0141650
712.356	0.0142617
712.434	0.0144276
712.512	0.0142976
712.590	0.0143882
712.668	0.0142549
712.746	0.0142742
712.825	0.0142994
712.903	0.0142672
712.981	0.0141930
713.059	0.0142887
713.137	0.0142977
713.215	0.0140691
713.293	0.0141170
713.371	0.0141850
713.450	0.0141049
713.528	0.0141492
713.606	0.0142309
713.684	0.0142587
713.762	0.0143636
713.840	0.0142487
713.918	0.0143504
713.996	0.0145184
714.075	0.0143421
714.153	0.0142103
714.231	0.0142948
714.309	0.0143362
714.387	0.0142265
714.465	0.0142886
714.543	0.0143384
714.621	0.0143910
714.700	0.0142963
714.778	0.0143605
714.856	0.0143807
714.934	0.0142905
715.012	0.0143372
715.090	0.0142412
715.168	0.0143357
715.246	0.0143999
715.325	0.0144756
715.403	0.0142773
715.481	0.0141424
715.559	0.0142141
715.637	0.0142710
715.715	0.0142853
715.793	0.0141425
715.871	0.0142545
715.950	0.0141392
716.028	0.0140437
716.106	0.0141953
716.184	0.0142476
716.262	0.0141771
716.340	0.0141933
716.418	0.0143375
716.496	0.0142697
716.575	0.0142233
716.653	0.0143993
716.731	0.0144303
716.809	0.0144786
716.887	0.0145620
716.965	0.0144105
717.043	0.0144370
717.121	0.0143951
717.200	0.0143243
717.278	0.0143865
717.356	0.0143095
717.434	0.0143443
717.512	0.0142717
717.590	0.0141637
717.668	0.0142671
717.746	0.0141955
717.825	0.0139428
717.903	0.0139705
717.981	0.0141067
718.059	0.0141370
718.137	0.0142231
718.215	0.0141356
718.293	0.0142020
718.371	0.0142173
718.450	0.0141920
718.528	0.0143572
718.606	0.0142004
718.684	0.0144068
718.762	0.0144946
718.840	0.0144531
718.918	0.0144978
718.996	0.0145303
719.075	0.0144979
719.153	0.0144875
719.231	0.0144145
719.309	0.0144626
719.387	0.0145132
719.465	0.0145799
719.543	0.0143839
719.621	0.0144249
719.700	0.0143669
719.778	0.0142989
719.856	0.0142475
719.934	0.0143437
720.012	0.0141240
720.090	0.0142217
720.168	0.0142886
720.246	0.0141540
720.325	0.0141633
720.403	0.0142088
720.481	0.0140802
720.559	0.0140786
720.637	0.0141727
720.715	0.0141332
720.793	0.0141454
720.871	0.0142076
720.950	0.0140887
721.028	0.0141894
721.106	0.0142947
721.184	0.0141182
721.262	0.0141671
721.340	0.0142245
721.418	0.0143023
721.496	0.0142044
721.575	0.0142108
721.653	0.0142547
721.731	0.0144070
721.809	0.0143684
721.887	0.0142392
721.965	0.0142342
722.043	0.0143413
722.121	0.0143452
722.200	0.0143467
722.278	0.0145129
722.356	0.0144235
722.434	0.0143217
722.512	0.0145439
722.590	0.0144572
722.668	0.0142198
722.746	0.0145329
722.825	0.0144321
722.903	0.0143262
722.981	0.0145027
723.059	0.0142686
723.137	0.0141488
723.215	0.0143334
723.293	0.0142419
723.371	0.0140266
723.450	0.0141809
723.528	0.0141508
723.606	0.0142191
723.684	0.0140997
723.762	0.0141408
723.840	0.0140734
723.918	0.0142503
723.996	0.0141328
724.075	0.0139946
724.153	0.0141478
724.231	0.0141991
724.309	0.0141463
724.387	0.0141533
724.465	0.0143887
724.543	0.0143707
724.621	0.0143921
724.700	0.0142905
724.778	0.0142876
724.856	0.0143511
724.934	0.0142596
725.012	0.0142730
725.090	0.0144073
725.168	0.0142410
725.246	0.0142539
725.325	0.0144181
725.403	0.0143382
725.481	0.0142819
725.559	0.0143805
725.637	0.0143501
725.715	0.0142398
725.793	0.0143374
725.871	0.0142168
725.950	0.0143059
726.028	0.0142801
726.106	0.0140409
726.184	0.0141589
726.262	0.0141579
726.340	0.0142862
726.418	0.0140759
726.496	0.0142844
726.575	0.0142410
726.653	0.0142500
726.731	0.0143153
726.809	0.0142619
726.887	0.0141585
726.965	0.0142444
727.043	0.0142553
727.121	0.0142433
727.200	0.0142434
727.278	0.0142636
727.356	0.0142873
727.434	0.0143247
727.512	0.0139784
727.590	0.0140337
727.668	0.0141215
727.746	0.0140051
727.825	0.0142402
727.903	0.0141581
727.981	0.0142072
728.059	0.0141075
728.137	0.0141925
728.215	0.0141184
728.293	0.0141122
728.371	0.0140262
728.450	0.0140852
728.528	0.0141066
728.606	0.0141270
728.684	0.0143302
728.762	0.0142157
728.840	0.0143018
728.918	0.0142329
728.996	0.0142186
729.075	0.0143848
729.153	0.0143446
729.231	0.0144471
729.309	0.0143578
729.387	0.0144350
729.465	0.0145455
729.543	0.0146035
729.621	0.0145401
729.700	0.0143678
729.778	0.0144081
729.856	0.0144145
729.934	0.0144469
730.012	0.0142769
730.090	0.0141834
730.168	0.0140327
730.246	0.0140547
730.325	0.0140116
730.403	0.0142261
730.481	0.0141380
730.559	0.0140979
730.637	0.0140540
730.715	0.0138921
730.793	0.0140444
730.871	0.0140942
730.950	0.0140614
731.028	0.0141543
731.106	0.0142585
731.184	0.0142399
731.262	0.0141351
731.340	0.0142509
731.418	0.0143687
731.496	0.0142912
731.575	0.0142318
731.653	0.0142883
731.731	0.0142245
731.809	0.0143176
731.887	0.0143031
731.965	0.0143323
732.043	0.0144588
732.121	0.0144556
732.200	0.0143680
732.278	0.0145135
732.356	0.0143089
732.434	0.0143250
732.512	0.0142963
732.590	0.0144099
732.668	0.0142993
732.746	0.0143092
732.825	0.0141514
732.903	0.0143092
732.981	0.0142282
733.059	0.0141080
733.137	0.0141768
733.215	0.0141168
733.293	0.0140488
733.371	0.0141733
733.450	0.0142192
733.528	0.0140059
733.606	0.0141183
733.684	0.0141383
733.762	0.0141136
733.840	0.0141978
733.918	0.0140179
733.996	0.0141427
734.075	0.0141306
734.153	0.0140202
734.231	0.0141579
734.309	0.0142510
734.387	0.0142282
734.465	0.0141622
734.543	0.0142789
734.621	0.0143407
734.700	0.0143201
734.778	0.0144350
734.856	0.0142667
734.934	0.0143559
735.012	0.0144397
735.090	0.0143529
735.168	0.0143651
735.246	0.0144121
735.325	0.0143816
735.403	0.0142528
735.481	0.0143412
735.559	0.0143699
735.637	0.0143407
735.715	0.0141969
735.793	0.0141994
735.871	0.0142933
735.950	0.0143666
736.028	0.0142416
736.106	0.0143516
736.184	0.0143242
736.262	0.0143278
736.340	0.0141775
736.418	0.0142862
736.496	0.0142274
736.575	0.0143277
736.653	0.0141508
736.731	0.0143111
736.809	0.0142851
736.887	0.0142992
736.965	0.0142022
737.043	0.0142775
737.121	0.0142280
737.200	0.0142131
737.278	0.0142431
737.356	0.0141513
737.434	0.0143002
737.512	0.0141248
737.590	0.0143925
737.668	0.0143604
737.746	0.0143237
737.825	0.0143741
737.903	0.0143081
737.981	0.0143789
738.059	0.0143067
738.137	0.0142422
738.215	0.0143023
738.293	0.0143929
738.371	0.0143493
738.450	0.0141441
738.528	0.0143633
738.606	0.0143684
738.684	0.0143048
738.762	0.0143946
738.840	0.0143856
738.918	0.0142848
738.996	0.0142532
739.075	0.0143915
739.153	0.0143365
739.231	0.0142448
739.309	0.0144328
739.387	0.0144399
739.465	0.0142383
739.543	0.0143462
739.621	0.0143748
739.700	0.0142992
739.778	0.0143770
739.856	0.0143656
739.934	0.0142663
740.012	0.0142784
740.090	0.0142055
740.168	0.0141293
740.246	0.0142182
740.325	0.0143085
740.403	0.0142185
740.481	0.0143195
740.559	0.0142061
740.637	0.0141505
740.715	0.0141152
740.793	0.0141734
740.871	0.0141118
740.950	0.0140771
741.028	0.0142229
741.106	0.0141653
741.184	0.0141866
741.262	0.0141873
741.340	0.0142126
741.418	0.0142416
741.496	0.0143753
741.575	0.0143955
741.653	0.0142185
741.731	0.0142096
741.809	0.0143163
741.887	0.0143070
741.965	0.0141697
742.043	0.0143536
742.121	0.0143591
742.200	0.0143157
742.278	0.0142825
742.356	0.0143375
742.434	0.0142505
742.512	0.0142567
742.590	0.0142907
742.668	0.0141091
742.746	0.0142707
742.825	0.0144126
742.903	0.0141925
742.981	0.0142358
743.059	0.0141403
743.137	0.0141949
743.215	0.0142116
743.293	0.0141879
743.371	0.0141902
743.450	0.0142274
743.528	0.0141429
743.606	0.0142461
743.684	0.0139861
743.762	0.0141830
743.840	0.0141138
743.918	0.0141544
743.996	0.0141482
744.075	0.0140278
744.153	0.0142382
744.231	0.0141025
744.309	0.0141230
744.387	0.0141948
744.465	0.0141666
744.543	0.0143164
744.621	0.0142045
744.700	0.0142117
744.778	0.0144526
744.856	0.0143259
744.934	0.0142499
745.012	0.0144260
745.090	0.0144432
745.168	0.0143073
745.246	0.0142590
745.325	0.0143214
745.403	0.0144897
745.481	0.0144010
745.559	0.0142700
745.637	0.0143754
745.715	0.0144856
745.793	0.0144225
745.871	0.0144000
745.950	0.0144199
746.028	0.0143147
746.106	0.0143147
746.184	0.0142564
746.262	0.0142958
746.340	0.0141164
746.418	0.0142352
746.496	0.0141788
746.575	0.0141386
746.653	0.0142422
746.731	0.0141852
746.809	0.0142837
746.887	0.0141783
746.965	0.0140227
747.043	0.0140697
747.121	0.0141609
747.200	0.0142297
747.278	0.0141727
747.356	0.0142203
747.434	0.0141914
747.512	0.0141965
747.590	0.0143414
747.668	0.0143416
747.746	0.0142759
747.825	0.0144095
747.903	0.0143236
747.981	0.0142885
748.059	0.0143848
748.137	0.0143420
748.215	0.0143333
748.293	0.0143015
748.371	0.0143510
748.450	0.0143733
748.528	0.0143549
748.606	0.0141930
748.684	0.0142760
748.762	0.0142381
748.840	0.0143110
748.918	0.0144093
748.996	0.0143640
749.075	0.0141540
749.153	0.0141809
749.231	0.0142871
749.309	0.0141734
749.387	0.0142916
749.465	0.0142818
749.543	0.0143034
749.621	0.0142952
749.700	0.0141392
749.778	0.0142761
749.856	0.0142490
749.934	0.0143472
750.012	0.0144032
750.090	0.0144682
750.168	0.0144174
750.246	0.0143758
750.325	0.0142115
750.403	0.0143307
750.481	0.0142181
750.559	0.0141732
750.637	0.0142467
750.715	0.0142052
750.793	0.0142613
750.871	0.0141090
750.950	0.0141542
751.028	0.0142837
751.106	0.0142483
751.184	0.0141345
751.262	0.0140638
751.340	0.0142388
751.418	0.0143110
751.496	0.0141723
751.575	0.0142934
751.653	0.0142583
751.731	0.0142695
751.809	0.0142657
751.887	0.0143154
751.965	0.0143356
752.043	0.0142217
752.121	0.0141277
752.200	0.0142297
752.278	0.0143082
752.356	0.0142747
752.434	0.0140416
752.512	0.0141515
752.590	0.0141727
752.668	0.0143360
752.746	0.0141924
752.825	0.0141855
752.903	0.0143317
752.981	0.0142772
753.059	0.0142728
753.137	0.0142947
753.215	0.0141846
753.293	0.0140739
753.371	0.0141449
753.450	0.0143844
753.528	0.0142409
753.606	0.0141956
753.684	0.0142981
753.762	0.0143175
753.840	0.0142507
753.918	0.0140320
753.996	0.0141101
754.075	0.0141634
754.153	0.0142083
754.231	0.0140211
754.309	0.0140353
754.387	0.0142528
754.465	0.0141945
754.543	0.0140903
754.621	0.0141889
754.700	0.0140907
754.778	0.0140535
754.856	0.0141560
754.934	0.0141857
755.012	0.0141970
755.090	0.0140437
755.168	0.0140794
755.246	0.0141261
755.325	0.0141466
755.403	0.0141674
755.481	0.0141255
755.559	0.0141440
755.637	0.0142963
755.715	0.0143026
755.793	0.0142365
755.871	0.0141799
755.950	0.0142109
756.028	0.0142284
756.106	0.0142604
756.184	0.0141894
756.262	0.0141990
756.340	0.0141818
756.418	0.0142213
756.496	0.0141750
756.575	0.0140792
756.653	0.0139773
756.731	0.0141575
756.809	0.0141522
756.887	0.0140167
756.965	0.0142045
757.043	0.0141473
757.121	0.0142583
757.200	0.0142690
757.278	0.0142820
757.356	0.0143249
757.434	0.0142982
757.512	0.0143619
757.590	0.0141982
757.668	0.0144478
757.746	0.0142127
757.825	0.0142377
757.903	0.0143433
757.981	0.0143618
758.059	0.0142419
758.137	0.0143906
758.215	0.0142698
758.293	0.0143616
758.371	0.0142009
758.450	0.0144814
758.528	0.0143544
758.606	0.0143027
758.684	0.0140912
758.762	0.0142546
758.840	0.0142667
758.918	0.0142635
758.996	0.0140685
759.075	0.0142106
759.153	0.0143207
759.231	0.0142018
759.309	0.0141417
759.387	0.0142884
759.465	0.0143581
759.543	0.0143624
759.621	0.0141718
759.700	0.0142910
759.778	0.0142496
759.856	0.0143305
759.934	0.0141993
760.012	0.0142294
760.090	0.0143893
760.168	0.0143168
760.246	0.0142208
760.325	0.0143674
760.403	0.0142530
760.481	0.0142110
760.559	0.0142487
760.637	0.0142923
760.715	0.0144003
760.793	0.0144024
760.871	0.0142930
760.950	0.0142841
761.028	0.0143647
761.106	0.0143678
761.184	0.0143921
761.262	0.0143740
761.340	0.0143996
761.418	0.0143967
761.496	0.0143834
761.575	0.0142271
761.653	0.0142366
761.731	0.0142280
761.809	0.0143671
761.887	0.0142258
761.965	0.0141104
762.043	0.0142286
762.121	0.0141842
762.200	0.0141291
762.278	0.0141373
762.356	0.0141257
762.434	0.0142030
762.512	0.0142699
762.590	0.0141646
762.668	0.0141778
762.746	0.0143214
762.825	0.0143394
762.903	0.0142821
762.981	0.0140868
763.059	0.0142316
763.137	0.0141473
763.215	0.0142430
763.293	0.0143954
763.371	0.0141531
763.450	0.0142371
763.528	0.0142640
763.606	0.0142449
763.684	0.0142986
763.762	0.0142056
763.840	0.0142365
763.918	0.0142591
763.996	0.0142464
764.075	0.0142204
764.153	0.0143536
764.231	0.0143887
764.309	0.0141744
764.387	0.0141482
764.465	0.0141117
764.543	0.0140710
764.621	0.0142316
764.700	0.0142472
764.778	0.0142808
764.856	0.0142052
764.934	0.0143086
765.012	0.0142258
765.090	0.0141311
765.168	0.0142767
765.246	0.0143489
765.325	0.0142397
765.403	0.0144745
765.481	0.0143365
765.559	0.0142955
765.637	0.0141335
765.715	0.0141698
765.793	0.0144033
765.871	0.0141879
765.950	0.0142297
766.028	0.0142051
766.106	0.0142702
766.184	0.0142841
766.262	0.0141647
766.340	0.0142088
766.418	0.0142162
766.496	0.0143212
766.575	0.0142214
766.653	0.0141750
766.731	0.0141347
766.809	0.0141577
766.887	0.0142937
766.965	0.0142406
767.043	0.0141880
767.121	0.0141789
767.200	0.0141974
767.278	0.0142741
767.356	0.0141595
767.434	0.0141793
767.512	0.0143221
767.590	0.0142191
767.668	0.0141602
767.746	0.0140813
767.825	0.0143483
767.903	0.0143300
767.981	0.0142606
768.059	0.0141428
768.137	0.0141689
768.215	0.0143405
768.293	0.0141531
768.371	0.0141269
768.450	0.0141301
768.528	0.0143777
768.606	0.0142503
768.684	0.0141841
768.762	0.0141072
768.840	0.0140498
768.918	0.0140906
768.996	0.0143718
769.075	0.0142458
769.153	0.0142144
769.231	0.0143900
769.309	0.0142760
769.387	0.0142234
769.465	0.0141784
769.543	0.0142070
769.621	0.0143982
769.700	0.0143395
769.778	0.0141785
769.856	0.0142065
769.934	0.0143235
770.012	0.0142027
770.090	0.0142825
770.168	0.0143891
770.246	0.0142192
770.325	0.0143585
770.403	0.0144189
770.481	0.0143198
770.559	0.0142207
770.637	0.0142384
770.715	0.0142213
770.793	0.0142834
770.871	0.0142247
770.950	0.0142403
771.028	0.0143188
771.106	0.0143159
771.184	0.0143224
771.262	0.0140398
771.340	0.0141688
771.418	0.0140661
771.496	0.0143169
771.575	0.0141014
771.653	0.0141697
771.731	0.0141181
771.809	0.0141531
771.887	0.0141055
771.965	0.0142123
772.043	0.0141006
772.121	0.0140502
772.200	0.0140594
772.278	0.0144154
772.356	0.0142700
772.434	0.0142201
772.512	0.0141922
772.590	0.0141608
772.668	0.0142301
772.746	0.0143526
772.825	0.0143776
772.903	0.0142062
772.981	0.0142333
773.059	0.0144005
773.137	0.0143391
773.215	0.0143868
773.293	0.0143359
773.371	0.0143045
773.450	0.0143706
773.528	0.0141592
773.606	0.0143048
773.684	0.0141921
773.762	0.0142424
773.840	0.0143871
773.918	0.0143569
773.996	0.0142325
774.075	0.0142233
774.153	0.0142602
774.231	0.0141497
774.309	0.0142348
774.387	0.0142237
774.465	0.0143307
774.543	0.0141501
774.621	0.0142152
774.700	0.0142849
774.778	0.0141448
774.856	0.0143182
774.934	0.0143149
775.012	0.0142747
775.090	0.0142716
775.168	0.0143275
775.246	0.0143007
775.325	0.0143240
775.403	0.0141130
775.481	0.0142139
775.559	0.0142643
775.637	0.0143719
775.715	0.0144254
775.793	0.0142049
775.871	0.0140536
775.950	0.0141749
776.028	0.0142689
776.106	0.0141441
776.184	0.0142339
776.262	0.0140545
776.340	0.0142494
776.418	0.0143087
776.496	0.0142886
776.575	0.0141520
776.653	0.0143157
776.731	0.0142713
776.809	0.0142246
776.887	0.0141959
776.965	0.0141194
777.043	0.0142390
777.121	0.0141755
777.200	0.0143850
777.278	0.0141545
777.356	0.0141644
777.434	0.0142048
777.512	0.0142545
777.590	0.0142931
777.668	0.0143440
777.746	0.0141668
777.825	0.0141841
777.903	0.0143419
777.981	0.0143714
778.059	0.0142869
778.137	0.0142539
778.215	0.0143068
778.293	0.0143729
778.371	0.0142300
778.450	0.0141934
778.528	0.0142126
778.606	0.0143300
778.684	0.0142545
778.762	0.0144402
778.840	0.0143392
778.918	0.0143070
778.996	0.0143233
779.075	0.0143027
779.153	0.0143356
779.231	0.0143658
779.309	0.0142083
779.387	0.0142969
779.465	0.0142951
779.543	0.0142350
779.621	0.0141126
779.700	0.0142111
779.778	0.0142204
779.856	0.0142752
779.934	0.0143009
780.012	0.0142533
780.090	0.0141018
780.168	0.0140911
780.246	0.0140894
780.325	0.0142280
780.403	0.0141275
780.481	0.0141799
780.559	0.0142280
780.637	0.0142647
780.715	0.0142774
780.793	0.0142642
780.871	0.0142361
780.950	0.0142428
781.028	0.0142738
781.106	0.0142881
781.184	0.0141953
781.262	0.0143291
781.340	0.0143724
781.418	0.0143163
781.496	0.0141376
781.575	0.0142857
781.653	0.0143056
781.731	0.0142031
781.809	0.0142418
781.887	0.0142123
781.965	0.0142210
782.043	0.0144028
782.121	0.0143467
782.200	0.0144133
782.278	0.0142307
782.356	0.0142476
782.434	0.0143777
782.512	0.0142905
782.590	0.0143002
782.668	0.0142311
782.746	0.0142768
782.825	0.0143249
782.903	0.0141847
782.981	0.0141749
783.059	0.0142819
783.137	0.0143620
783.215	0.0143628
783.293	0.0142743
783.371	0.0143499
783.450	0.0142111
783.528	0.0141847
783.606	0.0143675
783.684	0.0142886
783.762	0.0142223
783.840	0.0142702
783.918	0.0141833
783.996	0.0142057
784.075	0.0143066
784.153	0.0143079
784.231	0.0140522
784.309	0.0141302
784.387	0.0143375
784.465	0.0142593
784.543	0.0141862
784.621	0.0143356
784.700	0.0142722
784.778	0.0142333
784.856	0.0141983
784.934	0.0143055
785.012	0.0142097
785.090	0.0143219
785.168	0.0142692
785.246	0.0142358
785.325	0.0142863
785.403	0.0143036
785.481	0.0142383
785.559	0.0144159
785.637	0.0143069
785.715	0.0143200
785.793	0.0143430
785.871	0.0142911
785.950	0.0143168
786.028	0.0143907
786.106	0.0143542
786.184	0.0143211
786.262	0.0142077
786.340	0.0142636
786.418	0.0143523
786.496	0.0143642
786.575	0.0143972
786.653	0.0142967
786.731	0.0144951
786.809	0.0143708
786.887	0.0141947
786.965	0.0141677
787.043	0.0143175
787.121	0.0143130
787.200	0.0141898
787.278	0.0142681
787.356	0.0143790
787.434	0.0143086
787.512	0.0141997
787.590	0.0141951
787.668	0.0142991
787.746	0.0141721
787.825	0.0142454
787.903	0.0141767
787.981	0.0141405
788.059	0.0142580
788.137	0.0142752
788.215	0.0142657
788.293	0.0141505
788.371	0.0142462
788.450	0.0142791
788.528	0.0142463
788.606	0.0142084
788.684	0.0142467
788.762	0.0143409
788.840	0.0142847
788.918	0.0142751
788.996	0.0142133
789.075	0.0142408
789.153	0.0142023
789.231	0.0142504
789.309	0.0143645
789.387	0.0141384
789.465	0.0143096
789.543	0.0143034
789.621	0.0143311
789.700	0.0143407
789.778	0.0143100
789.856	0.0142335
789.934	0.0143439
790.012	0.0143218
790.090	0.0143488
790.168	0.0142034
790.246	0.0141985
790.325	0.0144248
790.403	0.0141948
790.481	0.0141927
790.559	0.0142977
790.637	0.0144288
790.715	0.0142025
790.793	0.0142451
790.871	0.0141806
790.950	0.0141457
791.028	0.0141549
791.106	0.0142432
791.184	0.0142180
791.262	0.0143006
791.340	0.0143167
791.418	0.0142967
791.496	0.0142753
791.575	0.0141555
791.653	0.0142163
791.731	0.0142364
791.809	0.0141740
791.887	0.0143164
791.965	0.0142950
792.043	0.0141402
792.121	0.0142895
792.200	0.0142312
792.278	0.0141887
792.356	0.0141874
792.434	0.0142668
792.512	0.0143682
792.590	0.0143194
792.668	0.0141356
792.746	0.0143029
792.825	0.0142953
792.903	0.0141916
792.981	0.0141788
793.059	0.0144042
793.137	0.0142902
793.215	0.0143116
793.293	0.0143456
793.371	0.0142464
793.450	0.0142943
793.528	0.0142844
793.606	0.0143864
793.684	0.0143017
793.762	0.0142538
793.840	0.0143723
793.918	0.0142879
793.996	0.0144159
794.075	0.0144112
794.153	0.0142087
794.231	0.0142638
794.309	0.0143262
794.387	0.0143417
794.465	0.0142556
794.543	0.0141852
794.621	0.0143222
794.700	0.0143245
794.778	0.0143024
794.856	0.0143467
794.934	0.0143349
795.012	0.0143004
795.090	0.0141315
795.168	0.0142123
795.246	0.0142289
795.325	0.0143348
795.403	0.0143276
795.481	0.0142256
795.559	0.0142728
795.637	0.0142204
795.715	0.0142001
795.793	0.0143056
795.871	0.0143478
795.950	0.0142046
796.028	0.0142027
796.106	0.0143033
796.184	0.0142694
796.262	0.0142932
796.340	0.0141336
796.418	0.0141939
796.496	0.0142712
796.575	0.0142417
796.653	0.0143056
796.731	0.0142802
796.809	0.0142385
796.887	0.0142200
796.965	0.0142106
797.043	0.0143277
797.121	0.0143436
797.200	0.0142450
797.278	0.0142754
797.356	0.0144943
797.434	0.0143972
797.512	0.0142991
797.590	0.0143197
797.668	0.0143107
797.746	0.0142083
797.825	0.0143130
797.903	0.0143313
797.981	0.0143188
798.059	0.0144230
798.137	0.0143740
798.215	0.0143615
798.293	0.0143169
798.371	0.0143554
798.450	0.0142828
798.528	0.0142781
798.606	0.0143356
798.684	0.0143810
798.762	0.0142885
798.840	0.0142355
798.918	0.0143331
798.996	0.0142713
799.075	0.0142185
799.153	0.0142408
799.231	0.0142600
799.309	0.0142055
799.387	0.0141657
799.465	0.0142311
799.543	0.0143983
799.621	0.0141471
799.700	0.0141457
799.778	0.0142326
799.856	0.0143549
799.934	0.0143906
800.012	0.0143142
800.090	0.0142448
800.168	0.0143151
800.246	0.0143375
800.325	0.0142122
800.403	0.0142942
800.481	0.0142754
800.559	0.0141616
800.637	0.0142406
800.715	0.0142896
800.793	0.0142407
800.871	0.0143245
800.950	0.0142316
801.028	0.0142747
801.106	0.0141788
801.184	0.0142435
801.262	0.0143446
801.340	0.0142471
801.418	0.0143852
801.496	0.0143136
801.575	0.0142930
801.653	0.0142043
801.731	0.0142271
801.809	0.0142281
801.887	0.0141827
801.965	0.0141938
802.043	0.0140929
802.121	0.0142381
802.200	0.0142153
802.278	0.0142813
802.356	0.0143134
802.434	0.0144662
802.512	0.0143536
802.590	0.0141664
802.668	0.0144021
802.746	0.0143417
802.825	0.0144405
802.903	0.0145128
802.981	0.0142599
803.059	0.0144074
803.137	0.0142361
803.215	0.0143513
803.293	0.0145333
803.371	0.0143536
803.450	0.0142387
803.528	0.0143816
803.606	0.0144441
803.684	0.0141599
803.762	0.0142180
803.840	0.0141583
803.918	0.0142764
803.996	0.0141676
804.075	0.0141282
804.153	0.0143170
804.231	0.0143477
804.309	0.0142791
804.387	0.0142175
804.465	0.0141925
804.543	0.0142302
804.621	0.0142432
804.700	0.0142184
804.778	0.0142925
804.856	0.0142802
804.934	0.0143478
805.012	0.0143515
805.090	0.0143540
805.168	0.0142901
805.246	0.0143398
805.325	0.0142367
805.403	0.0142721
805.481	0.0142117
805.559	0.0143934
805.637	0.0143203
805.715	0.0142646
805.793	0.0141543
805.871	0.0142256
805.950	0.0143522
806.028	0.0143029
806.106	0.0143182
806.184	0.0142465
806.262	0.0142063
806.340	0.0142451
806.418	0.0141624
806.496	0.0141470
806.575	0.0143703
806.653	0.0143853
806.731	0.0142084
806.809	0.0141981
806.887	0.0143264
806.965	0.0141988
807.043	0.0143728
807.121	0.0144247
807.200	0.0142216
807.278	0.0142250
807.356	0.0142600
807.434	0.0142416
807.512	0.0141406
807.590	0.0142083
807.668	0.0141823
807.746	0.0141888
807.825	0.0142078
807.903	0.0142123
807.981	0.0143226
808.059	0.0141988
808.137	0.0143457
808.215	0.0143345
808.293	0.0142934
808.371	0.0143792
808.450	0.0141751
808.528	0.0142530
808.606	0.0142496
808.684	0.0140441
808.762	0.0142725
808.840	0.0141001
808.918	0.0140988
808.996	0.0142339
809.075	0.0143981
809.153	0.0142226
809.231	0.0142130
809.309	0.0142007
809.387	0.0141784
809.465	0.0142069
809.543	0.0140974
809.621	0.0143199
809.700	0.0143259
809.778	0.0143634
809.856	0.0141862
809.934	0.0141231
810.012	0.0142545
810.090	0.0142437
810.168	0.0143063
810.246	0.0142071
810.325	0.0141689
810.403	0.0142971
810.481	0.0141277
810.559	0.0142876
810.637	0.0143141
810.715	0.0144923
810.793	0.0143109
810.871	0.0142664
810.950	0.0142946
811.028	0.0142043
811.106	0.0142471
811.184	0.0142265
811.262	0.0143195
811.340	0.0144241
811.418	0.0143373
811.496	0.0142111
811.575	0.0141730
811.653	0.0142309
811.731	0.0141974
811.809	0.0142152
811.887	0.0140865
811.965	0.0141409
812.043	0.0143983
812.121	0.0142797
812.200	0.0140945
812.278	0.0141363
812.356	0.0142869
812.434	0.0142310
812.512	0.0142171
812.590	0.0141932
812.668	0.0142034
812.746	0.0141600
812.825	0.0142527
812.903	0.0141576
812.981	0.0141110
813.059	0.0143659
813.137	0.0142219
813.215	0.0143962
813.293	0.0141132
813.371	0.0141733
813.450	0.0142417
813.528	0.0140887
813.606	0.0142679
813.684	0.0143446
813.762	0.0143050
813.840	0.0141869
813.918	0.0141894
813.996	0.0142578
814.075	0.0143594
814.153	0.0141573
814.231	0.0142348
814.309	0.0144279
814.387	0.0142577
814.465	0.0141157
814.543	0.0143242
814.621	0.0143220
814.700	0.0141215
814.778	0.0141943
814.856	0.0142509
814.934	0.0142840
815.012	0.0141665
815.090	0.0143291
815.168	0.0143178
815.246	0.0142679
815.325	0.0142212
815.403	0.0141113
815.481	0.0142997
815.559	0.0143155
815.637	0.0141588
815.715	0.0141830
815.793	0.0142191
815.871	0.0143951
815.950	0.0143784
816.028	0.0143385
816.106	0.0142671
816.184	0.0143301
816.262	0.0142495
816.340	0.0141376
816.418	0.0143086
816.496	0.0142602
816.575	0.0142995
816.653	0.0142984
816.731	0.0141838
816.809	0.0141738
816.887	0.0143684
816.965	0.0144003
817.043	0.0143172
817.121	0.0143439
817.200	0.0142583
817.278	0.0143169
817.356	0.0143699
817.434	0.0143248
817.512	0.0142937
817.590	0.0142582
817.668	0.0143298
817.746	0.0144498
817.825	0.0143298
817.903	0.0143415
817.981	0.0143993
818.059	0.0142615
818.137	0.0144782
818.215	0.0143142
818.293	0.0144361
818.371	0.0142458
818.450	0.0142649
818.528	0.0143329
818.606	0.0144559
818.684	0.0143901
818.762	0.0143979
818.840	0.0143582
818.918	0.0143151
818.996	0.0142897
819.075	0.0142897
819.153	0.0143497
819.231	0.0143827
819.309	0.0143898
819.387	0.0143071
819.465	0.0144209
819.543	0.0142444
819.621	0.0142635
819.700	0.0143557
819.778	0.0143946
819.856	0.0143523
819.934	0.0142936
820.012	0.0143613
820.090	0.0143163
820.168	0.0143510
820.246	0.0143045
820.325	0.0142569
820.403	0.0144408
820.481	0.0142558
820.559	0.0142307
820.637	0.0143025
820.715	0.0142554
820.793	0.0142371
820.871	0.0143446
820.950	0.0142874
821.028	0.0143156
821.106	0.0143443
821.184	0.0143080
821.262	0.0142480
821.340	0.0142428
821.418	0.0142212
821.496	0.0142210
821.575	0.0142649
821.653	0.0142118
821.731	0.0142844
821.809	0.0143280
821.887	0.0142449
821.965	0.0144105
822.043	0.0143993
822.121	0.0143901
822.200	0.0143285
822.278	0.0143092
822.356	0.0144805
822.434	0.0144601
822.512	0.0143761
822.590	0.0144067
822.668	0.0143390
822.746	0.0143990
822.825	0.0142439
822.903	0.0143943
822.981	0.0142772
823.059	0.0143649
823.137	0.0143178
823.215	0.0143605
823.293	0.0144283
823.371	0.0141854
823.450	0.0142406
823.528	0.0141821
823.606	0.0140526
823.684	0.0142546
823.762	0.0140688
823.840	0.0141849
823.918	0.0142163
823.996	0.0142915
824.075	0.0143098
824.153	0.0142149
824.231	0.0144014
824.309	0.0142103
824.387	0.0143178
824.465	0.0142889
824.543	0.0143973
824.621	0.0143719
824.700	0.0143266
824.778	0.0142519
824.856	0.0141740
824.934	0.0143630
825.012	0.0143820
825.090	0.0144343
825.168	0.0144340
825.246	0.0142753
825.325	0.0142927
825.403	0.0144698
825.481	0.0144044
825.559	0.0142999
825.637	0.0142950
825.715	0.0141878
825.793	0.0143587
825.871	0.0141811
825.950	0.0141816
826.028	0.0142082
826.106	0.0141975
826.184	0.0143143
826.262	0.0142222
826.340	0.0142911
826.418	0.0143188
826.496	0.0142721
826.575	0.0142737
826.653	0.0141957
826.731	0.0143914
826.809	0.0143543
826.887	0.0142197
826.965	0.0143048
827.043	0.0144825
827.121	0.0142561
827.200	0.0142551
827.278	0.0142121
827.356	0.0142680
827.434	0.0142146
827.512	0.0142002
827.590	0.0142731
827.668	0.0143310
827.746	0.0142008
827.825	0.0142954
827.903	0.0143326
827.981	0.0142716
828.059	0.0141967
828.137	0.0142485
828.215	0.0142478
828.293	0.0143519
828.371	0.0143136
828.450	0.0143264
828.528	0.0142693
828.606	0.0142515
828.684	0.0143184
828.762	0.0143094
828.840	0.0142287
828.918	0.0141325
828.996	0.0142970
829.075	0.0141697
829.153	0.0141179
829.231	0.0141879
829.309	0.0141225
829.387	0.0142538
829.465	0.0141898
829.543	0.0140750
829.621	0.0141660
829.700	0.0141208
829.778	0.0142111
829.856	0.0142330
829.934	0.0143687
830.012	0.0142342
830.090	0.0140968
830.168	0.0144001
830.246	0.0144764
830.325	0.0141541
830.403	0.0143987
830.481	0.0142662
830.559	0.0142647
830.637	0.0141898
830.715	0.0141921
830.793	0.0144046
830.871	0.0143143
830.950	0.0141935
831.028	0.0142786
831.106	0.0143379
831.184	0.0142456
831.262	0.0141570
831.340	0.0142833
831.418	0.0143450
831.496	0.0141596
831.575	0.0141946
831.653	0.0142789
831.731	0.0141705
831.809	0.0142112
831.887	0.0142333
831.965	0.0142262
832.043	0.0144191
832.121	0.0141574
832.200	0.0143192
832.278	0.0143035
832.356	0.0142078
832.434	0.0141757
832.512	0.0141667
832.590	0.0142490
832.668	0.0143217
832.746	0.0142963
832.825	0.0142494
832.903	0.0143035
832.981	0.0141684
833.059	0.0140943
833.137	0.0142108
833.215	0.0142950
833.293	0.0143454
833.371	0.0143186
833.450	0.0142722
833.528	0.0141376
833.606	0.0141840
833.684	0.0142931
833.762	0.0142174
833.840	0.0142706
833.918	0.0144040
833.996	0.0143563
834.075	0.0143060
834.153	0.0143422
834.231	0.0142542
834.309	0.0144273
834.387	0.0143427
834.465	0.0143456
834.543	0.0143523
834.621	0.0143556
834.700	0.0142361
834.778	0.0140482
834.856	0.0141058
834.934	0.0142886
835.012	0.0142098
835.090	0.0141473
835.168	0.0141326
835.246	0.0141760
835.325	0.0141940
835.403	0.0141032
835.481	0.0140582
835.559	0.0140859
835.637	0.0141434
835.715	0.0142060
835.793	0.0141538
835.871	0.0140670
835.950	0.0141651
836.028	0.0140880
836.106	0.0140552
836.184	0.0141868
836.262	0.0142017
836.340	0.0140799
836.418	0.0142622
836.496	0.0141763
836.575	0.0142739
836.653	0.0141757
836.731	0.0142199
836.809	0.0141309
836.887	0.0140241
836.965	0.0142152
837.043	0.0141916
837.121	0.0143050
837.200	0.0142469
837.278	0.0141575
837.356	0.0140843
837.434	0.0142680
837.512	0.0143451
837.590	0.0142902
837.668	0.0142969
837.746	0.0142999
837.825	0.0140957
837.903	0.0142030
837.981	0.0142706
838.059	0.0142999
838.137	0.0142947
838.215	0.0141976
838.293	0.0142299
838.371	0.0143555
838.450	0.0142828
838.528	0.0143914
838.606	0.0142285
838.684	0.0142393
838.762	0.0142152
838.840	0.0141546
838.918	0.0142720
838.996	0.0143279
839.075	0.0142453
839.153	0.0141454
839.231	0.0143165
839.309	0.0142844
839.387	0.0143550
839.465	0.0142777
839.543	0.0141566
839.621	0.0142579
839.700	0.0142029
839.778	0.0142567
839.856	0.0142175
839.934	0.0142349
840.012	0.0142538
840.090	0.0141428
840.168	0.0142416
840.246	0.0142389
840.325	0.0142117
840.403	0.0141714
840.481	0.0142542
840.559	0.0143103
840.637	0.0141908
840.715	0.0142228
840.793	0.0143008
840.871	0.0142739
840.950	0.0143502
841.028	0.0142180
841.106	0.0142460
841.184	0.0143457
841.262	0.0142622
841.340	0.0142262
841.418	0.0141919
841.496	0.0141498
841.575	0.0142570
841.653	0.0142209
841.731	0.0142221
841.809	0.0142075
841.887	0.0143144
841.965	0.0141716
842.043	0.0142529
842.121	0.0140955
842.200	0.0141914
842.278	0.0143097
842.356	0.0143299
842.434	0.0142641
842.512	0.0141951
842.590	0.0142055
842.668	0.0141152
842.746	0.0141638
842.825	0.0142338
842.903	0.0142496
842.981	0.0143718
843.059	0.0142414
843.137	0.0142148
843.215	0.0142221
843.293	0.0141844
843.371	0.0142809
843.450	0.0143199
843.528	0.0142120
843.606	0.0141713
843.684	0.0143024
843.762	0.0142760
843.840	0.0142906
843.918	0.0143025
843.996	0.0142060
844.075	0.0143085
844.153	0.0142361
844.231	0.0141257
844.309	0.0142431
844.387	0.0143084
844.465	0.0143075
844.543	0.0141761
844.621	0.0141355
844.700	0.0141409
844.778	0.0140788
844.856	0.0139841
844.934	0.0142171
845.012	0.0141390
845.090	0.0142795
845.168	0.0141486
845.246	0.0141646
845.325	0.0142606
845.403	0.0140717
845.481	0.0142617
845.559	0.0142571
845.637	0.0142916
845.715	0.0143285
845.793	0.0143181
845.871	0.0141541
845.950	0.0143456
846.028	0.0142815
846.106	0.0142303
846.184	0.0144095
846.262	0.0143723
846.340	0.0142985
846.418	0.0142550
846.496	0.0143286
846.575	0.0143349
846.653	0.0144247
846.731	0.0143904
846.809	0.0142070
846.887	0.0142959
846.965	0.0142886
847.043	0.0144311
847.121	0.0143263
847.200	0.0142303
847.278	0.0143715
847.356	0.0142351
847.434	0.0141657
847.512	0.0142023
847.590	0.0142483
847.668	0.0142751
847.746	0.0142814
847.825	0.0142513
847.903	0.0142632
847.981	0.0143851
848.059	0.0141066
848.137	0.0142043
848.215	0.0142386
848.293	0.0142999
848.371	0.0143379
848.450	0.0143884
848.528	0.0142033
848.606	0.0142528
848.684	0.0143349
848.762	0.0144350
848.840	0.0143295
848.918	0.0142977
848.996	0.0142458
849.075	0.0142877
849.153	0.0142846
849.231	0.0143093
849.309	0.0142531
849.387	0.0142764
849.465	0.0143573
849.543	0.0141114
849.621	0.0141830
849.700	0.0142867
849.778	0.0143970
849.856	0.0142012
849.934	0.0143028
850.012	0.0142776
850.090	0.0143986
850.168	0.0142493
850.246	0.0142684
850.325	0.0143335
850.403	0.0142728
850.481	0.0143879
850.559	0.0142947
850.637	0.0140912
850.715	0.0143081
850.793	0.0142244
850.871	0.0143802
850.950	0.0143695
851.028	0.0143099
851.106	0.0144487
851.184	0.0142760
851.262	0.0141908
851.340	0.0142454
851.418	0.0142199
851.496	0.0142006
851.575	0.0140873
851.653	0.0141167
851.731	0.0143256
851.809	0.0140066
851.887	0.0140595
851.965	0.0142164
852.043	0.0141637
852.121	0.0140825
852.200	0.0140646
852.278	0.0140944
852.356	0.0142692
852.434	0.0142832
852.512	0.0142930
852.590	0.0142660
852.668	0.0141574
852.746	0.0142321
852.825	0.0143386
852.903	0.0142927
852.981	0.0143281
853.059	0.0141766
853.137	0.0141602
853.215	0.0143809
853.293	0.0144489
853.371	0.0144044
853.450	0.0143243
853.528	0.0143349
853.606	0.0143167
853.684	0.0143966
853.762	0.0143243
853.840	0.0144406
853.918	0.0143747
853.996	0.0141727
854.075	0.0143576
854.153	0.0142947
854.231	0.0142866
854.309	0.0143166
854.387	0.0141843
854.465	0.0141285
854.543	0.0142030
854.621	0.0142077
854.700	0.0142220
854.778	0.0141813
854.856	0.0142187
854.934	0.0142107
855.012	0.0141683
855.090	0.0142254
855.168	0.0141547
855.246	0.0141893
855.325	0.0142580
855.403	0.0141691
855.481	0.0141825
855.559	0.0143278
855.637	0.0143129
855.715	0.0143460
855.793	0.0141592
855.871	0.0142342
855.950	0.0142732
856.028	0.0142267
856.106	0.0142834
856.184	0.0141755
856.262	0.0142780
856.340	0.0142467
856.418	0.0142368
856.496	0.0143793
856.575	0.0142900
856.653	0.0141805
856.731	0.0143459
856.809	0.0143665
856.887	0.0141712
856.965	0.0143342
857.043	0.0142427
857.121	0.0141961
857.200	0.0142605
857.278	0.0142126
857.356	0.0140928
857.434	0.0141983
857.512	0.0141338
857.590	0.0142184
857.668	0.0141104
857.746	0.0141175
857.825	0.0141718
857.903	0.0141924
857.981	0.0143336
858.059	0.0141295
858.137	0.0141282
858.215	0.0142131
858.293	0.0141930
858.371	0.0142505
858.450	0.0142011
858.528	0.0142211
858.606	0.0142460
858.684	0.0143481
858.762	0.0142834
858.840	0.0142248
858.918	0.0142656
858.996	0.0143488
859.075	0.0142060
859.153	0.0143470
859.231	0.0143775
859.309	0.0143154
859.387	0.0142606
859.465	0.0143160
859.543	0.0143573
859.621	0.0143161
859.700	0.0143142
859.778	0.0142393
859.856	0.0141409
859.934	0.0140541
860.012	0.0143427
860.090	0.0143485
860.168	0.0142184
860.246	0.0141623
860.325	0.0142651
860.403	0.0140655
860.481	0.0141547
860.559	0.0142367
860.637	0.0142129
860.715	0.0142410
860.793	0.0143298
860.871	0.0142881
860.950	0.0142720
861.028	0.0142127
861.106	0.0142545
861.184	0.0142816
861.262	0.0143175
861.340	0.0142880
861.418	0.0143637
861.496	0.0142873
861.575	0.0141088
861.653	0.0142310
861.731	0.0143974
861.809	0.0143428
861.887	0.0143115
861.965	0.0143591
862.043	0.0145249
862.121	0.0141403
862.200	0.0143134
862.278	0.0142672
862.356	0.0143063
862.434	0.0142670
862.512	0.0143111
862.590	0.0142699
862.668	0.0143192
862.746	0.0144373
862.825	0.0142758
862.903	0.0142359
862.981	0.0142835
863.059	0.0142995
863.137	0.0143229
863.215	0.0142171
863.293	0.0142436
863.371	0.0143062
863.450	0.0142771
863.528	0.0142944
863.606	0.0142760
863.684	0.0142545
863.762	0.0142754
863.840	0.0141486
863.918	0.0141665
863.996	0.0144386
864.075	0.0142595
864.153	0.0142381
864.231	0.0142802
864.309	0.0142175
864.387	0.0141875
864.465	0.0141341
864.543	0.0142709
864.621	0.0142403
864.700	0.0142281
864.778	0.0143184
864.856	0.0143459
864.934	0.0143445
865.012	0.0141804
865.090	0.0141975
865.168	0.0142670
865.246	0.0142922
865.325	0.0143551
865.403	0.0142400
865.481	0.0143344
865.559	0.0143136
865.637	0.0141683
865.715	0.0142915
865.793	0.0141358
865.871	0.0141966
865.950	0.0143296
866.028	0.0143132
866.106	0.0142373
866.184	0.0141808
866.262	0.0142604
866.340	0.0143079
866.418	0.0142180
866.496	0.0141234
866.575	0.0142909
866.653	0.0142578
866.731	0.0142745
866.809	0.0143642
866.887	0.0141832
866.965	0.0142355
867.043	0.0141976
867.121	0.0142726
867.200	0.0142352
867.278	0.0141090
867.356	0.0141500
867.434	0.0141998
867.512	0.0141256
867.590	0.0141585
867.668	0.0142282
867.746	0.0140114
867.825	0.0141509
867.903	0.0141756
867.981	0.0141693
868.059	0.0140929
868.137	0.0141327
868.215	0.0141467
868.293	0.0141759
868.371	0.0141622
868.450	0.0141796
868.528	0.0142361
868.606	0.0142310
868.684	0.0143695
868.762	0.0143832
868.840	0.0142873
868.918	0.0142459
868.996	0.0143691
869.075	0.0144145
869.153	0.0142725
869.231	0.0143580
869.309	0.0143048
869.387	0.0142998
869.465	0.0142889
869.543	0.0141544
869.621	0.0142629
869.700	0.0142805
869.778	0.0142832
869.856	0.0143031
869.934	0.0142620
870.012	0.0143115
870.090	0.0142836
870.168	0.0142694
870.246	0.0142357
870.325	0.0142908
870.403	0.0143748
870.481	0.0142130
870.559	0.0141740
870.637	0.0143040
870.715	0.0142273
870.793	0.0142509
870.871	0.0142674
870.950	0.0143745
871.028	0.0142538
871.106	0.0142734
871.184	0.0142409
871.262	0.0143580
871.340	0.0143690
871.418	0.0143213
871.496	0.0142398
871.575	0.0142371
871.653	0.0143035
871.731	0.0141241
871.809	0.0142913
871.887	0.0143364
871.965	0.0141618
872.043	0.0142693
872.121	0.0142854
872.200	0.0143233
872.278	0.0142231
872.356	0.0143085
872.434	0.0143063
872.512	0.0143016
872.590	0.0143251
872.668	0.0143390
872.746	0.0142752
872.825	0.0143728
872.903	0.0141454
872.981	0.0142175
873.059	0.0144072
873.137	0.0143253
873.215	0.0142943
873.293	0.0142982
873.371	0.0141671
873.450	0.0141485
873.528	0.0141983
873.606	0.0141851
873.684	0.0142948
873.762	0.0142173
873.840	0.0142138
873.918	0.0142393
873.996	0.0142067
874.075	0.0142200
874.153	0.0144622
874.231	0.0143433
874.309	0.0142743
874.387	0.0143261
874.465	0.0143288
874.543	0.0143237
874.621	0.0142284
874.700	0.0142416
874.778	0.0142963
874.856	0.0142677
874.934	0.0143162
875.012	0.0142484
875.090	0.0143790
875.168	0.0142007
875.246	0.0143355
875.325	0.0141710
875.403	0.0141364
875.481	0.0141488
875.559	0.0142133
875.637	0.0143224
875.715	0.0141890
875.793	0.0141411
875.871	0.0143141
875.950	0.0141916
876.028	0.0141367
876.106	0.0142447
876.184	0.0141914
876.262	0.0141988
876.340	0.0142129
876.418	0.0142546
876.496	0.0142238
876.575	0.0141969
876.653	0.0142483
876.731	0.0140748
876.809	0.0142894
876.887	0.0142442
876.965	0.0143437
877.043	0.0142920
877.121	0.0142174
877.200	0.0142897
877.278	0.0144423
877.356	0.0142173
877.434	0.0142329
877.512	0.0141859
877.590	0.0142628
877.668	0.0142397
877.746	0.0142123
877.825	0.0141721
877.903	0.0141682
877.981	0.0141678
878.059	0.0141175
878.137	0.0142105
878.215	0.0142121
878.293	0.0142193
878.371	0.0142754
878.450	0.0143282
878.528	0.0141413
878.606	0.0141875
878.684	0.0143756
878.762	0.0142701
878.840	0.0143008
878.918	0.0143404
878.996	0.0143218
879.075	0.0144140
879.153	0.0142817
879.231	0.0144073
879.309	0.0144642
879.387	0.0145299
879.465	0.0144590
879.543	0.0142458
879.621	0.0143636
879.700	0.0144113
879.778	0.0143110
879.856	0.0142338
879.934	0.0144278
880.012	0.0141750
880.090	0.0143077
880.168	0.0142745
880.246	0.0142674
880.325	0.0143533
880.403	0.0142977
880.481	0.0142635
880.559	0.0142813
880.637	0.0143951
880.715	0.0142766
880.793	0.0143990
880.871	0.0143112
880.950	0.0143467
881.028	0.0142150
881.106	0.0143160
881.184	0.0141660
881.262	0.0141100
881.340	0.0143314
881.418	0.0143699
881.496	0.0143576
881.575	0.0144383
881.653	0.0143713
881.731	0.0142695
881.809	0.0143513
881.887	0.0143472
881.965	0.0143839
882.043	0.0144476
882.121	0.0144045
882.200	0.0143881
882.278	0.0142741
882.356	0.0142712
882.434	0.0144192
882.512	0.0143767
882.590	0.0143876
882.668	0.0144130
882.746	0.0143259
882.825	0.0144282
882.903	0.0143525
882.981	0.0143596
883.059	0.0144241
883.137	0.0142741
883.215	0.0143062
883.293	0.0143131
883.371	0.0142768
883.450	0.0141902
883.528	0.0143199
883.606	0.0143103
883.684	0.0143298
883.762	0.0143526
883.840	0.0143819
883.918	0.0142907
883.996	0.0143208
884.075	0.0141550
884.153	0.0142950
884.231	0.0142430
884.309	0.0142905
884.387	0.0144120
884.465	0.0144214
884.543	0.0144453
884.621	0.0143365
884.700	0.0142942
884.778	0.0141921
884.856	0.0144180
884.934	0.0143324
885.012	0.0143542
885.090	0.0143333
885.168	0.0142037
885.246	0.0143466
885.325	0.0144814
885.403	0.0142939
885.481	0.0143514
885.559	0.0143579
885.637	0.0144238
885.715	0.0142910
885.793	0.0142792
885.871	0.0143672
885.950	0.0144469
886.028	0.0142972
886.106	0.0142936
886.184	0.0142528
886.262	0.0142986
886.340	0.0143274
886.418	0.0142871
886.496	0.0141781
886.575	0.0143379
886.653	0.0142901
886.731	0.0143605
886.809	0.0144560
886.887	0.0142826
886.965	0.0142942
887.043	0.0142841
887.121	0.0142184
887.200	0.0143148
887.278	0.0142583
887.356	0.0142919
887.434	0.0143698
887.512	0.0143230
887.590	0.0143835
887.668	0.0143428
887.746	0.0142404
887.825	0.0143346
887.903	0.0142480
887.981	0.0142550
888.059	0.0141891
888.137	0.0143260
888.215	0.0142753
888.293	0.0141615
888.371	0.0142657
888.450	0.0141911
888.528	0.0141877
888.606	0.0143044
888.684	0.0142554
888.762	0.0143075
888.840	0.0142400
888.918	0.0142610
888.996	0.0142529
889.075	0.0143116
889.153	0.0143662
889.231	0.0142889
889.309	0.0143707
889.387	0.0142587
889.465	0.0142079
889.543	0.0142718
889.621	0.0143746
889.700	0.0143806
889.778	0.0143286
889.856	0.0142080
889.934	0.0141641
890.012	0.0143349
890.090	0.0142333
890.168	0.0142892
890.246	0.0141450
890.325	0.0142325
890.403	0.0141656
890.481	0.0141203
890.559	0.0142140
890.637	0.0142304
890.715	0.0141609
890.793	0.0143047
890.871	0.0142220
890.950	0.0142270
891.028	0.0142117
891.106	0.0143015
891.184	0.0143712
891.262	0.0142358
891.340	0.0143674
891.418	0.0143656
891.496	0.0144074
891.575	0.0142852
891.653	0.0142185
891.731	0.0143363
891.809	0.0142312
891.887	0.0142322
891.965	0.0142107
892.043	0.0143652
892.121	0.0143619
892.200	0.0140530
892.278	0.0142851
892.356	0.0143214
892.434	0.0142884
892.512	0.0142568
892.590	0.0142274
892.668	0.0140900
892.746	0.0142313
892.825	0.0143384
892.903	0.0143705
892.981	0.0142581
893.059	0.0141659
893.137	0.0142684
893.215	0.0143562
893.293	0.0143157
893.371	0.0141107
893.450	0.0142347
893.528	0.0143423
893.606	0.0141892
893.684	0.0141673
893.762	0.0142806
893.840	0.0142062
893.918	0.0141744
893.996	0.0141889
894.075	0.0142979
894.153	0.0142288
894.231	0.0142348
894.309	0.0142590
894.387	0.0141931
894.465	0.0141316
894.543	0.0141573
894.621	0.0142230
894.700	0.0142725
894.778	0.0143431
894.856	0.0142490
894.934	0.0141845
895.012	0.0143258
895.090	0.0142339
895.168	0.0143137
895.246	0.0144086
895.325	0.0144373
895.403	0.0142477
895.481	0.0143948
895.559	0.0143800
895.637	0.0144084
895.715	0.0144686
895.793	0.0142735
895.871	0.0142987
895.950	0.0143356
896.028	0.0143900
896.106	0.0142344
896.184	0.0143207
896.262	0.0143320
896.340	0.0142119
896.418	0.0143530
896.496	0.0142280
896.575	0.0142883
896.653	0.0143036
896.731	0.0142152
896.809	0.0141535
896.887	0.0143768
896.965	0.0142395
897.043	0.0141617
897.121	0.0142509
897.200	0.0142837
897.278	0.0143195
897.356	0.0142833
897.434	0.0144079
897.512	0.0143191
897.590	0.0142853
897.668	0.0142796
897.746	0.0143209
897.825	0.0143147
897.903	0.0143676
897.981	0.0144637
898.059	0.0144704
898.137	0.0143217
898.215	0.0142181
898.293	0.0142543
898.371	0.0143234
898.450	0.0144409
898.528	0.0143457
898.606	0.0142914
898.684	0.0142293
898.762	0.0143269
898.840	0.0142826
898.918	0.0141103
898.996	0.0144518
899.075	0.0143334
899.153	0.0142128
899.231	0.0143485
899.309	0.0144092
899.387	0.0142757
899.465	0.0142266
899.543	0.0143414
899.621	0.0144125
899.700	0.0143229
899.778	0.0144445
899.856	0.0144048
899.934	0.0142851
900.012	0.0144749
900.090	0.0143142
900.168	0.0143963
900.246	0.0143896
900.325	0.0145207
900.403	0.0143763
900.481	0.0143460
900.559	0.0143528
900.637	0.0143016
900.715	0.0144788
900.793	0.0143034
900.871	0.0142005
900.950	0.0144431
901.028	0.0142915
901.106	0.0143584
901.184	0.0142559
901.262	0.0143549
901.340	0.0143504
901.418	0.0142992
901.496	0.0143002
901.575	0.0141615
901.653	0.0141531
901.731	0.0141457
901.809	0.0142551
901.887	0.0142751
901.965	0.0142561
902.043	0.0142475
902.121	0.0144799
902.200	0.0144537
902.278	0.0142897
902.356	0.0143736
902.434	0.0143327
902.512	0.0143804
902.590	0.0145063
902.668	0.0143673
902.746	0.0144285
902.825	0.0145094
902.903	0.0144102
902.981	0.0143368
903.059	0.0144145
903.137	0.0143935
903.215	0.0143048
903.293	0.0143011
903.371	0.0141585
903.450	0.0141589
903.528	0.0143749
903.606	0.0142102
903.684	0.0141961
903.762	0.0142318
903.840	0.0142944
903.918	0.0143436
903.996	0.0143748
904.075	0.0140597
904.153	0.0142335
904.231	0.0143377
904.309	0.0144424
904.387	0.0143771
904.465	0.0141981
904.543	0.0142048
904.621	0.0143163
904.700	0.0143907
904.778	0.0142566
904.856	0.0143330
904.934	0.0142479
905.012	0.0143131
905.090	0.0144267
905.168	0.0143478
905.246	0.0143240
905.325	0.0141575
905.403	0.0142593
905.481	0.0142664
905.559	0.0143060
905.637	0.0143653
905.715	0.0143483
905.793	0.0142122
905.871	0.0142340
905.950	0.0142438
906.028	0.0143252
906.106	0.0143507
906.184	0.0141933
906.262	0.0143610
906.340	0.0142953
906.418	0.0143154
906.496	0.0143437
906.575	0.0143382
906.653	0.0141841
906.731	0.0142719
906.809	0.0141733
906.887	0.0143185
906.965	0.0142757
907.043	0.0142287
907.121	0.0143245
907.200	0.0143063
907.278	0.0143684
907.356	0.0142358
907.434	0.0141799
907.512	0.0143520
907.590	0.0143259
907.668	0.0143784
907.746	0.0143069
907.825	0.0143705
907.903	0.0143804
907.981	0.0143071
908.059	0.0142384
908.137	0.0143197
908.215	0.0143144
908.293	0.0142204
908.371	0.0141413
908.450	0.0141999
908.528	0.0141460
908.606	0.0141424
908.684	0.0142996
908.762	0.0142517
908.840	0.0143690
908.918	0.0141941
908.996	0.0142162
909.075	0.0142528
909.153	0.0142270
909.231	0.0142148
909.309	0.0141326
909.387	0.0142288
909.465	0.0140534
909.543	0.0141312
909.621	0.0143624
909.700	0.0142834
909.778	0.0142590
909.856	0.0143702
909.934	0.0141999
910.012	0.0143192
910.090	0.0142799
910.168	0.0143082
910.246	0.0143233
910.325	0.0143546
910.403	0.0143587
910.481	0.0142937
910.559	0.0142610
910.637	0.0142037
910.715	0.0144113
910.793	0.0143971
910.871	0.0143786
910.950	0.0143403
911.028	0.0141917
911.106	0.0144098
911.184	0.0144420
911.262	0.0143661
911.340	0.0142464
911.418	0.0141338
911.496	0.0141903
911.575	0.0142871
911.653	0.0143097
911.731	0.0142817
911.809	0.0141740
911.887	0.0141564
911.965	0.0141357
912.043	0.0141812
912.121	0.0142489
912.200	0.0142538
912.278	0.0144065
912.356	0.0144758
912.434	0.0144048
912.512	0.0143690
912.590	0.0142785
912.668	0.0141747
912.746	0.0141712
912.825	0.0143694
912.903	0.0143552
912.981	0.0143922
913.059	0.0143304
913.137	0.0142352
913.215	0.0143506
913.293	0.0143327
913.371	0.0142265
913.450	0.0142954
913.528	0.0143082
913.606	0.0143314
913.684	0.0141748
913.762	0.0141829
913.840	0.0142853
913.918	0.0140721
913.996	0.0142845
914.075	0.0142427
914.153	0.0141825
914.231	0.0142763
914.309	0.0143610
914.387	0.0143111
914.465	0.0142510
914.543	0.0142683
914.621	0.0143166
914.700	0.0141860
914.778	0.0143083
914.856	0.0143794
914.934	0.0141748
915.012	0.0142941
915.090	0.0142626
915.168	0.0142249
915.246	0.0142377
915.325	0.0143744
915.403	0.0144089
915.481	0.0142165
915.559	0.0141498
915.637	0.0141819
915.715	0.0142565
915.793	0.0143274
915.871	0.0142550
915.950	0.0143037
916.028	0.0142561
916.106	0.0144073
916.184	0.0143354
916.262	0.0142542
916.340	0.0142713
916.418	0.0142979
916.496	0.0143571
916.575	0.0143079
916.653	0.0142521
916.731	0.0143278
916.809	0.0143523
916.887	0.0143157
916.965	0.0142294
917.043	0.0142606
917.121	0.0141753
917.200	0.0142667
917.278	0.0142989
917.356	0.0143323
917.434	0.0142337
917.512	0.0141945
917.590	0.0143024
917.668	0.0144370
917.746	0.0142645
917.825	0.0142699
917.903	0.0142325
917.981	0.0142664
918.059	0.0142751
918.137	0.0142309
918.215	0.0144778
918.293	0.0142621
918.371	0.0141955
918.450	0.0141972
918.528	0.0143548
918.606	0.0142989
918.684	0.0140828
918.762	0.0141695
918.840	0.0143731
918.918	0.0142773
918.996	0.0140807
919.075	0.0143295
919.153	0.0143212
919.231	0.0143967
919.309	0.0142957
919.387	0.0144065
919.465	0.0142487
919.543	0.0142942
919.621	0.0142199
919.700	0.0143431
919.778	0.0142210
919.856	0.0142371
919.934	0.0142417
920.012	0.0141818
920.090	0.0142361
920.168	0.0142980
920.246	0.0142566
920.325	0.0143846
920.403	0.0142432
920.481	0.0144215
920.559	0.0144657
920.637	0.0142023
920.715	0.0144707
920.793	0.0144834
920.871	0.0143990
920.950	0.0144932
921.028	0.0143655
921.106	0.0143521
921.184	0.0144563
921.262	0.0143632
921.340	0.0143316
921.418	0.0142607
921.496	0.0142107
921.575	0.0142378
921.653	0.0143047
921.731	0.0143102
921.809	0.0142399
921.887	0.0141100
921.965	0.0142355
922.043	0.0142839
922.121	0.0142536
922.200	0.0142209
922.278	0.0143211
922.356	0.0143612
922.434	0.0143504
922.512	0.0142905
922.590	0.0142484
922.668	0.0143675
922.746	0.0143863
922.825	0.0143449
922.903	0.0143649
922.981	0.0143185
923.059	0.0143626
923.137	0.0142638
923.215	0.0142901
923.293	0.0143813
923.371	0.0144166
923.450	0.0142195
923.528	0.0142758
923.606	0.0141673
923.684	0.0142569
923.762	0.0142702
923.840	0.0143048
923.918	0.0142778
923.996	0.0141873
924.075	0.0142442
924.153	0.0143123
924.231	0.0143609
924.309	0.0141797
924.387	0.0142518
924.465	0.0142243
924.543	0.0141354
924.621	0.0142583
924.700	0.0143519
924.778	0.0143519
924.856	0.0143508
924.934	0.0142741
925.012	0.0143218
925.090	0.0141770
925.168	0.0143364
925.246	0.0142557
925.325	0.0143819
925.403	0.0142091
925.481	0.0143829
925.559	0.0143440
925.637	0.0143094
925.715	0.0142323
925.793	0.0142852
925.871	0.0143052
925.950	0.0142703
926.028	0.0142164
926.106	0.0142185
926.184	0.0143190
926.262	0.0143593
926.340	0.0144312
926.418	0.0144918
926.496	0.0143098
926.575	0.0145168
926.653	0.0143272
926.731	0.0143291
926.809	0.0143031
926.887	0.0143652
926.965	0.0143095
927.043	0.0143107
927.121	0.0142436
927.200	0.0142131
927.278	0.0143300
927.356	0.0142879
927.434	0.0142261
927.512	0.0142989
927.590	0.0142904
927.668	0.0141270
927.746	0.0141792
927.825	0.0143324
927.903	0.0143761
927.981	0.0142627
928.059	0.0142084
928.137	0.0142169
928.215	0.0141450
928.293	0.0144321
928.371	0.0144173
928.450	0.0143439
928.528	0.0142914
928.606	0.0144775
928.684	0.0141998
928.762	0.0143654
928.840	0.0142986
928.918	0.0142238
928.996	0.0143948
929.075	0.0143311
929.153	0.0142916
929.231	0.0142921
929.309	0.0142846
929.387	0.0144872
929.465	0.0143591
929.543	0.0142416
929.621	0.0143037
929.700	0.0143061
929.778	0.0143731
929.856	0.0142578
929.934	0.0144147
930.012	0.0143330
930.090	0.0143282
930.168	0.0142683
930.246	0.0144485
930.325	0.0145259
930.403	0.0144093
930.481	0.0142822
930.559	0.0142794
930.637	0.0143642
930.715	0.0144209
930.793	0.0143815
930.871	0.0143046
930.950	0.0143555
931.028	0.0142942
931.106	0.0142970
931.184	0.0142789
931.262	0.0143556
931.340	0.0142824
931.418	0.0142742
931.496	0.0143389
931.575	0.0144563
931.653	0.0142875
931.731	0.0143491
931.809	0.0143442
931.887	0.0143719
931.965	0.0142564
932.043	0.0142364
932.121	0.0141402
932.200	0.0141827
932.278	0.0143810
932.356	0.0143612
932.434	0.0142514
932.512	0.0141498
932.590	0.0142805
932.668	0.0142006
932.746	0.0143059
932.825	0.0142944
932.903	0.0142109
932.981	0.0142312
933.059	0.0142736
933.137	0.0142891
933.215	0.0142917
933.293	0.0143672
933.371	0.0144190
933.450	0.0142741
933.528	0.0143118
933.606	0.0143169
933.684	0.0143038
933.762	0.0142755
933.840	0.0144183
933.918	0.0143364
933.996	0.0142957
934.075	0.0143272
934.153	0.0142368
934.231	0.0144117
934.309	0.0142841
934.387	0.0143258
934.465	0.0142382
934.543	0.0142203
934.621	0.0142973
934.700	0.0143232
934.778	0.0142465
934.856	0.0143194
934.934	0.0142754
935.012	0.0142283
935.090	0.0143005
935.168	0.0142045
935.246	0.0142458
935.325	0.0142570
935.403	0.0141850
935.481	0.0142821
935.559	0.0143804
935.637	0.0143352
935.715	0.0143021
935.793	0.0143466
935.871	0.0145072
935.950	0.0143257
936.028	0.0143630
936.106	0.0142855
936.184	0.0143329
936.262	0.0143435
936.340	0.0141827
936.418	0.0143719
936.496	0.0143215
936.575	0.0144193
936.653	0.0142846
936.731	0.0142552
936.809	0.0142509
936.887	0.0143299
936.965	0.0142736
937.043	0.0143000
937.121	0.0142478
937.200	0.0143195
937.278	0.0143446
937.356	0.0142612
937.434	0.0143091
937.512	0.0142770
937.590	0.0142407
937.668	0.0142989
937.746	0.0144360
937.825	0.0142992
937.903	0.0141177
937.981	0.0142051
938.059	0.0142365
938.137	0.0141586
938.215	0.0141546
938.293	0.0141808
938.371	0.0142140
938.450	0.0141817
938.528	0.0142580
938.606	0.0141108
938.684	0.0141985
938.762	0.0142228
938.840	0.0141581
938.918	0.0142394
938.996	0.0142056
939.075	0.0143156
939.153	0.0142150
939.231	0.0143676
939.309	0.0142669
939.387	0.0142956
939.465	0.0142944
939.543	0.0144160
939.621	0.0144223
939.700	0.0143314
939.778	0.0143906
939.856	0.0143606
939.934	0.0142986
940.012	0.0141560
940.090	0.0143522
940.168	0.0142417
940.246	0.0142431
940.325	0.0144398
940.403	0.0142386
940.481	0.0141458
940.559	0.0143195
940.637	0.0142963
940.715	0.0143434
940.793	0.0141743
940.871	0.0141355
940.950	0.0141671
941.028	0.0143844
941.106	0.0142776
941.184	0.0143433
941.262	0.0143413
941.340	0.0144090
941.418	0.0143835
941.496	0.0143700
941.575	0.0143398
941.653	0.0144357
941.731	0.0143494
941.809	0.0143021
941.887	0.0143236
941.965	0.0143023
942.043	0.0142736
942.121	0.0143027
942.200	0.0142290
942.278	0.0142831
942.356	0.0140952
942.434	0.0140908
942.512	0.0144167
942.590	0.0142513
942.668	0.0142493
942.746	0.0143979
942.825	0.0143502
942.903	0.0143294
942.981	0.0143040
943.059	0.0143486
943.137	0.0142173
943.215	0.0142505
943.293	0.0142677
943.371	0.0143337
943.450	0.0143547
943.528	0.0142180
943.606	0.0143519
943.684	0.0142093
943.762	0.0142663
943.840	0.0142345
943.918	0.0141988
943.996	0.0143138
944.075	0.0142088
944.153	0.0140553
944.231	0.0141311
944.309	0.0142254
944.387	0.0141437
944.465	0.0141713
944.543	0.0141843
944.621	0.0140702
944.700	0.0141744
944.778	0.0143190
944.856	0.0142775
944.934	0.0143014
945.012	0.0142403
945.090	0.0142638
945.168	0.0143308
945.246	0.0143501
945.325	0.0144706
945.403	0.0142686
945.481	0.0142743
945.559	0.0144627
945.637	0.0143434
945.715	0.0144071
945.793	0.0143487
945.871	0.0143385
945.950	0.0144667
946.028	0.0143525
946.106	0.0142606
946.184	0.0143468
946.262	0.0144134
946.340	0.0142342
946.418	0.0143616
946.496	0.0142334
946.575	0.0143835
946.653	0.0142213
946.731	0.0142673
946.809	0.0143769
946.887	0.0143820
946.965	0.0142480
947.043	0.0142638
947.121	0.0143732
947.200	0.0143208
947.278	0.0143608
947.356	0.0143964
947.434	0.0142213
947.512	0.0142976
947.590	0.0143446
947.668	0.0142801
947.746	0.0143765
947.825	0.0142894
947.903	0.0143039
947.981	0.0143213
948.059	0.0141914
948.137	0.0142914
948.215	0.0142890
948.293	0.0143096
948.371	0.0142040
948.450	0.0140865
948.528	0.0142757
948.606	0.0142291
948.684	0.0142712
948.762	0.0142472
948.840	0.0142523
948.918	0.0142667
948.996	0.0142783
949.075	0.0140697
949.153	0.0143669
949.231	0.0142959
949.309	0.0143304
949.387	0.0142513
949.465	0.0143684
949.543	0.0144799
949.621	0.0142986
949.700	0.0144307
949.778	0.0144331
949.856	0.0141930
949.934	0.0142407
950.012	0.0142803
950.090	0.0143848
950.168	0.0143649
950.246	0.0143378
950.325	0.0142899
950.403	0.0142146
950.481	0.0142548
950.559	0.0141830
950.637	0.0143211
950.715	0.0142162
950.793	0.0143097
950.871	0.0143876
950.950	0.0142479
951.028	0.0142282
951.106	0.0143345
951.184	0.0141743
951.262	0.0143790
951.340	0.0144066
951.418	0.0144209
951.496	0.0144745
951.575	0.0144025
951.653	0.0143833
951.731	0.0142464
951.809	0.0143491
951.887	0.0143533
951.965	0.0144180
952.043	0.0143443
952.121	0.0141883
952.200	0.0142659
952.278	0.0142538
952.356	0.0142734
952.434	0.0142970
952.512	0.0141711
952.590	0.0142467
952.668	0.0142042
952.746	0.0142536
952.825	0.0142548
952.903	0.0141669
952.981	0.0143525
953.059	0.0142707
953.137	0.0142319
953.215	0.0143073
953.293	0.0142934
953.371	0.0143817
953.450	0.0141795
953.528	0.0142125
953.606	0.0143111
953.684	0.0141896
953.762	0.0141387
953.840	0.0142279
953.918	0.0142091
953.996	0.0142833
954.075	0.0144006
954.153	0.0143419
954.231	0.0142846
954.309	0.0143474
954.387	0.0142712
954.465	0.0142739
954.543	0.0143032
954.621	0.0143708
954.700	0.0143260
954.778	0.0142409
954.856	0.0142628
954.934	0.0144068
955.012	0.0144015
955.090	0.0141921
955.168	0.0141689
955.246	0.0143871
955.325	0.0143652
955.403	0.0144260
955.481	0.0143568
955.559	0.0142590
955.637	0.0144581
955.715	0.0143874
955.793	0.0142498
955.871	0.0143862
955.950	0.0144091
956.028	0.0142358
956.106	0.0142831
956.184	0.0142666
956.262	0.0141874
956.340	0.0143375
956.418	0.0144635
956.496	0.0141943
956.575	0.0142171
956.653	0.0143820
956.731	0.0142670
956.809	0.0142870
956.887	0.0141518
956.965	0.0142009
957.043	0.0141779
957.121	0.0141795
957.200	0.0143274
957.278	0.0142081
957.356	0.0142558
957.434	0.0142226
957.512	0.0142989
957.590	0.0143052
957.668	0.0141827
957.746	0.0142986
957.825	0.0142702
957.903	0.0141838
957.981	0.0141950
958.059	0.0142150
958.137	0.0143358
958.215	0.0142387
958.293	0.0140665
958.371	0.0143516
958.450	0.0140898
958.528	0.0142164
958.606	0.0143032
958.684	0.0142654
958.762	0.0143002
958.840	0.0144132
958.918	0.0142588
958.996	0.0143686
959.075	0.0141982
959.153	0.0143558
959.231	0.0142279
959.309	0.0142932
959.387	0.0143839
959.465	0.0143199
959.543	0.0142753
959.621	0.0142608
959.700	0.0142639
959.778	0.0143740
959.856	0.0143536
959.934	0.0142653
960.012	0.0142405
960.090	0.0143228
960.168	0.0143125
960.246	0.0142652
960.325	0.0143660
960.403	0.0143103
960.481	0.0142822
960.559	0.0142669
960.637	0.0142307
960.715	0.0142426
960.793	0.0143092
960.871	0.0143401
960.950	0.0143267
961.028	0.0142728
961.106	0.0143329
961.184	0.0141309
961.262	0.0143127
961.340	0.0142127
961.418	0.0142711
961.496	0.0143133
961.575	0.0143347
961.653	0.0142297
961.731	0.0142328
961.809	0.0141411
961.887	0.0143530
961.965	0.0144626
962.043	0.0142519
962.121	0.0142044
962.200	0.0143657
962.278	0.0141872
962.356	0.0143379
962.434	0.0142625
962.512	0.0142949
962.590	0.0140697
962.668	0.0142052
962.746	0.0143686
962.825	0.0142664
962.903	0.0143082
962.981	0.0143148
963.059	0.0142572
963.137	0.0142375
963.215	0.0142770
963.293	0.0142734
963.371	0.0143148
963.450	0.0143509
963.528	0.0143461
963.606	0.0143124
963.684	0.0143916
963.762	0.0144128
963.840	0.0143432
963.918	0.0142310
963.996	0.0143479
964.075	0.0144206
964.153	0.0141570
964.231	0.0142846
964.309	0.0143311
964.387	0.0142747
964.465	0.0144187
964.543	0.0143232
964.621	0.0142697
964.700	0.0141984
964.778	0.0143761
964.856	0.0143280
964.934	0.0143947
965.012	0.0143037
965.090	0.0144313
965.168	0.0142934
965.246	0.0141341
965.325	0.0142719
965.403	0.0142661
965.481	0.0142477
965.559	0.0142680
965.637	0.0142988
965.715	0.0142148
965.793	0.0143636
965.871	0.0143432
965.950	0.0142425
966.028	0.0143230
966.106	0.0142793
966.184	0.0143446
966.262	0.0143394
966.340	0.0142829
966.418	0.0141742
966.496	0.0141616
966.575	0.0142728
966.653	0.0143131
966.731	0.0143134
966.809	0.0142164
966.887	0.0142712
966.965	0.0142902
967.043	0.0142207
967.121	0.0141967
967.200	0.0142330
967.278	0.0142649
967.356	0.0142807
967.434	0.0143135
967.512	0.0143147
967.590	0.0144113
967.668	0.0143688
967.746	0.0141988
967.825	0.0141328
967.903	0.0142608
967.981	0.0141953
968.059	0.0142751
968.137	0.0142563
968.215	0.0141295
968.293	0.0141232
968.371	0.0143587
968.450	0.0141951
968.528	0.0143137
968.606	0.0142810
968.684	0.0142085
968.762	0.0141655
968.840	0.0143399
968.918	0.0142476
968.996	0.0141932
969.075	0.0143005
969.153	0.0143853
969.231	0.0142863
969.309	0.0144165
969.387	0.0144351
969.465	0.0143810
969.543	0.0144479
969.621	0.0142901
969.700	0.0143060
969.778	0.0143135
969.856	0.0144331
969.934	0.0142386
970.012	0.0141912
970.090	0.0141791
970.168	0.0142252
970.246	0.0143077
970.325	0.0142760
970.403	0.0144018
970.481	0.0143813
970.559	0.0142146
970.637	0.0142917
970.715	0.0143057
970.793	0.0142483
970.871	0.0143993
970.950	0.0143204
971.028	0.0143014
971.106	0.0142646
971.184	0.0143528
971.262	0.0143934
971.340	0.0144213
971.418	0.0143561
971.496	0.0143044
971.575	0.0142862
971.653	0.0142167
971.731	0.0143265
971.809	0.0143526
971.887	0.0142979
971.965	0.0142194
972.043	0.0144010
972.121	0.0141879
972.200	0.0141657
972.278	0.0141740
972.356	0.0143157
972.434	0.0142965
972.512	0.0142698
972.590	0.0143623
972.668	0.0143102
972.746	0.0144740
972.825	0.0143633
972.903	0.0144062
972.981	0.0143541
973.059	0.0141519
973.137	0.0143594
973.215	0.0143762
973.293	0.0144006
973.371	0.0143419
973.450	0.0143684
973.528	0.0143335
973.606	0.0145068
973.684	0.0142020
973.762	0.0142250
973.840	0.0142142
973.918	0.0144199
973.996	0.0144002
974.075	0.0144613
974.153	0.0142586
974.231	0.0142709
974.309	0.0142345
974.387	0.0141618
974.465	0.0143609
974.543	0.0142255
974.621	0.0142628
974.700	0.0142699
974.778	0.0143251
974.856	0.0143549
974.934	0.0142948
975.012	0.0143781
975.090	0.0143665
975.168	0.0143892
975.246	0.0143112
975.325	0.0144514
975.403	0.0144426
975.481	0.0144966
975.559	0.0144036
975.637	0.0143349
975.715	0.0143404
975.793	0.0144225
975.871	0.0143684
975.950	0.0142979
976.028	0.0143760
976.106	0.0144482
976.184	0.0142777
976.262	0.0142120
976.340	0.0142435
976.418	0.0144907
976.496	0.0141546
976.575	0.0141640
976.653	0.0144030
976.731	0.0142982
976.809	0.0142554
976.887	0.0144029
976.965	0.0141797
977.043	0.0143163
977.121	0.0142747
977.200	0.0141638
977.278	0.0142020
977.356	0.0144857
977.434	0.0142856
977.512	0.0143264
977.590	0.0142938
977.668	0.0142525
977.746	0.0142991
977.825	0.0142117
977.903	0.0142674
977.981	0.0142759
978.059	0.0143010
978.137	0.0143299
978.215	0.0142767
978.293	0.0142505
978.371	0.0142629
978.450	0.0142693
978.528	0.0143013
978.606	0.0142989
978.684	0.0142944
978.762	0.0144361
978.840	0.0143440
978.918	0.0143928
978.996	0.0143127
979.075	0.0143427
979.153	0.0143900
979.231	0.0144457
979.309	0.0142597
979.387	0.0143763
979.465	0.0143741
979.543	0.0143211
979.621	0.0142527
979.700	0.0143182
979.778	0.0143259
979.856	0.0143561
979.934	0.0142566
980.012	0.0143011
980.090	0.0143896
980.168	0.0143543
980.246	0.0143134
980.325	0.0142846
980.403	0.0141680
980.481	0.0141789
980.559	0.0144121
980.637	0.0142794
980.715	0.0143605
980.793	0.0142645
980.871	0.0141097
980.950	0.0141962
981.028	0.0143372
981.106	0.0144753
981.184	0.0143842
981.262	0.0143445
981.340	0.0142555
981.418	0.0143167
981.496	0.0142942
981.575	0.0143558
981.653	0.0144572
981.731	0.0143238
981.809	0.0142501
981.887	0.0143090
981.965	0.0142670
982.043	0.0142639
982.121	0.0142590
982.200	0.0143354
982.278	0.0142587
982.356	0.0142972
982.434	0.0142470
982.512	0.0143087
982.590	0.0142634
982.668	0.0143570
982.746	0.0141301
982.825	0.0141282
982.903	0.0142740
982.981	0.0142511
983.059	0.0143318
983.137	0.0142508
983.215	0.0143100
983.293	0.0142382
983.371	0.0142634
983.450	0.0142405
983.528	0.0142434
983.606	0.0143069
983.684	0.0144195
983.762	0.0144124
983.840	0.0143380
983.918	0.0144813
983.996	0.0144865
984.075	0.0143499
984.153	0.0143475
984.231	0.0142752
984.309	0.0143285
984.387	0.0142353
984.465	0.0143082
984.543	0.0143707
984.621	0.0141452
984.700	0.0143642
984.778	0.0142609
984.856	0.0143091
984.934	0.0142822
985.012	0.0143465
985.090	0.0143189
985.168	0.0142886
985.246	0.0143543
985.325	0.0142422
985.403	0.0141676
985.481	0.0144385
985.559	0.0143063
985.637	0.0141969
985.715	0.0143272
985.793	0.0142726
985.871	0.0143259
985.950	0.0141340
986.028	0.0142737
986.106	0.0142731
986.184	0.0143728
986.262	0.0142983
986.340	0.0143150
986.418	0.0142529
986.496	0.0143285
986.575	0.0143198
986.653	0.0143578
986.731	0.0142492
986.809	0.0141541
986.887	0.0142485
986.965	0.0142859
987.043	0.0143292
987.121	0.0143417
987.200	0.0143546
987.278	0.0141302
987.356	0.0141647
987.434	0.0142075
987.512	0.0142874
987.590	0.0142098
987.668	0.0140984
987.746	0.0141730
987.825	0.0142008
987.903	0.0142725
987.981	0.0142706
988.059	0.0142502
988.137	0.0143058
988.215	0.0143677
988.293	0.0142845
988.371	0.0142561
988.450	0.0143135
988.528	0.0142632
988.606	0.0143797
988.684	0.0142892
988.762	0.0144151
988.840	0.0141920
988.918	0.0142300
988.996	0.0144658
989.075	0.0143498
989.153	0.0141933
989.231	0.0141367
989.309	0.0143226
989.387	0.0142744
989.465	0.0142806
989.543	0.0142400
989.621	0.0143021
989.700	0.0142392
989.778	0.0142616
989.856	0.0143741
989.934	0.0141357
990.012	0.0140973
990.090	0.0143026
990.168	0.0142046
990.246	0.0143333
990.325	0.0144868
990.403	0.0142322
990.481	0.0143610
990.559	0.0143357
990.637	0.0143061
990.715	0.0143269
990.793	0.0144861
990.871	0.0144184
990.950	0.0143711
991.028	0.0144102
991.106	0.0142910
991.184	0.0142995
991.262	0.0143702
991.340	0.0144998
991.418	0.0144386
991.496	0.0144324
991.575	0.0144133
991.653	0.0144094
991.731	0.0144429
991.809	0.0144292
991.887	0.0142746
991.965	0.0143211
992.043	0.0144660
992.121	0.0143755
992.200	0.0144081
992.278	0.0143890
992.356	0.0144066
992.434	0.0143579
992.512	0.0142793
992.590	0.0142585
992.668	0.0143608
992.746	0.0143475
992.825	0.0143172
992.903	0.0143764
992.981	0.0141546
993.059	0.0144154
993.137	0.0143981
993.215	0.0142825
993.293	0.0142930
993.371	0.0142767
993.450	0.0144469
993.528	0.0142152
993.606	0.0141808
993.684	0.0143473
993.762	0.0142155
993.840	0.0143909
993.918	0.0143578
993.996	0.0142851
994.075	0.0143789
994.153	0.0144199
994.231	0.0143203
994.309	0.0142794
994.387	0.0143269
994.465	0.0143406
994.543	0.0144704
994.621	0.0143130
994.700	0.0143329
994.778	0.0142572
994.856	0.0143893
994.934	0.0143517
995.012	0.0142719
995.090	0.0141540
995.168	0.0143253
995.246	0.0142569
995.325	0.0142413
995.403	0.0141641
995.481	0.0142178
995.559	0.0142522
995.637	0.0142439
995.715	0.0142049
995.793	0.0142832
995.871	0.0144224
995.950	0.0143526
996.028	0.0142345
996.106	0.0142297
996.184	0.0144131
996.262	0.0143322
996.340	0.0143793
996.418	0.0143624
996.496	0.0143381
996.575	0.0143484
996.653	0.0143422
996.731	0.0144343
996.809	0.0142800
996.887	0.0142959
996.965	0.0142836
997.043	0.0144558
997.121	0.0142319
997.200	0.0142477
997.278	0.0143228
997.356	0.0141712
997.434	0.0141193
997.512	0.0142090
997.590	0.0142100
997.668	0.0142590
997.746	0.0141434
997.825	0.0141997
997.903	0.0142226
997.981	0.0141301
998.059	0.0142267
998.137	0.0143229
998.215	0.0143437
998.293	0.0142834
998.371	0.0143530
998.450	0.0142908
998.528	0.0142423
998.606	0.0143645
998.684	0.0144391
998.762	0.0142515
998.840	0.0141734
998.918	0.0142567
