05/04/2022	21:32:58	Ver.	4.1	UNKNOWN
Optical Delay	678.996401	Delta X		0.078125	Sweeps	1	Scan Rate	0/0
Coordinates	Axis 1	NaN	Axis 2	NaN	Axis 3	NaN	Axis 4	NaN	Axis 5	NaN	Axis 6	0.000000
TX Power	0.000000	RX Power	0.000000

678.996	0.0147220
679.075	0.0147758
679.153	0.0148346
679.231	0.0145928
679.309	0.0146621
679.387	0.0146224
679.465	0.0147557
679.543	0.0147919
679.621	0.0147116
679.700	0.0147623
679.778	0.0148549
679.856	0.0147413
679.934	0.0147746
680.012	0.0148595
680.090	0.0146822
680.168	0.0145998
680.246	0.0147173
680.325	0.0149031
680.403	0.0146011
680.481	0.0146218
680.559	0.0147097
680.637	0.0146605
680.715	0.0147848
680.793	0.0146384
680.871	0.0146464
680.950	0.0145771
681.028	0.0146485
681.106	0.0146122
681.184	0.0147332
681.262	0.0146870
681.340	0.0145760
681.418	0.0145161
681.496	0.0146136
681.575	0.0147266
681.653	0.0146393
681.731	0.0147329
681.809	0.0146512
681.887	0.0147626
681.965	0.0146482
682.043	0.0147036
682.121	0.0147758
682.200	0.0147302
682.278	0.0148367
682.356	0.0147536
682.434	0.0146876
682.512	0.0148042
682.590	0.0147086
682.668	0.0147361
682.746	0.0147975
682.825	0.0145841
682.903	0.0146805
682.981	0.0146767
683.059	0.0147330
683.137	0.0145721
683.215	0.0145332
683.293	0.0145831
683.371	0.0144366
683.450	0.0145698
683.528	0.0145763
683.606	0.0147463
683.684	0.0146492
683.762	0.0147045
683.840	0.0147554
683.918	0.0146778
683.996	0.0148919
684.075	0.0148849
684.153	0.0148648
684.231	0.0147887
684.309	0.0147544
684.387	0.0148282
684.465	0.0147973
684.543	0.0148856
684.621	0.0148129
684.700	0.0147888
684.778	0.0148084
684.856	0.0146547
684.934	0.0147964
685.012	0.0146906
685.090	0.0145856
685.168	0.0146771
685.246	0.0145918
685.325	0.0144338
685.403	0.0145982
685.481	0.0144682
685.559	0.0145257
685.637	0.0144339
685.715	0.0144650
685.793	0.0145249
685.871	0.0144601
685.950	0.0144483
686.028	0.0145007
686.106	0.0146633
686.184	0.0146347
686.262	0.0147365
686.340	0.0146732
686.418	0.0147541
686.496	0.0147580
686.575	0.0147096
686.653	0.0148735
686.731	0.0149371
686.809	0.0148888
686.887	0.0150094
686.965	0.0150803
687.043	0.0150796
687.121	0.0150101
687.200	0.0150918
687.278	0.0149265
687.356	0.0146347
687.434	0.0147544
687.512	0.0145523
687.590	0.0144080
687.668	0.0143241
687.746	0.0143766
687.825	0.0143557
687.903	0.0142497
687.981	0.0142230
688.059	0.0143626
688.137	0.0142690
688.215	0.0142408
688.293	0.0142385
688.371	0.0142609
688.450	0.0141832
688.528	0.0144249
688.606	0.0145554
688.684	0.0146282
688.762	0.0148910
688.840	0.0148367
688.918	0.0148814
688.996	0.0148660
689.075	0.0150468
689.153	0.0151405
689.231	0.0150093
689.309	0.0149978
689.387	0.0150469
689.465	0.0147703
689.543	0.0148575
689.621	0.0148740
689.700	0.0148610
689.778	0.0147926
689.856	0.0149009
689.934	0.0147983
690.012	0.0149098
690.090	0.0148171
690.168	0.0147541
690.246	0.0147920
690.325	0.0146767
690.403	0.0147577
690.481	0.0146018
690.559	0.0146248
690.637	0.0145567
690.715	0.0144713
690.793	0.0145314
690.871	0.0144112
690.950	0.0144344
691.028	0.0142852
691.106	0.0142720
691.184	0.0143796
691.262	0.0143657
691.340	0.0143193
691.418	0.0143827
691.496	0.0142767
691.575	0.0143517
691.653	0.0144346
691.731	0.0145689
691.809	0.0146101
691.887	0.0146311
691.965	0.0147399
692.043	0.0149454
692.121	0.0149924
692.200	0.0150334
692.278	0.0149883
692.356	0.0150444
692.434	0.0151060
692.512	0.0152018
692.590	0.0150561
692.668	0.0150298
692.746	0.0149776
692.825	0.0150182
692.903	0.0151019
692.981	0.0149625
693.059	0.0149039
693.137	0.0150063
693.215	0.0147888
693.293	0.0147050
693.371	0.0147543
693.450	0.0146853
693.528	0.0148100
693.606	0.0147065
693.684	0.0145877
693.762	0.0145492
693.840	0.0144292
693.918	0.0145690
693.996	0.0144041
694.075	0.0143314
694.153	0.0143876
694.231	0.0144382
694.309	0.0145678
694.387	0.0144354
694.465	0.0144426
694.543	0.0143188
694.621	0.0143985
694.700	0.0144067
694.778	0.0145713
694.856	0.0146638
694.934	0.0146328
695.012	0.0146899
695.090	0.0147569
695.168	0.0149889
695.246	0.0150816
695.325	0.0150969
695.403	0.0152151
695.481	0.0152553
695.559	0.0153555
695.637	0.0153384
695.715	0.0151997
695.793	0.0152503
695.871	0.0150916
695.950	0.0148631
696.028	0.0148932
696.106	0.0148638
696.184	0.0148204
696.262	0.0149378
696.340	0.0147478
696.418	0.0148230
696.496	0.0146057
696.575	0.0146204
696.653	0.0146452
696.731	0.0145663
696.809	0.0144954
696.887	0.0144147
696.965	0.0143822
697.043	0.0144238
697.121	0.0144354
697.200	0.0142309
697.278	0.0143317
697.356	0.0145502
697.434	0.0144469
697.512	0.0145600
697.590	0.0145976
697.668	0.0145683
697.746	0.0145415
697.825	0.0146068
697.903	0.0146104
697.981	0.0145149
698.059	0.0145741
698.137	0.0145898
698.215	0.0147095
698.293	0.0146485
698.371	0.0146053
698.450	0.0147093
698.528	0.0147487
698.606	0.0149945
698.684	0.0150263
698.762	0.0147627
698.840	0.0149931
698.918	0.0149350
698.996	0.0151675
699.075	0.0151653
699.153	0.0151222
699.231	0.0151736
699.309	0.0153391
699.387	0.0153184
699.465	0.0150365
699.543	0.0151305
699.621	0.0149062
699.700	0.0147967
699.778	0.0145442
699.856	0.0144907
699.934	0.0142887
700.012	0.0142740
700.090	0.0140404
700.168	0.0142305
700.246	0.0141508
700.325	0.0141513
700.403	0.0144042
700.481	0.0142478
700.559	0.0143530
700.637	0.0144084
700.715	0.0145648
700.793	0.0147306
700.871	0.0148222
700.950	0.0148191
701.028	0.0149068
701.106	0.0148317
701.184	0.0149064
701.262	0.0150722
701.340	0.0150450
701.418	0.0149781
701.496	0.0149754
701.575	0.0148189
701.653	0.0148162
701.731	0.0147028
701.809	0.0145214
701.887	0.0146186
701.965	0.0147308
702.043	0.0147388
702.121	0.0148048
702.200	0.0150748
702.278	0.0149839
702.356	0.0150274
702.434	0.0150348
702.512	0.0150429
702.590	0.0149338
702.668	0.0149947
702.746	0.0149503
702.825	0.0147495
702.903	0.0146026
702.981	0.0144899
703.059	0.0143533
703.137	0.0144196
703.215	0.0142041
703.293	0.0143532
703.371	0.0142388
703.450	0.0142177
703.528	0.0143051
703.606	0.0144984
703.684	0.0144186
703.762	0.0144813
703.840	0.0146272
703.918	0.0145893
703.996	0.0147591
704.075	0.0148889
704.153	0.0147719
704.231	0.0148450
704.309	0.0149303
704.387	0.0147177
704.465	0.0146252
704.543	0.0146033
704.621	0.0145161
704.700	0.0144651
704.778	0.0145757
704.856	0.0144415
704.934	0.0144970
705.012	0.0145596
705.090	0.0145070
705.168	0.0146871
705.246	0.0147906
705.325	0.0149819
705.403	0.0150320
705.481	0.0152666
705.559	0.0151884
705.637	0.0151454
705.715	0.0151115
705.793	0.0148608
705.871	0.0148361
705.950	0.0148473
706.028	0.0147566
706.106	0.0146412
706.184	0.0144628
706.262	0.0143241
706.340	0.0143142
706.418	0.0144885
706.496	0.0143703
706.575	0.0144255
706.653	0.0145129
706.731	0.0144549
706.809	0.0147430
706.887	0.0148822
706.965	0.0148508
707.043	0.0148183
707.121	0.0149855
707.200	0.0147432
707.278	0.0148333
707.356	0.0148119
707.434	0.0146315
707.512	0.0145213
707.590	0.0146587
707.668	0.0145798
707.746	0.0146790
707.825	0.0145796
707.903	0.0145969
707.981	0.0146618
708.059	0.0146636
708.137	0.0147902
708.215	0.0147852
708.293	0.0147765
708.371	0.0148989
708.450	0.0150065
708.528	0.0150364
708.606	0.0149421
708.684	0.0149423
708.762	0.0149957
708.840	0.0149574
708.918	0.0147874
708.996	0.0147569
709.075	0.0147529
709.153	0.0147430
709.231	0.0146252
709.309	0.0145242
709.387	0.0145140
709.465	0.0145662
709.543	0.0145251
709.621	0.0147678
709.700	0.0147778
709.778	0.0146595
709.856	0.0146752
709.934	0.0148786
710.012	0.0149020
710.090	0.0148544
710.168	0.0149110
710.246	0.0148257
710.325	0.0146776
710.403	0.0146445
710.481	0.0146583
710.559	0.0145274
710.637	0.0146120
710.715	0.0146284
710.793	0.0145465
710.871	0.0145214
710.950	0.0147364
711.028	0.0146153
711.106	0.0146435
711.184	0.0145534
711.262	0.0147732
711.340	0.0147932
711.418	0.0147680
711.496	0.0146277
711.575	0.0148666
711.653	0.0148395
711.731	0.0148361
711.809	0.0148327
711.887	0.0147478
711.965	0.0148685
712.043	0.0146349
712.121	0.0146090
712.200	0.0146990
712.278	0.0146569
712.356	0.0147053
712.434	0.0146403
712.512	0.0146276
712.590	0.0145724
712.668	0.0145676
712.746	0.0146401
712.825	0.0146841
712.903	0.0147771
712.981	0.0148308
713.059	0.0147008
713.137	0.0149491
713.215	0.0147357
713.293	0.0147031
713.371	0.0147137
713.450	0.0148045
713.528	0.0146597
713.606	0.0146151
713.684	0.0147279
713.762	0.0147032
713.840	0.0146830
713.918	0.0146395
713.996	0.0146296
714.075	0.0146445
714.153	0.0147508
714.231	0.0148950
714.309	0.0149338
714.387	0.0148551
714.465	0.0148424
714.543	0.0147843
714.621	0.0147812
714.700	0.0146629
714.778	0.0146976
714.856	0.0146589
714.934	0.0147116
715.012	0.0145199
715.090	0.0145876
715.168	0.0146202
715.246	0.0145885
715.325	0.0145938
715.403	0.0145895
715.481	0.0147324
715.559	0.0147222
715.637	0.0145726
715.715	0.0146546
715.793	0.0147501
715.871	0.0149735
715.950	0.0149871
716.028	0.0148881
716.106	0.0149786
716.184	0.0149141
716.262	0.0149941
716.340	0.0148443
716.418	0.0147801
716.496	0.0148911
716.575	0.0148592
716.653	0.0146754
716.731	0.0147021
716.809	0.0146483
716.887	0.0145000
716.965	0.0146319
717.043	0.0145497
717.121	0.0146016
717.200	0.0144759
717.278	0.0145771
717.356	0.0145410
717.434	0.0145286
717.512	0.0146397
717.590	0.0146156
717.668	0.0145629
717.746	0.0146379
717.825	0.0148365
717.903	0.0146950
717.981	0.0146271
718.059	0.0147915
718.137	0.0148497
718.215	0.0149604
718.293	0.0150067
718.371	0.0149233
718.450	0.0149984
718.528	0.0150571
718.606	0.0149645
718.684	0.0149076
718.762	0.0148096
718.840	0.0147841
718.918	0.0146793
718.996	0.0148092
719.075	0.0146605
719.153	0.0146171
719.231	0.0146596
719.309	0.0147601
719.387	0.0146159
719.465	0.0144858
719.543	0.0145390
719.621	0.0144941
719.700	0.0145752
719.778	0.0145853
719.856	0.0144863
719.934	0.0144763
720.012	0.0145309
720.090	0.0144115
720.168	0.0144887
720.246	0.0145391
720.325	0.0144306
720.403	0.0145422
720.481	0.0147222
720.559	0.0145274
720.637	0.0146102
720.715	0.0145731
720.793	0.0146664
720.871	0.0146063
720.950	0.0146944
721.028	0.0147636
721.106	0.0147180
721.184	0.0146458
721.262	0.0146841
721.340	0.0148019
721.418	0.0148315
721.496	0.0149289
721.575	0.0148730
721.653	0.0149314
721.731	0.0147117
721.809	0.0148257
721.887	0.0148281
721.965	0.0148193
722.043	0.0148790
722.121	0.0147456
722.200	0.0147163
722.278	0.0147908
722.356	0.0146962
722.434	0.0145919
722.512	0.0145906
722.590	0.0146468
722.668	0.0146203
722.746	0.0145986
722.825	0.0146516
722.903	0.0146768
722.981	0.0146334
723.059	0.0145119
723.137	0.0146524
723.215	0.0145403
723.293	0.0145679
723.371	0.0146036
723.450	0.0148218
723.528	0.0146273
723.606	0.0146387
723.684	0.0147942
723.762	0.0146717
723.840	0.0145943
723.918	0.0148238
723.996	0.0147217
724.075	0.0146542
724.153	0.0145798
724.231	0.0146528
724.309	0.0148072
724.387	0.0146906
724.465	0.0145980
724.543	0.0145539
724.621	0.0146131
724.700	0.0146557
724.778	0.0147787
724.856	0.0147765
724.934	0.0147853
725.012	0.0145951
725.090	0.0148065
725.168	0.0148283
725.246	0.0148196
725.325	0.0148183
725.403	0.0148401
725.481	0.0149170
725.559	0.0147697
725.637	0.0147035
725.715	0.0147925
725.793	0.0148283
725.871	0.0147966
725.950	0.0149020
726.028	0.0147990
726.106	0.0147914
726.184	0.0148817
726.262	0.0146157
726.340	0.0146711
726.418	0.0145812
726.496	0.0146054
726.575	0.0146700
726.653	0.0145701
726.731	0.0147223
726.809	0.0144106
726.887	0.0145194
726.965	0.0144782
727.043	0.0144698
727.121	0.0144321
727.200	0.0145227
727.278	0.0146028
727.356	0.0145886
727.434	0.0147014
727.512	0.0146369
727.590	0.0145996
727.668	0.0146160
727.746	0.0147288
727.825	0.0147740
727.903	0.0147176
727.981	0.0148264
728.059	0.0147402
728.137	0.0149081
728.215	0.0148851
728.293	0.0147469
728.371	0.0148114
728.450	0.0149363
728.528	0.0148666
728.606	0.0148196
728.684	0.0149585
728.762	0.0149088
728.840	0.0149131
728.918	0.0148295
728.996	0.0148914
729.075	0.0148839
729.153	0.0148101
729.231	0.0148810
729.309	0.0147495
729.387	0.0146568
729.465	0.0146796
729.543	0.0145650
729.621	0.0146163
729.700	0.0145618
729.778	0.0145323
729.856	0.0144872
729.934	0.0145206
730.012	0.0145364
730.090	0.0144478
730.168	0.0144636
730.246	0.0145738
730.325	0.0145161
730.403	0.0147632
730.481	0.0148035
730.559	0.0146473
730.637	0.0146060
730.715	0.0146316
730.793	0.0146685
730.871	0.0147752
730.950	0.0146366
731.028	0.0146146
731.106	0.0147745
731.184	0.0147845
731.262	0.0148231
731.340	0.0147891
731.418	0.0146811
731.496	0.0147964
731.575	0.0146972
731.653	0.0148795
731.731	0.0147474
731.809	0.0148649
731.887	0.0149081
731.965	0.0148266
732.043	0.0149084
732.121	0.0147922
732.200	0.0148170
732.278	0.0148090
732.356	0.0147105
732.434	0.0149234
732.512	0.0148224
732.590	0.0146875
732.668	0.0148039
732.746	0.0148221
732.825	0.0146970
732.903	0.0146936
732.981	0.0146909
733.059	0.0146445
733.137	0.0146568
733.215	0.0148038
733.293	0.0147201
733.371	0.0146836
733.450	0.0146356
733.528	0.0145974
733.606	0.0144805
733.684	0.0145770
733.762	0.0146613
733.840	0.0145724
733.918	0.0146870
733.996	0.0148051
734.075	0.0145161
734.153	0.0145832
734.231	0.0146618
734.309	0.0145460
734.387	0.0146362
734.465	0.0146297
734.543	0.0147953
734.621	0.0147464
734.700	0.0147653
734.778	0.0147795
734.856	0.0148444
734.934	0.0149200
735.012	0.0148486
735.090	0.0148931
735.168	0.0148380
735.246	0.0148588
735.325	0.0148112
735.403	0.0148734
735.481	0.0148064
735.559	0.0147964
735.637	0.0147131
735.715	0.0146387
735.793	0.0146864
735.871	0.0147313
735.950	0.0145841
736.028	0.0146072
736.106	0.0146385
736.184	0.0145461
736.262	0.0146598
736.340	0.0147665
736.418	0.0146684
736.496	0.0144755
736.575	0.0145568
736.653	0.0146834
736.731	0.0147669
736.809	0.0146254
736.887	0.0147926
736.965	0.0147071
737.043	0.0147021
737.121	0.0147124
737.200	0.0147655
737.278	0.0147418
737.356	0.0147374
737.434	0.0146960
737.512	0.0147323
737.590	0.0147449
737.668	0.0146564
737.746	0.0147476
737.825	0.0146662
737.903	0.0147680
737.981	0.0147778
738.059	0.0146798
738.137	0.0147775
738.215	0.0146706
738.293	0.0146401
738.371	0.0147079
738.450	0.0148874
738.528	0.0147139
738.606	0.0145050
738.684	0.0148342
738.762	0.0147164
738.840	0.0146467
738.918	0.0147124
738.996	0.0147856
739.075	0.0147063
739.153	0.0147193
739.231	0.0148460
739.309	0.0147308
739.387	0.0146704
739.465	0.0146942
739.543	0.0145824
739.621	0.0145813
739.700	0.0145993
739.778	0.0145975
739.856	0.0145790
739.934	0.0145164
740.012	0.0143516
740.090	0.0146586
740.168	0.0146049
740.246	0.0143092
740.325	0.0144765
740.403	0.0145863
740.481	0.0145516
740.559	0.0146180
740.637	0.0146273
740.715	0.0145982
740.793	0.0146640
740.871	0.0146771
740.950	0.0147713
741.028	0.0147591
741.106	0.0147422
741.184	0.0147662
741.262	0.0149240
741.340	0.0147931
741.418	0.0149671
741.496	0.0147781
741.575	0.0147539
741.653	0.0147533
741.731	0.0147108
741.809	0.0147540
741.887	0.0147269
741.965	0.0146950
742.043	0.0146783
742.121	0.0146322
742.200	0.0146394
742.278	0.0147570
742.356	0.0146405
742.434	0.0145651
742.512	0.0145609
742.590	0.0146806
742.668	0.0146251
742.746	0.0145947
742.825	0.0146362
742.903	0.0146218
742.981	0.0145997
743.059	0.0145670
743.137	0.0145763
743.215	0.0145845
743.293	0.0145522
743.371	0.0144983
743.450	0.0144934
743.528	0.0146584
743.606	0.0146453
743.684	0.0146284
743.762	0.0146632
743.840	0.0147088
743.918	0.0147800
743.996	0.0147392
744.075	0.0146500
744.153	0.0147706
744.231	0.0145920
744.309	0.0148597
744.387	0.0147783
744.465	0.0147534
744.543	0.0146307
744.621	0.0146937
744.700	0.0147623
744.778	0.0147256
744.856	0.0147447
744.934	0.0148831
745.012	0.0146495
745.090	0.0146992
745.168	0.0147496
745.246	0.0147074
745.325	0.0147996
745.403	0.0147246
745.481	0.0146987
745.559	0.0146668
745.637	0.0146149
745.715	0.0146554
745.793	0.0147694
745.871	0.0147867
745.950	0.0145763
746.028	0.0147064
746.106	0.0145650
746.184	0.0145123
746.262	0.0145308
746.340	0.0145435
746.418	0.0145410
746.496	0.0146178
746.575	0.0145396
746.653	0.0145401
746.731	0.0145072
746.809	0.0145822
746.887	0.0147171
746.965	0.0146513
747.043	0.0145881
747.121	0.0146343
747.200	0.0146569
747.278	0.0146440
747.356	0.0145692
747.434	0.0147472
747.512	0.0146848
747.590	0.0146902
747.668	0.0146970
747.746	0.0146594
747.825	0.0147141
747.903	0.0147369
747.981	0.0147103
748.059	0.0147741
748.137	0.0146311
748.215	0.0147121
748.293	0.0147069
748.371	0.0146490
748.450	0.0146079
748.528	0.0146530
748.606	0.0146169
748.684	0.0145628
748.762	0.0147532
748.840	0.0146806
748.918	0.0146384
748.996	0.0145356
749.075	0.0146701
749.153	0.0145703
749.231	0.0146798
749.309	0.0146871
749.387	0.0147751
749.465	0.0147347
749.543	0.0147568
749.621	0.0147032
749.700	0.0146542
749.778	0.0147141
749.856	0.0146619
749.934	0.0146861
750.012	0.0146761
750.090	0.0145692
750.168	0.0146139
750.246	0.0146126
750.325	0.0146419
750.403	0.0145675
750.481	0.0145624
750.559	0.0146911
750.637	0.0145593
750.715	0.0145403
750.793	0.0145419
750.871	0.0145835
750.950	0.0145427
751.028	0.0146423
751.106	0.0147291
751.184	0.0146288
751.262	0.0144526
751.340	0.0146554
751.418	0.0145612
751.496	0.0147567
751.575	0.0146097
751.653	0.0148946
751.731	0.0146378
751.809	0.0146202
751.887	0.0148027
751.965	0.0147330
752.043	0.0148566
752.121	0.0147867
752.200	0.0148003
752.278	0.0148978
752.356	0.0149352
752.434	0.0149162
752.512	0.0147865
752.590	0.0146554
752.668	0.0147581
752.746	0.0149210
752.825	0.0147571
752.903	0.0145826
752.981	0.0146078
753.059	0.0147301
753.137	0.0147220
753.215	0.0146177
753.293	0.0145987
753.371	0.0146925
753.450	0.0144753
753.528	0.0145651
753.606	0.0147615
753.684	0.0146727
753.762	0.0145299
753.840	0.0146198
753.918	0.0147001
753.996	0.0146770
754.075	0.0147012
754.153	0.0148141
754.231	0.0146262
754.309	0.0146618
754.387	0.0145695
754.465	0.0147550
754.543	0.0146923
754.621	0.0146339
754.700	0.0146276
754.778	0.0146677
754.856	0.0148006
754.934	0.0147086
755.012	0.0147121
755.090	0.0146744
755.168	0.0147603
755.246	0.0146652
755.325	0.0146812
755.403	0.0148066
755.481	0.0147382
755.559	0.0146314
755.637	0.0147195
755.715	0.0148261
755.793	0.0146352
755.871	0.0146065
755.950	0.0146977
756.028	0.0146581
756.106	0.0146661
756.184	0.0147504
756.262	0.0146848
756.340	0.0145825
756.418	0.0146300
756.496	0.0146934
756.575	0.0147511
756.653	0.0146221
756.731	0.0146394
756.809	0.0147923
756.887	0.0146726
756.965	0.0145238
757.043	0.0146762
757.121	0.0148656
757.200	0.0148000
757.278	0.0148442
757.356	0.0148409
757.434	0.0147969
757.512	0.0148656
757.590	0.0147268
757.668	0.0148090
757.746	0.0148036
757.825	0.0148524
757.903	0.0149929
757.981	0.0147281
758.059	0.0148639
758.137	0.0148013
758.215	0.0147234
758.293	0.0146219
758.371	0.0146631
758.450	0.0146828
758.528	0.0146951
758.606	0.0147806
758.684	0.0146453
758.762	0.0146992
758.840	0.0147395
758.918	0.0146631
758.996	0.0146159
759.075	0.0146288
759.153	0.0147685
759.231	0.0145820
759.309	0.0147176
759.387	0.0146992
759.465	0.0147126
759.543	0.0146684
759.621	0.0146851
759.700	0.0148136
759.778	0.0148190
759.856	0.0145724
759.934	0.0146837
760.012	0.0146531
760.090	0.0147142
760.168	0.0145671
760.246	0.0146886
760.325	0.0147957
760.403	0.0146795
760.481	0.0146211
760.559	0.0146054
760.637	0.0146279
760.715	0.0147101
760.793	0.0147372
760.871	0.0146607
760.950	0.0147085
761.028	0.0147687
761.106	0.0147353
761.184	0.0146423
761.262	0.0148615
761.340	0.0148726
761.418	0.0148380
761.496	0.0147588
761.575	0.0145174
761.653	0.0146236
761.731	0.0146458
761.809	0.0147798
761.887	0.0146687
761.965	0.0146403
762.043	0.0147070
762.121	0.0147466
762.200	0.0146140
762.278	0.0146800
762.356	0.0145879
762.434	0.0145560
762.512	0.0146116
762.590	0.0147044
762.668	0.0146273
762.746	0.0146155
762.825	0.0147351
762.903	0.0146204
762.981	0.0145683
763.059	0.0146430
763.137	0.0146924
763.215	0.0146780
763.293	0.0144849
763.371	0.0145851
763.450	0.0147434
763.528	0.0146531
763.606	0.0147710
763.684	0.0145435
763.762	0.0144299
763.840	0.0148008
763.918	0.0147783
763.996	0.0148309
764.075	0.0147563
764.153	0.0145369
764.231	0.0146157
764.309	0.0147501
764.387	0.0147746
764.465	0.0148252
764.543	0.0146822
764.621	0.0147284
764.700	0.0147057
764.778	0.0146425
764.856	0.0146670
764.934	0.0146333
765.012	0.0147511
765.090	0.0147183
765.168	0.0146277
765.246	0.0146983
765.325	0.0146349
765.403	0.0145971
765.481	0.0146662
765.559	0.0147543
765.637	0.0147135
765.715	0.0146590
765.793	0.0147108
765.871	0.0147223
765.950	0.0145181
766.028	0.0146070
766.106	0.0145613
766.184	0.0146818
766.262	0.0146755
766.340	0.0146953
766.418	0.0147418
766.496	0.0145615
766.575	0.0145666
766.653	0.0147293
766.731	0.0146152
766.809	0.0147475
766.887	0.0145496
766.965	0.0146046
767.043	0.0146280
767.121	0.0146185
767.200	0.0146590
767.278	0.0146167
767.356	0.0146705
767.434	0.0147571
767.512	0.0147324
767.590	0.0145468
767.668	0.0146666
767.746	0.0146650
767.825	0.0146369
767.903	0.0146178
767.981	0.0147405
768.059	0.0147435
768.137	0.0146837
768.215	0.0146239
768.293	0.0147137
768.371	0.0147851
768.450	0.0147170
768.528	0.0147082
768.606	0.0146745
768.684	0.0148935
768.762	0.0148392
768.840	0.0148267
768.918	0.0147234
768.996	0.0146450
769.075	0.0147816
769.153	0.0147052
769.231	0.0146402
769.309	0.0147524
769.387	0.0147540
769.465	0.0147128
769.543	0.0145926
769.621	0.0147435
769.700	0.0146983
769.778	0.0146703
769.856	0.0146922
769.934	0.0145922
770.012	0.0146877
770.090	0.0146788
770.168	0.0145465
770.246	0.0147385
770.325	0.0148532
770.403	0.0146729
770.481	0.0147665
770.559	0.0146119
770.637	0.0148118
770.715	0.0146914
770.793	0.0146836
770.871	0.0146848
770.950	0.0147307
771.028	0.0147209
771.106	0.0147964
771.184	0.0147269
771.262	0.0147733
771.340	0.0146616
771.418	0.0146680
771.496	0.0146919
771.575	0.0146858
771.653	0.0146938
771.731	0.0147168
771.809	0.0146847
771.887	0.0146302
771.965	0.0146056
772.043	0.0147532
772.121	0.0147132
772.200	0.0147308
772.278	0.0145696
772.356	0.0146155
772.434	0.0146254
772.512	0.0145869
772.590	0.0147504
772.668	0.0147523
772.746	0.0147124
772.825	0.0147416
772.903	0.0148024
772.981	0.0148074
773.059	0.0148576
773.137	0.0149165
773.215	0.0147285
773.293	0.0147697
773.371	0.0149419
773.450	0.0148027
773.528	0.0148861
773.606	0.0148711
773.684	0.0147008
773.762	0.0146986
773.840	0.0147335
773.918	0.0146857
773.996	0.0147244
774.075	0.0147724
774.153	0.0148349
774.231	0.0147352
774.309	0.0147507
774.387	0.0147048
774.465	0.0148315
774.543	0.0145863
774.621	0.0147664
774.700	0.0148051
774.778	0.0147906
774.856	0.0147916
774.934	0.0147471
775.012	0.0147044
775.090	0.0147092
775.168	0.0146890
775.246	0.0146880
775.325	0.0146291
775.403	0.0146684
775.481	0.0146130
775.559	0.0146828
775.637	0.0146510
775.715	0.0146699
775.793	0.0148476
775.871	0.0147974
775.950	0.0146532
776.028	0.0146421
776.106	0.0145877
776.184	0.0147911
776.262	0.0146871
776.340	0.0146432
776.418	0.0146137
776.496	0.0146707
776.575	0.0145778
776.653	0.0146720
776.731	0.0147871
776.809	0.0146846
776.887	0.0147936
776.965	0.0148193
777.043	0.0146781
777.121	0.0148522
777.200	0.0146780
777.278	0.0147060
777.356	0.0146217
777.434	0.0148019
777.512	0.0147961
777.590	0.0148634
777.668	0.0148190
777.746	0.0149256
777.825	0.0148281
777.903	0.0147736
777.981	0.0148073
778.059	0.0148148
778.137	0.0147266
778.215	0.0148215
778.293	0.0148461
778.371	0.0147098
778.450	0.0147749
778.528	0.0147385
778.606	0.0146508
778.684	0.0146748
778.762	0.0146178
778.840	0.0147378
778.918	0.0147756
778.996	0.0146527
779.075	0.0145223
779.153	0.0146002
779.231	0.0147473
779.309	0.0145036
779.387	0.0147801
779.465	0.0146703
779.543	0.0146613
779.621	0.0146925
779.700	0.0147308
779.778	0.0147099
779.856	0.0148394
779.934	0.0147697
780.012	0.0146076
780.090	0.0146291
780.168	0.0148331
780.246	0.0147900
780.325	0.0146465
780.403	0.0147163
780.481	0.0146368
780.559	0.0147913
780.637	0.0147533
780.715	0.0146784
780.793	0.0147709
780.871	0.0147536
780.950	0.0147984
781.028	0.0146796
781.106	0.0147768
781.184	0.0148607
781.262	0.0147406
781.340	0.0146634
781.418	0.0148155
781.496	0.0146478
781.575	0.0147543
781.653	0.0148038
781.731	0.0148132
781.809	0.0147642
781.887	0.0147559
781.965	0.0147928
782.043	0.0147105
782.121	0.0147372
782.200	0.0146782
782.278	0.0147356
782.356	0.0146321
782.434	0.0148430
782.512	0.0148414
782.590	0.0146049
782.668	0.0147724
782.746	0.0148272
782.825	0.0146209
782.903	0.0146502
782.981	0.0148940
783.059	0.0146745
783.137	0.0146139
783.215	0.0148398
783.293	0.0147801
783.371	0.0147118
783.450	0.0146430
783.528	0.0147971
783.606	0.0146646
783.684	0.0147431
783.762	0.0146718
783.840	0.0148042
783.918	0.0146806
783.996	0.0146230
784.075	0.0146790
784.153	0.0146537
784.231	0.0145855
784.309	0.0145197
784.387	0.0145159
784.465	0.0146787
784.543	0.0147090
784.621	0.0146314
784.700	0.0146262
784.778	0.0146860
784.856	0.0146326
784.934	0.0146336
785.012	0.0146699
785.090	0.0148388
785.168	0.0146310
785.246	0.0146165
785.325	0.0147927
785.403	0.0147803
785.481	0.0147641
785.559	0.0147085
785.637	0.0147142
785.715	0.0145602
785.793	0.0148566
785.871	0.0148072
785.950	0.0146648
786.028	0.0148102
786.106	0.0147036
786.184	0.0147961
786.262	0.0147990
786.340	0.0146573
786.418	0.0147044
786.496	0.0146983
786.575	0.0147795
786.653	0.0146873
786.731	0.0146959
786.809	0.0146954
786.887	0.0146183
786.965	0.0145956
787.043	0.0145947
787.121	0.0147684
787.200	0.0147536
787.278	0.0145961
787.356	0.0146215
787.434	0.0147592
787.512	0.0147190
787.590	0.0146694
787.668	0.0146726
787.746	0.0147238
787.825	0.0146133
787.903	0.0146716
787.981	0.0147900
788.059	0.0148080
788.137	0.0146764
788.215	0.0147438
788.293	0.0149731
788.371	0.0147697
788.450	0.0147878
788.528	0.0147325
788.606	0.0146867
788.684	0.0147265
788.762	0.0148396
788.840	0.0148672
788.918	0.0148795
788.996	0.0147642
789.075	0.0146351
789.153	0.0147571
789.231	0.0146329
789.309	0.0146341
789.387	0.0146957
789.465	0.0146947
789.543	0.0147007
789.621	0.0146053
789.700	0.0147070
789.778	0.0146661
789.856	0.0147678
789.934	0.0146998
790.012	0.0148132
790.090	0.0146236
790.168	0.0146416
790.246	0.0146265
790.325	0.0146694
790.403	0.0146709
790.481	0.0146072
790.559	0.0146284
790.637	0.0147281
790.715	0.0146794
790.793	0.0146736
790.871	0.0145786
790.950	0.0147217
791.028	0.0146759
791.106	0.0146898
791.184	0.0145937
791.262	0.0146871
791.340	0.0147073
791.418	0.0147981
791.496	0.0147197
791.575	0.0147172
791.653	0.0147731
791.731	0.0146766
791.809	0.0147681
791.887	0.0149210
791.965	0.0147687
792.043	0.0148138
792.121	0.0146526
792.200	0.0147031
792.278	0.0146697
792.356	0.0146899
792.434	0.0147580
792.512	0.0147231
792.590	0.0147953
792.668	0.0148164
792.746	0.0147968
792.825	0.0145905
792.903	0.0146788
792.981	0.0146293
793.059	0.0145552
793.137	0.0146781
793.215	0.0146738
793.293	0.0146752
793.371	0.0147614
793.450	0.0148429
793.528	0.0147022
793.606	0.0147395
793.684	0.0147203
793.762	0.0147626
793.840	0.0148095
793.918	0.0148985
793.996	0.0149088
794.075	0.0147115
794.153	0.0147404
794.231	0.0147656
794.309	0.0149277
794.387	0.0148387
794.465	0.0146318
794.543	0.0147238
794.621	0.0147578
794.700	0.0148751
794.778	0.0147797
794.856	0.0148853
794.934	0.0147489
795.012	0.0148042
795.090	0.0148849
795.168	0.0147348
795.246	0.0147340
795.325	0.0148994
795.403	0.0147859
795.481	0.0147515
795.559	0.0146616
795.637	0.0148237
795.715	0.0147455
795.793	0.0147946
795.871	0.0146481
795.950	0.0146597
796.028	0.0147186
796.106	0.0146956
796.184	0.0146382
796.262	0.0146865
796.340	0.0148551
796.418	0.0148740
796.496	0.0146445
796.575	0.0146408
796.653	0.0146268
796.731	0.0149001
796.809	0.0148801
796.887	0.0149039
796.965	0.0148396
797.043	0.0147784
797.121	0.0149096
797.200	0.0149071
797.278	0.0149841
797.356	0.0147919
797.434	0.0148334
797.512	0.0148849
797.590	0.0149329
797.668	0.0149111
797.746	0.0149396
797.825	0.0148553
797.903	0.0147155
797.981	0.0148054
798.059	0.0146864
798.137	0.0148026
798.215	0.0147474
798.293	0.0148122
798.371	0.0147552
798.450	0.0147235
798.528	0.0146514
798.606	0.0147561
798.684	0.0148470
798.762	0.0148026
798.840	0.0146026
798.918	0.0147128
798.996	0.0145389
799.075	0.0146122
799.153	0.0147408
799.231	0.0147816
799.309	0.0147160
799.387	0.0146973
799.465	0.0147117
799.543	0.0145367
799.621	0.0147208
799.700	0.0146344
799.778	0.0147112
799.856	0.0147385
799.934	0.0146944
800.012	0.0147308
800.090	0.0146923
800.168	0.0147558
800.246	0.0148252
800.325	0.0147753
800.403	0.0147462
800.481	0.0147759
800.559	0.0146484
800.637	0.0146540
800.715	0.0147540
800.793	0.0148795
800.871	0.0148032
800.950	0.0146696
801.028	0.0145747
801.106	0.0146889
801.184	0.0147265
801.262	0.0148243
801.340	0.0147770
801.418	0.0147834
801.496	0.0147440
801.575	0.0146682
801.653	0.0147314
801.731	0.0147595
801.809	0.0146878
801.887	0.0145956
801.965	0.0146223
802.043	0.0148454
802.121	0.0146452
802.200	0.0146713
802.278	0.0146318
802.356	0.0146965
802.434	0.0147654
802.512	0.0147025
802.590	0.0147598
802.668	0.0146711
802.746	0.0147424
802.825	0.0147868
802.903	0.0146579
802.981	0.0147191
803.059	0.0148083
803.137	0.0147364
803.215	0.0146549
803.293	0.0146870
803.371	0.0146244
803.450	0.0145991
803.528	0.0147798
803.606	0.0146131
803.684	0.0147027
803.762	0.0146462
803.840	0.0147919
803.918	0.0146913
803.996	0.0147851
804.075	0.0147393
804.153	0.0147054
804.231	0.0147771
804.309	0.0146542
804.387	0.0145689
804.465	0.0147858
804.543	0.0148598
804.621	0.0147935
804.700	0.0146814
804.778	0.0147852
804.856	0.0146552
804.934	0.0147007
805.012	0.0147227
805.090	0.0147807
805.168	0.0146975
805.246	0.0147575
805.325	0.0146209
805.403	0.0146825
805.481	0.0146960
805.559	0.0145814
805.637	0.0146832
805.715	0.0145966
805.793	0.0146978
805.871	0.0147540
805.950	0.0146141
806.028	0.0146387
806.106	0.0147401
806.184	0.0145967
806.262	0.0146667
806.340	0.0146426
806.418	0.0146817
806.496	0.0146647
806.575	0.0147609
806.653	0.0147640
806.731	0.0147399
806.809	0.0148344
806.887	0.0148226
806.965	0.0148181
807.043	0.0147540
807.121	0.0146652
807.200	0.0146113
807.278	0.0148307
807.356	0.0148408
807.434	0.0147694
807.512	0.0147243
807.590	0.0145997
807.668	0.0147282
807.746	0.0147937
807.825	0.0147999
807.903	0.0147159
807.981	0.0147639
808.059	0.0146099
808.137	0.0147189
808.215	0.0147053
808.293	0.0146562
808.371	0.0146371
808.450	0.0145518
808.528	0.0147460
808.606	0.0146117
808.684	0.0147462
808.762	0.0147331
808.840	0.0146806
808.918	0.0146069
808.996	0.0146585
809.075	0.0147172
809.153	0.0148134
809.231	0.0148470
809.309	0.0146555
809.387	0.0147895
809.465	0.0147714
809.543	0.0145897
809.621	0.0146429
809.700	0.0147299
809.778	0.0147382
809.856	0.0148389
809.934	0.0147693
810.012	0.0147936
810.090	0.0147049
810.168	0.0146782
810.246	0.0147675
810.325	0.0146301
810.403	0.0148302
810.481	0.0146244
810.559	0.0146812
810.637	0.0146625
810.715	0.0145867
810.793	0.0146302
810.871	0.0146046
810.950	0.0147095
811.028	0.0145427
811.106	0.0146287
811.184	0.0145632
811.262	0.0145732
811.340	0.0147015
811.418	0.0147203
811.496	0.0146095
811.575	0.0146607
811.653	0.0148772
811.731	0.0146373
811.809	0.0145786
811.887	0.0147442
811.965	0.0147600
812.043	0.0147252
812.121	0.0148117
812.200	0.0148230
812.278	0.0148706
812.356	0.0148495
812.434	0.0148570
812.512	0.0147545
812.590	0.0148029
812.668	0.0147973
812.746	0.0147379
812.825	0.0147614
812.903	0.0146891
812.981	0.0147210
813.059	0.0146922
813.137	0.0148531
813.215	0.0147607
813.293	0.0147154
813.371	0.0146779
813.450	0.0147552
813.528	0.0147040
813.606	0.0147931
813.684	0.0148592
813.762	0.0146270
813.840	0.0147458
813.918	0.0147979
813.996	0.0148065
814.075	0.0146696
814.153	0.0147353
814.231	0.0148358
814.309	0.0147437
814.387	0.0147428
814.465	0.0148881
814.543	0.0148743
814.621	0.0147529
814.700	0.0145551
814.778	0.0147535
814.856	0.0147582
814.934	0.0147415
815.012	0.0147870
815.090	0.0147456
815.168	0.0147807
815.246	0.0147139
815.325	0.0148707
815.403	0.0147449
815.481	0.0148742
815.559	0.0148108
815.637	0.0147205
815.715	0.0147182
815.793	0.0147041
815.871	0.0146185
815.950	0.0148966
816.028	0.0147916
816.106	0.0146423
816.184	0.0147444
816.262	0.0146876
816.340	0.0146670
816.418	0.0148404
816.496	0.0147344
816.575	0.0147364
816.653	0.0146796
816.731	0.0147124
816.809	0.0147501
816.887	0.0147150
816.965	0.0146909
817.043	0.0147606
817.121	0.0148090
817.200	0.0146996
817.278	0.0147027
817.356	0.0147948
817.434	0.0148846
817.512	0.0147488
817.590	0.0147866
817.668	0.0147114
817.746	0.0148334
817.825	0.0147099
817.903	0.0147166
817.981	0.0146302
818.059	0.0146859
818.137	0.0147256
818.215	0.0148400
818.293	0.0147484
818.371	0.0147020
818.450	0.0147887
818.528	0.0148933
818.606	0.0146423
818.684	0.0147934
818.762	0.0145770
818.840	0.0147095
818.918	0.0146867
818.996	0.0148007
819.075	0.0147713
819.153	0.0149196
819.231	0.0146914
819.309	0.0146096
819.387	0.0145428
819.465	0.0145596
819.543	0.0146259
819.621	0.0146684
819.700	0.0146378
819.778	0.0147612
819.856	0.0147788
819.934	0.0146885
820.012	0.0146573
820.090	0.0147965
820.168	0.0146333
820.246	0.0146521
820.325	0.0148164
820.403	0.0148759
820.481	0.0148356
820.559	0.0146921
820.637	0.0148250
820.715	0.0147819
820.793	0.0147958
820.871	0.0148402
820.950	0.0147490
821.028	0.0146837
821.106	0.0147489
821.184	0.0147888
821.262	0.0146365
821.340	0.0147564
821.418	0.0147803
821.496	0.0145786
821.575	0.0146378
821.653	0.0145837
821.731	0.0144772
821.809	0.0144459
821.887	0.0145729
821.965	0.0145380
822.043	0.0146059
822.121	0.0146597
822.200	0.0146207
822.278	0.0146699
822.356	0.0147507
822.434	0.0146949
822.512	0.0147877
822.590	0.0146795
822.668	0.0146367
822.746	0.0146153
822.825	0.0147832
822.903	0.0147926
822.981	0.0147770
823.059	0.0148209
823.137	0.0147810
823.215	0.0146324
823.293	0.0147839
823.371	0.0148318
823.450	0.0147042
823.528	0.0147056
823.606	0.0148031
823.684	0.0147003
823.762	0.0146720
823.840	0.0145753
823.918	0.0146103
823.996	0.0146729
824.075	0.0146281
824.153	0.0146954
824.231	0.0147501
824.309	0.0146971
824.387	0.0147543
824.465	0.0147523
824.543	0.0147250
824.621	0.0146982
824.700	0.0148228
824.778	0.0148771
824.856	0.0147779
824.934	0.0147488
825.012	0.0148074
825.090	0.0147146
825.168	0.0146613
825.246	0.0147911
825.325	0.0147839
825.403	0.0148713
825.481	0.0147449
825.559	0.0146719
825.637	0.0147599
825.715	0.0148493
825.793	0.0147631
825.871	0.0146396
825.950	0.0145573
826.028	0.0147428
826.106	0.0147470
826.184	0.0147510
826.262	0.0146507
826.340	0.0148251
826.418	0.0148740
826.496	0.0148318
826.575	0.0145982
826.653	0.0146402
826.731	0.0147168
826.809	0.0146828
826.887	0.0146631
826.965	0.0145687
827.043	0.0146227
827.121	0.0147305
827.200	0.0146573
827.278	0.0146201
827.356	0.0146491
827.434	0.0144472
827.512	0.0145856
827.590	0.0146300
827.668	0.0146884
827.746	0.0146613
827.825	0.0146479
827.903	0.0147580
827.981	0.0147982
828.059	0.0146741
828.137	0.0147473
828.215	0.0147207
828.293	0.0146403
828.371	0.0147024
828.450	0.0147272
828.528	0.0146017
828.606	0.0146301
828.684	0.0147173
828.762	0.0147114
828.840	0.0146890
828.918	0.0147070
828.996	0.0146408
829.075	0.0146291
829.153	0.0145879
829.231	0.0146338
829.309	0.0147043
829.387	0.0146553
829.465	0.0147603
829.543	0.0146230
829.621	0.0146508
829.700	0.0146500
829.778	0.0147481
829.856	0.0146522
829.934	0.0146071
830.012	0.0145560
830.090	0.0146346
830.168	0.0145751
830.246	0.0146428
830.325	0.0146217
830.403	0.0146303
830.481	0.0146305
830.559	0.0147942
830.637	0.0146648
830.715	0.0146927
830.793	0.0147034
830.871	0.0146972
830.950	0.0146101
831.028	0.0145549
831.106	0.0146645
831.184	0.0145866
831.262	0.0147612
831.340	0.0146323
831.418	0.0147965
831.496	0.0146633
831.575	0.0146186
831.653	0.0146780
831.731	0.0145424
831.809	0.0145947
831.887	0.0146410
831.965	0.0146878
832.043	0.0147884
832.121	0.0148036
832.200	0.0146938
832.278	0.0145866
832.356	0.0146956
832.434	0.0147760
832.512	0.0146210
832.590	0.0147128
832.668	0.0145975
832.746	0.0146897
832.825	0.0145733
832.903	0.0145892
832.981	0.0147710
833.059	0.0146735
833.137	0.0147764
833.215	0.0147811
833.293	0.0146227
833.371	0.0147506
833.450	0.0147392
833.528	0.0148643
833.606	0.0147655
833.684	0.0148472
833.762	0.0147022
833.840	0.0146828
833.918	0.0148103
833.996	0.0147532
834.075	0.0145627
834.153	0.0147655
834.231	0.0147436
834.309	0.0147341
834.387	0.0147343
834.465	0.0146922
834.543	0.0147059
834.621	0.0146473
834.700	0.0146072
834.778	0.0147006
834.856	0.0147575
834.934	0.0146295
835.012	0.0146169
835.090	0.0146528
835.168	0.0146851
835.246	0.0145037
835.325	0.0146937
835.403	0.0147180
835.481	0.0145845
835.559	0.0146592
835.637	0.0145415
835.715	0.0145657
835.793	0.0146803
835.871	0.0147088
835.950	0.0147812
836.028	0.0146552
836.106	0.0144322
836.184	0.0146468
836.262	0.0148005
836.340	0.0146438
836.418	0.0147547
836.496	0.0146508
836.575	0.0145734
836.653	0.0146645
836.731	0.0147433
836.809	0.0146466
836.887	0.0147503
836.965	0.0147108
837.043	0.0148229
837.121	0.0146703
837.200	0.0146342
837.278	0.0148119
837.356	0.0146752
837.434	0.0146529
837.512	0.0148724
837.590	0.0148222
837.668	0.0146236
837.746	0.0147356
837.825	0.0147668
837.903	0.0146244
837.981	0.0146228
838.059	0.0146265
838.137	0.0146877
838.215	0.0146277
838.293	0.0146425
838.371	0.0146079
838.450	0.0145296
838.528	0.0146904
838.606	0.0147413
838.684	0.0145309
838.762	0.0147086
838.840	0.0147046
838.918	0.0146736
838.996	0.0146878
839.075	0.0147450
839.153	0.0147028
839.231	0.0148164
839.309	0.0148917
839.387	0.0147203
839.465	0.0146921
839.543	0.0147501
839.621	0.0147528
839.700	0.0147239
839.778	0.0147786
839.856	0.0146507
839.934	0.0146851
840.012	0.0146383
840.090	0.0146838
840.168	0.0146277
840.246	0.0144965
840.325	0.0147964
840.403	0.0146338
840.481	0.0146535
840.559	0.0146216
840.637	0.0147927
840.715	0.0146639
840.793	0.0147596
840.871	0.0146075
840.950	0.0145811
841.028	0.0146706
841.106	0.0147914
841.184	0.0146006
841.262	0.0146896
841.340	0.0147334
841.418	0.0146684
841.496	0.0146634
841.575	0.0147018
841.653	0.0146085
841.731	0.0146784
841.809	0.0149236
841.887	0.0146819
841.965	0.0147906
842.043	0.0147489
842.121	0.0146273
842.200	0.0146709
842.278	0.0146531
842.356	0.0146808
842.434	0.0147827
842.512	0.0146604
842.590	0.0146447
842.668	0.0147769
842.746	0.0147508
842.825	0.0146953
842.903	0.0146422
842.981	0.0146123
843.059	0.0147063
843.137	0.0147263
843.215	0.0148140
843.293	0.0146205
843.371	0.0146827
843.450	0.0145995
843.528	0.0146037
843.606	0.0145621
843.684	0.0147206
843.762	0.0146848
843.840	0.0147130
843.918	0.0147189
843.996	0.0147371
844.075	0.0146824
844.153	0.0147109
844.231	0.0146884
844.309	0.0147893
844.387	0.0148638
844.465	0.0147202
844.543	0.0147188
844.621	0.0145798
844.700	0.0146069
844.778	0.0147115
844.856	0.0147800
844.934	0.0147860
845.012	0.0145458
845.090	0.0147378
845.168	0.0147703
845.246	0.0147601
845.325	0.0147453
845.403	0.0147710
845.481	0.0147733
845.559	0.0146545
845.637	0.0147023
845.715	0.0148234
845.793	0.0149373
845.871	0.0148093
845.950	0.0146960
846.028	0.0146721
846.106	0.0146658
846.184	0.0147745
846.262	0.0148264
846.340	0.0147623
846.418	0.0147562
846.496	0.0147628
846.575	0.0147449
846.653	0.0147355
846.731	0.0146719
846.809	0.0146992
846.887	0.0146900
846.965	0.0146288
847.043	0.0146741
847.121	0.0146175
847.200	0.0148021
847.278	0.0147452
847.356	0.0147143
847.434	0.0145866
847.512	0.0147355
847.590	0.0146964
847.668	0.0146361
847.746	0.0147867
847.825	0.0146536
847.903	0.0145779
847.981	0.0145161
848.059	0.0146953
848.137	0.0147913
848.215	0.0146246
848.293	0.0147000
848.371	0.0148634
848.450	0.0146558
848.528	0.0146333
848.606	0.0146881
848.684	0.0148261
848.762	0.0147588
848.840	0.0146378
848.918	0.0145921
848.996	0.0147631
849.075	0.0148132
849.153	0.0147008
849.231	0.0147794
849.309	0.0146689
849.387	0.0146483
849.465	0.0146650
849.543	0.0147157
849.621	0.0146433
849.700	0.0147681
849.778	0.0146127
849.856	0.0147045
849.934	0.0146289
850.012	0.0146282
850.090	0.0146646
850.168	0.0146527
850.246	0.0145563
850.325	0.0146919
850.403	0.0147104
850.481	0.0146677
850.559	0.0147039
850.637	0.0145493
850.715	0.0147253
850.793	0.0146415
850.871	0.0145098
850.950	0.0146294
851.028	0.0146561
851.106	0.0146808
851.184	0.0147807
851.262	0.0146265
851.340	0.0147835
851.418	0.0148324
851.496	0.0147647
851.575	0.0147742
851.653	0.0147932
851.731	0.0147812
851.809	0.0147554
851.887	0.0147466
851.965	0.0147450
852.043	0.0146483
852.121	0.0146082
852.200	0.0146452
852.278	0.0148615
852.356	0.0147012
852.434	0.0146966
852.512	0.0146778
852.590	0.0148141
852.668	0.0146068
852.746	0.0147161
852.825	0.0147748
852.903	0.0146773
852.981	0.0145916
853.059	0.0146376
853.137	0.0145586
853.215	0.0146964
853.293	0.0146864
853.371	0.0146806
853.450	0.0145332
853.528	0.0144810
853.606	0.0145971
853.684	0.0146044
853.762	0.0146218
853.840	0.0146890
853.918	0.0147484
853.996	0.0146431
854.075	0.0147176
854.153	0.0145206
854.231	0.0146635
854.309	0.0146228
854.387	0.0146933
854.465	0.0147920
854.543	0.0147135
854.621	0.0147789
854.700	0.0147781
854.778	0.0147244
854.856	0.0147464
854.934	0.0148232
855.012	0.0148178
855.090	0.0146820
855.168	0.0147028
855.246	0.0147265
855.325	0.0146278
855.403	0.0147104
855.481	0.0145560
855.559	0.0147100
855.637	0.0146922
855.715	0.0145963
855.793	0.0147412
855.871	0.0146782
855.950	0.0147131
856.028	0.0147631
856.106	0.0147494
856.184	0.0146425
856.262	0.0146351
856.340	0.0147314
856.418	0.0146462
856.496	0.0146318
856.575	0.0146184
856.653	0.0147103
856.731	0.0146539
856.809	0.0146744
856.887	0.0146127
856.965	0.0147356
857.043	0.0147144
857.121	0.0147993
857.200	0.0148215
857.278	0.0146747
857.356	0.0147587
857.434	0.0147935
857.512	0.0146095
857.590	0.0146917
857.668	0.0148783
857.746	0.0146905
857.825	0.0145236
857.903	0.0148003
857.981	0.0146786
858.059	0.0148485
858.137	0.0146069
858.215	0.0146528
858.293	0.0146980
858.371	0.0147369
858.450	0.0146661
858.528	0.0145639
858.606	0.0146349
858.684	0.0145510
858.762	0.0146110
858.840	0.0146282
858.918	0.0146376
858.996	0.0146310
859.075	0.0146855
859.153	0.0146667
859.231	0.0147529
859.309	0.0146803
859.387	0.0146762
859.465	0.0146333
859.543	0.0146865
859.621	0.0145470
859.700	0.0145984
859.778	0.0146591
859.856	0.0146442
859.934	0.0146693
860.012	0.0147240
860.090	0.0147177
860.168	0.0145304
860.246	0.0147357
860.325	0.0147344
860.403	0.0146181
860.481	0.0146134
860.559	0.0146220
860.637	0.0147261
860.715	0.0147292
860.793	0.0146520
860.871	0.0148180
860.950	0.0147752
861.028	0.0147030
861.106	0.0147685
861.184	0.0147257
861.262	0.0146752
861.340	0.0147831
861.418	0.0147482
861.496	0.0147431
861.575	0.0146614
861.653	0.0146634
861.731	0.0147252
861.809	0.0147101
861.887	0.0147127
861.965	0.0146004
862.043	0.0146396
862.121	0.0146210
862.200	0.0146367
862.278	0.0147426
862.356	0.0147561
862.434	0.0147144
862.512	0.0146767
862.590	0.0145244
862.668	0.0146037
862.746	0.0148502
862.825	0.0146884
862.903	0.0146437
862.981	0.0145706
863.059	0.0146587
863.137	0.0147524
863.215	0.0146381
863.293	0.0146651
863.371	0.0146963
863.450	0.0147134
863.528	0.0147480
863.606	0.0148286
863.684	0.0147218
863.762	0.0146839
863.840	0.0147002
863.918	0.0146931
863.996	0.0147218
864.075	0.0147307
864.153	0.0147059
864.231	0.0147200
864.309	0.0147824
864.387	0.0146269
864.465	0.0146954
864.543	0.0145979
864.621	0.0147221
864.700	0.0147279
864.778	0.0146590
864.856	0.0147079
864.934	0.0147025
865.012	0.0148193
865.090	0.0148168
865.168	0.0147031
865.246	0.0147668
865.325	0.0147221
865.403	0.0146627
865.481	0.0147823
865.559	0.0148221
865.637	0.0146931
865.715	0.0147332
865.793	0.0146370
865.871	0.0146983
865.950	0.0147420
866.028	0.0145937
866.106	0.0146841
866.184	0.0147022
866.262	0.0146999
866.340	0.0146628
866.418	0.0146383
866.496	0.0145954
866.575	0.0145968
866.653	0.0146688
866.731	0.0147243
866.809	0.0146334
866.887	0.0145683
866.965	0.0147154
867.043	0.0147429
867.121	0.0146299
867.200	0.0147633
867.278	0.0147387
867.356	0.0146579
867.434	0.0147605
867.512	0.0147617
867.590	0.0146747
867.668	0.0146149
867.746	0.0148308
867.825	0.0148755
867.903	0.0145789
867.981	0.0147073
868.059	0.0147687
868.137	0.0147632
868.215	0.0146951
868.293	0.0146957
868.371	0.0146552
868.450	0.0145982
868.528	0.0147190
868.606	0.0147369
868.684	0.0146258
868.762	0.0145866
868.840	0.0146043
868.918	0.0146493
868.996	0.0147916
869.075	0.0147690
869.153	0.0148138
869.231	0.0145791
869.309	0.0147202
869.387	0.0147522
869.465	0.0146690
869.543	0.0146792
869.621	0.0146906
869.700	0.0146503
869.778	0.0146382
869.856	0.0147303
869.934	0.0147906
870.012	0.0145885
870.090	0.0146128
870.168	0.0146243
870.246	0.0146636
870.325	0.0145616
870.403	0.0146840
870.481	0.0147676
870.559	0.0146055
870.637	0.0146478
870.715	0.0146279
870.793	0.0146258
870.871	0.0146120
870.950	0.0146478
871.028	0.0146082
871.106	0.0146162
871.184	0.0145618
871.262	0.0147497
871.340	0.0146479
871.418	0.0146486
871.496	0.0146504
871.575	0.0146539
871.653	0.0145717
871.731	0.0146898
871.809	0.0148336
871.887	0.0147890
871.965	0.0146613
872.043	0.0146294
872.121	0.0147353
872.200	0.0147277
872.278	0.0147619
872.356	0.0147446
872.434	0.0147136
872.512	0.0148782
872.590	0.0147894
872.668	0.0145979
872.746	0.0147896
872.825	0.0147462
872.903	0.0147219
872.981	0.0148093
873.059	0.0148321
873.137	0.0147595
873.215	0.0147000
873.293	0.0147183
873.371	0.0147600
873.450	0.0147441
873.528	0.0147769
873.606	0.0146798
873.684	0.0148054
873.762	0.0147885
873.840	0.0147224
873.918	0.0145375
873.996	0.0148326
874.075	0.0148373
874.153	0.0147782
874.231	0.0146995
874.309	0.0148654
874.387	0.0146239
874.465	0.0147558
874.543	0.0147182
874.621	0.0146751
874.700	0.0146976
874.778	0.0147771
874.856	0.0149428
874.934	0.0147271
875.012	0.0147897
875.090	0.0148397
875.168	0.0147694
875.246	0.0146495
875.325	0.0148540
875.403	0.0148528
875.481	0.0148007
875.559	0.0147295
875.637	0.0148919
875.715	0.0146751
875.793	0.0147700
875.871	0.0147890
875.950	0.0146933
876.028	0.0146006
876.106	0.0147844
876.184	0.0146400
876.262	0.0146657
876.340	0.0147344
876.418	0.0147540
876.496	0.0146785
876.575	0.0147032
876.653	0.0147748
876.731	0.0147173
876.809	0.0146263
876.887	0.0147507
876.965	0.0147698
877.043	0.0147971
877.121	0.0147136
877.200	0.0148510
877.278	0.0148135
877.356	0.0146954
877.434	0.0146458
877.512	0.0147178
877.590	0.0149429
877.668	0.0146872
877.746	0.0147378
877.825	0.0147458
877.903	0.0147197
877.981	0.0148970
878.059	0.0148033
878.137	0.0147174
878.215	0.0147797
878.293	0.0148512
878.371	0.0149584
878.450	0.0149167
878.528	0.0148098
878.606	0.0148212
878.684	0.0149157
878.762	0.0148856
878.840	0.0147890
878.918	0.0148447
878.996	0.0148216
879.075	0.0147546
879.153	0.0147312
879.231	0.0147855
879.309	0.0147997
879.387	0.0147727
879.465	0.0145937
879.543	0.0145921
879.621	0.0147231
879.700	0.0146539
879.778	0.0146603
879.856	0.0147549
879.934	0.0146049
880.012	0.0147810
880.090	0.0149774
880.168	0.0148553
880.246	0.0147069
880.325	0.0147326
880.403	0.0146077
880.481	0.0147461
880.559	0.0147269
880.637	0.0149506
880.715	0.0148373
880.793	0.0147662
880.871	0.0148390
880.950	0.0146999
881.028	0.0146739
881.106	0.0146633
881.184	0.0146998
881.262	0.0146165
881.340	0.0146140
881.418	0.0146223
881.496	0.0146066
881.575	0.0147010
881.653	0.0146383
881.731	0.0147771
881.809	0.0146593
881.887	0.0146770
881.965	0.0147520
882.043	0.0147517
882.121	0.0146890
882.200	0.0147375
882.278	0.0146918
882.356	0.0147685
882.434	0.0148029
882.512	0.0146785
882.590	0.0148116
882.668	0.0148014
882.746	0.0147596
882.825	0.0147347
882.903	0.0146870
882.981	0.0147405
883.059	0.0146020
883.137	0.0147012
883.215	0.0147574
883.293	0.0146716
883.371	0.0147118
883.450	0.0146819
883.528	0.0146667
883.606	0.0147635
883.684	0.0146931
883.762	0.0146239
883.840	0.0147775
883.918	0.0147574
883.996	0.0146963
884.075	0.0146856
884.153	0.0146750
884.231	0.0146107
884.309	0.0145344
884.387	0.0145956
884.465	0.0145737
884.543	0.0147401
884.621	0.0146288
884.700	0.0146255
884.778	0.0146846
884.856	0.0147658
884.934	0.0147881
885.012	0.0146812
885.090	0.0146545
885.168	0.0147456
885.246	0.0147441
885.325	0.0147923
885.403	0.0146796
885.481	0.0147542
885.559	0.0147657
885.637	0.0146970
885.715	0.0148942
885.793	0.0148016
885.871	0.0146890
885.950	0.0146860
886.028	0.0145950
886.106	0.0147111
886.184	0.0147488
886.262	0.0146602
886.340	0.0147495
886.418	0.0147077
886.496	0.0147812
886.575	0.0146614
886.653	0.0146815
886.731	0.0146857
886.809	0.0146217
886.887	0.0146831
886.965	0.0147689
887.043	0.0148237
887.121	0.0148280
887.200	0.0146598
887.278	0.0147198
887.356	0.0147144
887.434	0.0146763
887.512	0.0146835
887.590	0.0147032
887.668	0.0147691
887.746	0.0146725
887.825	0.0146662
887.903	0.0145813
887.981	0.0146897
888.059	0.0146165
888.137	0.0147118
888.215	0.0147084
888.293	0.0145998
888.371	0.0145361
888.450	0.0146539
888.528	0.0145768
888.606	0.0146501
888.684	0.0146204
888.762	0.0147467
888.840	0.0147260
888.918	0.0146065
888.996	0.0146504
889.075	0.0147176
889.153	0.0147395
889.231	0.0147240
889.309	0.0147909
889.387	0.0148656
889.465	0.0146693
889.543	0.0146756
889.621	0.0148152
889.700	0.0147263
889.778	0.0147969
889.856	0.0147626
889.934	0.0146341
890.012	0.0146350
890.090	0.0146253
890.168	0.0146992
890.246	0.0148295
890.325	0.0147598
890.403	0.0147697
890.481	0.0145338
890.559	0.0146748
890.637	0.0147729
890.715	0.0146471
890.793	0.0147127
890.871	0.0147033
890.950	0.0147133
891.028	0.0148738
891.106	0.0149219
891.184	0.0145871
891.262	0.0147517
891.340	0.0147735
891.418	0.0147005
891.496	0.0148015
891.575	0.0146308
891.653	0.0147656
891.731	0.0147153
891.809	0.0148044
891.887	0.0146347
891.965	0.0145918
892.043	0.0147935
892.121	0.0147413
892.200	0.0146497
892.278	0.0147143
892.356	0.0147512
892.434	0.0147665
892.512	0.0146272
892.590	0.0145473
892.668	0.0146826
892.746	0.0146948
892.825	0.0147279
892.903	0.0147172
892.981	0.0147955
893.059	0.0148615
893.137	0.0147815
893.215	0.0147945
893.293	0.0148717
893.371	0.0148309
893.450	0.0146909
893.528	0.0148530
893.606	0.0148530
893.684	0.0149577
893.762	0.0147812
893.840	0.0147554
893.918	0.0147511
893.996	0.0148305
894.075	0.0148133
894.153	0.0148064
894.231	0.0149753
894.309	0.0147842
894.387	0.0147092
894.465	0.0148612
894.543	0.0148460
894.621	0.0146702
894.700	0.0147486
894.778	0.0147219
894.856	0.0146577
894.934	0.0146516
895.012	0.0147327
895.090	0.0147182
895.168	0.0147661
895.246	0.0148040
895.325	0.0147775
895.403	0.0146696
895.481	0.0149002
895.559	0.0148675
895.637	0.0148462
895.715	0.0147795
895.793	0.0146731
895.871	0.0147818
895.950	0.0148799
896.028	0.0146557
896.106	0.0147002
896.184	0.0148199
896.262	0.0147835
896.340	0.0147010
896.418	0.0148215
896.496	0.0148068
896.575	0.0147773
896.653	0.0147143
896.731	0.0147373
896.809	0.0146136
896.887	0.0147419
896.965	0.0147697
897.043	0.0148709
897.121	0.0147867
897.200	0.0147729
897.278	0.0146642
897.356	0.0147826
897.434	0.0147965
897.512	0.0149059
897.590	0.0148438
897.668	0.0147204
897.746	0.0147205
897.825	0.0147886
897.903	0.0146524
897.981	0.0148346
898.059	0.0148202
898.137	0.0146484
898.215	0.0147843
898.293	0.0149455
898.371	0.0147943
898.450	0.0148071
898.528	0.0148290
898.606	0.0146780
898.684	0.0147734
898.762	0.0147742
898.840	0.0147437
898.918	0.0147746
898.996	0.0147257
899.075	0.0146058
899.153	0.0146461
899.231	0.0147243
899.309	0.0146880
899.387	0.0147005
899.465	0.0146780
899.543	0.0146490
899.621	0.0145925
899.700	0.0146464
899.778	0.0147113
899.856	0.0146572
899.934	0.0147649
900.012	0.0148264
900.090	0.0147628
900.168	0.0147604
900.246	0.0147532
900.325	0.0146922
900.403	0.0148959
900.481	0.0147348
900.559	0.0147999
900.637	0.0148266
900.715	0.0147867
900.793	0.0146539
900.871	0.0147992
900.950	0.0147903
901.028	0.0147499
901.106	0.0147743
901.184	0.0146596
901.262	0.0147968
901.340	0.0147195
901.418	0.0146892
901.496	0.0148083
901.575	0.0147375
901.653	0.0147858
901.731	0.0147427
901.809	0.0146921
901.887	0.0148049
901.965	0.0147395
902.043	0.0145783
902.121	0.0148141
902.200	0.0147599
902.278	0.0146429
902.356	0.0148682
902.434	0.0146670
902.512	0.0147191
902.590	0.0147298
902.668	0.0145882
902.746	0.0145859
902.825	0.0146391
902.903	0.0147761
902.981	0.0146917
903.059	0.0147121
903.137	0.0147694
903.215	0.0146076
903.293	0.0146640
903.371	0.0147575
903.450	0.0147469
903.528	0.0146684
903.606	0.0146823
903.684	0.0146859
903.762	0.0147039
903.840	0.0148235
903.918	0.0146107
903.996	0.0146235
904.075	0.0146376
904.153	0.0148215
904.231	0.0147314
904.309	0.0147580
904.387	0.0147150
904.465	0.0147757
904.543	0.0148147
904.621	0.0146924
904.700	0.0146129
904.778	0.0147540
904.856	0.0146829
904.934	0.0148331
905.012	0.0148632
905.090	0.0147734
905.168	0.0147073
905.246	0.0147496
905.325	0.0147423
905.403	0.0147964
905.481	0.0147890
905.559	0.0146729
905.637	0.0146942
905.715	0.0147017
905.793	0.0147138
905.871	0.0146172
905.950	0.0146587
906.028	0.0146419
906.106	0.0146379
906.184	0.0147265
906.262	0.0144733
906.340	0.0146152
906.418	0.0145083
906.496	0.0147776
906.575	0.0147707
906.653	0.0144949
906.731	0.0146656
906.809	0.0146086
906.887	0.0146508
906.965	0.0145873
907.043	0.0146585
907.121	0.0147951
907.200	0.0147548
907.278	0.0146696
907.356	0.0148082
907.434	0.0146920
907.512	0.0146680
907.590	0.0147787
907.668	0.0148908
907.746	0.0147131
907.825	0.0147016
907.903	0.0148213
907.981	0.0149421
908.059	0.0149947
908.137	0.0149052
908.215	0.0148214
908.293	0.0147263
908.371	0.0149364
908.450	0.0149821
908.528	0.0147527
908.606	0.0147659
908.684	0.0146986
908.762	0.0147011
908.840	0.0147353
908.918	0.0148782
908.996	0.0147750
909.075	0.0146253
909.153	0.0146584
909.231	0.0148024
909.309	0.0147122
909.387	0.0146574
909.465	0.0147284
909.543	0.0146675
909.621	0.0146851
909.700	0.0146680
909.778	0.0147817
909.856	0.0146200
909.934	0.0147137
910.012	0.0147086
910.090	0.0147602
910.168	0.0146750
910.246	0.0146866
910.325	0.0146462
910.403	0.0147475
910.481	0.0147504
910.559	0.0146204
910.637	0.0147788
910.715	0.0147640
910.793	0.0146511
910.871	0.0146496
910.950	0.0147884
911.028	0.0146909
911.106	0.0145436
911.184	0.0147416
911.262	0.0147133
911.340	0.0147416
911.418	0.0147182
911.496	0.0147253
911.575	0.0147978
911.653	0.0147704
911.731	0.0147211
911.809	0.0148533
911.887	0.0146783
911.965	0.0147681
912.043	0.0147944
912.121	0.0147957
912.200	0.0148733
912.278	0.0148732
912.356	0.0147868
912.434	0.0147644
912.512	0.0146352
912.590	0.0147761
912.668	0.0147859
912.746	0.0147670
912.825	0.0148281
912.903	0.0147471
912.981	0.0148508
913.059	0.0146873
913.137	0.0148210
913.215	0.0147093
913.293	0.0145766
913.371	0.0147457
913.450	0.0146720
913.528	0.0146896
913.606	0.0146722
913.684	0.0147030
913.762	0.0146910
913.840	0.0147272
913.918	0.0147321
913.996	0.0144869
914.075	0.0146478
914.153	0.0146730
914.231	0.0146369
914.309	0.0147527
914.387	0.0147264
914.465	0.0146865
914.543	0.0148498
914.621	0.0147760
914.700	0.0147090
914.778	0.0147482
914.856	0.0147105
914.934	0.0148605
915.012	0.0149707
915.090	0.0147133
915.168	0.0147982
915.246	0.0147855
915.325	0.0147113
915.403	0.0147919
915.481	0.0147466
915.559	0.0148477
915.637	0.0148211
915.715	0.0148092
915.793	0.0147435
915.871	0.0147028
915.950	0.0147690
916.028	0.0147013
916.106	0.0147974
916.184	0.0148237
916.262	0.0148128
916.340	0.0147276
916.418	0.0147609
916.496	0.0147493
916.575	0.0148035
916.653	0.0148184
916.731	0.0147080
916.809	0.0147559
916.887	0.0146990
916.965	0.0147359
917.043	0.0147477
917.121	0.0146771
917.200	0.0147203
917.278	0.0146634
917.356	0.0146965
917.434	0.0146862
917.512	0.0145001
917.590	0.0145603
917.668	0.0147787
917.746	0.0145509
917.825	0.0146555
917.903	0.0147123
917.981	0.0146217
918.059	0.0147021
918.137	0.0146362
918.215	0.0147458
918.293	0.0147478
918.371	0.0147720
918.450	0.0146179
918.528	0.0147625
918.606	0.0146777
918.684	0.0146384
918.762	0.0147122
918.840	0.0146574
918.918	0.0147329
918.996	0.0147849
919.075	0.0148254
919.153	0.0147195
919.231	0.0146915
919.309	0.0146121
919.387	0.0146083
919.465	0.0146366
919.543	0.0147176
919.621	0.0147509
919.700	0.0146526
919.778	0.0146638
919.856	0.0146261
919.934	0.0145610
920.012	0.0146952
920.090	0.0147699
920.168	0.0147356
920.246	0.0146457
920.325	0.0147948
920.403	0.0146879
920.481	0.0147215
920.559	0.0147682
920.637	0.0147272
920.715	0.0146921
920.793	0.0147434
920.871	0.0148926
920.950	0.0147276
921.028	0.0147449
921.106	0.0147088
921.184	0.0147815
921.262	0.0146651
921.340	0.0146925
921.418	0.0147219
921.496	0.0146722
921.575	0.0146652
921.653	0.0145931
921.731	0.0146651
921.809	0.0146088
921.887	0.0148209
921.965	0.0146632
922.043	0.0146944
922.121	0.0147151
922.200	0.0146531
922.278	0.0146624
922.356	0.0145967
922.434	0.0145644
922.512	0.0147543
922.590	0.0148588
922.668	0.0146124
922.746	0.0148373
922.825	0.0146088
922.903	0.0146475
922.981	0.0146816
923.059	0.0146157
923.137	0.0145660
923.215	0.0146629
923.293	0.0147045
923.371	0.0147025
923.450	0.0146906
923.528	0.0145850
923.606	0.0147238
923.684	0.0145668
923.762	0.0147364
923.840	0.0147430
923.918	0.0146427
923.996	0.0146382
924.075	0.0146011
924.153	0.0147684
924.231	0.0147337
924.309	0.0146893
924.387	0.0147095
924.465	0.0148012
924.543	0.0146785
924.621	0.0145414
924.700	0.0147758
924.778	0.0147419
924.856	0.0145644
924.934	0.0147219
925.012	0.0147130
925.090	0.0146691
925.168	0.0145306
925.246	0.0145714
925.325	0.0147081
925.403	0.0148309
925.481	0.0147255
925.559	0.0146828
925.637	0.0146637
925.715	0.0146813
925.793	0.0145518
925.871	0.0148269
925.950	0.0147033
926.028	0.0146216
926.106	0.0146381
926.184	0.0146477
926.262	0.0147075
926.340	0.0147563
926.418	0.0145271
926.496	0.0147371
926.575	0.0147520
926.653	0.0147773
926.731	0.0147729
926.809	0.0145715
926.887	0.0146780
926.965	0.0146045
927.043	0.0146459
927.121	0.0146941
927.200	0.0146644
927.278	0.0146355
927.356	0.0146067
927.434	0.0146175
927.512	0.0145406
927.590	0.0144788
927.668	0.0145954
927.746	0.0147281
927.825	0.0146746
927.903	0.0145480
927.981	0.0146156
928.059	0.0146967
928.137	0.0146464
928.215	0.0147678
928.293	0.0146341
928.371	0.0146406
928.450	0.0145606
928.528	0.0146691
928.606	0.0147031
928.684	0.0146391
928.762	0.0147146
928.840	0.0147874
928.918	0.0147798
928.996	0.0147328
929.075	0.0147057
929.153	0.0147888
929.231	0.0147577
929.309	0.0147514
929.387	0.0146797
929.465	0.0146981
929.543	0.0147424
929.621	0.0146406
929.700	0.0146773
929.778	0.0146664
929.856	0.0146573
929.934	0.0145139
930.012	0.0145887
930.090	0.0146370
930.168	0.0147150
930.246	0.0147282
930.325	0.0146621
930.403	0.0147044
930.481	0.0147308
930.559	0.0147634
930.637	0.0146225
930.715	0.0147086
930.793	0.0148146
930.871	0.0147127
930.950	0.0145675
931.028	0.0146400
931.106	0.0147500
931.184	0.0147492
931.262	0.0147652
931.340	0.0146621
931.418	0.0146999
931.496	0.0148239
931.575	0.0147451
931.653	0.0146946
931.731	0.0147690
931.809	0.0146793
931.887	0.0147681
931.965	0.0147874
932.043	0.0146995
932.121	0.0146291
932.200	0.0147456
932.278	0.0147120
932.356	0.0145815
932.434	0.0145380
932.512	0.0147240
932.590	0.0146931
932.668	0.0147749
932.746	0.0147454
932.825	0.0145969
932.903	0.0146773
932.981	0.0146149
933.059	0.0145558
933.137	0.0145678
933.215	0.0145998
933.293	0.0147668
933.371	0.0147382
933.450	0.0146027
933.528	0.0146906
933.606	0.0146576
933.684	0.0145850
933.762	0.0146335
933.840	0.0145922
933.918	0.0146601
933.996	0.0147021
934.075	0.0148248
934.153	0.0147771
934.231	0.0147961
934.309	0.0147826
934.387	0.0147277
934.465	0.0147520
934.543	0.0148093
934.621	0.0147025
934.700	0.0147112
934.778	0.0148348
934.856	0.0146547
934.934	0.0145517
935.012	0.0146189
935.090	0.0146583
935.168	0.0145737
935.246	0.0145107
935.325	0.0146272
935.403	0.0145720
935.481	0.0145715
935.559	0.0146600
935.637	0.0146887
935.715	0.0146151
935.793	0.0146616
935.871	0.0147202
935.950	0.0145887
936.028	0.0145801
936.106	0.0146571
936.184	0.0146575
936.262	0.0146099
936.340	0.0146982
936.418	0.0146639
936.496	0.0146107
936.575	0.0145503
936.653	0.0146575
936.731	0.0146900
936.809	0.0146574
936.887	0.0146282
936.965	0.0147183
937.043	0.0147099
937.121	0.0146333
937.200	0.0146410
937.278	0.0147297
937.356	0.0146518
937.434	0.0148383
937.512	0.0146593
937.590	0.0146228
937.668	0.0148702
937.746	0.0146421
937.825	0.0147145
937.903	0.0146253
937.981	0.0145109
938.059	0.0147012
938.137	0.0147537
938.215	0.0147325
938.293	0.0148093
938.371	0.0145907
938.450	0.0144785
938.528	0.0146985
938.606	0.0147546
938.684	0.0146337
938.762	0.0146053
938.840	0.0147591
938.918	0.0147076
938.996	0.0146273
939.075	0.0147345
939.153	0.0146893
939.231	0.0147204
939.309	0.0148657
939.387	0.0148461
939.465	0.0147535
939.543	0.0148296
939.621	0.0147715
939.700	0.0148254
939.778	0.0149380
939.856	0.0147523
939.934	0.0146815
940.012	0.0145917
940.090	0.0147787
940.168	0.0148373
940.246	0.0148256
940.325	0.0148563
940.403	0.0145559
940.481	0.0146882
940.559	0.0146671
940.637	0.0145892
940.715	0.0146749
940.793	0.0146539
940.871	0.0146687
940.950	0.0147239
941.028	0.0146697
941.106	0.0147356
941.184	0.0145894
941.262	0.0147145
941.340	0.0145415
941.418	0.0146443
941.496	0.0145866
941.575	0.0147283
941.653	0.0147906
941.731	0.0146416
941.809	0.0147466
941.887	0.0147122
941.965	0.0148154
942.043	0.0145372
942.121	0.0147042
942.200	0.0146763
942.278	0.0146992
942.356	0.0146266
942.434	0.0146754
942.512	0.0145685
942.590	0.0147905
942.668	0.0145822
942.746	0.0145320
942.825	0.0146333
942.903	0.0145876
942.981	0.0146399
943.059	0.0146725
943.137	0.0146319
943.215	0.0144750
943.293	0.0147540
943.371	0.0146720
943.450	0.0145889
943.528	0.0147388
943.606	0.0147768
943.684	0.0147560
943.762	0.0147626
943.840	0.0147437
943.918	0.0147269
943.996	0.0146838
944.075	0.0148364
944.153	0.0148468
944.231	0.0146833
944.309	0.0146210
944.387	0.0146789
944.465	0.0146675
944.543	0.0146290
944.621	0.0146140
944.700	0.0145970
944.778	0.0147377
944.856	0.0145753
944.934	0.0146974
945.012	0.0148120
945.090	0.0147179
945.168	0.0147205
945.246	0.0146671
945.325	0.0147732
945.403	0.0146531
945.481	0.0147223
945.559	0.0147794
945.637	0.0145369
945.715	0.0147582
945.793	0.0148207
945.871	0.0148080
945.950	0.0147289
946.028	0.0146883
946.106	0.0147138
946.184	0.0146842
946.262	0.0147758
946.340	0.0147729
946.418	0.0148092
946.496	0.0149693
946.575	0.0147814
946.653	0.0147024
946.731	0.0146988
946.809	0.0147877
946.887	0.0146992
946.965	0.0146013
947.043	0.0146674
947.121	0.0148360
947.200	0.0148082
947.278	0.0146212
947.356	0.0145133
947.434	0.0145077
947.512	0.0146258
947.590	0.0146972
947.668	0.0146713
947.746	0.0147498
947.825	0.0146850
947.903	0.0147424
947.981	0.0146362
948.059	0.0148545
948.137	0.0148320
948.215	0.0147481
948.293	0.0147709
948.371	0.0145440
948.450	0.0146423
948.528	0.0146230
948.606	0.0146986
948.684	0.0145615
948.762	0.0146371
948.840	0.0146738
948.918	0.0145240
948.996	0.0145493
949.075	0.0145889
949.153	0.0145809
949.231	0.0145909
949.309	0.0146004
949.387	0.0146782
949.465	0.0146471
949.543	0.0145937
949.621	0.0146371
949.700	0.0146069
949.778	0.0147095
949.856	0.0147680
949.934	0.0147448
950.012	0.0146645
950.090	0.0147739
950.168	0.0147895
950.246	0.0148308
950.325	0.0146716
950.403	0.0147743
950.481	0.0146072
950.559	0.0146626
950.637	0.0146639
950.715	0.0146572
950.793	0.0147518
950.871	0.0145310
950.950	0.0145766
951.028	0.0146612
951.106	0.0146495
951.184	0.0146559
951.262	0.0146439
951.340	0.0145192
951.418	0.0146598
951.496	0.0145760
951.575	0.0144699
951.653	0.0147140
951.731	0.0146400
951.809	0.0146003
951.887	0.0145247
951.965	0.0146131
952.043	0.0146732
952.121	0.0146474
952.200	0.0147054
952.278	0.0146871
952.356	0.0146362
952.434	0.0146813
952.512	0.0145494
952.590	0.0147380
952.668	0.0146796
952.746	0.0147022
952.825	0.0147954
952.903	0.0146910
952.981	0.0147038
953.059	0.0145920
953.137	0.0146020
953.215	0.0146429
953.293	0.0147226
953.371	0.0145398
953.450	0.0147036
953.528	0.0146033
953.606	0.0147081
953.684	0.0147828
953.762	0.0146984
953.840	0.0146819
953.918	0.0146391
953.996	0.0147462
954.075	0.0146597
954.153	0.0146718
954.231	0.0146180
954.309	0.0147784
954.387	0.0147664
954.465	0.0146530
954.543	0.0146586
954.621	0.0147766
954.700	0.0147183
954.778	0.0146992
954.856	0.0147662
954.934	0.0147181
955.012	0.0147578
955.090	0.0148039
955.168	0.0148187
955.246	0.0147543
955.325	0.0149191
955.403	0.0148665
955.481	0.0146561
955.559	0.0146741
955.637	0.0147573
955.715	0.0147171
955.793	0.0147533
955.871	0.0146970
955.950	0.0145300
956.028	0.0146169
956.106	0.0146494
956.184	0.0146989
956.262	0.0147043
956.340	0.0147478
956.418	0.0147450
956.496	0.0147425
956.575	0.0146193
956.653	0.0146696
956.731	0.0146011
956.809	0.0146255
956.887	0.0147193
956.965	0.0146892
957.043	0.0146854
957.121	0.0147440
957.200	0.0146123
957.278	0.0145760
957.356	0.0148028
957.434	0.0146164
957.512	0.0147250
957.590	0.0147829
957.668	0.0146320
957.746	0.0146469
957.825	0.0145924
957.903	0.0147050
957.981	0.0145205
958.059	0.0147237
958.137	0.0147511
958.215	0.0146928
958.293	0.0146850
958.371	0.0147228
958.450	0.0145740
958.528	0.0147385
958.606	0.0147612
958.684	0.0145934
958.762	0.0147834
958.840	0.0147523
958.918	0.0146128
958.996	0.0146597
959.075	0.0147073
959.153	0.0145667
959.231	0.0146311
959.309	0.0147408
959.387	0.0146855
959.465	0.0146638
959.543	0.0147311
959.621	0.0146697
959.700	0.0148577
959.778	0.0147514
959.856	0.0146687
959.934	0.0148321
960.012	0.0147504
960.090	0.0147326
960.168	0.0147052
960.246	0.0147152
960.325	0.0145512
960.403	0.0147020
960.481	0.0147965
960.559	0.0148546
960.637	0.0147321
960.715	0.0148181
960.793	0.0147488
960.871	0.0146172
960.950	0.0147650
961.028	0.0147030
961.106	0.0146829
961.184	0.0145602
961.262	0.0145081
961.340	0.0146479
961.418	0.0145299
961.496	0.0146821
961.575	0.0146619
961.653	0.0146349
961.731	0.0145721
961.809	0.0145573
961.887	0.0147843
961.965	0.0146904
962.043	0.0146720
962.121	0.0147135
962.200	0.0144779
962.278	0.0145428
962.356	0.0147267
962.434	0.0146809
962.512	0.0146370
962.590	0.0147482
962.668	0.0147012
962.746	0.0146996
962.825	0.0146399
962.903	0.0145754
962.981	0.0146606
963.059	0.0146810
963.137	0.0148147
963.215	0.0147560
963.293	0.0146301
963.371	0.0147556
963.450	0.0146807
963.528	0.0145886
963.606	0.0145119
963.684	0.0145308
963.762	0.0146687
963.840	0.0146828
963.918	0.0146564
963.996	0.0146364
964.075	0.0145673
964.153	0.0147085
964.231	0.0146174
964.309	0.0147736
964.387	0.0147601
964.465	0.0146240
964.543	0.0146514
964.621	0.0147691
964.700	0.0148123
964.778	0.0147707
964.856	0.0146715
964.934	0.0148328
965.012	0.0147459
965.090	0.0147157
965.168	0.0149384
965.246	0.0146338
965.325	0.0147115
965.403	0.0147029
965.481	0.0147536
965.559	0.0148273
965.637	0.0148122
965.715	0.0148518
965.793	0.0147829
965.871	0.0147163
965.950	0.0148428
966.028	0.0146085
966.106	0.0147222
966.184	0.0146747
966.262	0.0145714
966.340	0.0146196
966.418	0.0145916
966.496	0.0146118
966.575	0.0145259
966.653	0.0146559
966.731	0.0146362
966.809	0.0146626
966.887	0.0145881
966.965	0.0146500
967.043	0.0146394
967.121	0.0145865
967.200	0.0146600
967.278	0.0146387
967.356	0.0147224
967.434	0.0147213
967.512	0.0147454
967.590	0.0147359
967.668	0.0147324
967.746	0.0148180
967.825	0.0146790
967.903	0.0147388
967.981	0.0148260
968.059	0.0146587
968.137	0.0148904
968.215	0.0146635
968.293	0.0145752
968.371	0.0146601
968.450	0.0145278
968.528	0.0146725
968.606	0.0147414
968.684	0.0146101
968.762	0.0147316
968.840	0.0146569
968.918	0.0147213
968.996	0.0146535
969.075	0.0145631
969.153	0.0145049
969.231	0.0146356
969.309	0.0147019
969.387	0.0146816
969.465	0.0145811
969.543	0.0144975
969.621	0.0146381
969.700	0.0145016
969.778	0.0145440
969.856	0.0147161
969.934	0.0145692
970.012	0.0146390
970.090	0.0147042
970.168	0.0147591
970.246	0.0146673
970.325	0.0146523
970.403	0.0147453
970.481	0.0147501
970.559	0.0147482
970.637	0.0147588
970.715	0.0148605
970.793	0.0148624
970.871	0.0148389
970.950	0.0147022
971.028	0.0146319
971.106	0.0145783
971.184	0.0146943
971.262	0.0146676
971.340	0.0145762
971.418	0.0146494
971.496	0.0147725
971.575	0.0146877
971.653	0.0145130
971.731	0.0146372
971.809	0.0145972
971.887	0.0146246
971.965	0.0146070
972.043	0.0145943
972.121	0.0145603
972.200	0.0146729
972.278	0.0145960
972.356	0.0145406
972.434	0.0145872
972.512	0.0145533
972.590	0.0146785
972.668	0.0147128
972.746	0.0146908
972.825	0.0147141
972.903	0.0146321
972.981	0.0146749
973.059	0.0149023
973.137	0.0148634
973.215	0.0147375
973.293	0.0146140
973.371	0.0147890
973.450	0.0146988
973.528	0.0146735
973.606	0.0148846
973.684	0.0147991
973.762	0.0148309
973.840	0.0149275
973.918	0.0148210
973.996	0.0147160
974.075	0.0146456
974.153	0.0146194
974.231	0.0146428
974.309	0.0148157
974.387	0.0146014
974.465	0.0145093
974.543	0.0146985
974.621	0.0146387
974.700	0.0147066
974.778	0.0146231
974.856	0.0146515
974.934	0.0146865
975.012	0.0146453
975.090	0.0146411
975.168	0.0146796
975.246	0.0146935
975.325	0.0147712
975.403	0.0147540
975.481	0.0147953
975.559	0.0146366
975.637	0.0147218
975.715	0.0149534
975.793	0.0146618
975.871	0.0146938
975.950	0.0147383
976.028	0.0145701
976.106	0.0147092
976.184	0.0147617
976.262	0.0146470
976.340	0.0147596
976.418	0.0148383
976.496	0.0146973
976.575	0.0146510
976.653	0.0146854
976.731	0.0146910
976.809	0.0146768
976.887	0.0146683
976.965	0.0146584
977.043	0.0145707
977.121	0.0146781
977.200	0.0148322
977.278	0.0147716
977.356	0.0147549
977.434	0.0147012
977.512	0.0146089
977.590	0.0148568
977.668	0.0147600
977.746	0.0146429
977.825	0.0147092
977.903	0.0147350
977.981	0.0146387
978.059	0.0148023
978.137	0.0146203
978.215	0.0146494
978.293	0.0147124
978.371	0.0146874
978.450	0.0146439
978.528	0.0146394
978.606	0.0147289
978.684	0.0147344
978.762	0.0145759
978.840	0.0147073
978.918	0.0146851
978.996	0.0146318
979.075	0.0146992
979.153	0.0147823
979.231	0.0147578
979.309	0.0146342
979.387	0.0147154
979.465	0.0146863
979.543	0.0146877
979.621	0.0145723
979.700	0.0147340
979.778	0.0146620
979.856	0.0147658
979.934	0.0147283
980.012	0.0145812
980.090	0.0145637
980.168	0.0145547
980.246	0.0146460
980.325	0.0144817
980.403	0.0144411
980.481	0.0146619
980.559	0.0146974
980.637	0.0147021
980.715	0.0148168
980.793	0.0146702
980.871	0.0146820
980.950	0.0146565
981.028	0.0147216
981.106	0.0146092
981.184	0.0146093
981.262	0.0146927
981.340	0.0146773
981.418	0.0147697
981.496	0.0146803
981.575	0.0146832
981.653	0.0146184
981.731	0.0147090
981.809	0.0147583
981.887	0.0147014
981.965	0.0146893
982.043	0.0146511
982.121	0.0145355
982.200	0.0147076
982.278	0.0147561
982.356	0.0146219
982.434	0.0147503
982.512	0.0146970
982.590	0.0146465
982.668	0.0148003
982.746	0.0147169
982.825	0.0147290
982.903	0.0146494
982.981	0.0147092
983.059	0.0147382
983.137	0.0147720
983.215	0.0148606
983.293	0.0147259
983.371	0.0146519
983.450	0.0147231
983.528	0.0146333
983.606	0.0146421
983.684	0.0148160
983.762	0.0146910
983.840	0.0146663
983.918	0.0146212
983.996	0.0146467
984.075	0.0147804
984.153	0.0146484
984.231	0.0148017
984.309	0.0146722
984.387	0.0146195
984.465	0.0147286
984.543	0.0147119
984.621	0.0146777
984.700	0.0147076
984.778	0.0147666
984.856	0.0146843
984.934	0.0147955
985.012	0.0146780
985.090	0.0146106
985.168	0.0147529
985.246	0.0147286
985.325	0.0149374
985.403	0.0148074
985.481	0.0147890
985.559	0.0146114
985.637	0.0147126
985.715	0.0147544
985.793	0.0147042
985.871	0.0147086
985.950	0.0147747
986.028	0.0147511
986.106	0.0146767
986.184	0.0147421
986.262	0.0146564
986.340	0.0146718
986.418	0.0147003
986.496	0.0146978
986.575	0.0147511
986.653	0.0147939
986.731	0.0148338
986.809	0.0148296
986.887	0.0147914
986.965	0.0148622
987.043	0.0147857
987.121	0.0147974
987.200	0.0146663
987.278	0.0147732
987.356	0.0147598
987.434	0.0146532
987.512	0.0147620
987.590	0.0146806
987.668	0.0146707
987.746	0.0148363
987.825	0.0147156
987.903	0.0146332
987.981	0.0147083
988.059	0.0146484
988.137	0.0147428
988.215	0.0147426
988.293	0.0147709
988.371	0.0145829
988.450	0.0146564
988.528	0.0148818
988.606	0.0146839
988.684	0.0146262
988.762	0.0146580
988.840	0.0147043
988.918	0.0147649
988.996	0.0146397
989.075	0.0147820
989.153	0.0146097
989.231	0.0147127
989.309	0.0148008
989.387	0.0146325
989.465	0.0145620
989.543	0.0145145
989.621	0.0146603
989.700	0.0146896
989.778	0.0146188
989.856	0.0147009
989.934	0.0147128
990.012	0.0147415
990.090	0.0146933
990.168	0.0145428
990.246	0.0147459
990.325	0.0145638
990.403	0.0146141
990.481	0.0145948
990.559	0.0146104
990.637	0.0146436
990.715	0.0148021
990.793	0.0147375
990.871	0.0147253
990.950	0.0146341
991.028	0.0149200
991.106	0.0147083
991.184	0.0146350
991.262	0.0147453
991.340	0.0147811
991.418	0.0148449
991.496	0.0147626
991.575	0.0147459
991.653	0.0146249
991.731	0.0148319
991.809	0.0147164
991.887	0.0146705
991.965	0.0146252
992.043	0.0148358
992.121	0.0146522
992.200	0.0147932
992.278	0.0147794
992.356	0.0147015
992.434	0.0145860
992.512	0.0145888
992.590	0.0147104
992.668	0.0146661
992.746	0.0146104
992.825	0.0146221
992.903	0.0146816
992.981	0.0147533
993.059	0.0146679
993.137	0.0146622
993.215	0.0146774
993.293	0.0146428
993.371	0.0145706
993.450	0.0145805
993.528	0.0146296
993.606	0.0147482
993.684	0.0147381
993.762	0.0147660
993.840	0.0146149
993.918	0.0146798
993.996	0.0146774
994.075	0.0147282
994.153	0.0145934
994.231	0.0148360
994.309	0.0147800
994.387	0.0147137
994.465	0.0146938
994.543	0.0149312
994.621	0.0147985
994.700	0.0147237
994.778	0.0146761
994.856	0.0148295
994.934	0.0147193
995.012	0.0148673
995.090	0.0147427
995.168	0.0145840
995.246	0.0147648
995.325	0.0146904
995.403	0.0145964
995.481	0.0147123
995.559	0.0146249
995.637	0.0145602
995.715	0.0145541
995.793	0.0146808
995.871	0.0146583
995.950	0.0146954
996.028	0.0145249
996.106	0.0146194
996.184	0.0146484
996.262	0.0146931
996.340	0.0145485
996.418	0.0146043
996.496	0.0145685
996.575	0.0145884
996.653	0.0145638
996.731	0.0147040
996.809	0.0146978
996.887	0.0146481
996.965	0.0145599
997.043	0.0146804
997.121	0.0147250
997.200	0.0146353
997.278	0.0145927
997.356	0.0146012
997.434	0.0145957
997.512	0.0144755
997.590	0.0145090
997.668	0.0145217
997.746	0.0146912
997.825	0.0146049
997.903	0.0145275
997.981	0.0145148
998.059	0.0145591
998.137	0.0147178
998.215	0.0145617
998.293	0.0145308
998.371	0.0146162
998.450	0.0146533
998.528	0.0145712
998.606	0.0146414
998.684	0.0145763
998.762	0.0146438
998.840	0.0145727
998.918	0.0146690
