05/04/2022	21:33:18	Ver.	4.1	UNKNOWN
Optical Delay	678.989730	Delta X		0.078125	Sweeps	1	Scan Rate	0/0
Coordinates	Axis 1	NaN	Axis 2	NaN	Axis 3	NaN	Axis 4	NaN	Axis 5	NaN	Axis 6	0.000000
TX Power	0.000000	RX Power	0.000000

678.990	0.0148734
679.068	0.0148921
679.146	0.0149158
679.224	0.0148485
679.302	0.0149413
679.380	0.0147894
679.458	0.0149245
679.537	0.0149217
679.615	0.0148591
679.693	0.0148383
679.771	0.0150597
679.849	0.0149384
679.927	0.0148621
680.005	0.0149557
680.083	0.0149248
680.162	0.0149302
680.240	0.0148615
680.318	0.0148095
680.396	0.0149534
680.474	0.0150204
680.552	0.0148081
680.630	0.0147080
680.708	0.0149192
680.787	0.0148265
680.865	0.0147060
680.943	0.0147859
681.021	0.0147485
681.099	0.0147698
681.177	0.0147655
681.255	0.0146812
681.333	0.0146486
681.412	0.0146941
681.490	0.0147216
681.568	0.0147214
681.646	0.0148640
681.724	0.0150640
681.802	0.0150139
681.880	0.0148827
681.958	0.0149860
682.037	0.0148596
682.115	0.0147840
682.193	0.0147662
682.271	0.0148439
682.349	0.0149326
682.427	0.0147607
682.505	0.0146413
682.583	0.0148388
682.662	0.0148543
682.740	0.0147192
682.818	0.0147490
682.896	0.0148186
682.974	0.0148019
683.052	0.0148166
683.130	0.0148942
683.208	0.0148550
683.287	0.0147228
683.365	0.0148792
683.443	0.0147623
683.521	0.0148257
683.599	0.0148293
683.677	0.0147991
683.755	0.0148395
683.833	0.0148116
683.912	0.0148612
683.990	0.0149607
684.068	0.0149673
684.146	0.0148141
684.224	0.0149001
684.302	0.0149744
684.380	0.0148638
684.458	0.0148499
684.537	0.0146864
684.615	0.0148676
684.693	0.0149216
684.771	0.0150191
684.849	0.0148898
684.927	0.0148761
685.005	0.0148461
685.083	0.0148716
685.162	0.0148418
685.240	0.0148366
685.318	0.0148411
685.396	0.0146618
685.474	0.0147183
685.552	0.0146624
685.630	0.0146942
685.708	0.0146774
685.787	0.0146786
685.865	0.0148142
685.943	0.0147623
686.021	0.0148672
686.099	0.0148783
686.177	0.0149479
686.255	0.0150017
686.333	0.0149305
686.412	0.0148232
686.490	0.0148274
686.568	0.0149041
686.646	0.0149493
686.724	0.0150422
686.802	0.0150809
686.880	0.0151286
686.958	0.0150705
687.037	0.0151839
687.115	0.0151004
687.193	0.0151476
687.271	0.0152534
687.349	0.0150686
687.427	0.0149913
687.505	0.0149242
687.583	0.0149715
687.662	0.0147476
687.740	0.0146510
687.818	0.0147035
687.896	0.0145206
687.974	0.0146763
688.052	0.0145859
688.130	0.0143569
688.208	0.0144212
688.287	0.0145531
688.365	0.0146954
688.443	0.0145488
688.521	0.0143654
688.599	0.0146554
688.677	0.0145932
688.755	0.0148052
688.833	0.0148577
688.912	0.0150260
688.990	0.0150707
689.068	0.0151902
689.146	0.0151567
689.224	0.0153066
689.302	0.0153113
689.380	0.0153293
689.458	0.0153466
689.537	0.0151405
689.615	0.0151562
689.693	0.0150544
689.771	0.0149982
689.849	0.0151003
689.927	0.0151719
690.005	0.0151214
690.083	0.0149483
690.162	0.0150457
690.240	0.0151291
690.318	0.0149326
690.396	0.0150459
690.474	0.0150188
690.552	0.0148821
690.630	0.0148243
690.708	0.0147404
690.787	0.0148637
690.865	0.0147520
690.943	0.0146612
691.021	0.0146762
691.099	0.0146150
691.177	0.0146210
691.255	0.0146979
691.333	0.0146624
691.412	0.0146889
691.490	0.0145165
691.568	0.0145532
691.646	0.0147977
691.724	0.0147041
691.802	0.0146419
691.880	0.0147170
691.958	0.0147520
692.037	0.0148635
692.115	0.0149174
692.193	0.0150758
692.271	0.0149876
692.349	0.0152003
692.427	0.0151205
692.505	0.0152143
692.583	0.0153870
692.662	0.0153170
692.740	0.0151037
692.818	0.0152474
692.896	0.0152901
692.974	0.0152197
693.052	0.0151931
693.130	0.0152014
693.208	0.0152193
693.287	0.0150755
693.365	0.0150830
693.443	0.0151392
693.521	0.0148907
693.599	0.0148944
693.677	0.0149368
693.755	0.0148280
693.833	0.0147857
693.912	0.0148396
693.990	0.0147438
694.068	0.0147369
694.146	0.0145527
694.224	0.0146410
694.302	0.0144918
694.380	0.0145972
694.458	0.0146934
694.537	0.0146407
694.615	0.0146764
694.693	0.0146432
694.771	0.0146349
694.849	0.0146098
694.927	0.0146143
695.005	0.0147611
695.083	0.0148820
695.162	0.0148845
695.240	0.0148586
695.318	0.0151457
695.396	0.0152374
695.474	0.0153062
695.552	0.0154679
695.630	0.0153358
695.708	0.0154584
695.787	0.0153686
695.865	0.0152715
695.943	0.0152725
696.021	0.0153259
696.099	0.0150500
696.177	0.0149960
696.255	0.0149561
696.333	0.0149323
696.412	0.0149744
696.490	0.0150117
696.568	0.0149445
696.646	0.0149731
696.724	0.0148589
696.802	0.0145850
696.880	0.0147661
696.958	0.0148045
697.037	0.0146756
697.115	0.0145424
697.193	0.0144072
697.271	0.0143861
697.349	0.0144852
697.427	0.0145049
697.505	0.0145595
697.583	0.0147338
697.662	0.0147054
697.740	0.0146489
697.818	0.0147005
697.896	0.0147326
697.974	0.0146568
698.052	0.0147121
698.130	0.0147462
698.208	0.0148318
698.287	0.0147733
698.365	0.0147414
698.443	0.0148392
698.521	0.0148466
698.599	0.0148966
698.677	0.0150524
698.755	0.0150046
698.833	0.0149768
698.912	0.0150023
698.990	0.0149337
699.068	0.0148997
699.146	0.0150185
699.224	0.0151043
699.302	0.0150819
699.380	0.0151707
699.458	0.0153409
699.537	0.0152387
699.615	0.0153585
699.693	0.0153127
699.771	0.0152126
699.849	0.0149964
699.927	0.0149226
700.005	0.0147741
700.083	0.0147554
700.162	0.0145683
700.240	0.0143900
700.318	0.0143472
700.396	0.0144035
700.474	0.0142043
700.552	0.0141831
700.630	0.0143545
700.708	0.0145097
700.787	0.0145470
700.865	0.0145529
700.943	0.0147047
701.021	0.0148122
701.099	0.0149160
701.177	0.0149907
701.255	0.0150494
701.333	0.0150965
701.412	0.0150932
701.490	0.0151308
701.568	0.0151456
701.646	0.0150626
701.724	0.0150163
701.802	0.0151458
701.880	0.0149241
701.958	0.0149341
702.037	0.0148647
702.115	0.0148705
702.193	0.0148434
702.271	0.0148975
702.349	0.0149580
702.427	0.0151386
702.505	0.0152067
702.583	0.0152158
702.662	0.0151746
702.740	0.0152940
702.818	0.0154518
702.896	0.0153019
702.974	0.0150961
703.052	0.0148397
703.130	0.0148428
703.208	0.0147256
703.287	0.0145953
703.365	0.0145378
703.443	0.0145897
703.521	0.0143907
703.599	0.0144323
703.677	0.0143822
703.755	0.0144031
703.833	0.0144461
703.912	0.0145187
703.990	0.0146809
704.068	0.0146634
704.146	0.0149491
704.224	0.0149812
704.302	0.0150292
704.380	0.0150714
704.458	0.0149623
704.537	0.0151081
704.615	0.0150759
704.693	0.0148993
704.771	0.0148014
704.849	0.0147676
704.927	0.0146734
705.005	0.0146218
705.083	0.0145824
705.162	0.0146061
705.240	0.0146362
705.318	0.0147917
705.396	0.0149374
705.474	0.0150058
705.552	0.0149839
705.630	0.0150456
705.708	0.0152944
705.787	0.0153825
705.865	0.0151976
705.943	0.0152750
706.021	0.0153476
706.099	0.0151105
706.177	0.0149936
706.255	0.0150876
706.333	0.0149422
706.412	0.0147327
706.490	0.0147050
706.568	0.0146529
706.646	0.0145219
706.724	0.0146889
706.802	0.0147445
706.880	0.0147711
706.958	0.0148204
707.037	0.0148328
707.115	0.0150024
707.193	0.0149410
707.271	0.0150809
707.349	0.0149221
707.427	0.0150347
707.505	0.0148979
707.583	0.0148625
707.662	0.0147932
707.740	0.0146991
707.818	0.0147417
707.896	0.0146565
707.974	0.0145705
708.052	0.0145855
708.130	0.0148733
708.208	0.0148032
708.287	0.0148060
708.365	0.0147206
708.443	0.0148003
708.521	0.0149673
708.599	0.0150768
708.677	0.0150286
708.755	0.0150890
708.833	0.0152215
708.912	0.0151689
708.990	0.0151694
709.068	0.0152757
709.146	0.0149757
709.224	0.0150605
709.302	0.0150301
709.380	0.0148342
709.458	0.0148403
709.537	0.0146908
709.615	0.0148037
709.693	0.0146043
709.771	0.0146703
709.849	0.0148270
709.927	0.0147034
710.005	0.0147606
710.083	0.0147563
710.162	0.0149369
710.240	0.0148148
710.318	0.0150849
710.396	0.0150696
710.474	0.0148170
710.552	0.0149017
710.630	0.0146699
710.708	0.0146088
710.787	0.0147567
710.865	0.0147036
710.943	0.0148135
711.021	0.0147952
711.099	0.0146989
711.177	0.0146543
711.255	0.0146909
711.333	0.0149643
711.412	0.0148457
711.490	0.0147947
711.568	0.0149323
711.646	0.0149957
711.724	0.0150345
711.802	0.0149622
711.880	0.0150666
711.958	0.0149677
712.037	0.0150611
712.115	0.0149471
712.193	0.0150144
712.271	0.0150084
712.349	0.0148107
712.427	0.0149152
712.505	0.0146883
712.583	0.0147047
712.662	0.0148353
712.740	0.0149549
712.818	0.0148257
712.896	0.0147782
712.974	0.0147863
713.052	0.0147839
713.130	0.0148260
713.208	0.0148356
713.287	0.0148958
713.365	0.0149664
713.443	0.0149136
713.521	0.0150182
713.599	0.0148515
713.677	0.0149844
713.755	0.0150691
713.833	0.0149577
713.912	0.0148208
713.990	0.0147890
714.068	0.0148227
714.146	0.0148891
714.224	0.0148971
714.302	0.0148746
714.380	0.0149059
714.458	0.0147877
714.537	0.0150043
714.615	0.0149335
714.693	0.0147663
714.771	0.0149829
714.849	0.0149155
714.927	0.0149551
715.005	0.0146930
715.083	0.0148625
715.162	0.0148750
715.240	0.0148357
715.318	0.0147070
715.396	0.0147034
715.474	0.0147144
715.552	0.0147430
715.630	0.0146340
715.708	0.0146972
715.787	0.0148385
715.865	0.0148515
715.943	0.0148917
716.021	0.0149798
716.099	0.0149971
716.177	0.0151259
716.255	0.0151062
716.333	0.0151399
716.412	0.0151555
716.490	0.0151101
716.568	0.0150449
716.646	0.0150598
716.724	0.0151424
716.802	0.0150695
716.880	0.0149072
716.958	0.0147198
717.037	0.0147231
717.115	0.0147395
717.193	0.0146827
717.271	0.0145760
717.349	0.0145055
717.427	0.0145087
717.505	0.0146281
717.583	0.0146139
717.662	0.0146303
717.740	0.0146244
717.818	0.0146882
717.896	0.0147002
717.974	0.0148756
718.052	0.0149474
718.130	0.0150104
718.208	0.0148176
718.287	0.0149514
718.365	0.0150073
718.443	0.0151743
718.521	0.0151366
718.599	0.0150835
718.677	0.0151678
718.755	0.0150451
718.833	0.0151842
718.912	0.0150510
718.990	0.0149676
719.068	0.0151969
719.146	0.0151247
719.224	0.0148840
719.302	0.0149216
719.380	0.0148955
719.458	0.0148925
719.537	0.0148425
719.615	0.0147558
719.693	0.0148418
719.771	0.0148226
719.849	0.0146925
719.927	0.0148292
720.005	0.0147617
720.083	0.0146394
720.162	0.0145487
720.240	0.0145411
720.318	0.0145399
720.396	0.0145360
720.474	0.0146214
720.552	0.0145242
720.630	0.0148305
720.708	0.0146159
720.787	0.0147063
720.865	0.0147046
720.943	0.0148014
721.021	0.0146917
721.099	0.0147739
721.177	0.0149219
721.255	0.0149405
721.333	0.0149745
721.412	0.0148175
721.490	0.0148556
721.568	0.0150336
721.646	0.0150554
721.724	0.0149991
721.802	0.0150815
721.880	0.0150097
721.958	0.0151196
722.037	0.0149347
722.115	0.0149612
722.193	0.0151089
722.271	0.0150108
722.349	0.0149812
722.427	0.0148973
722.505	0.0148969
722.583	0.0149902
722.662	0.0148097
722.740	0.0148893
722.818	0.0148775
722.896	0.0148373
722.974	0.0148196
723.052	0.0147689
723.130	0.0148125
723.208	0.0148152
723.287	0.0147649
723.365	0.0148232
723.443	0.0146938
723.521	0.0147720
723.599	0.0148684
723.677	0.0150069
723.755	0.0147678
723.833	0.0149590
723.912	0.0148284
723.990	0.0147707
724.068	0.0150597
724.146	0.0149404
724.224	0.0149860
724.302	0.0149371
724.380	0.0147876
724.458	0.0148692
724.537	0.0147888
724.615	0.0147313
724.693	0.0146410
724.771	0.0147668
724.849	0.0148236
724.927	0.0147812
725.005	0.0148650
725.083	0.0147881
725.162	0.0148354
725.240	0.0150366
725.318	0.0150048
725.396	0.0150064
725.474	0.0150563
725.552	0.0150104
725.630	0.0149546
725.708	0.0150772
725.787	0.0149948
725.865	0.0149120
725.943	0.0148021
726.021	0.0150139
726.099	0.0150774
726.177	0.0150211
726.255	0.0150113
726.333	0.0149546
726.412	0.0149825
726.490	0.0148876
726.568	0.0149650
726.646	0.0149206
726.724	0.0149808
726.802	0.0148737
726.880	0.0148571
726.958	0.0147517
727.037	0.0147144
727.115	0.0147852
727.193	0.0147676
727.271	0.0146176
727.349	0.0146146
727.427	0.0146265
727.505	0.0147114
727.583	0.0147793
727.662	0.0147849
727.740	0.0145321
727.818	0.0146302
727.896	0.0146582
727.974	0.0147623
728.052	0.0147747
728.130	0.0148662
728.208	0.0148512
728.287	0.0149596
728.365	0.0149571
728.443	0.0151954
728.521	0.0150023
728.599	0.0150939
728.677	0.0150320
728.755	0.0151616
728.833	0.0152158
728.912	0.0152001
728.990	0.0152050
729.068	0.0150262
729.146	0.0150455
729.224	0.0151049
729.302	0.0150250
729.380	0.0149831
729.458	0.0149772
729.537	0.0148088
729.615	0.0148813
729.693	0.0148148
729.771	0.0148874
729.849	0.0148149
729.927	0.0146431
730.005	0.0145970
730.083	0.0145657
730.162	0.0146302
730.240	0.0146606
730.318	0.0144649
730.396	0.0145867
730.474	0.0147482
730.552	0.0147900
730.630	0.0146593
730.708	0.0148102
730.787	0.0148431
730.865	0.0149265
730.943	0.0149040
731.021	0.0147953
731.099	0.0147719
731.177	0.0148802
731.255	0.0148321
731.333	0.0149195
731.412	0.0148926
731.490	0.0148533
731.568	0.0150416
731.646	0.0148703
731.724	0.0148759
731.802	0.0148915
731.880	0.0148972
731.958	0.0147782
732.037	0.0148739
732.115	0.0148145
732.193	0.0149246
732.271	0.0149562
732.349	0.0148820
732.427	0.0150153
732.505	0.0149487
732.583	0.0149934
732.662	0.0149061
732.740	0.0148947
732.818	0.0148194
732.896	0.0147461
732.974	0.0147432
733.052	0.0147201
733.130	0.0148035
733.208	0.0147709
733.287	0.0147589
733.365	0.0146064
733.443	0.0145809
733.521	0.0146894
733.599	0.0148819
733.677	0.0147031
733.755	0.0146062
733.833	0.0147662
733.912	0.0147525
733.990	0.0149609
734.068	0.0148299
734.146	0.0147709
734.224	0.0148047
734.302	0.0148200
734.380	0.0146758
734.458	0.0148993
734.537	0.0147826
734.615	0.0146371
734.693	0.0147177
734.771	0.0148042
734.849	0.0148293
734.927	0.0148701
735.005	0.0148252
735.083	0.0149563
735.162	0.0150819
735.240	0.0148820
735.318	0.0149616
735.396	0.0150500
735.474	0.0150047
735.552	0.0149335
735.630	0.0148849
735.708	0.0149156
735.787	0.0149316
735.865	0.0149692
735.943	0.0149661
736.021	0.0149459
736.099	0.0149036
736.177	0.0149683
736.255	0.0149825
736.333	0.0148086
736.412	0.0150414
736.490	0.0148937
736.568	0.0148425
736.646	0.0148238
736.724	0.0148172
736.802	0.0148626
736.880	0.0149539
736.958	0.0149090
737.037	0.0148683
737.115	0.0149188
737.193	0.0149008
737.271	0.0146770
737.349	0.0148554
737.427	0.0148006
737.505	0.0148025
737.583	0.0147575
737.662	0.0147554
737.740	0.0149071
737.818	0.0148450
737.896	0.0148529
737.974	0.0148262
738.052	0.0148416
738.130	0.0149719
738.208	0.0149746
738.287	0.0150165
738.365	0.0149046
738.443	0.0149823
738.521	0.0148562
738.599	0.0149537
738.677	0.0148539
738.755	0.0149520
738.833	0.0148943
738.912	0.0148875
738.990	0.0149153
739.068	0.0148775
739.146	0.0148399
739.224	0.0149016
739.302	0.0148706
739.380	0.0147916
739.458	0.0148589
739.537	0.0148707
739.615	0.0147920
739.693	0.0148818
739.771	0.0147943
739.849	0.0148019
739.927	0.0146899
740.005	0.0147248
740.083	0.0146598
740.162	0.0146995
740.240	0.0146329
740.318	0.0146754
740.396	0.0147187
740.474	0.0148138
740.552	0.0147047
740.630	0.0148454
740.708	0.0147325
740.787	0.0148335
740.865	0.0149190
740.943	0.0148218
741.021	0.0149389
741.099	0.0148793
741.177	0.0148462
741.255	0.0150285
741.333	0.0149704
741.412	0.0148371
741.490	0.0148904
741.568	0.0148833
741.646	0.0149123
741.724	0.0150102
741.802	0.0149269
741.880	0.0148450
741.958	0.0149922
742.037	0.0147890
742.115	0.0149429
742.193	0.0148222
742.271	0.0148172
742.349	0.0148432
742.427	0.0148930
742.505	0.0148288
742.583	0.0146686
742.662	0.0147073
742.740	0.0148656
742.818	0.0148548
742.896	0.0147845
742.974	0.0149239
743.052	0.0149097
743.130	0.0147333
743.208	0.0148832
743.287	0.0147673
743.365	0.0147567
743.443	0.0148672
743.521	0.0149450
743.599	0.0147361
743.677	0.0148115
743.755	0.0148375
743.833	0.0147623
743.912	0.0147382
743.990	0.0147961
744.068	0.0149248
744.146	0.0148509
744.224	0.0148059
744.302	0.0149455
744.380	0.0147211
744.458	0.0147725
744.537	0.0148083
744.615	0.0147437
744.693	0.0147688
744.771	0.0146439
744.849	0.0147894
744.927	0.0147958
745.005	0.0149224
745.083	0.0149186
745.162	0.0149693
745.240	0.0148430
745.318	0.0149264
745.396	0.0151012
745.474	0.0151057
745.552	0.0151384
745.630	0.0150041
745.708	0.0150512
745.787	0.0149235
745.865	0.0149451
745.943	0.0150138
746.021	0.0149870
746.099	0.0150132
746.177	0.0147371
746.255	0.0148746
746.333	0.0147589
746.412	0.0148295
746.490	0.0147677
746.568	0.0146648
746.646	0.0147858
746.724	0.0147520
746.802	0.0147539
746.880	0.0147280
746.958	0.0147611
747.037	0.0148423
747.115	0.0147834
747.193	0.0147457
747.271	0.0146881
747.349	0.0148662
747.427	0.0147043
747.505	0.0146082
747.583	0.0146886
747.662	0.0148444
747.740	0.0148788
747.818	0.0146588
747.896	0.0148558
747.974	0.0147794
748.052	0.0149251
748.130	0.0148418
748.208	0.0148235
748.287	0.0148943
748.365	0.0149561
748.443	0.0149237
748.521	0.0149324
748.599	0.0149286
748.677	0.0148505
748.755	0.0148917
748.833	0.0150909
748.912	0.0149235
748.990	0.0148605
749.068	0.0149103
749.146	0.0147908
749.224	0.0148499
749.302	0.0148402
749.380	0.0148180
749.458	0.0149028
749.537	0.0148811
749.615	0.0148973
749.693	0.0150350
749.771	0.0148618
749.849	0.0147659
749.927	0.0148460
750.005	0.0148971
750.083	0.0148322
750.162	0.0148291
750.240	0.0147311
750.318	0.0148680
750.396	0.0148914
750.474	0.0148804
750.552	0.0148236
750.630	0.0148849
750.708	0.0148791
750.787	0.0147112
750.865	0.0148045
750.943	0.0147364
751.021	0.0148945
751.099	0.0148502
751.177	0.0147957
751.255	0.0149532
751.333	0.0148555
751.412	0.0147727
751.490	0.0149582
751.568	0.0151192
751.646	0.0148545
751.724	0.0148157
751.802	0.0147205
751.880	0.0150090
751.958	0.0149909
752.037	0.0149538
752.115	0.0148167
752.193	0.0149084
752.271	0.0147601
752.349	0.0149569
752.427	0.0148965
752.505	0.0148061
752.583	0.0148257
752.662	0.0149319
752.740	0.0150194
752.818	0.0149298
752.896	0.0148781
752.974	0.0148114
753.052	0.0147449
753.130	0.0148858
753.208	0.0149220
753.287	0.0148460
753.365	0.0149576
753.443	0.0149033
753.521	0.0149426
753.599	0.0148363
753.677	0.0147586
753.755	0.0147679
753.833	0.0148303
753.912	0.0147906
753.990	0.0147623
754.068	0.0147581
754.146	0.0147552
754.224	0.0147707
754.302	0.0148689
754.380	0.0148176
754.458	0.0146188
754.537	0.0147768
754.615	0.0148137
754.693	0.0148528
754.771	0.0150536
754.849	0.0148278
754.927	0.0147840
755.005	0.0149095
755.083	0.0149058
755.162	0.0150137
755.240	0.0148366
755.318	0.0148096
755.396	0.0150476
755.474	0.0149474
755.552	0.0148558
755.630	0.0148564
755.708	0.0148814
755.787	0.0148698
755.865	0.0148580
755.943	0.0149275
756.021	0.0149325
756.099	0.0149858
756.177	0.0148542
756.255	0.0148621
756.333	0.0147932
756.412	0.0149593
756.490	0.0149095
756.568	0.0148884
756.646	0.0149059
756.724	0.0148565
756.802	0.0149280
756.880	0.0149213
756.958	0.0149844
757.037	0.0150330
757.115	0.0150385
757.193	0.0148892
757.271	0.0148325
757.349	0.0147661
757.427	0.0148135
757.505	0.0148403
757.583	0.0148698
757.662	0.0148266
757.740	0.0148908
757.818	0.0147783
757.896	0.0148588
757.974	0.0148524
758.052	0.0148866
758.130	0.0147580
758.208	0.0148444
758.287	0.0150321
758.365	0.0149936
758.443	0.0148595
758.521	0.0149220
758.599	0.0147893
758.677	0.0147858
758.755	0.0148804
758.833	0.0146935
758.912	0.0149754
758.990	0.0147063
759.068	0.0147057
759.146	0.0145870
759.224	0.0148260
759.302	0.0146498
759.380	0.0147592
759.458	0.0145551
759.537	0.0146303
759.615	0.0146519
759.693	0.0148016
759.771	0.0147885
759.849	0.0147733
759.927	0.0146201
760.005	0.0147702
760.083	0.0147182
760.162	0.0147787
760.240	0.0148406
760.318	0.0148106
760.396	0.0149096
760.474	0.0149046
760.552	0.0147972
760.630	0.0149984
760.708	0.0150634
760.787	0.0149030
760.865	0.0149118
760.943	0.0149336
761.021	0.0150780
761.099	0.0150153
761.177	0.0147716
761.255	0.0149420
761.333	0.0148833
761.412	0.0148854
761.490	0.0147841
761.568	0.0148322
761.646	0.0146883
761.724	0.0149515
761.802	0.0148122
761.880	0.0147249
761.958	0.0147010
762.037	0.0148321
762.115	0.0147658
762.193	0.0147755
762.271	0.0147786
762.349	0.0147644
762.427	0.0147547
762.505	0.0146075
762.583	0.0149866
762.662	0.0149079
762.740	0.0148051
762.818	0.0148434
762.896	0.0148671
762.974	0.0149799
763.052	0.0149263
763.130	0.0147651
763.208	0.0147898
763.287	0.0148792
763.365	0.0149510
763.443	0.0148107
763.521	0.0148178
763.599	0.0149578
763.677	0.0148530
763.755	0.0148537
763.833	0.0149159
763.912	0.0148751
763.990	0.0146677
764.068	0.0147520
764.146	0.0148016
764.224	0.0148690
764.302	0.0147279
764.380	0.0147953
764.458	0.0147919
764.537	0.0148680
764.615	0.0148151
764.693	0.0147808
764.771	0.0148162
764.849	0.0148166
764.927	0.0149969
765.005	0.0148286
765.083	0.0148074
765.162	0.0148338
765.240	0.0147742
765.318	0.0148479
765.396	0.0148615
765.474	0.0147367
765.552	0.0146739
765.630	0.0147918
765.708	0.0147930
765.787	0.0146847
765.865	0.0150490
765.943	0.0149373
766.021	0.0147778
766.099	0.0148166
766.177	0.0148455
766.255	0.0150402
766.333	0.0147521
766.412	0.0147050
766.490	0.0147941
766.568	0.0148279
766.646	0.0148172
766.724	0.0147898
766.802	0.0147605
766.880	0.0146306
766.958	0.0148748
767.037	0.0147827
767.115	0.0148584
767.193	0.0147336
767.271	0.0147901
767.349	0.0147381
767.427	0.0148253
767.505	0.0146854
767.583	0.0148170
767.662	0.0149518
767.740	0.0147511
767.818	0.0149389
767.896	0.0148393
767.974	0.0149076
768.052	0.0148247
768.130	0.0148086
768.208	0.0148668
768.287	0.0148673
768.365	0.0148727
768.443	0.0149152
768.521	0.0149522
768.599	0.0148171
768.677	0.0148098
768.755	0.0147671
768.833	0.0149142
768.912	0.0148766
768.990	0.0149709
769.068	0.0148617
769.146	0.0150044
769.224	0.0148286
769.302	0.0149132
769.380	0.0148846
769.458	0.0149052
769.537	0.0149301
769.615	0.0148939
769.693	0.0147893
769.771	0.0150446
769.849	0.0149976
769.927	0.0149519
770.005	0.0150032
770.083	0.0150184
770.162	0.0149857
770.240	0.0150436
770.318	0.0148129
770.396	0.0150720
770.474	0.0149383
770.552	0.0149506
770.630	0.0148267
770.708	0.0149177
770.787	0.0149880
770.865	0.0149578
770.943	0.0148399
771.021	0.0148679
771.099	0.0149210
771.177	0.0149496
771.255	0.0149319
771.333	0.0146706
771.412	0.0146925
771.490	0.0147003
771.568	0.0146648
771.646	0.0148535
771.724	0.0148427
771.802	0.0147702
771.880	0.0148923
771.958	0.0148723
772.037	0.0148678
772.115	0.0149607
772.193	0.0149632
772.271	0.0149786
772.349	0.0149350
772.427	0.0149299
772.505	0.0150076
772.583	0.0149477
772.662	0.0150027
772.740	0.0149999
772.818	0.0150298
772.896	0.0150292
772.974	0.0150113
773.052	0.0149483
773.130	0.0149309
773.208	0.0150391
773.287	0.0150137
773.365	0.0150264
773.443	0.0149265
773.521	0.0150140
773.599	0.0148737
773.677	0.0149171
773.755	0.0150396
773.833	0.0149832
773.912	0.0149023
773.990	0.0148394
774.068	0.0148525
774.146	0.0148132
774.224	0.0148924
774.302	0.0148923
774.380	0.0148442
774.458	0.0147946
774.537	0.0149574
774.615	0.0148373
774.693	0.0149054
774.771	0.0147375
774.849	0.0148463
774.927	0.0148380
775.005	0.0148939
775.083	0.0147999
775.162	0.0149622
775.240	0.0149715
775.318	0.0148738
775.396	0.0147820
775.474	0.0150993
775.552	0.0149851
775.630	0.0149233
775.708	0.0149348
775.787	0.0148616
775.865	0.0148854
775.943	0.0148735
776.021	0.0148728
776.099	0.0148804
776.177	0.0147724
776.255	0.0149026
776.333	0.0149241
776.412	0.0148766
776.490	0.0148957
776.568	0.0148269
776.646	0.0149300
776.724	0.0148881
776.802	0.0148762
776.880	0.0149376
776.958	0.0148961
777.037	0.0147585
777.115	0.0149312
777.193	0.0149275
777.271	0.0149410
777.349	0.0149460
777.427	0.0149084
777.505	0.0148795
777.583	0.0149324
777.662	0.0148290
777.740	0.0148782
777.818	0.0149371
777.896	0.0150904
777.974	0.0149455
778.052	0.0149043
778.130	0.0149225
778.208	0.0150111
778.287	0.0148620
778.365	0.0147634
778.443	0.0148221
778.521	0.0149798
778.599	0.0148338
778.677	0.0147800
778.755	0.0148080
778.833	0.0147649
778.912	0.0149977
778.990	0.0149183
779.068	0.0149752
779.146	0.0149019
779.224	0.0148423
779.302	0.0148512
779.380	0.0147332
779.458	0.0148141
779.537	0.0147749
779.615	0.0147593
779.693	0.0149285
779.771	0.0148087
779.849	0.0147562
779.927	0.0148085
780.005	0.0147727
780.083	0.0148356
780.162	0.0147998
780.240	0.0146279
780.318	0.0148423
780.396	0.0149587
780.474	0.0147029
780.552	0.0148484
780.630	0.0149236
780.708	0.0148378
780.787	0.0148335
780.865	0.0149726
780.943	0.0147942
781.021	0.0147988
781.099	0.0148423
781.177	0.0147696
781.255	0.0147480
781.333	0.0148122
781.412	0.0147734
781.490	0.0148228
781.568	0.0148936
781.646	0.0147919
781.724	0.0147615
781.802	0.0148574
781.880	0.0148624
781.958	0.0149333
782.037	0.0149320
782.115	0.0150024
782.193	0.0149405
782.271	0.0148274
782.349	0.0148991
782.427	0.0148513
782.505	0.0148293
782.583	0.0148390
782.662	0.0148539
782.740	0.0149223
782.818	0.0149895
782.896	0.0148403
782.974	0.0148452
783.052	0.0148313
783.130	0.0149882
783.208	0.0147879
783.287	0.0148094
783.365	0.0148040
783.443	0.0147600
783.521	0.0148241
783.599	0.0147916
783.677	0.0148182
783.755	0.0148498
783.833	0.0147293
783.912	0.0147878
783.990	0.0147407
784.068	0.0148492
784.146	0.0147902
784.224	0.0147758
784.302	0.0147886
784.380	0.0147485
784.458	0.0148547
784.537	0.0148260
784.615	0.0148798
784.693	0.0148154
784.771	0.0148456
784.849	0.0149684
784.927	0.0149328
785.005	0.0148811
785.083	0.0148920
785.162	0.0148926
785.240	0.0150491
785.318	0.0149756
785.396	0.0148819
785.474	0.0148779
785.552	0.0148853
785.630	0.0149747
785.708	0.0149640
785.787	0.0149748
785.865	0.0149261
785.943	0.0149310
786.021	0.0148432
786.099	0.0147955
786.177	0.0149034
786.255	0.0149289
786.333	0.0149297
786.412	0.0148599
786.490	0.0148735
786.568	0.0147384
786.646	0.0148507
786.724	0.0147905
786.802	0.0148431
786.880	0.0148877
786.958	0.0149567
787.037	0.0148531
787.115	0.0148762
787.193	0.0148759
787.271	0.0147950
787.349	0.0148694
787.427	0.0147801
787.505	0.0147934
787.583	0.0147778
787.662	0.0148144
787.740	0.0149461
787.818	0.0148315
787.896	0.0148626
787.974	0.0148005
788.052	0.0148050
788.130	0.0148102
788.208	0.0148129
788.287	0.0148892
788.365	0.0148899
788.443	0.0149359
788.521	0.0148534
788.599	0.0149470
788.677	0.0150690
788.755	0.0150314
788.833	0.0148694
788.912	0.0148534
788.990	0.0148055
789.068	0.0147768
789.146	0.0148137
789.224	0.0148434
789.302	0.0148346
789.380	0.0148456
789.458	0.0148623
789.537	0.0149020
789.615	0.0149039
789.693	0.0147886
789.771	0.0148135
789.849	0.0148970
789.927	0.0149526
790.005	0.0149559
790.083	0.0149126
790.162	0.0149388
790.240	0.0150163
790.318	0.0148432
790.396	0.0147176
790.474	0.0147664
790.552	0.0149165
790.630	0.0149065
790.708	0.0150319
790.787	0.0148447
790.865	0.0148967
790.943	0.0150140
791.021	0.0149626
791.099	0.0150153
791.177	0.0148814
791.255	0.0149895
791.333	0.0149994
791.412	0.0149818
791.490	0.0149901
791.568	0.0150403
791.646	0.0149364
791.724	0.0149765
791.802	0.0149203
791.880	0.0149463
791.958	0.0148162
792.037	0.0149795
792.115	0.0147926
792.193	0.0148868
792.271	0.0150008
792.349	0.0148183
792.427	0.0149744
792.505	0.0148928
792.583	0.0148544
792.662	0.0149114
792.740	0.0150863
792.818	0.0150233
792.896	0.0149489
792.974	0.0148720
793.052	0.0149135
793.130	0.0149506
793.208	0.0149146
793.287	0.0149251
793.365	0.0150494
793.443	0.0148916
793.521	0.0147818
793.599	0.0149854
793.677	0.0149998
793.755	0.0148053
793.833	0.0149181
793.912	0.0149043
793.990	0.0148522
794.068	0.0150968
794.146	0.0150174
794.224	0.0150217
794.302	0.0148332
794.380	0.0148766
794.458	0.0149010
794.537	0.0150028
794.615	0.0149210
794.693	0.0148115
794.771	0.0148288
794.849	0.0149938
794.927	0.0149281
795.005	0.0147904
795.083	0.0149662
795.162	0.0148882
795.240	0.0149006
795.318	0.0149187
795.396	0.0148365
795.474	0.0149482
795.552	0.0149384
795.630	0.0148524
795.708	0.0149440
795.787	0.0149123
795.865	0.0148384
795.943	0.0148376
796.021	0.0148196
796.099	0.0147991
796.177	0.0148666
796.255	0.0148579
796.333	0.0148348
796.412	0.0147146
796.490	0.0148870
796.568	0.0148842
796.646	0.0149303
796.724	0.0148598
796.802	0.0148546
796.880	0.0149507
796.958	0.0148859
797.037	0.0149307
797.115	0.0149702
797.193	0.0148885
797.271	0.0148591
797.349	0.0150086
797.427	0.0149380
797.505	0.0150018
797.583	0.0150011
797.662	0.0150221
797.740	0.0148980
797.818	0.0148802
797.896	0.0149050
797.974	0.0149287
798.052	0.0148488
798.130	0.0150532
798.208	0.0148830
798.287	0.0148927
798.365	0.0149983
798.443	0.0149155
798.521	0.0148548
798.599	0.0148872
798.677	0.0147879
798.755	0.0148386
798.833	0.0148677
798.912	0.0149270
798.990	0.0147004
799.068	0.0149806
799.146	0.0149898
799.224	0.0148014
799.302	0.0147764
799.380	0.0148753
799.458	0.0147545
799.537	0.0148965
799.615	0.0149150
799.693	0.0148601
799.771	0.0148202
799.849	0.0148627
799.927	0.0148562
800.005	0.0148917
800.083	0.0147885
800.162	0.0148655
800.240	0.0149200
800.318	0.0148957
800.396	0.0149780
800.474	0.0147812
800.552	0.0148307
800.630	0.0148924
800.708	0.0149315
800.787	0.0148025
800.865	0.0147746
800.943	0.0148621
801.021	0.0148963
801.099	0.0148812
801.177	0.0147488
801.255	0.0148758
801.333	0.0147766
801.412	0.0149557
801.490	0.0148303
801.568	0.0148820
801.646	0.0148129
801.724	0.0146780
801.802	0.0148576
801.880	0.0149591
801.958	0.0147563
802.037	0.0147925
802.115	0.0148869
802.193	0.0148739
802.271	0.0148653
802.349	0.0147892
802.427	0.0148837
802.505	0.0149403
802.583	0.0148401
802.662	0.0149078
802.740	0.0149326
802.818	0.0147943
802.896	0.0148335
802.974	0.0149371
803.052	0.0148021
803.130	0.0147915
803.208	0.0149032
803.287	0.0147987
803.365	0.0147603
803.443	0.0148370
803.521	0.0147731
803.599	0.0148820
803.677	0.0148414
803.755	0.0148121
803.833	0.0148324
803.912	0.0148589
803.990	0.0149887
804.068	0.0147624
804.146	0.0147884
804.224	0.0149329
804.302	0.0147731
804.380	0.0148495
804.458	0.0148935
804.537	0.0149429
804.615	0.0147736
804.693	0.0146669
804.771	0.0147992
804.849	0.0150671
804.927	0.0149065
805.005	0.0147327
805.083	0.0148979
805.162	0.0148033
805.240	0.0147371
805.318	0.0149178
805.396	0.0148209
805.474	0.0148201
805.552	0.0147733
805.630	0.0148769
805.708	0.0147768
805.787	0.0148199
805.865	0.0147655
805.943	0.0148716
806.021	0.0149902
806.099	0.0148321
806.177	0.0148864
806.255	0.0147479
806.333	0.0148921
806.412	0.0148573
806.490	0.0148388
806.568	0.0147935
806.646	0.0147532
806.724	0.0147636
806.802	0.0148630
806.880	0.0147050
806.958	0.0147063
807.037	0.0147549
807.115	0.0148337
807.193	0.0148555
807.271	0.0148018
807.349	0.0148395
807.427	0.0148372
807.505	0.0149612
807.583	0.0148410
807.662	0.0149106
807.740	0.0148354
807.818	0.0149242
807.896	0.0147070
807.974	0.0148805
808.052	0.0147731
808.130	0.0149049
808.208	0.0149560
808.287	0.0149239
808.365	0.0148615
808.443	0.0148531
808.521	0.0150291
808.599	0.0148857
808.677	0.0147833
808.755	0.0150319
808.833	0.0149257
808.912	0.0147827
808.990	0.0148914
809.068	0.0148962
809.146	0.0149748
809.224	0.0149031
809.302	0.0149866
809.380	0.0149960
809.458	0.0148411
809.537	0.0148709
809.615	0.0151411
809.693	0.0150472
809.771	0.0147862
809.849	0.0149628
809.927	0.0149355
810.005	0.0149449
810.083	0.0149059
810.162	0.0149230
810.240	0.0149789
810.318	0.0149873
810.396	0.0148080
810.474	0.0149374
810.552	0.0148836
810.630	0.0147273
810.708	0.0150155
810.787	0.0148102
810.865	0.0147948
810.943	0.0148611
811.021	0.0149864
811.099	0.0148814
811.177	0.0148504
811.255	0.0148468
811.333	0.0148491
811.412	0.0148260
811.490	0.0149236
811.568	0.0148667
811.646	0.0148882
811.724	0.0149775
811.802	0.0149533
811.880	0.0148857
811.958	0.0148630
812.037	0.0149145
812.115	0.0149599
812.193	0.0150424
812.271	0.0149721
812.349	0.0149231
812.427	0.0148956
812.505	0.0148870
812.583	0.0150491
812.662	0.0149047
812.740	0.0150019
812.818	0.0147966
812.896	0.0149176
812.974	0.0148408
813.052	0.0149267
813.130	0.0149698
813.208	0.0148867
813.287	0.0148706
813.365	0.0149408
813.443	0.0149670
813.521	0.0148852
813.599	0.0148071
813.677	0.0148985
813.755	0.0147795
813.833	0.0148384
813.912	0.0150320
813.990	0.0149181
814.068	0.0148953
814.146	0.0150027
814.224	0.0149522
814.302	0.0148710
814.380	0.0149326
814.458	0.0150288
814.537	0.0149026
814.615	0.0149046
814.693	0.0149589
814.771	0.0150195
814.849	0.0149570
814.927	0.0150780
815.005	0.0149480
815.083	0.0148298
815.162	0.0150712
815.240	0.0149067
815.318	0.0148528
815.396	0.0148609
815.474	0.0148140
815.552	0.0148691
815.630	0.0149016
815.708	0.0148826
815.787	0.0148146
815.865	0.0146726
815.943	0.0147496
816.021	0.0147675
816.099	0.0147611
816.177	0.0148641
816.255	0.0147512
816.333	0.0148047
816.412	0.0148069
816.490	0.0147649
816.568	0.0148829
816.646	0.0148848
816.724	0.0148653
816.802	0.0149509
816.880	0.0149540
816.958	0.0149718
817.037	0.0149121
817.115	0.0148499
817.193	0.0149410
817.271	0.0150553
817.349	0.0148599
817.427	0.0148188
817.505	0.0148494
817.583	0.0148876
817.662	0.0148400
817.740	0.0148813
817.818	0.0148306
817.896	0.0149261
817.974	0.0149138
818.052	0.0148476
818.130	0.0148283
818.208	0.0148804
818.287	0.0147467
818.365	0.0148537
818.443	0.0147221
818.521	0.0147445
818.599	0.0149053
818.677	0.0148296
818.755	0.0146852
818.833	0.0147959
818.912	0.0148283
818.990	0.0147607
819.068	0.0148473
819.146	0.0149706
819.224	0.0147758
819.302	0.0148728
819.380	0.0149039
819.458	0.0147750
819.537	0.0147649
819.615	0.0148788
819.693	0.0148696
819.771	0.0149230
819.849	0.0149431
819.927	0.0148609
820.005	0.0150246
820.083	0.0149939
820.162	0.0148525
820.240	0.0148389
820.318	0.0149096
820.396	0.0148260
820.474	0.0149284
820.552	0.0147803
820.630	0.0147518
820.708	0.0148737
820.787	0.0148174
820.865	0.0148428
820.943	0.0146475
821.021	0.0147701
821.099	0.0147550
821.177	0.0148178
821.255	0.0148377
821.333	0.0149187
821.412	0.0148663
821.490	0.0147589
821.568	0.0149582
821.646	0.0149156
821.724	0.0149290
821.802	0.0148006
821.880	0.0148401
821.958	0.0149603
822.037	0.0150021
822.115	0.0148919
822.193	0.0149306
822.271	0.0149174
822.349	0.0148468
822.427	0.0151038
822.505	0.0149664
822.583	0.0149066
822.662	0.0148318
822.740	0.0148512
822.818	0.0148632
822.896	0.0149374
822.974	0.0148035
823.052	0.0146936
823.130	0.0148716
823.208	0.0149464
823.287	0.0148633
823.365	0.0148516
823.443	0.0148379
823.521	0.0149054
823.599	0.0149213
823.677	0.0148519
823.755	0.0149922
823.833	0.0149473
823.912	0.0149069
823.990	0.0148315
824.068	0.0148976
824.146	0.0150310
824.224	0.0148873
824.302	0.0149060
824.380	0.0150076
824.458	0.0148047
824.537	0.0148350
824.615	0.0149017
824.693	0.0148775
824.771	0.0149258
824.849	0.0149261
824.927	0.0148988
825.005	0.0150469
825.083	0.0148557
825.162	0.0148083
825.240	0.0148924
825.318	0.0149936
825.396	0.0149895
825.474	0.0148656
825.552	0.0148899
825.630	0.0149429
825.708	0.0149014
825.787	0.0149954
825.865	0.0149190
825.943	0.0148527
826.021	0.0148559
826.099	0.0149295
826.177	0.0148235
826.255	0.0148198
826.333	0.0146946
826.412	0.0146938
826.490	0.0146603
826.568	0.0147886
826.646	0.0148508
826.724	0.0148956
826.802	0.0146581
826.880	0.0147131
826.958	0.0148428
827.037	0.0148003
827.115	0.0149026
827.193	0.0149224
827.271	0.0148987
827.349	0.0149811
827.427	0.0149275
827.505	0.0149017
827.583	0.0148365
827.662	0.0149172
827.740	0.0148678
827.818	0.0149792
827.896	0.0148997
827.974	0.0147611
828.052	0.0149772
828.130	0.0148305
828.208	0.0149390
828.287	0.0148581
828.365	0.0148249
828.443	0.0148117
828.521	0.0146690
828.599	0.0148087
828.677	0.0148655
828.755	0.0148898
828.833	0.0148949
828.912	0.0148390
828.990	0.0148131
829.068	0.0149014
829.146	0.0148841
829.224	0.0148587
829.302	0.0147898
829.380	0.0148707
829.458	0.0148037
829.537	0.0149988
829.615	0.0148791
829.693	0.0148804
829.771	0.0148441
829.849	0.0148602
829.927	0.0149232
830.005	0.0149128
830.083	0.0149052
830.162	0.0148145
830.240	0.0148537
830.318	0.0148650
830.396	0.0147150
830.474	0.0148602
830.552	0.0148884
830.630	0.0147766
830.708	0.0148850
830.787	0.0148902
830.865	0.0149054
830.943	0.0147967
831.021	0.0149276
831.099	0.0148257
831.177	0.0148989
831.255	0.0149230
831.333	0.0149092
831.412	0.0148955
831.490	0.0148936
831.568	0.0147922
831.646	0.0148969
831.724	0.0148144
831.802	0.0148450
831.880	0.0148347
831.958	0.0149067
832.037	0.0149535
832.115	0.0147107
832.193	0.0148261
832.271	0.0149308
832.349	0.0148377
832.427	0.0148218
832.505	0.0147500
832.583	0.0147660
832.662	0.0148701
832.740	0.0148380
832.818	0.0149448
832.896	0.0148632
832.974	0.0149153
833.052	0.0147742
833.130	0.0147145
833.208	0.0148886
833.287	0.0149399
833.365	0.0147827
833.443	0.0148185
833.521	0.0148908
833.599	0.0147485
833.677	0.0148054
833.755	0.0149995
833.833	0.0148461
833.912	0.0148797
833.990	0.0147910
834.068	0.0148812
834.146	0.0148304
834.224	0.0147984
834.302	0.0148101
834.380	0.0148325
834.458	0.0148841
834.537	0.0147366
834.615	0.0147073
834.693	0.0147227
834.771	0.0147623
834.849	0.0149684
834.927	0.0147655
835.005	0.0148725
835.083	0.0149359
835.162	0.0148177
835.240	0.0148479
835.318	0.0149498
835.396	0.0147642
835.474	0.0148666
835.552	0.0147366
835.630	0.0147758
835.708	0.0149232
835.787	0.0148102
835.865	0.0149078
835.943	0.0147810
836.021	0.0146606
836.099	0.0148667
836.177	0.0150179
836.255	0.0148210
836.333	0.0148360
836.412	0.0149504
836.490	0.0148952
836.568	0.0148844
836.646	0.0148843
836.724	0.0149099
836.802	0.0149234
836.880	0.0149126
836.958	0.0149744
837.037	0.0148886
837.115	0.0148558
837.193	0.0150114
837.271	0.0148914
837.349	0.0148699
837.427	0.0148164
837.505	0.0148056
837.583	0.0149218
837.662	0.0149346
837.740	0.0147807
837.818	0.0148630
837.896	0.0149391
837.974	0.0150151
838.052	0.0147668
838.130	0.0148860
838.208	0.0147847
838.287	0.0148978
838.365	0.0149065
838.443	0.0148302
838.521	0.0148483
838.599	0.0148819
838.677	0.0148456
838.755	0.0149561
838.833	0.0148916
838.912	0.0149294
838.990	0.0147836
839.068	0.0148339
839.146	0.0147723
839.224	0.0148950
839.302	0.0148901
839.380	0.0148677
839.458	0.0148125
839.537	0.0147448
839.615	0.0147855
839.693	0.0148178
839.771	0.0147874
839.849	0.0148570
839.927	0.0149435
840.005	0.0149309
840.083	0.0148233
840.162	0.0148553
840.240	0.0149370
840.318	0.0150322
840.396	0.0149577
840.474	0.0148956
840.552	0.0148889
840.630	0.0149316
840.708	0.0148979
840.787	0.0148801
840.865	0.0148757
840.943	0.0149072
841.021	0.0148312
841.099	0.0148481
841.177	0.0147894
841.255	0.0148222
841.333	0.0148960
841.412	0.0148508
841.490	0.0148061
841.568	0.0149529
841.646	0.0149087
841.724	0.0146578
841.802	0.0148863
841.880	0.0148015
841.958	0.0146470
842.037	0.0148909
842.115	0.0147770
842.193	0.0148708
842.271	0.0148303
842.349	0.0148281
842.427	0.0148703
842.505	0.0148112
842.583	0.0149432
842.662	0.0148508
842.740	0.0148608
842.818	0.0147999
842.896	0.0147990
842.974	0.0149034
843.052	0.0149860
843.130	0.0148613
843.208	0.0148788
843.287	0.0147548
843.365	0.0149920
843.443	0.0149429
843.521	0.0149844
843.599	0.0148261
843.677	0.0149468
843.755	0.0147830
843.833	0.0148399
843.912	0.0149245
843.990	0.0148435
844.068	0.0149451
844.146	0.0149139
844.224	0.0149500
844.302	0.0148662
844.380	0.0146912
844.458	0.0146892
844.537	0.0148800
844.615	0.0148077
844.693	0.0147092
844.771	0.0147794
844.849	0.0147118
844.927	0.0147607
845.005	0.0148276
845.083	0.0148265
845.162	0.0148711
845.240	0.0147313
845.318	0.0148438
845.396	0.0147864
845.474	0.0148793
845.552	0.0148132
845.630	0.0148599
845.708	0.0149086
845.787	0.0148254
845.865	0.0148284
845.943	0.0149467
846.021	0.0148097
846.099	0.0148056
846.177	0.0149294
846.255	0.0148276
846.333	0.0148016
846.412	0.0147748
846.490	0.0148563
846.568	0.0147812
846.646	0.0148321
846.724	0.0148169
846.802	0.0147543
846.880	0.0147986
846.958	0.0148528
847.037	0.0147360
847.115	0.0147690
847.193	0.0148784
847.271	0.0147475
847.349	0.0148419
847.427	0.0148895
847.505	0.0148019
847.583	0.0147243
847.662	0.0148994
847.740	0.0148182
847.818	0.0148892
847.896	0.0148003
847.974	0.0148546
848.052	0.0150042
848.130	0.0148219
848.208	0.0148619
848.287	0.0149452
848.365	0.0148444
848.443	0.0148714
848.521	0.0147391
848.599	0.0148755
848.677	0.0149557
848.755	0.0148946
848.833	0.0149217
848.912	0.0147899
848.990	0.0148281
849.068	0.0148717
849.146	0.0148667
849.224	0.0149501
849.302	0.0148230
849.380	0.0147841
849.458	0.0148557
849.537	0.0148489
849.615	0.0148045
849.693	0.0149132
849.771	0.0150809
849.849	0.0149231
849.927	0.0148437
850.005	0.0148663
850.083	0.0149748
850.162	0.0149576
850.240	0.0149373
850.318	0.0148959
850.396	0.0150533
850.474	0.0150598
850.552	0.0149255
850.630	0.0148790
850.708	0.0150517
850.787	0.0149045
850.865	0.0150132
850.943	0.0150138
851.021	0.0149378
851.099	0.0148893
851.177	0.0150065
851.255	0.0149062
851.333	0.0148138
851.412	0.0148420
851.490	0.0149100
851.568	0.0148893
851.646	0.0147946
851.724	0.0147455
851.802	0.0149438
851.880	0.0146757
851.958	0.0148197
852.037	0.0149185
852.115	0.0146783
852.193	0.0149256
852.271	0.0148494
852.349	0.0146778
852.427	0.0148374
852.505	0.0149223
852.583	0.0149310
852.662	0.0149504
852.740	0.0148742
852.818	0.0147678
852.896	0.0147938
852.974	0.0148446
853.052	0.0148810
853.130	0.0149236
853.208	0.0148729
853.287	0.0148370
853.365	0.0148878
853.443	0.0150667
853.521	0.0149612
853.599	0.0147586
853.677	0.0146320
853.755	0.0150314
853.833	0.0150210
853.912	0.0149377
853.990	0.0149510
854.068	0.0149966
854.146	0.0148362
854.224	0.0147108
854.302	0.0147596
854.380	0.0147588
854.458	0.0147629
854.537	0.0147652
854.615	0.0146791
854.693	0.0148077
854.771	0.0146120
854.849	0.0148294
854.927	0.0148163
855.005	0.0148312
855.083	0.0147087
855.162	0.0147066
855.240	0.0148356
855.318	0.0148921
855.396	0.0147850
855.474	0.0147070
855.552	0.0148009
855.630	0.0148293
855.708	0.0146959
855.787	0.0148013
855.865	0.0146958
855.943	0.0146918
856.021	0.0145959
856.099	0.0146797
856.177	0.0148515
856.255	0.0147137
856.333	0.0148975
856.412	0.0149342
856.490	0.0148719
856.568	0.0148840
856.646	0.0149519
856.724	0.0147813
856.802	0.0147861
856.880	0.0148241
856.958	0.0147820
857.037	0.0147336
857.115	0.0148725
857.193	0.0147096
857.271	0.0148090
857.349	0.0148202
857.427	0.0147723
857.505	0.0149501
857.583	0.0146713
857.662	0.0147386
857.740	0.0148552
857.818	0.0148710
857.896	0.0147853
857.974	0.0147424
858.052	0.0146950
858.130	0.0148966
858.208	0.0148014
858.287	0.0148134
858.365	0.0147853
858.443	0.0147974
858.521	0.0148699
858.599	0.0147995
858.677	0.0147469
858.755	0.0148815
858.833	0.0149467
858.912	0.0148174
858.990	0.0148555
859.068	0.0148429
859.146	0.0147879
859.224	0.0147442
859.302	0.0148417
859.380	0.0148233
859.458	0.0147738
859.537	0.0149276
859.615	0.0148111
859.693	0.0147975
859.771	0.0149000
859.849	0.0147694
859.927	0.0148360
860.005	0.0149295
860.083	0.0148055
860.162	0.0147546
860.240	0.0148235
860.318	0.0148804
860.396	0.0147892
860.474	0.0147734
860.552	0.0148006
860.630	0.0149421
860.708	0.0149316
860.787	0.0146710
860.865	0.0148032
860.943	0.0148918
861.021	0.0147828
861.099	0.0148521
861.177	0.0147792
861.255	0.0148534
861.333	0.0147788
861.412	0.0147276
861.490	0.0148778
861.568	0.0150034
861.646	0.0149246
861.724	0.0149316
861.802	0.0147792
861.880	0.0147298
861.958	0.0148338
862.037	0.0148483
862.115	0.0147843
862.193	0.0147264
862.271	0.0148989
862.349	0.0149577
862.427	0.0148549
862.505	0.0148859
862.583	0.0148463
862.662	0.0148991
862.740	0.0149448
862.818	0.0148661
862.896	0.0148247
862.974	0.0148827
863.052	0.0149413
863.130	0.0148982
863.208	0.0148924
863.287	0.0148114
863.365	0.0149148
863.443	0.0148349
863.521	0.0146966
863.599	0.0147131
863.677	0.0148323
863.755	0.0148263
863.833	0.0148040
863.912	0.0147391
863.990	0.0147945
864.068	0.0148438
864.146	0.0149035
864.224	0.0148441
864.302	0.0148882
864.380	0.0147168
864.458	0.0149504
864.537	0.0149055
864.615	0.0148961
864.693	0.0148139
864.771	0.0148387
864.849	0.0148716
864.927	0.0148295
865.005	0.0148819
865.083	0.0148490
865.162	0.0147404
865.240	0.0147595
865.318	0.0148617
865.396	0.0149091
865.474	0.0147527
865.552	0.0147845
865.630	0.0148111
865.708	0.0148594
865.787	0.0147596
865.865	0.0147092
865.943	0.0147688
866.021	0.0147345
866.099	0.0148964
866.177	0.0147697
866.255	0.0148407
866.333	0.0148980
866.412	0.0149529
866.490	0.0149170
866.568	0.0149197
866.646	0.0147825
866.724	0.0147342
866.802	0.0148026
866.880	0.0148429
866.958	0.0147612
867.037	0.0149277
867.115	0.0148893
867.193	0.0147717
867.271	0.0148539
867.349	0.0148127
867.427	0.0148191
867.505	0.0148037
867.583	0.0148186
867.662	0.0149101
867.740	0.0148924
867.818	0.0148548
867.896	0.0149518
867.974	0.0148652
868.052	0.0147395
868.130	0.0148568
868.208	0.0148569
868.287	0.0147388
868.365	0.0148466
868.443	0.0149385
868.521	0.0148513
868.599	0.0148680
868.677	0.0147327
868.755	0.0148383
868.833	0.0149676
868.912	0.0148981
868.990	0.0148975
869.068	0.0148131
869.146	0.0149358
869.224	0.0148092
869.302	0.0148884
869.380	0.0150069
869.458	0.0149242
869.537	0.0149294
869.615	0.0148946
869.693	0.0148698
869.771	0.0148066
869.849	0.0150431
869.927	0.0148558
870.005	0.0148753
870.083	0.0149656
870.162	0.0149175
870.240	0.0147569
870.318	0.0148127
870.396	0.0148331
870.474	0.0150367
870.552	0.0149556
870.630	0.0148516
870.708	0.0147236
870.787	0.0148246
870.865	0.0149229
870.943	0.0148669
871.021	0.0148443
871.099	0.0148042
871.177	0.0147588
871.255	0.0148815
871.333	0.0148808
871.412	0.0148866
871.490	0.0147480
871.568	0.0148200
871.646	0.0149488
871.724	0.0148743
871.802	0.0149216
871.880	0.0148110
871.958	0.0149077
872.037	0.0149265
872.115	0.0148782
872.193	0.0149000
872.271	0.0148351
872.349	0.0149319
872.427	0.0149004
872.505	0.0148736
872.583	0.0149508
872.662	0.0150522
872.740	0.0149339
872.818	0.0148906
872.896	0.0149503
872.974	0.0148646
873.052	0.0150044
873.130	0.0148479
873.208	0.0148814
873.287	0.0149647
873.365	0.0148709
873.443	0.0148847
873.521	0.0149909
873.599	0.0149829
873.677	0.0149194
873.755	0.0148939
873.833	0.0149160
873.912	0.0149828
873.990	0.0149245
874.068	0.0149807
874.146	0.0149786
874.224	0.0150468
874.302	0.0150489
874.380	0.0150218
874.458	0.0149370
874.537	0.0148978
874.615	0.0148946
874.693	0.0149565
874.771	0.0149130
874.849	0.0149128
874.927	0.0149072
875.005	0.0149577
875.083	0.0148519
875.162	0.0149283
875.240	0.0148125
875.318	0.0147890
875.396	0.0149588
875.474	0.0149749
875.552	0.0147527
875.630	0.0147931
875.708	0.0148645
875.787	0.0146929
875.865	0.0148882
875.943	0.0148792
876.021	0.0147231
876.099	0.0148144
876.177	0.0149196
876.255	0.0148167
876.333	0.0147633
876.412	0.0149172
876.490	0.0148964
876.568	0.0146072
876.646	0.0148751
876.724	0.0148220
876.802	0.0148511
876.880	0.0148277
876.958	0.0147875
877.037	0.0149829
877.115	0.0148299
877.193	0.0148769
877.271	0.0148035
877.349	0.0148509
877.427	0.0148652
877.505	0.0147844
877.583	0.0149798
877.662	0.0147984
877.740	0.0148885
877.818	0.0149833
877.896	0.0147661
877.974	0.0147549
878.052	0.0149055
878.130	0.0149384
878.208	0.0149125
878.287	0.0148995
878.365	0.0148127
878.443	0.0148411
878.521	0.0149522
878.599	0.0149084
878.677	0.0148323
878.755	0.0147921
878.833	0.0149322
878.912	0.0147978
878.990	0.0148610
879.068	0.0148048
879.146	0.0149467
879.224	0.0148141
879.302	0.0149323
879.380	0.0148916
879.458	0.0148042
879.537	0.0149332
879.615	0.0147805
879.693	0.0149016
879.771	0.0148425
879.849	0.0148080
879.927	0.0149708
880.005	0.0146937
880.083	0.0148251
880.162	0.0149236
880.240	0.0149377
880.318	0.0147816
880.396	0.0148942
880.474	0.0148155
880.552	0.0148801
880.630	0.0149446
880.708	0.0148273
880.787	0.0147405
880.865	0.0148205
880.943	0.0150223
881.021	0.0150435
881.099	0.0149129
881.177	0.0149214
881.255	0.0148143
881.333	0.0148040
881.412	0.0147122
881.490	0.0148768
881.568	0.0147457
881.646	0.0148322
881.724	0.0148655
881.802	0.0148867
881.880	0.0148919
881.958	0.0148040
882.037	0.0149087
882.115	0.0148378
882.193	0.0149292
882.271	0.0147236
882.349	0.0148800
882.427	0.0148894
882.505	0.0147038
882.583	0.0148944
882.662	0.0148136
882.740	0.0148372
882.818	0.0148513
882.896	0.0148423
882.974	0.0148778
883.052	0.0148822
883.130	0.0149263
883.208	0.0148436
883.287	0.0149747
883.365	0.0149100
883.443	0.0148499
883.521	0.0148732
883.599	0.0147657
883.677	0.0148200
883.755	0.0148904
883.833	0.0147844
883.912	0.0149220
883.990	0.0149297
884.068	0.0148415
884.146	0.0149294
884.224	0.0148682
884.302	0.0148398
884.380	0.0149036
884.458	0.0149444
884.537	0.0148547
884.615	0.0147770
884.693	0.0147888
884.771	0.0148558
884.849	0.0148408
884.927	0.0148278
885.005	0.0148583
885.083	0.0149117
885.162	0.0149038
885.240	0.0146075
885.318	0.0146169
885.396	0.0147504
885.474	0.0147650
885.552	0.0147021
885.630	0.0146998
885.708	0.0148396
885.787	0.0147398
885.865	0.0147662
885.943	0.0147643
886.021	0.0148268
886.099	0.0149702
886.177	0.0148539
886.255	0.0147581
886.333	0.0149432
886.412	0.0149552
886.490	0.0147613
886.568	0.0148415
886.646	0.0149592
886.724	0.0149522
886.802	0.0150227
886.880	0.0148785
886.958	0.0149318
887.037	0.0149339
887.115	0.0149800
887.193	0.0149669
887.271	0.0148719
887.349	0.0148712
887.427	0.0148296
887.505	0.0148631
887.583	0.0148959
887.662	0.0150011
887.740	0.0148874
887.818	0.0149017
887.896	0.0147878
887.974	0.0148836
888.052	0.0148787
888.130	0.0148750
888.208	0.0149300
888.287	0.0148348
888.365	0.0148765
888.443	0.0149389
888.521	0.0148515
888.599	0.0148264
888.677	0.0148637
888.755	0.0148486
888.833	0.0150525
888.912	0.0149460
888.990	0.0148629
889.068	0.0148491
889.146	0.0149719
889.224	0.0148708
889.302	0.0151064
889.380	0.0149928
889.458	0.0148732
889.537	0.0150526
889.615	0.0149258
889.693	0.0150806
889.771	0.0150583
889.849	0.0149676
889.927	0.0149553
890.005	0.0149296
890.083	0.0149539
890.162	0.0151324
890.240	0.0150316
890.318	0.0149392
890.396	0.0149776
890.474	0.0149058
890.552	0.0150261
890.630	0.0149499
890.708	0.0149747
890.787	0.0149892
890.865	0.0149209
890.943	0.0149323
891.021	0.0150275
891.099	0.0149215
891.177	0.0148109
891.255	0.0149252
891.333	0.0149640
891.412	0.0149461
891.490	0.0149468
891.568	0.0150253
891.646	0.0149231
891.724	0.0149091
891.802	0.0148023
891.880	0.0149256
891.958	0.0148917
892.037	0.0149239
892.115	0.0147731
892.193	0.0148355
892.271	0.0147740
892.349	0.0147790
892.427	0.0148961
892.505	0.0147486
892.583	0.0149941
892.662	0.0148575
892.740	0.0147887
892.818	0.0150169
892.896	0.0148541
892.974	0.0147659
893.052	0.0149093
893.130	0.0150384
893.208	0.0149085
893.287	0.0149120
893.365	0.0149682
893.443	0.0147709
893.521	0.0147831
893.599	0.0150350
893.677	0.0148917
893.755	0.0147841
893.833	0.0147993
893.912	0.0148358
893.990	0.0147604
894.068	0.0147424
894.146	0.0149966
894.224	0.0149712
894.302	0.0149928
894.380	0.0148868
894.458	0.0148906
894.537	0.0148671
894.615	0.0149451
894.693	0.0149594
894.771	0.0148976
894.849	0.0149809
894.927	0.0148586
895.005	0.0148896
895.083	0.0148481
895.162	0.0148639
895.240	0.0148574
895.318	0.0149630
895.396	0.0149150
895.474	0.0148183
895.552	0.0149141
895.630	0.0149246
895.708	0.0149563
895.787	0.0150097
895.865	0.0150532
895.943	0.0147682
896.021	0.0147702
896.099	0.0146751
896.177	0.0149371
896.255	0.0148727
896.333	0.0148730
896.412	0.0148340
896.490	0.0147259
896.568	0.0147923
896.646	0.0147810
896.724	0.0147726
896.802	0.0147459
896.880	0.0147395
896.958	0.0148301
897.037	0.0148115
897.115	0.0150706
897.193	0.0149527
897.271	0.0147915
897.349	0.0149054
897.427	0.0148547
897.505	0.0149928
897.583	0.0149594
897.662	0.0150228
897.740	0.0149141
897.818	0.0150577
897.896	0.0148833
897.974	0.0148750
898.052	0.0149096
898.130	0.0148328
898.208	0.0149294
898.287	0.0148335
898.365	0.0148258
898.443	0.0149480
898.521	0.0147812
898.599	0.0148337
898.677	0.0147889
898.755	0.0148989
898.833	0.0149356
898.912	0.0149186
898.990	0.0150020
899.068	0.0149751
899.146	0.0148155
899.224	0.0148863
899.302	0.0148624
899.380	0.0147919
899.458	0.0148672
899.537	0.0148254
899.615	0.0150086
899.693	0.0148465
899.771	0.0148644
899.849	0.0148270
899.927	0.0148624
900.005	0.0148806
900.083	0.0149078
900.162	0.0148463
900.240	0.0149060
900.318	0.0149361
900.396	0.0148248
900.474	0.0149242
900.552	0.0148243
900.630	0.0147668
900.708	0.0147923
900.787	0.0148331
900.865	0.0148492
900.943	0.0149091
901.021	0.0147938
901.099	0.0147629
901.177	0.0148985
901.255	0.0148352
901.333	0.0145948
901.412	0.0148288
901.490	0.0148080
901.568	0.0148661
901.646	0.0148450
901.724	0.0147055
901.802	0.0148807
901.880	0.0150461
901.958	0.0147814
902.037	0.0148604
902.115	0.0148672
902.193	0.0149315
902.271	0.0149187
902.349	0.0149301
902.427	0.0148672
902.505	0.0148258
902.583	0.0149269
902.662	0.0149010
902.740	0.0148937
902.818	0.0149116
902.896	0.0149086
902.974	0.0149974
903.052	0.0147897
903.130	0.0147935
903.208	0.0149500
903.287	0.0148253
903.365	0.0148756
903.443	0.0148402
903.521	0.0149005
903.599	0.0148923
903.677	0.0149707
903.755	0.0148620
903.833	0.0148434
903.912	0.0149332
903.990	0.0149027
904.068	0.0148762
904.146	0.0148596
904.224	0.0148153
904.302	0.0146839
904.380	0.0148533
904.458	0.0150644
904.537	0.0148930
904.615	0.0148853
904.693	0.0149323
904.771	0.0149153
904.849	0.0149303
904.927	0.0149361
905.005	0.0149166
905.083	0.0148767
905.162	0.0147629
905.240	0.0148183
905.318	0.0148407
905.396	0.0147957
905.474	0.0147967
905.552	0.0147872
905.630	0.0149136
905.708	0.0148215
905.787	0.0147763
905.865	0.0146343
905.943	0.0147053
906.021	0.0148321
906.099	0.0147984
906.177	0.0147103
906.255	0.0147539
906.333	0.0146926
906.412	0.0149596
906.490	0.0147386
906.568	0.0148229
906.646	0.0149519
906.724	0.0148389
906.802	0.0147717
906.880	0.0148343
906.958	0.0147385
907.037	0.0149324
907.115	0.0147559
907.193	0.0148953
907.271	0.0148477
907.349	0.0148773
907.427	0.0149450
907.505	0.0149491
907.583	0.0150120
907.662	0.0150790
907.740	0.0147912
907.818	0.0151192
907.896	0.0149389
907.974	0.0148806
908.052	0.0149845
908.130	0.0149126
908.208	0.0149799
908.287	0.0148759
908.365	0.0148465
908.443	0.0149997
908.521	0.0147446
908.599	0.0148940
908.677	0.0149248
908.755	0.0148034
908.833	0.0146508
908.912	0.0149240
908.990	0.0148058
909.068	0.0148630
909.146	0.0148003
909.224	0.0148835
909.302	0.0147646
909.380	0.0148067
909.458	0.0149254
909.537	0.0150280
909.615	0.0148946
909.693	0.0148463
909.771	0.0148723
909.849	0.0148186
909.927	0.0149066
910.005	0.0148321
910.083	0.0148059
910.162	0.0149519
910.240	0.0149164
910.318	0.0148662
910.396	0.0148199
910.474	0.0149190
910.552	0.0149584
910.630	0.0149024
910.708	0.0149220
910.787	0.0150367
910.865	0.0148990
910.943	0.0148276
911.021	0.0148584
911.099	0.0149921
911.177	0.0149316
911.255	0.0149647
911.333	0.0150362
911.412	0.0149686
911.490	0.0149110
911.568	0.0148209
911.646	0.0148099
911.724	0.0147456
911.802	0.0147043
911.880	0.0148655
911.958	0.0148346
912.037	0.0147804
912.115	0.0149040
912.193	0.0148413
912.271	0.0148608
912.349	0.0147620
912.427	0.0149474
912.505	0.0149818
912.583	0.0148862
912.662	0.0148715
912.740	0.0148328
912.818	0.0147604
912.896	0.0148109
912.974	0.0150565
913.052	0.0148750
913.130	0.0147987
913.208	0.0149073
913.287	0.0147770
913.365	0.0148781
913.443	0.0148177
913.521	0.0148454
913.599	0.0148139
913.677	0.0149512
913.755	0.0147889
913.833	0.0147958
913.912	0.0149768
913.990	0.0147266
914.068	0.0148199
914.146	0.0148138
914.224	0.0147457
914.302	0.0147892
914.380	0.0147626
914.458	0.0146468
914.537	0.0148305
914.615	0.0147986
914.693	0.0148649
914.771	0.0148235
914.849	0.0147997
914.927	0.0148503
915.005	0.0148444
915.083	0.0147877
915.162	0.0149458
915.240	0.0149232
915.318	0.0148376
915.396	0.0147997
915.474	0.0149755
915.552	0.0149777
915.630	0.0149509
915.708	0.0148818
915.787	0.0149717
915.865	0.0149235
915.943	0.0149310
916.021	0.0148987
916.099	0.0150699
916.177	0.0149158
916.255	0.0148590
916.333	0.0148168
916.412	0.0148183
916.490	0.0148480
916.568	0.0148190
916.646	0.0148405
916.724	0.0147888
916.802	0.0148459
916.880	0.0148458
916.958	0.0147814
917.037	0.0147758
917.115	0.0148668
917.193	0.0147755
917.271	0.0147854
917.349	0.0148366
917.427	0.0147632
917.505	0.0146482
917.583	0.0147914
917.662	0.0148729
917.740	0.0149148
917.818	0.0148981
917.896	0.0147919
917.974	0.0148686
918.052	0.0148671
918.130	0.0148292
918.208	0.0148373
918.287	0.0148314
918.365	0.0148508
918.443	0.0148597
918.521	0.0149586
918.599	0.0149737
918.677	0.0148640
918.755	0.0147543
918.833	0.0148114
918.912	0.0148320
918.990	0.0148176
919.068	0.0148743
919.146	0.0147657
919.224	0.0147632
919.302	0.0147562
919.380	0.0148592
919.458	0.0148841
919.537	0.0148886
919.615	0.0149641
919.693	0.0149101
919.771	0.0147794
919.849	0.0147429
919.927	0.0148456
920.005	0.0149789
920.083	0.0149587
920.162	0.0148181
920.240	0.0149052
920.318	0.0149485
920.396	0.0149266
920.474	0.0149486
920.552	0.0148519
920.630	0.0149348
920.708	0.0148625
920.787	0.0149391
920.865	0.0147621
920.943	0.0148141
921.021	0.0147135
921.099	0.0148932
921.177	0.0149960
921.255	0.0148862
921.333	0.0148437
921.412	0.0148730
921.490	0.0148076
921.568	0.0146965
921.646	0.0148096
921.724	0.0148703
921.802	0.0147248
921.880	0.0148730
921.958	0.0149284
922.037	0.0148370
922.115	0.0147177
922.193	0.0147421
922.271	0.0148139
922.349	0.0147196
922.427	0.0149268
922.505	0.0147340
922.583	0.0148303
922.662	0.0148098
922.740	0.0146937
922.818	0.0148350
922.896	0.0148798
922.974	0.0147661
923.052	0.0147613
923.130	0.0149290
923.208	0.0147593
923.287	0.0148281
923.365	0.0148306
923.443	0.0148407
923.521	0.0148167
923.599	0.0148111
923.677	0.0149252
923.755	0.0148620
923.833	0.0148810
923.912	0.0148401
923.990	0.0148801
924.068	0.0148030
924.146	0.0149127
924.224	0.0149152
924.302	0.0147764
924.380	0.0148040
924.458	0.0149002
924.537	0.0148894
924.615	0.0148987
924.693	0.0148692
924.771	0.0147544
924.849	0.0148842
924.927	0.0147687
925.005	0.0147144
925.083	0.0148582
925.162	0.0148402
925.240	0.0148627
925.318	0.0148587
925.396	0.0148463
925.474	0.0150062
925.552	0.0148898
925.630	0.0148443
925.708	0.0149278
925.787	0.0149897
925.865	0.0147915
925.943	0.0149712
926.021	0.0148647
926.099	0.0150150
926.177	0.0149658
926.255	0.0149375
926.333	0.0148894
926.412	0.0148561
926.490	0.0148016
926.568	0.0147800
926.646	0.0148758
926.724	0.0148417
926.802	0.0149136
926.880	0.0149447
926.958	0.0148402
927.037	0.0148247
927.115	0.0148599
927.193	0.0148379
927.271	0.0148594
927.349	0.0149492
927.427	0.0150003
927.505	0.0148922
927.583	0.0148795
927.662	0.0149315
927.740	0.0147229
927.818	0.0148180
927.896	0.0148554
927.974	0.0147983
928.052	0.0149093
928.130	0.0147739
928.208	0.0148286
928.287	0.0149084
928.365	0.0148267
928.443	0.0147766
928.521	0.0147463
928.599	0.0147308
928.677	0.0148196
928.755	0.0147926
928.833	0.0148866
928.912	0.0147929
928.990	0.0148219
929.068	0.0147350
929.146	0.0148064
929.224	0.0148423
929.302	0.0148495
929.380	0.0148189
929.458	0.0149538
929.537	0.0148990
929.615	0.0148888
929.693	0.0149055
929.771	0.0147792
929.849	0.0149436
929.927	0.0147990
930.005	0.0147506
930.083	0.0148051
930.162	0.0149106
930.240	0.0148749
930.318	0.0148561
930.396	0.0147160
930.474	0.0148467
930.552	0.0148721
930.630	0.0148838
930.708	0.0148750
930.787	0.0148840
930.865	0.0149457
930.943	0.0149213
931.021	0.0148770
931.099	0.0149086
931.177	0.0149815
931.255	0.0148087
931.333	0.0149255
931.412	0.0148461
931.490	0.0149391
931.568	0.0148526
931.646	0.0147296
931.724	0.0147707
931.802	0.0149414
931.880	0.0148607
931.958	0.0147701
932.037	0.0148296
932.115	0.0147554
932.193	0.0147060
932.271	0.0147435
932.349	0.0147984
932.427	0.0147599
932.505	0.0147726
932.583	0.0147031
932.662	0.0148624
932.740	0.0147178
932.818	0.0147188
932.896	0.0147542
932.974	0.0148260
933.052	0.0148615
933.130	0.0148961
933.208	0.0149167
933.287	0.0148749
933.365	0.0148957
933.443	0.0148567
933.521	0.0150107
933.599	0.0150146
933.677	0.0149957
933.755	0.0148518
933.833	0.0147607
933.912	0.0148529
933.990	0.0148063
934.068	0.0147948
934.146	0.0148334
934.224	0.0148999
934.302	0.0149210
934.380	0.0149261
934.458	0.0147923
934.537	0.0148632
934.615	0.0148418
934.693	0.0148395
934.771	0.0148502
934.849	0.0148459
934.927	0.0148156
935.005	0.0149502
935.083	0.0147931
935.162	0.0147842
935.240	0.0148918
935.318	0.0149023
935.396	0.0148405
935.474	0.0148407
935.552	0.0147338
935.630	0.0147948
935.708	0.0149117
935.787	0.0147411
935.865	0.0148129
935.943	0.0149296
936.021	0.0149171
936.099	0.0149030
936.177	0.0148686
936.255	0.0149435
936.333	0.0148979
936.412	0.0148527
936.490	0.0149058
936.568	0.0149084
936.646	0.0149251
936.724	0.0149189
936.802	0.0150153
936.880	0.0149892
936.958	0.0149925
937.037	0.0149439
937.115	0.0149354
937.193	0.0149384
937.271	0.0148786
937.349	0.0150407
937.427	0.0149333
937.505	0.0148215
937.583	0.0148235
937.662	0.0148099
937.740	0.0146731
937.818	0.0147520
937.896	0.0148637
937.974	0.0147608
938.052	0.0147616
938.130	0.0148336
938.208	0.0146999
938.287	0.0147888
938.365	0.0149017
938.443	0.0149162
938.521	0.0149641
938.599	0.0149106
938.677	0.0148357
938.755	0.0149002
938.833	0.0149265
938.912	0.0149307
938.990	0.0149327
939.068	0.0149212
939.146	0.0149517
939.224	0.0149656
939.302	0.0150381
939.380	0.0149445
939.458	0.0148612
939.537	0.0148767
939.615	0.0148950
939.693	0.0148495
939.771	0.0148394
939.849	0.0148913
939.927	0.0148402
940.005	0.0149960
940.083	0.0148717
940.162	0.0147848
940.240	0.0149592
940.318	0.0147673
940.396	0.0149268
940.474	0.0149696
940.552	0.0147559
940.630	0.0147983
940.708	0.0149699
940.787	0.0147969
940.865	0.0148190
940.943	0.0147944
941.021	0.0148879
941.099	0.0148599
941.177	0.0150004
941.255	0.0149028
941.333	0.0147612
941.412	0.0148938
941.490	0.0147074
941.568	0.0147984
941.646	0.0147486
941.724	0.0147795
941.802	0.0148294
941.880	0.0147083
941.958	0.0146667
942.037	0.0148075
942.115	0.0149331
942.193	0.0149026
942.271	0.0149334
942.349	0.0147092
942.427	0.0148658
942.505	0.0148524
942.583	0.0150069
942.662	0.0149509
942.740	0.0149020
942.818	0.0149447
942.896	0.0149438
942.974	0.0149110
943.052	0.0149130
943.130	0.0149748
943.208	0.0148749
943.287	0.0148203
943.365	0.0148287
943.443	0.0149188
943.521	0.0147190
943.599	0.0146045
943.677	0.0147101
943.755	0.0147637
943.833	0.0147456
943.912	0.0148013
943.990	0.0147462
944.068	0.0147299
944.146	0.0148383
944.224	0.0147807
944.302	0.0149258
944.380	0.0147640
944.458	0.0147468
944.537	0.0149387
944.615	0.0148019
944.693	0.0149045
944.771	0.0148430
944.849	0.0147288
944.927	0.0147557
945.005	0.0148025
945.083	0.0148167
945.162	0.0148405
945.240	0.0147656
945.318	0.0148343
945.396	0.0149233
945.474	0.0149174
945.552	0.0148371
945.630	0.0147588
945.708	0.0148860
945.787	0.0148727
945.865	0.0148035
945.943	0.0148742
946.021	0.0148337
946.099	0.0147913
946.177	0.0147633
946.255	0.0149359
946.333	0.0148371
946.412	0.0147670
946.490	0.0149368
946.568	0.0146651
946.646	0.0147021
946.724	0.0148037
946.802	0.0149116
946.880	0.0148322
946.958	0.0150547
947.037	0.0147993
947.115	0.0148319
947.193	0.0147948
947.271	0.0147044
947.349	0.0149626
947.427	0.0147079
947.505	0.0147437
947.583	0.0148450
947.662	0.0146806
947.740	0.0146517
947.818	0.0148148
947.896	0.0148668
947.974	0.0146739
948.052	0.0146265
948.130	0.0147213
948.208	0.0148099
948.287	0.0147324
948.365	0.0147639
948.443	0.0148790
948.521	0.0148331
948.599	0.0147975
948.677	0.0149210
948.755	0.0148984
948.833	0.0149654
948.912	0.0149064
948.990	0.0148824
949.068	0.0149289
949.146	0.0148405
949.224	0.0148944
949.302	0.0148581
949.380	0.0147993
949.458	0.0148720
949.537	0.0150148
949.615	0.0150520
949.693	0.0146775
949.771	0.0148431
949.849	0.0147187
949.927	0.0148473
950.005	0.0146552
950.083	0.0147835
950.162	0.0147939
950.240	0.0148029
950.318	0.0147345
950.396	0.0147006
950.474	0.0147958
950.552	0.0148680
950.630	0.0146877
950.708	0.0147112
950.787	0.0147044
950.865	0.0148308
950.943	0.0149154
951.021	0.0147466
951.099	0.0148607
951.177	0.0149312
951.255	0.0149316
951.333	0.0148920
951.412	0.0150372
951.490	0.0149693
951.568	0.0149624
951.646	0.0149352
951.724	0.0149032
951.802	0.0148694
951.880	0.0149195
951.958	0.0148420
952.037	0.0146471
952.115	0.0146872
952.193	0.0147907
952.271	0.0148742
952.349	0.0148648
952.427	0.0147582
952.505	0.0147166
952.583	0.0147723
952.662	0.0149213
952.740	0.0149226
952.818	0.0147675
952.896	0.0147099
952.974	0.0148589
953.052	0.0147782
953.130	0.0148110
953.208	0.0146874
953.287	0.0148683
953.365	0.0148763
953.443	0.0149135
953.521	0.0147446
953.599	0.0149329
953.677	0.0147276
953.755	0.0148266
953.833	0.0149347
953.912	0.0149327
953.990	0.0147773
954.068	0.0147801
954.146	0.0148764
954.224	0.0148233
954.302	0.0149223
954.380	0.0148800
954.458	0.0149928
954.537	0.0149180
954.615	0.0147859
954.693	0.0148074
954.771	0.0148824
954.849	0.0148530
954.927	0.0149490
955.005	0.0148277
955.083	0.0148370
955.162	0.0148082
955.240	0.0150189
955.318	0.0149258
955.396	0.0149712
955.474	0.0147308
955.552	0.0148000
955.630	0.0149693
955.708	0.0149668
955.787	0.0149341
955.865	0.0149271
955.943	0.0150010
956.021	0.0149103
956.099	0.0147694
956.177	0.0148081
956.255	0.0149643
956.333	0.0150362
956.412	0.0148508
956.490	0.0148672
956.568	0.0149640
956.646	0.0148855
956.724	0.0148250
956.802	0.0147259
956.880	0.0147156
956.958	0.0147204
957.037	0.0149863
957.115	0.0148935
957.193	0.0148526
957.271	0.0149364
957.349	0.0147823
957.427	0.0148071
957.505	0.0147910
957.583	0.0147688
957.662	0.0149469
957.740	0.0150359
957.818	0.0149638
957.896	0.0149311
957.974	0.0149061
958.052	0.0148638
958.130	0.0148727
958.208	0.0149429
958.287	0.0148729
958.365	0.0149162
958.443	0.0149233
958.521	0.0149075
958.599	0.0148467
958.677	0.0149240
958.755	0.0149228
958.833	0.0149229
958.912	0.0150032
958.990	0.0148045
959.068	0.0150271
959.146	0.0150230
959.224	0.0149483
959.302	0.0148050
959.380	0.0149864
959.458	0.0152242
959.537	0.0149377
959.615	0.0149419
959.693	0.0149439
959.771	0.0148782
959.849	0.0148561
959.927	0.0148040
960.005	0.0148132
960.083	0.0149884
960.162	0.0149128
960.240	0.0149080
960.318	0.0148910
960.396	0.0149087
960.474	0.0149535
960.552	0.0147915
960.630	0.0149957
960.708	0.0149787
960.787	0.0149880
960.865	0.0149876
960.943	0.0148215
961.021	0.0149337
961.099	0.0150394
961.177	0.0148293
961.255	0.0148972
961.333	0.0149239
961.412	0.0149400
961.490	0.0149639
961.568	0.0148102
961.646	0.0147957
961.724	0.0149667
961.802	0.0147193
961.880	0.0149277
961.958	0.0148257
962.037	0.0149330
962.115	0.0148495
962.193	0.0149712
962.271	0.0148641
962.349	0.0148742
962.427	0.0149337
962.505	0.0148975
962.583	0.0149774
962.662	0.0149080
962.740	0.0148392
962.818	0.0148853
962.896	0.0147629
962.974	0.0147466
963.052	0.0148279
963.130	0.0147593
963.208	0.0149529
963.287	0.0149489
963.365	0.0148157
963.443	0.0148969
963.521	0.0149982
963.599	0.0148701
963.677	0.0148352
963.755	0.0148690
963.833	0.0148453
963.912	0.0148557
963.990	0.0148307
964.068	0.0146877
964.146	0.0148997
964.224	0.0149519
964.302	0.0147363
964.380	0.0147850
964.458	0.0150012
964.537	0.0148683
964.615	0.0148252
964.693	0.0149335
964.771	0.0150186
964.849	0.0148798
964.927	0.0147733
965.005	0.0148101
965.083	0.0148846
965.162	0.0149375
965.240	0.0149490
965.318	0.0148518
965.396	0.0147910
965.474	0.0147939
965.552	0.0147400
965.630	0.0148871
965.708	0.0147086
965.787	0.0149001
965.865	0.0148295
965.943	0.0149488
966.021	0.0149191
966.099	0.0146648
966.177	0.0147554
966.255	0.0148484
966.333	0.0147913
966.412	0.0149153
966.490	0.0146906
966.568	0.0147949
966.646	0.0148822
966.724	0.0148033
966.802	0.0148198
966.880	0.0148584
966.958	0.0148198
967.037	0.0147793
967.115	0.0147968
967.193	0.0147759
967.271	0.0147803
967.349	0.0148402
967.427	0.0148758
967.505	0.0147166
967.583	0.0147407
967.662	0.0148518
967.740	0.0147942
967.818	0.0148282
967.896	0.0148434
967.974	0.0147903
968.052	0.0148230
968.130	0.0148376
968.208	0.0148451
968.287	0.0148595
968.365	0.0148176
968.443	0.0147382
968.521	0.0148076
968.599	0.0146816
968.677	0.0148080
968.755	0.0148133
968.833	0.0148185
968.912	0.0147285
968.990	0.0147502
969.068	0.0146558
969.146	0.0148833
969.224	0.0148821
969.302	0.0148441
969.380	0.0147876
969.458	0.0148400
969.537	0.0148235
969.615	0.0148660
969.693	0.0148520
969.771	0.0148529
969.849	0.0148309
969.927	0.0148482
970.005	0.0149208
970.083	0.0148885
970.162	0.0148334
970.240	0.0148519
970.318	0.0148119
970.396	0.0148730
970.474	0.0148609
970.552	0.0148209
970.630	0.0148206
970.708	0.0147704
970.787	0.0148527
970.865	0.0148320
970.943	0.0148764
971.021	0.0149896
971.099	0.0148073
971.177	0.0147518
971.255	0.0148470
971.333	0.0148947
971.412	0.0148009
971.490	0.0147964
971.568	0.0147800
971.646	0.0147189
971.724	0.0147256
971.802	0.0147281
971.880	0.0148334
971.958	0.0148034
972.037	0.0147816
972.115	0.0147900
972.193	0.0148179
972.271	0.0148301
972.349	0.0148798
972.427	0.0148498
972.505	0.0148729
972.583	0.0148111
972.662	0.0149320
972.740	0.0149797
972.818	0.0150150
972.896	0.0148779
972.974	0.0150961
973.052	0.0148767
973.130	0.0147419
973.208	0.0148098
973.287	0.0147710
973.365	0.0148956
973.443	0.0148158
973.521	0.0147087
973.599	0.0148784
973.677	0.0147980
973.755	0.0148753
973.833	0.0148711
973.912	0.0148256
973.990	0.0148297
974.068	0.0147808
974.146	0.0148342
974.224	0.0148864
974.302	0.0148808
974.380	0.0147331
974.458	0.0148827
974.537	0.0147608
974.615	0.0147335
974.693	0.0148154
974.771	0.0147905
974.849	0.0147550
974.927	0.0148415
975.005	0.0148386
975.083	0.0147414
975.162	0.0147649
975.240	0.0148059
975.318	0.0147510
975.396	0.0147691
975.474	0.0149242
975.552	0.0149608
975.630	0.0147481
975.708	0.0148257
975.787	0.0147053
975.865	0.0147777
975.943	0.0146516
976.021	0.0148389
976.099	0.0149904
976.177	0.0149030
976.255	0.0147446
976.333	0.0147878
976.412	0.0147810
976.490	0.0149293
976.568	0.0147770
976.646	0.0147468
976.724	0.0148709
976.802	0.0148921
976.880	0.0147610
976.958	0.0147454
977.037	0.0148973
977.115	0.0148156
977.193	0.0148502
977.271	0.0148834
977.349	0.0148224
977.427	0.0148417
977.505	0.0147819
977.583	0.0148622
977.662	0.0147542
977.740	0.0148569
977.818	0.0147907
977.896	0.0147005
977.974	0.0147220
978.052	0.0147610
978.130	0.0149780
978.208	0.0149223
978.287	0.0147201
978.365	0.0147329
978.443	0.0147793
978.521	0.0148940
978.599	0.0148377
978.677	0.0148175
978.755	0.0148336
978.833	0.0149248
978.912	0.0147681
978.990	0.0149533
979.068	0.0149199
979.146	0.0149101
979.224	0.0148013
979.302	0.0149004
979.380	0.0148718
979.458	0.0148913
979.537	0.0148163
979.615	0.0148469
979.693	0.0148015
979.771	0.0147495
979.849	0.0148539
979.927	0.0148037
980.005	0.0148652
980.083	0.0150468
980.162	0.0149768
980.240	0.0149741
980.318	0.0149571
980.396	0.0149064
980.474	0.0149126
980.552	0.0148315
980.630	0.0148520
980.708	0.0149021
980.787	0.0149339
980.865	0.0149894
980.943	0.0149006
981.021	0.0149494
981.099	0.0149629
981.177	0.0149347
981.255	0.0150143
981.333	0.0148660
981.412	0.0150191
981.490	0.0149133
981.568	0.0150182
981.646	0.0149982
981.724	0.0148756
981.802	0.0147933
981.880	0.0148646
981.958	0.0147576
982.037	0.0148656
982.115	0.0150230
982.193	0.0148421
982.271	0.0148022
982.349	0.0148464
982.427	0.0149477
982.505	0.0149169
982.583	0.0148194
982.662	0.0149335
982.740	0.0149165
982.818	0.0148681
982.896	0.0147623
982.974	0.0149247
983.052	0.0149959
983.130	0.0148601
983.208	0.0149738
983.287	0.0149454
983.365	0.0148966
983.443	0.0149561
983.521	0.0149345
983.599	0.0149243
983.677	0.0150116
983.755	0.0148548
983.833	0.0148858
983.912	0.0149968
983.990	0.0148672
984.068	0.0148605
984.146	0.0147174
984.224	0.0149560
984.302	0.0149145
984.380	0.0148449
984.458	0.0148891
984.537	0.0148851
984.615	0.0148427
984.693	0.0147912
984.771	0.0148949
984.849	0.0148730
984.927	0.0149086
985.005	0.0146003
985.083	0.0148293
985.162	0.0147592
985.240	0.0149876
985.318	0.0147503
985.396	0.0147695
985.474	0.0149299
985.552	0.0148943
985.630	0.0148875
985.708	0.0147188
985.787	0.0149760
985.865	0.0147726
985.943	0.0148444
986.021	0.0149055
986.099	0.0150694
986.177	0.0148920
986.255	0.0149173
986.333	0.0148001
986.412	0.0148647
986.490	0.0147858
986.568	0.0147128
986.646	0.0149298
986.724	0.0148825
986.802	0.0148888
986.880	0.0148205
986.958	0.0147218
987.037	0.0147150
987.115	0.0150119
987.193	0.0148573
987.271	0.0147482
987.349	0.0148326
987.427	0.0149431
987.505	0.0148018
987.583	0.0148399
987.662	0.0148367
987.740	0.0148943
987.818	0.0149732
987.896	0.0147207
987.974	0.0148357
988.052	0.0148785
988.130	0.0147500
988.208	0.0148409
988.287	0.0146976
988.365	0.0148458
988.443	0.0147469
988.521	0.0148431
988.599	0.0149049
988.677	0.0148188
988.755	0.0147173
988.833	0.0149277
988.912	0.0148412
988.990	0.0147726
989.068	0.0147989
989.146	0.0148616
989.224	0.0148831
989.302	0.0148468
989.380	0.0147743
989.458	0.0147508
989.537	0.0148417
989.615	0.0146906
989.693	0.0147821
989.771	0.0149246
989.849	0.0148795
989.927	0.0149166
990.005	0.0148773
990.083	0.0149669
990.162	0.0149110
990.240	0.0148376
990.318	0.0148350
990.396	0.0148260
990.474	0.0148914
990.552	0.0148970
990.630	0.0148975
990.708	0.0149640
990.787	0.0149080
990.865	0.0149247
990.943	0.0148710
991.021	0.0148837
991.099	0.0148819
991.177	0.0147946
991.255	0.0147166
991.333	0.0148604
991.412	0.0148967
991.490	0.0150256
991.568	0.0148041
991.646	0.0147380
991.724	0.0148473
991.802	0.0147593
991.880	0.0149619
991.958	0.0147942
992.037	0.0147062
992.115	0.0148814
992.193	0.0148108
992.271	0.0148309
992.349	0.0147789
992.427	0.0149335
992.505	0.0149196
992.583	0.0146190
992.662	0.0147611
992.740	0.0148201
992.818	0.0146322
992.896	0.0147177
992.974	0.0147733
993.052	0.0146156
993.130	0.0147282
993.208	0.0147566
993.287	0.0147253
993.365	0.0149374
993.443	0.0147966
993.521	0.0148653
993.599	0.0147655
993.677	0.0147359
993.755	0.0149391
993.833	0.0148775
993.912	0.0147865
993.990	0.0147590
994.068	0.0148434
994.146	0.0149197
994.224	0.0147284
994.302	0.0148360
994.380	0.0149599
994.458	0.0148199
994.537	0.0148438
994.615	0.0147336
994.693	0.0146495
994.771	0.0147171
994.849	0.0147483
994.927	0.0147475
995.005	0.0147852
995.083	0.0148149
995.162	0.0149003
995.240	0.0148124
995.318	0.0146587
995.396	0.0147814
995.474	0.0148307
995.552	0.0148380
995.630	0.0148292
995.708	0.0148270
995.787	0.0149168
995.865	0.0147816
995.943	0.0149363
996.021	0.0149883
996.099	0.0148605
996.177	0.0148456
996.255	0.0148322
996.333	0.0148138
996.412	0.0148014
996.490	0.0147518
996.568	0.0147593
996.646	0.0148184
996.724	0.0148643
996.802	0.0147731
996.880	0.0149574
996.958	0.0147851
997.037	0.0147162
997.115	0.0147129
997.193	0.0147734
997.271	0.0148379
997.349	0.0147228
997.427	0.0147016
997.505	0.0147543
997.583	0.0148190
997.662	0.0147274
997.740	0.0148376
997.818	0.0149974
997.896	0.0146898
997.974	0.0147437
998.052	0.0147864
998.130	0.0149163
998.208	0.0148383
998.287	0.0148893
998.365	0.0149296
998.443	0.0148265
998.521	0.0148030
998.599	0.0149633
998.677	0.0147681
998.755	0.0149455
998.833	0.0148948
998.912	0.0148180
