05/04/2022	21:33:58	Ver.	4.1	UNKNOWN
Optical Delay	678.996401	Delta X		0.078125	Sweeps	1	Scan Rate	0/0
Coordinates	Axis 1	NaN	Axis 2	NaN	Axis 3	NaN	Axis 4	NaN	Axis 5	NaN	Axis 6	0.000000
TX Power	0.000000	RX Power	0.000000

678.996	0.0147153
679.075	0.0148271
679.153	0.0147077
679.231	0.0146999
679.309	0.0147903
679.387	0.0146680
679.465	0.0146322
679.543	0.0146853
679.621	0.0146489
679.700	0.0147227
679.778	0.0148923
679.856	0.0146767
679.934	0.0146875
680.012	0.0147548
680.090	0.0146545
680.168	0.0146774
680.246	0.0147565
680.325	0.0147699
680.403	0.0146680
680.481	0.0146622
680.559	0.0146140
680.637	0.0148109
680.715	0.0147017
680.793	0.0146955
680.871	0.0146894
680.950	0.0146818
681.028	0.0148071
681.106	0.0147422
681.184	0.0148090
681.262	0.0147543
681.340	0.0148707
681.418	0.0146978
681.496	0.0147533
681.575	0.0148493
681.653	0.0146857
681.731	0.0147652
681.809	0.0147386
681.887	0.0146950
681.965	0.0147639
682.043	0.0147236
682.121	0.0146281
682.200	0.0147635
682.278	0.0146883
682.356	0.0146313
682.434	0.0146689
682.512	0.0146233
682.590	0.0146078
682.668	0.0145968
682.746	0.0144672
682.825	0.0145227
682.903	0.0147577
682.981	0.0147670
683.059	0.0147530
683.137	0.0147832
683.215	0.0147186
683.293	0.0148660
683.371	0.0148999
683.450	0.0148666
683.528	0.0147826
683.606	0.0147411
683.684	0.0147536
683.762	0.0148668
683.840	0.0148379
683.918	0.0147815
683.996	0.0148279
684.075	0.0149423
684.153	0.0149258
684.231	0.0148831
684.309	0.0148135
684.387	0.0146642
684.465	0.0148253
684.543	0.0147958
684.621	0.0147412
684.700	0.0147101
684.778	0.0145850
684.856	0.0145246
684.934	0.0144893
685.012	0.0145750
685.090	0.0147002
685.168	0.0146474
685.246	0.0146816
685.325	0.0146354
685.403	0.0148255
685.481	0.0146653
685.559	0.0146412
685.637	0.0147414
685.715	0.0148107
685.793	0.0147090
685.871	0.0146725
685.950	0.0148730
686.028	0.0147169
686.106	0.0147878
686.184	0.0148964
686.262	0.0149924
686.340	0.0149696
686.418	0.0152042
686.496	0.0151061
686.575	0.0150582
686.653	0.0149339
686.731	0.0149818
686.809	0.0148752
686.887	0.0148244
686.965	0.0147558
687.043	0.0146706
687.121	0.0146147
687.200	0.0145852
687.278	0.0144671
687.356	0.0141911
687.434	0.0142205
687.512	0.0142886
687.590	0.0143259
687.668	0.0142981
687.746	0.0145119
687.825	0.0143693
687.903	0.0144200
687.981	0.0146673
688.059	0.0146448
688.137	0.0146943
688.215	0.0149087
688.293	0.0149889
688.371	0.0148658
688.450	0.0149971
688.528	0.0150913
688.606	0.0151155
688.684	0.0150298
688.762	0.0150571
688.840	0.0152012
688.918	0.0151237
688.996	0.0150166
689.075	0.0150027
689.153	0.0148515
689.231	0.0149447
689.309	0.0148635
689.387	0.0148680
689.465	0.0149448
689.543	0.0149490
689.621	0.0150223
689.700	0.0148605
689.778	0.0147986
689.856	0.0148007
689.934	0.0149178
690.012	0.0146613
690.090	0.0146615
690.168	0.0146560
690.246	0.0145830
690.325	0.0145005
690.403	0.0144510
690.481	0.0145093
690.559	0.0144450
690.637	0.0144547
690.715	0.0144808
690.793	0.0145752
690.871	0.0144898
690.950	0.0146432
691.028	0.0146853
691.106	0.0145728
691.184	0.0146495
691.262	0.0145055
691.340	0.0146555
691.418	0.0146706
691.496	0.0146855
691.575	0.0147701
691.653	0.0150029
691.731	0.0149760
691.809	0.0149307
691.887	0.0150554
691.965	0.0149657
692.043	0.0149052
692.121	0.0149540
692.200	0.0150011
692.278	0.0150434
692.356	0.0151128
692.434	0.0149978
692.512	0.0150632
692.590	0.0149522
692.668	0.0148457
692.746	0.0148634
692.825	0.0148344
692.903	0.0149146
692.981	0.0148812
693.059	0.0147398
693.137	0.0147366
693.215	0.0146244
693.293	0.0145229
693.371	0.0145913
693.450	0.0145383
693.528	0.0145258
693.606	0.0145005
693.684	0.0145916
693.762	0.0144926
693.840	0.0142610
693.918	0.0145919
693.996	0.0145094
694.075	0.0143668
694.153	0.0143341
694.231	0.0144588
694.309	0.0144291
694.387	0.0142798
694.465	0.0145222
694.543	0.0145670
694.621	0.0145276
694.700	0.0148378
694.778	0.0149712
694.856	0.0148995
694.934	0.0150660
695.012	0.0152009
695.090	0.0151720
695.168	0.0152669
695.246	0.0152255
695.325	0.0151841
695.403	0.0151498
695.481	0.0150616
695.559	0.0151049
695.637	0.0150616
695.715	0.0148325
695.793	0.0147776
695.871	0.0149298
695.950	0.0147365
696.028	0.0147770
696.106	0.0146935
696.184	0.0147752
696.262	0.0146509
696.340	0.0146486
696.418	0.0146239
696.496	0.0144896
696.575	0.0144289
696.653	0.0142516
696.731	0.0142453
696.809	0.0143728
696.887	0.0143913
696.965	0.0142498
697.043	0.0143869
697.121	0.0144545
697.200	0.0143713
697.278	0.0143423
697.356	0.0145146
697.434	0.0145329
697.512	0.0144717
697.590	0.0146897
697.668	0.0146350
697.746	0.0146833
697.825	0.0148727
697.903	0.0147247
697.981	0.0147096
698.059	0.0149753
698.137	0.0149575
698.215	0.0150748
698.293	0.0148913
698.371	0.0151183
698.450	0.0151113
698.528	0.0148233
698.606	0.0149979
698.684	0.0149847
698.762	0.0149316
698.840	0.0148539
698.918	0.0150251
698.996	0.0150349
699.075	0.0150850
699.153	0.0150887
699.231	0.0151549
699.309	0.0150806
699.387	0.0150832
699.465	0.0148327
699.543	0.0148414
699.621	0.0147730
699.700	0.0146137
699.778	0.0144610
699.856	0.0142412
699.934	0.0142719
700.012	0.0142143
700.090	0.0141222
700.168	0.0140947
700.246	0.0142154
700.325	0.0142522
700.403	0.0145119
700.481	0.0143193
700.559	0.0143976
700.637	0.0146568
700.715	0.0147245
700.793	0.0149840
700.871	0.0148791
700.950	0.0149869
701.028	0.0148373
701.106	0.0148717
701.184	0.0150530
701.262	0.0150727
701.340	0.0148795
701.418	0.0148856
701.496	0.0149403
701.575	0.0150089
701.653	0.0149222
701.731	0.0148328
701.809	0.0148416
701.887	0.0147755
701.965	0.0149201
702.043	0.0149625
702.121	0.0150394
702.200	0.0151264
702.278	0.0152077
702.356	0.0150874
702.434	0.0151048
702.512	0.0151485
702.590	0.0149066
702.668	0.0149786
702.746	0.0148582
702.825	0.0146282
702.903	0.0146152
702.981	0.0145134
703.059	0.0145078
703.137	0.0144146
703.215	0.0144227
703.293	0.0144113
703.371	0.0142131
703.450	0.0143163
703.528	0.0145404
703.606	0.0144959
703.684	0.0144542
703.762	0.0145440
703.840	0.0145903
703.918	0.0147485
703.996	0.0146770
704.075	0.0147702
704.153	0.0148390
704.231	0.0148045
704.309	0.0148009
704.387	0.0148061
704.465	0.0147523
704.543	0.0148907
704.621	0.0147930
704.700	0.0146506
704.778	0.0148812
704.856	0.0147938
704.934	0.0147832
705.012	0.0148472
705.090	0.0149249
705.168	0.0149357
705.246	0.0149085
705.325	0.0151332
705.403	0.0150569
705.481	0.0150365
705.559	0.0151512
705.637	0.0151167
705.715	0.0150767
705.793	0.0149399
705.871	0.0147149
705.950	0.0147112
706.028	0.0146700
706.106	0.0145964
706.184	0.0145969
706.262	0.0145618
706.340	0.0145937
706.418	0.0145837
706.496	0.0146571
706.575	0.0146453
706.653	0.0145422
706.731	0.0146146
706.809	0.0146619
706.887	0.0146462
706.965	0.0148379
707.043	0.0146252
707.121	0.0147879
707.200	0.0144897
707.278	0.0146594
707.356	0.0146190
707.434	0.0145779
707.512	0.0145544
707.590	0.0145714
707.668	0.0147280
707.746	0.0145953
707.825	0.0147446
707.903	0.0147258
707.981	0.0147011
708.059	0.0146893
708.137	0.0147962
708.215	0.0148114
708.293	0.0148376
708.371	0.0148605
708.450	0.0150684
708.528	0.0150476
708.606	0.0150488
708.684	0.0149428
708.762	0.0148457
708.840	0.0149720
708.918	0.0149894
708.996	0.0148334
709.075	0.0147724
709.153	0.0150102
709.231	0.0148040
709.309	0.0149178
709.387	0.0149751
709.465	0.0148159
709.543	0.0147818
709.621	0.0147266
709.700	0.0147562
709.778	0.0145742
709.856	0.0145865
709.934	0.0146092
710.012	0.0144968
710.090	0.0144942
710.168	0.0145255
710.246	0.0144616
710.325	0.0143655
710.403	0.0144173
710.481	0.0145801
710.559	0.0143761
710.637	0.0144517
710.715	0.0145996
710.793	0.0146446
710.871	0.0145368
710.950	0.0147694
711.028	0.0147305
711.106	0.0145535
711.184	0.0147816
711.262	0.0146976
711.340	0.0149171
711.418	0.0148876
711.496	0.0148856
711.575	0.0149296
711.653	0.0150894
711.731	0.0150137
711.809	0.0150709
711.887	0.0151030
711.965	0.0150359
712.043	0.0149351
712.121	0.0150020
712.200	0.0149624
712.278	0.0147807
712.356	0.0148766
712.434	0.0147094
712.512	0.0146918
712.590	0.0147789
712.668	0.0147382
712.746	0.0148032
712.825	0.0147339
712.903	0.0145452
712.981	0.0146986
713.059	0.0148283
713.137	0.0147770
713.215	0.0147350
713.293	0.0146861
713.371	0.0147318
713.450	0.0147832
713.528	0.0146387
713.606	0.0147742
713.684	0.0148206
713.762	0.0147861
713.840	0.0147762
713.918	0.0147342
713.996	0.0147407
714.075	0.0146552
714.153	0.0147610
714.231	0.0147895
714.309	0.0147057
714.387	0.0146049
714.465	0.0145088
714.543	0.0146778
714.621	0.0146725
714.700	0.0146523
714.778	0.0146590
714.856	0.0146770
714.934	0.0147572
715.012	0.0146917
715.090	0.0147173
715.168	0.0147772
715.246	0.0149174
715.325	0.0148673
715.403	0.0147904
715.481	0.0148584
715.559	0.0148153
715.637	0.0148122
715.715	0.0148225
715.793	0.0149625
715.871	0.0149393
715.950	0.0149240
716.028	0.0149586
716.106	0.0149796
716.184	0.0147956
716.262	0.0150175
716.340	0.0149639
716.418	0.0147083
716.496	0.0149093
716.575	0.0147536
716.653	0.0147052
716.731	0.0146126
716.809	0.0146908
716.887	0.0147591
716.965	0.0146854
717.043	0.0146204
717.121	0.0143230
717.200	0.0144730
717.278	0.0146455
717.356	0.0145188
717.434	0.0143166
717.512	0.0145722
717.590	0.0145097
717.668	0.0145032
717.746	0.0143510
717.825	0.0144910
717.903	0.0146609
717.981	0.0147907
718.059	0.0149010
718.137	0.0148611
718.215	0.0148290
718.293	0.0149741
718.371	0.0149268
718.450	0.0148727
718.528	0.0150359
718.606	0.0151398
718.684	0.0148846
718.762	0.0150315
718.840	0.0148195
718.918	0.0148047
718.996	0.0148272
719.075	0.0148694
719.153	0.0148153
719.231	0.0147573
719.309	0.0145686
719.387	0.0147787
719.465	0.0145918
719.543	0.0146200
719.621	0.0145609
719.700	0.0146418
719.778	0.0146160
719.856	0.0145260
719.934	0.0146030
720.012	0.0145598
720.090	0.0145782
720.168	0.0145265
720.246	0.0145126
720.325	0.0145100
720.403	0.0145801
720.481	0.0145385
720.559	0.0145983
720.637	0.0144291
720.715	0.0146004
720.793	0.0146235
720.871	0.0147157
720.950	0.0148124
721.028	0.0147088
721.106	0.0147041
721.184	0.0147202
721.262	0.0147588
721.340	0.0149233
721.418	0.0148986
721.496	0.0148241
721.575	0.0149118
721.653	0.0150513
721.731	0.0149419
721.809	0.0147070
721.887	0.0148208
721.965	0.0149469
722.043	0.0147904
722.121	0.0147144
722.200	0.0148344
722.278	0.0147150
722.356	0.0147058
722.434	0.0147106
722.512	0.0147211
722.590	0.0146523
722.668	0.0146534
722.746	0.0146814
722.825	0.0147973
722.903	0.0147227
722.981	0.0146923
723.059	0.0147641
723.137	0.0146829
723.215	0.0146461
723.293	0.0148100
723.371	0.0149844
723.450	0.0148173
723.528	0.0146428
723.606	0.0148231
723.684	0.0148240
723.762	0.0147797
723.840	0.0147841
723.918	0.0146346
723.996	0.0147243
724.075	0.0146089
724.153	0.0145085
724.231	0.0147196
724.309	0.0146577
724.387	0.0146194
724.465	0.0145611
724.543	0.0145303
724.621	0.0145324
724.700	0.0147661
724.778	0.0147641
724.856	0.0146626
724.934	0.0147472
725.012	0.0148093
725.090	0.0148868
725.168	0.0147916
725.246	0.0148635
725.325	0.0150439
725.403	0.0149681
725.481	0.0150765
725.559	0.0151007
725.637	0.0150702
725.715	0.0150380
725.793	0.0150377
725.871	0.0150639
725.950	0.0150198
726.028	0.0149323
726.106	0.0150153
726.184	0.0150520
726.262	0.0148100
726.340	0.0147436
726.418	0.0147986
726.496	0.0146908
726.575	0.0147339
726.653	0.0146727
726.731	0.0146682
726.809	0.0146165
726.887	0.0145674
726.965	0.0143450
727.043	0.0143730
727.121	0.0143843
727.200	0.0144809
727.278	0.0145290
727.356	0.0144034
727.434	0.0145390
727.512	0.0144438
727.590	0.0146435
727.668	0.0147549
727.746	0.0147744
727.825	0.0147652
727.903	0.0148457
727.981	0.0149168
728.059	0.0149021
728.137	0.0149408
728.215	0.0150980
728.293	0.0149641
728.371	0.0149745
728.450	0.0149692
728.528	0.0149570
728.606	0.0148878
728.684	0.0149989
728.762	0.0149321
728.840	0.0149773
728.918	0.0147961
728.996	0.0148565
729.075	0.0150747
729.153	0.0149069
729.231	0.0148335
729.309	0.0149442
729.387	0.0149161
729.465	0.0148098
729.543	0.0147518
729.621	0.0146867
729.700	0.0146983
729.778	0.0145977
729.856	0.0146343
729.934	0.0146263
730.012	0.0146539
730.090	0.0147150
730.168	0.0145822
730.246	0.0147614
730.325	0.0147249
730.403	0.0145849
730.481	0.0147784
730.559	0.0146687
730.637	0.0147047
730.715	0.0148511
730.793	0.0148802
730.871	0.0147588
730.950	0.0147877
731.028	0.0147678
731.106	0.0147108
731.184	0.0147720
731.262	0.0150127
731.340	0.0147206
731.418	0.0147948
731.496	0.0146310
731.575	0.0146438
731.653	0.0147842
731.731	0.0146701
731.809	0.0146807
731.887	0.0147030
731.965	0.0147684
732.043	0.0149310
732.121	0.0148176
732.200	0.0148414
732.278	0.0148506
732.356	0.0148465
732.434	0.0148326
732.512	0.0148127
732.590	0.0147456
732.668	0.0148853
732.746	0.0147388
732.825	0.0146883
732.903	0.0148048
732.981	0.0146297
733.059	0.0146602
733.137	0.0147375
733.215	0.0146974
733.293	0.0147697
733.371	0.0147845
733.450	0.0146568
733.528	0.0145418
733.606	0.0146552
733.684	0.0147147
733.762	0.0147778
733.840	0.0145851
733.918	0.0146821
733.996	0.0145206
734.075	0.0146246
734.153	0.0145924
734.231	0.0146661
734.309	0.0144994
734.387	0.0146289
734.465	0.0145493
734.543	0.0144337
734.621	0.0146983
734.700	0.0146568
734.778	0.0146718
734.856	0.0146690
734.934	0.0146953
735.012	0.0148816
735.090	0.0150454
735.168	0.0149194
735.246	0.0148474
735.325	0.0149689
735.403	0.0150938
735.481	0.0150747
735.559	0.0150174
735.637	0.0150383
735.715	0.0149704
735.793	0.0148221
735.871	0.0149683
735.950	0.0148038
736.028	0.0147642
736.106	0.0147911
736.184	0.0147684
736.262	0.0147473
736.340	0.0146101
736.418	0.0146290
736.496	0.0147108
736.575	0.0146590
736.653	0.0146344
736.731	0.0146005
736.809	0.0146043
736.887	0.0147416
736.965	0.0147054
737.043	0.0147319
737.121	0.0145633
737.200	0.0146576
737.278	0.0146635
737.356	0.0145464
737.434	0.0147241
737.512	0.0147794
737.590	0.0147456
737.668	0.0146964
737.746	0.0148309
737.825	0.0147408
737.903	0.0148691
737.981	0.0149600
738.059	0.0148408
738.137	0.0148071
738.215	0.0148129
738.293	0.0148045
738.371	0.0148730
738.450	0.0148540
738.528	0.0147083
738.606	0.0148402
738.684	0.0149383
738.762	0.0148257
738.840	0.0146933
738.918	0.0148397
738.996	0.0147665
739.075	0.0147900
739.153	0.0147160
739.231	0.0146685
739.309	0.0148437
739.387	0.0148158
739.465	0.0146873
739.543	0.0147394
739.621	0.0147511
739.700	0.0148035
739.778	0.0146056
739.856	0.0148269
739.934	0.0146987
740.012	0.0146549
740.090	0.0146913
740.168	0.0146904
740.246	0.0147036
740.325	0.0146684
740.403	0.0146087
740.481	0.0147663
740.559	0.0145502
740.637	0.0148165
740.715	0.0148030
740.793	0.0147446
740.871	0.0148143
740.950	0.0147643
741.028	0.0148001
741.106	0.0148747
741.184	0.0149574
741.262	0.0147469
741.340	0.0148925
741.418	0.0149512
741.496	0.0147903
741.575	0.0147020
741.653	0.0147549
741.731	0.0147365
741.809	0.0148164
741.887	0.0147688
741.965	0.0146609
742.043	0.0147476
742.121	0.0149433
742.200	0.0148401
742.278	0.0147038
742.356	0.0147400
742.434	0.0147296
742.512	0.0147344
742.590	0.0147710
742.668	0.0148753
742.746	0.0147467
742.825	0.0147858
742.903	0.0149477
742.981	0.0148177
743.059	0.0147468
743.137	0.0148051
743.215	0.0148389
743.293	0.0148571
743.371	0.0148640
743.450	0.0148550
743.528	0.0147480
743.606	0.0147798
743.684	0.0147914
743.762	0.0148085
743.840	0.0147518
743.918	0.0147913
743.996	0.0146735
744.075	0.0145692
744.153	0.0146409
744.231	0.0147143
744.309	0.0148301
744.387	0.0144759
744.465	0.0147266
744.543	0.0147475
744.621	0.0147186
744.700	0.0148158
744.778	0.0147172
744.856	0.0147722
744.934	0.0148236
745.012	0.0146637
745.090	0.0147452
745.168	0.0149348
745.246	0.0149171
745.325	0.0148824
745.403	0.0147601
745.481	0.0149076
745.559	0.0149467
745.637	0.0150031
745.715	0.0148488
745.793	0.0148907
745.871	0.0148541
745.950	0.0149632
746.028	0.0149536
746.106	0.0148347
746.184	0.0148373
746.262	0.0147797
746.340	0.0146869
746.418	0.0146590
746.496	0.0147958
746.575	0.0147438
746.653	0.0146738
746.731	0.0145471
746.809	0.0145700
746.887	0.0146516
746.965	0.0146319
747.043	0.0144772
747.121	0.0145567
747.200	0.0146127
747.278	0.0146347
747.356	0.0146493
747.434	0.0146837
747.512	0.0147629
747.590	0.0147599
747.668	0.0146944
747.746	0.0148515
747.825	0.0149665
747.903	0.0149490
747.981	0.0146999
748.059	0.0147709
748.137	0.0149812
748.215	0.0149554
748.293	0.0150031
748.371	0.0148862
748.450	0.0148656
748.528	0.0148729
748.606	0.0150374
748.684	0.0149092
748.762	0.0148498
748.840	0.0147793
748.918	0.0148473
748.996	0.0148728
749.075	0.0147565
749.153	0.0147606
749.231	0.0147453
749.309	0.0146178
749.387	0.0146870
749.465	0.0148408
749.543	0.0146796
749.621	0.0146844
749.700	0.0145911
749.778	0.0146599
749.856	0.0145997
749.934	0.0147272
750.012	0.0148428
750.090	0.0147334
750.168	0.0148085
750.246	0.0146718
750.325	0.0147649
750.403	0.0147218
750.481	0.0148374
750.559	0.0147820
750.637	0.0148508
750.715	0.0147843
750.793	0.0147958
750.871	0.0146317
750.950	0.0147015
751.028	0.0146630
751.106	0.0146177
751.184	0.0146148
751.262	0.0145555
751.340	0.0145885
751.418	0.0147271
751.496	0.0146358
751.575	0.0146499
751.653	0.0146555
751.731	0.0146576
751.809	0.0147085
751.887	0.0146915
751.965	0.0146227
752.043	0.0147387
752.121	0.0147787
752.200	0.0146973
752.278	0.0146430
752.356	0.0147751
752.434	0.0147992
752.512	0.0147901
752.590	0.0148301
752.668	0.0146326
752.746	0.0148011
752.825	0.0147887
752.903	0.0148009
752.981	0.0147890
753.059	0.0146883
753.137	0.0147639
753.215	0.0148050
753.293	0.0145874
753.371	0.0148346
753.450	0.0147473
753.528	0.0146995
753.606	0.0148949
753.684	0.0147563
753.762	0.0146616
753.840	0.0147465
753.918	0.0146179
753.996	0.0147918
754.075	0.0146999
754.153	0.0146000
754.231	0.0147630
754.309	0.0147502
754.387	0.0145939
754.465	0.0147437
754.543	0.0146944
754.621	0.0147910
754.700	0.0145909
754.778	0.0146378
754.856	0.0146090
754.934	0.0146728
755.012	0.0146861
755.090	0.0147020
755.168	0.0147102
755.246	0.0146814
755.325	0.0146994
755.403	0.0147917
755.481	0.0148150
755.559	0.0146502
755.637	0.0147388
755.715	0.0147556
755.793	0.0149208
755.871	0.0148283
755.950	0.0147276
756.028	0.0148026
756.106	0.0147743
756.184	0.0148017
756.262	0.0147361
756.340	0.0147559
756.418	0.0145894
756.496	0.0146311
756.575	0.0145983
756.653	0.0146301
756.731	0.0146423
756.809	0.0146614
756.887	0.0145909
756.965	0.0146058
757.043	0.0145782
757.121	0.0145482
757.200	0.0145834
757.278	0.0145667
757.356	0.0147443
757.434	0.0147337
757.512	0.0146251
757.590	0.0146767
757.668	0.0146880
757.746	0.0147736
757.825	0.0148126
757.903	0.0147557
757.981	0.0147157
758.059	0.0147044
758.137	0.0146957
758.215	0.0148280
758.293	0.0147964
758.371	0.0146678
758.450	0.0147129
758.528	0.0146810
758.606	0.0147255
758.684	0.0147122
758.762	0.0147148
758.840	0.0146652
758.918	0.0146063
758.996	0.0146435
759.075	0.0146310
759.153	0.0146653
759.231	0.0146741
759.309	0.0145673
759.387	0.0147940
759.465	0.0145967
759.543	0.0146242
759.621	0.0145895
759.700	0.0146410
759.778	0.0147875
759.856	0.0146616
759.934	0.0146913
760.012	0.0145950
760.090	0.0146634
760.168	0.0147675
760.246	0.0147690
760.325	0.0149142
760.403	0.0148107
760.481	0.0148437
760.559	0.0149664
760.637	0.0148933
760.715	0.0148753
760.793	0.0148343
760.871	0.0147711
760.950	0.0148225
761.028	0.0147958
761.106	0.0147088
761.184	0.0147156
761.262	0.0148307
761.340	0.0147050
761.418	0.0146842
761.496	0.0147507
761.575	0.0148555
761.653	0.0147921
761.731	0.0147709
761.809	0.0148438
761.887	0.0147613
761.965	0.0147341
762.043	0.0145441
762.121	0.0146889
762.200	0.0148158
762.278	0.0147943
762.356	0.0147274
762.434	0.0147131
762.512	0.0147427
762.590	0.0147933
762.668	0.0147604
762.746	0.0148225
762.825	0.0147025
762.903	0.0146816
762.981	0.0146799
763.059	0.0147034
763.137	0.0147007
763.215	0.0147488
763.293	0.0148275
763.371	0.0148607
763.450	0.0147616
763.528	0.0147005
763.606	0.0147941
763.684	0.0148373
763.762	0.0146865
763.840	0.0146957
763.918	0.0149050
763.996	0.0147794
764.075	0.0146894
764.153	0.0147514
764.231	0.0147415
764.309	0.0148094
764.387	0.0149557
764.465	0.0147832
764.543	0.0148075
764.621	0.0147728
764.700	0.0147111
764.778	0.0146932
764.856	0.0149272
764.934	0.0148300
765.012	0.0147150
765.090	0.0147489
765.168	0.0147735
765.246	0.0147948
765.325	0.0148583
765.403	0.0147724
765.481	0.0148078
765.559	0.0148587
765.637	0.0148460
765.715	0.0147323
765.793	0.0148414
765.871	0.0147700
765.950	0.0147993
766.028	0.0147107
766.106	0.0147526
766.184	0.0146059
766.262	0.0147543
766.340	0.0147126
766.418	0.0147523
766.496	0.0146569
766.575	0.0146811
766.653	0.0147620
766.731	0.0147085
766.809	0.0147541
766.887	0.0147372
766.965	0.0146396
767.043	0.0148073
767.121	0.0147019
767.200	0.0147536
767.278	0.0147253
767.356	0.0148074
767.434	0.0149104
767.512	0.0147144
767.590	0.0148486
767.668	0.0147775
767.746	0.0147972
767.825	0.0147396
767.903	0.0147897
767.981	0.0148913
768.059	0.0148635
768.137	0.0147542
768.215	0.0148098
768.293	0.0147413
768.371	0.0148367
768.450	0.0148267
768.528	0.0148370
768.606	0.0147677
768.684	0.0146964
768.762	0.0147668
768.840	0.0146958
768.918	0.0146641
768.996	0.0147470
769.075	0.0148708
769.153	0.0147803
769.231	0.0148772
769.309	0.0148632
769.387	0.0147868
769.465	0.0146404
769.543	0.0148774
769.621	0.0147845
769.700	0.0147588
769.778	0.0147655
769.856	0.0147781
769.934	0.0148087
770.012	0.0147988
770.090	0.0148520
770.168	0.0148856
770.246	0.0147045
770.325	0.0146970
770.403	0.0147890
770.481	0.0147233
770.559	0.0147774
770.637	0.0146397
770.715	0.0148403
770.793	0.0147388
770.871	0.0146371
770.950	0.0146078
771.028	0.0147414
771.106	0.0147958
771.184	0.0147598
771.262	0.0147057
771.340	0.0148186
771.418	0.0146754
771.496	0.0146989
771.575	0.0148286
771.653	0.0147372
771.731	0.0148531
771.809	0.0148328
771.887	0.0145999
771.965	0.0146908
772.043	0.0147058
772.121	0.0147288
772.200	0.0147797
772.278	0.0146074
772.356	0.0147013
772.434	0.0147689
772.512	0.0147405
772.590	0.0146947
772.668	0.0146912
772.746	0.0148061
772.825	0.0146659
772.903	0.0148394
772.981	0.0148383
773.059	0.0146938
773.137	0.0146923
773.215	0.0148121
773.293	0.0147388
773.371	0.0147442
773.450	0.0148049
773.528	0.0147790
773.606	0.0148136
773.684	0.0147798
773.762	0.0147247
773.840	0.0147879
773.918	0.0148283
773.996	0.0147031
774.075	0.0148579
774.153	0.0147752
774.231	0.0146348
774.309	0.0146758
774.387	0.0147025
774.465	0.0147427
774.543	0.0146753
774.621	0.0148756
774.700	0.0147150
774.778	0.0147089
774.856	0.0145563
774.934	0.0147637
775.012	0.0147011
775.090	0.0147800
775.168	0.0147463
775.246	0.0146385
775.325	0.0145819
775.403	0.0147965
775.481	0.0148474
775.559	0.0146940
775.637	0.0146944
775.715	0.0147268
775.793	0.0147602
775.871	0.0146495
775.950	0.0146877
776.028	0.0147105
776.106	0.0147279
776.184	0.0146487
776.262	0.0147319
776.340	0.0148087
776.418	0.0147021
776.496	0.0147849
776.575	0.0149252
776.653	0.0147505
776.731	0.0147323
776.809	0.0147784
776.887	0.0147421
776.965	0.0148341
777.043	0.0146095
777.121	0.0148375
777.200	0.0146680
777.278	0.0146846
777.356	0.0147066
777.434	0.0148626
777.512	0.0148140
777.590	0.0145819
777.668	0.0148230
777.746	0.0147681
777.825	0.0147898
777.903	0.0146922
777.981	0.0146456
778.059	0.0147273
778.137	0.0148199
778.215	0.0149126
778.293	0.0147611
778.371	0.0146320
778.450	0.0147910
778.528	0.0147949
778.606	0.0146366
778.684	0.0147366
778.762	0.0147265
778.840	0.0148058
778.918	0.0146701
778.996	0.0146935
779.075	0.0147035
779.153	0.0146946
779.231	0.0148125
779.309	0.0148531
779.387	0.0149270
779.465	0.0147961
779.543	0.0147791
779.621	0.0147251
779.700	0.0147164
779.778	0.0148790
779.856	0.0149005
779.934	0.0146709
780.012	0.0148074
780.090	0.0147649
780.168	0.0147709
780.246	0.0146418
780.325	0.0147123
780.403	0.0147715
780.481	0.0146365
780.559	0.0147305
780.637	0.0148360
780.715	0.0147193
780.793	0.0149827
780.871	0.0147668
780.950	0.0148000
781.028	0.0148061
781.106	0.0147539
781.184	0.0148125
781.262	0.0148278
781.340	0.0147444
781.418	0.0147898
781.496	0.0148835
781.575	0.0148595
781.653	0.0147617
781.731	0.0148111
781.809	0.0147588
781.887	0.0147447
781.965	0.0148428
782.043	0.0148528
782.121	0.0147837
782.200	0.0147253
782.278	0.0147652
782.356	0.0149072
782.434	0.0147726
782.512	0.0146991
782.590	0.0147646
782.668	0.0148664
782.746	0.0149565
782.825	0.0148080
782.903	0.0147998
782.981	0.0147497
783.059	0.0148397
783.137	0.0147212
783.215	0.0146634
783.293	0.0146601
783.371	0.0148263
783.450	0.0148273
783.528	0.0147106
783.606	0.0147598
783.684	0.0147430
783.762	0.0148634
783.840	0.0146940
783.918	0.0147832
783.996	0.0147994
784.075	0.0146987
784.153	0.0147799
784.231	0.0148649
784.309	0.0148186
784.387	0.0148478
784.465	0.0148487
784.543	0.0147401
784.621	0.0148299
784.700	0.0148640
784.778	0.0148506
784.856	0.0148970
784.934	0.0148981
785.012	0.0148566
785.090	0.0149619
785.168	0.0148370
785.246	0.0147675
785.325	0.0148914
785.403	0.0148524
785.481	0.0147633
785.559	0.0148441
785.637	0.0148677
785.715	0.0147230
785.793	0.0146667
785.871	0.0148099
785.950	0.0147917
786.028	0.0147913
786.106	0.0148026
786.184	0.0147762
786.262	0.0147675
786.340	0.0147548
786.418	0.0147791
786.496	0.0147980
786.575	0.0147321
786.653	0.0146715
786.731	0.0146956
786.809	0.0147060
786.887	0.0149329
786.965	0.0148919
787.043	0.0147289
787.121	0.0148054
787.200	0.0148462
787.278	0.0147919
787.356	0.0146648
787.434	0.0147961
787.512	0.0149370
787.590	0.0147803
787.668	0.0149004
787.746	0.0148101
787.825	0.0147894
787.903	0.0148798
787.981	0.0148082
788.059	0.0145876
788.137	0.0148688
788.215	0.0149323
788.293	0.0149268
788.371	0.0148883
788.450	0.0147845
788.528	0.0146545
788.606	0.0148607
788.684	0.0147620
788.762	0.0148411
788.840	0.0148081
788.918	0.0147973
788.996	0.0147356
789.075	0.0148756
789.153	0.0147594
789.231	0.0147035
789.309	0.0146922
789.387	0.0147089
789.465	0.0147246
789.543	0.0147181
789.621	0.0147446
789.700	0.0147571
789.778	0.0148185
789.856	0.0146593
789.934	0.0147399
790.012	0.0147340
790.090	0.0148486
790.168	0.0147698
790.246	0.0147253
790.325	0.0148418
790.403	0.0147758
790.481	0.0148097
790.559	0.0148119
790.637	0.0147379
790.715	0.0147791
790.793	0.0146335
790.871	0.0148794
790.950	0.0148926
791.028	0.0147005
791.106	0.0147481
791.184	0.0148471
791.262	0.0147254
791.340	0.0147540
791.418	0.0148222
791.496	0.0149087
791.575	0.0148432
791.653	0.0146818
791.731	0.0147311
791.809	0.0147140
791.887	0.0147381
791.965	0.0147495
792.043	0.0147354
792.121	0.0148090
792.200	0.0146883
792.278	0.0146960
792.356	0.0146872
792.434	0.0146769
792.512	0.0147954
792.590	0.0146893
792.668	0.0146121
792.746	0.0146319
792.825	0.0147687
792.903	0.0147173
792.981	0.0146712
793.059	0.0148072
793.137	0.0148207
793.215	0.0147677
793.293	0.0147169
793.371	0.0147960
793.450	0.0146858
793.528	0.0146514
793.606	0.0148575
793.684	0.0148001
793.762	0.0145227
793.840	0.0148051
793.918	0.0148505
793.996	0.0148048
794.075	0.0148655
794.153	0.0148711
794.231	0.0146859
794.309	0.0147542
794.387	0.0147092
794.465	0.0147070
794.543	0.0147661
794.621	0.0149036
794.700	0.0147819
794.778	0.0147899
794.856	0.0147908
794.934	0.0146907
795.012	0.0147131
795.090	0.0148952
795.168	0.0147731
795.246	0.0147975
795.325	0.0148020
795.403	0.0148032
795.481	0.0146404
795.559	0.0147407
795.637	0.0145856
795.715	0.0147456
795.793	0.0148664
795.871	0.0147029
795.950	0.0145829
796.028	0.0147375
796.106	0.0146723
796.184	0.0147021
796.262	0.0147143
796.340	0.0146832
796.418	0.0146828
796.496	0.0147812
796.575	0.0147277
796.653	0.0146523
796.731	0.0147919
796.809	0.0147717
796.887	0.0147195
796.965	0.0147744
797.043	0.0148035
797.121	0.0147575
797.200	0.0148585
797.278	0.0147752
797.356	0.0146674
797.434	0.0147660
797.512	0.0148083
797.590	0.0147153
797.668	0.0148660
797.746	0.0147361
797.825	0.0146274
797.903	0.0148425
797.981	0.0149104
798.059	0.0147276
798.137	0.0148297
798.215	0.0148291
798.293	0.0147526
798.371	0.0146944
798.450	0.0146581
798.528	0.0147636
798.606	0.0146484
798.684	0.0147264
798.762	0.0147121
798.840	0.0147382
798.918	0.0147150
798.996	0.0146956
799.075	0.0146664
799.153	0.0146873
799.231	0.0148592
799.309	0.0146883
799.387	0.0145718
799.465	0.0146748
799.543	0.0146238
799.621	0.0146634
799.700	0.0147450
799.778	0.0146407
799.856	0.0147117
799.934	0.0147389
800.012	0.0148023
800.090	0.0146519
800.168	0.0147808
800.246	0.0146835
800.325	0.0148131
800.403	0.0147920
800.481	0.0147616
800.559	0.0148243
800.637	0.0147356
800.715	0.0146832
800.793	0.0146718
800.871	0.0148066
800.950	0.0147070
801.028	0.0146317
801.106	0.0146867
801.184	0.0148673
801.262	0.0147448
801.340	0.0147527
801.418	0.0147435
801.496	0.0147642
801.575	0.0147916
801.653	0.0148321
801.731	0.0148921
801.809	0.0148730
801.887	0.0148769
801.965	0.0148360
802.043	0.0147251
802.121	0.0147301
802.200	0.0148388
802.278	0.0148768
802.356	0.0147421
802.434	0.0147588
802.512	0.0148759
802.590	0.0148248
802.668	0.0146538
802.746	0.0148438
802.825	0.0149001
802.903	0.0147384
802.981	0.0148246
803.059	0.0147722
803.137	0.0149193
803.215	0.0147434
803.293	0.0148088
803.371	0.0147940
803.450	0.0147732
803.528	0.0149103
803.606	0.0148389
803.684	0.0148471
803.762	0.0147041
803.840	0.0147991
803.918	0.0148650
803.996	0.0148381
804.075	0.0147298
804.153	0.0148223
804.231	0.0146740
804.309	0.0148240
804.387	0.0147264
804.465	0.0147622
804.543	0.0147831
804.621	0.0147617
804.700	0.0146171
804.778	0.0149329
804.856	0.0147404
804.934	0.0146754
805.012	0.0147682
805.090	0.0148019
805.168	0.0148561
805.246	0.0146597
805.325	0.0147189
805.403	0.0147466
805.481	0.0146811
805.559	0.0146990
805.637	0.0147283
805.715	0.0147231
805.793	0.0146780
805.871	0.0148380
805.950	0.0147784
806.028	0.0147803
806.106	0.0147047
806.184	0.0147498
806.262	0.0146223
806.340	0.0146541
806.418	0.0147817
806.496	0.0147231
806.575	0.0146823
806.653	0.0148429
806.731	0.0147347
806.809	0.0148175
806.887	0.0147585
806.965	0.0146769
807.043	0.0149083
807.121	0.0146671
807.200	0.0147877
807.278	0.0147527
807.356	0.0146904
807.434	0.0147668
807.512	0.0148531
807.590	0.0147211
807.668	0.0146239
807.746	0.0147324
807.825	0.0146824
807.903	0.0146617
807.981	0.0146426
808.059	0.0147479
808.137	0.0147260
808.215	0.0146398
808.293	0.0148540
808.371	0.0145774
808.450	0.0146749
808.528	0.0147672
808.606	0.0148189
808.684	0.0146581
808.762	0.0148199
808.840	0.0147224
808.918	0.0148232
808.996	0.0147312
809.075	0.0147462
809.153	0.0148087
809.231	0.0147535
809.309	0.0147063
809.387	0.0147336
809.465	0.0148748
809.543	0.0147261
809.621	0.0148220
809.700	0.0147276
809.778	0.0147398
809.856	0.0148446
809.934	0.0147451
810.012	0.0146663
810.090	0.0147675
810.168	0.0147422
810.246	0.0146060
810.325	0.0146144
810.403	0.0147321
810.481	0.0147075
810.559	0.0146556
810.637	0.0146788
810.715	0.0147038
810.793	0.0144884
810.871	0.0147465
810.950	0.0148428
811.028	0.0147989
811.106	0.0147291
811.184	0.0146685
811.262	0.0147314
811.340	0.0148968
811.418	0.0147719
811.496	0.0146831
811.575	0.0148621
811.653	0.0148418
811.731	0.0147183
811.809	0.0147492
811.887	0.0146239
811.965	0.0147365
812.043	0.0146854
812.121	0.0147384
812.200	0.0147158
812.278	0.0147274
812.356	0.0148162
812.434	0.0148592
812.512	0.0147298
812.590	0.0148373
812.668	0.0147997
812.746	0.0147904
812.825	0.0147155
812.903	0.0148389
812.981	0.0146889
813.059	0.0146642
813.137	0.0147650
813.215	0.0147585
813.293	0.0147832
813.371	0.0148036
813.450	0.0149044
813.528	0.0145972
813.606	0.0147633
813.684	0.0148591
813.762	0.0147095
813.840	0.0145873
813.918	0.0149084
813.996	0.0148035
814.075	0.0148784
814.153	0.0147319
814.231	0.0147428
814.309	0.0149174
814.387	0.0148431
814.465	0.0147614
814.543	0.0147364
814.621	0.0147819
814.700	0.0148326
814.778	0.0146473
814.856	0.0147537
814.934	0.0147642
815.012	0.0147501
815.090	0.0147242
815.168	0.0147387
815.246	0.0146910
815.325	0.0147018
815.403	0.0146721
815.481	0.0146799
815.559	0.0147651
815.637	0.0148312
815.715	0.0146657
815.793	0.0146806
815.871	0.0146841
815.950	0.0146947
816.028	0.0147018
816.106	0.0146896
816.184	0.0147322
816.262	0.0147362
816.340	0.0146906
816.418	0.0148107
816.496	0.0148335
816.575	0.0147059
816.653	0.0146946
816.731	0.0147984
816.809	0.0148444
816.887	0.0147262
816.965	0.0148473
817.043	0.0149014
817.121	0.0148557
817.200	0.0146993
817.278	0.0146893
817.356	0.0147073
817.434	0.0147820
817.512	0.0146712
817.590	0.0147875
817.668	0.0148167
817.746	0.0147742
817.825	0.0147350
817.903	0.0145972
817.981	0.0146008
818.059	0.0146163
818.137	0.0147407
818.215	0.0146346
818.293	0.0146065
818.371	0.0147196
818.450	0.0147822
818.528	0.0146920
818.606	0.0148261
818.684	0.0147652
818.762	0.0146952
818.840	0.0147281
818.918	0.0147390
818.996	0.0148290
819.075	0.0147687
819.153	0.0148842
819.231	0.0146333
819.309	0.0147652
819.387	0.0147301
819.465	0.0148009
819.543	0.0148684
819.621	0.0148286
819.700	0.0148186
819.778	0.0148166
819.856	0.0146082
819.934	0.0147151
820.012	0.0148901
820.090	0.0146536
820.168	0.0147178
820.246	0.0147615
820.325	0.0148027
820.403	0.0146761
820.481	0.0146669
820.559	0.0147066
820.637	0.0146779
820.715	0.0145995
820.793	0.0147497
820.871	0.0146613
820.950	0.0145597
821.028	0.0147602
821.106	0.0148367
821.184	0.0147849
821.262	0.0148560
821.340	0.0147980
821.418	0.0147934
821.496	0.0148699
821.575	0.0149178
821.653	0.0147410
821.731	0.0147575
821.809	0.0148266
821.887	0.0146973
821.965	0.0146643
822.043	0.0147453
822.121	0.0145795
822.200	0.0147198
822.278	0.0147437
822.356	0.0146822
822.434	0.0146646
822.512	0.0148180
822.590	0.0147418
822.668	0.0146490
822.746	0.0146088
822.825	0.0147333
822.903	0.0146331
822.981	0.0147829
823.059	0.0148385
823.137	0.0146822
823.215	0.0146015
823.293	0.0147551
823.371	0.0147254
823.450	0.0146706
823.528	0.0147157
823.606	0.0145912
823.684	0.0147334
823.762	0.0147852
823.840	0.0147581
823.918	0.0146622
823.996	0.0146810
824.075	0.0146521
824.153	0.0147568
824.231	0.0148559
824.309	0.0147954
824.387	0.0147375
824.465	0.0149094
824.543	0.0147849
824.621	0.0147713
824.700	0.0148810
824.778	0.0147659
824.856	0.0147254
824.934	0.0147442
825.012	0.0148061
825.090	0.0148400
825.168	0.0146487
825.246	0.0147296
825.325	0.0146648
825.403	0.0147533
825.481	0.0147205
825.559	0.0147091
825.637	0.0145973
825.715	0.0146672
825.793	0.0146727
825.871	0.0148022
825.950	0.0147318
826.028	0.0147552
826.106	0.0147938
826.184	0.0145721
826.262	0.0147002
826.340	0.0147368
826.418	0.0146915
826.496	0.0145377
826.575	0.0147478
826.653	0.0146810
826.731	0.0146808
826.809	0.0147087
826.887	0.0147885
826.965	0.0147347
827.043	0.0147979
827.121	0.0146970
827.200	0.0147620
827.278	0.0146452
827.356	0.0146815
827.434	0.0146548
827.512	0.0146973
827.590	0.0147779
827.668	0.0148419
827.746	0.0146776
827.825	0.0147530
827.903	0.0147031
827.981	0.0148304
828.059	0.0149663
828.137	0.0146996
828.215	0.0146992
828.293	0.0148138
828.371	0.0147272
828.450	0.0146449
828.528	0.0145667
828.606	0.0148789
828.684	0.0149757
828.762	0.0146805
828.840	0.0145462
828.918	0.0148642
828.996	0.0148289
829.075	0.0147402
829.153	0.0147389
829.231	0.0147597
829.309	0.0147376
829.387	0.0146723
829.465	0.0148120
829.543	0.0148683
829.621	0.0147182
829.700	0.0147553
829.778	0.0147939
829.856	0.0148383
829.934	0.0146690
830.012	0.0145914
830.090	0.0147279
830.168	0.0147928
830.246	0.0147781
830.325	0.0147574
830.403	0.0148056
830.481	0.0149177
830.559	0.0146647
830.637	0.0147544
830.715	0.0147694
830.793	0.0147364
830.871	0.0148392
830.950	0.0148734
831.028	0.0146507
831.106	0.0147301
831.184	0.0147752
831.262	0.0147389
831.340	0.0147944
831.418	0.0146971
831.496	0.0146577
831.575	0.0147360
831.653	0.0148006
831.731	0.0147543
831.809	0.0147164
831.887	0.0146420
831.965	0.0147006
832.043	0.0147226
832.121	0.0148759
832.200	0.0148567
832.278	0.0147460
832.356	0.0147787
832.434	0.0148657
832.512	0.0147423
832.590	0.0149445
832.668	0.0149880
832.746	0.0148617
832.825	0.0146965
832.903	0.0148680
832.981	0.0148551
833.059	0.0148060
833.137	0.0148232
833.215	0.0148600
833.293	0.0149555
833.371	0.0147724
833.450	0.0146978
833.528	0.0148051
833.606	0.0148512
833.684	0.0148582
833.762	0.0148185
833.840	0.0148308
833.918	0.0147180
833.996	0.0148083
834.075	0.0149157
834.153	0.0147234
834.231	0.0147551
834.309	0.0148058
834.387	0.0146577
834.465	0.0147832
834.543	0.0147309
834.621	0.0147254
834.700	0.0148724
834.778	0.0147781
834.856	0.0146803
834.934	0.0146533
835.012	0.0147775
835.090	0.0147920
835.168	0.0147057
835.246	0.0149491
835.325	0.0147800
835.403	0.0147820
835.481	0.0147514
835.559	0.0148188
835.637	0.0148013
835.715	0.0148479
835.793	0.0148303
835.871	0.0148533
835.950	0.0148162
836.028	0.0148892
836.106	0.0148471
836.184	0.0148271
836.262	0.0146915
836.340	0.0147173
836.418	0.0147191
836.496	0.0148540
836.575	0.0148224
836.653	0.0147574
836.731	0.0147334
836.809	0.0148264
836.887	0.0147762
836.965	0.0146163
837.043	0.0148070
837.121	0.0146676
837.200	0.0147305
837.278	0.0149475
837.356	0.0148273
837.434	0.0147635
837.512	0.0146294
837.590	0.0149445
837.668	0.0148870
837.746	0.0146898
837.825	0.0148370
837.903	0.0147821
837.981	0.0148015
838.059	0.0147784
838.137	0.0147657
838.215	0.0147224
838.293	0.0147907
838.371	0.0146976
838.450	0.0148267
838.528	0.0148042
838.606	0.0147398
838.684	0.0146726
838.762	0.0147797
838.840	0.0147890
838.918	0.0147538
838.996	0.0145863
839.075	0.0146322
839.153	0.0147906
839.231	0.0147390
839.309	0.0145473
839.387	0.0147390
839.465	0.0148106
839.543	0.0148058
839.621	0.0147844
839.700	0.0147485
839.778	0.0147889
839.856	0.0148343
839.934	0.0147702
840.012	0.0147984
840.090	0.0148473
840.168	0.0147020
840.246	0.0147125
840.325	0.0147533
840.403	0.0146641
840.481	0.0145804
840.559	0.0145850
840.637	0.0146474
840.715	0.0147768
840.793	0.0147647
840.871	0.0147385
840.950	0.0148451
841.028	0.0147372
841.106	0.0147767
841.184	0.0146558
841.262	0.0146278
841.340	0.0146625
841.418	0.0146960
841.496	0.0147374
841.575	0.0147029
841.653	0.0145974
841.731	0.0146198
841.809	0.0145946
841.887	0.0147246
841.965	0.0147685
842.043	0.0148322
842.121	0.0148052
842.200	0.0145894
842.278	0.0147005
842.356	0.0146989
842.434	0.0148377
842.512	0.0147567
842.590	0.0145911
842.668	0.0146511
842.746	0.0148134
842.825	0.0148132
842.903	0.0147532
842.981	0.0146844
843.059	0.0146017
843.137	0.0147593
843.215	0.0146182
843.293	0.0146250
843.371	0.0146091
843.450	0.0148135
843.528	0.0145956
843.606	0.0146478
843.684	0.0145970
843.762	0.0146770
843.840	0.0147592
843.918	0.0144579
843.996	0.0146411
844.075	0.0146735
844.153	0.0147754
844.231	0.0147210
844.309	0.0145483
844.387	0.0146698
844.465	0.0146638
844.543	0.0146973
844.621	0.0146647
844.700	0.0146954
844.778	0.0147749
844.856	0.0147060
844.934	0.0147032
845.012	0.0146933
845.090	0.0146229
845.168	0.0148397
845.246	0.0146049
845.325	0.0146885
845.403	0.0149560
845.481	0.0147149
845.559	0.0148405
845.637	0.0147351
845.715	0.0145199
845.793	0.0147509
845.871	0.0146534
845.950	0.0146396
846.028	0.0146072
846.106	0.0147166
846.184	0.0146442
846.262	0.0147025
846.340	0.0146030
846.418	0.0146516
846.496	0.0147552
846.575	0.0146781
846.653	0.0145871
846.731	0.0145878
846.809	0.0146233
846.887	0.0148122
846.965	0.0146472
847.043	0.0146819
847.121	0.0147163
847.200	0.0146336
847.278	0.0147842
847.356	0.0145594
847.434	0.0146601
847.512	0.0146896
847.590	0.0146645
847.668	0.0146214
847.746	0.0148250
847.825	0.0146394
847.903	0.0146317
847.981	0.0145256
848.059	0.0146560
848.137	0.0148232
848.215	0.0147015
848.293	0.0147163
848.371	0.0147646
848.450	0.0147071
848.528	0.0146405
848.606	0.0145568
848.684	0.0145994
848.762	0.0147908
848.840	0.0147660
848.918	0.0147245
848.996	0.0146851
849.075	0.0147250
849.153	0.0147720
849.231	0.0147678
849.309	0.0146126
849.387	0.0147162
849.465	0.0147877
849.543	0.0147649
849.621	0.0145981
849.700	0.0147961
849.778	0.0148749
849.856	0.0147580
849.934	0.0146545
850.012	0.0146741
850.090	0.0148045
850.168	0.0147309
850.246	0.0148844
850.325	0.0147728
850.403	0.0147388
850.481	0.0147497
850.559	0.0147131
850.637	0.0147745
850.715	0.0147884
850.793	0.0147171
850.871	0.0148618
850.950	0.0148454
851.028	0.0148718
851.106	0.0147924
851.184	0.0146899
851.262	0.0147791
851.340	0.0146607
851.418	0.0147267
851.496	0.0148022
851.575	0.0148445
851.653	0.0146714
851.731	0.0146732
851.809	0.0147737
851.887	0.0148063
851.965	0.0148283
852.043	0.0147070
852.121	0.0148901
852.200	0.0147472
852.278	0.0146436
852.356	0.0147182
852.434	0.0147170
852.512	0.0147612
852.590	0.0146742
852.668	0.0146880
852.746	0.0147658
852.825	0.0147396
852.903	0.0147515
852.981	0.0146692
853.059	0.0146997
853.137	0.0146268
853.215	0.0147839
853.293	0.0147347
853.371	0.0146981
853.450	0.0148032
853.528	0.0147200
853.606	0.0147593
853.684	0.0147711
853.762	0.0146468
853.840	0.0147206
853.918	0.0147692
853.996	0.0148962
854.075	0.0147546
854.153	0.0148255
854.231	0.0147500
854.309	0.0146384
854.387	0.0146790
854.465	0.0147678
854.543	0.0146640
854.621	0.0146881
854.700	0.0146484
854.778	0.0146495
854.856	0.0147875
854.934	0.0146841
855.012	0.0147243
855.090	0.0147150
855.168	0.0148178
855.246	0.0147437
855.325	0.0147398
855.403	0.0147118
855.481	0.0148494
855.559	0.0147861
855.637	0.0147856
855.715	0.0147758
855.793	0.0147379
855.871	0.0147965
855.950	0.0147489
856.028	0.0146827
856.106	0.0146738
856.184	0.0146738
856.262	0.0146941
856.340	0.0149021
856.418	0.0146862
856.496	0.0147488
856.575	0.0146970
856.653	0.0148995
856.731	0.0147321
856.809	0.0147409
856.887	0.0146496
856.965	0.0147383
857.043	0.0149141
857.121	0.0146762
857.200	0.0146808
857.278	0.0147247
857.356	0.0147379
857.434	0.0146956
857.512	0.0147771
857.590	0.0148413
857.668	0.0148154
857.746	0.0148165
857.825	0.0147038
857.903	0.0148212
857.981	0.0149106
858.059	0.0148855
858.137	0.0146851
858.215	0.0147725
858.293	0.0148594
858.371	0.0147433
858.450	0.0148551
858.528	0.0148370
858.606	0.0148104
858.684	0.0148174
858.762	0.0147747
858.840	0.0147856
858.918	0.0148147
858.996	0.0146700
859.075	0.0148452
859.153	0.0148450
859.231	0.0147092
859.309	0.0147240
859.387	0.0148206
859.465	0.0147900
859.543	0.0148131
859.621	0.0148171
859.700	0.0148132
859.778	0.0149536
859.856	0.0147771
859.934	0.0149109
860.012	0.0149426
860.090	0.0149030
860.168	0.0147271
860.246	0.0148642
860.325	0.0146750
860.403	0.0148720
860.481	0.0149133
860.559	0.0147257
860.637	0.0146699
860.715	0.0147884
860.793	0.0147940
860.871	0.0148818
860.950	0.0147800
861.028	0.0147482
861.106	0.0148612
861.184	0.0148697
861.262	0.0148449
861.340	0.0146835
861.418	0.0147034
861.496	0.0147543
861.575	0.0147131
861.653	0.0148310
861.731	0.0147560
861.809	0.0146958
861.887	0.0148253
861.965	0.0147598
862.043	0.0147768
862.121	0.0147453
862.200	0.0148186
862.278	0.0147695
862.356	0.0146513
862.434	0.0147443
862.512	0.0147248
862.590	0.0146515
862.668	0.0147832
862.746	0.0146796
862.825	0.0148042
862.903	0.0147620
862.981	0.0146579
863.059	0.0148835
863.137	0.0147943
863.215	0.0148463
863.293	0.0147398
863.371	0.0148781
863.450	0.0148711
863.528	0.0149560
863.606	0.0147275
863.684	0.0148222
863.762	0.0148606
863.840	0.0146629
863.918	0.0146960
863.996	0.0148064
864.075	0.0148935
864.153	0.0147803
864.231	0.0147367
864.309	0.0146729
864.387	0.0146621
864.465	0.0148862
864.543	0.0148374
864.621	0.0148046
864.700	0.0147465
864.778	0.0148215
864.856	0.0147262
864.934	0.0147865
865.012	0.0147578
865.090	0.0146234
865.168	0.0147860
865.246	0.0148010
865.325	0.0147227
865.403	0.0147001
865.481	0.0148676
865.559	0.0148398
865.637	0.0147484
865.715	0.0147559
865.793	0.0146320
865.871	0.0147200
865.950	0.0147913
866.028	0.0148065
866.106	0.0146347
866.184	0.0146768
866.262	0.0147295
866.340	0.0146062
866.418	0.0147771
866.496	0.0147975
866.575	0.0148158
866.653	0.0147933
866.731	0.0148296
866.809	0.0145916
866.887	0.0146126
866.965	0.0147659
867.043	0.0146962
867.121	0.0148155
867.200	0.0148428
867.278	0.0146936
867.356	0.0147146
867.434	0.0147110
867.512	0.0146828
867.590	0.0148318
867.668	0.0146830
867.746	0.0147531
867.825	0.0147375
867.903	0.0147500
867.981	0.0146876
868.059	0.0147300
868.137	0.0146575
868.215	0.0145883
868.293	0.0148002
868.371	0.0147982
868.450	0.0146960
868.528	0.0146548
868.606	0.0148056
868.684	0.0148062
868.762	0.0147546
868.840	0.0148314
868.918	0.0147300
868.996	0.0147275
869.075	0.0147561
869.153	0.0147475
869.231	0.0149483
869.309	0.0146772
869.387	0.0147760
869.465	0.0147570
869.543	0.0146957
869.621	0.0147426
869.700	0.0148203
869.778	0.0147518
869.856	0.0148616
869.934	0.0146982
870.012	0.0146354
870.090	0.0148309
870.168	0.0147726
870.246	0.0147349
870.325	0.0146030
870.403	0.0147926
870.481	0.0146815
870.559	0.0146349
870.637	0.0147126
870.715	0.0147476
870.793	0.0147188
870.871	0.0148000
870.950	0.0147478
871.028	0.0147303
871.106	0.0147060
871.184	0.0146886
871.262	0.0148194
871.340	0.0147782
871.418	0.0147968
871.496	0.0148201
871.575	0.0147019
871.653	0.0147372
871.731	0.0146857
871.809	0.0147293
871.887	0.0148283
871.965	0.0147820
872.043	0.0147426
872.121	0.0148861
872.200	0.0147851
872.278	0.0146866
872.356	0.0147305
872.434	0.0147172
872.512	0.0147842
872.590	0.0146815
872.668	0.0147041
872.746	0.0147058
872.825	0.0146195
872.903	0.0146863
872.981	0.0146431
873.059	0.0147096
873.137	0.0146671
873.215	0.0147617
873.293	0.0146170
873.371	0.0147807
873.450	0.0148829
873.528	0.0147157
873.606	0.0147160
873.684	0.0146794
873.762	0.0146455
873.840	0.0146530
873.918	0.0147774
873.996	0.0147269
874.075	0.0146017
874.153	0.0147099
874.231	0.0147187
874.309	0.0147099
874.387	0.0148525
874.465	0.0147643
874.543	0.0148112
874.621	0.0147088
874.700	0.0146841
874.778	0.0147302
874.856	0.0147955
874.934	0.0148097
875.012	0.0148105
875.090	0.0147588
875.168	0.0147421
875.246	0.0148084
875.325	0.0147520
875.403	0.0146978
875.481	0.0147914
875.559	0.0148504
875.637	0.0147044
875.715	0.0146343
875.793	0.0146004
875.871	0.0146264
875.950	0.0147133
876.028	0.0146722
876.106	0.0146312
876.184	0.0146541
876.262	0.0147712
876.340	0.0147126
876.418	0.0146478
876.496	0.0147114
876.575	0.0148231
876.653	0.0146759
876.731	0.0148217
876.809	0.0148177
876.887	0.0146961
876.965	0.0147505
877.043	0.0147813
877.121	0.0148287
877.200	0.0147256
877.278	0.0146460
877.356	0.0149100
877.434	0.0148620
877.512	0.0147180
877.590	0.0146561
877.668	0.0147885
877.746	0.0148866
877.825	0.0147632
877.903	0.0148515
877.981	0.0148936
878.059	0.0148427
878.137	0.0147307
878.215	0.0148747
878.293	0.0147324
878.371	0.0148242
878.450	0.0147032
878.528	0.0148660
878.606	0.0148879
878.684	0.0147722
878.762	0.0147510
878.840	0.0147491
878.918	0.0147205
878.996	0.0147919
879.075	0.0147986
879.153	0.0147519
879.231	0.0148367
879.309	0.0148740
879.387	0.0148434
879.465	0.0148334
879.543	0.0147905
879.621	0.0148523
879.700	0.0149262
879.778	0.0147999
879.856	0.0147523
879.934	0.0148778
880.012	0.0148564
880.090	0.0147719
880.168	0.0148319
880.246	0.0149341
880.325	0.0147403
880.403	0.0147250
880.481	0.0146659
880.559	0.0147787
880.637	0.0146052
880.715	0.0146916
880.793	0.0148591
880.871	0.0148270
880.950	0.0146114
881.028	0.0147069
881.106	0.0147129
881.184	0.0148242
881.262	0.0148298
881.340	0.0146875
881.418	0.0148415
881.496	0.0147586
881.575	0.0146512
881.653	0.0147153
881.731	0.0148746
881.809	0.0148300
881.887	0.0147747
881.965	0.0146279
882.043	0.0147686
882.121	0.0146677
882.200	0.0148136
882.278	0.0147247
882.356	0.0148388
882.434	0.0147677
882.512	0.0148663
882.590	0.0147037
882.668	0.0148361
882.746	0.0148430
882.825	0.0148537
882.903	0.0149020
882.981	0.0147474
883.059	0.0147437
883.137	0.0147670
883.215	0.0148181
883.293	0.0148102
883.371	0.0146111
883.450	0.0147595
883.528	0.0147165
883.606	0.0147874
883.684	0.0148352
883.762	0.0147456
883.840	0.0148820
883.918	0.0148244
883.996	0.0148745
884.075	0.0148770
884.153	0.0146043
884.231	0.0146719
884.309	0.0145686
884.387	0.0147939
884.465	0.0146991
884.543	0.0146473
884.621	0.0147343
884.700	0.0147934
884.778	0.0146877
884.856	0.0145723
884.934	0.0146420
885.012	0.0147575
885.090	0.0145789
885.168	0.0146981
885.246	0.0147832
885.325	0.0147375
885.403	0.0146986
885.481	0.0148296
885.559	0.0147427
885.637	0.0148862
885.715	0.0147842
885.793	0.0147480
885.871	0.0147330
885.950	0.0149080
886.028	0.0146025
886.106	0.0147129
886.184	0.0149123
886.262	0.0147044
886.340	0.0147024
886.418	0.0148555
886.496	0.0147800
886.575	0.0147042
886.653	0.0146976
886.731	0.0147175
886.809	0.0146600
886.887	0.0147352
886.965	0.0147806
887.043	0.0146298
887.121	0.0147566
887.200	0.0147147
887.278	0.0148607
887.356	0.0147578
887.434	0.0147250
887.512	0.0148264
887.590	0.0147669
887.668	0.0148137
887.746	0.0146672
887.825	0.0146976
887.903	0.0147750
887.981	0.0145572
888.059	0.0147421
888.137	0.0147099
888.215	0.0146275
888.293	0.0146161
888.371	0.0146710
888.450	0.0145750
888.528	0.0147002
888.606	0.0147512
888.684	0.0146313
888.762	0.0146373
888.840	0.0146362
888.918	0.0146717
888.996	0.0147973
889.075	0.0149234
889.153	0.0147075
889.231	0.0147363
889.309	0.0146522
889.387	0.0147155
889.465	0.0147772
889.543	0.0147533
889.621	0.0148006
889.700	0.0149330
889.778	0.0148267
889.856	0.0148064
889.934	0.0147295
890.012	0.0147317
890.090	0.0146328
890.168	0.0147653
890.246	0.0149102
890.325	0.0148084
890.403	0.0147469
890.481	0.0148017
890.559	0.0147220
890.637	0.0148235
890.715	0.0146953
890.793	0.0147437
890.871	0.0148058
890.950	0.0146465
891.028	0.0146400
891.106	0.0147864
891.184	0.0148068
891.262	0.0147803
891.340	0.0147101
891.418	0.0146361
891.496	0.0146329
891.575	0.0147563
891.653	0.0146991
891.731	0.0148020
891.809	0.0148251
891.887	0.0149042
891.965	0.0147969
892.043	0.0147912
892.121	0.0146100
892.200	0.0148311
892.278	0.0148866
892.356	0.0148415
892.434	0.0147917
892.512	0.0147752
892.590	0.0147157
892.668	0.0147629
892.746	0.0147886
892.825	0.0145358
892.903	0.0146852
892.981	0.0147445
893.059	0.0147305
893.137	0.0148545
893.215	0.0147736
893.293	0.0147108
893.371	0.0147220
893.450	0.0146580
893.528	0.0146111
893.606	0.0146969
893.684	0.0147446
893.762	0.0146954
893.840	0.0146540
893.918	0.0146522
893.996	0.0146790
894.075	0.0146796
894.153	0.0146450
894.231	0.0146791
894.309	0.0147074
894.387	0.0147887
894.465	0.0146918
894.543	0.0146280
894.621	0.0146089
894.700	0.0147166
894.778	0.0147263
894.856	0.0146252
894.934	0.0147704
895.012	0.0147080
895.090	0.0147070
895.168	0.0148078
895.246	0.0146614
895.325	0.0147310
895.403	0.0147105
895.481	0.0147661
895.559	0.0147382
895.637	0.0147105
895.715	0.0147242
895.793	0.0146915
895.871	0.0146956
895.950	0.0147952
896.028	0.0147002
896.106	0.0147424
896.184	0.0146848
896.262	0.0146078
896.340	0.0147050
896.418	0.0146839
896.496	0.0146414
896.575	0.0146138
896.653	0.0146767
896.731	0.0145975
896.809	0.0147118
896.887	0.0146726
896.965	0.0146690
897.043	0.0147558
897.121	0.0147375
897.200	0.0148386
897.278	0.0146893
897.356	0.0146930
897.434	0.0147584
897.512	0.0148279
897.590	0.0146837
897.668	0.0147122
897.746	0.0148225
897.825	0.0147540
897.903	0.0147293
897.981	0.0147485
898.059	0.0146869
898.137	0.0145357
898.215	0.0146334
898.293	0.0147075
898.371	0.0146223
898.450	0.0147269
898.528	0.0145740
898.606	0.0147074
898.684	0.0148191
898.762	0.0148003
898.840	0.0146371
898.918	0.0147863
898.996	0.0146751
899.075	0.0146809
899.153	0.0146640
899.231	0.0147099
899.309	0.0148044
899.387	0.0146752
899.465	0.0147366
899.543	0.0147035
899.621	0.0147016
899.700	0.0148161
899.778	0.0148191
899.856	0.0147034
899.934	0.0145679
900.012	0.0147384
900.090	0.0147925
900.168	0.0147244
900.246	0.0148709
900.325	0.0147917
900.403	0.0147295
900.481	0.0147651
900.559	0.0147219
900.637	0.0147681
900.715	0.0148686
900.793	0.0147852
900.871	0.0146546
900.950	0.0148038
901.028	0.0146947
901.106	0.0148156
901.184	0.0147517
901.262	0.0148278
901.340	0.0148048
901.418	0.0147956
901.496	0.0147471
901.575	0.0146835
901.653	0.0147234
901.731	0.0147454
901.809	0.0148221
901.887	0.0147855
901.965	0.0148100
902.043	0.0147873
902.121	0.0147445
902.200	0.0147237
902.278	0.0147837
902.356	0.0147569
902.434	0.0146480
902.512	0.0146730
902.590	0.0148907
902.668	0.0148118
902.746	0.0147552
902.825	0.0146956
902.903	0.0147855
902.981	0.0146426
903.059	0.0147832
903.137	0.0147489
903.215	0.0147274
903.293	0.0147245
903.371	0.0146681
903.450	0.0147210
903.528	0.0147993
903.606	0.0147693
903.684	0.0147336
903.762	0.0146971
903.840	0.0148952
903.918	0.0147909
903.996	0.0147695
904.075	0.0147179
904.153	0.0148235
904.231	0.0148090
904.309	0.0147687
904.387	0.0147810
904.465	0.0148491
904.543	0.0147792
904.621	0.0147796
904.700	0.0147859
904.778	0.0148112
904.856	0.0148679
904.934	0.0146899
905.012	0.0146060
905.090	0.0146602
905.168	0.0147534
905.246	0.0148363
905.325	0.0146561
905.403	0.0147318
905.481	0.0145850
905.559	0.0147961
905.637	0.0146749
905.715	0.0147461
905.793	0.0146773
905.871	0.0147787
905.950	0.0147163
906.028	0.0147058
906.106	0.0147015
906.184	0.0148045
906.262	0.0146878
906.340	0.0147787
906.418	0.0146591
906.496	0.0148166
906.575	0.0148074
906.653	0.0147045
906.731	0.0147447
906.809	0.0148409
906.887	0.0148660
906.965	0.0146560
907.043	0.0148042
907.121	0.0147644
907.200	0.0148319
907.278	0.0147909
907.356	0.0147625
907.434	0.0148470
907.512	0.0147417
907.590	0.0148939
907.668	0.0148700
907.746	0.0146600
907.825	0.0147374
907.903	0.0148892
907.981	0.0147601
908.059	0.0147398
908.137	0.0148135
908.215	0.0147848
908.293	0.0145660
908.371	0.0147595
908.450	0.0147692
908.528	0.0147590
908.606	0.0147565
908.684	0.0146365
908.762	0.0146985
908.840	0.0147561
908.918	0.0147250
908.996	0.0146649
909.075	0.0147694
909.153	0.0145468
909.231	0.0146240
909.309	0.0146754
909.387	0.0147349
909.465	0.0147032
909.543	0.0147935
909.621	0.0147662
909.700	0.0148502
909.778	0.0148713
909.856	0.0147264
909.934	0.0147211
910.012	0.0148420
910.090	0.0147812
910.168	0.0147659
910.246	0.0147258
910.325	0.0147434
910.403	0.0148436
910.481	0.0146873
910.559	0.0147104
910.637	0.0147913
910.715	0.0149372
910.793	0.0147620
910.871	0.0147455
910.950	0.0146829
911.028	0.0147572
911.106	0.0148136
911.184	0.0147790
911.262	0.0146509
911.340	0.0147929
911.418	0.0145866
911.496	0.0147482
911.575	0.0145612
911.653	0.0146631
911.731	0.0147118
911.809	0.0146687
911.887	0.0147250
911.965	0.0146674
912.043	0.0146799
912.121	0.0147511
912.200	0.0147241
912.278	0.0145447
912.356	0.0147021
912.434	0.0148943
912.512	0.0147046
912.590	0.0147613
912.668	0.0147120
912.746	0.0147564
912.825	0.0148463
912.903	0.0147185
912.981	0.0147490
913.059	0.0147308
913.137	0.0147128
913.215	0.0146428
913.293	0.0148260
913.371	0.0147276
913.450	0.0146761
913.528	0.0146060
913.606	0.0145901
913.684	0.0145867
913.762	0.0146863
913.840	0.0146786
913.918	0.0146717
913.996	0.0147952
914.075	0.0147390
914.153	0.0146581
914.231	0.0146880
914.309	0.0146574
914.387	0.0146828
914.465	0.0145764
914.543	0.0147719
914.621	0.0147019
914.700	0.0147643
914.778	0.0148371
914.856	0.0146854
914.934	0.0147957
915.012	0.0146876
915.090	0.0148031
915.168	0.0147413
915.246	0.0148475
915.325	0.0149483
915.403	0.0147703
915.481	0.0149244
915.559	0.0148920
915.637	0.0148428
915.715	0.0147803
915.793	0.0147445
915.871	0.0147223
915.950	0.0147327
916.028	0.0147596
916.106	0.0146962
916.184	0.0146809
916.262	0.0146933
916.340	0.0146575
916.418	0.0147227
916.496	0.0146907
916.575	0.0145966
916.653	0.0145905
916.731	0.0145592
916.809	0.0147121
916.887	0.0148334
916.965	0.0147602
917.043	0.0144851
917.121	0.0146610
917.200	0.0146262
917.278	0.0146442
917.356	0.0148428
917.434	0.0147142
917.512	0.0146855
917.590	0.0146848
917.668	0.0146169
917.746	0.0147247
917.825	0.0145598
917.903	0.0146299
917.981	0.0146793
918.059	0.0146104
918.137	0.0146626
918.215	0.0146481
918.293	0.0146937
918.371	0.0146824
918.450	0.0145794
918.528	0.0146388
918.606	0.0145745
918.684	0.0145837
918.762	0.0147266
918.840	0.0147459
918.918	0.0147856
918.996	0.0146906
919.075	0.0145821
919.153	0.0146766
919.231	0.0145435
919.309	0.0146024
919.387	0.0146116
919.465	0.0147382
919.543	0.0147442
919.621	0.0146898
919.700	0.0146140
919.778	0.0147255
919.856	0.0147028
919.934	0.0147110
920.012	0.0148460
920.090	0.0148008
920.168	0.0147427
920.246	0.0146936
920.325	0.0148318
920.403	0.0146717
920.481	0.0146683
920.559	0.0147456
920.637	0.0148073
920.715	0.0146272
920.793	0.0149251
920.871	0.0148200
920.950	0.0148669
921.028	0.0149540
921.106	0.0147904
921.184	0.0146484
921.262	0.0146613
921.340	0.0147463
921.418	0.0147770
921.496	0.0148187
921.575	0.0148279
921.653	0.0146397
921.731	0.0146472
921.809	0.0147307
921.887	0.0148076
921.965	0.0147652
922.043	0.0147402
922.121	0.0147664
922.200	0.0146482
922.278	0.0148301
922.356	0.0147286
922.434	0.0146903
922.512	0.0146774
922.590	0.0147731
922.668	0.0147346
922.746	0.0146941
922.825	0.0146746
922.903	0.0146801
922.981	0.0148071
923.059	0.0146866
923.137	0.0145820
923.215	0.0147321
923.293	0.0148278
923.371	0.0147500
923.450	0.0146914
923.528	0.0146913
923.606	0.0147103
923.684	0.0148153
923.762	0.0147018
923.840	0.0148077
923.918	0.0147606
923.996	0.0147459
924.075	0.0147868
924.153	0.0147118
924.231	0.0147750
924.309	0.0147189
924.387	0.0148246
924.465	0.0149448
924.543	0.0147856
924.621	0.0148483
924.700	0.0145778
924.778	0.0147725
924.856	0.0148701
924.934	0.0147704
925.012	0.0147852
925.090	0.0148624
925.168	0.0147787
925.246	0.0148958
925.325	0.0148195
925.403	0.0148321
925.481	0.0146576
925.559	0.0147722
925.637	0.0148431
925.715	0.0146486
925.793	0.0147203
925.871	0.0148302
925.950	0.0147945
926.028	0.0146236
926.106	0.0146544
926.184	0.0147852
926.262	0.0148289
926.340	0.0147520
926.418	0.0147152
926.496	0.0146966
926.575	0.0145919
926.653	0.0146188
926.731	0.0147746
926.809	0.0147204
926.887	0.0145189
926.965	0.0146885
927.043	0.0148214
927.121	0.0147870
927.200	0.0146104
927.278	0.0147182
927.356	0.0147685
927.434	0.0146754
927.512	0.0146966
927.590	0.0146194
927.668	0.0145963
927.746	0.0148142
927.825	0.0145200
927.903	0.0147072
927.981	0.0146592
928.059	0.0145712
928.137	0.0147554
928.215	0.0147224
928.293	0.0147639
928.371	0.0148534
928.450	0.0147571
928.528	0.0147382
928.606	0.0146960
928.684	0.0146578
928.762	0.0146273
928.840	0.0147381
928.918	0.0146627
928.996	0.0146478
929.075	0.0146583
929.153	0.0148186
929.231	0.0147570
929.309	0.0146556
929.387	0.0146034
929.465	0.0146735
929.543	0.0147511
929.621	0.0148669
929.700	0.0146587
929.778	0.0148175
929.856	0.0146577
929.934	0.0146170
930.012	0.0146792
930.090	0.0146700
930.168	0.0146231
930.246	0.0148221
930.325	0.0147421
930.403	0.0146816
930.481	0.0148309
930.559	0.0147121
930.637	0.0148984
930.715	0.0148552
930.793	0.0148933
930.871	0.0148387
930.950	0.0149235
931.028	0.0147364
931.106	0.0147798
931.184	0.0147945
931.262	0.0148526
931.340	0.0147413
931.418	0.0147732
931.496	0.0147932
931.575	0.0146238
931.653	0.0147408
931.731	0.0147687
931.809	0.0146200
931.887	0.0146748
931.965	0.0146033
932.043	0.0146252
932.121	0.0145992
932.200	0.0147523
932.278	0.0147276
932.356	0.0146984
932.434	0.0146255
932.512	0.0146193
932.590	0.0146233
932.668	0.0145614
932.746	0.0145355
932.825	0.0146127
932.903	0.0144873
932.981	0.0144769
933.059	0.0147256
933.137	0.0146634
933.215	0.0146569
933.293	0.0148171
933.371	0.0148222
933.450	0.0146516
933.528	0.0146185
933.606	0.0147476
933.684	0.0148343
933.762	0.0147205
933.840	0.0147403
933.918	0.0148002
933.996	0.0146873
934.075	0.0146988
934.153	0.0148050
934.231	0.0148103
934.309	0.0147142
934.387	0.0148318
934.465	0.0147639
934.543	0.0147718
934.621	0.0145772
934.700	0.0145204
934.778	0.0146835
934.856	0.0146339
934.934	0.0146210
935.012	0.0146996
935.090	0.0146008
935.168	0.0145920
935.246	0.0146461
935.325	0.0145277
935.403	0.0144942
935.481	0.0145567
935.559	0.0147269
935.637	0.0146967
935.715	0.0147556
935.793	0.0146620
935.871	0.0146034
935.950	0.0147082
936.028	0.0147175
936.106	0.0147053
936.184	0.0149310
936.262	0.0147152
936.340	0.0147245
936.418	0.0146938
936.496	0.0147215
936.575	0.0146301
936.653	0.0147079
936.731	0.0147346
936.809	0.0146119
936.887	0.0147324
936.965	0.0147387
937.043	0.0145197
937.121	0.0146381
937.200	0.0146195
937.278	0.0146651
937.356	0.0146386
937.434	0.0146063
937.512	0.0146457
937.590	0.0146802
937.668	0.0146919
937.746	0.0147307
937.825	0.0146714
937.903	0.0148248
937.981	0.0147247
938.059	0.0146830
938.137	0.0146288
938.215	0.0145470
938.293	0.0145739
938.371	0.0147454
938.450	0.0147864
938.528	0.0146025
938.606	0.0146737
938.684	0.0147078
938.762	0.0146797
938.840	0.0146815
938.918	0.0145853
938.996	0.0147054
939.075	0.0148056
939.153	0.0148318
939.231	0.0146902
939.309	0.0148028
939.387	0.0147584
939.465	0.0145349
939.543	0.0147237
939.621	0.0146759
939.700	0.0146478
939.778	0.0148052
939.856	0.0147035
939.934	0.0147163
940.012	0.0148219
940.090	0.0148907
940.168	0.0149693
940.246	0.0147412
940.325	0.0148383
940.403	0.0148552
940.481	0.0147427
940.559	0.0148638
940.637	0.0147920
940.715	0.0146829
940.793	0.0147326
940.871	0.0148122
940.950	0.0146459
941.028	0.0146758
941.106	0.0146732
941.184	0.0147092
941.262	0.0145853
941.340	0.0146309
941.418	0.0145671
941.496	0.0148454
941.575	0.0148831
941.653	0.0148198
941.731	0.0147322
941.809	0.0148595
941.887	0.0148434
941.965	0.0147486
942.043	0.0147923
942.121	0.0149580
942.200	0.0148251
942.278	0.0147900
942.356	0.0147736
942.434	0.0147627
942.512	0.0148016
942.590	0.0147816
942.668	0.0146784
942.746	0.0148146
942.825	0.0146873
942.903	0.0146747
942.981	0.0147268
943.059	0.0148014
943.137	0.0147272
943.215	0.0146548
943.293	0.0146603
943.371	0.0146915
943.450	0.0145117
943.528	0.0147358
943.606	0.0148430
943.684	0.0146061
943.762	0.0145396
943.840	0.0147636
943.918	0.0146857
943.996	0.0148391
944.075	0.0148187
944.153	0.0148024
944.231	0.0147614
944.309	0.0148096
944.387	0.0148158
944.465	0.0148533
944.543	0.0147138
944.621	0.0146947
944.700	0.0148551
944.778	0.0146819
944.856	0.0147213
944.934	0.0148738
945.012	0.0147830
945.090	0.0145428
945.168	0.0148016
945.246	0.0148756
945.325	0.0147125
945.403	0.0148362
945.481	0.0148019
945.559	0.0146747
945.637	0.0147024
945.715	0.0148241
945.793	0.0148409
945.871	0.0148154
945.950	0.0148904
946.028	0.0147344
946.106	0.0148013
946.184	0.0149323
946.262	0.0148122
946.340	0.0146590
946.418	0.0148576
946.496	0.0147322
946.575	0.0147221
946.653	0.0148177
946.731	0.0146531
946.809	0.0147360
946.887	0.0147359
946.965	0.0147063
947.043	0.0146056
947.121	0.0146474
947.200	0.0147041
947.278	0.0145803
947.356	0.0145490
947.434	0.0145354
947.512	0.0146439
947.590	0.0146173
947.668	0.0146040
947.746	0.0145657
947.825	0.0146478
947.903	0.0145391
947.981	0.0146138
948.059	0.0146590
948.137	0.0146680
948.215	0.0147408
948.293	0.0147151
948.371	0.0147634
948.450	0.0148656
948.528	0.0147137
948.606	0.0147422
948.684	0.0147768
948.762	0.0148619
948.840	0.0147478
948.918	0.0147907
948.996	0.0147388
949.075	0.0147385
949.153	0.0148586
949.231	0.0147063
949.309	0.0146284
949.387	0.0146769
949.465	0.0146160
949.543	0.0146515
949.621	0.0147050
949.700	0.0146450
949.778	0.0147201
949.856	0.0145509
949.934	0.0147978
950.012	0.0146918
950.090	0.0147813
950.168	0.0147310
950.246	0.0146866
950.325	0.0147620
950.403	0.0147388
950.481	0.0146541
950.559	0.0147363
950.637	0.0149250
950.715	0.0148749
950.793	0.0147404
950.871	0.0147734
950.950	0.0147946
951.028	0.0147217
951.106	0.0148251
951.184	0.0148178
951.262	0.0147459
951.340	0.0147318
951.418	0.0147617
951.496	0.0147533
951.575	0.0146124
951.653	0.0148476
951.731	0.0148277
951.809	0.0147613
951.887	0.0147927
951.965	0.0148329
952.043	0.0145926
952.121	0.0147853
952.200	0.0147845
952.278	0.0146471
952.356	0.0147027
952.434	0.0147321
952.512	0.0148064
952.590	0.0148497
952.668	0.0147115
952.746	0.0146270
952.825	0.0146998
952.903	0.0146750
952.981	0.0147336
953.059	0.0148032
953.137	0.0148396
953.215	0.0147756
953.293	0.0146673
953.371	0.0146159
953.450	0.0146519
953.528	0.0147136
953.606	0.0148473
953.684	0.0147920
953.762	0.0146873
953.840	0.0148447
953.918	0.0147594
953.996	0.0148204
954.075	0.0146832
954.153	0.0147761
954.231	0.0147827
954.309	0.0148347
954.387	0.0148467
954.465	0.0146622
954.543	0.0147379
954.621	0.0145901
954.700	0.0147035
954.778	0.0148875
954.856	0.0147416
954.934	0.0148719
955.012	0.0147903
955.090	0.0146674
955.168	0.0147196
955.246	0.0147735
955.325	0.0147748
955.403	0.0148612
955.481	0.0147234
955.559	0.0146424
955.637	0.0148711
955.715	0.0148230
955.793	0.0149149
955.871	0.0147543
955.950	0.0145593
956.028	0.0146972
956.106	0.0147081
956.184	0.0146932
956.262	0.0148038
956.340	0.0146635
956.418	0.0146542
956.496	0.0146382
956.575	0.0147524
956.653	0.0146827
956.731	0.0148235
956.809	0.0147548
956.887	0.0146112
956.965	0.0145849
957.043	0.0146792
957.121	0.0147098
957.200	0.0147545
957.278	0.0146163
957.356	0.0145595
957.434	0.0146391
957.512	0.0147131
957.590	0.0145925
957.668	0.0146786
957.746	0.0146342
957.825	0.0145512
957.903	0.0146743
957.981	0.0146189
958.059	0.0147547
958.137	0.0147189
958.215	0.0146386
958.293	0.0146484
958.371	0.0147085
958.450	0.0146286
958.528	0.0146812
958.606	0.0148135
958.684	0.0147604
958.762	0.0147219
958.840	0.0147193
958.918	0.0147118
958.996	0.0147851
959.075	0.0148839
959.153	0.0147895
959.231	0.0147860
959.309	0.0146389
959.387	0.0147372
959.465	0.0147169
959.543	0.0146524
959.621	0.0147979
959.700	0.0147865
959.778	0.0146108
959.856	0.0146916
959.934	0.0147767
960.012	0.0147602
960.090	0.0147222
960.168	0.0147790
960.246	0.0146360
960.325	0.0146972
960.403	0.0147302
960.481	0.0146482
960.559	0.0146935
960.637	0.0148672
960.715	0.0148094
960.793	0.0145240
960.871	0.0146680
960.950	0.0146978
961.028	0.0147443
961.106	0.0148734
961.184	0.0146206
961.262	0.0147518
961.340	0.0147478
961.418	0.0146232
961.496	0.0147302
961.575	0.0145789
961.653	0.0146195
961.731	0.0146516
961.809	0.0146992
961.887	0.0146568
961.965	0.0146966
962.043	0.0147185
962.121	0.0146861
962.200	0.0146404
962.278	0.0146766
962.356	0.0147279
962.434	0.0146744
962.512	0.0147221
962.590	0.0147501
962.668	0.0148224
962.746	0.0147337
962.825	0.0146942
962.903	0.0146422
962.981	0.0147513
963.059	0.0146576
963.137	0.0146808
963.215	0.0146577
963.293	0.0146246
963.371	0.0147137
963.450	0.0146327
963.528	0.0146857
963.606	0.0147422
963.684	0.0146797
963.762	0.0147658
963.840	0.0146414
963.918	0.0147335
963.996	0.0147753
964.075	0.0147107
964.153	0.0146613
964.231	0.0147433
964.309	0.0146987
964.387	0.0146774
964.465	0.0146938
964.543	0.0147040
964.621	0.0147496
964.700	0.0147729
964.778	0.0147513
964.856	0.0146278
964.934	0.0146224
965.012	0.0148203
965.090	0.0146651
965.168	0.0146561
965.246	0.0148103
965.325	0.0148605
965.403	0.0147867
965.481	0.0147025
965.559	0.0148093
965.637	0.0147131
965.715	0.0146980
965.793	0.0148086
965.871	0.0146371
965.950	0.0146742
966.028	0.0146172
966.106	0.0145532
966.184	0.0146111
966.262	0.0146684
966.340	0.0146712
966.418	0.0145918
966.496	0.0146906
966.575	0.0146384
966.653	0.0146175
966.731	0.0147860
966.809	0.0147225
966.887	0.0147041
966.965	0.0146874
967.043	0.0146562
967.121	0.0146832
967.200	0.0147549
967.278	0.0147553
967.356	0.0148126
967.434	0.0148560
967.512	0.0147252
967.590	0.0148132
967.668	0.0147604
967.746	0.0147388
967.825	0.0146362
967.903	0.0146803
967.981	0.0147520
968.059	0.0146179
968.137	0.0147725
968.215	0.0146983
968.293	0.0148311
968.371	0.0147208
968.450	0.0146716
968.528	0.0145608
968.606	0.0146857
968.684	0.0147316
968.762	0.0146995
968.840	0.0147335
968.918	0.0148300
968.996	0.0146877
969.075	0.0146422
969.153	0.0146762
969.231	0.0147284
969.309	0.0147856
969.387	0.0146909
969.465	0.0146894
969.543	0.0147629
969.621	0.0147426
969.700	0.0148236
969.778	0.0148723
969.856	0.0147140
969.934	0.0146758
970.012	0.0148724
970.090	0.0148437
970.168	0.0147658
970.246	0.0148060
970.325	0.0148635
970.403	0.0147041
970.481	0.0147749
970.559	0.0147084
970.637	0.0146725
970.715	0.0146982
970.793	0.0147676
970.871	0.0148781
970.950	0.0147412
971.028	0.0145589
971.106	0.0147466
971.184	0.0147749
971.262	0.0148000
971.340	0.0148008
971.418	0.0147575
971.496	0.0145736
971.575	0.0147684
971.653	0.0146797
971.731	0.0147767
971.809	0.0147959
971.887	0.0147784
971.965	0.0147769
972.043	0.0147396
972.121	0.0146334
972.200	0.0146888
972.278	0.0147915
972.356	0.0146619
972.434	0.0147523
972.512	0.0147632
972.590	0.0147788
972.668	0.0147952
972.746	0.0147349
972.825	0.0147234
972.903	0.0145771
972.981	0.0146712
973.059	0.0147580
973.137	0.0147926
973.215	0.0147641
973.293	0.0147804
973.371	0.0146825
973.450	0.0147787
973.528	0.0146842
973.606	0.0147168
973.684	0.0146560
973.762	0.0146926
973.840	0.0147780
973.918	0.0146761
973.996	0.0148254
974.075	0.0147260
974.153	0.0146862
974.231	0.0144631
974.309	0.0146426
974.387	0.0147274
974.465	0.0146291
974.543	0.0148243
974.621	0.0146533
974.700	0.0147046
974.778	0.0147391
974.856	0.0146447
974.934	0.0147404
975.012	0.0146837
975.090	0.0148109
975.168	0.0146788
975.246	0.0147361
975.325	0.0148540
975.403	0.0148215
975.481	0.0145842
975.559	0.0147277
975.637	0.0147966
975.715	0.0147014
975.793	0.0147157
975.871	0.0146227
975.950	0.0147692
976.028	0.0146761
976.106	0.0147176
976.184	0.0147409
976.262	0.0148672
976.340	0.0148129
976.418	0.0146518
976.496	0.0146935
976.575	0.0146745
976.653	0.0147179
976.731	0.0147746
976.809	0.0147203
976.887	0.0145971
976.965	0.0145686
977.043	0.0146661
977.121	0.0146684
977.200	0.0146684
977.278	0.0146818
977.356	0.0146986
977.434	0.0147027
977.512	0.0147038
977.590	0.0147890
977.668	0.0147216
977.746	0.0146999
977.825	0.0147102
977.903	0.0146561
977.981	0.0147852
978.059	0.0146564
978.137	0.0147063
978.215	0.0148068
978.293	0.0146024
978.371	0.0145808
978.450	0.0146569
978.528	0.0147206
978.606	0.0147622
978.684	0.0148854
978.762	0.0147508
978.840	0.0147681
978.918	0.0148005
978.996	0.0146096
979.075	0.0147337
979.153	0.0148696
979.231	0.0148643
979.309	0.0147078
979.387	0.0147135
979.465	0.0147604
979.543	0.0147577
979.621	0.0146695
979.700	0.0148341
979.778	0.0146911
979.856	0.0148643
979.934	0.0147841
980.012	0.0147113
980.090	0.0147023
980.168	0.0147739
980.246	0.0146210
980.325	0.0146861
980.403	0.0148031
980.481	0.0147356
980.559	0.0146133
980.637	0.0147562
980.715	0.0148172
980.793	0.0147128
980.871	0.0148309
980.950	0.0147383
981.028	0.0146889
981.106	0.0146159
981.184	0.0146688
981.262	0.0146855
981.340	0.0147077
981.418	0.0146030
981.496	0.0147287
981.575	0.0146217
981.653	0.0146448
981.731	0.0145991
981.809	0.0146128
981.887	0.0145441
981.965	0.0147711
982.043	0.0148303
982.121	0.0144644
982.200	0.0145222
982.278	0.0145739
982.356	0.0146165
982.434	0.0145728
982.512	0.0145782
982.590	0.0146233
982.668	0.0146339
982.746	0.0146009
982.825	0.0146866
982.903	0.0146466
982.981	0.0147247
983.059	0.0146287
983.137	0.0147252
983.215	0.0146375
983.293	0.0145856
983.371	0.0147900
983.450	0.0148035
983.528	0.0146988
983.606	0.0147588
983.684	0.0147746
983.762	0.0148662
983.840	0.0147164
983.918	0.0147241
983.996	0.0146490
984.075	0.0147785
984.153	0.0147859
984.231	0.0146984
984.309	0.0146700
984.387	0.0147369
984.465	0.0146766
984.543	0.0147427
984.621	0.0146024
984.700	0.0146824
984.778	0.0146672
984.856	0.0146674
984.934	0.0146484
985.012	0.0147061
985.090	0.0146655
985.168	0.0147215
985.246	0.0146059
985.325	0.0148301
985.403	0.0147477
985.481	0.0147396
985.559	0.0147535
985.637	0.0146894
985.715	0.0146791
985.793	0.0147691
985.871	0.0147491
985.950	0.0147974
986.028	0.0147642
986.106	0.0147801
986.184	0.0147933
986.262	0.0146724
986.340	0.0147361
986.418	0.0148354
986.496	0.0148339
986.575	0.0146608
986.653	0.0146874
986.731	0.0146920
986.809	0.0148299
986.887	0.0147604
986.965	0.0145721
987.043	0.0147906
987.121	0.0147055
987.200	0.0148449
987.278	0.0147956
987.356	0.0148090
987.434	0.0148484
987.512	0.0149049
987.590	0.0147432
987.668	0.0148917
987.746	0.0148135
987.825	0.0148462
987.903	0.0147601
987.981	0.0147887
988.059	0.0147604
988.137	0.0149313
988.215	0.0148101
988.293	0.0147293
988.371	0.0146909
988.450	0.0147748
988.528	0.0148164
988.606	0.0147035
988.684	0.0147874
988.762	0.0147803
988.840	0.0147900
988.918	0.0148778
988.996	0.0147141
989.075	0.0147398
989.153	0.0146453
989.231	0.0148733
989.309	0.0147643
989.387	0.0146741
989.465	0.0146936
989.543	0.0148176
989.621	0.0148627
989.700	0.0148070
989.778	0.0148005
989.856	0.0148146
989.934	0.0147208
990.012	0.0148614
990.090	0.0149456
990.168	0.0147197
990.246	0.0147220
990.325	0.0147868
990.403	0.0149371
990.481	0.0147549
990.559	0.0148151
990.637	0.0147116
990.715	0.0147964
990.793	0.0148715
990.871	0.0149060
990.950	0.0147802
991.028	0.0148213
991.106	0.0148531
991.184	0.0147681
991.262	0.0148296
991.340	0.0148341
991.418	0.0149603
991.496	0.0148560
991.575	0.0147795
991.653	0.0147263
991.731	0.0146294
991.809	0.0147930
991.887	0.0147287
991.965	0.0146146
992.043	0.0147359
992.121	0.0146562
992.200	0.0146423
992.278	0.0147189
992.356	0.0146248
992.434	0.0146458
992.512	0.0147099
992.590	0.0147266
992.668	0.0146951
992.746	0.0147125
992.825	0.0147276
992.903	0.0146659
992.981	0.0147981
993.059	0.0146915
993.137	0.0147871
993.215	0.0147438
993.293	0.0147725
993.371	0.0147596
993.450	0.0148441
993.528	0.0147469
993.606	0.0147833
993.684	0.0147704
993.762	0.0147690
993.840	0.0148242
993.918	0.0147955
993.996	0.0147747
994.075	0.0147362
994.153	0.0147056
994.231	0.0148329
994.309	0.0147222
994.387	0.0148048
994.465	0.0147440
994.543	0.0146327
994.621	0.0147884
994.700	0.0147363
994.778	0.0148393
994.856	0.0146901
994.934	0.0147614
995.012	0.0148197
995.090	0.0148079
995.168	0.0147194
995.246	0.0148275
995.325	0.0148583
995.403	0.0147243
995.481	0.0148251
995.559	0.0146487
995.637	0.0148255
995.715	0.0147774
995.793	0.0146315
995.871	0.0147580
995.950	0.0147269
996.028	0.0146530
996.106	0.0146194
996.184	0.0145831
996.262	0.0147481
996.340	0.0147465
996.418	0.0147323
996.496	0.0146025
996.575	0.0146867
996.653	0.0146325
996.731	0.0147246
996.809	0.0146461
996.887	0.0148182
996.965	0.0147335
997.043	0.0146964
997.121	0.0146992
997.200	0.0147537
997.278	0.0147881
997.356	0.0147849
997.434	0.0147646
997.512	0.0147293
997.590	0.0148688
997.668	0.0147334
997.746	0.0147806
997.825	0.0146890
997.903	0.0147181
997.981	0.0147408
998.059	0.0148065
998.137	0.0147646
998.215	0.0146980
998.293	0.0148434
998.371	0.0147102
998.450	0.0146501
998.528	0.0146974
998.606	0.0147434
998.684	0.0147931
998.762	0.0147247
998.840	0.0147310
998.918	0.0148400
