05/04/2022	21:34:38	Ver.	4.1	UNKNOWN
Optical Delay	678.996401	Delta X		0.078125	Sweeps	1	Scan Rate	0/0
Coordinates	Axis 1	NaN	Axis 2	NaN	Axis 3	NaN	Axis 4	NaN	Axis 5	NaN	Axis 6	0.000000
TX Power	0.000000	RX Power	0.000000

678.996	0.0142854
679.075	0.0142859
679.153	0.0143533
679.231	0.0143851
679.309	0.0142527
679.387	0.0143621
679.465	0.0143961
679.543	0.0142815
679.621	0.0143619
679.700	0.0142540
679.778	0.0142983
679.856	0.0142542
679.934	0.0143633
680.012	0.0144273
680.090	0.0142870
680.168	0.0143414
680.246	0.0145096
680.325	0.0143295
680.403	0.0143485
680.481	0.0143713
680.559	0.0144794
680.637	0.0143684
680.715	0.0144788
680.793	0.0143507
680.871	0.0143238
680.950	0.0143588
681.028	0.0142841
681.106	0.0142207
681.184	0.0143440
681.262	0.0143387
681.340	0.0144128
681.418	0.0142004
681.496	0.0143076
681.575	0.0143578
681.653	0.0143323
681.731	0.0143814
681.809	0.0143697
681.887	0.0142439
681.965	0.0143419
682.043	0.0142345
682.121	0.0141641
682.200	0.0142892
682.278	0.0142667
682.356	0.0142679
682.434	0.0142705
682.512	0.0142854
682.590	0.0143877
682.668	0.0144743
682.746	0.0145088
682.825	0.0143752
682.903	0.0144274
682.981	0.0143487
683.059	0.0144202
683.137	0.0142745
683.215	0.0142540
683.293	0.0144972
683.371	0.0143224
683.450	0.0143192
683.528	0.0145145
683.606	0.0144807
683.684	0.0146276
683.762	0.0145013
683.840	0.0142677
683.918	0.0143573
683.996	0.0142155
684.075	0.0141832
684.153	0.0141573
684.231	0.0140189
684.309	0.0141535
684.387	0.0143149
684.465	0.0142175
684.543	0.0141959
684.621	0.0142834
684.700	0.0141994
684.778	0.0143465
684.856	0.0143419
684.934	0.0143027
685.012	0.0142519
685.090	0.0141698
685.168	0.0142618
685.246	0.0142812
685.325	0.0142541
685.403	0.0143480
685.481	0.0143395
685.559	0.0144816
685.637	0.0145668
685.715	0.0144590
685.793	0.0145664
685.871	0.0146714
685.950	0.0146310
686.028	0.0144229
686.106	0.0143338
686.184	0.0145327
686.262	0.0145203
686.340	0.0143860
686.418	0.0142262
686.496	0.0140622
686.575	0.0141396
686.653	0.0140763
686.731	0.0139272
686.809	0.0138992
686.887	0.0137801
686.965	0.0138979
687.043	0.0137157
687.121	0.0138576
687.200	0.0138822
687.278	0.0138712
687.356	0.0141299
687.434	0.0142625
687.512	0.0142845
687.590	0.0143287
687.668	0.0143970
687.746	0.0144332
687.825	0.0144881
687.903	0.0144212
687.981	0.0145221
688.059	0.0145364
688.137	0.0145790
688.215	0.0146014
688.293	0.0146998
688.371	0.0145831
688.450	0.0145530
688.528	0.0144880
688.606	0.0144987
688.684	0.0144193
688.762	0.0142775
688.840	0.0142769
688.918	0.0144228
688.996	0.0144060
689.075	0.0143223
689.153	0.0143510
689.231	0.0143211
689.309	0.0143428
689.387	0.0142759
689.465	0.0142466
689.543	0.0143636
689.621	0.0141257
689.700	0.0140654
689.778	0.0140028
689.856	0.0139852
689.934	0.0138943
690.012	0.0139603
690.090	0.0138512
690.168	0.0140665
690.246	0.0140720
690.325	0.0141989
690.403	0.0142454
690.481	0.0143416
690.559	0.0141447
690.637	0.0142903
690.715	0.0143408
690.793	0.0144009
690.871	0.0143432
690.950	0.0142974
691.028	0.0143965
691.106	0.0144543
691.184	0.0144797
691.262	0.0143342
691.340	0.0144408
691.418	0.0144790
691.496	0.0144693
691.575	0.0144580
691.653	0.0144223
691.731	0.0143527
691.809	0.0143759
691.887	0.0145589
691.965	0.0143584
692.043	0.0143260
692.121	0.0144641
692.200	0.0144780
692.278	0.0143520
692.356	0.0144501
692.434	0.0142958
692.512	0.0144343
692.590	0.0142776
692.668	0.0141203
692.746	0.0140000
692.825	0.0140462
692.903	0.0140812
692.981	0.0140226
693.059	0.0138962
693.137	0.0139413
693.215	0.0139776
693.293	0.0139783
693.371	0.0139874
693.450	0.0141240
693.528	0.0141956
693.606	0.0140238
693.684	0.0140941
693.762	0.0142730
693.840	0.0141331
693.918	0.0141277
693.996	0.0141516
694.075	0.0142827
694.153	0.0143370
694.231	0.0144189
694.309	0.0145280
694.387	0.0147287
694.465	0.0145898
694.543	0.0147115
694.621	0.0146755
694.700	0.0147520
694.778	0.0145429
694.856	0.0146072
694.934	0.0145559
695.012	0.0146656
695.090	0.0147099
695.168	0.0145035
695.246	0.0144902
695.325	0.0144398
695.403	0.0145629
695.481	0.0144221
695.559	0.0145940
695.637	0.0145063
695.715	0.0144022
695.793	0.0143620
695.871	0.0142444
695.950	0.0141122
696.028	0.0141010
696.106	0.0138961
696.184	0.0140415
696.262	0.0138395
696.340	0.0138378
696.418	0.0139362
696.496	0.0139287
696.575	0.0139925
696.653	0.0140409
696.731	0.0141093
696.809	0.0140308
696.887	0.0139675
696.965	0.0140439
697.043	0.0141102
697.121	0.0142686
697.200	0.0141505
697.278	0.0139791
697.356	0.0143137
697.434	0.0143584
697.512	0.0143264
697.590	0.0143670
697.668	0.0144756
697.746	0.0145074
697.825	0.0146045
697.903	0.0146318
697.981	0.0146564
698.059	0.0144877
698.137	0.0146333
698.215	0.0147070
698.293	0.0146781
698.371	0.0148631
698.450	0.0147268
698.528	0.0146642
698.606	0.0146869
698.684	0.0146848
698.762	0.0145601
698.840	0.0144815
698.918	0.0145043
698.996	0.0143922
699.075	0.0143173
699.153	0.0142506
699.231	0.0140826
699.309	0.0140144
699.387	0.0139755
699.465	0.0139102
699.543	0.0138496
699.621	0.0137987
699.700	0.0137976
699.778	0.0140390
699.856	0.0141067
699.934	0.0140994
700.012	0.0141514
700.090	0.0140263
700.168	0.0142061
700.246	0.0143041
700.325	0.0142618
700.403	0.0143531
700.481	0.0143095
700.559	0.0143639
700.637	0.0144686
700.715	0.0145106
700.793	0.0142683
700.871	0.0143842
700.950	0.0145219
701.028	0.0145290
701.106	0.0145737
701.184	0.0145126
701.262	0.0145240
701.340	0.0146770
701.418	0.0146738
701.496	0.0146912
701.575	0.0147738
701.653	0.0147301
701.731	0.0147340
701.809	0.0147156
701.887	0.0145927
701.965	0.0148464
702.043	0.0146101
702.121	0.0144793
702.200	0.0143868
702.278	0.0143859
702.356	0.0142715
702.434	0.0141751
702.512	0.0141430
702.590	0.0141533
702.668	0.0140952
702.746	0.0141599
702.825	0.0140192
702.903	0.0139767
702.981	0.0140808
703.059	0.0140190
703.137	0.0140419
703.215	0.0140331
703.293	0.0139582
703.371	0.0139449
703.450	0.0140202
703.528	0.0139025
703.606	0.0139086
703.684	0.0139121
703.762	0.0140138
703.840	0.0141341
703.918	0.0141463
703.996	0.0141904
704.075	0.0143300
704.153	0.0143983
704.231	0.0144181
704.309	0.0146974
704.387	0.0147097
704.465	0.0149140
704.543	0.0148244
704.621	0.0147778
704.700	0.0148824
704.778	0.0147914
704.856	0.0148407
704.934	0.0147305
705.012	0.0146819
705.090	0.0147340
705.168	0.0145290
705.246	0.0145094
705.325	0.0142645
705.403	0.0142509
705.481	0.0142018
705.559	0.0142204
705.637	0.0140495
705.715	0.0140737
705.793	0.0141608
705.871	0.0140848
705.950	0.0139841
706.028	0.0141675
706.106	0.0142715
706.184	0.0143031
706.262	0.0141631
706.340	0.0142819
706.418	0.0142709
706.496	0.0142530
706.575	0.0142798
706.653	0.0142146
706.731	0.0141479
706.809	0.0142636
706.887	0.0141970
706.965	0.0142220
707.043	0.0139984
707.121	0.0142055
707.200	0.0142277
707.278	0.0141797
707.356	0.0141992
707.434	0.0143050
707.512	0.0143336
707.590	0.0142731
707.668	0.0143288
707.746	0.0144198
707.825	0.0143521
707.903	0.0145111
707.981	0.0145074
708.059	0.0145075
708.137	0.0144101
708.215	0.0143879
708.293	0.0144325
708.371	0.0144431
708.450	0.0144405
708.528	0.0143722
708.606	0.0144319
708.684	0.0145136
708.762	0.0144660
708.840	0.0144889
708.918	0.0144331
708.996	0.0145760
709.075	0.0145712
709.153	0.0145805
709.231	0.0144421
709.309	0.0144523
709.387	0.0144404
709.465	0.0143252
709.543	0.0139781
709.621	0.0140538
709.700	0.0140795
709.778	0.0137572
709.856	0.0137523
709.934	0.0138465
710.012	0.0138551
710.090	0.0137788
710.168	0.0138009
710.246	0.0138799
710.325	0.0137588
710.403	0.0139252
710.481	0.0140836
710.559	0.0140496
710.637	0.0141279
710.715	0.0140794
710.793	0.0142856
710.871	0.0143391
710.950	0.0144183
711.028	0.0144022
711.106	0.0146237
711.184	0.0146780
711.262	0.0145927
711.340	0.0146926
711.418	0.0147286
711.496	0.0145702
711.575	0.0146254
711.653	0.0145897
711.731	0.0146371
711.809	0.0145587
711.887	0.0144518
711.965	0.0144667
712.043	0.0144009
712.121	0.0144502
712.200	0.0142599
712.278	0.0143963
712.356	0.0143793
712.434	0.0142360
712.512	0.0141402
712.590	0.0142599
712.668	0.0140851
712.746	0.0141254
712.825	0.0141148
712.903	0.0140957
712.981	0.0140429
713.059	0.0140779
713.137	0.0140518
713.215	0.0142320
713.293	0.0141396
713.371	0.0140936
713.450	0.0141312
713.528	0.0141316
713.606	0.0141621
713.684	0.0142635
713.762	0.0143465
713.840	0.0142220
713.918	0.0141665
713.996	0.0141756
714.075	0.0144073
714.153	0.0143039
714.231	0.0142085
714.309	0.0141538
714.387	0.0142333
714.465	0.0144202
714.543	0.0143520
714.621	0.0143066
714.700	0.0142731
714.778	0.0144957
714.856	0.0146216
714.934	0.0144116
715.012	0.0144127
715.090	0.0143561
715.168	0.0143407
715.246	0.0144640
715.325	0.0144019
715.403	0.0144188
715.481	0.0144762
715.559	0.0143124
715.637	0.0144270
715.715	0.0143107
715.793	0.0142701
715.871	0.0142766
715.950	0.0144729
716.028	0.0143623
716.106	0.0143208
716.184	0.0144299
716.262	0.0142684
716.340	0.0141551
716.418	0.0141418
716.496	0.0141800
716.575	0.0142479
716.653	0.0142142
716.731	0.0141493
716.809	0.0141063
716.887	0.0140520
716.965	0.0141101
717.043	0.0141651
717.121	0.0141177
717.200	0.0140769
717.278	0.0140722
717.356	0.0142190
717.434	0.0142368
717.512	0.0142701
717.590	0.0142834
717.668	0.0142417
717.746	0.0143763
717.825	0.0143151
717.903	0.0144044
717.981	0.0144936
718.059	0.0144543
718.137	0.0145548
718.215	0.0145205
718.293	0.0146001
718.371	0.0143772
718.450	0.0144350
718.528	0.0146284
718.606	0.0146443
718.684	0.0145923
718.762	0.0145423
718.840	0.0145896
718.918	0.0144412
718.996	0.0143444
719.075	0.0143458
719.153	0.0143565
719.231	0.0143726
719.309	0.0140350
719.387	0.0143436
719.465	0.0142002
719.543	0.0142545
719.621	0.0143461
719.700	0.0140796
719.778	0.0141560
719.856	0.0142426
719.934	0.0140334
720.012	0.0140220
720.090	0.0140945
720.168	0.0142935
720.246	0.0140748
720.325	0.0140060
720.403	0.0141313
720.481	0.0140424
720.559	0.0141415
720.637	0.0141886
720.715	0.0143843
720.793	0.0143220
720.871	0.0142860
720.950	0.0143002
721.028	0.0144375
721.106	0.0144035
721.184	0.0141605
721.262	0.0143537
721.340	0.0144479
721.418	0.0145235
721.496	0.0144800
721.575	0.0143877
721.653	0.0143272
721.731	0.0143434
721.809	0.0144110
721.887	0.0144100
721.965	0.0144265
722.043	0.0144930
722.121	0.0141961
722.200	0.0142612
722.278	0.0142902
722.356	0.0143073
722.434	0.0141825
722.512	0.0142236
722.590	0.0143318
722.668	0.0144170
722.746	0.0143385
722.825	0.0143460
722.903	0.0143747
722.981	0.0144438
723.059	0.0142988
723.137	0.0143922
723.215	0.0142673
723.293	0.0144083
723.371	0.0142977
723.450	0.0142706
723.528	0.0140892
723.606	0.0140851
723.684	0.0142533
723.762	0.0142007
723.840	0.0141051
723.918	0.0139277
723.996	0.0140051
724.075	0.0141029
724.153	0.0139725
724.231	0.0140932
724.309	0.0142902
724.387	0.0143564
724.465	0.0142525
724.543	0.0144067
724.621	0.0143108
724.700	0.0143023
724.778	0.0143757
724.856	0.0143395
724.934	0.0144077
725.012	0.0144035
725.090	0.0145510
725.168	0.0144258
725.246	0.0144039
725.325	0.0144529
725.403	0.0144647
725.481	0.0144668
725.559	0.0145274
725.637	0.0145750
725.715	0.0145662
725.793	0.0144111
725.871	0.0144998
725.950	0.0144953
726.028	0.0143657
726.106	0.0143879
726.184	0.0143778
726.262	0.0141301
726.340	0.0140714
726.418	0.0140325
726.496	0.0139970
726.575	0.0139510
726.653	0.0140543
726.731	0.0138983
726.809	0.0139632
726.887	0.0140228
726.965	0.0141089
727.043	0.0139703
727.121	0.0140630
727.200	0.0142007
727.278	0.0142340
727.356	0.0143262
727.434	0.0144241
727.512	0.0144363
727.590	0.0145065
727.668	0.0144319
727.746	0.0144395
727.825	0.0145006
727.903	0.0143853
727.981	0.0145374
728.059	0.0145081
728.137	0.0144104
728.215	0.0142891
728.293	0.0145378
728.371	0.0144539
728.450	0.0144234
728.528	0.0143519
728.606	0.0144882
728.684	0.0146287
728.762	0.0142945
728.840	0.0143076
728.918	0.0143524
728.996	0.0144278
729.075	0.0143632
729.153	0.0143038
729.231	0.0142658
729.309	0.0142574
729.387	0.0143187
729.465	0.0142169
729.543	0.0142236
729.621	0.0142636
729.700	0.0142946
729.778	0.0143587
729.856	0.0143168
729.934	0.0142571
730.012	0.0142878
730.090	0.0142657
730.168	0.0143495
730.246	0.0143872
730.325	0.0145445
730.403	0.0143346
730.481	0.0143489
730.559	0.0142795
730.637	0.0143006
730.715	0.0143172
730.793	0.0142845
730.871	0.0142625
730.950	0.0143583
731.028	0.0141879
731.106	0.0142896
731.184	0.0142619
731.262	0.0142189
731.340	0.0141760
731.418	0.0141259
731.496	0.0144207
731.575	0.0143172
731.653	0.0144080
731.731	0.0144414
731.809	0.0142930
731.887	0.0142988
731.965	0.0143566
732.043	0.0144114
732.121	0.0144728
732.200	0.0145660
732.278	0.0144498
732.356	0.0144862
732.434	0.0144341
732.512	0.0144262
732.590	0.0144643
732.668	0.0145728
732.746	0.0142906
732.825	0.0144326
732.903	0.0143212
732.981	0.0144096
733.059	0.0142761
733.137	0.0143695
733.215	0.0142720
733.293	0.0143146
733.371	0.0144167
733.450	0.0141308
733.528	0.0142081
733.606	0.0142088
733.684	0.0141071
733.762	0.0141310
733.840	0.0141349
733.918	0.0139981
733.996	0.0139517
734.075	0.0140104
734.153	0.0140840
734.231	0.0142215
734.309	0.0140666
734.387	0.0141525
734.465	0.0142435
734.543	0.0144646
734.621	0.0144299
734.700	0.0144371
734.778	0.0146661
734.856	0.0145351
734.934	0.0144415
735.012	0.0145635
735.090	0.0145587
735.168	0.0146344
735.246	0.0147931
735.325	0.0146099
735.403	0.0145303
735.481	0.0144488
735.559	0.0144479
735.637	0.0143883
735.715	0.0143995
735.793	0.0143422
735.871	0.0143881
735.950	0.0141805
736.028	0.0141740
736.106	0.0141936
736.184	0.0141866
736.262	0.0142538
736.340	0.0141105
736.418	0.0141235
736.496	0.0141469
736.575	0.0141956
736.653	0.0141097
736.731	0.0140868
736.809	0.0141877
736.887	0.0142860
736.965	0.0143346
737.043	0.0142713
737.121	0.0142744
737.200	0.0143626
737.278	0.0142982
737.356	0.0142239
737.434	0.0143648
737.512	0.0143462
737.590	0.0143996
737.668	0.0144875
737.746	0.0143617
737.825	0.0144476
737.903	0.0143453
737.981	0.0144269
738.059	0.0144331
738.137	0.0144077
738.215	0.0143597
738.293	0.0143452
738.371	0.0142717
738.450	0.0143793
738.528	0.0144118
738.606	0.0143562
738.684	0.0143405
738.762	0.0142339
738.840	0.0142170
738.918	0.0142274
738.996	0.0142627
739.075	0.0143134
739.153	0.0142387
739.231	0.0143396
739.309	0.0143301
739.387	0.0142610
739.465	0.0142605
739.543	0.0144965
739.621	0.0144020
739.700	0.0143491
739.778	0.0142558
739.856	0.0143813
739.934	0.0144097
740.012	0.0143273
740.090	0.0144513
740.168	0.0142439
740.246	0.0144197
740.325	0.0142998
740.403	0.0142443
740.481	0.0141988
740.559	0.0142561
740.637	0.0144101
740.715	0.0142032
740.793	0.0142656
740.871	0.0143060
740.950	0.0142633
741.028	0.0143170
741.106	0.0142386
741.184	0.0142382
741.262	0.0143794
741.340	0.0143241
741.418	0.0142429
741.496	0.0143141
741.575	0.0143529
741.653	0.0143683
741.731	0.0144602
741.809	0.0143335
741.887	0.0141643
741.965	0.0142667
742.043	0.0143098
742.121	0.0143229
742.200	0.0142013
742.278	0.0143149
742.356	0.0143026
742.434	0.0143244
742.512	0.0144109
742.590	0.0144212
742.668	0.0143681
742.746	0.0144789
742.825	0.0142455
742.903	0.0144344
742.981	0.0143781
743.059	0.0144183
743.137	0.0143106
743.215	0.0141919
743.293	0.0143356
743.371	0.0144349
743.450	0.0142571
743.528	0.0140940
743.606	0.0142520
743.684	0.0141756
743.762	0.0142298
743.840	0.0142119
743.918	0.0142747
743.996	0.0141407
744.075	0.0142380
744.153	0.0142135
744.231	0.0141798
744.309	0.0142731
744.387	0.0142785
744.465	0.0142760
744.543	0.0142983
744.621	0.0142666
744.700	0.0144170
744.778	0.0142712
744.856	0.0142680
744.934	0.0144067
745.012	0.0142921
745.090	0.0144196
745.168	0.0142999
745.246	0.0144100
745.325	0.0144379
745.403	0.0143204
745.481	0.0144134
745.559	0.0143106
745.637	0.0144249
745.715	0.0144857
745.793	0.0143400
745.871	0.0142767
745.950	0.0142696
746.028	0.0142262
746.106	0.0142832
746.184	0.0141509
746.262	0.0141395
746.340	0.0141911
746.418	0.0143353
746.496	0.0141867
746.575	0.0140189
746.653	0.0141582
746.731	0.0140733
746.809	0.0141545
746.887	0.0141103
746.965	0.0142092
747.043	0.0142521
747.121	0.0141723
747.200	0.0141143
747.278	0.0142085
747.356	0.0143951
747.434	0.0142728
747.512	0.0142892
747.590	0.0143375
747.668	0.0143597
747.746	0.0143606
747.825	0.0143288
747.903	0.0143456
747.981	0.0144620
748.059	0.0143249
748.137	0.0144765
748.215	0.0143999
748.293	0.0143672
748.371	0.0143206
748.450	0.0142368
748.528	0.0143204
748.606	0.0143580
748.684	0.0142007
748.762	0.0143242
748.840	0.0141199
748.918	0.0142498
748.996	0.0141298
749.075	0.0142267
749.153	0.0144257
749.231	0.0141631
749.309	0.0143017
749.387	0.0141562
749.465	0.0143437
749.543	0.0142901
749.621	0.0141773
749.700	0.0143021
749.778	0.0142704
749.856	0.0143787
749.934	0.0143342
750.012	0.0144369
750.090	0.0141915
750.168	0.0142648
750.246	0.0142168
750.325	0.0143336
750.403	0.0142466
750.481	0.0143258
750.559	0.0143745
750.637	0.0144073
750.715	0.0143019
750.793	0.0142328
750.871	0.0142532
750.950	0.0144445
751.028	0.0143330
751.106	0.0141829
751.184	0.0142355
751.262	0.0143649
751.340	0.0143854
751.418	0.0142627
751.496	0.0141058
751.575	0.0144137
751.653	0.0143732
751.731	0.0143376
751.809	0.0144130
751.887	0.0141927
751.965	0.0144553
752.043	0.0144202
752.121	0.0142990
752.200	0.0142942
752.278	0.0143152
752.356	0.0142265
752.434	0.0143475
752.512	0.0143207
752.590	0.0142918
752.668	0.0143771
752.746	0.0144775
752.825	0.0144789
752.903	0.0143813
752.981	0.0144839
753.059	0.0144102
753.137	0.0144883
753.215	0.0142986
753.293	0.0143965
753.371	0.0145269
753.450	0.0143227
753.528	0.0144388
753.606	0.0143047
753.684	0.0142823
753.762	0.0143111
753.840	0.0142893
753.918	0.0143512
753.996	0.0142150
754.075	0.0141806
754.153	0.0142130
754.231	0.0143758
754.309	0.0141905
754.387	0.0140805
754.465	0.0142017
754.543	0.0141438
754.621	0.0142178
754.700	0.0142622
754.778	0.0143127
754.856	0.0142570
754.934	0.0143292
755.012	0.0144588
755.090	0.0144978
755.168	0.0143767
755.246	0.0144481
755.325	0.0145399
755.403	0.0144296
755.481	0.0143354
755.559	0.0142838
755.637	0.0144563
755.715	0.0144662
755.793	0.0144843
755.871	0.0144032
755.950	0.0143578
756.028	0.0144631
756.106	0.0143542
756.184	0.0144097
756.262	0.0143428
756.340	0.0143217
756.418	0.0142916
756.496	0.0142659
756.575	0.0142770
756.653	0.0142223
756.731	0.0143126
756.809	0.0143593
756.887	0.0141525
756.965	0.0142934
757.043	0.0142458
757.121	0.0142186
757.200	0.0142722
757.278	0.0142637
757.356	0.0143479
757.434	0.0143741
757.512	0.0142728
757.590	0.0143693
757.668	0.0142957
757.746	0.0143400
757.825	0.0144163
757.903	0.0144083
757.981	0.0143848
758.059	0.0144504
758.137	0.0144637
758.215	0.0143619
758.293	0.0144242
758.371	0.0144125
758.450	0.0143867
758.528	0.0144467
758.606	0.0143350
758.684	0.0142966
758.762	0.0143592
758.840	0.0143365
758.918	0.0142372
758.996	0.0143431
759.075	0.0143452
759.153	0.0141135
759.231	0.0141587
759.309	0.0142846
759.387	0.0143359
759.465	0.0142336
759.543	0.0143681
759.621	0.0143884
759.700	0.0143475
759.778	0.0142580
759.856	0.0143908
759.934	0.0144532
760.012	0.0143166
760.090	0.0143256
760.168	0.0143285
760.246	0.0143327
760.325	0.0142747
760.403	0.0144884
760.481	0.0143736
760.559	0.0143175
760.637	0.0144308
760.715	0.0144163
760.793	0.0142384
760.871	0.0143813
760.950	0.0143305
761.028	0.0143428
761.106	0.0143132
761.184	0.0143179
761.262	0.0142825
761.340	0.0142778
761.418	0.0142079
761.496	0.0141965
761.575	0.0141831
761.653	0.0143416
761.731	0.0143082
761.809	0.0142448
761.887	0.0143145
761.965	0.0144333
762.043	0.0142210
762.121	0.0142542
762.200	0.0142536
762.278	0.0142612
762.356	0.0143138
762.434	0.0142415
762.512	0.0143492
762.590	0.0143060
762.668	0.0144521
762.746	0.0143593
762.825	0.0144854
762.903	0.0143197
762.981	0.0142731
763.059	0.0144330
763.137	0.0142970
763.215	0.0144169
763.293	0.0143185
763.371	0.0143392
763.450	0.0143510
763.528	0.0141638
763.606	0.0142194
763.684	0.0143447
763.762	0.0142620
763.840	0.0143115
763.918	0.0143084
763.996	0.0141785
764.075	0.0143372
764.153	0.0142741
764.231	0.0142351
764.309	0.0143698
764.387	0.0142327
764.465	0.0143513
764.543	0.0143889
764.621	0.0142730
764.700	0.0142381
764.778	0.0142950
764.856	0.0143585
764.934	0.0142041
765.012	0.0144015
765.090	0.0143788
765.168	0.0142434
765.246	0.0143402
765.325	0.0143199
765.403	0.0141962
765.481	0.0142808
765.559	0.0143796
765.637	0.0142297
765.715	0.0144184
765.793	0.0145824
765.871	0.0143941
765.950	0.0143718
766.028	0.0143517
766.106	0.0142665
766.184	0.0143581
766.262	0.0142848
766.340	0.0142897
766.418	0.0143346
766.496	0.0142597
766.575	0.0142366
766.653	0.0141753
766.731	0.0142410
766.809	0.0141423
766.887	0.0142950
766.965	0.0143838
767.043	0.0143337
767.121	0.0142349
767.200	0.0142867
767.278	0.0144065
767.356	0.0142673
767.434	0.0143406
767.512	0.0144257
767.590	0.0143758
767.668	0.0142855
767.746	0.0144323
767.825	0.0142788
767.903	0.0142818
767.981	0.0143636
768.059	0.0142812
768.137	0.0143271
768.215	0.0143895
768.293	0.0142908
768.371	0.0141766
768.450	0.0142203
768.528	0.0143467
768.606	0.0142242
768.684	0.0142456
768.762	0.0143621
768.840	0.0142973
768.918	0.0142194
768.996	0.0143963
769.075	0.0143335
769.153	0.0143432
769.231	0.0142374
769.309	0.0142984
769.387	0.0142503
769.465	0.0143298
769.543	0.0144034
769.621	0.0142410
769.700	0.0142669
769.778	0.0143174
769.856	0.0141681
769.934	0.0143393
770.012	0.0142205
770.090	0.0143464
770.168	0.0143192
770.246	0.0143634
770.325	0.0142596
770.403	0.0143021
770.481	0.0144353
770.559	0.0143996
770.637	0.0142770
770.715	0.0143230
770.793	0.0142914
770.871	0.0142152
770.950	0.0143171
771.028	0.0145251
771.106	0.0143828
771.184	0.0143280
771.262	0.0142374
771.340	0.0142456
771.418	0.0143887
771.496	0.0143292
771.575	0.0142867
771.653	0.0142411
771.731	0.0143925
771.809	0.0143578
771.887	0.0142176
771.965	0.0143994
772.043	0.0142352
772.121	0.0142589
772.200	0.0143892
772.278	0.0141955
772.356	0.0143399
772.434	0.0143004
772.512	0.0144253
772.590	0.0143411
772.668	0.0143784
772.746	0.0142047
772.825	0.0142030
772.903	0.0142773
772.981	0.0142875
773.059	0.0142276
773.137	0.0144120
773.215	0.0143166
773.293	0.0142930
773.371	0.0145331
773.450	0.0144783
773.528	0.0143607
773.606	0.0142504
773.684	0.0143300
773.762	0.0142673
773.840	0.0143989
773.918	0.0142913
773.996	0.0142832
774.075	0.0144013
774.153	0.0143220
774.231	0.0142123
774.309	0.0142349
774.387	0.0144551
774.465	0.0143170
774.543	0.0142731
774.621	0.0142954
774.700	0.0143407
774.778	0.0143179
774.856	0.0143281
774.934	0.0144279
775.012	0.0144175
775.090	0.0143156
775.168	0.0142921
775.246	0.0142719
775.325	0.0142812
775.403	0.0143401
775.481	0.0144257
775.559	0.0142699
775.637	0.0143371
775.715	0.0142597
775.793	0.0142027
775.871	0.0143282
775.950	0.0144213
776.028	0.0142917
776.106	0.0142358
776.184	0.0142302
776.262	0.0142775
776.340	0.0143820
776.418	0.0142607
776.496	0.0142619
776.575	0.0142352
776.653	0.0143437
776.731	0.0143322
776.809	0.0143522
776.887	0.0143887
776.965	0.0143469
777.043	0.0144508
777.121	0.0143001
777.200	0.0143759
777.278	0.0143862
777.356	0.0142682
777.434	0.0143244
777.512	0.0143900
777.590	0.0143141
777.668	0.0143481
777.746	0.0142172
777.825	0.0142486
777.903	0.0142836
777.981	0.0143340
778.059	0.0143195
778.137	0.0142657
778.215	0.0142947
778.293	0.0143639
778.371	0.0143976
778.450	0.0142767
778.528	0.0143027
778.606	0.0143012
778.684	0.0143044
778.762	0.0143271
778.840	0.0141987
778.918	0.0142986
778.996	0.0143873
779.075	0.0142175
779.153	0.0143111
779.231	0.0143296
779.309	0.0143934
779.387	0.0143139
779.465	0.0143597
779.543	0.0142825
779.621	0.0143188
779.700	0.0143852
779.778	0.0143528
779.856	0.0144192
779.934	0.0144695
780.012	0.0142979
780.090	0.0143727
780.168	0.0143729
780.246	0.0144390
780.325	0.0144063
780.403	0.0142773
780.481	0.0142985
780.559	0.0143780
780.637	0.0144423
780.715	0.0143005
780.793	0.0142820
780.871	0.0142435
780.950	0.0144011
781.028	0.0142191
781.106	0.0141878
781.184	0.0142807
781.262	0.0143052
781.340	0.0141840
781.418	0.0142473
781.496	0.0144084
781.575	0.0143678
781.653	0.0143195
781.731	0.0143459
781.809	0.0143612
781.887	0.0145197
781.965	0.0143681
782.043	0.0143027
782.121	0.0143782
782.200	0.0144173
782.278	0.0143246
782.356	0.0143079
782.434	0.0143302
782.512	0.0142481
782.590	0.0142465
782.668	0.0143404
782.746	0.0142982
782.825	0.0142241
782.903	0.0141766
782.981	0.0142701
783.059	0.0142804
783.137	0.0142715
783.215	0.0143060
783.293	0.0142155
783.371	0.0143753
783.450	0.0142668
783.528	0.0143595
783.606	0.0144188
783.684	0.0142442
783.762	0.0142738
783.840	0.0142395
783.918	0.0143697
783.996	0.0143452
784.075	0.0143782
784.153	0.0143888
784.231	0.0143799
784.309	0.0142844
784.387	0.0141814
784.465	0.0143264
784.543	0.0143461
784.621	0.0143543
784.700	0.0144114
784.778	0.0144068
784.856	0.0143494
784.934	0.0143267
785.012	0.0143650
785.090	0.0143807
785.168	0.0143425
785.246	0.0143732
785.325	0.0144043
785.403	0.0143124
785.481	0.0143692
785.559	0.0143444
785.637	0.0143982
785.715	0.0142432
785.793	0.0143481
785.871	0.0144245
785.950	0.0143859
786.028	0.0144453
786.106	0.0142902
786.184	0.0143346
786.262	0.0142963
786.340	0.0142427
786.418	0.0143940
786.496	0.0143572
786.575	0.0142776
786.653	0.0143576
786.731	0.0142590
786.809	0.0143636
786.887	0.0145219
786.965	0.0143528
787.043	0.0143261
787.121	0.0144060
787.200	0.0143048
787.278	0.0143534
787.356	0.0143742
787.434	0.0142284
787.512	0.0144133
787.590	0.0143167
787.668	0.0143694
787.746	0.0143373
787.825	0.0142709
787.903	0.0142231
787.981	0.0142796
788.059	0.0144086
788.137	0.0142461
788.215	0.0143953
788.293	0.0142789
788.371	0.0145102
788.450	0.0143888
788.528	0.0142963
788.606	0.0143991
788.684	0.0144696
788.762	0.0143893
788.840	0.0143175
788.918	0.0143663
788.996	0.0143237
789.075	0.0144220
789.153	0.0143082
789.231	0.0142724
789.309	0.0144889
789.387	0.0143725
789.465	0.0143605
789.543	0.0143497
789.621	0.0143859
789.700	0.0143151
789.778	0.0144235
789.856	0.0144041
789.934	0.0144466
790.012	0.0144485
790.090	0.0143485
790.168	0.0144037
790.246	0.0142603
790.325	0.0143109
790.403	0.0144137
790.481	0.0143206
790.559	0.0144310
790.637	0.0143913
790.715	0.0143790
790.793	0.0143752
790.871	0.0142554
790.950	0.0143157
791.028	0.0144287
791.106	0.0142822
791.184	0.0143444
791.262	0.0143597
791.340	0.0142516
791.418	0.0143124
791.496	0.0143463
791.575	0.0142997
791.653	0.0143143
791.731	0.0142690
791.809	0.0142534
791.887	0.0143430
791.965	0.0143856
792.043	0.0144157
792.121	0.0144733
792.200	0.0144392
792.278	0.0143045
792.356	0.0143311
792.434	0.0143115
792.512	0.0142635
792.590	0.0142766
792.668	0.0141967
792.746	0.0143007
792.825	0.0144275
792.903	0.0143075
792.981	0.0143518
793.059	0.0143205
793.137	0.0142402
793.215	0.0142841
793.293	0.0142047
793.371	0.0143024
793.450	0.0143716
793.528	0.0143037
793.606	0.0143845
793.684	0.0143950
793.762	0.0142470
793.840	0.0142612
793.918	0.0143723
793.996	0.0143287
794.075	0.0144569
794.153	0.0145031
794.231	0.0142542
794.309	0.0142397
794.387	0.0142507
794.465	0.0143275
794.543	0.0144571
794.621	0.0144830
794.700	0.0144042
794.778	0.0144382
794.856	0.0141834
794.934	0.0143269
795.012	0.0144827
795.090	0.0144719
795.168	0.0142744
795.246	0.0143280
795.325	0.0144006
795.403	0.0142909
795.481	0.0142947
795.559	0.0143049
795.637	0.0143350
795.715	0.0143896
795.793	0.0141909
795.871	0.0141769
795.950	0.0141782
796.028	0.0142493
796.106	0.0142693
796.184	0.0144327
796.262	0.0142139
796.340	0.0143222
796.418	0.0142312
796.496	0.0144081
796.575	0.0144079
796.653	0.0142780
796.731	0.0143727
796.809	0.0143913
796.887	0.0144324
796.965	0.0143491
797.043	0.0142757
797.121	0.0142503
797.200	0.0143037
797.278	0.0144009
797.356	0.0142799
797.434	0.0142697
797.512	0.0143276
797.590	0.0143118
797.668	0.0143344
797.746	0.0143181
797.825	0.0142562
797.903	0.0143216
797.981	0.0143578
798.059	0.0142863
798.137	0.0141674
798.215	0.0143157
798.293	0.0142368
798.371	0.0142265
798.450	0.0142313
798.528	0.0144070
798.606	0.0142760
798.684	0.0141336
798.762	0.0142077
798.840	0.0142396
798.918	0.0142347
798.996	0.0143353
799.075	0.0142735
799.153	0.0143100
799.231	0.0141796
799.309	0.0141416
799.387	0.0142356
799.465	0.0141964
799.543	0.0143978
799.621	0.0142438
799.700	0.0141079
799.778	0.0142013
799.856	0.0143399
799.934	0.0141164
800.012	0.0140667
800.090	0.0142207
800.168	0.0143601
800.246	0.0143237
800.325	0.0142095
800.403	0.0143816
800.481	0.0142529
800.559	0.0143138
800.637	0.0144503
800.715	0.0143951
800.793	0.0142807
800.871	0.0142226
800.950	0.0143687
801.028	0.0142355
801.106	0.0142592
801.184	0.0142714
801.262	0.0142783
801.340	0.0142984
801.418	0.0143806
801.496	0.0142673
801.575	0.0143487
801.653	0.0143084
801.731	0.0141636
801.809	0.0143723
801.887	0.0142834
801.965	0.0142792
802.043	0.0142575
802.121	0.0143054
802.200	0.0143573
802.278	0.0141996
802.356	0.0143160
802.434	0.0143996
802.512	0.0142872
802.590	0.0142834
802.668	0.0141922
802.746	0.0142951
802.825	0.0141734
802.903	0.0143230
802.981	0.0142781
803.059	0.0142072
803.137	0.0144194
803.215	0.0143137
803.293	0.0143159
803.371	0.0143714
803.450	0.0143604
803.528	0.0142318
803.606	0.0142302
803.684	0.0142429
803.762	0.0143821
803.840	0.0142651
803.918	0.0142663
803.996	0.0143985
804.075	0.0142855
804.153	0.0143350
804.231	0.0143922
804.309	0.0141759
804.387	0.0142387
804.465	0.0144405
804.543	0.0143848
804.621	0.0142055
804.700	0.0142125
804.778	0.0143117
804.856	0.0141932
804.934	0.0141806
805.012	0.0142989
805.090	0.0143279
805.168	0.0143507
805.246	0.0144250
805.325	0.0143327
805.403	0.0141729
805.481	0.0142368
805.559	0.0142746
805.637	0.0143290
805.715	0.0143243
805.793	0.0142438
805.871	0.0142124
805.950	0.0142582
806.028	0.0142751
806.106	0.0141191
806.184	0.0143083
806.262	0.0142622
806.340	0.0141502
806.418	0.0142633
806.496	0.0143053
806.575	0.0143382
806.653	0.0143210
806.731	0.0142367
806.809	0.0142659
806.887	0.0142903
806.965	0.0144550
807.043	0.0144343
807.121	0.0143581
807.200	0.0143430
807.278	0.0142812
807.356	0.0141547
807.434	0.0143600
807.512	0.0143551
807.590	0.0142741
807.668	0.0143348
807.746	0.0142982
807.825	0.0142798
807.903	0.0143417
807.981	0.0142304
808.059	0.0143466
808.137	0.0142657
808.215	0.0143689
808.293	0.0142211
808.371	0.0141767
808.450	0.0143546
808.528	0.0141650
808.606	0.0141850
808.684	0.0142041
808.762	0.0141470
808.840	0.0143807
808.918	0.0142326
808.996	0.0143468
809.075	0.0143784
809.153	0.0143619
809.231	0.0143365
809.309	0.0144157
809.387	0.0144144
809.465	0.0144256
809.543	0.0144904
809.621	0.0141734
809.700	0.0142860
809.778	0.0143082
809.856	0.0142620
809.934	0.0143665
810.012	0.0142599
810.090	0.0143507
810.168	0.0143042
810.246	0.0143057
810.325	0.0142370
810.403	0.0143357
810.481	0.0143448
810.559	0.0142700
810.637	0.0142329
810.715	0.0143333
810.793	0.0142299
810.871	0.0142559
810.950	0.0143438
811.028	0.0143286
811.106	0.0142580
811.184	0.0143481
811.262	0.0143665
811.340	0.0143361
811.418	0.0142695
811.496	0.0142687
811.575	0.0141991
811.653	0.0142041
811.731	0.0143320
811.809	0.0142639
811.887	0.0142638
811.965	0.0143285
812.043	0.0143460
812.121	0.0143275
812.200	0.0143046
812.278	0.0142673
812.356	0.0143357
812.434	0.0142892
812.512	0.0143298
812.590	0.0142458
812.668	0.0144157
812.746	0.0142693
812.825	0.0143148
812.903	0.0142501
812.981	0.0142281
813.059	0.0142410
813.137	0.0142200
813.215	0.0142035
813.293	0.0143089
813.371	0.0143024
813.450	0.0142735
813.528	0.0142133
813.606	0.0142311
813.684	0.0141493
813.762	0.0143324
813.840	0.0143053
813.918	0.0143481
813.996	0.0141953
814.075	0.0142765
814.153	0.0142460
814.231	0.0143909
814.309	0.0142660
814.387	0.0144728
814.465	0.0143697
814.543	0.0144093
814.621	0.0144395
814.700	0.0143197
814.778	0.0141596
814.856	0.0143098
814.934	0.0144360
815.012	0.0142684
815.090	0.0143756
815.168	0.0142560
815.246	0.0142076
815.325	0.0141547
815.403	0.0142239
815.481	0.0143413
815.559	0.0141640
815.637	0.0142208
815.715	0.0142915
815.793	0.0143542
815.871	0.0143141
815.950	0.0142702
816.028	0.0142013
816.106	0.0141658
816.184	0.0142070
816.262	0.0142764
816.340	0.0141991
816.418	0.0142287
816.496	0.0143552
816.575	0.0144513
816.653	0.0143064
816.731	0.0143459
816.809	0.0144506
816.887	0.0143056
816.965	0.0141928
817.043	0.0143249
817.121	0.0142993
817.200	0.0143325
817.278	0.0142355
817.356	0.0142604
817.434	0.0144476
817.512	0.0144036
817.590	0.0143256
817.668	0.0143230
817.746	0.0143022
817.825	0.0142770
817.903	0.0143099
817.981	0.0142278
818.059	0.0142494
818.137	0.0142538
818.215	0.0141833
818.293	0.0142010
818.371	0.0142859
818.450	0.0141723
818.528	0.0141892
818.606	0.0142750
818.684	0.0141812
818.762	0.0141314
818.840	0.0142887
818.918	0.0143745
818.996	0.0142463
819.075	0.0142467
819.153	0.0142591
819.231	0.0142450
819.309	0.0143069
819.387	0.0142559
819.465	0.0143113
819.543	0.0141698
819.621	0.0142093
819.700	0.0142821
819.778	0.0142273
819.856	0.0141808
819.934	0.0143549
820.012	0.0143527
820.090	0.0141472
820.168	0.0142025
820.246	0.0144067
820.325	0.0143944
820.403	0.0142934
820.481	0.0143089
820.559	0.0144363
820.637	0.0143271
820.715	0.0141576
820.793	0.0144447
820.871	0.0144595
820.950	0.0144512
821.028	0.0142833
821.106	0.0142714
821.184	0.0143947
821.262	0.0143001
821.340	0.0143313
821.418	0.0142793
821.496	0.0142178
821.575	0.0142671
821.653	0.0143248
821.731	0.0143755
821.809	0.0141722
821.887	0.0142616
821.965	0.0144534
822.043	0.0143895
822.121	0.0143384
822.200	0.0142212
822.278	0.0142810
822.356	0.0142218
822.434	0.0142088
822.512	0.0143553
822.590	0.0143149
822.668	0.0143916
822.746	0.0142933
822.825	0.0143639
822.903	0.0142163
822.981	0.0142977
823.059	0.0141611
823.137	0.0142806
823.215	0.0143183
823.293	0.0143232
823.371	0.0142408
823.450	0.0144134
823.528	0.0142300
823.606	0.0142647
823.684	0.0143316
823.762	0.0142343
823.840	0.0142708
823.918	0.0142873
823.996	0.0141994
824.075	0.0142609
824.153	0.0143328
824.231	0.0142560
824.309	0.0143533
824.387	0.0143726
824.465	0.0141914
824.543	0.0141652
824.621	0.0143113
824.700	0.0143612
824.778	0.0143725
824.856	0.0143129
824.934	0.0142499
825.012	0.0142402
825.090	0.0141199
825.168	0.0142624
825.246	0.0144276
825.325	0.0143987
825.403	0.0142788
825.481	0.0143127
825.559	0.0142326
825.637	0.0143463
825.715	0.0143665
825.793	0.0144099
825.871	0.0142423
825.950	0.0142635
826.028	0.0143037
826.106	0.0143882
826.184	0.0143884
826.262	0.0141511
826.340	0.0142794
826.418	0.0143324
826.496	0.0144262
826.575	0.0144801
826.653	0.0142587
826.731	0.0142987
826.809	0.0144054
826.887	0.0141517
826.965	0.0141873
827.043	0.0143130
827.121	0.0144128
827.200	0.0143043
827.278	0.0142751
827.356	0.0143391
827.434	0.0143523
827.512	0.0142565
827.590	0.0144270
827.668	0.0143581
827.746	0.0142546
827.825	0.0141637
827.903	0.0144554
827.981	0.0142880
828.059	0.0142489
828.137	0.0141981
828.215	0.0143026
828.293	0.0145261
828.371	0.0142572
828.450	0.0142996
828.528	0.0143627
828.606	0.0143218
828.684	0.0144186
828.762	0.0142553
828.840	0.0144012
828.918	0.0143874
828.996	0.0145415
829.075	0.0143450
829.153	0.0143361
829.231	0.0143639
829.309	0.0144418
829.387	0.0143887
829.465	0.0142393
829.543	0.0143121
829.621	0.0143326
829.700	0.0142632
829.778	0.0144028
829.856	0.0143956
829.934	0.0144014
830.012	0.0142654
830.090	0.0143200
830.168	0.0144546
830.246	0.0144337
830.325	0.0143564
830.403	0.0143285
830.481	0.0143648
830.559	0.0143407
830.637	0.0143818
830.715	0.0143608
830.793	0.0143058
830.871	0.0143266
830.950	0.0141753
831.028	0.0142490
831.106	0.0142203
831.184	0.0143867
831.262	0.0144028
831.340	0.0142580
831.418	0.0141435
831.496	0.0143572
831.575	0.0142915
831.653	0.0143792
831.731	0.0143138
831.809	0.0143011
831.887	0.0143169
831.965	0.0142281
832.043	0.0142564
832.121	0.0144376
832.200	0.0143319
832.278	0.0143703
832.356	0.0143307
832.434	0.0143376
832.512	0.0144218
832.590	0.0142078
832.668	0.0142522
832.746	0.0142673
832.825	0.0142466
832.903	0.0142503
832.981	0.0143223
833.059	0.0143246
833.137	0.0143772
833.215	0.0142693
833.293	0.0142468
833.371	0.0143568
833.450	0.0142857
833.528	0.0143368
833.606	0.0143264
833.684	0.0143538
833.762	0.0142590
833.840	0.0142326
833.918	0.0141946
833.996	0.0142947
834.075	0.0142739
834.153	0.0141859
834.231	0.0141714
834.309	0.0141786
834.387	0.0141026
834.465	0.0141932
834.543	0.0142300
834.621	0.0141543
834.700	0.0142940
834.778	0.0142853
834.856	0.0142152
834.934	0.0142405
835.012	0.0142693
835.090	0.0142516
835.168	0.0141173
835.246	0.0141603
835.325	0.0142440
835.403	0.0142913
835.481	0.0142696
835.559	0.0143504
835.637	0.0142143
835.715	0.0143974
835.793	0.0143197
835.871	0.0142558
835.950	0.0142840
836.028	0.0143134
836.106	0.0144055
836.184	0.0142962
836.262	0.0143206
836.340	0.0142658
836.418	0.0142406
836.496	0.0143674
836.575	0.0142361
836.653	0.0142101
836.731	0.0143150
836.809	0.0141865
836.887	0.0142584
836.965	0.0142952
837.043	0.0142313
837.121	0.0143753
837.200	0.0143796
837.278	0.0142078
837.356	0.0143668
837.434	0.0142148
837.512	0.0142284
837.590	0.0141667
837.668	0.0143163
837.746	0.0142290
837.825	0.0142574
837.903	0.0141277
837.981	0.0141430
838.059	0.0141920
838.137	0.0142990
838.215	0.0143024
838.293	0.0141909
838.371	0.0142912
838.450	0.0141785
838.528	0.0142219
838.606	0.0141667
838.684	0.0143317
838.762	0.0144080
838.840	0.0144009
838.918	0.0142472
838.996	0.0143902
839.075	0.0142567
839.153	0.0142084
839.231	0.0142624
839.309	0.0142996
839.387	0.0142731
839.465	0.0142778
839.543	0.0143963
839.621	0.0142452
839.700	0.0143712
839.778	0.0142228
839.856	0.0143058
839.934	0.0142103
840.012	0.0144055
840.090	0.0143660
840.168	0.0142855
840.246	0.0142780
840.325	0.0142348
840.403	0.0143407
840.481	0.0141882
840.559	0.0142097
840.637	0.0142760
840.715	0.0142260
840.793	0.0143587
840.871	0.0143614
840.950	0.0142233
841.028	0.0143108
841.106	0.0142770
841.184	0.0143236
841.262	0.0141588
841.340	0.0142924
841.418	0.0141890
841.496	0.0142793
841.575	0.0142905
841.653	0.0143481
841.731	0.0142786
841.809	0.0142848
841.887	0.0143491
841.965	0.0143033
842.043	0.0143098
842.121	0.0142724
842.200	0.0142771
842.278	0.0144590
842.356	0.0143102
842.434	0.0143814
842.512	0.0144016
842.590	0.0142966
842.668	0.0142986
842.746	0.0142020
842.825	0.0142430
842.903	0.0144783
842.981	0.0142478
843.059	0.0144817
843.137	0.0142919
843.215	0.0142638
843.293	0.0143756
843.371	0.0143111
843.450	0.0142923
843.528	0.0142555
843.606	0.0141602
843.684	0.0141489
843.762	0.0141438
843.840	0.0142565
843.918	0.0142944
843.996	0.0142909
844.075	0.0143127
844.153	0.0142134
844.231	0.0144017
844.309	0.0143449
844.387	0.0141933
844.465	0.0143069
844.543	0.0142685
844.621	0.0143049
844.700	0.0141798
844.778	0.0142581
844.856	0.0143343
844.934	0.0142405
845.012	0.0141975
845.090	0.0142091
845.168	0.0142866
845.246	0.0142941
845.325	0.0141451
845.403	0.0142218
845.481	0.0144417
845.559	0.0143929
845.637	0.0144429
845.715	0.0143076
845.793	0.0142952
845.871	0.0142943
845.950	0.0143112
846.028	0.0144057
846.106	0.0143890
846.184	0.0143525
846.262	0.0141985
846.340	0.0142625
846.418	0.0143781
846.496	0.0143248
846.575	0.0142419
846.653	0.0143710
846.731	0.0143296
846.809	0.0143441
846.887	0.0142484
846.965	0.0142262
847.043	0.0143173
847.121	0.0142413
847.200	0.0143033
847.278	0.0143465
847.356	0.0142673
847.434	0.0143072
847.512	0.0143142
847.590	0.0143267
847.668	0.0144162
847.746	0.0142476
847.825	0.0145366
847.903	0.0144977
847.981	0.0142583
848.059	0.0143262
848.137	0.0142862
848.215	0.0143255
848.293	0.0144554
848.371	0.0143742
848.450	0.0144133
848.528	0.0143478
848.606	0.0143913
848.684	0.0143791
848.762	0.0143230
848.840	0.0144794
848.918	0.0143955
848.996	0.0142661
849.075	0.0144177
849.153	0.0144181
849.231	0.0145052
849.309	0.0144937
849.387	0.0144379
849.465	0.0143913
849.543	0.0141671
849.621	0.0143451
849.700	0.0144249
849.778	0.0143620
849.856	0.0144103
849.934	0.0143178
850.012	0.0142545
850.090	0.0145269
850.168	0.0144446
850.246	0.0142117
850.325	0.0142714
850.403	0.0143160
850.481	0.0142786
850.559	0.0142004
850.637	0.0143110
850.715	0.0143745
850.793	0.0144118
850.871	0.0142558
850.950	0.0143469
851.028	0.0142738
851.106	0.0144570
851.184	0.0145257
851.262	0.0143774
851.340	0.0144865
851.418	0.0143897
851.496	0.0143999
851.575	0.0143302
851.653	0.0141322
851.731	0.0143987
851.809	0.0145262
851.887	0.0143615
851.965	0.0143752
852.043	0.0142815
852.121	0.0142493
852.200	0.0142917
852.278	0.0143481
852.356	0.0142953
852.434	0.0143662
852.512	0.0142295
852.590	0.0141983
852.668	0.0143757
852.746	0.0143245
852.825	0.0142777
852.903	0.0142155
852.981	0.0142159
853.059	0.0144372
853.137	0.0143791
853.215	0.0142557
853.293	0.0143664
853.371	0.0143504
853.450	0.0143571
853.528	0.0142865
853.606	0.0143610
853.684	0.0143793
853.762	0.0143819
853.840	0.0143140
853.918	0.0142719
853.996	0.0144221
854.075	0.0143211
854.153	0.0142944
854.231	0.0144553
854.309	0.0143410
854.387	0.0143555
854.465	0.0143499
854.543	0.0143300
854.621	0.0143867
854.700	0.0142171
854.778	0.0141546
854.856	0.0144202
854.934	0.0143658
855.012	0.0143613
855.090	0.0143478
855.168	0.0143590
855.246	0.0143882
855.325	0.0143621
855.403	0.0144296
855.481	0.0141718
855.559	0.0142669
855.637	0.0143573
855.715	0.0143351
855.793	0.0143387
855.871	0.0143779
855.950	0.0142751
856.028	0.0142857
856.106	0.0143520
856.184	0.0144579
856.262	0.0142780
856.340	0.0141792
856.418	0.0142913
856.496	0.0142757
856.575	0.0141736
856.653	0.0143456
856.731	0.0143595
856.809	0.0142908
856.887	0.0143161
856.965	0.0141800
857.043	0.0143155
857.121	0.0143665
857.200	0.0143280
857.278	0.0142610
857.356	0.0142323
857.434	0.0144446
857.512	0.0143591
857.590	0.0143278
857.668	0.0142969
857.746	0.0143691
857.825	0.0143803
857.903	0.0143550
857.981	0.0143842
858.059	0.0143792
858.137	0.0143277
858.215	0.0143139
858.293	0.0143820
858.371	0.0143667
858.450	0.0144297
858.528	0.0143488
858.606	0.0142241
858.684	0.0142584
858.762	0.0143053
858.840	0.0143941
858.918	0.0143059
858.996	0.0142682
859.075	0.0142653
859.153	0.0143562
859.231	0.0143862
859.309	0.0144205
859.387	0.0143224
859.465	0.0143313
859.543	0.0143622
859.621	0.0141438
859.700	0.0143226
859.778	0.0143313
859.856	0.0143139
859.934	0.0142634
860.012	0.0141592
860.090	0.0141930
860.168	0.0143333
860.246	0.0141831
860.325	0.0142104
860.403	0.0142961
860.481	0.0142435
860.559	0.0140999
860.637	0.0144508
860.715	0.0143652
860.793	0.0143748
860.871	0.0142587
860.950	0.0143118
861.028	0.0143342
861.106	0.0143231
861.184	0.0143432
861.262	0.0143320
861.340	0.0142206
861.418	0.0141599
861.496	0.0143986
861.575	0.0142142
861.653	0.0142163
861.731	0.0142494
861.809	0.0142502
861.887	0.0142770
861.965	0.0142938
862.043	0.0143035
862.121	0.0141985
862.200	0.0142472
862.278	0.0143310
862.356	0.0141880
862.434	0.0142126
862.512	0.0142664
862.590	0.0142087
862.668	0.0143357
862.746	0.0144578
862.825	0.0143091
862.903	0.0141904
862.981	0.0142513
863.059	0.0142395
863.137	0.0141961
863.215	0.0142310
863.293	0.0142445
863.371	0.0143605
863.450	0.0143983
863.528	0.0143222
863.606	0.0143066
863.684	0.0144913
863.762	0.0142615
863.840	0.0142873
863.918	0.0144155
863.996	0.0141725
864.075	0.0142187
864.153	0.0141803
864.231	0.0142891
864.309	0.0143805
864.387	0.0142520
864.465	0.0142902
864.543	0.0143062
864.621	0.0142770
864.700	0.0143333
864.778	0.0142887
864.856	0.0142619
864.934	0.0143562
865.012	0.0144023
865.090	0.0143205
865.168	0.0141869
865.246	0.0141869
865.325	0.0142431
865.403	0.0143053
865.481	0.0143427
865.559	0.0142086
865.637	0.0142554
865.715	0.0143140
865.793	0.0142381
865.871	0.0142717
865.950	0.0143117
866.028	0.0142567
866.106	0.0141682
866.184	0.0142287
866.262	0.0141305
866.340	0.0142793
866.418	0.0142065
866.496	0.0143613
866.575	0.0141723
866.653	0.0142126
866.731	0.0143784
866.809	0.0142657
866.887	0.0142036
866.965	0.0142062
867.043	0.0144435
867.121	0.0143004
867.200	0.0143439
867.278	0.0142805
867.356	0.0143542
867.434	0.0143013
867.512	0.0143187
867.590	0.0144345
867.668	0.0142652
867.746	0.0143299
867.825	0.0141512
867.903	0.0143674
867.981	0.0144460
868.059	0.0143550
868.137	0.0143754
868.215	0.0144156
868.293	0.0143250
868.371	0.0143619
868.450	0.0142705
868.528	0.0141598
868.606	0.0143486
868.684	0.0144125
868.762	0.0143433
868.840	0.0144862
868.918	0.0143929
868.996	0.0143681
869.075	0.0143433
869.153	0.0143430
869.231	0.0143340
869.309	0.0143327
869.387	0.0143629
869.465	0.0143793
869.543	0.0142365
869.621	0.0142575
869.700	0.0143749
869.778	0.0143048
869.856	0.0143545
869.934	0.0144551
870.012	0.0142522
870.090	0.0143677
870.168	0.0143038
870.246	0.0142625
870.325	0.0142234
870.403	0.0144302
870.481	0.0142982
870.559	0.0142893
870.637	0.0142858
870.715	0.0141821
870.793	0.0142336
870.871	0.0142534
870.950	0.0141880
871.028	0.0144269
871.106	0.0144096
871.184	0.0142113
871.262	0.0142152
871.340	0.0143098
871.418	0.0143493
871.496	0.0143852
871.575	0.0144209
871.653	0.0144030
871.731	0.0142950
871.809	0.0142347
871.887	0.0142540
871.965	0.0144394
872.043	0.0143841
872.121	0.0143556
872.200	0.0142381
872.278	0.0144943
872.356	0.0143705
872.434	0.0143029
872.512	0.0142068
872.590	0.0143788
872.668	0.0141889
872.746	0.0143626
872.825	0.0142756
872.903	0.0142177
872.981	0.0144866
873.059	0.0142756
873.137	0.0143222
873.215	0.0142844
873.293	0.0142762
873.371	0.0143249
873.450	0.0143197
873.528	0.0142371
873.606	0.0144196
873.684	0.0143110
873.762	0.0142893
873.840	0.0143223
873.918	0.0143015
873.996	0.0143707
874.075	0.0143714
874.153	0.0143856
874.231	0.0144064
874.309	0.0142491
874.387	0.0143851
874.465	0.0144382
874.543	0.0143990
874.621	0.0144543
874.700	0.0142217
874.778	0.0142310
874.856	0.0142674
874.934	0.0141376
875.012	0.0142828
875.090	0.0142656
875.168	0.0143073
875.246	0.0144170
875.325	0.0141749
875.403	0.0142548
875.481	0.0141719
875.559	0.0143674
875.637	0.0143688
875.715	0.0141811
875.793	0.0143615
875.871	0.0142487
875.950	0.0142159
876.028	0.0141949
876.106	0.0143213
876.184	0.0143446
876.262	0.0143237
876.340	0.0144002
876.418	0.0142126
876.496	0.0142319
876.575	0.0143585
876.653	0.0142365
876.731	0.0142860
876.809	0.0142860
876.887	0.0143439
876.965	0.0141512
877.043	0.0141724
877.121	0.0142772
877.200	0.0142880
877.278	0.0144312
877.356	0.0143790
877.434	0.0142479
877.512	0.0143463
877.590	0.0142896
877.668	0.0143953
877.746	0.0144134
877.825	0.0143433
877.903	0.0143089
877.981	0.0144740
878.059	0.0143314
878.137	0.0143062
878.215	0.0143846
878.293	0.0142661
878.371	0.0143449
878.450	0.0143298
878.528	0.0140746
878.606	0.0143411
878.684	0.0143858
878.762	0.0143716
878.840	0.0143872
878.918	0.0143521
878.996	0.0142884
879.075	0.0142625
879.153	0.0143829
879.231	0.0142651
879.309	0.0143482
879.387	0.0144014
879.465	0.0143339
879.543	0.0143714
879.621	0.0144718
879.700	0.0144822
879.778	0.0142432
879.856	0.0144248
879.934	0.0141557
880.012	0.0142377
880.090	0.0143039
880.168	0.0141918
880.246	0.0142677
880.325	0.0142742
880.403	0.0142970
880.481	0.0143684
880.559	0.0143219
880.637	0.0142989
880.715	0.0143674
880.793	0.0142953
880.871	0.0143220
880.950	0.0142737
881.028	0.0144696
881.106	0.0145026
881.184	0.0145363
881.262	0.0144740
881.340	0.0143179
881.418	0.0143062
881.496	0.0144825
881.575	0.0144491
881.653	0.0142586
881.731	0.0142156
881.809	0.0144456
881.887	0.0144663
881.965	0.0143359
882.043	0.0143166
882.121	0.0145489
882.200	0.0145132
882.278	0.0143040
882.356	0.0142588
882.434	0.0142041
882.512	0.0143260
882.590	0.0144263
882.668	0.0143275
882.746	0.0143626
882.825	0.0143375
882.903	0.0142507
882.981	0.0142502
883.059	0.0144302
883.137	0.0142547
883.215	0.0142611
883.293	0.0143195
883.371	0.0143594
883.450	0.0144756
883.528	0.0144241
883.606	0.0143578
883.684	0.0142452
883.762	0.0142929
883.840	0.0142367
883.918	0.0143216
883.996	0.0142671
884.075	0.0142362
884.153	0.0142153
884.231	0.0142115
884.309	0.0141627
884.387	0.0142583
884.465	0.0142773
884.543	0.0141713
884.621	0.0142438
884.700	0.0142047
884.778	0.0141499
884.856	0.0142673
884.934	0.0142860
885.012	0.0141976
885.090	0.0142388
885.168	0.0142486
885.246	0.0143206
885.325	0.0144109
885.403	0.0142603
885.481	0.0143566
885.559	0.0144097
885.637	0.0144530
885.715	0.0144057
885.793	0.0142411
885.871	0.0142151
885.950	0.0143893
886.028	0.0143681
886.106	0.0142740
886.184	0.0142110
886.262	0.0141976
886.340	0.0142390
886.418	0.0143175
886.496	0.0142407
886.575	0.0141683
886.653	0.0142023
886.731	0.0144037
886.809	0.0143324
886.887	0.0142934
886.965	0.0143063
887.043	0.0143738
887.121	0.0141831
887.200	0.0142282
887.278	0.0143197
887.356	0.0144382
887.434	0.0143992
887.512	0.0143029
887.590	0.0141643
887.668	0.0142185
887.746	0.0143597
887.825	0.0143004
887.903	0.0141701
887.981	0.0142598
888.059	0.0141762
888.137	0.0142914
888.215	0.0143952
888.293	0.0143304
888.371	0.0143803
888.450	0.0143027
888.528	0.0142442
888.606	0.0143391
888.684	0.0142841
888.762	0.0142367
888.840	0.0141631
888.918	0.0142801
888.996	0.0143275
889.075	0.0143977
889.153	0.0143957
889.231	0.0142516
889.309	0.0142956
889.387	0.0142222
889.465	0.0143330
889.543	0.0143794
889.621	0.0142537
889.700	0.0142624
889.778	0.0144299
889.856	0.0144265
889.934	0.0144165
890.012	0.0145043
890.090	0.0144581
890.168	0.0142450
890.246	0.0144614
890.325	0.0142968
890.403	0.0142469
890.481	0.0143182
890.559	0.0143522
890.637	0.0143542
890.715	0.0142997
890.793	0.0143269
890.871	0.0141709
890.950	0.0142510
891.028	0.0142675
891.106	0.0141626
891.184	0.0142140
891.262	0.0143084
891.340	0.0142363
891.418	0.0141068
891.496	0.0141980
891.575	0.0144675
891.653	0.0143507
891.731	0.0142280
891.809	0.0141251
891.887	0.0142893
891.965	0.0143150
892.043	0.0143118
892.121	0.0144676
892.200	0.0144566
892.278	0.0143944
892.356	0.0144634
892.434	0.0143118
892.512	0.0141914
892.590	0.0143485
892.668	0.0143489
892.746	0.0141926
892.825	0.0141644
892.903	0.0142101
892.981	0.0141096
893.059	0.0143522
893.137	0.0144248
893.215	0.0142260
893.293	0.0142129
893.371	0.0142470
893.450	0.0141628
893.528	0.0142255
893.606	0.0142662
893.684	0.0143235
893.762	0.0142441
893.840	0.0142584
893.918	0.0141850
893.996	0.0143048
894.075	0.0142298
894.153	0.0142651
894.231	0.0142534
894.309	0.0141811
894.387	0.0141479
894.465	0.0142779
894.543	0.0142001
894.621	0.0143176
894.700	0.0143894
894.778	0.0142883
894.856	0.0142789
894.934	0.0142430
895.012	0.0141943
895.090	0.0144188
895.168	0.0143223
895.246	0.0142406
895.325	0.0141671
895.403	0.0141597
895.481	0.0141972
895.559	0.0141534
895.637	0.0141412
895.715	0.0142250
895.793	0.0141429
895.871	0.0141612
895.950	0.0143484
896.028	0.0141949
896.106	0.0141981
896.184	0.0143222
896.262	0.0142438
896.340	0.0142834
896.418	0.0142679
896.496	0.0142712
896.575	0.0141682
896.653	0.0144168
896.731	0.0144219
896.809	0.0143963
896.887	0.0142196
896.965	0.0142799
897.043	0.0142403
897.121	0.0143031
897.200	0.0143687
897.278	0.0143620
897.356	0.0142764
897.434	0.0141277
897.512	0.0143604
897.590	0.0142741
897.668	0.0143208
897.746	0.0143830
897.825	0.0143263
897.903	0.0143167
897.981	0.0143985
898.059	0.0143256
898.137	0.0142960
898.215	0.0142253
898.293	0.0142258
898.371	0.0142927
898.450	0.0141890
898.528	0.0142507
898.606	0.0141832
898.684	0.0142175
898.762	0.0142467
898.840	0.0143122
898.918	0.0142928
898.996	0.0143302
899.075	0.0142927
899.153	0.0142783
899.231	0.0143622
899.309	0.0143078
899.387	0.0143008
899.465	0.0143671
899.543	0.0143984
899.621	0.0143504
899.700	0.0143403
899.778	0.0144034
899.856	0.0143399
899.934	0.0140940
900.012	0.0142979
900.090	0.0143386
900.168	0.0143919
900.246	0.0143778
900.325	0.0144238
900.403	0.0144129
900.481	0.0143999
900.559	0.0143221
900.637	0.0142677
900.715	0.0143789
900.793	0.0143383
900.871	0.0143244
900.950	0.0142971
901.028	0.0143368
901.106	0.0142823
901.184	0.0142800
901.262	0.0142875
901.340	0.0142510
901.418	0.0143702
901.496	0.0143072
901.575	0.0142439
901.653	0.0143436
901.731	0.0143945
901.809	0.0142918
901.887	0.0144386
901.965	0.0143790
902.043	0.0143221
902.121	0.0142632
902.200	0.0143751
902.278	0.0144651
902.356	0.0144083
902.434	0.0143842
902.512	0.0144147
902.590	0.0143248
902.668	0.0143909
902.746	0.0143448
902.825	0.0142863
902.903	0.0143556
902.981	0.0142882
903.059	0.0141953
903.137	0.0143762
903.215	0.0142301
903.293	0.0143362
903.371	0.0144697
903.450	0.0143620
903.528	0.0143278
903.606	0.0143819
903.684	0.0143133
903.762	0.0142947
903.840	0.0142279
903.918	0.0142900
903.996	0.0142855
904.075	0.0142077
904.153	0.0143069
904.231	0.0143804
904.309	0.0143036
904.387	0.0142194
904.465	0.0142416
904.543	0.0141747
904.621	0.0143467
904.700	0.0143017
904.778	0.0142495
904.856	0.0142350
904.934	0.0141752
905.012	0.0141774
905.090	0.0142217
905.168	0.0143094
905.246	0.0141212
905.325	0.0142327
905.403	0.0143133
905.481	0.0141890
905.559	0.0142946
905.637	0.0142712
905.715	0.0142348
905.793	0.0142927
905.871	0.0143410
905.950	0.0142973
906.028	0.0144157
906.106	0.0142921
906.184	0.0143289
906.262	0.0143842
906.340	0.0143151
906.418	0.0143353
906.496	0.0143523
906.575	0.0143959
906.653	0.0142392
906.731	0.0142904
906.809	0.0142875
906.887	0.0144621
906.965	0.0142297
907.043	0.0143240
907.121	0.0145123
907.200	0.0143359
907.278	0.0143214
907.356	0.0142796
907.434	0.0143579
907.512	0.0143330
907.590	0.0143485
907.668	0.0142387
907.746	0.0143172
907.825	0.0142493
907.903	0.0142175
907.981	0.0142381
908.059	0.0141655
908.137	0.0142283
908.215	0.0143229
908.293	0.0142767
908.371	0.0142346
908.450	0.0142691
908.528	0.0142819
908.606	0.0143917
908.684	0.0143660
908.762	0.0142998
908.840	0.0142717
908.918	0.0141990
908.996	0.0143454
909.075	0.0142241
909.153	0.0141536
909.231	0.0143227
909.309	0.0142211
909.387	0.0141779
909.465	0.0143153
909.543	0.0142931
909.621	0.0143177
909.700	0.0143070
909.778	0.0143586
909.856	0.0143059
909.934	0.0142355
910.012	0.0142239
910.090	0.0143531
910.168	0.0143484
910.246	0.0143185
910.325	0.0142283
910.403	0.0142913
910.481	0.0143645
910.559	0.0143108
910.637	0.0144526
910.715	0.0143850
910.793	0.0143330
910.871	0.0143400
910.950	0.0142828
911.028	0.0143822
911.106	0.0142390
911.184	0.0141534
911.262	0.0142937
911.340	0.0143163
911.418	0.0141660
911.496	0.0141969
911.575	0.0143191
911.653	0.0143279
911.731	0.0142872
911.809	0.0142647
911.887	0.0141487
911.965	0.0143559
912.043	0.0143496
912.121	0.0143193
912.200	0.0143377
912.278	0.0143239
912.356	0.0143237
912.434	0.0143247
912.512	0.0143153
912.590	0.0143059
912.668	0.0142647
912.746	0.0144213
912.825	0.0144551
912.903	0.0143266
912.981	0.0143023
913.059	0.0142857
913.137	0.0143919
913.215	0.0144682
913.293	0.0143649
913.371	0.0143375
913.450	0.0142903
913.528	0.0143158
913.606	0.0143097
913.684	0.0142981
913.762	0.0142723
913.840	0.0141890
913.918	0.0144040
913.996	0.0142006
914.075	0.0141793
914.153	0.0143321
914.231	0.0143035
914.309	0.0143231
914.387	0.0143350
914.465	0.0144200
914.543	0.0143379
914.621	0.0143600
914.700	0.0142711
914.778	0.0143031
914.856	0.0143510
914.934	0.0143690
915.012	0.0143549
915.090	0.0144862
915.168	0.0143797
915.246	0.0143498
915.325	0.0143474
915.403	0.0143803
915.481	0.0143935
915.559	0.0144085
915.637	0.0143334
915.715	0.0143273
915.793	0.0142666
915.871	0.0143204
915.950	0.0143019
916.028	0.0143510
916.106	0.0143892
916.184	0.0142984
916.262	0.0143580
916.340	0.0144245
916.418	0.0145042
916.496	0.0142945
916.575	0.0142272
916.653	0.0142966
916.731	0.0143116
916.809	0.0142898
916.887	0.0143002
916.965	0.0143413
917.043	0.0144159
917.121	0.0143507
917.200	0.0144355
917.278	0.0143551
917.356	0.0143231
917.434	0.0143132
917.512	0.0142849
917.590	0.0144000
917.668	0.0142850
917.746	0.0143783
917.825	0.0142304
917.903	0.0143923
917.981	0.0143561
918.059	0.0143407
918.137	0.0142970
918.215	0.0143257
918.293	0.0142709
918.371	0.0142925
918.450	0.0142371
918.528	0.0144353
918.606	0.0143902
918.684	0.0143145
918.762	0.0143099
918.840	0.0142802
918.918	0.0143217
918.996	0.0144137
919.075	0.0143993
919.153	0.0143024
919.231	0.0144519
919.309	0.0142358
919.387	0.0143067
919.465	0.0143587
919.543	0.0142688
919.621	0.0143294
919.700	0.0143404
919.778	0.0142715
919.856	0.0143443
919.934	0.0142561
920.012	0.0144476
920.090	0.0144643
920.168	0.0143259
920.246	0.0144701
920.325	0.0143173
920.403	0.0144975
920.481	0.0143532
920.559	0.0142822
920.637	0.0142824
920.715	0.0144530
920.793	0.0144080
920.871	0.0143538
920.950	0.0143935
921.028	0.0144578
921.106	0.0144386
921.184	0.0142799
921.262	0.0142648
921.340	0.0143925
921.418	0.0143912
921.496	0.0143239
921.575	0.0143290
921.653	0.0143492
921.731	0.0143622
921.809	0.0143573
921.887	0.0141203
921.965	0.0143632
922.043	0.0143780
922.121	0.0142673
922.200	0.0143018
922.278	0.0143668
922.356	0.0143554
922.434	0.0141837
922.512	0.0142665
922.590	0.0144788
922.668	0.0142449
922.746	0.0141792
922.825	0.0143413
922.903	0.0143195
922.981	0.0143045
923.059	0.0142490
923.137	0.0143366
923.215	0.0142281
923.293	0.0142604
923.371	0.0142876
923.450	0.0142171
923.528	0.0142464
923.606	0.0142224
923.684	0.0142215
923.762	0.0142648
923.840	0.0142577
923.918	0.0143575
923.996	0.0144398
924.075	0.0142719
924.153	0.0142010
924.231	0.0142672
924.309	0.0143571
924.387	0.0144295
924.465	0.0141304
924.543	0.0143223
924.621	0.0143752
924.700	0.0143238
924.778	0.0142176
924.856	0.0142777
924.934	0.0143243
925.012	0.0142838
925.090	0.0142791
925.168	0.0143193
925.246	0.0142461
925.325	0.0142964
925.403	0.0142650
925.481	0.0142803
925.559	0.0142352
925.637	0.0142033
925.715	0.0142957
925.793	0.0143544
925.871	0.0142491
925.950	0.0143448
926.028	0.0144436
926.106	0.0142886
926.184	0.0142288
926.262	0.0141933
926.340	0.0142988
926.418	0.0144151
926.496	0.0144570
926.575	0.0143059
926.653	0.0143519
926.731	0.0142479
926.809	0.0141523
926.887	0.0142075
926.965	0.0141315
927.043	0.0144204
927.121	0.0142799
927.200	0.0142464
927.278	0.0141798
927.356	0.0142455
927.434	0.0143902
927.512	0.0142670
927.590	0.0142532
927.668	0.0142062
927.746	0.0141939
927.825	0.0142432
927.903	0.0142361
927.981	0.0141380
928.059	0.0142950
928.137	0.0142630
928.215	0.0144057
928.293	0.0143015
928.371	0.0143076
928.450	0.0143625
928.528	0.0143620
928.606	0.0143672
928.684	0.0142713
928.762	0.0143552
928.840	0.0142380
928.918	0.0143462
928.996	0.0143977
929.075	0.0141567
929.153	0.0141325
929.231	0.0142951
929.309	0.0143063
929.387	0.0143110
929.465	0.0142838
929.543	0.0141988
929.621	0.0142348
929.700	0.0142348
929.778	0.0144617
929.856	0.0144130
929.934	0.0143118
930.012	0.0141502
930.090	0.0143290
930.168	0.0142845
930.246	0.0142385
930.325	0.0143106
930.403	0.0143948
930.481	0.0143590
930.559	0.0143729
930.637	0.0141998
930.715	0.0141906
930.793	0.0142036
930.871	0.0142197
930.950	0.0142190
931.028	0.0143751
931.106	0.0143392
931.184	0.0142878
931.262	0.0142467
931.340	0.0144174
931.418	0.0142696
931.496	0.0143508
931.575	0.0144394
931.653	0.0144125
931.731	0.0143441
931.809	0.0142548
931.887	0.0142359
931.965	0.0143773
932.043	0.0143700
932.121	0.0142764
932.200	0.0143005
932.278	0.0142456
932.356	0.0141203
932.434	0.0142767
932.512	0.0142951
932.590	0.0142822
932.668	0.0142503
932.746	0.0140811
932.825	0.0143455
932.903	0.0142606
932.981	0.0142390
933.059	0.0144256
933.137	0.0142837
933.215	0.0143046
933.293	0.0142863
933.371	0.0143982
933.450	0.0144862
933.528	0.0144184
933.606	0.0142831
933.684	0.0142876
933.762	0.0143822
933.840	0.0143970
933.918	0.0144161
933.996	0.0142323
934.075	0.0144379
934.153	0.0143951
934.231	0.0143545
934.309	0.0141919
934.387	0.0144303
934.465	0.0143703
934.543	0.0142830
934.621	0.0142614
934.700	0.0142358
934.778	0.0142096
934.856	0.0143707
934.934	0.0142583
935.012	0.0142874
935.090	0.0143434
935.168	0.0144718
935.246	0.0142443
935.325	0.0142776
935.403	0.0143797
935.481	0.0144324
935.559	0.0143774
935.637	0.0142993
935.715	0.0143500
935.793	0.0143441
935.871	0.0145502
935.950	0.0146077
936.028	0.0143531
936.106	0.0143608
936.184	0.0142628
936.262	0.0142559
936.340	0.0143492
936.418	0.0144006
936.496	0.0142947
936.575	0.0142699
936.653	0.0143114
936.731	0.0141620
936.809	0.0142977
936.887	0.0143746
936.965	0.0142298
937.043	0.0142712
937.121	0.0141510
937.200	0.0143494
937.278	0.0142081
937.356	0.0143034
937.434	0.0142808
937.512	0.0144488
937.590	0.0143111
937.668	0.0143668
937.746	0.0142848
937.825	0.0142520
937.903	0.0143150
937.981	0.0144479
938.059	0.0142830
938.137	0.0142975
938.215	0.0142981
938.293	0.0141840
938.371	0.0142614
938.450	0.0142765
938.528	0.0143436
938.606	0.0141873
938.684	0.0143398
938.762	0.0142349
938.840	0.0142735
938.918	0.0143546
938.996	0.0144392
939.075	0.0142789
939.153	0.0142224
939.231	0.0144439
939.309	0.0146095
939.387	0.0144039
939.465	0.0144906
939.543	0.0143769
939.621	0.0142606
939.700	0.0144225
939.778	0.0143205
939.856	0.0143752
939.934	0.0143224
940.012	0.0143293
940.090	0.0142676
940.168	0.0143309
940.246	0.0142245
940.325	0.0142879
940.403	0.0142061
940.481	0.0143008
940.559	0.0142099
940.637	0.0142253
940.715	0.0142599
940.793	0.0141314
940.871	0.0142790
940.950	0.0141816
941.028	0.0142467
941.106	0.0143860
941.184	0.0143509
941.262	0.0141668
941.340	0.0142001
941.418	0.0143617
941.496	0.0142797
941.575	0.0142233
941.653	0.0143108
941.731	0.0143116
941.809	0.0143741
941.887	0.0142609
941.965	0.0143297
942.043	0.0142865
942.121	0.0142907
942.200	0.0142693
942.278	0.0142667
942.356	0.0142034
942.434	0.0142032
942.512	0.0142555
942.590	0.0142499
942.668	0.0141182
942.746	0.0142286
942.825	0.0142194
942.903	0.0142008
942.981	0.0142422
943.059	0.0142754
943.137	0.0142898
943.215	0.0142072
943.293	0.0143574
943.371	0.0144100
943.450	0.0143370
943.528	0.0143927
943.606	0.0143792
943.684	0.0143868
943.762	0.0144377
943.840	0.0142810
943.918	0.0142587
943.996	0.0142962
944.075	0.0144270
944.153	0.0142950
944.231	0.0143247
944.309	0.0142934
944.387	0.0141624
944.465	0.0143492
944.543	0.0143826
944.621	0.0143232
944.700	0.0142764
944.778	0.0144373
944.856	0.0142955
944.934	0.0142628
945.012	0.0143436
945.090	0.0142480
945.168	0.0142732
945.246	0.0142702
945.325	0.0143662
945.403	0.0142204
945.481	0.0141076
945.559	0.0143567
945.637	0.0141695
945.715	0.0141850
945.793	0.0141096
945.871	0.0142947
945.950	0.0142699
946.028	0.0144040
946.106	0.0143029
946.184	0.0142393
946.262	0.0142355
946.340	0.0142325
946.418	0.0144243
946.496	0.0143330
946.575	0.0141893
946.653	0.0142784
946.731	0.0144877
946.809	0.0142193
946.887	0.0141990
946.965	0.0141921
947.043	0.0142033
947.121	0.0143097
947.200	0.0142540
947.278	0.0141377
947.356	0.0143310
947.434	0.0142496
947.512	0.0140800
947.590	0.0141776
947.668	0.0142030
947.746	0.0143349
947.825	0.0142777
947.903	0.0142918
947.981	0.0143867
948.059	0.0143229
948.137	0.0141716
948.215	0.0142751
948.293	0.0144442
948.371	0.0142445
948.450	0.0142790
948.528	0.0143441
948.606	0.0143641
948.684	0.0143858
948.762	0.0144125
948.840	0.0143781
948.918	0.0143356
948.996	0.0143428
949.075	0.0143172
949.153	0.0144099
949.231	0.0144169
949.309	0.0143475
949.387	0.0142787
949.465	0.0143462
949.543	0.0142537
949.621	0.0142664
949.700	0.0142635
949.778	0.0141105
949.856	0.0143518
949.934	0.0143209
950.012	0.0142339
950.090	0.0144043
950.168	0.0143267
950.246	0.0142326
950.325	0.0143546
950.403	0.0143909
950.481	0.0143041
950.559	0.0141933
950.637	0.0143636
950.715	0.0142658
950.793	0.0141887
950.871	0.0142747
950.950	0.0142616
951.028	0.0143069
951.106	0.0142661
951.184	0.0141985
951.262	0.0142480
951.340	0.0142946
951.418	0.0141824
951.496	0.0142984
951.575	0.0143817
951.653	0.0141824
951.731	0.0143337
951.809	0.0143495
951.887	0.0142427
951.965	0.0142513
952.043	0.0142513
952.121	0.0143517
952.200	0.0142142
952.278	0.0142513
952.356	0.0142234
952.434	0.0142844
952.512	0.0143241
952.590	0.0141763
952.668	0.0142065
952.746	0.0141813
952.825	0.0142719
952.903	0.0142632
952.981	0.0141876
953.059	0.0142062
953.137	0.0142676
953.215	0.0144090
953.293	0.0142261
953.371	0.0141429
953.450	0.0141271
953.528	0.0142892
953.606	0.0141621
953.684	0.0143350
953.762	0.0142336
953.840	0.0142770
953.918	0.0142989
953.996	0.0142603
954.075	0.0142699
954.153	0.0142831
954.231	0.0142942
954.309	0.0143941
954.387	0.0142329
954.465	0.0142348
954.543	0.0142573
954.621	0.0143656
954.700	0.0143758
954.778	0.0143122
954.856	0.0143472
954.934	0.0143718
955.012	0.0143726
955.090	0.0144012
955.168	0.0143975
955.246	0.0142987
955.325	0.0143485
955.403	0.0144561
955.481	0.0143430
955.559	0.0142106
955.637	0.0144101
955.715	0.0143465
955.793	0.0143434
955.871	0.0143043
955.950	0.0143349
956.028	0.0143024
956.106	0.0143870
956.184	0.0141705
956.262	0.0141786
956.340	0.0142983
956.418	0.0143591
956.496	0.0141953
956.575	0.0142778
956.653	0.0144955
956.731	0.0142543
956.809	0.0142812
956.887	0.0143715
956.965	0.0143687
957.043	0.0143433
957.121	0.0141565
957.200	0.0142802
957.278	0.0143826
957.356	0.0142297
957.434	0.0142833
957.512	0.0142684
957.590	0.0142970
957.668	0.0143875
957.746	0.0144599
957.825	0.0143330
957.903	0.0143000
957.981	0.0143697
958.059	0.0143797
958.137	0.0143425
958.215	0.0143699
958.293	0.0144328
958.371	0.0143974
958.450	0.0144907
958.528	0.0144465
958.606	0.0143032
958.684	0.0143544
958.762	0.0144340
958.840	0.0144692
958.918	0.0144511
958.996	0.0143789
959.075	0.0144621
959.153	0.0144186
959.231	0.0143317
959.309	0.0144244
959.387	0.0143835
959.465	0.0143405
959.543	0.0142932
959.621	0.0144796
959.700	0.0142929
959.778	0.0142756
959.856	0.0142798
959.934	0.0142931
960.012	0.0143005
960.090	0.0142856
960.168	0.0144000
960.246	0.0143208
960.325	0.0142485
960.403	0.0142426
960.481	0.0143070
960.559	0.0141837
960.637	0.0143089
960.715	0.0143761
960.793	0.0142393
960.871	0.0142825
960.950	0.0143768
961.028	0.0143107
961.106	0.0143503
961.184	0.0143282
961.262	0.0143388
961.340	0.0142764
961.418	0.0143105
961.496	0.0143134
961.575	0.0142239
961.653	0.0144247
961.731	0.0142991
961.809	0.0141673
961.887	0.0143535
961.965	0.0142805
962.043	0.0141596
962.121	0.0143321
962.200	0.0143137
962.278	0.0143719
962.356	0.0141663
962.434	0.0142873
962.512	0.0143692
962.590	0.0143374
962.668	0.0141075
962.746	0.0142754
962.825	0.0143295
962.903	0.0144138
962.981	0.0143861
963.059	0.0142441
963.137	0.0143885
963.215	0.0142671
963.293	0.0142707
963.371	0.0143349
963.450	0.0142133
963.528	0.0141561
963.606	0.0140240
963.684	0.0141627
963.762	0.0142816
963.840	0.0142356
963.918	0.0142729
963.996	0.0142764
964.075	0.0142596
964.153	0.0143466
964.231	0.0141754
964.309	0.0141793
964.387	0.0143040
964.465	0.0143147
964.543	0.0143623
964.621	0.0144527
964.700	0.0143349
964.778	0.0143384
964.856	0.0142896
964.934	0.0142636
965.012	0.0143157
965.090	0.0143230
965.168	0.0143706
965.246	0.0143467
965.325	0.0143307
965.403	0.0141940
965.481	0.0142625
965.559	0.0143061
965.637	0.0142694
965.715	0.0142973
965.793	0.0140926
965.871	0.0140952
965.950	0.0142437
966.028	0.0142370
966.106	0.0141636
966.184	0.0142200
966.262	0.0142786
966.340	0.0141652
966.418	0.0143250
966.496	0.0141942
966.575	0.0141611
966.653	0.0141640
966.731	0.0141211
966.809	0.0141170
966.887	0.0142589
966.965	0.0142579
967.043	0.0142478
967.121	0.0142323
967.200	0.0143175
967.278	0.0140951
967.356	0.0142399
967.434	0.0143124
967.512	0.0144960
967.590	0.0143792
967.668	0.0145023
967.746	0.0142967
967.825	0.0143150
967.903	0.0142950
967.981	0.0142866
968.059	0.0143128
968.137	0.0143043
968.215	0.0142523
968.293	0.0143785
968.371	0.0143192
968.450	0.0142295
968.528	0.0143705
968.606	0.0143020
968.684	0.0143486
968.762	0.0144752
968.840	0.0143285
968.918	0.0144191
968.996	0.0143578
969.075	0.0143156
969.153	0.0144022
969.231	0.0142517
969.309	0.0143560
969.387	0.0144082
969.465	0.0141436
969.543	0.0142434
969.621	0.0144501
969.700	0.0144240
969.778	0.0143721
969.856	0.0142228
969.934	0.0142564
970.012	0.0142606
970.090	0.0142628
970.168	0.0143404
970.246	0.0142569
970.325	0.0142346
970.403	0.0143191
970.481	0.0143560
970.559	0.0141771
970.637	0.0140377
970.715	0.0142562
970.793	0.0142475
970.871	0.0142988
970.950	0.0142686
971.028	0.0142987
971.106	0.0140726
971.184	0.0141724
971.262	0.0144164
971.340	0.0143903
971.418	0.0142748
971.496	0.0142135
971.575	0.0143199
971.653	0.0143137
971.731	0.0143223
971.809	0.0142896
971.887	0.0142347
971.965	0.0141798
972.043	0.0143723
972.121	0.0141386
972.200	0.0143920
972.278	0.0143028
972.356	0.0144052
972.434	0.0143224
972.512	0.0142917
972.590	0.0141623
972.668	0.0142154
972.746	0.0142982
972.825	0.0143780
972.903	0.0142873
972.981	0.0141859
973.059	0.0143480
973.137	0.0142904
973.215	0.0142686
973.293	0.0142512
973.371	0.0143104
973.450	0.0143457
973.528	0.0142493
973.606	0.0142553
973.684	0.0141647
973.762	0.0141151
973.840	0.0143459
973.918	0.0142313
973.996	0.0141473
974.075	0.0142456
974.153	0.0142846
974.231	0.0142465
974.309	0.0141817
974.387	0.0142477
974.465	0.0142478
974.543	0.0143630
974.621	0.0142201
974.700	0.0143092
974.778	0.0142132
974.856	0.0141976
974.934	0.0142220
975.012	0.0143183
975.090	0.0143536
975.168	0.0143329
975.246	0.0141871
975.325	0.0142754
975.403	0.0142590
975.481	0.0142389
975.559	0.0143475
975.637	0.0142799
975.715	0.0143696
975.793	0.0142643
975.871	0.0143329
975.950	0.0144218
976.028	0.0140942
976.106	0.0143074
976.184	0.0142860
976.262	0.0142977
976.340	0.0142946
976.418	0.0142378
976.496	0.0143995
976.575	0.0142834
976.653	0.0142540
976.731	0.0143233
976.809	0.0142372
976.887	0.0141628
976.965	0.0142513
977.043	0.0142027
977.121	0.0142538
977.200	0.0142999
977.278	0.0142009
977.356	0.0141518
977.434	0.0142715
977.512	0.0141968
977.590	0.0141544
977.668	0.0141498
977.746	0.0142185
977.825	0.0142601
977.903	0.0142828
977.981	0.0142121
978.059	0.0141805
978.137	0.0142184
978.215	0.0142262
978.293	0.0142146
978.371	0.0142614
978.450	0.0142011
978.528	0.0142739
978.606	0.0143039
978.684	0.0143562
978.762	0.0142536
978.840	0.0142168
978.918	0.0142842
978.996	0.0142773
979.075	0.0142209
979.153	0.0143299
979.231	0.0144410
979.309	0.0142633
979.387	0.0143877
979.465	0.0143249
979.543	0.0142383
979.621	0.0143871
979.700	0.0142200
979.778	0.0143587
979.856	0.0142736
979.934	0.0142603
980.012	0.0143834
980.090	0.0144051
980.168	0.0142615
980.246	0.0142812
980.325	0.0142136
980.403	0.0140977
980.481	0.0140977
980.559	0.0142203
980.637	0.0141583
980.715	0.0143796
980.793	0.0143320
980.871	0.0143008
980.950	0.0142981
981.028	0.0143123
981.106	0.0142508
981.184	0.0142535
981.262	0.0143572
981.340	0.0143488
981.418	0.0143438
981.496	0.0143543
981.575	0.0142522
981.653	0.0143800
981.731	0.0143216
981.809	0.0141949
981.887	0.0142331
981.965	0.0142448
982.043	0.0143017
982.121	0.0141935
982.200	0.0142553
982.278	0.0142309
982.356	0.0141248
982.434	0.0141917
982.512	0.0143782
982.590	0.0142328
982.668	0.0142293
982.746	0.0142117
982.825	0.0142316
982.903	0.0143095
982.981	0.0143162
983.059	0.0142621
983.137	0.0141936
983.215	0.0142279
983.293	0.0143084
983.371	0.0141985
983.450	0.0141117
983.528	0.0142577
983.606	0.0143501
983.684	0.0143246
983.762	0.0142915
983.840	0.0141960
983.918	0.0142000
983.996	0.0143375
984.075	0.0141858
984.153	0.0141794
984.231	0.0142725
984.309	0.0143519
984.387	0.0142529
984.465	0.0142822
984.543	0.0142489
984.621	0.0143224
984.700	0.0142762
984.778	0.0142527
984.856	0.0143403
984.934	0.0144649
985.012	0.0143797
985.090	0.0143028
985.168	0.0143086
985.246	0.0144437
985.325	0.0143438
985.403	0.0143586
985.481	0.0143300
985.559	0.0142579
985.637	0.0142114
985.715	0.0141985
985.793	0.0142687
985.871	0.0141885
985.950	0.0142361
986.028	0.0142755
986.106	0.0143490
986.184	0.0143293
986.262	0.0142725
986.340	0.0141573
986.418	0.0142233
986.496	0.0142354
986.575	0.0142683
986.653	0.0142481
986.731	0.0142638
986.809	0.0142657
986.887	0.0142802
986.965	0.0141334
987.043	0.0143945
987.121	0.0143533
987.200	0.0142369
987.278	0.0143850
987.356	0.0141962
987.434	0.0142242
987.512	0.0143350
987.590	0.0142448
987.668	0.0143855
987.746	0.0141234
987.825	0.0140363
987.903	0.0143452
987.981	0.0144042
988.059	0.0143843
988.137	0.0142899
988.215	0.0142554
988.293	0.0141530
988.371	0.0141031
988.450	0.0144067
988.528	0.0142725
988.606	0.0143043
988.684	0.0144320
988.762	0.0142358
988.840	0.0143390
988.918	0.0144122
988.996	0.0142888
989.075	0.0143378
989.153	0.0142615
989.231	0.0142768
989.309	0.0144009
989.387	0.0142577
989.465	0.0141029
989.543	0.0141968
989.621	0.0143816
989.700	0.0143404
989.778	0.0140645
989.856	0.0143005
989.934	0.0142075
990.012	0.0141954
990.090	0.0143186
990.168	0.0141575
990.246	0.0142280
990.325	0.0143311
990.403	0.0142167
990.481	0.0143185
990.559	0.0141914
990.637	0.0142319
990.715	0.0142763
990.793	0.0142442
990.871	0.0141650
990.950	0.0143408
991.028	0.0142415
991.106	0.0142146
991.184	0.0143435
991.262	0.0142617
991.340	0.0141523
991.418	0.0142436
991.496	0.0144182
991.575	0.0143455
991.653	0.0143115
991.731	0.0143218
991.809	0.0142598
991.887	0.0142542
991.965	0.0143505
992.043	0.0142076
992.121	0.0142632
992.200	0.0140684
992.278	0.0143446
992.356	0.0141491
992.434	0.0143008
992.512	0.0143291
992.590	0.0141123
992.668	0.0143011
992.746	0.0143180
992.825	0.0142810
992.903	0.0141914
992.981	0.0143732
993.059	0.0142345
993.137	0.0142140
993.215	0.0141483
993.293	0.0143465
993.371	0.0143781
993.450	0.0141985
993.528	0.0142609
993.606	0.0142241
993.684	0.0142387
993.762	0.0141344
993.840	0.0141015
993.918	0.0141441
993.996	0.0143314
994.075	0.0142190
994.153	0.0140996
994.231	0.0142747
994.309	0.0142834
994.387	0.0142576
994.465	0.0142123
994.543	0.0142316
994.621	0.0144256
994.700	0.0143111
994.778	0.0142016
994.856	0.0143877
994.934	0.0142995
995.012	0.0142462
995.090	0.0142731
995.168	0.0143160
995.246	0.0142313
995.325	0.0142670
995.403	0.0142925
995.481	0.0143092
995.559	0.0142702
995.637	0.0141876
995.715	0.0141971
995.793	0.0142544
995.871	0.0143665
995.950	0.0141549
996.028	0.0143020
996.106	0.0142685
996.184	0.0141957
996.262	0.0141501
996.340	0.0142869
996.418	0.0143578
996.496	0.0142244
996.575	0.0141898
996.653	0.0143014
996.731	0.0142558
996.809	0.0143281
996.887	0.0141383
996.965	0.0144257
997.043	0.0143050
997.121	0.0142836
997.200	0.0142573
997.278	0.0143413
997.356	0.0143211
997.434	0.0142712
997.512	0.0143692
997.590	0.0143800
997.668	0.0143253
997.746	0.0143459
997.825	0.0143258
997.903	0.0143431
997.981	0.0142336
998.059	0.0141294
998.137	0.0142529
998.215	0.0141465
998.293	0.0142162
998.371	0.0141692
998.450	0.0142418
998.528	0.0142219
998.606	0.0142712
998.684	0.0142086
998.762	0.0142992
998.840	0.0142176
998.918	0.0142620
