05/04/2022	21:34:59	Ver.	4.1	UNKNOWN
Optical Delay	678.996401	Delta X		0.078125	Sweeps	1	Scan Rate	0/0
Coordinates	Axis 1	NaN	Axis 2	NaN	Axis 3	NaN	Axis 4	NaN	Axis 5	NaN	Axis 6	0.000000
TX Power	0.000000	RX Power	0.000000

678.996	0.0147408
679.075	0.0147382
679.153	0.0145528
679.231	0.0147042
679.309	0.0148628
679.387	0.0147302
679.465	0.0147051
679.543	0.0147822
679.621	0.0146574
679.700	0.0148341
679.778	0.0147199
679.856	0.0146294
679.934	0.0146949
680.012	0.0146490
680.090	0.0147057
680.168	0.0146461
680.246	0.0146519
680.325	0.0146692
680.403	0.0148270
680.481	0.0147121
680.559	0.0145179
680.637	0.0146307
680.715	0.0147011
680.793	0.0145937
680.871	0.0145557
680.950	0.0147941
681.028	0.0146214
681.106	0.0146483
681.184	0.0148051
681.262	0.0147731
681.340	0.0148283
681.418	0.0146849
681.496	0.0148120
681.575	0.0147334
681.653	0.0147063
681.731	0.0146410
681.809	0.0146735
681.887	0.0146285
681.965	0.0146810
682.043	0.0145819
682.121	0.0146816
682.200	0.0147356
682.278	0.0148495
682.356	0.0148273
682.434	0.0145525
682.512	0.0147776
682.590	0.0147540
682.668	0.0147467
682.746	0.0147114
682.825	0.0145412
682.903	0.0147527
682.981	0.0146396
683.059	0.0146563
683.137	0.0147993
683.215	0.0147422
683.293	0.0147755
683.371	0.0146715
683.450	0.0148806
683.528	0.0147366
683.606	0.0145818
683.684	0.0147453
683.762	0.0146206
683.840	0.0146061
683.918	0.0145770
683.996	0.0145963
684.075	0.0145229
684.153	0.0146221
684.231	0.0144812
684.309	0.0146095
684.387	0.0146493
684.465	0.0144879
684.543	0.0146705
684.621	0.0145296
684.700	0.0145255
684.778	0.0146209
684.856	0.0146430
684.934	0.0146000
685.012	0.0146987
685.090	0.0148400
685.168	0.0148112
685.246	0.0149062
685.325	0.0150730
685.403	0.0149522
685.481	0.0148598
685.559	0.0149888
685.637	0.0149296
685.715	0.0149398
685.793	0.0148883
685.871	0.0147874
685.950	0.0146575
686.028	0.0146977
686.106	0.0146919
686.184	0.0144701
686.262	0.0146317
686.340	0.0144405
686.418	0.0144097
686.496	0.0144436
686.575	0.0143980
686.653	0.0143219
686.731	0.0143042
686.809	0.0142854
686.887	0.0144189
686.965	0.0143297
687.043	0.0143748
687.121	0.0145781
687.200	0.0147430
687.278	0.0146999
687.356	0.0148059
687.434	0.0148940
687.512	0.0149008
687.590	0.0149574
687.668	0.0150227
687.746	0.0149004
687.825	0.0149046
687.903	0.0148665
687.981	0.0150639
688.059	0.0149812
688.137	0.0149037
688.215	0.0147529
688.293	0.0147813
688.371	0.0148372
688.450	0.0148283
688.528	0.0146834
688.606	0.0146942
688.684	0.0146188
688.762	0.0147514
688.840	0.0146156
688.918	0.0146337
688.996	0.0146242
689.075	0.0146156
689.153	0.0146596
689.231	0.0147272
689.309	0.0146992
689.387	0.0145323
689.465	0.0144128
689.543	0.0144776
689.621	0.0143574
689.700	0.0144195
689.778	0.0144294
689.856	0.0143375
689.934	0.0144852
690.012	0.0145363
690.090	0.0145703
690.168	0.0144896
690.246	0.0146133
690.325	0.0146426
690.403	0.0147057
690.481	0.0146861
690.559	0.0147292
690.637	0.0148384
690.715	0.0146831
690.793	0.0149574
690.871	0.0149229
690.950	0.0148275
691.028	0.0148898
691.106	0.0149648
691.184	0.0148950
691.262	0.0149366
691.340	0.0147892
691.418	0.0147285
691.496	0.0148210
691.575	0.0148743
691.653	0.0149261
691.731	0.0150082
691.809	0.0149097
691.887	0.0148540
691.965	0.0150050
692.043	0.0150172
692.121	0.0148509
692.200	0.0147706
692.278	0.0146581
692.356	0.0145186
692.434	0.0144633
692.512	0.0145363
692.590	0.0142935
692.668	0.0143592
692.746	0.0142213
692.825	0.0142197
692.903	0.0144182
692.981	0.0144334
693.059	0.0145116
693.137	0.0146087
693.215	0.0145048
693.293	0.0146591
693.371	0.0145615
693.450	0.0145036
693.528	0.0145791
693.606	0.0146917
693.684	0.0147076
693.762	0.0147557
693.840	0.0147454
693.918	0.0150281
693.996	0.0149496
694.075	0.0149822
694.153	0.0151039
694.231	0.0151336
694.309	0.0150732
694.387	0.0150783
694.465	0.0150948
694.543	0.0150002
694.621	0.0148796
694.700	0.0148959
694.778	0.0150223
694.856	0.0150292
694.934	0.0150735
695.012	0.0150507
695.090	0.0152148
695.168	0.0150901
695.246	0.0149654
695.325	0.0148530
695.403	0.0148502
695.481	0.0149122
695.559	0.0147240
695.637	0.0146825
695.715	0.0145438
695.793	0.0143266
695.871	0.0143570
695.950	0.0144358
696.028	0.0143421
696.106	0.0143814
696.184	0.0143629
696.262	0.0142987
696.340	0.0143147
696.418	0.0145501
696.496	0.0143590
696.575	0.0142934
696.653	0.0145956
696.731	0.0146790
696.809	0.0145004
696.887	0.0144460
696.965	0.0147340
697.043	0.0147685
697.121	0.0146554
697.200	0.0146744
697.278	0.0148081
697.356	0.0148681
697.434	0.0148164
697.512	0.0149454
697.590	0.0149741
697.668	0.0150703
697.746	0.0152265
697.825	0.0152737
697.903	0.0151614
697.981	0.0152328
698.059	0.0153378
698.137	0.0152223
698.215	0.0153483
698.293	0.0151794
698.371	0.0151654
698.450	0.0151308
698.528	0.0148029
698.606	0.0149136
698.684	0.0147866
698.762	0.0146428
698.840	0.0146130
698.918	0.0144252
698.996	0.0142994
699.075	0.0141900
699.153	0.0142123
699.231	0.0142879
699.309	0.0142290
699.387	0.0143088
699.465	0.0143713
699.543	0.0144790
699.621	0.0145480
699.700	0.0144168
699.778	0.0146159
699.856	0.0148050
699.934	0.0147948
700.012	0.0148991
700.090	0.0146545
700.168	0.0147047
700.246	0.0148225
700.325	0.0147319
700.403	0.0149309
700.481	0.0147500
700.559	0.0147472
700.637	0.0148143
700.715	0.0148914
700.793	0.0149918
700.871	0.0149109
700.950	0.0149380
701.028	0.0150255
701.106	0.0150219
701.184	0.0151929
701.262	0.0151628
701.340	0.0151341
701.418	0.0152163
701.496	0.0151714
701.575	0.0150993
701.653	0.0151502
701.731	0.0149650
701.809	0.0148068
701.887	0.0149026
701.965	0.0147760
702.043	0.0146090
702.121	0.0144515
702.200	0.0145332
702.278	0.0145478
702.356	0.0143739
702.434	0.0144453
702.512	0.0144897
702.590	0.0143296
702.668	0.0145290
702.746	0.0145275
702.825	0.0144778
702.903	0.0144368
702.981	0.0145734
703.059	0.0143633
703.137	0.0143459
703.215	0.0143476
703.293	0.0143945
703.371	0.0142081
703.450	0.0142203
703.528	0.0143634
703.606	0.0143358
703.684	0.0142443
703.762	0.0144090
703.840	0.0145653
703.918	0.0146754
703.996	0.0148565
704.075	0.0151172
704.153	0.0152359
704.231	0.0152419
704.309	0.0153222
704.387	0.0153936
704.465	0.0154182
704.543	0.0154356
704.621	0.0152133
704.700	0.0153799
704.778	0.0151499
704.856	0.0148882
704.934	0.0148560
705.012	0.0148975
705.090	0.0146468
705.168	0.0145233
705.246	0.0145415
705.325	0.0145466
705.403	0.0145762
705.481	0.0143645
705.559	0.0145322
705.637	0.0144402
705.715	0.0144458
705.793	0.0145380
705.871	0.0145148
705.950	0.0145315
706.028	0.0146753
706.106	0.0144425
706.184	0.0145795
706.262	0.0146749
706.340	0.0146527
706.418	0.0146545
706.496	0.0145455
706.575	0.0145552
706.653	0.0145409
706.731	0.0144855
706.809	0.0146474
706.887	0.0145654
706.965	0.0146336
707.043	0.0147171
707.121	0.0145876
707.200	0.0146590
707.278	0.0147481
707.356	0.0148232
707.434	0.0148109
707.512	0.0148915
707.590	0.0149166
707.668	0.0149589
707.746	0.0149287
707.825	0.0150708
707.903	0.0149932
707.981	0.0148143
708.059	0.0148174
708.137	0.0148401
708.215	0.0147324
708.293	0.0147802
708.371	0.0147723
708.450	0.0147408
708.528	0.0148383
708.606	0.0148343
708.684	0.0147836
708.762	0.0147896
708.840	0.0148456
708.918	0.0149059
708.996	0.0148920
709.075	0.0147448
709.153	0.0147830
709.231	0.0147784
709.309	0.0146644
709.387	0.0145691
709.465	0.0145171
709.543	0.0143514
709.621	0.0144118
709.700	0.0142878
709.778	0.0142919
709.856	0.0142460
709.934	0.0141846
710.012	0.0142522
710.090	0.0143423
710.168	0.0142789
710.246	0.0143248
710.325	0.0144248
710.403	0.0144804
710.481	0.0145082
710.559	0.0146900
710.637	0.0148445
710.715	0.0148830
710.793	0.0148854
710.871	0.0150045
710.950	0.0149500
711.028	0.0148959
711.106	0.0150225
711.184	0.0151900
711.262	0.0152310
711.340	0.0151943
711.418	0.0150129
711.496	0.0150501
711.575	0.0149382
711.653	0.0149293
711.731	0.0148395
711.809	0.0148729
711.887	0.0148291
711.965	0.0148660
712.043	0.0147594
712.121	0.0147993
712.200	0.0146908
712.278	0.0146733
712.356	0.0146893
712.434	0.0145329
712.512	0.0145029
712.590	0.0145238
712.668	0.0144966
712.746	0.0145104
712.825	0.0146317
712.903	0.0143822
712.981	0.0142678
713.059	0.0144129
713.137	0.0144866
713.215	0.0145142
713.293	0.0144736
713.371	0.0144672
713.450	0.0145245
713.528	0.0146198
713.606	0.0144258
713.684	0.0146351
713.762	0.0148412
713.840	0.0147299
713.918	0.0148590
713.996	0.0147668
714.075	0.0147351
714.153	0.0147959
714.231	0.0147862
714.309	0.0149551
714.387	0.0148499
714.465	0.0147725
714.543	0.0148477
714.621	0.0149755
714.700	0.0148969
714.778	0.0148887
714.856	0.0149214
714.934	0.0148815
715.012	0.0148645
715.090	0.0147669
715.168	0.0146612
715.246	0.0148587
715.325	0.0146964
715.403	0.0147421
715.481	0.0146786
715.559	0.0146774
715.637	0.0147330
715.715	0.0146579
715.793	0.0146429
715.871	0.0146239
715.950	0.0148147
716.028	0.0147554
716.106	0.0145264
716.184	0.0146908
716.262	0.0146008
716.340	0.0146384
716.418	0.0144941
716.496	0.0146165
716.575	0.0146291
716.653	0.0146307
716.731	0.0146365
716.809	0.0145356
716.887	0.0144692
716.965	0.0145291
717.043	0.0145253
717.121	0.0146141
717.200	0.0146150
717.278	0.0145652
717.356	0.0145306
717.434	0.0145776
717.512	0.0147564
717.590	0.0147669
717.668	0.0146708
717.746	0.0146910
717.825	0.0145525
717.903	0.0148135
717.981	0.0147543
718.059	0.0148952
718.137	0.0149401
718.215	0.0149841
718.293	0.0149744
718.371	0.0149601
718.450	0.0151166
718.528	0.0149730
718.606	0.0150462
718.684	0.0148569
718.762	0.0147628
718.840	0.0150024
718.918	0.0148651
718.996	0.0147905
719.075	0.0146874
719.153	0.0146131
719.231	0.0147951
719.309	0.0147826
719.387	0.0146175
719.465	0.0145145
719.543	0.0146542
719.621	0.0145958
719.700	0.0144265
719.778	0.0144603
719.856	0.0144608
719.934	0.0145124
720.012	0.0144844
720.090	0.0145499
720.168	0.0144492
720.246	0.0145122
720.325	0.0146764
720.403	0.0148000
720.481	0.0146764
720.559	0.0146393
720.637	0.0147267
720.715	0.0148027
720.793	0.0147301
720.871	0.0148610
720.950	0.0148381
721.028	0.0148960
721.106	0.0149815
721.184	0.0148944
721.262	0.0149796
721.340	0.0148217
721.418	0.0147181
721.496	0.0149799
721.575	0.0148338
721.653	0.0148197
721.731	0.0148352
721.809	0.0148975
721.887	0.0149535
721.965	0.0147983
722.043	0.0147988
722.121	0.0146658
722.200	0.0147710
722.278	0.0148295
722.356	0.0149162
722.434	0.0147549
722.512	0.0147852
722.590	0.0148510
722.668	0.0147882
722.746	0.0148632
722.825	0.0148457
722.903	0.0148807
722.981	0.0148174
723.059	0.0148466
723.137	0.0147863
723.215	0.0148782
723.293	0.0147303
723.371	0.0146298
723.450	0.0147140
723.528	0.0147561
723.606	0.0146239
723.684	0.0145435
723.762	0.0146523
723.840	0.0146368
723.918	0.0146606
723.996	0.0147163
724.075	0.0147176
724.153	0.0146591
724.231	0.0147150
724.309	0.0145756
724.387	0.0146614
724.465	0.0148016
724.543	0.0148743
724.621	0.0146872
724.700	0.0148738
724.778	0.0149656
724.856	0.0149467
724.934	0.0150274
725.012	0.0150108
725.090	0.0149964
725.168	0.0149490
725.246	0.0149976
725.325	0.0150744
725.403	0.0152105
725.481	0.0151656
725.559	0.0149691
725.637	0.0149510
725.715	0.0151228
725.793	0.0149976
725.871	0.0148934
725.950	0.0148273
726.028	0.0147786
726.106	0.0146803
726.184	0.0147172
726.262	0.0146516
726.340	0.0147718
726.418	0.0144104
726.496	0.0143541
726.575	0.0143089
726.653	0.0144304
726.731	0.0144196
726.809	0.0144914
726.887	0.0146399
726.965	0.0146033
727.043	0.0146360
727.121	0.0147378
727.200	0.0147098
727.278	0.0148483
727.356	0.0148667
727.434	0.0149068
727.512	0.0149215
727.590	0.0148947
727.668	0.0147822
727.746	0.0150323
727.825	0.0149171
727.903	0.0148644
727.981	0.0149232
728.059	0.0149081
728.137	0.0147901
728.215	0.0147514
728.293	0.0148346
728.371	0.0148051
728.450	0.0148679
728.528	0.0148318
728.606	0.0147781
728.684	0.0147424
728.762	0.0147581
728.840	0.0146633
728.918	0.0146069
728.996	0.0146826
729.075	0.0148093
729.153	0.0146469
729.231	0.0145289
729.309	0.0146127
729.387	0.0145866
729.465	0.0145928
729.543	0.0145425
729.621	0.0147250
729.700	0.0145951
729.778	0.0148956
729.856	0.0147837
729.934	0.0146719
730.012	0.0147043
730.090	0.0148064
730.168	0.0149188
730.246	0.0148764
730.325	0.0147238
730.403	0.0147729
730.481	0.0146835
730.559	0.0146061
730.637	0.0147756
730.715	0.0147475
730.793	0.0147009
730.871	0.0146782
730.950	0.0146482
731.028	0.0145454
731.106	0.0146529
731.184	0.0145252
731.262	0.0145308
731.340	0.0146328
731.418	0.0146926
731.496	0.0147208
731.575	0.0148474
731.653	0.0147749
731.731	0.0148102
731.809	0.0148864
731.887	0.0147559
731.965	0.0148038
732.043	0.0148965
732.121	0.0147182
732.200	0.0148418
732.278	0.0149190
732.356	0.0148998
732.434	0.0149064
732.512	0.0147855
732.590	0.0146290
732.668	0.0148174
732.746	0.0149539
732.825	0.0147666
732.903	0.0146657
732.981	0.0147662
733.059	0.0146108
733.137	0.0147124
733.215	0.0148122
733.293	0.0145856
733.371	0.0145733
733.450	0.0144995
733.528	0.0145206
733.606	0.0144825
733.684	0.0144316
733.762	0.0145035
733.840	0.0144221
733.918	0.0145194
733.996	0.0144223
734.075	0.0145237
734.153	0.0146819
734.231	0.0147034
734.309	0.0146570
734.387	0.0146709
734.465	0.0147901
734.543	0.0148826
734.621	0.0149723
734.700	0.0147892
734.778	0.0148183
734.856	0.0150837
734.934	0.0151224
735.012	0.0149016
735.090	0.0149619
735.168	0.0150169
735.246	0.0149875
735.325	0.0149418
735.403	0.0148573
735.481	0.0147789
735.559	0.0147945
735.637	0.0146933
735.715	0.0146387
735.793	0.0146635
735.871	0.0145608
735.950	0.0145425
736.028	0.0144455
736.106	0.0144959
736.184	0.0144301
736.262	0.0145284
736.340	0.0144049
736.418	0.0144833
736.496	0.0144576
736.575	0.0145149
736.653	0.0146261
736.731	0.0145902
736.809	0.0145337
736.887	0.0146759
736.965	0.0146744
737.043	0.0146933
737.121	0.0147801
737.200	0.0148143
737.278	0.0148507
737.356	0.0148956
737.434	0.0147045
737.512	0.0149013
737.590	0.0148429
737.668	0.0147767
737.746	0.0148963
737.825	0.0148969
737.903	0.0147514
737.981	0.0147919
738.059	0.0148098
738.137	0.0147823
738.215	0.0146677
738.293	0.0146502
738.371	0.0148550
738.450	0.0146291
738.528	0.0145052
738.606	0.0146799
738.684	0.0146780
738.762	0.0145970
738.840	0.0145350
738.918	0.0146421
738.996	0.0146829
739.075	0.0146778
739.153	0.0146006
739.231	0.0146557
739.309	0.0148335
739.387	0.0147630
739.465	0.0146686
739.543	0.0147239
739.621	0.0146896
739.700	0.0147903
739.778	0.0147282
739.856	0.0147777
739.934	0.0147594
740.012	0.0146503
740.090	0.0147411
740.168	0.0146554
740.246	0.0145116
740.325	0.0146312
740.403	0.0145250
740.481	0.0145619
740.559	0.0145571
740.637	0.0145455
740.715	0.0146820
740.793	0.0146041
740.871	0.0146220
740.950	0.0147263
741.028	0.0147596
741.106	0.0147162
741.184	0.0146447
741.262	0.0146466
741.340	0.0146863
741.418	0.0147257
741.496	0.0147641
741.575	0.0147226
741.653	0.0145863
741.731	0.0147935
741.809	0.0147604
741.887	0.0147402
741.965	0.0148495
742.043	0.0146223
742.121	0.0146960
742.200	0.0147490
742.278	0.0148709
742.356	0.0149483
742.434	0.0148267
742.512	0.0149998
742.590	0.0147697
742.668	0.0148411
742.746	0.0148524
742.825	0.0148268
742.903	0.0147598
742.981	0.0147462
743.059	0.0144948
743.137	0.0146368
743.215	0.0146030
743.293	0.0147182
743.371	0.0147178
743.450	0.0145121
743.528	0.0144851
743.606	0.0146338
743.684	0.0145774
743.762	0.0145048
743.840	0.0146056
743.918	0.0146664
743.996	0.0146951
744.075	0.0146744
744.153	0.0146837
744.231	0.0146277
744.309	0.0146725
744.387	0.0146529
744.465	0.0147493
744.543	0.0148290
744.621	0.0145387
744.700	0.0148702
744.778	0.0148543
744.856	0.0147777
744.934	0.0149437
745.012	0.0147518
745.090	0.0149414
745.168	0.0148950
745.246	0.0150216
745.325	0.0148454
745.403	0.0149178
745.481	0.0148199
745.559	0.0148545
745.637	0.0146862
745.715	0.0147863
745.793	0.0146539
745.871	0.0147004
745.950	0.0146577
746.028	0.0145979
746.106	0.0145937
746.184	0.0146283
746.262	0.0147281
746.340	0.0146034
746.418	0.0145664
746.496	0.0146204
746.575	0.0146438
746.653	0.0146739
746.731	0.0144918
746.809	0.0145784
746.887	0.0147536
746.965	0.0148032
747.043	0.0146222
747.121	0.0148062
747.200	0.0148528
747.278	0.0146757
747.356	0.0149140
747.434	0.0147916
747.512	0.0148824
747.590	0.0147470
747.668	0.0147626
747.746	0.0148407
747.825	0.0148425
747.903	0.0147008
747.981	0.0147931
748.059	0.0148521
748.137	0.0147573
748.215	0.0147623
748.293	0.0148559
748.371	0.0145831
748.450	0.0147410
748.528	0.0147491
748.606	0.0147204
748.684	0.0147128
748.762	0.0147131
748.840	0.0146564
748.918	0.0146509
748.996	0.0148706
749.075	0.0147711
749.153	0.0147099
749.231	0.0146824
749.309	0.0145900
749.387	0.0146074
749.465	0.0145973
749.543	0.0147003
749.621	0.0147050
749.700	0.0145520
749.778	0.0147038
749.856	0.0148019
749.934	0.0147688
750.012	0.0147404
750.090	0.0145786
750.168	0.0147243
750.246	0.0148369
750.325	0.0147488
750.403	0.0147395
750.481	0.0147663
750.559	0.0148650
750.637	0.0147071
750.715	0.0146346
750.793	0.0146230
750.871	0.0146043
750.950	0.0147329
751.028	0.0147106
751.106	0.0147052
751.184	0.0146613
751.262	0.0145911
751.340	0.0147084
751.418	0.0146770
751.496	0.0146515
751.575	0.0146725
751.653	0.0146225
751.731	0.0147069
751.809	0.0147198
751.887	0.0147456
751.965	0.0147207
752.043	0.0148036
752.121	0.0146833
752.200	0.0147341
752.278	0.0147825
752.356	0.0147577
752.434	0.0148500
752.512	0.0147389
752.590	0.0147115
752.668	0.0148282
752.746	0.0147752
752.825	0.0148080
752.903	0.0148815
752.981	0.0147814
753.059	0.0148584
753.137	0.0147721
753.215	0.0147750
753.293	0.0147575
753.371	0.0145538
753.450	0.0146374
753.528	0.0147456
753.606	0.0148177
753.684	0.0147568
753.762	0.0147601
753.840	0.0148056
753.918	0.0146668
753.996	0.0145891
754.075	0.0147186
754.153	0.0147337
754.231	0.0146918
754.309	0.0147642
754.387	0.0146979
754.465	0.0147159
754.543	0.0147632
754.621	0.0146960
754.700	0.0146796
754.778	0.0147696
754.856	0.0147972
754.934	0.0148631
755.012	0.0147662
755.090	0.0147707
755.168	0.0149195
755.246	0.0147371
755.325	0.0147254
755.403	0.0147092
755.481	0.0147794
755.559	0.0147769
755.637	0.0147014
755.715	0.0148456
755.793	0.0147530
755.871	0.0147903
755.950	0.0148141
756.028	0.0147370
756.106	0.0146392
756.184	0.0147932
756.262	0.0146841
756.340	0.0147678
756.418	0.0146287
756.496	0.0146040
756.575	0.0148281
756.653	0.0148086
756.731	0.0147139
756.809	0.0146468
756.887	0.0147424
756.965	0.0145937
757.043	0.0147406
757.121	0.0147676
757.200	0.0147623
757.278	0.0147734
757.356	0.0146854
757.434	0.0147090
757.512	0.0149447
757.590	0.0147702
757.668	0.0147169
757.746	0.0148478
757.825	0.0148045
757.903	0.0146159
757.981	0.0147540
758.059	0.0146417
758.137	0.0146740
758.215	0.0148077
758.293	0.0146159
758.371	0.0148080
758.450	0.0146939
758.528	0.0147455
758.606	0.0146800
758.684	0.0147115
758.762	0.0147692
758.840	0.0146711
758.918	0.0147905
758.996	0.0145222
759.075	0.0147256
759.153	0.0146771
759.231	0.0145943
759.309	0.0144827
759.387	0.0145763
759.465	0.0147157
759.543	0.0146209
759.621	0.0147296
759.700	0.0147807
759.778	0.0145673
759.856	0.0147875
759.934	0.0150212
760.012	0.0148856
760.090	0.0146970
760.168	0.0146832
760.246	0.0148300
760.325	0.0148203
760.403	0.0147133
760.481	0.0146565
760.559	0.0146491
760.637	0.0147793
760.715	0.0146974
760.793	0.0147260
760.871	0.0147089
760.950	0.0147183
761.028	0.0147396
761.106	0.0147421
761.184	0.0145820
761.262	0.0147327
761.340	0.0144868
761.418	0.0146722
761.496	0.0146363
761.575	0.0146724
761.653	0.0147048
761.731	0.0147036
761.809	0.0145708
761.887	0.0145602
761.965	0.0145776
762.043	0.0147216
762.121	0.0146463
762.200	0.0148413
762.278	0.0146996
762.356	0.0146975
762.434	0.0147109
762.512	0.0145751
762.590	0.0147632
762.668	0.0147061
762.746	0.0147498
762.825	0.0147033
762.903	0.0147900
762.981	0.0148802
763.059	0.0147197
763.137	0.0146100
763.215	0.0146571
763.293	0.0147135
763.371	0.0148287
763.450	0.0148932
763.528	0.0147041
763.606	0.0145934
763.684	0.0146947
763.762	0.0148032
763.840	0.0148200
763.918	0.0147035
763.996	0.0148095
764.075	0.0147648
764.153	0.0147602
764.231	0.0147297
764.309	0.0148196
764.387	0.0145697
764.465	0.0148729
764.543	0.0148222
764.621	0.0147614
764.700	0.0146004
764.778	0.0146365
764.856	0.0145777
764.934	0.0146799
765.012	0.0147536
765.090	0.0147650
765.168	0.0147163
765.246	0.0147569
765.325	0.0146200
765.403	0.0146645
765.481	0.0148506
765.559	0.0146794
765.637	0.0147337
765.715	0.0146449
765.793	0.0147048
765.871	0.0146894
765.950	0.0149129
766.028	0.0148019
766.106	0.0146898
766.184	0.0146678
766.262	0.0145509
766.340	0.0147700
766.418	0.0146604
766.496	0.0146896
766.575	0.0146613
766.653	0.0147867
766.731	0.0147969
766.809	0.0146446
766.887	0.0147486
766.965	0.0148932
767.043	0.0147154
767.121	0.0146932
767.200	0.0148674
767.278	0.0147752
767.356	0.0146114
767.434	0.0146849
767.512	0.0147117
767.590	0.0147618
767.668	0.0147266
767.746	0.0146849
767.825	0.0148341
767.903	0.0147033
767.981	0.0147063
768.059	0.0146909
768.137	0.0147475
768.215	0.0147089
768.293	0.0146223
768.371	0.0147288
768.450	0.0147106
768.528	0.0146906
768.606	0.0147255
768.684	0.0146284
768.762	0.0147245
768.840	0.0145876
768.918	0.0147482
768.996	0.0146203
769.075	0.0146928
769.153	0.0146288
769.231	0.0147089
769.309	0.0147159
769.387	0.0146044
769.465	0.0147161
769.543	0.0147323
769.621	0.0147929
769.700	0.0148215
769.778	0.0146740
769.856	0.0146896
769.934	0.0146799
770.012	0.0146447
770.090	0.0146507
770.168	0.0147944
770.246	0.0148051
770.325	0.0147815
770.403	0.0147222
770.481	0.0146989
770.559	0.0148064
770.637	0.0147561
770.715	0.0146566
770.793	0.0147884
770.871	0.0147833
770.950	0.0147876
771.028	0.0147482
771.106	0.0146412
771.184	0.0146426
771.262	0.0147894
771.340	0.0147585
771.418	0.0146735
771.496	0.0146647
771.575	0.0147884
771.653	0.0146777
771.731	0.0148554
771.809	0.0147976
771.887	0.0146642
771.965	0.0147034
772.043	0.0147792
772.121	0.0147734
772.200	0.0149017
772.278	0.0148127
772.356	0.0145575
772.434	0.0148035
772.512	0.0146806
772.590	0.0145412
772.668	0.0147894
772.746	0.0147501
772.825	0.0147330
772.903	0.0147192
772.981	0.0147229
773.059	0.0147783
773.137	0.0148948
773.215	0.0147781
773.293	0.0147133
773.371	0.0147852
773.450	0.0147710
773.528	0.0147008
773.606	0.0147658
773.684	0.0147358
773.762	0.0147166
773.840	0.0147395
773.918	0.0147153
773.996	0.0146888
774.075	0.0147174
774.153	0.0147355
774.231	0.0146857
774.309	0.0146891
774.387	0.0149088
774.465	0.0147842
774.543	0.0146526
774.621	0.0147972
774.700	0.0147366
774.778	0.0147106
774.856	0.0148700
774.934	0.0146712
775.012	0.0147821
775.090	0.0147826
775.168	0.0146745
775.246	0.0145384
775.325	0.0145905
775.403	0.0147334
775.481	0.0146976
775.559	0.0146650
775.637	0.0147424
775.715	0.0147333
775.793	0.0146983
775.871	0.0147982
775.950	0.0146805
776.028	0.0146584
776.106	0.0147359
776.184	0.0147655
776.262	0.0148077
776.340	0.0146284
776.418	0.0146661
776.496	0.0148584
776.575	0.0146805
776.653	0.0147192
776.731	0.0147131
776.809	0.0146471
776.887	0.0146477
776.965	0.0147569
777.043	0.0148298
777.121	0.0147714
777.200	0.0147071
777.278	0.0146532
777.356	0.0146297
777.434	0.0146287
777.512	0.0145529
777.590	0.0146854
777.668	0.0146680
777.746	0.0147696
777.825	0.0147944
777.903	0.0146241
777.981	0.0147355
778.059	0.0147361
778.137	0.0145864
778.215	0.0146687
778.293	0.0146806
778.371	0.0148122
778.450	0.0148256
778.528	0.0147030
778.606	0.0147543
778.684	0.0147807
778.762	0.0147759
778.840	0.0147239
778.918	0.0148368
778.996	0.0147976
779.075	0.0146274
779.153	0.0147810
779.231	0.0147977
779.309	0.0147053
779.387	0.0146569
779.465	0.0147375
779.543	0.0146566
779.621	0.0147029
779.700	0.0146847
779.778	0.0146616
779.856	0.0147792
779.934	0.0147676
780.012	0.0146855
780.090	0.0145879
780.168	0.0148248
780.246	0.0146967
780.325	0.0147208
780.403	0.0147530
780.481	0.0146922
780.559	0.0145978
780.637	0.0146758
780.715	0.0147176
780.793	0.0148803
780.871	0.0147225
780.950	0.0146948
781.028	0.0148597
781.106	0.0146639
781.184	0.0147755
781.262	0.0147809
781.340	0.0146165
781.418	0.0147530
781.496	0.0148454
781.575	0.0147276
781.653	0.0148090
781.731	0.0146690
781.809	0.0146518
781.887	0.0147684
781.965	0.0148392
782.043	0.0147866
782.121	0.0146680
782.200	0.0147138
782.278	0.0146293
782.356	0.0147048
782.434	0.0146711
782.512	0.0146014
782.590	0.0145792
782.668	0.0146605
782.746	0.0147090
782.825	0.0147203
782.903	0.0148821
782.981	0.0146459
783.059	0.0147504
783.137	0.0146582
783.215	0.0147484
783.293	0.0146694
783.371	0.0146465
783.450	0.0147559
783.528	0.0148354
783.606	0.0148004
783.684	0.0147365
783.762	0.0146621
783.840	0.0148925
783.918	0.0147984
783.996	0.0147817
784.075	0.0147851
784.153	0.0148959
784.231	0.0147211
784.309	0.0146638
784.387	0.0148207
784.465	0.0147849
784.543	0.0148254
784.621	0.0147666
784.700	0.0147195
784.778	0.0148010
784.856	0.0147279
784.934	0.0147548
785.012	0.0147650
785.090	0.0148204
785.168	0.0149242
785.246	0.0146075
785.325	0.0147274
785.403	0.0147217
785.481	0.0145868
785.559	0.0145814
785.637	0.0146381
785.715	0.0147252
785.793	0.0147117
785.871	0.0146378
785.950	0.0146458
786.028	0.0147246
786.106	0.0147443
786.184	0.0147174
786.262	0.0147445
786.340	0.0148228
786.418	0.0148788
786.496	0.0148665
786.575	0.0148685
786.653	0.0146863
786.731	0.0146655
786.809	0.0148229
786.887	0.0145983
786.965	0.0146153
787.043	0.0147956
787.121	0.0148062
787.200	0.0149014
787.278	0.0149310
787.356	0.0147726
787.434	0.0147378
787.512	0.0146564
787.590	0.0147868
787.668	0.0148089
787.746	0.0146616
787.825	0.0146367
787.903	0.0145741
787.981	0.0148093
788.059	0.0147546
788.137	0.0148576
788.215	0.0147141
788.293	0.0146889
788.371	0.0147015
788.450	0.0147281
788.528	0.0146097
788.606	0.0146752
788.684	0.0148170
788.762	0.0146571
788.840	0.0145916
788.918	0.0146207
788.996	0.0147858
789.075	0.0147116
789.153	0.0148222
789.231	0.0148048
789.309	0.0146896
789.387	0.0146587
789.465	0.0147971
789.543	0.0147579
789.621	0.0148489
789.700	0.0147751
789.778	0.0147733
789.856	0.0147213
789.934	0.0148694
790.012	0.0149392
790.090	0.0147607
790.168	0.0146815
790.246	0.0147569
790.325	0.0147427
790.403	0.0147683
790.481	0.0148367
790.559	0.0147948
790.637	0.0146323
790.715	0.0147525
790.793	0.0149024
790.871	0.0148574
790.950	0.0147761
791.028	0.0147607
791.106	0.0147384
791.184	0.0147053
791.262	0.0146161
791.340	0.0147404
791.418	0.0148105
791.496	0.0148526
791.575	0.0146886
791.653	0.0146471
791.731	0.0147210
791.809	0.0146991
791.887	0.0148770
791.965	0.0146230
792.043	0.0147017
792.121	0.0147269
792.200	0.0147591
792.278	0.0147098
792.356	0.0146719
792.434	0.0146024
792.512	0.0146793
792.590	0.0146725
792.668	0.0145821
792.746	0.0146681
792.825	0.0146883
792.903	0.0146838
792.981	0.0147964
793.059	0.0146532
793.137	0.0147778
793.215	0.0147802
793.293	0.0148280
793.371	0.0147210
793.450	0.0147185
793.528	0.0148372
793.606	0.0146987
793.684	0.0148064
793.762	0.0147266
793.840	0.0148027
793.918	0.0148309
793.996	0.0147215
794.075	0.0146988
794.153	0.0148679
794.231	0.0148106
794.309	0.0148193
794.387	0.0148586
794.465	0.0146970
794.543	0.0146600
794.621	0.0147079
794.700	0.0147629
794.778	0.0147942
794.856	0.0147250
794.934	0.0146183
795.012	0.0146719
795.090	0.0147776
795.168	0.0147169
795.246	0.0146950
795.325	0.0148211
795.403	0.0146367
795.481	0.0147257
795.559	0.0147825
795.637	0.0146942
795.715	0.0146013
795.793	0.0147380
795.871	0.0147388
795.950	0.0145395
796.028	0.0147269
796.106	0.0147665
796.184	0.0147878
796.262	0.0148730
796.340	0.0148933
796.418	0.0148573
796.496	0.0147832
796.575	0.0149015
796.653	0.0148841
796.731	0.0147584
796.809	0.0147318
796.887	0.0147310
796.965	0.0148077
797.043	0.0149004
797.121	0.0148927
797.200	0.0147405
797.278	0.0149208
797.356	0.0147257
797.434	0.0146800
797.512	0.0147787
797.590	0.0147009
797.668	0.0147266
797.746	0.0148479
797.825	0.0147105
797.903	0.0147479
797.981	0.0147203
798.059	0.0147858
798.137	0.0147984
798.215	0.0146846
798.293	0.0146314
798.371	0.0147993
798.450	0.0148019
798.528	0.0147041
798.606	0.0147359
798.684	0.0149178
798.762	0.0147459
798.840	0.0146525
798.918	0.0147958
798.996	0.0147141
799.075	0.0146146
799.153	0.0146908
799.231	0.0145844
799.309	0.0147341
799.387	0.0148451
799.465	0.0148065
799.543	0.0147508
799.621	0.0148094
799.700	0.0147318
799.778	0.0147857
799.856	0.0147905
799.934	0.0147271
800.012	0.0147228
800.090	0.0147839
800.168	0.0147938
800.246	0.0146822
800.325	0.0147189
800.403	0.0146658
800.481	0.0146388
800.559	0.0147002
800.637	0.0146411
800.715	0.0145610
800.793	0.0146646
800.871	0.0145951
800.950	0.0148048
801.028	0.0148466
801.106	0.0146842
801.184	0.0147384
801.262	0.0145956
801.340	0.0147435
801.418	0.0147310
801.496	0.0147083
801.575	0.0147712
801.653	0.0147705
801.731	0.0147953
801.809	0.0147830
801.887	0.0146696
801.965	0.0146685
802.043	0.0148311
802.121	0.0148100
802.200	0.0147593
802.278	0.0146373
802.356	0.0148504
802.434	0.0147176
802.512	0.0147489
802.590	0.0145842
802.668	0.0145863
802.746	0.0147336
802.825	0.0147718
802.903	0.0146761
802.981	0.0147373
803.059	0.0147246
803.137	0.0146067
803.215	0.0146019
803.293	0.0146527
803.371	0.0146920
803.450	0.0145554
803.528	0.0147076
803.606	0.0146277
803.684	0.0147361
803.762	0.0146130
803.840	0.0146737
803.918	0.0146306
803.996	0.0146710
804.075	0.0147063
804.153	0.0145651
804.231	0.0146317
804.309	0.0147118
804.387	0.0146197
804.465	0.0146806
804.543	0.0147021
804.621	0.0147045
804.700	0.0147428
804.778	0.0147803
804.856	0.0147769
804.934	0.0146059
805.012	0.0146410
805.090	0.0149036
805.168	0.0147689
805.246	0.0147915
805.325	0.0148618
805.403	0.0147640
805.481	0.0146353
805.559	0.0146767
805.637	0.0147432
805.715	0.0146836
805.793	0.0146906
805.871	0.0147150
805.950	0.0145509
806.028	0.0146008
806.106	0.0146893
806.184	0.0148093
806.262	0.0147530
806.340	0.0147305
806.418	0.0147899
806.496	0.0147346
806.575	0.0148050
806.653	0.0147599
806.731	0.0146328
806.809	0.0147907
806.887	0.0147067
806.965	0.0147874
807.043	0.0146954
807.121	0.0146309
807.200	0.0148197
807.278	0.0148664
807.356	0.0147666
807.434	0.0147739
807.512	0.0146200
807.590	0.0147279
807.668	0.0147607
807.746	0.0147124
807.825	0.0146677
807.903	0.0147781
807.981	0.0147705
808.059	0.0148317
808.137	0.0146380
808.215	0.0147205
808.293	0.0147289
808.371	0.0147160
808.450	0.0147703
808.528	0.0148154
808.606	0.0145966
808.684	0.0147148
808.762	0.0147362
808.840	0.0146464
808.918	0.0146291
808.996	0.0147929
809.075	0.0148804
809.153	0.0148015
809.231	0.0148795
809.309	0.0148222
809.387	0.0147009
809.465	0.0147546
809.543	0.0147474
809.621	0.0147108
809.700	0.0148012
809.778	0.0148065
809.856	0.0147316
809.934	0.0147410
810.012	0.0148270
810.090	0.0147411
810.168	0.0146732
810.246	0.0146824
810.325	0.0148098
810.403	0.0146908
810.481	0.0147639
810.559	0.0146884
810.637	0.0147718
810.715	0.0147254
810.793	0.0147308
810.871	0.0146564
810.950	0.0146442
811.028	0.0145545
811.106	0.0146049
811.184	0.0146597
811.262	0.0146326
811.340	0.0146352
811.418	0.0147305
811.496	0.0146026
811.575	0.0146264
811.653	0.0146204
811.731	0.0145806
811.809	0.0146135
811.887	0.0145960
811.965	0.0146079
812.043	0.0146652
812.121	0.0146304
812.200	0.0147356
812.278	0.0147215
812.356	0.0146638
812.434	0.0146841
812.512	0.0147655
812.590	0.0146391
812.668	0.0148004
812.746	0.0147463
812.825	0.0146754
812.903	0.0145795
812.981	0.0146551
813.059	0.0147343
813.137	0.0148745
813.215	0.0147759
813.293	0.0146456
813.371	0.0147589
813.450	0.0148299
813.528	0.0146572
813.606	0.0147061
813.684	0.0148188
813.762	0.0147511
813.840	0.0146482
813.918	0.0146578
813.996	0.0146988
814.075	0.0147160
814.153	0.0146314
814.231	0.0147341
814.309	0.0147334
814.387	0.0146618
814.465	0.0146628
814.543	0.0147604
814.621	0.0148876
814.700	0.0147112
814.778	0.0145850
814.856	0.0145515
814.934	0.0146089
815.012	0.0147800
815.090	0.0146369
815.168	0.0146523
815.246	0.0147845
815.325	0.0146071
815.403	0.0146484
815.481	0.0146207
815.559	0.0146886
815.637	0.0146973
815.715	0.0147449
815.793	0.0149354
815.871	0.0147645
815.950	0.0147586
816.028	0.0147874
816.106	0.0147424
816.184	0.0147720
816.262	0.0147318
816.340	0.0146115
816.418	0.0145293
816.496	0.0145743
816.575	0.0146403
816.653	0.0147311
816.731	0.0147325
816.809	0.0146784
816.887	0.0147500
816.965	0.0148254
817.043	0.0146841
817.121	0.0146623
817.200	0.0148322
817.278	0.0147670
817.356	0.0145989
817.434	0.0146525
817.512	0.0147395
817.590	0.0146864
817.668	0.0147156
817.746	0.0147319
817.825	0.0147662
817.903	0.0146955
817.981	0.0146098
818.059	0.0147082
818.137	0.0146606
818.215	0.0147012
818.293	0.0145973
818.371	0.0146404
818.450	0.0148133
818.528	0.0145009
818.606	0.0147027
818.684	0.0147440
818.762	0.0147276
818.840	0.0148965
818.918	0.0146382
818.996	0.0147230
819.075	0.0147668
819.153	0.0146705
819.231	0.0147741
819.309	0.0147932
819.387	0.0147186
819.465	0.0147399
819.543	0.0147985
819.621	0.0146931
819.700	0.0147775
819.778	0.0147647
819.856	0.0146630
819.934	0.0145628
820.012	0.0146102
820.090	0.0147720
820.168	0.0148073
820.246	0.0147587
820.325	0.0145473
820.403	0.0147243
820.481	0.0146231
820.559	0.0148120
820.637	0.0147987
820.715	0.0147986
820.793	0.0147887
820.871	0.0149007
820.950	0.0146929
821.028	0.0147690
821.106	0.0147116
821.184	0.0148148
821.262	0.0148306
821.340	0.0147142
821.418	0.0147631
821.496	0.0148222
821.575	0.0147202
821.653	0.0148158
821.731	0.0147800
821.809	0.0146405
821.887	0.0148758
821.965	0.0147250
822.043	0.0148361
822.121	0.0146775
822.200	0.0146934
822.278	0.0147041
822.356	0.0146735
822.434	0.0148367
822.512	0.0147176
822.590	0.0146299
822.668	0.0146061
822.746	0.0147281
822.825	0.0146058
822.903	0.0147029
822.981	0.0148155
823.059	0.0147206
823.137	0.0147163
823.215	0.0146348
823.293	0.0146181
823.371	0.0148182
823.450	0.0147539
823.528	0.0147782
823.606	0.0148522
823.684	0.0146938
823.762	0.0147607
823.840	0.0147751
823.918	0.0147633
823.996	0.0147857
824.075	0.0147752
824.153	0.0147224
824.231	0.0147225
824.309	0.0147220
824.387	0.0148197
824.465	0.0147205
824.543	0.0146291
824.621	0.0146927
824.700	0.0146943
824.778	0.0146330
824.856	0.0146727
824.934	0.0146593
825.012	0.0147011
825.090	0.0147140
825.168	0.0147598
825.246	0.0145919
825.325	0.0146630
825.403	0.0145484
825.481	0.0147311
825.559	0.0147250
825.637	0.0147481
825.715	0.0146432
825.793	0.0146588
825.871	0.0147187
825.950	0.0147314
826.028	0.0147498
826.106	0.0146582
826.184	0.0146095
826.262	0.0147369
826.340	0.0147865
826.418	0.0146656
826.496	0.0147916
826.575	0.0147014
826.653	0.0147163
826.731	0.0147730
826.809	0.0146786
826.887	0.0147031
826.965	0.0148110
827.043	0.0147404
827.121	0.0146642
827.200	0.0146953
827.278	0.0147746
827.356	0.0145876
827.434	0.0146346
827.512	0.0146727
827.590	0.0146621
827.668	0.0147945
827.746	0.0146223
827.825	0.0147758
827.903	0.0147047
827.981	0.0146500
828.059	0.0147189
828.137	0.0147350
828.215	0.0147748
828.293	0.0147128
828.371	0.0146202
828.450	0.0147260
828.528	0.0148574
828.606	0.0147546
828.684	0.0147348
828.762	0.0147333
828.840	0.0147427
828.918	0.0146268
828.996	0.0147616
829.075	0.0148179
829.153	0.0147054
829.231	0.0146692
829.309	0.0147399
829.387	0.0147363
829.465	0.0147144
829.543	0.0146876
829.621	0.0145607
829.700	0.0146719
829.778	0.0145748
829.856	0.0147410
829.934	0.0148056
830.012	0.0146796
830.090	0.0146731
830.168	0.0145092
830.246	0.0147375
830.325	0.0146529
830.403	0.0146500
830.481	0.0148012
830.559	0.0147411
830.637	0.0146410
830.715	0.0146288
830.793	0.0147292
830.871	0.0146841
830.950	0.0147491
831.028	0.0147379
831.106	0.0146849
831.184	0.0147398
831.262	0.0147189
831.340	0.0148220
831.418	0.0147127
831.496	0.0146629
831.575	0.0147421
831.653	0.0146935
831.731	0.0146283
831.809	0.0147994
831.887	0.0147314
831.965	0.0147297
832.043	0.0147427
832.121	0.0147717
832.200	0.0147208
832.278	0.0147624
832.356	0.0148080
832.434	0.0147987
832.512	0.0148409
832.590	0.0147899
832.668	0.0146918
832.746	0.0147772
832.825	0.0145978
832.903	0.0146782
832.981	0.0146428
833.059	0.0146049
833.137	0.0146731
833.215	0.0147538
833.293	0.0146623
833.371	0.0147933
833.450	0.0146608
833.528	0.0147797
833.606	0.0146928
833.684	0.0146737
833.762	0.0147355
833.840	0.0147212
833.918	0.0146712
833.996	0.0145840
834.075	0.0146445
834.153	0.0146726
834.231	0.0146334
834.309	0.0148173
834.387	0.0147297
834.465	0.0147533
834.543	0.0148510
834.621	0.0147139
834.700	0.0147462
834.778	0.0148212
834.856	0.0147028
834.934	0.0146166
835.012	0.0148358
835.090	0.0147108
835.168	0.0147387
835.246	0.0148038
835.325	0.0147284
835.403	0.0147556
835.481	0.0146510
835.559	0.0146909
835.637	0.0147218
835.715	0.0147636
835.793	0.0147347
835.871	0.0147096
835.950	0.0148110
836.028	0.0146925
836.106	0.0147438
836.184	0.0147207
836.262	0.0147350
836.340	0.0145413
836.418	0.0147444
836.496	0.0147429
836.575	0.0146532
836.653	0.0146730
836.731	0.0148037
836.809	0.0147423
836.887	0.0148328
836.965	0.0146527
837.043	0.0148049
837.121	0.0146374
837.200	0.0147398
837.278	0.0147433
837.356	0.0146704
837.434	0.0147079
837.512	0.0146753
837.590	0.0146168
837.668	0.0146653
837.746	0.0147370
837.825	0.0145955
837.903	0.0146240
837.981	0.0147190
838.059	0.0148057
838.137	0.0147655
838.215	0.0148176
838.293	0.0147177
838.371	0.0146312
838.450	0.0148743
838.528	0.0147790
838.606	0.0146468
838.684	0.0146524
838.762	0.0146117
838.840	0.0146329
838.918	0.0147194
838.996	0.0147649
839.075	0.0147587
839.153	0.0145872
839.231	0.0147008
839.309	0.0147388
839.387	0.0146935
839.465	0.0147207
839.543	0.0147604
839.621	0.0146659
839.700	0.0146400
839.778	0.0146328
839.856	0.0146950
839.934	0.0147343
840.012	0.0147175
840.090	0.0145198
840.168	0.0146349
840.246	0.0148047
840.325	0.0146677
840.403	0.0146329
840.481	0.0147739
840.559	0.0147675
840.637	0.0145972
840.715	0.0146065
840.793	0.0146603
840.871	0.0148138
840.950	0.0147937
841.028	0.0146355
841.106	0.0147169
841.184	0.0147552
841.262	0.0146542
841.340	0.0147172
841.418	0.0148163
841.496	0.0147221
841.575	0.0146466
841.653	0.0146858
841.731	0.0147877
841.809	0.0147899
841.887	0.0146617
841.965	0.0147202
842.043	0.0147215
842.121	0.0147376
842.200	0.0147076
842.278	0.0147723
842.356	0.0147665
842.434	0.0146333
842.512	0.0147310
842.590	0.0146886
842.668	0.0146712
842.746	0.0147732
842.825	0.0146663
842.903	0.0147275
842.981	0.0147864
843.059	0.0147027
843.137	0.0146608
843.215	0.0146223
843.293	0.0145519
843.371	0.0147414
843.450	0.0146535
843.528	0.0147725
843.606	0.0147134
843.684	0.0147430
843.762	0.0147771
843.840	0.0148498
843.918	0.0147699
843.996	0.0147397
844.075	0.0147515
844.153	0.0147851
844.231	0.0146385
844.309	0.0147296
844.387	0.0146861
844.465	0.0148602
844.543	0.0148164
844.621	0.0147424
844.700	0.0147666
844.778	0.0148116
844.856	0.0148447
844.934	0.0148702
845.012	0.0148090
845.090	0.0146162
845.168	0.0147356
845.246	0.0146860
845.325	0.0147437
845.403	0.0149103
845.481	0.0147884
845.559	0.0147042
845.637	0.0148022
845.715	0.0148260
845.793	0.0147849
845.871	0.0146981
845.950	0.0146457
846.028	0.0147904
846.106	0.0146107
846.184	0.0147049
846.262	0.0149023
846.340	0.0148296
846.418	0.0146451
846.496	0.0146734
846.575	0.0148196
846.653	0.0148074
846.731	0.0146779
846.809	0.0148122
846.887	0.0147791
846.965	0.0146800
847.043	0.0146414
847.121	0.0146688
847.200	0.0149273
847.278	0.0146845
847.356	0.0147855
847.434	0.0149564
847.512	0.0148273
847.590	0.0146173
847.668	0.0148534
847.746	0.0147665
847.825	0.0147305
847.903	0.0147590
847.981	0.0149092
848.059	0.0148789
848.137	0.0145786
848.215	0.0146852
848.293	0.0148901
848.371	0.0148557
848.450	0.0146721
848.528	0.0146310
848.606	0.0146629
848.684	0.0147455
848.762	0.0147677
848.840	0.0146203
848.918	0.0146426
848.996	0.0147771
849.075	0.0147897
849.153	0.0146326
849.231	0.0147920
849.309	0.0147691
849.387	0.0147495
849.465	0.0147742
849.543	0.0147987
849.621	0.0147917
849.700	0.0147474
849.778	0.0147232
849.856	0.0147710
849.934	0.0146625
850.012	0.0147553
850.090	0.0148007
850.168	0.0146808
850.246	0.0149159
850.325	0.0148048
850.403	0.0149825
850.481	0.0146350
850.559	0.0146748
850.637	0.0148884
850.715	0.0148665
850.793	0.0147212
850.871	0.0146252
850.950	0.0146951
851.028	0.0147482
851.106	0.0148990
851.184	0.0147281
851.262	0.0148006
851.340	0.0146885
851.418	0.0146752
851.496	0.0148056
851.575	0.0147665
851.653	0.0147855
851.731	0.0146588
851.809	0.0146702
851.887	0.0147846
851.965	0.0147803
852.043	0.0147015
852.121	0.0147333
852.200	0.0146706
852.278	0.0146941
852.356	0.0146954
852.434	0.0147272
852.512	0.0146788
852.590	0.0148180
852.668	0.0147790
852.746	0.0146875
852.825	0.0146013
852.903	0.0146946
852.981	0.0146616
853.059	0.0146263
853.137	0.0146061
853.215	0.0147982
853.293	0.0147351
853.371	0.0148856
853.450	0.0146156
853.528	0.0148170
853.606	0.0148104
853.684	0.0147453
853.762	0.0148053
853.840	0.0147498
853.918	0.0148765
853.996	0.0148524
854.075	0.0147239
854.153	0.0146826
854.231	0.0146656
854.309	0.0146270
854.387	0.0147076
854.465	0.0146688
854.543	0.0146262
854.621	0.0147417
854.700	0.0146962
854.778	0.0146155
854.856	0.0147243
854.934	0.0146462
855.012	0.0146644
855.090	0.0147289
855.168	0.0146986
855.246	0.0147015
855.325	0.0147450
855.403	0.0146656
855.481	0.0146237
855.559	0.0147536
855.637	0.0146865
855.715	0.0146532
855.793	0.0147156
855.871	0.0146393
855.950	0.0146519
856.028	0.0147952
856.106	0.0146905
856.184	0.0146855
856.262	0.0147919
856.340	0.0147796
856.418	0.0148205
856.496	0.0147187
856.575	0.0146160
856.653	0.0147687
856.731	0.0147914
856.809	0.0147263
856.887	0.0146006
856.965	0.0146962
857.043	0.0147729
857.121	0.0147971
857.200	0.0148766
857.278	0.0148313
857.356	0.0147285
857.434	0.0147939
857.512	0.0146485
857.590	0.0146333
857.668	0.0147142
857.746	0.0146997
857.825	0.0146143
857.903	0.0147636
857.981	0.0147204
858.059	0.0147158
858.137	0.0147897
858.215	0.0148004
858.293	0.0146922
858.371	0.0147034
858.450	0.0146398
858.528	0.0147406
858.606	0.0146591
858.684	0.0147083
858.762	0.0145504
858.840	0.0146888
858.918	0.0146391
858.996	0.0146587
859.075	0.0148083
859.153	0.0147519
859.231	0.0146101
859.309	0.0146487
859.387	0.0147013
859.465	0.0147046
859.543	0.0147303
859.621	0.0147434
859.700	0.0148259
859.778	0.0145413
859.856	0.0147001
859.934	0.0146597
860.012	0.0146556
860.090	0.0147337
860.168	0.0147203
860.246	0.0146551
860.325	0.0146906
860.403	0.0147079
860.481	0.0146635
860.559	0.0146778
860.637	0.0146475
860.715	0.0146847
860.793	0.0145721
860.871	0.0147031
860.950	0.0147398
861.028	0.0146397
861.106	0.0145858
861.184	0.0147066
861.262	0.0146532
861.340	0.0147765
861.418	0.0147086
861.496	0.0146568
861.575	0.0147223
861.653	0.0146803
861.731	0.0147136
861.809	0.0146574
861.887	0.0147305
861.965	0.0147414
862.043	0.0146530
862.121	0.0147428
862.200	0.0146645
862.278	0.0147179
862.356	0.0147877
862.434	0.0146500
862.512	0.0146461
862.590	0.0146410
862.668	0.0147018
862.746	0.0147183
862.825	0.0146719
862.903	0.0147490
862.981	0.0146521
863.059	0.0147715
863.137	0.0146590
863.215	0.0147065
863.293	0.0149256
863.371	0.0146724
863.450	0.0146304
863.528	0.0146706
863.606	0.0147978
863.684	0.0146799
863.762	0.0148055
863.840	0.0147550
863.918	0.0146024
863.996	0.0147749
864.075	0.0147359
864.153	0.0147204
864.231	0.0146198
864.309	0.0146009
864.387	0.0146627
864.465	0.0146307
864.543	0.0147462
864.621	0.0146913
864.700	0.0146266
864.778	0.0147911
864.856	0.0146675
864.934	0.0147701
865.012	0.0147807
865.090	0.0147031
865.168	0.0146853
865.246	0.0146098
865.325	0.0147361
865.403	0.0147810
865.481	0.0147059
865.559	0.0147051
865.637	0.0148800
865.715	0.0148248
865.793	0.0147166
865.871	0.0146450
865.950	0.0146593
866.028	0.0147479
866.106	0.0146949
866.184	0.0147522
866.262	0.0146432
866.340	0.0146217
866.418	0.0147346
866.496	0.0146927
866.575	0.0146186
866.653	0.0145999
866.731	0.0147786
866.809	0.0145367
866.887	0.0146517
866.965	0.0145975
867.043	0.0146595
867.121	0.0146033
867.200	0.0145357
867.278	0.0146259
867.356	0.0147650
867.434	0.0147446
867.512	0.0146501
867.590	0.0148058
867.668	0.0146724
867.746	0.0146872
867.825	0.0147551
867.903	0.0147410
867.981	0.0147784
868.059	0.0148121
868.137	0.0147106
868.215	0.0145841
868.293	0.0146101
868.371	0.0146648
868.450	0.0146264
868.528	0.0148911
868.606	0.0149368
868.684	0.0147771
868.762	0.0146500
868.840	0.0146711
868.918	0.0145997
868.996	0.0146044
869.075	0.0146924
869.153	0.0147091
869.231	0.0146725
869.309	0.0145442
869.387	0.0145772
869.465	0.0147057
869.543	0.0147939
869.621	0.0147691
869.700	0.0146876
869.778	0.0147581
869.856	0.0146590
869.934	0.0147867
870.012	0.0146944
870.090	0.0146679
870.168	0.0146835
870.246	0.0147153
870.325	0.0146022
870.403	0.0146791
870.481	0.0147350
870.559	0.0147505
870.637	0.0146893
870.715	0.0146870
870.793	0.0148209
870.871	0.0147822
870.950	0.0146992
871.028	0.0148401
871.106	0.0147419
871.184	0.0147769
871.262	0.0146552
871.340	0.0147090
871.418	0.0147202
871.496	0.0147128
871.575	0.0147359
871.653	0.0146165
871.731	0.0148675
871.809	0.0147847
871.887	0.0146384
871.965	0.0146988
872.043	0.0147408
872.121	0.0146574
872.200	0.0146159
872.278	0.0146935
872.356	0.0147687
872.434	0.0146490
872.512	0.0146449
872.590	0.0147819
872.668	0.0146735
872.746	0.0147716
872.825	0.0147390
872.903	0.0146316
872.981	0.0147646
873.059	0.0148328
873.137	0.0146778
873.215	0.0146907
873.293	0.0146494
873.371	0.0146608
873.450	0.0146392
873.528	0.0144944
873.606	0.0146658
873.684	0.0147654
873.762	0.0146761
873.840	0.0146284
873.918	0.0147636
873.996	0.0145477
874.075	0.0147620
874.153	0.0147357
874.231	0.0147527
874.309	0.0147038
874.387	0.0147784
874.465	0.0148083
874.543	0.0147789
874.621	0.0147560
874.700	0.0148063
874.778	0.0147063
874.856	0.0148251
874.934	0.0147313
875.012	0.0146208
875.090	0.0144953
875.168	0.0147305
875.246	0.0147393
875.325	0.0148177
875.403	0.0147252
875.481	0.0147695
875.559	0.0146867
875.637	0.0146577
875.715	0.0146863
875.793	0.0146558
875.871	0.0146544
875.950	0.0146803
876.028	0.0146889
876.106	0.0147644
876.184	0.0147530
876.262	0.0146748
876.340	0.0146655
876.418	0.0148997
876.496	0.0147823
876.575	0.0147105
876.653	0.0148146
876.731	0.0148455
876.809	0.0146327
876.887	0.0147726
876.965	0.0148270
877.043	0.0148429
877.121	0.0147973
877.200	0.0147453
877.278	0.0146693
877.356	0.0146393
877.434	0.0148598
877.512	0.0148476
877.590	0.0147396
877.668	0.0146220
877.746	0.0147339
877.825	0.0146673
877.903	0.0146877
877.981	0.0146420
878.059	0.0145722
878.137	0.0146531
878.215	0.0147088
878.293	0.0146445
878.371	0.0146217
878.450	0.0145727
878.528	0.0146672
878.606	0.0145526
878.684	0.0147385
878.762	0.0147267
878.840	0.0147019
878.918	0.0146793
878.996	0.0146693
879.075	0.0145914
879.153	0.0148361
879.231	0.0145800
879.309	0.0148004
879.387	0.0147704
879.465	0.0147630
879.543	0.0145752
879.621	0.0146362
879.700	0.0149150
879.778	0.0148005
879.856	0.0147084
879.934	0.0146989
880.012	0.0148080
880.090	0.0147871
880.168	0.0147601
880.246	0.0147401
880.325	0.0147197
880.403	0.0146640
880.481	0.0147184
880.559	0.0148475
880.637	0.0148016
880.715	0.0147001
880.793	0.0146801
880.871	0.0145627
880.950	0.0146289
881.028	0.0147709
881.106	0.0148000
881.184	0.0147680
881.262	0.0146137
881.340	0.0145591
881.418	0.0146577
881.496	0.0147492
881.575	0.0147256
881.653	0.0146717
881.731	0.0147167
881.809	0.0147432
881.887	0.0146892
881.965	0.0146968
882.043	0.0148370
882.121	0.0148447
882.200	0.0146951
882.278	0.0147318
882.356	0.0147609
882.434	0.0147578
882.512	0.0147005
882.590	0.0147749
882.668	0.0147562
882.746	0.0146845
882.825	0.0146924
882.903	0.0147031
882.981	0.0147390
883.059	0.0148208
883.137	0.0147401
883.215	0.0146403
883.293	0.0146559
883.371	0.0149520
883.450	0.0146679
883.528	0.0146454
883.606	0.0147126
883.684	0.0146745
883.762	0.0146672
883.840	0.0146380
883.918	0.0147236
883.996	0.0148616
884.075	0.0147327
884.153	0.0146357
884.231	0.0148061
884.309	0.0148774
884.387	0.0146725
884.465	0.0146467
884.543	0.0146069
884.621	0.0147784
884.700	0.0147495
884.778	0.0147554
884.856	0.0146524
884.934	0.0147932
885.012	0.0147395
885.090	0.0147329
885.168	0.0147146
885.246	0.0146711
885.325	0.0146739
885.403	0.0145786
885.481	0.0147243
885.559	0.0148156
885.637	0.0146838
885.715	0.0148402
885.793	0.0147472
885.871	0.0146974
885.950	0.0148195
886.028	0.0146568
886.106	0.0147756
886.184	0.0147494
886.262	0.0146920
886.340	0.0147667
886.418	0.0147955
886.496	0.0147955
886.575	0.0148150
886.653	0.0146254
886.731	0.0147388
886.809	0.0146582
886.887	0.0146647
886.965	0.0147017
887.043	0.0147337
887.121	0.0146179
887.200	0.0146677
887.278	0.0146336
887.356	0.0147219
887.434	0.0146539
887.512	0.0146938
887.590	0.0146183
887.668	0.0146521
887.746	0.0146683
887.825	0.0147511
887.903	0.0146315
887.981	0.0147007
888.059	0.0147919
888.137	0.0146793
888.215	0.0146743
888.293	0.0147810
888.371	0.0147773
888.450	0.0147295
888.528	0.0147843
888.606	0.0148527
888.684	0.0146709
888.762	0.0147076
888.840	0.0147270
888.918	0.0148309
888.996	0.0147504
889.075	0.0147273
889.153	0.0147438
889.231	0.0148327
889.309	0.0147363
889.387	0.0146532
889.465	0.0146426
889.543	0.0148650
889.621	0.0147311
889.700	0.0147524
889.778	0.0145879
889.856	0.0146357
889.934	0.0147535
890.012	0.0146793
890.090	0.0147572
890.168	0.0147250
890.246	0.0148076
890.325	0.0147852
890.403	0.0147930
890.481	0.0147552
890.559	0.0147088
890.637	0.0148344
890.715	0.0146855
890.793	0.0147124
890.871	0.0147775
890.950	0.0148290
891.028	0.0148555
891.106	0.0147601
891.184	0.0147187
891.262	0.0146724
891.340	0.0147392
891.418	0.0146387
891.496	0.0148051
891.575	0.0146700
891.653	0.0148516
891.731	0.0148743
891.809	0.0147036
891.887	0.0146770
891.965	0.0148919
892.043	0.0147939
892.121	0.0146998
892.200	0.0146932
892.278	0.0147391
892.356	0.0147156
892.434	0.0146606
892.512	0.0147489
892.590	0.0148380
892.668	0.0145955
892.746	0.0148048
892.825	0.0147362
892.903	0.0146386
892.981	0.0147398
893.059	0.0147243
893.137	0.0147416
893.215	0.0147925
893.293	0.0146269
893.371	0.0147340
893.450	0.0147626
893.528	0.0147311
893.606	0.0147803
893.684	0.0148139
893.762	0.0148093
893.840	0.0147296
893.918	0.0147310
893.996	0.0146042
894.075	0.0147993
894.153	0.0146844
894.231	0.0146142
894.309	0.0147632
894.387	0.0147260
894.465	0.0146154
894.543	0.0145961
894.621	0.0144749
894.700	0.0146951
894.778	0.0146237
894.856	0.0145963
894.934	0.0146870
895.012	0.0145634
895.090	0.0145595
895.168	0.0148138
895.246	0.0147141
895.325	0.0145770
895.403	0.0147247
895.481	0.0147895
895.559	0.0146347
895.637	0.0147101
895.715	0.0147913
895.793	0.0147607
895.871	0.0148193
895.950	0.0149004
896.028	0.0148238
896.106	0.0146950
896.184	0.0147929
896.262	0.0146910
896.340	0.0147370
896.418	0.0147970
896.496	0.0147299
896.575	0.0147961
896.653	0.0148727
896.731	0.0147725
896.809	0.0148864
896.887	0.0145617
896.965	0.0146416
897.043	0.0147089
897.121	0.0146446
897.200	0.0147282
897.278	0.0147257
897.356	0.0146417
897.434	0.0146995
897.512	0.0147901
897.590	0.0146395
897.668	0.0148257
897.746	0.0148186
897.825	0.0148653
897.903	0.0147282
897.981	0.0146371
898.059	0.0146478
898.137	0.0147734
898.215	0.0145454
898.293	0.0147370
898.371	0.0148054
898.450	0.0147739
898.528	0.0146969
898.606	0.0145957
898.684	0.0148734
898.762	0.0147427
898.840	0.0145899
898.918	0.0147434
898.996	0.0147118
899.075	0.0146458
899.153	0.0148119
899.231	0.0146956
899.309	0.0146638
899.387	0.0146017
899.465	0.0146908
899.543	0.0146971
899.621	0.0146596
899.700	0.0147052
899.778	0.0147851
899.856	0.0147046
899.934	0.0147353
900.012	0.0148025
900.090	0.0146637
900.168	0.0147872
900.246	0.0147264
900.325	0.0145981
900.403	0.0146893
900.481	0.0147983
900.559	0.0149487
900.637	0.0148072
900.715	0.0148110
900.793	0.0147506
900.871	0.0148317
900.950	0.0146966
901.028	0.0148044
901.106	0.0146764
901.184	0.0146603
901.262	0.0148222
901.340	0.0144558
901.418	0.0148058
901.496	0.0147290
901.575	0.0145985
901.653	0.0145415
901.731	0.0147213
901.809	0.0146195
901.887	0.0145597
901.965	0.0146462
902.043	0.0145935
902.121	0.0146736
902.200	0.0146107
902.278	0.0147787
902.356	0.0147276
902.434	0.0147345
902.512	0.0148159
902.590	0.0146566
902.668	0.0146986
902.746	0.0147478
902.825	0.0147456
902.903	0.0148176
902.981	0.0147139
903.059	0.0148507
903.137	0.0146889
903.215	0.0147281
903.293	0.0146486
903.371	0.0146244
903.450	0.0145359
903.528	0.0145812
903.606	0.0146791
903.684	0.0146452
903.762	0.0147585
903.840	0.0146903
903.918	0.0146793
903.996	0.0146115
904.075	0.0147568
904.153	0.0147216
904.231	0.0145608
904.309	0.0145989
904.387	0.0147063
904.465	0.0145192
904.543	0.0145334
904.621	0.0146907
904.700	0.0147041
904.778	0.0145921
904.856	0.0146446
904.934	0.0145506
905.012	0.0146278
905.090	0.0146571
905.168	0.0147372
905.246	0.0148461
905.325	0.0147218
905.403	0.0145816
905.481	0.0146642
905.559	0.0147622
905.637	0.0146719
905.715	0.0147366
905.793	0.0146922
905.871	0.0145935
905.950	0.0146769
906.028	0.0147893
906.106	0.0147199
906.184	0.0147801
906.262	0.0147031
906.340	0.0146934
906.418	0.0146082
906.496	0.0145482
906.575	0.0146579
906.653	0.0148643
906.731	0.0147603
906.809	0.0146886
906.887	0.0147168
906.965	0.0146293
907.043	0.0146695
907.121	0.0147510
907.200	0.0147207
907.278	0.0147843
907.356	0.0147423
907.434	0.0147465
907.512	0.0147528
907.590	0.0146960
907.668	0.0146821
907.746	0.0147806
907.825	0.0146413
907.903	0.0147837
907.981	0.0147531
908.059	0.0146577
908.137	0.0147678
908.215	0.0146176
908.293	0.0146668
908.371	0.0146150
908.450	0.0146778
908.528	0.0147193
908.606	0.0147241
908.684	0.0147083
908.762	0.0146935
908.840	0.0147754
908.918	0.0146892
908.996	0.0146343
909.075	0.0147662
909.153	0.0146881
909.231	0.0146398
909.309	0.0147458
909.387	0.0146764
909.465	0.0147789
909.543	0.0146441
909.621	0.0146918
909.700	0.0147069
909.778	0.0146749
909.856	0.0147507
909.934	0.0147715
910.012	0.0146370
910.090	0.0147404
910.168	0.0147345
910.246	0.0147408
910.325	0.0147788
910.403	0.0146937
910.481	0.0146902
910.559	0.0145811
910.637	0.0145766
910.715	0.0147833
910.793	0.0147269
910.871	0.0148010
910.950	0.0148531
911.028	0.0146680
911.106	0.0145586
911.184	0.0146019
911.262	0.0146793
911.340	0.0147440
911.418	0.0146890
911.496	0.0147427
911.575	0.0147279
911.653	0.0147678
911.731	0.0148052
911.809	0.0146462
911.887	0.0147413
911.965	0.0147134
912.043	0.0145940
912.121	0.0147607
912.200	0.0147596
912.278	0.0147286
912.356	0.0147408
912.434	0.0147131
912.512	0.0146371
912.590	0.0146855
912.668	0.0147816
912.746	0.0147853
912.825	0.0147943
912.903	0.0146796
912.981	0.0147430
913.059	0.0146996
913.137	0.0148109
913.215	0.0146801
913.293	0.0146465
913.371	0.0146870
913.450	0.0147636
913.528	0.0146857
913.606	0.0147968
913.684	0.0146706
913.762	0.0147471
913.840	0.0147184
913.918	0.0146158
913.996	0.0147486
914.075	0.0146980
914.153	0.0146676
914.231	0.0147369
914.309	0.0147460
914.387	0.0146368
914.465	0.0147425
914.543	0.0146396
914.621	0.0146790
914.700	0.0148661
914.778	0.0147996
914.856	0.0148012
914.934	0.0148344
915.012	0.0149242
915.090	0.0147581
915.168	0.0147375
915.246	0.0147809
915.325	0.0148492
915.403	0.0148836
915.481	0.0146822
915.559	0.0146532
915.637	0.0148859
915.715	0.0149103
915.793	0.0146532
915.871	0.0147151
915.950	0.0145907
916.028	0.0147364
916.106	0.0146014
916.184	0.0146030
916.262	0.0147403
916.340	0.0147844
916.418	0.0147961
916.496	0.0146136
916.575	0.0146863
916.653	0.0146912
916.731	0.0146467
916.809	0.0146927
916.887	0.0147175
916.965	0.0147274
917.043	0.0147630
917.121	0.0146581
917.200	0.0146628
917.278	0.0146386
917.356	0.0147102
917.434	0.0147209
917.512	0.0147115
917.590	0.0145370
917.668	0.0146070
917.746	0.0146161
917.825	0.0146655
917.903	0.0146933
917.981	0.0146892
918.059	0.0146458
918.137	0.0146272
918.215	0.0146459
918.293	0.0147230
918.371	0.0146767
918.450	0.0145786
918.528	0.0146029
918.606	0.0147443
918.684	0.0147547
918.762	0.0146590
918.840	0.0146201
918.918	0.0146987
918.996	0.0146854
919.075	0.0145408
919.153	0.0145672
919.231	0.0147755
919.309	0.0146654
919.387	0.0147451
919.465	0.0147336
919.543	0.0146026
919.621	0.0145937
919.700	0.0146660
919.778	0.0147543
919.856	0.0146839
919.934	0.0146777
920.012	0.0147158
920.090	0.0147030
920.168	0.0146265
920.246	0.0146458
920.325	0.0147090
920.403	0.0146007
920.481	0.0145721
920.559	0.0145936
920.637	0.0145670
920.715	0.0145570
920.793	0.0145309
920.871	0.0146837
920.950	0.0146878
921.028	0.0148138
921.106	0.0146764
921.184	0.0146364
921.262	0.0145948
921.340	0.0146989
921.418	0.0147630
921.496	0.0146510
921.575	0.0147818
921.653	0.0146664
921.731	0.0147211
921.809	0.0147179
921.887	0.0147135
921.965	0.0147330
922.043	0.0145262
922.121	0.0146088
922.200	0.0146542
922.278	0.0147715
922.356	0.0145221
922.434	0.0144627
922.512	0.0145649
922.590	0.0146497
922.668	0.0145238
922.746	0.0147066
922.825	0.0147202
922.903	0.0147499
922.981	0.0146871
923.059	0.0146856
923.137	0.0146651
923.215	0.0146307
923.293	0.0146822
923.371	0.0146542
923.450	0.0147485
923.528	0.0148187
923.606	0.0146907
923.684	0.0146528
923.762	0.0148159
923.840	0.0147159
923.918	0.0145344
923.996	0.0148100
924.075	0.0147592
924.153	0.0148379
924.231	0.0147054
924.309	0.0146973
924.387	0.0146824
924.465	0.0149538
924.543	0.0147247
924.621	0.0147800
924.700	0.0148086
924.778	0.0147349
924.856	0.0147918
924.934	0.0146890
925.012	0.0146642
925.090	0.0147746
925.168	0.0147563
925.246	0.0146882
925.325	0.0147078
925.403	0.0147866
925.481	0.0147177
925.559	0.0147323
925.637	0.0146918
925.715	0.0147351
925.793	0.0146932
925.871	0.0147684
925.950	0.0147179
926.028	0.0146789
926.106	0.0146053
926.184	0.0146767
926.262	0.0147060
926.340	0.0146543
926.418	0.0147659
926.496	0.0147768
926.575	0.0147823
926.653	0.0148378
926.731	0.0147929
926.809	0.0147935
926.887	0.0148244
926.965	0.0148264
927.043	0.0147990
927.121	0.0148420
927.200	0.0146747
927.278	0.0147753
927.356	0.0147723
927.434	0.0146420
927.512	0.0147167
927.590	0.0147244
927.668	0.0147784
927.746	0.0146842
927.825	0.0146890
927.903	0.0146563
927.981	0.0146959
928.059	0.0145461
928.137	0.0146855
928.215	0.0145852
928.293	0.0146174
928.371	0.0147163
928.450	0.0145943
928.528	0.0147650
928.606	0.0147008
928.684	0.0147148
928.762	0.0147160
928.840	0.0147967
928.918	0.0147760
928.996	0.0146637
929.075	0.0146509
929.153	0.0146336
929.231	0.0147088
929.309	0.0147360
929.387	0.0147552
929.465	0.0147586
929.543	0.0146892
929.621	0.0146734
929.700	0.0148875
929.778	0.0148434
929.856	0.0147870
929.934	0.0147968
930.012	0.0148292
930.090	0.0148260
930.168	0.0148650
930.246	0.0148540
930.325	0.0147664
930.403	0.0148972
930.481	0.0149306
930.559	0.0148592
930.637	0.0148161
930.715	0.0146632
930.793	0.0149510
930.871	0.0148086
930.950	0.0147136
931.028	0.0147225
931.106	0.0146880
931.184	0.0146796
931.262	0.0147170
931.340	0.0145940
931.418	0.0147280
931.496	0.0146611
931.575	0.0146886
931.653	0.0146004
931.731	0.0147205
931.809	0.0147628
931.887	0.0147169
931.965	0.0146444
932.043	0.0146691
932.121	0.0147772
932.200	0.0147391
932.278	0.0147358
932.356	0.0147148
932.434	0.0147464
932.512	0.0147668
932.590	0.0147819
932.668	0.0147934
932.746	0.0147617
932.825	0.0146084
932.903	0.0147320
932.981	0.0147398
933.059	0.0147366
933.137	0.0147028
933.215	0.0147827
933.293	0.0146837
933.371	0.0147398
933.450	0.0146617
933.528	0.0148129
933.606	0.0146852
933.684	0.0146856
933.762	0.0147340
933.840	0.0146062
933.918	0.0147887
933.996	0.0148698
934.075	0.0146580
934.153	0.0146288
934.231	0.0146620
934.309	0.0147372
934.387	0.0147555
934.465	0.0148823
934.543	0.0147741
934.621	0.0145927
934.700	0.0146906
934.778	0.0148076
934.856	0.0147636
934.934	0.0146339
935.012	0.0146236
935.090	0.0147192
935.168	0.0147515
935.246	0.0146006
935.325	0.0147510
935.403	0.0146818
935.481	0.0146983
935.559	0.0146408
935.637	0.0147474
935.715	0.0146355
935.793	0.0147023
935.871	0.0147360
935.950	0.0146539
936.028	0.0147269
936.106	0.0145882
936.184	0.0145116
936.262	0.0146179
936.340	0.0147984
936.418	0.0148169
936.496	0.0146920
936.575	0.0147530
936.653	0.0147218
936.731	0.0147419
936.809	0.0145791
936.887	0.0145991
936.965	0.0147098
937.043	0.0147366
937.121	0.0146832
937.200	0.0147842
937.278	0.0146581
937.356	0.0145691
937.434	0.0145923
937.512	0.0147814
937.590	0.0146030
937.668	0.0146967
937.746	0.0144788
937.825	0.0148296
937.903	0.0147889
937.981	0.0145864
938.059	0.0146295
938.137	0.0147042
938.215	0.0146169
938.293	0.0146932
938.371	0.0147920
938.450	0.0147855
938.528	0.0146568
938.606	0.0146142
938.684	0.0147019
938.762	0.0147709
938.840	0.0147401
938.918	0.0147300
938.996	0.0146674
939.075	0.0146053
939.153	0.0146957
939.231	0.0146526
939.309	0.0145422
939.387	0.0147012
939.465	0.0145971
939.543	0.0146420
939.621	0.0146363
939.700	0.0146714
939.778	0.0146255
939.856	0.0147290
939.934	0.0146664
940.012	0.0146317
940.090	0.0146603
940.168	0.0146037
940.246	0.0146312
940.325	0.0147797
940.403	0.0147550
940.481	0.0146902
940.559	0.0146828
940.637	0.0146510
940.715	0.0146438
940.793	0.0147376
940.871	0.0147730
940.950	0.0146482
941.028	0.0146240
941.106	0.0146511
941.184	0.0148708
941.262	0.0145847
941.340	0.0146018
941.418	0.0146318
941.496	0.0146708
941.575	0.0146545
941.653	0.0146561
941.731	0.0146236
941.809	0.0146526
941.887	0.0146210
941.965	0.0145782
942.043	0.0146455
942.121	0.0146662
942.200	0.0147983
942.278	0.0146790
942.356	0.0146593
942.434	0.0146936
942.512	0.0145930
942.590	0.0146734
942.668	0.0146763
942.746	0.0147619
942.825	0.0147044
942.903	0.0146553
942.981	0.0147424
943.059	0.0146970
943.137	0.0147675
943.215	0.0146164
943.293	0.0146481
943.371	0.0146756
943.450	0.0148180
943.528	0.0147244
943.606	0.0146149
943.684	0.0148112
943.762	0.0147718
943.840	0.0145231
943.918	0.0146407
943.996	0.0147562
944.075	0.0146660
944.153	0.0147916
944.231	0.0146282
944.309	0.0146507
944.387	0.0146732
944.465	0.0147817
944.543	0.0148163
944.621	0.0147221
944.700	0.0147069
944.778	0.0146655
944.856	0.0146646
944.934	0.0147622
945.012	0.0147303
945.090	0.0147208
945.168	0.0147884
945.246	0.0147904
945.325	0.0146741
945.403	0.0146880
945.481	0.0147895
945.559	0.0146214
945.637	0.0147370
945.715	0.0147282
945.793	0.0147726
945.871	0.0146212
945.950	0.0146347
946.028	0.0147064
946.106	0.0145129
946.184	0.0146369
946.262	0.0146548
946.340	0.0145483
946.418	0.0146801
946.496	0.0147200
946.575	0.0147701
946.653	0.0147219
946.731	0.0147144
946.809	0.0145760
946.887	0.0147601
946.965	0.0146665
947.043	0.0146737
947.121	0.0147144
947.200	0.0147501
947.278	0.0147588
947.356	0.0146978
947.434	0.0147631
947.512	0.0147234
947.590	0.0147492
947.668	0.0146477
947.746	0.0148093
947.825	0.0146362
947.903	0.0146503
947.981	0.0148974
948.059	0.0147231
948.137	0.0147355
948.215	0.0147710
948.293	0.0147231
948.371	0.0146329
948.450	0.0146925
948.528	0.0147042
948.606	0.0146166
948.684	0.0146951
948.762	0.0147163
948.840	0.0145766
948.918	0.0146984
948.996	0.0147144
949.075	0.0146838
949.153	0.0145361
949.231	0.0146897
949.309	0.0147138
949.387	0.0147479
949.465	0.0145803
949.543	0.0145991
949.621	0.0148483
949.700	0.0147730
949.778	0.0147046
949.856	0.0148271
949.934	0.0147904
950.012	0.0147510
950.090	0.0148244
950.168	0.0147248
950.246	0.0146632
950.325	0.0147516
950.403	0.0147880
950.481	0.0146547
950.559	0.0147063
950.637	0.0147539
950.715	0.0148130
950.793	0.0146593
950.871	0.0147292
950.950	0.0146111
951.028	0.0147855
951.106	0.0148569
951.184	0.0146947
951.262	0.0147898
951.340	0.0148388
951.418	0.0146883
951.496	0.0147034
951.575	0.0147321
951.653	0.0148067
951.731	0.0147659
951.809	0.0148730
951.887	0.0148567
951.965	0.0147637
952.043	0.0147505
952.121	0.0146799
952.200	0.0147643
952.278	0.0146296
952.356	0.0147073
952.434	0.0146469
952.512	0.0146623
952.590	0.0147767
952.668	0.0147454
952.746	0.0147583
952.825	0.0148426
952.903	0.0148857
952.981	0.0148670
953.059	0.0148291
953.137	0.0148598
953.215	0.0148012
953.293	0.0148856
953.371	0.0148190
953.450	0.0147515
953.528	0.0148979
953.606	0.0147355
953.684	0.0147796
953.762	0.0148260
953.840	0.0147498
953.918	0.0147653
953.996	0.0146172
954.075	0.0148527
954.153	0.0146880
954.231	0.0147511
954.309	0.0147660
954.387	0.0146998
954.465	0.0148657
954.543	0.0148933
954.621	0.0148118
954.700	0.0148640
954.778	0.0147871
954.856	0.0147939
954.934	0.0147984
955.012	0.0147843
955.090	0.0147373
955.168	0.0147552
955.246	0.0148055
955.325	0.0149074
955.403	0.0147328
955.481	0.0147678
955.559	0.0148025
955.637	0.0147779
955.715	0.0147247
955.793	0.0146583
955.871	0.0146703
955.950	0.0148585
956.028	0.0147202
956.106	0.0146310
956.184	0.0146230
956.262	0.0147406
956.340	0.0147543
956.418	0.0148117
956.496	0.0146827
956.575	0.0146480
956.653	0.0145798
956.731	0.0146904
956.809	0.0146633
956.887	0.0146379
956.965	0.0146730
957.043	0.0146144
957.121	0.0145536
957.200	0.0148129
957.278	0.0147397
957.356	0.0146595
957.434	0.0147611
957.512	0.0148276
957.590	0.0147044
957.668	0.0147548
957.746	0.0147247
957.825	0.0148025
957.903	0.0147005
957.981	0.0148120
958.059	0.0146871
958.137	0.0147502
958.215	0.0148061
958.293	0.0147180
958.371	0.0147208
958.450	0.0147862
958.528	0.0147993
958.606	0.0149270
958.684	0.0147602
958.762	0.0147642
958.840	0.0146769
958.918	0.0146639
958.996	0.0146088
959.075	0.0147154
959.153	0.0146902
959.231	0.0147083
959.309	0.0147512
959.387	0.0146115
959.465	0.0146718
959.543	0.0146225
959.621	0.0147285
959.700	0.0146371
959.778	0.0144907
959.856	0.0148010
959.934	0.0147889
960.012	0.0145641
960.090	0.0148598
960.168	0.0147774
960.246	0.0146671
960.325	0.0145778
960.403	0.0147137
960.481	0.0147174
960.559	0.0145634
960.637	0.0146941
960.715	0.0146996
960.793	0.0146994
960.871	0.0146584
960.950	0.0147252
961.028	0.0145873
961.106	0.0145317
961.184	0.0146588
961.262	0.0147383
961.340	0.0146056
961.418	0.0146321
961.496	0.0146399
961.575	0.0146539
961.653	0.0146402
961.731	0.0147148
961.809	0.0148029
961.887	0.0147010
961.965	0.0146491
962.043	0.0146693
962.121	0.0145113
962.200	0.0145504
962.278	0.0147486
962.356	0.0146478
962.434	0.0145816
962.512	0.0146754
962.590	0.0147457
962.668	0.0147765
962.746	0.0147282
962.825	0.0146313
962.903	0.0147224
962.981	0.0147145
963.059	0.0147545
963.137	0.0148123
963.215	0.0148249
963.293	0.0147833
963.371	0.0146626
963.450	0.0147916
963.528	0.0148348
963.606	0.0147366
963.684	0.0146778
963.762	0.0146314
963.840	0.0148148
963.918	0.0147865
963.996	0.0146872
964.075	0.0147949
964.153	0.0147884
964.231	0.0147443
964.309	0.0147060
964.387	0.0146805
964.465	0.0146899
964.543	0.0147543
964.621	0.0146265
964.700	0.0146751
964.778	0.0147010
964.856	0.0146962
964.934	0.0146910
965.012	0.0147562
965.090	0.0145121
965.168	0.0146649
965.246	0.0147936
965.325	0.0147166
965.403	0.0146753
965.481	0.0147070
965.559	0.0147963
965.637	0.0147122
965.715	0.0147138
965.793	0.0146763
965.871	0.0146809
965.950	0.0146989
966.028	0.0146561
966.106	0.0147233
966.184	0.0147272
966.262	0.0147182
966.340	0.0146678
966.418	0.0146211
966.496	0.0147673
966.575	0.0146734
966.653	0.0145992
966.731	0.0146349
966.809	0.0146655
966.887	0.0147792
966.965	0.0147214
967.043	0.0146560
967.121	0.0146178
967.200	0.0147266
967.278	0.0147754
967.356	0.0146761
967.434	0.0146688
967.512	0.0145689
967.590	0.0145701
967.668	0.0146801
967.746	0.0148357
967.825	0.0147911
967.903	0.0146511
967.981	0.0147330
968.059	0.0147280
968.137	0.0148660
968.215	0.0147095
968.293	0.0146832
968.371	0.0146578
968.450	0.0146401
968.528	0.0147002
968.606	0.0146197
968.684	0.0147558
968.762	0.0147234
968.840	0.0147356
968.918	0.0147733
968.996	0.0148003
969.075	0.0146966
969.153	0.0146922
969.231	0.0146650
969.309	0.0146289
969.387	0.0147368
969.465	0.0145908
969.543	0.0147408
969.621	0.0147013
969.700	0.0146687
969.778	0.0147940
969.856	0.0147099
969.934	0.0146651
970.012	0.0147086
970.090	0.0147768
970.168	0.0147514
970.246	0.0146828
970.325	0.0147844
970.403	0.0148553
970.481	0.0148184
970.559	0.0147640
970.637	0.0146773
970.715	0.0146916
970.793	0.0147025
970.871	0.0147316
970.950	0.0146645
971.028	0.0146450
971.106	0.0146596
971.184	0.0147068
971.262	0.0147224
971.340	0.0147112
971.418	0.0147490
971.496	0.0147118
971.575	0.0147504
971.653	0.0147005
971.731	0.0147719
971.809	0.0147343
971.887	0.0148084
971.965	0.0147421
972.043	0.0148520
972.121	0.0147475
972.200	0.0146799
972.278	0.0146898
972.356	0.0147104
972.434	0.0147664
972.512	0.0147626
972.590	0.0147865
972.668	0.0147208
972.746	0.0146886
972.825	0.0146768
972.903	0.0145657
972.981	0.0146536
973.059	0.0146181
973.137	0.0146938
973.215	0.0146560
973.293	0.0145554
973.371	0.0146703
973.450	0.0147785
973.528	0.0146938
973.606	0.0146568
973.684	0.0148589
973.762	0.0147033
973.840	0.0147039
973.918	0.0148616
973.996	0.0148817
974.075	0.0147980
974.153	0.0147112
974.231	0.0147214
974.309	0.0147804
974.387	0.0149193
974.465	0.0148834
974.543	0.0147929
974.621	0.0150050
974.700	0.0147491
974.778	0.0148517
974.856	0.0148008
974.934	0.0147984
975.012	0.0147997
975.090	0.0148041
975.168	0.0149895
975.246	0.0148081
975.325	0.0146333
975.403	0.0146942
975.481	0.0147502
975.559	0.0147709
975.637	0.0146359
975.715	0.0147205
975.793	0.0147366
975.871	0.0145537
975.950	0.0149012
976.028	0.0148518
976.106	0.0146812
976.184	0.0147759
976.262	0.0146661
976.340	0.0146791
976.418	0.0148611
976.496	0.0147060
976.575	0.0147357
976.653	0.0147694
976.731	0.0146603
976.809	0.0147292
976.887	0.0147777
976.965	0.0147138
977.043	0.0148077
977.121	0.0147061
977.200	0.0146993
977.278	0.0147182
977.356	0.0147198
977.434	0.0147024
977.512	0.0147695
977.590	0.0147630
977.668	0.0147070
977.746	0.0147897
977.825	0.0147752
977.903	0.0146794
977.981	0.0147604
978.059	0.0146848
978.137	0.0145513
978.215	0.0146934
978.293	0.0147426
978.371	0.0147783
978.450	0.0146932
978.528	0.0146434
978.606	0.0147310
978.684	0.0147318
978.762	0.0147432
978.840	0.0148922
978.918	0.0147194
978.996	0.0146640
979.075	0.0147774
979.153	0.0146712
979.231	0.0146861
979.309	0.0146475
979.387	0.0146633
979.465	0.0148341
979.543	0.0148219
979.621	0.0148065
979.700	0.0148666
979.778	0.0148359
979.856	0.0146539
979.934	0.0145985
980.012	0.0146882
980.090	0.0148299
980.168	0.0147166
980.246	0.0147656
980.325	0.0147174
980.403	0.0148029
980.481	0.0146842
980.559	0.0146448
980.637	0.0146888
980.715	0.0147112
980.793	0.0146842
980.871	0.0146694
980.950	0.0147161
981.028	0.0146553
981.106	0.0147636
981.184	0.0147071
981.262	0.0145839
981.340	0.0148519
981.418	0.0148255
981.496	0.0147347
981.575	0.0147662
981.653	0.0146586
981.731	0.0147391
981.809	0.0148906
981.887	0.0146760
981.965	0.0147102
982.043	0.0148113
982.121	0.0147847
982.200	0.0146819
982.278	0.0146615
982.356	0.0148878
982.434	0.0148031
982.512	0.0147531
982.590	0.0146900
982.668	0.0146538
982.746	0.0147257
982.825	0.0146812
982.903	0.0146814
982.981	0.0148066
983.059	0.0146750
983.137	0.0146333
983.215	0.0147002
983.293	0.0146519
983.371	0.0147094
983.450	0.0148170
983.528	0.0147424
983.606	0.0147560
983.684	0.0147757
983.762	0.0147005
983.840	0.0149057
983.918	0.0146822
983.996	0.0146947
984.075	0.0148523
984.153	0.0149026
984.231	0.0147626
984.309	0.0146820
984.387	0.0147415
984.465	0.0148317
984.543	0.0147017
984.621	0.0146616
984.700	0.0148016
984.778	0.0148411
984.856	0.0147695
984.934	0.0146291
985.012	0.0148359
985.090	0.0147437
985.168	0.0145614
985.246	0.0145967
985.325	0.0148378
985.403	0.0147665
985.481	0.0147132
985.559	0.0147749
985.637	0.0146432
985.715	0.0147863
985.793	0.0147829
985.871	0.0147972
985.950	0.0146964
986.028	0.0148839
986.106	0.0146192
986.184	0.0147304
986.262	0.0147823
986.340	0.0147512
986.418	0.0148226
986.496	0.0147711
986.575	0.0147751
986.653	0.0149171
986.731	0.0147154
986.809	0.0148186
986.887	0.0146722
986.965	0.0146957
987.043	0.0146897
987.121	0.0147230
987.200	0.0146668
987.278	0.0147542
987.356	0.0146925
987.434	0.0147175
987.512	0.0146889
987.590	0.0146589
987.668	0.0146776
987.746	0.0147748
987.825	0.0147155
987.903	0.0146024
987.981	0.0145995
988.059	0.0147471
988.137	0.0147602
988.215	0.0146651
988.293	0.0147118
988.371	0.0146944
988.450	0.0146912
988.528	0.0146595
988.606	0.0147115
988.684	0.0148068
988.762	0.0145892
988.840	0.0147032
988.918	0.0147384
988.996	0.0147104
989.075	0.0147982
989.153	0.0147645
989.231	0.0147969
989.309	0.0147880
989.387	0.0147222
989.465	0.0147002
989.543	0.0147720
989.621	0.0147176
989.700	0.0147585
989.778	0.0148077
989.856	0.0147475
989.934	0.0147587
990.012	0.0147214
990.090	0.0146737
990.168	0.0148077
990.246	0.0147031
990.325	0.0145779
990.403	0.0147169
990.481	0.0146582
990.559	0.0147431
990.637	0.0147623
990.715	0.0146898
990.793	0.0146588
990.871	0.0146729
990.950	0.0146555
991.028	0.0146113
991.106	0.0146678
991.184	0.0148779
991.262	0.0146342
991.340	0.0145905
991.418	0.0146903
991.496	0.0147193
991.575	0.0146772
991.653	0.0147441
991.731	0.0146684
991.809	0.0146207
991.887	0.0145753
991.965	0.0146936
992.043	0.0147942
992.121	0.0146214
992.200	0.0147305
992.278	0.0147002
992.356	0.0146210
992.434	0.0146613
992.512	0.0146830
992.590	0.0146777
992.668	0.0146111
992.746	0.0146082
992.825	0.0146006
992.903	0.0146905
992.981	0.0146633
993.059	0.0147105
993.137	0.0146944
993.215	0.0149342
993.293	0.0147426
993.371	0.0148296
993.450	0.0146919
993.528	0.0147146
993.606	0.0147649
993.684	0.0147904
993.762	0.0148012
993.840	0.0147669
993.918	0.0148315
993.996	0.0148604
994.075	0.0146189
994.153	0.0146215
994.231	0.0146897
994.309	0.0146721
994.387	0.0145991
994.465	0.0147549
994.543	0.0147236
994.621	0.0148250
994.700	0.0147444
994.778	0.0147515
994.856	0.0148452
994.934	0.0148026
995.012	0.0146867
995.090	0.0146282
995.168	0.0145789
995.246	0.0148287
995.325	0.0146288
995.403	0.0147799
995.481	0.0148459
995.559	0.0147559
995.637	0.0147388
995.715	0.0147540
995.793	0.0147535
995.871	0.0146293
995.950	0.0146905
996.028	0.0149072
996.106	0.0146649
996.184	0.0147724
996.262	0.0147104
996.340	0.0147314
996.418	0.0147116
996.496	0.0147561
996.575	0.0148014
996.653	0.0148289
996.731	0.0148738
996.809	0.0148248
996.887	0.0147909
996.965	0.0148228
997.043	0.0147591
997.121	0.0147778
997.200	0.0147079
997.278	0.0146646
997.356	0.0148885
997.434	0.0147892
997.512	0.0149611
997.590	0.0148189
997.668	0.0147230
997.746	0.0148403
997.825	0.0148431
997.903	0.0146260
997.981	0.0148028
998.059	0.0147738
998.137	0.0146155
998.215	0.0147824
998.293	0.0146660
998.371	0.0148539
998.450	0.0145731
998.528	0.0146660
998.606	0.0146068
998.684	0.0146022
998.762	0.0147096
998.840	0.0146045
998.918	0.0146867
