05/04/2022	20:50:36	Ver.	4.1	UNKNOWN
Optical Delay	678.996401	Delta X		0.078125	Sweeps	1	Scan Rate	0/0
Coordinates	Axis 1	NaN	Axis 2	NaN	Axis 3	NaN	Axis 4	NaN	Axis 5	NaN	Axis 6	0.000000
TX Power	0.000000	RX Power	0.000000

678.996	0.0142696
679.075	0.0142747
679.153	0.0142648
679.231	0.0143021
679.309	0.0142632
679.387	0.0141863
679.465	0.0142149
679.543	0.0142085
679.621	0.0143157
679.700	0.0143097
679.778	0.0142447
679.856	0.0143071
679.934	0.0142593
680.012	0.0143525
680.090	0.0143696
680.168	0.0142010
680.246	0.0140810
680.325	0.0142854
680.403	0.0142036
680.481	0.0142003
680.559	0.0142438
680.637	0.0143836
680.715	0.0142065
680.793	0.0142477
680.871	0.0142686
680.950	0.0141921
681.028	0.0140411
681.106	0.0141280
681.184	0.0142910
681.262	0.0142454
681.340	0.0142645
681.418	0.0142081
681.496	0.0142761
681.575	0.0141102
681.653	0.0142016
681.731	0.0142946
681.809	0.0143666
681.887	0.0141650
681.965	0.0141981
682.043	0.0143504
682.121	0.0142419
682.200	0.0142432
682.278	0.0143018
682.356	0.0142408
682.434	0.0142381
682.512	0.0142084
682.590	0.0141975
682.668	0.0143424
682.746	0.0144630
682.825	0.0142583
682.903	0.0142825
682.981	0.0141446
683.059	0.0141653
683.137	0.0143140
683.215	0.0143176
683.293	0.0143980
683.371	0.0142536
683.450	0.0143110
683.528	0.0142999
683.606	0.0142677
683.684	0.0143010
683.762	0.0143773
683.840	0.0143412
683.918	0.0143153
683.996	0.0141708
684.075	0.0143445
684.153	0.0143837
684.231	0.0142033
684.309	0.0141744
684.387	0.0143990
684.465	0.0143044
684.543	0.0142004
684.621	0.0142599
684.700	0.0143131
684.778	0.0143173
684.856	0.0142216
684.934	0.0142080
685.012	0.0143056
685.090	0.0142651
685.168	0.0142371
685.246	0.0142807
685.325	0.0142130
685.403	0.0142914
685.481	0.0143089
685.559	0.0142104
685.637	0.0142539
685.715	0.0142183
685.793	0.0143354
685.871	0.0142550
685.950	0.0142354
686.028	0.0143565
686.106	0.0143165
686.184	0.0144373
686.262	0.0142860
686.340	0.0143247
686.418	0.0143489
686.496	0.0141979
686.575	0.0143377
686.653	0.0143430
686.731	0.0143713
686.809	0.0142448
686.887	0.0142738
686.965	0.0143820
687.043	0.0141380
687.121	0.0142222
687.200	0.0142101
687.278	0.0142608
687.356	0.0143417
687.434	0.0143040
687.512	0.0142645
687.590	0.0143531
687.668	0.0142365
687.746	0.0143259
687.825	0.0143529
687.903	0.0142429
687.981	0.0142535
688.059	0.0142094
688.137	0.0141853
688.215	0.0141873
688.293	0.0142879
688.371	0.0142774
688.450	0.0143304
688.528	0.0142646
688.606	0.0143094
688.684	0.0142873
688.762	0.0143758
688.840	0.0141608
688.918	0.0142146
688.996	0.0143852
689.075	0.0143188
689.153	0.0142431
689.231	0.0142712
689.309	0.0143139
689.387	0.0143589
689.465	0.0142792
689.543	0.0141273
689.621	0.0143015
689.700	0.0142279
689.778	0.0142601
689.856	0.0142195
689.934	0.0143060
690.012	0.0143408
690.090	0.0143592
690.168	0.0142273
690.246	0.0141380
690.325	0.0142509
690.403	0.0142448
690.481	0.0142035
690.559	0.0142807
690.637	0.0142906
690.715	0.0143111
690.793	0.0141905
690.871	0.0143105
690.950	0.0143671
691.028	0.0142725
691.106	0.0141382
691.184	0.0143364
691.262	0.0142967
691.340	0.0143066
691.418	0.0142897
691.496	0.0143387
691.575	0.0143238
691.653	0.0142202
691.731	0.0142110
691.809	0.0143120
691.887	0.0143912
691.965	0.0143015
692.043	0.0142583
692.121	0.0142518
692.200	0.0143266
692.278	0.0141952
692.356	0.0143105
692.434	0.0143618
692.512	0.0142690
692.590	0.0141809
692.668	0.0140892
692.746	0.0144544
692.825	0.0143124
692.903	0.0142230
692.981	0.0141726
693.059	0.0142177
693.137	0.0142918
693.215	0.0142493
693.293	0.0141772
693.371	0.0143078
693.450	0.0142367
693.528	0.0143158
693.606	0.0141114
693.684	0.0143362
693.762	0.0141826
693.840	0.0141920
693.918	0.0142159
693.996	0.0141661
694.075	0.0142285
694.153	0.0142605
694.231	0.0143401
694.309	0.0142161
694.387	0.0142864
694.465	0.0143018
694.543	0.0142678
694.621	0.0141499
694.700	0.0142535
694.778	0.0143325
694.856	0.0142593
694.934	0.0142982
695.012	0.0143167
695.090	0.0143266
695.168	0.0141682
695.246	0.0143008
695.325	0.0142921
695.403	0.0142567
695.481	0.0142932
695.559	0.0141839
695.637	0.0143592
695.715	0.0141663
695.793	0.0142142
695.871	0.0142345
695.950	0.0142585
696.028	0.0142193
696.106	0.0142673
696.184	0.0142337
696.262	0.0143615
696.340	0.0142696
696.418	0.0142114
696.496	0.0142632
696.575	0.0142858
696.653	0.0142013
696.731	0.0143065
696.809	0.0143058
696.887	0.0140808
696.965	0.0142097
697.043	0.0143880
697.121	0.0142820
697.200	0.0142174
697.278	0.0142507
697.356	0.0143143
697.434	0.0142135
697.512	0.0143066
697.590	0.0143077
697.668	0.0141314
697.746	0.0141992
697.825	0.0141644
697.903	0.0142324
697.981	0.0142142
698.059	0.0143126
698.137	0.0143196
698.215	0.0142660
698.293	0.0142358
698.371	0.0142109
698.450	0.0141972
698.528	0.0140273
698.606	0.0141836
698.684	0.0141541
698.762	0.0143607
698.840	0.0142970
698.918	0.0140996
698.996	0.0142715
699.075	0.0142275
699.153	0.0142576
699.231	0.0143919
699.309	0.0143294
699.387	0.0142614
699.465	0.0142184
699.543	0.0142979
699.621	0.0144261
699.700	0.0142055
699.778	0.0141613
699.856	0.0142802
699.934	0.0140652
700.012	0.0142693
700.090	0.0143854
700.168	0.0142104
700.246	0.0141158
700.325	0.0141986
700.403	0.0142938
700.481	0.0141415
700.559	0.0142071
700.637	0.0143277
700.715	0.0141922
700.793	0.0142902
700.871	0.0142867
700.950	0.0142673
701.028	0.0142606
701.106	0.0142886
701.184	0.0142521
701.262	0.0143552
701.340	0.0141805
701.418	0.0141817
701.496	0.0142102
701.575	0.0141891
701.653	0.0142345
701.731	0.0144197
701.809	0.0142687
701.887	0.0142646
701.965	0.0141620
702.043	0.0142609
702.121	0.0143812
702.200	0.0142608
702.278	0.0141451
702.356	0.0142440
702.434	0.0142371
702.512	0.0141071
702.590	0.0141933
702.668	0.0142958
702.746	0.0142332
702.825	0.0142905
702.903	0.0142509
702.981	0.0142082
703.059	0.0142007
703.137	0.0142036
703.215	0.0142200
703.293	0.0143945
703.371	0.0142989
703.450	0.0143213
703.528	0.0140924
703.606	0.0142355
703.684	0.0143029
703.762	0.0142061
703.840	0.0141100
703.918	0.0142209
703.996	0.0142754
704.075	0.0141671
704.153	0.0142453
704.231	0.0142693
704.309	0.0141749
704.387	0.0143121
704.465	0.0141918
704.543	0.0142032
704.621	0.0144215
704.700	0.0141876
704.778	0.0141437
704.856	0.0142029
704.934	0.0142632
705.012	0.0143411
705.090	0.0142664
705.168	0.0143179
705.246	0.0142970
705.325	0.0143615
705.403	0.0141888
705.481	0.0142252
705.559	0.0142194
705.637	0.0141971
705.715	0.0142798
705.793	0.0141183
705.871	0.0141354
705.950	0.0142575
706.028	0.0141782
706.106	0.0142298
706.184	0.0141561
706.262	0.0141692
706.340	0.0140479
706.418	0.0142206
706.496	0.0141565
706.575	0.0141438
706.653	0.0141939
706.731	0.0141782
706.809	0.0141436
706.887	0.0142454
706.965	0.0141574
707.043	0.0142348
707.121	0.0142426
707.200	0.0141419
707.278	0.0140685
707.356	0.0142899
707.434	0.0142548
707.512	0.0142700
707.590	0.0142173
707.668	0.0142777
707.746	0.0142657
707.825	0.0142760
707.903	0.0143152
707.981	0.0142666
708.059	0.0142348
708.137	0.0141293
708.215	0.0142314
708.293	0.0144495
708.371	0.0142596
708.450	0.0142311
708.528	0.0143774
708.606	0.0141958
708.684	0.0141908
708.762	0.0141621
708.840	0.0141882
708.918	0.0141297
708.996	0.0141917
709.075	0.0141971
709.153	0.0143291
709.231	0.0143930
709.309	0.0140972
709.387	0.0142245
709.465	0.0142638
709.543	0.0141798
709.621	0.0142857
709.700	0.0143460
709.778	0.0141389
709.856	0.0141282
709.934	0.0143578
710.012	0.0142885
710.090	0.0143325
710.168	0.0142025
710.246	0.0143484
710.325	0.0141868
710.403	0.0142438
710.481	0.0141254
710.559	0.0141539
710.637	0.0141965
710.715	0.0141993
710.793	0.0142104
710.871	0.0140709
710.950	0.0141779
711.028	0.0142783
711.106	0.0142351
711.184	0.0142461
711.262	0.0143418
711.340	0.0142396
711.418	0.0143498
711.496	0.0143124
711.575	0.0143553
711.653	0.0144576
711.731	0.0143549
711.809	0.0143701
711.887	0.0141934
711.965	0.0144020
712.043	0.0143704
712.121	0.0142643
712.200	0.0142805
712.278	0.0143159
712.356	0.0143468
712.434	0.0144218
712.512	0.0145055
712.590	0.0143162
712.668	0.0143451
712.746	0.0142885
712.825	0.0140131
712.903	0.0139925
712.981	0.0140810
713.059	0.0138974
713.137	0.0140128
713.215	0.0141495
713.293	0.0142423
713.371	0.0143486
713.450	0.0146128
713.528	0.0144244
713.606	0.0145219
713.684	0.0145640
713.762	0.0145503
713.840	0.0143735
713.918	0.0143250
713.996	0.0144140
714.075	0.0143334
714.153	0.0143153
714.231	0.0143692
714.309	0.0143470
714.387	0.0145142
714.465	0.0144245
714.543	0.0144606
714.621	0.0143977
714.700	0.0144202
714.778	0.0143739
714.856	0.0142908
714.934	0.0141199
715.012	0.0141914
715.090	0.0141176
715.168	0.0141457
715.246	0.0140421
715.325	0.0141177
715.403	0.0140426
715.481	0.0139303
715.559	0.0139729
715.637	0.0139201
715.715	0.0139439
715.793	0.0140103
715.871	0.0139909
715.950	0.0139754
716.028	0.0139728
716.106	0.0141393
716.184	0.0141694
716.262	0.0143526
716.340	0.0146704
716.418	0.0146278
716.496	0.0148966
716.575	0.0148182
716.653	0.0147620
716.731	0.0146247
716.809	0.0144661
716.887	0.0142988
716.965	0.0139980
717.043	0.0137045
717.121	0.0135072
717.200	0.0133497
717.278	0.0132057
717.356	0.0130343
717.434	0.0132538
717.512	0.0134557
717.590	0.0136224
717.668	0.0137151
717.746	0.0139082
717.825	0.0141283
717.903	0.0145572
717.981	0.0146471
718.059	0.0148176
718.137	0.0147984
718.215	0.0147684
718.293	0.0148523
718.371	0.0148548
718.450	0.0149567
718.528	0.0148021
718.606	0.0147110
718.684	0.0145527
718.762	0.0144855
718.840	0.0143501
718.918	0.0143118
718.996	0.0142025
719.075	0.0143019
719.153	0.0142628
719.231	0.0143729
719.309	0.0144965
719.387	0.0143884
719.465	0.0145840
719.543	0.0147303
719.621	0.0148016
719.700	0.0148662
719.778	0.0149659
719.856	0.0146956
719.934	0.0147002
720.012	0.0145570
720.090	0.0142329
720.168	0.0139854
720.246	0.0136233
720.325	0.0133913
720.403	0.0133352
720.481	0.0131288
720.559	0.0131883
720.637	0.0132534
720.715	0.0135795
720.793	0.0137762
720.871	0.0140327
720.950	0.0142552
721.028	0.0146275
721.106	0.0146150
721.184	0.0147424
721.262	0.0149142
721.340	0.0148779
721.418	0.0149763
721.496	0.0145982
721.575	0.0143396
721.653	0.0143171
721.731	0.0141296
721.809	0.0139400
721.887	0.0137896
721.965	0.0137940
722.043	0.0137540
722.121	0.0138515
722.200	0.0137804
722.278	0.0138725
722.356	0.0139943
722.434	0.0140853
722.512	0.0142037
722.590	0.0142355
722.668	0.0145886
722.746	0.0146077
722.825	0.0145929
722.903	0.0146801
722.981	0.0147276
723.059	0.0146893
723.137	0.0146763
723.215	0.0145538
723.293	0.0142847
723.371	0.0141376
723.450	0.0140314
723.528	0.0137913
723.606	0.0138000
723.684	0.0137338
723.762	0.0137904
723.840	0.0137972
723.918	0.0139154
723.996	0.0141595
724.075	0.0142680
724.153	0.0145272
724.231	0.0147663
724.309	0.0147704
724.387	0.0147935
724.465	0.0149913
724.543	0.0149242
724.621	0.0151688
724.700	0.0150262
724.778	0.0149635
724.856	0.0148944
724.934	0.0146605
725.012	0.0144267
725.090	0.0144406
725.168	0.0142713
725.246	0.0139948
725.325	0.0138427
725.403	0.0136831
725.481	0.0137070
725.559	0.0136768
725.637	0.0135726
725.715	0.0138529
725.793	0.0138241
725.871	0.0138290
725.950	0.0140858
726.028	0.0142174
726.106	0.0142788
726.184	0.0144498
726.262	0.0144593
726.340	0.0146212
726.418	0.0146210
726.496	0.0146056
726.575	0.0146186
726.653	0.0147249
726.731	0.0145677
726.809	0.0143658
726.887	0.0142780
726.965	0.0140900
727.043	0.0139438
727.121	0.0136688
727.200	0.0137005
727.278	0.0135611
727.356	0.0135773
727.434	0.0136690
727.512	0.0138098
727.590	0.0137831
727.668	0.0139265
727.746	0.0140616
727.825	0.0142905
727.903	0.0144714
727.981	0.0145251
728.059	0.0146910
728.137	0.0146862
728.215	0.0148283
728.293	0.0148711
728.371	0.0147883
728.450	0.0149476
728.528	0.0147301
728.606	0.0145837
728.684	0.0144495
728.762	0.0141216
728.840	0.0140931
728.918	0.0140015
728.996	0.0138902
729.075	0.0138425
729.153	0.0139257
729.231	0.0138271
729.309	0.0140446
729.387	0.0140013
729.465	0.0141419
729.543	0.0142078
729.621	0.0143721
729.700	0.0145997
729.778	0.0146038
729.856	0.0146915
729.934	0.0146967
730.012	0.0147534
730.090	0.0148052
730.168	0.0148251
730.246	0.0147584
730.325	0.0146595
730.403	0.0144518
730.481	0.0143001
730.559	0.0143397
730.637	0.0143321
730.715	0.0141495
730.793	0.0140562
730.871	0.0140831
730.950	0.0142093
731.028	0.0141798
731.106	0.0141272
731.184	0.0140835
731.262	0.0141228
731.340	0.0141840
731.418	0.0141433
731.496	0.0142309
731.575	0.0142474
731.653	0.0142436
731.731	0.0142895
731.809	0.0143190
731.887	0.0143196
731.965	0.0141692
732.043	0.0142510
732.121	0.0142112
732.200	0.0140843
732.278	0.0140682
732.356	0.0141006
732.434	0.0139890
732.512	0.0140759
732.590	0.0140019
732.668	0.0141499
732.746	0.0141259
732.825	0.0141072
732.903	0.0143521
732.981	0.0143369
733.059	0.0142970
733.137	0.0141351
733.215	0.0143118
733.293	0.0143724
733.371	0.0142519
733.450	0.0142356
733.528	0.0142902
733.606	0.0140967
733.684	0.0142211
733.762	0.0141710
733.840	0.0141177
733.918	0.0142779
733.996	0.0142326
734.075	0.0141883
734.153	0.0141812
734.231	0.0142112
734.309	0.0141025
734.387	0.0143311
734.465	0.0143147
734.543	0.0142419
734.621	0.0142406
734.700	0.0142431
734.778	0.0142526
734.856	0.0143726
734.934	0.0142458
735.012	0.0142360
735.090	0.0141787
735.168	0.0142995
735.246	0.0140451
735.325	0.0140890
735.403	0.0141972
735.481	0.0142228
735.559	0.0142497
735.637	0.0143335
735.715	0.0143999
735.793	0.0143864
735.871	0.0143812
735.950	0.0144229
736.028	0.0145135
736.106	0.0144226
736.184	0.0145006
736.262	0.0145054
736.340	0.0143730
736.418	0.0143407
736.496	0.0143230
736.575	0.0141526
736.653	0.0142014
736.731	0.0142392
736.809	0.0142126
736.887	0.0142177
736.965	0.0141401
737.043	0.0140822
737.121	0.0140907
737.200	0.0141576
737.278	0.0142215
737.356	0.0139411
737.434	0.0140507
737.512	0.0141549
737.590	0.0142374
737.668	0.0141342
737.746	0.0141432
737.825	0.0142340
737.903	0.0141082
737.981	0.0142399
738.059	0.0143877
738.137	0.0145128
738.215	0.0145016
738.293	0.0145341
738.371	0.0145693
738.450	0.0144808
738.528	0.0145477
738.606	0.0144865
738.684	0.0143280
738.762	0.0144449
738.840	0.0143760
738.918	0.0143490
738.996	0.0141594
739.075	0.0140580
739.153	0.0141882
739.231	0.0139597
739.309	0.0139481
739.387	0.0139823
739.465	0.0140843
739.543	0.0140450
739.621	0.0141873
739.700	0.0141750
739.778	0.0142947
739.856	0.0144360
739.934	0.0143218
740.012	0.0144493
740.090	0.0144820
740.168	0.0145416
740.246	0.0145397
740.325	0.0145886
740.403	0.0145188
740.481	0.0144637
740.559	0.0145251
740.637	0.0143138
740.715	0.0142789
740.793	0.0140828
740.871	0.0141797
740.950	0.0139595
741.028	0.0140037
741.106	0.0140581
741.184	0.0141697
741.262	0.0141120
741.340	0.0141348
741.418	0.0140401
741.496	0.0139951
741.575	0.0142014
741.653	0.0140502
741.731	0.0140963
741.809	0.0140150
741.887	0.0141109
741.965	0.0141590
742.043	0.0139419
742.121	0.0140370
742.200	0.0141079
742.278	0.0142857
742.356	0.0140938
742.434	0.0141096
742.512	0.0142268
742.590	0.0142264
742.668	0.0144108
742.746	0.0144476
742.825	0.0145196
742.903	0.0145148
742.981	0.0145956
743.059	0.0145982
743.137	0.0145213
743.215	0.0145621
743.293	0.0144254
743.371	0.0144835
743.450	0.0144344
743.528	0.0142883
743.606	0.0141566
743.684	0.0141886
743.762	0.0140921
743.840	0.0140957
743.918	0.0140894
743.996	0.0140064
744.075	0.0138959
744.153	0.0139344
744.231	0.0142260
744.309	0.0141264
744.387	0.0141855
744.465	0.0141818
744.543	0.0142100
744.621	0.0144397
744.700	0.0144521
744.778	0.0142976
744.856	0.0143206
744.934	0.0143662
745.012	0.0144347
745.090	0.0144963
745.168	0.0145416
745.246	0.0143864
745.325	0.0143435
745.403	0.0144453
745.481	0.0142986
745.559	0.0143301
745.637	0.0143489
745.715	0.0143774
745.793	0.0141888
745.871	0.0141460
745.950	0.0142939
746.028	0.0141884
746.106	0.0141778
746.184	0.0140028
746.262	0.0141521
746.340	0.0142989
746.418	0.0140097
746.496	0.0139169
746.575	0.0141663
746.653	0.0141231
746.731	0.0141355
746.809	0.0141518
746.887	0.0142281
746.965	0.0142363
747.043	0.0143427
747.121	0.0145275
747.200	0.0145288
747.278	0.0144163
747.356	0.0144057
747.434	0.0143823
747.512	0.0143182
747.590	0.0144006
747.668	0.0142322
747.746	0.0143343
747.825	0.0142780
747.903	0.0142403
747.981	0.0139645
748.059	0.0139410
748.137	0.0139445
748.215	0.0140028
748.293	0.0139484
748.371	0.0141066
748.450	0.0140868
748.528	0.0140512
748.606	0.0141194
748.684	0.0142545
748.762	0.0143204
748.840	0.0144166
748.918	0.0145677
748.996	0.0145348
749.075	0.0144172
749.153	0.0144005
749.231	0.0144510
749.309	0.0144160
749.387	0.0143311
749.465	0.0142872
749.543	0.0142223
749.621	0.0141505
749.700	0.0141422
749.778	0.0141727
749.856	0.0142698
749.934	0.0142531
750.012	0.0141944
750.090	0.0142369
750.168	0.0142660
750.246	0.0142736
750.325	0.0144126
750.403	0.0143241
750.481	0.0144661
750.559	0.0144533
750.637	0.0146357
750.715	0.0145539
750.793	0.0144574
750.871	0.0145738
750.950	0.0145009
751.028	0.0143272
751.106	0.0144604
751.184	0.0144048
751.262	0.0141940
751.340	0.0140993
751.418	0.0141741
751.496	0.0140733
751.575	0.0139895
751.653	0.0140245
751.731	0.0140881
751.809	0.0139048
751.887	0.0141051
751.965	0.0141402
752.043	0.0142097
752.121	0.0143266
752.200	0.0142805
752.278	0.0141895
752.356	0.0141434
752.434	0.0141637
752.512	0.0142697
752.590	0.0144112
752.668	0.0143851
752.746	0.0143214
752.825	0.0143037
752.903	0.0142770
752.981	0.0141476
753.059	0.0143706
753.137	0.0141713
753.215	0.0141674
753.293	0.0141465
753.371	0.0142281
753.450	0.0141821
753.528	0.0141302
753.606	0.0141372
753.684	0.0140709
753.762	0.0140873
753.840	0.0140482
753.918	0.0142056
753.996	0.0141201
754.075	0.0141554
754.153	0.0140686
754.231	0.0141193
754.309	0.0143211
754.387	0.0142091
754.465	0.0140996
754.543	0.0142212
754.621	0.0145218
754.700	0.0144830
754.778	0.0143169
754.856	0.0143633
754.934	0.0142609
755.012	0.0143708
755.090	0.0143525
755.168	0.0144844
755.246	0.0144762
755.325	0.0143607
755.403	0.0142702
755.481	0.0141860
755.559	0.0142319
755.637	0.0142216
755.715	0.0140928
755.793	0.0140887
755.871	0.0141144
755.950	0.0140962
756.028	0.0142252
756.106	0.0142837
756.184	0.0142097
756.262	0.0141241
756.340	0.0142657
756.418	0.0143046
756.496	0.0143573
756.575	0.0144109
756.653	0.0146236
756.731	0.0144036
756.809	0.0142461
756.887	0.0143193
756.965	0.0143520
757.043	0.0142521
757.121	0.0143647
757.200	0.0144312
757.278	0.0142390
757.356	0.0142328
757.434	0.0142091
757.512	0.0142807
757.590	0.0143877
757.668	0.0141303
757.746	0.0142200
757.825	0.0144390
757.903	0.0141999
757.981	0.0144096
758.059	0.0143331
758.137	0.0143233
758.215	0.0141357
758.293	0.0142039
758.371	0.0142725
758.450	0.0142542
758.528	0.0142783
758.606	0.0142204
758.684	0.0141814
758.762	0.0141407
758.840	0.0141032
758.918	0.0141460
758.996	0.0141120
759.075	0.0140964
759.153	0.0140234
759.231	0.0140637
759.309	0.0141326
759.387	0.0142102
759.465	0.0142487
759.543	0.0143957
759.621	0.0141791
759.700	0.0142934
759.778	0.0142738
759.856	0.0140598
759.934	0.0142612
760.012	0.0143782
760.090	0.0142848
760.168	0.0142333
760.246	0.0141474
760.325	0.0141634
760.403	0.0141428
760.481	0.0141715
760.559	0.0141875
760.637	0.0142168
760.715	0.0142944
760.793	0.0142805
760.871	0.0142122
760.950	0.0142860
761.028	0.0142602
761.106	0.0141711
761.184	0.0142896
761.262	0.0143748
761.340	0.0142771
761.418	0.0141807
761.496	0.0142221
761.575	0.0142088
761.653	0.0141716
761.731	0.0143502
761.809	0.0143053
761.887	0.0142134
761.965	0.0141862
762.043	0.0141485
762.121	0.0142075
762.200	0.0143698
762.278	0.0143491
762.356	0.0143612
762.434	0.0142783
762.512	0.0143755
762.590	0.0144371
762.668	0.0144714
762.746	0.0145210
762.825	0.0145055
762.903	0.0144685
762.981	0.0145055
763.059	0.0144255
763.137	0.0144200
763.215	0.0144608
763.293	0.0144562
763.371	0.0144859
763.450	0.0142390
763.528	0.0141954
763.606	0.0142847
763.684	0.0142516
763.762	0.0143262
763.840	0.0141284
763.918	0.0141678
763.996	0.0141953
764.075	0.0142412
764.153	0.0141299
764.231	0.0141987
764.309	0.0143004
764.387	0.0142911
764.465	0.0143043
764.543	0.0142837
764.621	0.0142671
764.700	0.0141559
764.778	0.0141646
764.856	0.0144612
764.934	0.0143664
765.012	0.0144580
765.090	0.0143779
765.168	0.0143057
765.246	0.0143533
765.325	0.0144640
765.403	0.0142986
765.481	0.0141838
765.559	0.0143145
765.637	0.0141821
765.715	0.0142795
765.793	0.0141474
765.871	0.0142255
765.950	0.0141784
766.028	0.0140984
766.106	0.0142690
766.184	0.0141408
766.262	0.0140581
766.340	0.0141374
766.418	0.0140897
766.496	0.0141453
766.575	0.0142365
766.653	0.0141183
766.731	0.0142483
766.809	0.0140665
766.887	0.0143320
766.965	0.0143949
767.043	0.0142160
767.121	0.0143626
767.200	0.0142736
767.278	0.0143333
767.356	0.0143427
767.434	0.0144674
767.512	0.0143816
767.590	0.0142117
767.668	0.0143690
767.746	0.0143305
767.825	0.0143382
767.903	0.0142641
767.981	0.0141669
768.059	0.0143139
768.137	0.0142888
768.215	0.0142002
768.293	0.0143650
768.371	0.0143623
768.450	0.0142757
768.528	0.0141760
768.606	0.0143118
768.684	0.0142804
768.762	0.0143323
768.840	0.0142002
768.918	0.0143462
768.996	0.0143228
769.075	0.0142329
769.153	0.0143148
769.231	0.0144126
769.309	0.0140586
769.387	0.0141677
769.465	0.0143323
769.543	0.0141810
769.621	0.0141795
769.700	0.0142440
769.778	0.0142238
769.856	0.0142080
769.934	0.0142374
770.012	0.0143100
770.090	0.0142737
770.168	0.0143329
770.246	0.0142802
770.325	0.0142556
770.403	0.0142552
770.481	0.0142456
770.559	0.0142821
770.637	0.0142921
770.715	0.0142947
770.793	0.0143063
770.871	0.0141836
770.950	0.0142960
771.028	0.0142245
771.106	0.0143327
771.184	0.0142334
771.262	0.0142415
771.340	0.0142223
771.418	0.0143116
771.496	0.0141352
771.575	0.0140320
771.653	0.0142329
771.731	0.0142817
771.809	0.0141287
771.887	0.0143231
771.965	0.0143572
772.043	0.0143414
772.121	0.0143183
772.200	0.0143340
772.278	0.0143220
772.356	0.0143732
772.434	0.0142949
772.512	0.0143546
772.590	0.0143620
772.668	0.0142934
772.746	0.0143186
772.825	0.0143414
772.903	0.0143064
772.981	0.0143401
773.059	0.0143730
773.137	0.0142097
773.215	0.0143224
773.293	0.0142081
773.371	0.0141773
773.450	0.0142293
773.528	0.0142928
773.606	0.0142587
773.684	0.0141819
773.762	0.0144426
773.840	0.0143310
773.918	0.0143444
773.996	0.0142408
774.075	0.0144800
774.153	0.0141644
774.231	0.0141145
774.309	0.0142249
774.387	0.0143346
774.465	0.0143546
774.543	0.0142304
774.621	0.0142786
774.700	0.0141406
774.778	0.0141995
774.856	0.0142545
774.934	0.0143593
775.012	0.0142963
775.090	0.0143393
775.168	0.0143304
775.246	0.0143123
775.325	0.0142924
775.403	0.0142922
775.481	0.0143251
775.559	0.0143762
775.637	0.0143492
775.715	0.0143116
775.793	0.0142757
775.871	0.0143170
775.950	0.0142722
776.028	0.0141507
776.106	0.0142784
776.184	0.0142909
776.262	0.0143342
776.340	0.0142817
776.418	0.0142364
776.496	0.0142529
776.575	0.0142950
776.653	0.0142712
776.731	0.0143023
776.809	0.0143189
776.887	0.0144469
776.965	0.0143614
777.043	0.0142468
777.121	0.0143116
777.200	0.0145063
777.278	0.0144083
777.356	0.0143488
777.434	0.0141760
777.512	0.0142982
777.590	0.0142806
777.668	0.0142863
777.746	0.0143749
777.825	0.0142796
777.903	0.0142705
777.981	0.0143328
778.059	0.0142967
778.137	0.0142564
778.215	0.0142658
778.293	0.0142478
778.371	0.0142352
778.450	0.0142534
778.528	0.0142329
778.606	0.0142352
778.684	0.0143221
778.762	0.0143075
778.840	0.0143391
778.918	0.0143753
778.996	0.0144110
779.075	0.0144905
779.153	0.0141614
779.231	0.0144005
779.309	0.0142892
779.387	0.0142906
779.465	0.0144092
779.543	0.0143864
779.621	0.0142096
779.700	0.0142940
779.778	0.0144573
779.856	0.0143758
779.934	0.0143823
780.012	0.0143600
780.090	0.0142706
780.168	0.0143815
780.246	0.0143414
780.325	0.0143286
780.403	0.0142182
780.481	0.0143037
780.559	0.0142654
780.637	0.0143096
780.715	0.0143091
780.793	0.0143803
780.871	0.0143581
780.950	0.0142496
781.028	0.0143591
781.106	0.0141801
781.184	0.0143815
781.262	0.0144685
781.340	0.0142966
781.418	0.0143149
781.496	0.0141953
781.575	0.0142796
781.653	0.0142757
781.731	0.0142484
781.809	0.0142618
781.887	0.0143507
781.965	0.0143880
782.043	0.0143272
782.121	0.0142445
782.200	0.0141772
782.278	0.0142153
782.356	0.0143184
782.434	0.0141998
782.512	0.0141992
782.590	0.0142551
782.668	0.0143343
782.746	0.0142588
782.825	0.0143017
782.903	0.0142829
782.981	0.0143192
783.059	0.0142795
783.137	0.0143748
783.215	0.0142332
783.293	0.0143980
783.371	0.0143603
783.450	0.0142403
783.528	0.0141990
783.606	0.0142160
783.684	0.0142897
783.762	0.0144215
783.840	0.0142227
783.918	0.0140302
783.996	0.0143409
784.075	0.0142613
784.153	0.0141796
784.231	0.0142291
784.309	0.0142628
784.387	0.0142475
784.465	0.0142316
784.543	0.0142892
784.621	0.0144416
784.700	0.0143467
784.778	0.0143214
784.856	0.0142046
784.934	0.0143166
785.012	0.0142018
785.090	0.0142823
785.168	0.0143537
785.246	0.0142994
785.325	0.0141922
785.403	0.0142822
785.481	0.0142950
785.559	0.0142386
785.637	0.0142953
785.715	0.0143107
785.793	0.0142397
785.871	0.0142949
785.950	0.0142173
786.028	0.0142799
786.106	0.0142648
786.184	0.0142324
786.262	0.0143092
786.340	0.0144163
786.418	0.0144637
786.496	0.0142012
786.575	0.0142158
786.653	0.0142996
786.731	0.0143636
786.809	0.0141621
786.887	0.0142948
786.965	0.0142323
787.043	0.0141248
787.121	0.0142604
787.200	0.0142007
787.278	0.0142575
787.356	0.0141576
787.434	0.0143067
787.512	0.0141671
787.590	0.0141711
787.668	0.0141186
787.746	0.0142671
787.825	0.0143018
787.903	0.0141919
787.981	0.0142820
788.059	0.0141959
788.137	0.0143022
788.215	0.0143091
788.293	0.0142198
788.371	0.0142719
788.450	0.0142714
788.528	0.0141765
788.606	0.0142137
788.684	0.0141931
788.762	0.0142995
788.840	0.0142970
788.918	0.0142350
788.996	0.0141608
789.075	0.0142530
789.153	0.0141962
789.231	0.0142452
789.309	0.0142197
789.387	0.0141648
789.465	0.0142019
789.543	0.0141475
789.621	0.0143256
789.700	0.0143060
789.778	0.0143003
789.856	0.0142850
789.934	0.0143141
790.012	0.0141996
790.090	0.0143801
790.168	0.0143227
790.246	0.0142380
790.325	0.0141752
790.403	0.0143013
790.481	0.0142281
790.559	0.0142201
790.637	0.0141859
790.715	0.0143401
790.793	0.0141448
790.871	0.0143410
790.950	0.0142477
791.028	0.0142367
791.106	0.0143022
791.184	0.0142027
791.262	0.0143222
791.340	0.0141473
791.418	0.0142238
791.496	0.0143615
791.575	0.0142307
791.653	0.0142413
791.731	0.0143168
791.809	0.0142515
791.887	0.0141355
791.965	0.0142747
792.043	0.0144091
792.121	0.0143687
792.200	0.0142053
792.278	0.0141811
792.356	0.0142994
792.434	0.0142336
792.512	0.0142197
792.590	0.0142445
792.668	0.0142361
792.746	0.0142758
792.825	0.0143536
792.903	0.0141947
792.981	0.0142290
793.059	0.0141702
793.137	0.0141707
793.215	0.0143475
793.293	0.0142474
793.371	0.0141888
793.450	0.0142246
793.528	0.0142132
793.606	0.0143827
793.684	0.0142444
793.762	0.0143182
793.840	0.0143610
793.918	0.0141505
793.996	0.0141995
794.075	0.0141418
794.153	0.0142831
794.231	0.0143931
794.309	0.0141611
794.387	0.0142091
794.465	0.0142487
794.543	0.0140763
794.621	0.0142202
794.700	0.0142749
794.778	0.0143040
794.856	0.0142456
794.934	0.0142233
795.012	0.0142356
795.090	0.0142328
795.168	0.0142851
795.246	0.0142702
795.325	0.0141000
795.403	0.0143587
795.481	0.0143175
795.559	0.0143270
795.637	0.0143999
795.715	0.0143366
795.793	0.0144127
795.871	0.0144120
795.950	0.0141558
796.028	0.0142682
796.106	0.0142238
796.184	0.0142609
796.262	0.0142649
796.340	0.0142255
796.418	0.0140842
796.496	0.0141804
796.575	0.0140049
796.653	0.0141695
796.731	0.0140697
796.809	0.0142303
796.887	0.0141666
796.965	0.0141881
797.043	0.0141045
797.121	0.0142155
797.200	0.0143629
797.278	0.0141419
797.356	0.0141393
797.434	0.0142889
797.512	0.0142158
797.590	0.0142482
797.668	0.0142951
797.746	0.0140894
797.825	0.0142087
797.903	0.0141822
797.981	0.0141216
798.059	0.0141534
798.137	0.0141916
798.215	0.0141587
798.293	0.0141162
798.371	0.0141618
798.450	0.0141734
798.528	0.0140948
798.606	0.0141937
798.684	0.0143342
798.762	0.0142607
798.840	0.0142253
798.918	0.0141608
798.996	0.0141583
799.075	0.0143522
799.153	0.0142812
799.231	0.0142571
799.309	0.0141704
799.387	0.0142988
799.465	0.0143744
799.543	0.0141920
799.621	0.0141831
799.700	0.0143160
799.778	0.0142600
799.856	0.0141578
799.934	0.0142661
800.012	0.0142411
800.090	0.0142476
800.168	0.0143105
800.246	0.0141775
800.325	0.0141490
800.403	0.0142370
800.481	0.0142296
800.559	0.0142226
800.637	0.0142365
800.715	0.0142659
800.793	0.0144554
800.871	0.0142024
800.950	0.0142706
801.028	0.0143280
801.106	0.0143314
801.184	0.0143321
801.262	0.0143040
801.340	0.0143002
801.418	0.0142358
801.496	0.0141117
801.575	0.0143332
801.653	0.0142233
801.731	0.0142178
801.809	0.0142233
801.887	0.0141505
801.965	0.0141610
802.043	0.0143062
802.121	0.0140643
802.200	0.0143217
802.278	0.0143950
802.356	0.0142871
802.434	0.0143906
802.512	0.0144133
802.590	0.0142632
802.668	0.0141678
802.746	0.0143788
802.825	0.0143287
802.903	0.0142373
802.981	0.0143107
803.059	0.0143704
803.137	0.0143801
803.215	0.0142812
803.293	0.0142728
803.371	0.0143037
803.450	0.0144566
803.528	0.0143481
803.606	0.0142714
803.684	0.0142396
803.762	0.0143098
803.840	0.0143536
803.918	0.0143620
803.996	0.0143952
804.075	0.0142551
804.153	0.0143269
804.231	0.0142592
804.309	0.0142471
804.387	0.0143729
804.465	0.0142946
804.543	0.0142885
804.621	0.0144119
804.700	0.0142210
804.778	0.0143182
804.856	0.0141945
804.934	0.0141743
805.012	0.0142852
805.090	0.0142396
805.168	0.0143746
805.246	0.0144230
805.325	0.0142810
805.403	0.0141185
805.481	0.0142544
805.559	0.0143976
805.637	0.0142492
805.715	0.0142461
805.793	0.0142834
805.871	0.0142541
805.950	0.0141924
806.028	0.0142439
806.106	0.0142141
806.184	0.0143324
806.262	0.0142041
806.340	0.0142724
806.418	0.0142677
806.496	0.0143404
806.575	0.0143903
806.653	0.0142368
806.731	0.0143313
806.809	0.0142976
806.887	0.0142191
806.965	0.0142118
807.043	0.0143108
807.121	0.0142113
807.200	0.0143241
807.278	0.0141407
807.356	0.0140842
807.434	0.0143314
807.512	0.0141245
807.590	0.0143100
807.668	0.0142635
807.746	0.0140218
807.825	0.0142046
807.903	0.0141854
807.981	0.0141656
808.059	0.0142021
808.137	0.0141640
808.215	0.0141431
808.293	0.0142565
808.371	0.0143352
808.450	0.0143213
808.528	0.0142656
808.606	0.0142627
808.684	0.0143066
808.762	0.0143723
808.840	0.0142462
808.918	0.0142526
808.996	0.0142137
809.075	0.0142613
809.153	0.0142579
809.231	0.0141682
809.309	0.0142506
809.387	0.0142587
809.465	0.0141418
809.543	0.0141061
809.621	0.0141344
809.700	0.0142085
809.778	0.0143280
809.856	0.0142519
809.934	0.0142590
810.012	0.0141319
810.090	0.0142251
810.168	0.0141785
810.246	0.0143140
810.325	0.0142472
810.403	0.0142509
810.481	0.0142333
810.559	0.0143719
810.637	0.0142406
810.715	0.0142065
810.793	0.0143319
810.871	0.0143427
810.950	0.0141721
811.028	0.0142007
811.106	0.0142396
811.184	0.0142669
811.262	0.0144073
811.340	0.0143083
811.418	0.0142575
811.496	0.0143224
811.575	0.0142404
811.653	0.0141627
811.731	0.0140829
811.809	0.0143266
811.887	0.0142625
811.965	0.0141467
812.043	0.0141451
812.121	0.0143063
812.200	0.0142641
812.278	0.0142330
812.356	0.0142812
812.434	0.0142931
812.512	0.0141680
812.590	0.0142038
812.668	0.0141669
812.746	0.0141898
812.825	0.0141891
812.903	0.0140876
812.981	0.0140823
813.059	0.0142123
813.137	0.0142652
813.215	0.0143285
813.293	0.0142318
813.371	0.0142902
813.450	0.0140348
813.528	0.0141752
813.606	0.0142902
813.684	0.0142022
813.762	0.0141310
813.840	0.0140705
813.918	0.0140392
813.996	0.0142646
814.075	0.0142951
814.153	0.0143517
814.231	0.0140928
814.309	0.0142000
814.387	0.0140815
814.465	0.0142153
814.543	0.0143925
814.621	0.0143530
814.700	0.0143043
814.778	0.0142204
814.856	0.0143311
814.934	0.0143190
815.012	0.0141433
815.090	0.0142948
815.168	0.0143423
815.246	0.0143839
815.325	0.0143582
815.403	0.0143233
815.481	0.0144234
815.559	0.0143300
815.637	0.0143009
815.715	0.0143578
815.793	0.0142946
815.871	0.0143492
815.950	0.0144401
816.028	0.0144098
816.106	0.0141985
816.184	0.0141588
816.262	0.0143186
816.340	0.0143472
816.418	0.0142852
816.496	0.0142725
816.575	0.0141529
816.653	0.0142120
816.731	0.0141727
816.809	0.0142930
816.887	0.0142491
816.965	0.0143189
817.043	0.0142397
817.121	0.0141944
817.200	0.0142564
817.278	0.0143534
817.356	0.0143130
817.434	0.0141900
817.512	0.0142031
817.590	0.0141552
817.668	0.0141935
817.746	0.0142141
817.825	0.0143677
817.903	0.0142300
817.981	0.0143374
818.059	0.0142753
818.137	0.0141743
818.215	0.0143599
818.293	0.0142370
818.371	0.0141828
818.450	0.0142265
818.528	0.0143465
818.606	0.0141750
818.684	0.0141654
818.762	0.0141286
818.840	0.0142834
818.918	0.0143037
818.996	0.0142255
819.075	0.0141357
819.153	0.0142233
819.231	0.0140762
819.309	0.0140751
819.387	0.0142499
819.465	0.0141552
819.543	0.0141538
819.621	0.0140919
819.700	0.0141492
819.778	0.0142504
819.856	0.0142078
819.934	0.0141824
820.012	0.0142641
820.090	0.0143768
820.168	0.0142699
820.246	0.0142972
820.325	0.0143577
820.403	0.0142941
820.481	0.0141736
820.559	0.0142464
820.637	0.0141866
820.715	0.0141650
820.793	0.0142307
820.871	0.0142742
820.950	0.0142500
821.028	0.0141884
821.106	0.0143072
821.184	0.0142385
821.262	0.0140485
821.340	0.0141129
821.418	0.0141472
821.496	0.0141228
821.575	0.0142401
821.653	0.0141917
821.731	0.0141438
821.809	0.0141892
821.887	0.0141441
821.965	0.0141319
822.043	0.0142986
822.121	0.0142650
822.200	0.0143102
822.278	0.0142583
822.356	0.0141624
822.434	0.0142113
822.512	0.0140919
822.590	0.0142555
822.668	0.0141773
822.746	0.0142281
822.825	0.0142516
822.903	0.0141785
822.981	0.0143085
823.059	0.0141861
823.137	0.0141594
823.215	0.0141574
823.293	0.0141936
823.371	0.0141887
823.450	0.0142288
823.528	0.0142513
823.606	0.0143366
823.684	0.0143036
823.762	0.0143011
823.840	0.0143060
823.918	0.0142498
823.996	0.0143283
824.075	0.0142848
824.153	0.0144027
824.231	0.0143172
824.309	0.0143052
824.387	0.0143549
824.465	0.0143218
824.543	0.0143707
824.621	0.0143193
824.700	0.0142997
824.778	0.0142443
824.856	0.0143618
824.934	0.0142509
825.012	0.0143675
825.090	0.0142631
825.168	0.0143987
825.246	0.0142773
825.325	0.0141527
825.403	0.0143362
825.481	0.0142380
825.559	0.0143029
825.637	0.0143237
825.715	0.0143429
825.793	0.0143338
825.871	0.0144006
825.950	0.0144675
826.028	0.0143108
826.106	0.0143172
826.184	0.0143775
826.262	0.0142627
826.340	0.0142930
826.418	0.0143238
826.496	0.0145025
826.575	0.0142928
826.653	0.0141500
826.731	0.0143365
826.809	0.0142799
826.887	0.0142281
826.965	0.0142572
827.043	0.0142309
827.121	0.0142136
827.200	0.0143555
827.278	0.0142187
827.356	0.0142243
827.434	0.0142960
827.512	0.0142093
827.590	0.0142690
827.668	0.0143238
827.746	0.0142553
827.825	0.0142953
827.903	0.0143974
827.981	0.0143029
828.059	0.0144141
828.137	0.0143131
828.215	0.0142907
828.293	0.0142801
828.371	0.0143874
828.450	0.0142307
828.528	0.0141059
828.606	0.0142770
828.684	0.0142337
828.762	0.0142204
828.840	0.0141306
828.918	0.0143111
828.996	0.0141708
829.075	0.0142223
829.153	0.0140932
829.231	0.0142921
829.309	0.0144036
829.387	0.0142742
829.465	0.0141999
829.543	0.0142279
829.621	0.0143578
829.700	0.0142741
829.778	0.0142847
829.856	0.0142031
829.934	0.0142994
830.012	0.0142609
830.090	0.0142641
830.168	0.0143240
830.246	0.0143228
830.325	0.0143671
830.403	0.0144109
830.481	0.0143086
830.559	0.0142429
830.637	0.0141873
830.715	0.0141442
830.793	0.0141538
830.871	0.0143621
830.950	0.0142718
831.028	0.0141274
831.106	0.0142814
831.184	0.0142361
831.262	0.0143359
831.340	0.0141596
831.418	0.0139933
831.496	0.0141047
831.575	0.0142764
831.653	0.0141886
831.731	0.0141169
831.809	0.0142284
831.887	0.0142353
831.965	0.0141771
832.043	0.0141805
832.121	0.0142159
832.200	0.0141631
832.278	0.0144048
832.356	0.0142200
832.434	0.0143234
832.512	0.0142356
832.590	0.0142996
832.668	0.0143652
832.746	0.0143179
832.825	0.0142238
832.903	0.0143839
832.981	0.0143047
833.059	0.0142681
833.137	0.0142982
833.215	0.0143142
833.293	0.0141930
833.371	0.0141008
833.450	0.0142683
833.528	0.0143274
833.606	0.0142093
833.684	0.0142595
833.762	0.0142255
833.840	0.0143399
833.918	0.0141898
833.996	0.0140622
834.075	0.0140819
834.153	0.0143975
834.231	0.0142030
834.309	0.0142761
834.387	0.0141497
834.465	0.0142355
834.543	0.0141848
834.621	0.0143034
834.700	0.0142916
834.778	0.0143668
834.856	0.0143137
834.934	0.0142694
835.012	0.0142480
835.090	0.0144274
835.168	0.0141011
835.246	0.0142340
835.325	0.0143552
835.403	0.0142629
835.481	0.0142883
835.559	0.0142637
835.637	0.0142562
835.715	0.0143774
835.793	0.0141387
835.871	0.0142292
835.950	0.0142508
836.028	0.0142919
836.106	0.0142099
836.184	0.0142793
836.262	0.0141960
836.340	0.0142073
836.418	0.0142722
836.496	0.0144080
836.575	0.0142728
836.653	0.0143247
836.731	0.0142989
836.809	0.0144286
836.887	0.0142461
836.965	0.0142579
837.043	0.0142285
837.121	0.0142790
837.200	0.0143795
837.278	0.0144131
837.356	0.0143530
837.434	0.0143149
837.512	0.0143263
837.590	0.0143765
837.668	0.0141861
837.746	0.0143417
837.825	0.0144234
837.903	0.0141148
837.981	0.0143784
838.059	0.0144360
838.137	0.0142081
838.215	0.0142841
838.293	0.0141972
838.371	0.0142798
838.450	0.0142053
838.528	0.0141453
838.606	0.0142231
838.684	0.0142094
838.762	0.0142135
838.840	0.0142690
838.918	0.0142523
838.996	0.0143076
839.075	0.0141605
839.153	0.0141566
839.231	0.0143042
839.309	0.0141695
839.387	0.0143216
839.465	0.0143858
839.543	0.0142661
839.621	0.0141390
839.700	0.0142824
839.778	0.0141457
839.856	0.0142275
839.934	0.0141279
840.012	0.0141228
840.090	0.0141463
840.168	0.0140736
840.246	0.0141209
840.325	0.0141893
840.403	0.0142278
840.481	0.0141029
840.559	0.0142421
840.637	0.0141945
840.715	0.0142355
840.793	0.0142274
840.871	0.0142002
840.950	0.0142503
841.028	0.0142272
841.106	0.0142556
841.184	0.0143671
841.262	0.0142591
841.340	0.0142688
841.418	0.0143330
841.496	0.0142231
841.575	0.0142054
841.653	0.0139917
841.731	0.0142126
841.809	0.0141212
841.887	0.0141141
841.965	0.0142457
842.043	0.0141552
842.121	0.0142541
842.200	0.0142106
842.278	0.0142137
842.356	0.0142474
842.434	0.0143274
842.512	0.0141107
842.590	0.0142874
842.668	0.0143071
842.746	0.0142159
842.825	0.0141471
842.903	0.0142531
842.981	0.0143142
843.059	0.0142626
843.137	0.0142384
843.215	0.0143060
843.293	0.0142383
843.371	0.0142771
843.450	0.0142905
843.528	0.0143707
843.606	0.0143281
843.684	0.0142241
843.762	0.0142068
843.840	0.0144001
843.918	0.0143800
843.996	0.0142430
844.075	0.0143370
844.153	0.0143088
844.231	0.0143939
844.309	0.0142770
844.387	0.0142750
844.465	0.0142219
844.543	0.0143071
844.621	0.0143465
844.700	0.0143766
844.778	0.0143021
844.856	0.0142377
844.934	0.0143232
845.012	0.0142685
845.090	0.0143247
845.168	0.0142593
845.246	0.0142587
845.325	0.0143182
845.403	0.0142489
845.481	0.0141763
845.559	0.0142278
845.637	0.0142849
845.715	0.0142014
845.793	0.0142953
845.871	0.0142734
845.950	0.0143282
846.028	0.0142608
846.106	0.0142049
846.184	0.0143696
846.262	0.0144563
846.340	0.0142845
846.418	0.0142754
846.496	0.0142635
846.575	0.0144023
846.653	0.0142097
846.731	0.0141925
846.809	0.0141674
846.887	0.0142908
846.965	0.0142995
847.043	0.0141871
847.121	0.0142286
847.200	0.0142268
847.278	0.0142756
847.356	0.0142742
847.434	0.0143697
847.512	0.0142150
847.590	0.0142313
847.668	0.0144778
847.746	0.0143299
847.825	0.0142793
847.903	0.0142776
847.981	0.0144300
848.059	0.0141884
848.137	0.0141459
848.215	0.0143101
848.293	0.0142184
848.371	0.0142434
848.450	0.0142931
848.528	0.0144244
848.606	0.0140984
848.684	0.0142787
848.762	0.0141885
848.840	0.0142252
848.918	0.0142271
848.996	0.0143761
849.075	0.0141689
849.153	0.0142703
849.231	0.0142964
849.309	0.0141935
849.387	0.0141866
849.465	0.0141965
849.543	0.0143169
849.621	0.0143311
849.700	0.0142757
849.778	0.0141880
849.856	0.0141444
849.934	0.0142198
850.012	0.0142526
850.090	0.0142989
850.168	0.0142547
850.246	0.0140759
850.325	0.0141537
850.403	0.0141593
850.481	0.0142419
850.559	0.0142940
850.637	0.0142640
850.715	0.0142562
850.793	0.0141559
850.871	0.0143570
850.950	0.0142278
851.028	0.0142998
851.106	0.0144097
851.184	0.0143207
851.262	0.0143736
851.340	0.0142114
851.418	0.0143104
851.496	0.0142975
851.575	0.0144474
851.653	0.0143227
851.731	0.0142439
851.809	0.0142204
851.887	0.0142434
851.965	0.0141930
852.043	0.0143335
852.121	0.0143331
852.200	0.0142247
852.278	0.0143369
852.356	0.0142893
852.434	0.0142852
852.512	0.0141695
852.590	0.0143284
852.668	0.0143388
852.746	0.0142345
852.825	0.0142051
852.903	0.0142757
852.981	0.0143487
853.059	0.0143822
853.137	0.0141575
853.215	0.0142230
853.293	0.0142593
853.371	0.0142067
853.450	0.0143128
853.528	0.0141501
853.606	0.0142075
853.684	0.0142341
853.762	0.0143395
853.840	0.0142829
853.918	0.0141931
853.996	0.0142236
854.075	0.0141434
854.153	0.0142021
854.231	0.0141708
854.309	0.0143982
854.387	0.0143112
854.465	0.0141919
854.543	0.0142423
854.621	0.0143706
854.700	0.0142651
854.778	0.0142216
854.856	0.0142116
854.934	0.0143179
855.012	0.0141565
855.090	0.0142097
855.168	0.0142082
855.246	0.0142172
855.325	0.0142423
855.403	0.0143027
855.481	0.0141830
855.559	0.0141964
855.637	0.0142015
855.715	0.0141513
855.793	0.0142008
855.871	0.0142722
855.950	0.0142803
856.028	0.0142694
856.106	0.0143819
856.184	0.0142522
856.262	0.0141982
856.340	0.0142169
856.418	0.0142977
856.496	0.0142133
856.575	0.0141895
856.653	0.0141977
856.731	0.0142560
856.809	0.0142434
856.887	0.0141888
856.965	0.0142294
857.043	0.0144338
857.121	0.0143514
857.200	0.0142289
857.278	0.0142864
857.356	0.0142336
857.434	0.0142999
857.512	0.0142697
857.590	0.0142667
857.668	0.0144430
857.746	0.0142798
857.825	0.0142657
857.903	0.0143247
857.981	0.0142542
858.059	0.0141599
858.137	0.0143270
858.215	0.0143384
858.293	0.0143826
858.371	0.0141919
858.450	0.0141461
858.528	0.0144410
858.606	0.0144088
858.684	0.0142800
858.762	0.0143446
858.840	0.0143346
858.918	0.0142948
858.996	0.0144160
859.075	0.0143894
859.153	0.0142605
859.231	0.0143222
859.309	0.0143473
859.387	0.0142715
859.465	0.0142836
859.543	0.0141973
859.621	0.0143300
859.700	0.0142931
859.778	0.0143927
859.856	0.0143890
859.934	0.0142410
860.012	0.0142078
860.090	0.0142431
860.168	0.0142979
860.246	0.0143597
860.325	0.0142548
860.403	0.0143381
860.481	0.0142962
860.559	0.0142016
860.637	0.0143654
860.715	0.0142134
860.793	0.0142964
860.871	0.0144358
860.950	0.0143079
861.028	0.0143079
861.106	0.0141876
861.184	0.0142043
861.262	0.0143733
861.340	0.0142996
861.418	0.0142210
861.496	0.0141722
861.575	0.0142494
861.653	0.0143056
861.731	0.0144081
861.809	0.0143510
861.887	0.0143040
861.965	0.0143507
862.043	0.0142783
862.121	0.0143964
862.200	0.0142536
862.278	0.0142905
862.356	0.0142604
862.434	0.0143333
862.512	0.0143980
862.590	0.0142943
862.668	0.0141944
862.746	0.0142059
862.825	0.0142365
862.903	0.0143468
862.981	0.0142470
863.059	0.0141247
863.137	0.0142271
863.215	0.0141909
863.293	0.0140691
863.371	0.0142726
863.450	0.0142096
863.528	0.0143218
863.606	0.0141133
863.684	0.0142896
863.762	0.0142660
863.840	0.0142774
863.918	0.0141608
863.996	0.0142567
864.075	0.0142458
864.153	0.0142000
864.231	0.0142168
864.309	0.0142813
864.387	0.0142602
864.465	0.0142367
864.543	0.0142622
864.621	0.0141525
864.700	0.0142268
864.778	0.0142376
864.856	0.0142176
864.934	0.0141465
865.012	0.0140936
865.090	0.0141888
865.168	0.0141136
865.246	0.0142652
865.325	0.0142265
865.403	0.0141742
865.481	0.0141441
865.559	0.0141152
865.637	0.0141939
865.715	0.0141507
865.793	0.0142299
865.871	0.0142196
865.950	0.0142090
866.028	0.0143084
866.106	0.0141909
866.184	0.0142211
866.262	0.0142567
866.340	0.0143347
866.418	0.0141629
866.496	0.0142301
866.575	0.0144746
866.653	0.0141956
866.731	0.0143043
866.809	0.0141391
866.887	0.0142155
866.965	0.0143369
867.043	0.0143123
867.121	0.0143412
867.200	0.0144044
867.278	0.0142675
867.356	0.0142896
867.434	0.0142442
867.512	0.0143063
867.590	0.0142844
867.668	0.0141921
867.746	0.0141064
867.825	0.0140388
867.903	0.0142378
867.981	0.0141467
868.059	0.0141665
868.137	0.0141898
868.215	0.0139997
868.293	0.0141707
868.371	0.0142988
868.450	0.0142055
868.528	0.0141941
868.606	0.0142239
868.684	0.0143224
868.762	0.0142638
868.840	0.0141023
868.918	0.0141036
868.996	0.0141744
869.075	0.0142854
869.153	0.0142268
869.231	0.0140779
869.309	0.0141815
869.387	0.0142504
869.465	0.0142287
869.543	0.0142804
869.621	0.0142152
869.700	0.0142526
869.778	0.0142731
869.856	0.0141807
869.934	0.0141733
870.012	0.0143722
870.090	0.0142373
870.168	0.0142065
870.246	0.0142223
870.325	0.0142752
870.403	0.0142905
870.481	0.0143375
870.559	0.0142461
870.637	0.0143037
870.715	0.0142688
870.793	0.0142135
870.871	0.0143185
870.950	0.0142770
871.028	0.0141293
871.106	0.0141297
871.184	0.0142232
871.262	0.0142173
871.340	0.0142634
871.418	0.0142891
871.496	0.0142329
871.575	0.0142126
871.653	0.0141980
871.731	0.0142361
871.809	0.0142130
871.887	0.0143260
871.965	0.0142032
872.043	0.0142196
872.121	0.0143231
872.200	0.0142209
872.278	0.0144579
872.356	0.0143291
872.434	0.0141813
872.512	0.0142300
872.590	0.0143851
872.668	0.0142240
872.746	0.0143888
872.825	0.0143745
872.903	0.0142445
872.981	0.0142302
873.059	0.0143973
873.137	0.0143494
873.215	0.0143790
873.293	0.0143497
873.371	0.0144292
873.450	0.0143543
873.528	0.0142410
873.606	0.0143297
873.684	0.0143207
873.762	0.0143251
873.840	0.0141267
873.918	0.0141842
873.996	0.0141790
874.075	0.0142374
874.153	0.0142861
874.231	0.0143205
874.309	0.0141974
874.387	0.0143153
874.465	0.0142381
874.543	0.0141105
874.621	0.0143778
874.700	0.0142928
874.778	0.0143632
874.856	0.0142369
874.934	0.0142565
875.012	0.0144365
875.090	0.0142720
875.168	0.0143279
875.246	0.0142262
875.325	0.0143340
875.403	0.0143709
875.481	0.0143086
875.559	0.0142993
875.637	0.0143808
875.715	0.0141541
875.793	0.0143416
875.871	0.0142937
875.950	0.0142042
876.028	0.0141610
876.106	0.0144093
876.184	0.0143031
876.262	0.0142034
876.340	0.0143200
876.418	0.0141358
876.496	0.0143159
876.575	0.0142169
876.653	0.0142538
876.731	0.0143486
876.809	0.0142453
876.887	0.0143656
876.965	0.0142712
877.043	0.0142941
877.121	0.0142902
877.200	0.0141956
877.278	0.0142828
877.356	0.0143714
877.434	0.0143932
877.512	0.0141534
877.590	0.0142678
877.668	0.0143493
877.746	0.0142268
877.825	0.0142017
877.903	0.0142047
877.981	0.0142012
878.059	0.0141508
878.137	0.0142242
878.215	0.0142841
878.293	0.0142242
878.371	0.0141797
878.450	0.0142737
878.528	0.0141913
878.606	0.0142878
878.684	0.0142139
878.762	0.0142307
878.840	0.0142453
878.918	0.0141552
878.996	0.0142377
879.075	0.0142667
879.153	0.0143376
879.231	0.0143476
879.309	0.0141898
879.387	0.0142313
879.465	0.0141927
879.543	0.0143718
879.621	0.0143039
879.700	0.0143147
879.778	0.0141881
879.856	0.0142287
879.934	0.0143237
880.012	0.0143104
880.090	0.0142034
880.168	0.0142736
880.246	0.0141936
880.325	0.0143868
880.403	0.0142397
880.481	0.0142632
880.559	0.0142112
880.637	0.0143132
880.715	0.0143183
880.793	0.0142611
880.871	0.0142221
880.950	0.0144487
881.028	0.0142563
881.106	0.0144144
881.184	0.0143832
881.262	0.0143649
881.340	0.0142735
881.418	0.0141791
881.496	0.0142745
881.575	0.0143018
881.653	0.0144386
881.731	0.0142352
881.809	0.0142643
881.887	0.0143027
881.965	0.0142627
882.043	0.0143410
882.121	0.0142743
882.200	0.0142683
882.278	0.0141264
882.356	0.0143916
882.434	0.0142246
882.512	0.0143029
882.590	0.0141904
882.668	0.0142985
882.746	0.0143736
882.825	0.0143755
882.903	0.0142765
882.981	0.0142053
883.059	0.0142905
883.137	0.0143217
883.215	0.0142896
883.293	0.0143248
883.371	0.0143232
883.450	0.0143398
883.528	0.0142530
883.606	0.0142094
883.684	0.0143391
883.762	0.0143003
883.840	0.0143905
883.918	0.0142672
883.996	0.0142102
884.075	0.0142102
884.153	0.0142435
884.231	0.0143333
884.309	0.0143074
884.387	0.0142270
884.465	0.0143676
884.543	0.0142616
884.621	0.0143970
884.700	0.0143822
884.778	0.0143513
884.856	0.0143968
884.934	0.0143391
885.012	0.0143037
885.090	0.0142525
885.168	0.0143542
885.246	0.0144823
885.325	0.0143860
885.403	0.0142528
885.481	0.0143539
885.559	0.0144431
885.637	0.0142478
885.715	0.0141850
885.793	0.0143404
885.871	0.0143716
885.950	0.0142913
886.028	0.0142033
886.106	0.0142402
886.184	0.0142746
886.262	0.0141322
886.340	0.0141528
886.418	0.0142468
886.496	0.0141463
886.575	0.0142579
886.653	0.0142576
886.731	0.0141956
886.809	0.0141920
886.887	0.0142408
886.965	0.0142834
887.043	0.0142277
887.121	0.0143383
887.200	0.0143007
887.278	0.0142365
887.356	0.0142365
887.434	0.0141959
887.512	0.0141364
887.590	0.0142448
887.668	0.0141937
887.746	0.0143264
887.825	0.0142479
887.903	0.0141071
887.981	0.0142705
888.059	0.0142547
888.137	0.0142438
888.215	0.0142401
888.293	0.0141383
888.371	0.0140256
888.450	0.0141540
888.528	0.0142101
888.606	0.0142863
888.684	0.0142761
888.762	0.0142296
888.840	0.0142007
888.918	0.0142983
888.996	0.0142487
889.075	0.0142091
889.153	0.0141617
889.231	0.0141236
889.309	0.0142280
889.387	0.0142836
889.465	0.0143221
889.543	0.0144061
889.621	0.0142832
889.700	0.0141622
889.778	0.0141729
889.856	0.0142620
889.934	0.0142028
890.012	0.0141818
890.090	0.0141961
890.168	0.0142114
890.246	0.0141855
890.325	0.0142832
890.403	0.0141271
890.481	0.0141777
890.559	0.0142360
890.637	0.0142114
890.715	0.0142838
890.793	0.0141920
890.871	0.0142596
890.950	0.0142606
891.028	0.0141541
891.106	0.0141476
891.184	0.0143020
891.262	0.0142638
891.340	0.0142675
891.418	0.0142400
891.496	0.0142604
891.575	0.0143763
891.653	0.0141701
891.731	0.0141761
891.809	0.0143039
891.887	0.0142986
891.965	0.0142755
892.043	0.0142767
892.121	0.0141830
892.200	0.0141723
892.278	0.0141984
892.356	0.0142570
892.434	0.0142698
892.512	0.0141310
892.590	0.0143027
892.668	0.0141030
892.746	0.0142982
892.825	0.0141820
892.903	0.0141605
892.981	0.0143195
893.059	0.0141834
893.137	0.0143029
893.215	0.0141454
893.293	0.0143445
893.371	0.0142087
893.450	0.0142214
893.528	0.0142357
893.606	0.0143934
893.684	0.0143807
893.762	0.0142352
893.840	0.0142818
893.918	0.0141170
893.996	0.0143251
894.075	0.0143422
894.153	0.0142068
894.231	0.0142843
894.309	0.0143394
894.387	0.0143606
894.465	0.0142547
894.543	0.0142200
894.621	0.0143304
894.700	0.0143459
894.778	0.0142967
894.856	0.0142214
894.934	0.0143126
895.012	0.0142751
895.090	0.0143760
895.168	0.0143481
895.246	0.0142558
895.325	0.0142734
895.403	0.0144250
895.481	0.0144268
895.559	0.0144458
895.637	0.0142783
895.715	0.0142869
895.793	0.0143047
895.871	0.0142733
895.950	0.0143675
896.028	0.0143925
896.106	0.0143307
896.184	0.0142550
896.262	0.0142857
896.340	0.0142787
896.418	0.0142468
896.496	0.0143322
896.575	0.0144019
896.653	0.0142700
896.731	0.0142326
896.809	0.0142955
896.887	0.0143447
896.965	0.0144099
897.043	0.0142873
897.121	0.0143897
897.200	0.0142713
897.278	0.0142943
897.356	0.0143172
897.434	0.0143150
897.512	0.0143578
897.590	0.0141963
897.668	0.0142563
897.746	0.0142979
897.825	0.0143546
897.903	0.0143222
897.981	0.0143910
898.059	0.0144437
898.137	0.0142559
898.215	0.0141863
898.293	0.0142540
898.371	0.0142989
898.450	0.0143500
898.528	0.0143790
898.606	0.0142941
898.684	0.0144136
898.762	0.0143660
898.840	0.0142715
898.918	0.0141669
898.996	0.0142651
899.075	0.0142439
899.153	0.0142188
899.231	0.0143432
899.309	0.0143745
899.387	0.0142979
899.465	0.0142436
899.543	0.0142751
899.621	0.0141756
899.700	0.0142423
899.778	0.0142380
899.856	0.0143147
899.934	0.0142839
900.012	0.0142822
900.090	0.0142217
900.168	0.0141776
900.246	0.0141092
900.325	0.0143169
900.403	0.0143318
900.481	0.0142731
900.559	0.0141488
900.637	0.0142542
900.715	0.0143909
900.793	0.0142741
900.871	0.0142004
900.950	0.0144160
901.028	0.0143370
901.106	0.0142151
901.184	0.0141016
901.262	0.0142191
901.340	0.0142899
901.418	0.0141392
901.496	0.0141837
901.575	0.0142595
901.653	0.0140797
901.731	0.0141519
901.809	0.0141299
901.887	0.0142693
901.965	0.0142016
902.043	0.0142403
902.121	0.0141505
902.200	0.0140622
902.278	0.0142204
902.356	0.0142182
902.434	0.0141369
902.512	0.0141601
902.590	0.0141975
902.668	0.0141049
902.746	0.0141707
902.825	0.0142197
902.903	0.0142378
902.981	0.0141613
903.059	0.0141989
903.137	0.0143816
903.215	0.0141271
903.293	0.0141549
903.371	0.0140909
903.450	0.0141091
903.528	0.0142828
903.606	0.0141412
903.684	0.0140852
903.762	0.0140903
903.840	0.0142480
903.918	0.0140693
903.996	0.0141673
904.075	0.0142632
904.153	0.0141824
904.231	0.0140626
904.309	0.0142268
904.387	0.0142535
904.465	0.0142144
904.543	0.0140995
904.621	0.0141824
904.700	0.0142828
904.778	0.0142645
904.856	0.0142164
904.934	0.0141454
905.012	0.0142091
905.090	0.0142200
905.168	0.0142507
905.246	0.0143580
905.325	0.0142348
905.403	0.0142281
905.481	0.0142487
905.559	0.0142142
905.637	0.0142777
905.715	0.0142946
905.793	0.0141962
905.871	0.0142613
905.950	0.0142811
906.028	0.0142670
906.106	0.0142327
906.184	0.0142117
906.262	0.0142455
906.340	0.0142985
906.418	0.0143880
906.496	0.0144646
906.575	0.0143272
906.653	0.0142637
906.731	0.0142030
906.809	0.0142318
906.887	0.0142635
906.965	0.0142121
907.043	0.0141986
907.121	0.0142580
907.200	0.0142550
907.278	0.0144299
907.356	0.0142133
907.434	0.0143179
907.512	0.0142175
907.590	0.0142952
907.668	0.0142927
907.746	0.0142793
907.825	0.0144302
907.903	0.0143486
907.981	0.0143257
908.059	0.0142932
908.137	0.0144546
908.215	0.0143565
908.293	0.0142544
908.371	0.0143118
908.450	0.0143755
908.528	0.0143774
908.606	0.0142711
908.684	0.0143675
908.762	0.0142672
908.840	0.0142130
908.918	0.0143748
908.996	0.0141576
909.075	0.0140842
909.153	0.0142175
909.231	0.0143344
909.309	0.0143898
909.387	0.0142273
909.465	0.0144229
909.543	0.0144235
909.621	0.0142397
909.700	0.0143066
909.778	0.0143041
909.856	0.0142989
909.934	0.0143176
910.012	0.0143546
910.090	0.0143865
910.168	0.0143320
910.246	0.0142839
910.325	0.0142361
910.403	0.0142787
910.481	0.0142113
910.559	0.0142343
910.637	0.0141114
910.715	0.0141701
910.793	0.0143211
910.871	0.0142769
910.950	0.0143209
911.028	0.0141901
911.106	0.0141317
911.184	0.0142793
911.262	0.0142059
911.340	0.0141575
911.418	0.0142142
911.496	0.0142516
911.575	0.0143460
911.653	0.0142815
911.731	0.0140836
911.809	0.0141534
911.887	0.0142472
911.965	0.0140263
912.043	0.0141591
912.121	0.0143090
912.200	0.0142018
912.278	0.0142229
912.356	0.0142124
912.434	0.0142039
912.512	0.0142561
912.590	0.0141388
912.668	0.0143451
912.746	0.0143183
912.825	0.0143011
912.903	0.0142179
912.981	0.0143455
913.059	0.0142919
913.137	0.0142242
913.215	0.0142962
913.293	0.0142300
913.371	0.0143645
913.450	0.0142062
913.528	0.0141145
913.606	0.0141193
913.684	0.0141820
913.762	0.0141099
913.840	0.0140099
913.918	0.0142068
913.996	0.0140810
914.075	0.0142869
914.153	0.0142079
914.231	0.0143036
914.309	0.0141739
914.387	0.0140760
914.465	0.0143027
914.543	0.0141710
914.621	0.0142966
914.700	0.0142503
914.778	0.0141685
914.856	0.0141840
914.934	0.0141148
915.012	0.0142567
915.090	0.0142230
915.168	0.0141087
915.246	0.0141616
915.325	0.0142915
915.403	0.0142222
915.481	0.0141142
915.559	0.0142610
915.637	0.0141905
915.715	0.0141690
915.793	0.0141930
915.871	0.0142054
915.950	0.0140739
916.028	0.0143024
916.106	0.0142760
916.184	0.0143081
916.262	0.0143625
916.340	0.0142197
916.418	0.0144550
916.496	0.0144518
916.575	0.0143851
916.653	0.0142596
916.731	0.0142355
916.809	0.0141802
916.887	0.0143848
916.965	0.0142750
917.043	0.0143493
917.121	0.0143417
917.200	0.0141415
917.278	0.0140721
917.356	0.0143124
917.434	0.0140902
917.512	0.0142259
917.590	0.0142470
917.668	0.0142727
917.746	0.0142699
917.825	0.0143765
917.903	0.0144127
917.981	0.0143288
918.059	0.0143730
918.137	0.0144089
918.215	0.0144929
918.293	0.0142976
918.371	0.0142924
918.450	0.0143810
918.528	0.0143445
918.606	0.0142527
918.684	0.0142546
918.762	0.0143409
918.840	0.0142255
918.918	0.0143291
918.996	0.0142276
919.075	0.0142897
919.153	0.0143076
919.231	0.0142954
919.309	0.0144047
919.387	0.0143611
919.465	0.0141937
919.543	0.0143209
919.621	0.0144542
919.700	0.0144533
919.778	0.0142756
919.856	0.0143250
919.934	0.0143210
920.012	0.0143312
920.090	0.0143069
920.168	0.0143319
920.246	0.0143817
920.325	0.0143288
920.403	0.0142536
920.481	0.0143319
920.559	0.0142534
920.637	0.0142804
920.715	0.0142469
920.793	0.0143659
920.871	0.0143951
920.950	0.0143553
921.028	0.0142846
921.106	0.0142772
921.184	0.0142728
921.262	0.0141246
921.340	0.0142538
921.418	0.0143189
921.496	0.0142371
921.575	0.0143272
921.653	0.0143208
921.731	0.0143369
921.809	0.0141917
921.887	0.0142709
921.965	0.0142540
922.043	0.0143135
922.121	0.0143462
922.200	0.0141170
922.278	0.0142374
922.356	0.0143362
922.434	0.0143481
922.512	0.0141994
922.590	0.0142529
922.668	0.0142875
922.746	0.0141904
922.825	0.0143755
922.903	0.0141991
922.981	0.0141783
923.059	0.0142450
923.137	0.0141918
923.215	0.0142394
923.293	0.0141273
923.371	0.0143245
923.450	0.0142937
923.528	0.0141473
923.606	0.0142721
923.684	0.0141729
923.762	0.0142204
923.840	0.0143789
923.918	0.0141919
923.996	0.0141116
924.075	0.0142909
924.153	0.0142611
924.231	0.0142503
924.309	0.0141799
924.387	0.0143487
924.465	0.0141982
924.543	0.0142638
924.621	0.0143192
924.700	0.0142152
924.778	0.0141865
924.856	0.0141560
924.934	0.0141078
925.012	0.0141882
925.090	0.0141388
925.168	0.0141937
925.246	0.0142210
925.325	0.0140760
925.403	0.0141581
925.481	0.0142481
925.559	0.0141673
925.637	0.0142226
925.715	0.0142323
925.793	0.0142978
925.871	0.0141899
925.950	0.0142889
926.028	0.0141289
926.106	0.0143256
926.184	0.0143159
926.262	0.0142709
926.340	0.0142867
926.418	0.0143364
926.496	0.0142560
926.575	0.0143797
926.653	0.0142213
926.731	0.0143366
926.809	0.0142928
926.887	0.0142306
926.965	0.0143779
927.043	0.0144178
927.121	0.0143684
927.200	0.0143801
927.278	0.0140736
927.356	0.0142990
927.434	0.0144106
927.512	0.0142520
927.590	0.0141856
927.668	0.0142484
927.746	0.0143822
927.825	0.0142912
927.903	0.0143485
927.981	0.0141842
928.059	0.0142313
928.137	0.0142468
928.215	0.0142062
928.293	0.0141930
928.371	0.0141955
928.450	0.0140568
928.528	0.0143153
928.606	0.0143886
928.684	0.0142235
928.762	0.0142117
928.840	0.0142999
928.918	0.0142337
928.996	0.0142495
929.075	0.0143254
929.153	0.0141641
929.231	0.0143936
929.309	0.0143749
929.387	0.0140636
929.465	0.0142999
929.543	0.0143394
929.621	0.0143066
929.700	0.0142170
929.778	0.0142722
929.856	0.0142413
929.934	0.0142806
930.012	0.0143800
930.090	0.0142747
930.168	0.0142991
930.246	0.0143437
930.325	0.0142908
930.403	0.0143011
930.481	0.0141685
930.559	0.0143296
930.637	0.0142904
930.715	0.0142062
930.793	0.0142429
930.871	0.0143315
930.950	0.0143261
931.028	0.0141797
931.106	0.0143179
931.184	0.0142744
931.262	0.0143327
931.340	0.0143407
931.418	0.0143190
931.496	0.0143745
931.575	0.0143439
931.653	0.0143094
931.731	0.0143456
931.809	0.0144172
931.887	0.0142636
931.965	0.0143723
932.043	0.0144206
932.121	0.0143399
932.200	0.0142973
932.278	0.0142263
932.356	0.0142725
932.434	0.0141146
932.512	0.0140676
932.590	0.0141999
932.668	0.0142468
932.746	0.0141556
932.825	0.0142543
932.903	0.0141833
932.981	0.0142411
933.059	0.0141598
933.137	0.0140706
933.215	0.0141584
933.293	0.0142455
933.371	0.0141540
933.450	0.0141509
933.528	0.0142305
933.606	0.0143020
933.684	0.0141589
933.762	0.0141712
933.840	0.0141602
933.918	0.0141405
933.996	0.0140580
934.075	0.0143079
934.153	0.0141623
934.231	0.0141873
934.309	0.0141006
934.387	0.0142462
934.465	0.0142107
934.543	0.0141901
934.621	0.0143394
934.700	0.0142531
934.778	0.0141144
934.856	0.0141839
934.934	0.0141162
935.012	0.0142495
935.090	0.0142997
935.168	0.0142294
935.246	0.0140356
935.325	0.0142140
935.403	0.0140913
935.481	0.0141499
935.559	0.0142574
935.637	0.0141322
935.715	0.0142276
935.793	0.0142172
935.871	0.0142721
935.950	0.0142197
936.028	0.0141977
936.106	0.0142464
936.184	0.0142117
936.262	0.0142404
936.340	0.0142493
936.418	0.0143185
936.496	0.0141911
936.575	0.0144312
936.653	0.0142606
936.731	0.0141705
936.809	0.0140957
936.887	0.0142637
936.965	0.0141296
937.043	0.0142785
937.121	0.0143829
937.200	0.0142680
937.278	0.0142744
937.356	0.0144474
937.434	0.0143442
937.512	0.0142547
937.590	0.0143071
937.668	0.0142835
937.746	0.0142922
937.825	0.0143707
937.903	0.0142101
937.981	0.0141936
938.059	0.0142836
938.137	0.0143373
938.215	0.0142379
938.293	0.0142473
938.371	0.0142857
938.450	0.0142731
938.528	0.0143064
938.606	0.0142006
938.684	0.0141816
938.762	0.0142427
938.840	0.0143487
938.918	0.0142271
938.996	0.0141602
939.075	0.0141302
939.153	0.0142973
939.231	0.0142719
939.309	0.0141978
939.387	0.0142685
939.465	0.0142559
939.543	0.0142318
939.621	0.0141861
939.700	0.0142212
939.778	0.0142842
939.856	0.0141450
939.934	0.0141508
940.012	0.0142235
940.090	0.0143880
940.168	0.0142641
940.246	0.0142069
940.325	0.0143700
940.403	0.0142435
940.481	0.0143054
940.559	0.0143043
940.637	0.0143932
940.715	0.0143069
940.793	0.0144218
940.871	0.0143570
940.950	0.0143569
941.028	0.0144321
941.106	0.0144379
941.184	0.0143168
941.262	0.0143513
941.340	0.0143330
941.418	0.0144043
941.496	0.0142449
941.575	0.0142649
941.653	0.0143030
941.731	0.0142210
941.809	0.0143108
941.887	0.0143407
941.965	0.0143910
942.043	0.0144077
942.121	0.0143436
942.200	0.0144424
942.278	0.0143230
942.356	0.0142940
942.434	0.0143450
942.512	0.0144537
942.590	0.0143962
942.668	0.0142322
942.746	0.0143219
942.825	0.0142403
942.903	0.0142037
942.981	0.0142754
943.059	0.0142758
943.137	0.0144219
943.215	0.0142304
943.293	0.0142368
943.371	0.0142140
943.450	0.0143430
943.528	0.0142456
943.606	0.0142277
943.684	0.0143250
943.762	0.0141380
943.840	0.0143300
943.918	0.0142094
943.996	0.0142536
944.075	0.0142779
944.153	0.0142118
944.231	0.0142416
944.309	0.0142767
944.387	0.0142699
944.465	0.0143237
944.543	0.0142543
944.621	0.0142989
944.700	0.0142880
944.778	0.0142255
944.856	0.0143583
944.934	0.0143107
945.012	0.0143812
945.090	0.0141750
945.168	0.0143004
945.246	0.0142147
945.325	0.0143440
945.403	0.0142862
945.481	0.0143081
945.559	0.0140965
945.637	0.0143601
945.715	0.0142439
945.793	0.0141972
945.871	0.0142614
945.950	0.0143235
946.028	0.0143772
946.106	0.0143464
946.184	0.0141814
946.262	0.0142275
946.340	0.0142434
946.418	0.0143147
946.496	0.0143563
946.575	0.0141903
946.653	0.0143583
946.731	0.0142974
946.809	0.0142180
946.887	0.0141885
946.965	0.0143473
947.043	0.0142223
947.121	0.0142825
947.200	0.0142464
947.278	0.0142451
947.356	0.0141849
947.434	0.0142387
947.512	0.0141393
947.590	0.0142952
947.668	0.0142374
947.746	0.0142668
947.825	0.0142632
947.903	0.0143788
947.981	0.0143134
948.059	0.0142204
948.137	0.0142085
948.215	0.0144472
948.293	0.0142195
948.371	0.0143279
948.450	0.0143467
948.528	0.0143260
948.606	0.0144089
948.684	0.0143313
948.762	0.0142274
948.840	0.0143063
948.918	0.0143418
948.996	0.0142877
949.075	0.0143193
949.153	0.0141974
949.231	0.0141848
949.309	0.0142866
949.387	0.0143037
949.465	0.0143435
949.543	0.0142550
949.621	0.0142930
949.700	0.0142776
949.778	0.0143768
949.856	0.0142548
949.934	0.0142302
950.012	0.0142098
950.090	0.0142141
950.168	0.0142110
950.246	0.0141665
950.325	0.0143228
950.403	0.0141229
950.481	0.0143095
950.559	0.0143040
950.637	0.0142775
950.715	0.0143269
950.793	0.0141814
950.871	0.0142648
950.950	0.0143750
951.028	0.0143784
951.106	0.0143598
951.184	0.0142548
951.262	0.0143096
951.340	0.0143384
951.418	0.0144621
951.496	0.0141750
951.575	0.0143226
951.653	0.0143480
951.731	0.0143418
951.809	0.0143785
951.887	0.0144615
951.965	0.0143108
952.043	0.0143521
952.121	0.0141770
952.200	0.0142480
952.278	0.0144305
952.356	0.0143674
952.434	0.0144077
952.512	0.0144399
952.590	0.0143550
952.668	0.0144808
952.746	0.0142760
952.825	0.0144053
952.903	0.0144189
952.981	0.0143779
953.059	0.0144560
953.137	0.0144411
953.215	0.0143390
953.293	0.0144064
953.371	0.0143134
953.450	0.0143092
953.528	0.0143969
953.606	0.0143201
953.684	0.0143642
953.762	0.0143665
953.840	0.0143217
953.918	0.0143636
953.996	0.0142850
954.075	0.0142884
954.153	0.0142212
954.231	0.0143540
954.309	0.0144533
954.387	0.0143753
954.465	0.0142570
954.543	0.0143429
954.621	0.0142616
954.700	0.0142509
954.778	0.0143723
954.856	0.0142928
954.934	0.0142428
955.012	0.0143002
955.090	0.0142365
955.168	0.0142512
955.246	0.0142564
955.325	0.0143238
955.403	0.0143019
955.481	0.0143327
955.559	0.0143152
955.637	0.0142903
955.715	0.0141716
955.793	0.0143015
955.871	0.0142630
955.950	0.0141710
956.028	0.0142584
956.106	0.0142590
956.184	0.0142204
956.262	0.0142751
956.340	0.0142724
956.418	0.0141786
956.496	0.0141738
956.575	0.0142361
956.653	0.0142457
956.731	0.0142118
956.809	0.0142837
956.887	0.0143682
956.965	0.0142017
957.043	0.0142405
957.121	0.0143340
957.200	0.0143155
957.278	0.0143462
957.356	0.0141727
957.434	0.0141028
957.512	0.0142862
957.590	0.0142744
957.668	0.0143909
957.746	0.0141692
957.825	0.0141660
957.903	0.0142025
957.981	0.0143035
958.059	0.0142619
958.137	0.0141659
958.215	0.0141736
958.293	0.0142085
958.371	0.0142426
958.450	0.0142257
958.528	0.0142545
958.606	0.0141972
958.684	0.0141650
958.762	0.0140570
958.840	0.0143016
958.918	0.0141953
958.996	0.0141556
959.075	0.0142584
959.153	0.0143346
959.231	0.0143026
959.309	0.0142366
959.387	0.0142995
959.465	0.0142255
959.543	0.0142129
959.621	0.0142901
959.700	0.0142668
959.778	0.0143555
959.856	0.0143285
959.934	0.0142655
960.012	0.0143672
960.090	0.0141596
960.168	0.0141840
960.246	0.0142874
960.325	0.0142920
960.403	0.0141463
960.481	0.0142149
960.559	0.0142441
960.637	0.0142455
960.715	0.0141922
960.793	0.0142038
960.871	0.0141718
960.950	0.0142464
961.028	0.0143499
961.106	0.0142464
961.184	0.0143551
961.262	0.0143900
961.340	0.0142653
961.418	0.0142361
961.496	0.0143400
961.575	0.0142015
961.653	0.0142271
961.731	0.0142797
961.809	0.0142941
961.887	0.0142292
961.965	0.0142054
962.043	0.0142249
962.121	0.0142297
962.200	0.0142478
962.278	0.0142634
962.356	0.0144241
962.434	0.0142156
962.512	0.0142607
962.590	0.0144392
962.668	0.0143435
962.746	0.0142933
962.825	0.0142672
962.903	0.0143468
962.981	0.0142992
963.059	0.0143319
963.137	0.0144689
963.215	0.0141828
963.293	0.0143233
963.371	0.0143317
963.450	0.0142899
963.528	0.0143332
963.606	0.0143626
963.684	0.0142247
963.762	0.0141858
963.840	0.0144094
963.918	0.0144844
963.996	0.0143283
964.075	0.0142966
964.153	0.0141122
964.231	0.0142921
964.309	0.0143329
964.387	0.0142007
964.465	0.0143404
964.543	0.0144778
964.621	0.0143503
964.700	0.0143874
964.778	0.0143847
964.856	0.0143700
964.934	0.0143565
965.012	0.0143911
965.090	0.0144135
965.168	0.0143253
965.246	0.0142639
965.325	0.0142854
965.403	0.0143649
965.481	0.0144157
965.559	0.0143512
965.637	0.0143744
965.715	0.0143130
965.793	0.0141810
965.871	0.0143714
965.950	0.0144027
966.028	0.0142184
966.106	0.0142797
966.184	0.0140881
966.262	0.0141903
966.340	0.0141978
966.418	0.0144228
966.496	0.0142034
966.575	0.0142976
966.653	0.0143452
966.731	0.0142837
966.809	0.0142066
966.887	0.0142950
966.965	0.0143077
967.043	0.0141307
967.121	0.0142068
967.200	0.0143506
967.278	0.0143507
967.356	0.0142310
967.434	0.0142886
967.512	0.0141817
967.590	0.0142039
967.668	0.0142580
967.746	0.0142212
967.825	0.0143858
967.903	0.0143674
967.981	0.0143090
968.059	0.0142793
968.137	0.0142883
968.215	0.0141340
968.293	0.0142683
968.371	0.0144336
968.450	0.0145001
968.528	0.0142998
968.606	0.0142989
968.684	0.0142517
968.762	0.0142654
968.840	0.0143226
968.918	0.0142416
968.996	0.0141699
969.075	0.0142152
969.153	0.0143207
969.231	0.0143141
969.309	0.0142619
969.387	0.0142397
969.465	0.0142606
969.543	0.0144646
969.621	0.0142490
969.700	0.0144431
969.778	0.0142670
969.856	0.0144121
969.934	0.0143091
970.012	0.0142995
970.090	0.0143826
970.168	0.0144103
970.246	0.0142095
970.325	0.0142578
970.403	0.0143546
970.481	0.0142449
970.559	0.0142574
970.637	0.0142682
970.715	0.0142667
970.793	0.0143054
970.871	0.0141674
970.950	0.0143547
971.028	0.0143362
971.106	0.0142189
971.184	0.0143812
971.262	0.0142826
971.340	0.0142831
971.418	0.0144112
971.496	0.0143131
971.575	0.0142418
971.653	0.0142915
971.731	0.0142183
971.809	0.0142197
971.887	0.0142910
971.965	0.0142205
972.043	0.0142079
972.121	0.0141673
972.200	0.0141023
972.278	0.0142126
972.356	0.0142432
972.434	0.0143117
972.512	0.0141400
972.590	0.0142120
972.668	0.0143054
972.746	0.0141985
972.825	0.0142487
972.903	0.0142385
972.981	0.0143243
973.059	0.0143620
973.137	0.0141865
973.215	0.0143212
973.293	0.0143989
973.371	0.0143652
973.450	0.0143012
973.528	0.0141584
973.606	0.0142631
973.684	0.0142295
973.762	0.0142942
973.840	0.0142395
973.918	0.0141684
973.996	0.0140989
974.075	0.0142579
974.153	0.0142192
974.231	0.0143739
974.309	0.0143566
974.387	0.0144236
974.465	0.0144074
974.543	0.0141698
974.621	0.0143607
974.700	0.0143304
974.778	0.0142133
974.856	0.0143201
974.934	0.0143549
975.012	0.0142671
975.090	0.0143002
975.168	0.0143199
975.246	0.0143404
975.325	0.0143351
975.403	0.0143683
975.481	0.0143349
975.559	0.0143374
975.637	0.0142941
975.715	0.0142886
975.793	0.0142229
975.871	0.0141718
975.950	0.0144486
976.028	0.0143224
976.106	0.0143464
976.184	0.0142034
976.262	0.0143354
976.340	0.0142753
976.418	0.0143644
976.496	0.0142790
976.575	0.0142994
976.653	0.0142963
976.731	0.0142716
976.809	0.0143641
976.887	0.0144417
976.965	0.0144288
977.043	0.0143063
977.121	0.0143741
977.200	0.0142578
977.278	0.0141800
977.356	0.0142336
977.434	0.0143943
977.512	0.0143993
977.590	0.0142672
977.668	0.0141299
977.746	0.0143491
977.825	0.0143017
977.903	0.0143176
977.981	0.0142837
978.059	0.0142715
978.137	0.0143562
978.215	0.0142318
978.293	0.0142738
978.371	0.0142568
978.450	0.0142883
978.528	0.0143514
978.606	0.0141917
978.684	0.0142947
978.762	0.0141847
978.840	0.0143044
978.918	0.0142586
978.996	0.0143262
979.075	0.0142428
979.153	0.0141606
979.231	0.0143535
979.309	0.0143512
979.387	0.0141834
979.465	0.0143740
979.543	0.0143391
979.621	0.0141768
979.700	0.0143504
979.778	0.0143518
979.856	0.0143250
979.934	0.0141067
980.012	0.0144466
980.090	0.0142913
980.168	0.0143374
980.246	0.0144047
980.325	0.0142527
980.403	0.0142765
980.481	0.0144155
980.559	0.0142686
980.637	0.0141888
980.715	0.0142794
980.793	0.0142365
980.871	0.0142363
980.950	0.0143917
981.028	0.0143934
981.106	0.0142250
981.184	0.0142024
981.262	0.0143243
981.340	0.0142501
981.418	0.0141991
981.496	0.0142380
981.575	0.0143022
981.653	0.0142431
981.731	0.0141456
981.809	0.0142220
981.887	0.0142132
981.965	0.0142054
982.043	0.0143185
982.121	0.0142097
982.200	0.0143272
982.278	0.0142648
982.356	0.0141810
982.434	0.0142449
982.512	0.0142103
982.590	0.0142487
982.668	0.0144106
982.746	0.0142439
982.825	0.0142904
982.903	0.0141378
982.981	0.0142017
983.059	0.0142937
983.137	0.0142409
983.215	0.0143398
983.293	0.0141619
983.371	0.0141605
983.450	0.0142895
983.528	0.0142887
983.606	0.0142726
983.684	0.0141890
983.762	0.0142776
983.840	0.0143420
983.918	0.0142860
983.996	0.0141483
984.075	0.0142506
984.153	0.0142725
984.231	0.0141481
984.309	0.0141985
984.387	0.0142550
984.465	0.0142802
984.543	0.0141824
984.621	0.0142319
984.700	0.0142816
984.778	0.0143759
984.856	0.0141014
984.934	0.0143289
985.012	0.0142532
985.090	0.0143468
985.168	0.0142504
985.246	0.0142703
985.325	0.0142530
985.403	0.0142859
985.481	0.0142922
985.559	0.0142676
985.637	0.0143707
985.715	0.0142394
985.793	0.0142635
985.871	0.0143410
985.950	0.0142917
986.028	0.0142931
986.106	0.0142120
986.184	0.0141202
986.262	0.0142378
986.340	0.0142140
986.418	0.0144590
986.496	0.0143800
986.575	0.0142834
986.653	0.0142950
986.731	0.0142877
986.809	0.0142727
986.887	0.0143093
986.965	0.0142110
987.043	0.0143169
987.121	0.0142844
987.200	0.0143168
987.278	0.0143530
987.356	0.0143424
987.434	0.0143233
987.512	0.0143159
987.590	0.0142814
987.668	0.0142339
987.746	0.0142081
987.825	0.0144055
987.903	0.0141194
987.981	0.0141975
988.059	0.0141806
988.137	0.0142378
988.215	0.0144244
988.293	0.0142552
988.371	0.0142046
988.450	0.0142792
988.528	0.0143535
988.606	0.0143352
988.684	0.0142339
988.762	0.0142238
988.840	0.0141621
988.918	0.0142783
988.996	0.0143864
989.075	0.0141299
989.153	0.0141384
989.231	0.0141664
989.309	0.0143856
989.387	0.0143143
989.465	0.0142712
989.543	0.0142395
989.621	0.0143208
989.700	0.0141620
989.778	0.0142797
989.856	0.0142394
989.934	0.0142821
990.012	0.0143688
990.090	0.0143432
990.168	0.0142919
990.246	0.0143610
990.325	0.0144057
990.403	0.0141775
990.481	0.0142795
990.559	0.0141309
990.637	0.0142637
990.715	0.0143140
990.793	0.0142375
990.871	0.0142196
990.950	0.0143043
991.028	0.0142067
991.106	0.0142481
991.184	0.0142526
991.262	0.0142030
991.340	0.0143040
991.418	0.0141492
991.496	0.0143154
991.575	0.0142924
991.653	0.0142854
991.731	0.0142808
991.809	0.0143289
991.887	0.0143200
991.965	0.0141887
992.043	0.0141537
992.121	0.0141749
992.200	0.0143877
992.278	0.0141605
992.356	0.0142661
992.434	0.0142204
992.512	0.0142978
992.590	0.0142949
992.668	0.0143695
992.746	0.0143262
992.825	0.0143225
992.903	0.0143203
992.981	0.0142728
993.059	0.0141644
993.137	0.0142657
993.215	0.0143111
993.293	0.0141515
993.371	0.0142826
993.450	0.0141787
993.528	0.0142223
993.606	0.0142550
993.684	0.0143033
993.762	0.0143322
993.840	0.0142936
993.918	0.0142298
993.996	0.0143639
994.075	0.0142977
994.153	0.0143077
994.231	0.0141749
994.309	0.0141959
994.387	0.0141552
994.465	0.0142927
994.543	0.0141862
994.621	0.0143720
994.700	0.0142402
994.778	0.0142615
994.856	0.0141312
994.934	0.0142525
995.012	0.0142762
995.090	0.0142065
995.168	0.0143355
995.246	0.0142277
995.325	0.0140880
995.403	0.0142421
995.481	0.0142783
995.559	0.0142097
995.637	0.0141290
995.715	0.0142670
995.793	0.0142410
995.871	0.0142817
995.950	0.0141583
996.028	0.0141751
996.106	0.0142574
996.184	0.0141981
996.262	0.0140919
996.340	0.0140488
996.418	0.0142879
996.496	0.0142496
996.575	0.0142107
996.653	0.0142274
996.731	0.0142078
996.809	0.0141766
996.887	0.0141975
996.965	0.0140913
997.043	0.0142570
997.121	0.0141417
997.200	0.0142749
997.278	0.0141890
997.356	0.0141578
997.434	0.0141806
997.512	0.0142724
997.590	0.0140932
997.668	0.0143274
997.746	0.0141473
997.825	0.0141575
997.903	0.0141279
997.981	0.0141652
998.059	0.0142183
998.137	0.0141895
998.215	0.0141031
998.293	0.0140619
998.371	0.0142601
998.450	0.0141893
998.528	0.0141226
998.606	0.0141240
998.684	0.0140833
998.762	0.0141078
998.840	0.0142101
998.918	0.0142303
