05/04/2022	21:37:19	Ver.	4.1	UNKNOWN
Optical Delay	678.989730	Delta X		0.078125	Sweeps	1	Scan Rate	0/0
Coordinates	Axis 1	NaN	Axis 2	NaN	Axis 3	NaN	Axis 4	NaN	Axis 5	NaN	Axis 6	0.000000
TX Power	0.000000	RX Power	0.000000

678.990	0.0144717
679.068	0.0142361
679.146	0.0143710
679.224	0.0143291
679.302	0.0143681
679.380	0.0143053
679.458	0.0143125
679.537	0.0145218
679.615	0.0144675
679.693	0.0144553
679.771	0.0144438
679.849	0.0145262
679.927	0.0145516
680.005	0.0145219
680.083	0.0145728
680.162	0.0146913
680.240	0.0146210
680.318	0.0144870
680.396	0.0143734
680.474	0.0141855
680.552	0.0142233
680.630	0.0140365
680.708	0.0139312
680.787	0.0141361
680.865	0.0140931
680.943	0.0142104
681.021	0.0144289
681.099	0.0146549
681.177	0.0147227
681.255	0.0147128
681.333	0.0148343
681.412	0.0150011
681.490	0.0149245
681.568	0.0149342
681.646	0.0147302
681.724	0.0147103
681.802	0.0144485
681.880	0.0142979
681.958	0.0142623
682.037	0.0140788
682.115	0.0141532
682.193	0.0141729
682.271	0.0141067
682.349	0.0142538
682.427	0.0143973
682.505	0.0143948
682.583	0.0144019
682.662	0.0145377
682.740	0.0145170
682.818	0.0144713
682.896	0.0145673
682.974	0.0144641
683.052	0.0143241
683.130	0.0142044
683.208	0.0141702
683.287	0.0140955
683.365	0.0140137
683.443	0.0140186
683.521	0.0141855
683.599	0.0142199
683.677	0.0143271
683.755	0.0144510
683.833	0.0148720
683.912	0.0147921
683.990	0.0148044
684.068	0.0149614
684.146	0.0150745
684.224	0.0151298
684.302	0.0152062
684.380	0.0150814
684.458	0.0150991
684.537	0.0149438
684.615	0.0148320
684.693	0.0144564
684.771	0.0143568
684.849	0.0141435
684.927	0.0140756
685.005	0.0138750
685.083	0.0139274
685.162	0.0138499
685.240	0.0137978
685.318	0.0139606
685.396	0.0141792
685.474	0.0141286
685.552	0.0141618
685.630	0.0141013
685.708	0.0140893
685.787	0.0140750
685.865	0.0140692
685.943	0.0138462
686.021	0.0140207
686.099	0.0139359
686.177	0.0140013
686.255	0.0141045
686.333	0.0141402
686.412	0.0143502
686.490	0.0145918
686.568	0.0146758
686.646	0.0146723
686.724	0.0148320
686.802	0.0149310
686.880	0.0148409
686.958	0.0151379
687.037	0.0151385
687.115	0.0153678
687.193	0.0152144
687.271	0.0152177
687.349	0.0151614
687.427	0.0150123
687.505	0.0149747
687.583	0.0147624
687.662	0.0145225
687.740	0.0142352
687.818	0.0139235
687.896	0.0139395
687.974	0.0138472
688.052	0.0136474
688.130	0.0134264
688.208	0.0136162
688.287	0.0136544
688.365	0.0136078
688.443	0.0138986
688.521	0.0139619
688.599	0.0141066
688.677	0.0142419
688.755	0.0143789
688.833	0.0144674
688.912	0.0145901
688.990	0.0144788
689.068	0.0145054
689.146	0.0145438
689.224	0.0145345
689.302	0.0144242
689.380	0.0145000
689.458	0.0142661
689.537	0.0144016
689.615	0.0144255
689.693	0.0143972
689.771	0.0143703
689.849	0.0146992
689.927	0.0147478
690.005	0.0149142
690.083	0.0151595
690.162	0.0151984
690.240	0.0154079
690.318	0.0152636
690.396	0.0152782
690.474	0.0151171
690.552	0.0147678
690.630	0.0146138
690.708	0.0143708
690.787	0.0139930
690.865	0.0137464
690.943	0.0133743
691.021	0.0134418
691.099	0.0132101
691.177	0.0132956
691.255	0.0132956
691.333	0.0134417
691.412	0.0136874
691.490	0.0139568
691.568	0.0139639
691.646	0.0142357
691.724	0.0142109
691.802	0.0145612
691.880	0.0145503
691.958	0.0144937
692.037	0.0145016
692.115	0.0143948
692.193	0.0143088
692.271	0.0141977
692.349	0.0141251
692.427	0.0140820
692.505	0.0143272
692.583	0.0144868
692.662	0.0146672
692.740	0.0148157
692.818	0.0148153
692.896	0.0152214
692.974	0.0153352
693.052	0.0154344
693.130	0.0153908
693.208	0.0155190
693.287	0.0154721
693.365	0.0153817
693.443	0.0151414
693.521	0.0150433
693.599	0.0146944
693.677	0.0146281
693.755	0.0141903
693.833	0.0139426
693.912	0.0135730
693.990	0.0137086
694.068	0.0135392
694.146	0.0134552
694.224	0.0135928
694.302	0.0135445
694.380	0.0137750
694.458	0.0138716
694.537	0.0138923
694.615	0.0141708
694.693	0.0140985
694.771	0.0143976
694.849	0.0144066
694.927	0.0145056
695.005	0.0145636
695.083	0.0146767
695.162	0.0144154
695.240	0.0143967
695.318	0.0145805
695.396	0.0142667
695.474	0.0141871
695.552	0.0140491
695.630	0.0141358
695.708	0.0140952
695.787	0.0141573
695.865	0.0142348
695.943	0.0144224
696.021	0.0143935
696.099	0.0146290
696.177	0.0148148
696.255	0.0147676
696.333	0.0148434
696.412	0.0146989
696.490	0.0147727
696.568	0.0148810
696.646	0.0149242
696.724	0.0149303
696.802	0.0149101
696.880	0.0147369
696.958	0.0148023
697.037	0.0148428
697.115	0.0147390
697.193	0.0147820
697.271	0.0146414
697.349	0.0145124
697.427	0.0146983
697.505	0.0147276
697.583	0.0145024
697.662	0.0143757
697.740	0.0143792
697.818	0.0144433
697.896	0.0142310
697.974	0.0142616
698.052	0.0143718
698.130	0.0142815
698.208	0.0141710
698.287	0.0140137
698.365	0.0138210
698.443	0.0136646
698.521	0.0136852
698.599	0.0136429
698.677	0.0136574
698.755	0.0135611
698.833	0.0137683
698.912	0.0136726
698.990	0.0137819
699.068	0.0142083
699.146	0.0143991
699.224	0.0144277
699.302	0.0147371
699.380	0.0150625
699.458	0.0152195
699.537	0.0153370
699.615	0.0153148
699.693	0.0154868
699.771	0.0154933
699.849	0.0153017
699.927	0.0151860
700.005	0.0152000
700.083	0.0150003
700.162	0.0148017
700.240	0.0145970
700.318	0.0143842
700.396	0.0144256
700.474	0.0144682
700.552	0.0143422
700.630	0.0141673
700.708	0.0142332
700.787	0.0145906
700.865	0.0143266
700.943	0.0143356
701.021	0.0145722
701.099	0.0145712
701.177	0.0146484
701.255	0.0145720
701.333	0.0145840
701.412	0.0144319
701.490	0.0143484
701.568	0.0140346
701.646	0.0139618
701.724	0.0139115
701.802	0.0137261
701.880	0.0137174
701.958	0.0135362
702.037	0.0136053
702.115	0.0137584
702.193	0.0138799
702.271	0.0139914
702.349	0.0140448
702.427	0.0141940
702.505	0.0143452
702.583	0.0144525
702.662	0.0144258
702.740	0.0146897
702.818	0.0147598
702.896	0.0150330
702.974	0.0149987
703.052	0.0149307
703.130	0.0150716
703.208	0.0150848
703.287	0.0149075
703.365	0.0149996
703.443	0.0149236
703.521	0.0146519
703.599	0.0147672
703.677	0.0148219
703.755	0.0146788
703.833	0.0146748
703.912	0.0145746
703.990	0.0146845
704.068	0.0147578
704.146	0.0147520
704.224	0.0146787
704.302	0.0148035
704.380	0.0147618
704.458	0.0146883
704.537	0.0144257
704.615	0.0144441
704.693	0.0142206
704.771	0.0141840
704.849	0.0140051
704.927	0.0140012
705.005	0.0139555
705.083	0.0137772
705.162	0.0137708
705.240	0.0138089
705.318	0.0138738
705.396	0.0138463
705.474	0.0140063
705.552	0.0141482
705.630	0.0142352
705.708	0.0143130
705.787	0.0144594
705.865	0.0145015
705.943	0.0146220
706.021	0.0145831
706.099	0.0145264
706.177	0.0146048
706.255	0.0147018
706.333	0.0145130
706.412	0.0145737
706.490	0.0146501
706.568	0.0145959
706.646	0.0145415
706.724	0.0147681
706.802	0.0147839
706.880	0.0146618
706.958	0.0147138
707.037	0.0149135
707.115	0.0148846
707.193	0.0148253
707.271	0.0148509
707.349	0.0146561
707.427	0.0145567
707.505	0.0146316
707.583	0.0145593
707.662	0.0147260
707.740	0.0143532
707.818	0.0144377
707.896	0.0142818
707.974	0.0142548
708.052	0.0141399
708.130	0.0141164
708.208	0.0140867
708.287	0.0139953
708.365	0.0140130
708.443	0.0141965
708.521	0.0141634
708.599	0.0140969
708.677	0.0142261
708.755	0.0142358
708.833	0.0143407
708.912	0.0142142
708.990	0.0144102
709.068	0.0142813
709.146	0.0143993
709.224	0.0144318
709.302	0.0144777
709.380	0.0146790
709.458	0.0145386
709.537	0.0145187
709.615	0.0144761
709.693	0.0145583
709.771	0.0145605
709.849	0.0145253
709.927	0.0145740
710.005	0.0143522
710.083	0.0145524
710.162	0.0143182
710.240	0.0143005
710.318	0.0143094
710.396	0.0142663
710.474	0.0141248
710.552	0.0140854
710.630	0.0142962
710.708	0.0142039
710.787	0.0141447
710.865	0.0141487
710.943	0.0144291
711.021	0.0145619
711.099	0.0144198
711.177	0.0146669
711.255	0.0147348
711.333	0.0147334
711.412	0.0148160
711.490	0.0148296
711.568	0.0148096
711.646	0.0148860
711.724	0.0148699
711.802	0.0146880
711.880	0.0147557
711.958	0.0146292
712.037	0.0147126
712.115	0.0144865
712.193	0.0143153
712.271	0.0142998
712.349	0.0141749
712.427	0.0141412
712.505	0.0141969
712.583	0.0140417
712.662	0.0140604
712.740	0.0140030
712.818	0.0139485
712.896	0.0139780
712.974	0.0139887
713.052	0.0139949
713.130	0.0141752
713.208	0.0140560
713.287	0.0142578
713.365	0.0143266
713.443	0.0143257
713.521	0.0144003
713.599	0.0144485
713.677	0.0146682
713.755	0.0145885
713.833	0.0146910
713.912	0.0145353
713.990	0.0147684
714.068	0.0147611
714.146	0.0147663
714.224	0.0148644
714.302	0.0149472
714.380	0.0149733
714.458	0.0148779
714.537	0.0147439
714.615	0.0147114
714.693	0.0146845
714.771	0.0147364
714.849	0.0145162
714.927	0.0144254
715.005	0.0143153
715.083	0.0143447
715.162	0.0141399
715.240	0.0141443
715.318	0.0139284
715.396	0.0139192
715.474	0.0138625
715.552	0.0139030
715.630	0.0138704
715.708	0.0138583
715.787	0.0139590
715.865	0.0139887
715.943	0.0139841
716.021	0.0140658
716.099	0.0140581
716.177	0.0142571
716.255	0.0143090
716.333	0.0144450
716.412	0.0146498
716.490	0.0144533
716.568	0.0146322
716.646	0.0146068
716.724	0.0146440
716.802	0.0145798
716.880	0.0147083
716.958	0.0146745
717.037	0.0145002
717.115	0.0145449
717.193	0.0146710
717.271	0.0147474
717.349	0.0145750
717.427	0.0143867
717.505	0.0144971
717.583	0.0144580
717.662	0.0143449
717.740	0.0143054
717.818	0.0143005
717.896	0.0143226
717.974	0.0144094
718.052	0.0144449
718.130	0.0143785
718.208	0.0144167
718.287	0.0142932
718.365	0.0145609
718.443	0.0144715
718.521	0.0145116
718.599	0.0145385
718.677	0.0145161
718.755	0.0145514
718.833	0.0145178
718.912	0.0144270
718.990	0.0144979
719.068	0.0145090
719.146	0.0143792
719.224	0.0145282
719.302	0.0144035
719.380	0.0143952
719.458	0.0143330
719.537	0.0144053
719.615	0.0143460
719.693	0.0144836
719.771	0.0146179
719.849	0.0143442
719.927	0.0143724
720.005	0.0145159
720.083	0.0145699
720.162	0.0144680
720.240	0.0143841
720.318	0.0142709
720.396	0.0143073
720.474	0.0144022
720.552	0.0144448
720.630	0.0142366
720.708	0.0143024
720.787	0.0142663
720.865	0.0144250
720.943	0.0145471
721.021	0.0144599
721.099	0.0146194
721.177	0.0145815
721.255	0.0146739
721.333	0.0147983
721.412	0.0148437
721.490	0.0147342
721.568	0.0147699
721.646	0.0147783
721.724	0.0147688
721.802	0.0148128
721.880	0.0146558
721.958	0.0145714
722.037	0.0144511
722.115	0.0143620
722.193	0.0143210
722.271	0.0141084
722.349	0.0141448
722.427	0.0142020
722.505	0.0141051
722.583	0.0141229
722.662	0.0140881
722.740	0.0141908
722.818	0.0140961
722.896	0.0142651
722.974	0.0144832
723.052	0.0144803
723.130	0.0144299
723.208	0.0145829
723.287	0.0145793
723.365	0.0146691
723.443	0.0144730
723.521	0.0145420
723.599	0.0144341
723.677	0.0144926
723.755	0.0144711
723.833	0.0145137
723.912	0.0144912
723.990	0.0145112
724.068	0.0146174
724.146	0.0145844
724.224	0.0144329
724.302	0.0145567
724.380	0.0145562
724.458	0.0146550
724.537	0.0146540
724.615	0.0144759
724.693	0.0144266
724.771	0.0145297
724.849	0.0143855
724.927	0.0142862
725.005	0.0143377
725.083	0.0143571
725.162	0.0142049
725.240	0.0141833
725.318	0.0142336
725.396	0.0144459
725.474	0.0143497
725.552	0.0143561
725.630	0.0144920
725.708	0.0145742
725.787	0.0145658
725.865	0.0146047
725.943	0.0146961
726.021	0.0147485
726.099	0.0145889
726.177	0.0144958
726.255	0.0145959
726.333	0.0144576
726.412	0.0144308
726.490	0.0144181
726.568	0.0143140
726.646	0.0141797
726.724	0.0141931
726.802	0.0141519
726.880	0.0140872
726.958	0.0141222
727.037	0.0140637
727.115	0.0140881
727.193	0.0141952
727.271	0.0142640
727.349	0.0143832
727.427	0.0142995
727.505	0.0143909
727.583	0.0144925
727.662	0.0145101
727.740	0.0145368
727.818	0.0145674
727.896	0.0145161
727.974	0.0145515
728.052	0.0146546
728.130	0.0146907
728.208	0.0147511
728.287	0.0146208
728.365	0.0148116
728.443	0.0147438
728.521	0.0148398
728.599	0.0147037
728.677	0.0148208
728.755	0.0146773
728.833	0.0146393
728.912	0.0143758
728.990	0.0144588
729.068	0.0144033
729.146	0.0144740
729.224	0.0144171
729.302	0.0143137
729.380	0.0142554
729.458	0.0142229
729.537	0.0139998
729.615	0.0140917
729.693	0.0139825
729.771	0.0141827
729.849	0.0142110
729.927	0.0141718
730.005	0.0141876
730.083	0.0142787
730.162	0.0144748
730.240	0.0143671
730.318	0.0144810
730.396	0.0145686
730.474	0.0146103
730.552	0.0146935
730.630	0.0147157
730.708	0.0147853
730.787	0.0146040
730.865	0.0146719
730.943	0.0145879
731.021	0.0144109
731.099	0.0144848
731.177	0.0145911
731.255	0.0145277
731.333	0.0144010
731.412	0.0142990
731.490	0.0144011
731.568	0.0142608
731.646	0.0142186
731.724	0.0143163
731.802	0.0143704
731.880	0.0143584
731.958	0.0142587
732.037	0.0144852
732.115	0.0144704
732.193	0.0144535
732.271	0.0143079
732.349	0.0143774
732.427	0.0144553
732.505	0.0144405
732.583	0.0143799
732.662	0.0144886
732.740	0.0144682
732.818	0.0145826
732.896	0.0145351
732.974	0.0144246
733.052	0.0144081
733.130	0.0144485
733.208	0.0144929
733.287	0.0144771
733.365	0.0144395
733.443	0.0144904
733.521	0.0144775
733.599	0.0145202
733.677	0.0144814
733.755	0.0143731
733.833	0.0143817
733.912	0.0142162
733.990	0.0143347
734.068	0.0144237
734.146	0.0145232
734.224	0.0143742
734.302	0.0142685
734.380	0.0143747
734.458	0.0142838
734.537	0.0143472
734.615	0.0143960
734.693	0.0144646
734.771	0.0144820
734.849	0.0144859
734.927	0.0145695
735.005	0.0144856
735.083	0.0145571
735.162	0.0146461
735.240	0.0145921
735.318	0.0147541
735.396	0.0146174
735.474	0.0146173
735.552	0.0146062
735.630	0.0145369
735.708	0.0144871
735.787	0.0144240
735.865	0.0143140
735.943	0.0143990
736.021	0.0143637
736.099	0.0140977
736.177	0.0143073
736.255	0.0141545
736.333	0.0143556
736.412	0.0144356
736.490	0.0143461
736.568	0.0143105
736.646	0.0144272
736.724	0.0143263
736.802	0.0144041
736.880	0.0144316
736.958	0.0144076
737.037	0.0145058
737.115	0.0145309
737.193	0.0144794
737.271	0.0146111
737.349	0.0145158
737.427	0.0145139
737.505	0.0145575
737.583	0.0145090
737.662	0.0145097
737.740	0.0145391
737.818	0.0144516
737.896	0.0146411
737.974	0.0145474
738.052	0.0143866
738.130	0.0144051
738.208	0.0144688
738.287	0.0143710
738.365	0.0144225
738.443	0.0144516
738.521	0.0144389
738.599	0.0145379
738.677	0.0145116
738.755	0.0144759
738.833	0.0143871
738.912	0.0145494
738.990	0.0145432
739.068	0.0146188
739.146	0.0144457
739.224	0.0143436
739.302	0.0145049
739.380	0.0144368
739.458	0.0144116
739.537	0.0145393
739.615	0.0145848
739.693	0.0143858
739.771	0.0143613
739.849	0.0144344
739.927	0.0143796
740.005	0.0143079
740.083	0.0144489
740.162	0.0143851
740.240	0.0143420
740.318	0.0141948
740.396	0.0143941
740.474	0.0143026
740.552	0.0143353
740.630	0.0142078
740.708	0.0143089
740.787	0.0143167
740.865	0.0143079
740.943	0.0143472
741.021	0.0142930
741.099	0.0144227
741.177	0.0144170
741.255	0.0144161
741.333	0.0144725
741.412	0.0145448
741.490	0.0146095
741.568	0.0145685
741.646	0.0145655
741.724	0.0144609
741.802	0.0144046
741.880	0.0145692
741.958	0.0144865
742.037	0.0145007
742.115	0.0145766
742.193	0.0144505
742.271	0.0145683
742.349	0.0144623
742.427	0.0146231
742.505	0.0144675
742.583	0.0144331
742.662	0.0145462
742.740	0.0145792
742.818	0.0144070
742.896	0.0143867
742.974	0.0145312
743.052	0.0145112
743.130	0.0145136
743.208	0.0144823
743.287	0.0145449
743.365	0.0144577
743.443	0.0145031
743.521	0.0144665
743.599	0.0144679
743.677	0.0144398
743.755	0.0145499
743.833	0.0142477
743.912	0.0143067
743.990	0.0143612
744.068	0.0144652
744.146	0.0144065
744.224	0.0143397
744.302	0.0143818
744.380	0.0143854
744.458	0.0143839
744.537	0.0144071
744.615	0.0143668
744.693	0.0143089
744.771	0.0143867
744.849	0.0143824
744.927	0.0145024
745.005	0.0143691
745.083	0.0144830
745.162	0.0145187
745.240	0.0144942
745.318	0.0144800
745.396	0.0145071
745.474	0.0145469
745.552	0.0145210
745.630	0.0145670
745.708	0.0145409
745.787	0.0144048
745.865	0.0144028
745.943	0.0145130
746.021	0.0146059
746.099	0.0144072
746.177	0.0144926
746.255	0.0143115
746.333	0.0144012
746.412	0.0143813
746.490	0.0142717
746.568	0.0142997
746.646	0.0143755
746.724	0.0144458
746.802	0.0143893
746.880	0.0143295
746.958	0.0142969
747.037	0.0144142
747.115	0.0144685
747.193	0.0144256
747.271	0.0144044
747.349	0.0144142
747.427	0.0143862
747.505	0.0144324
747.583	0.0144720
747.662	0.0143866
747.740	0.0145781
747.818	0.0143385
747.896	0.0143620
747.974	0.0144955
748.052	0.0145859
748.130	0.0144547
748.208	0.0145455
748.287	0.0145015
748.365	0.0143771
748.443	0.0143156
748.521	0.0144881
748.599	0.0146099
748.677	0.0144228
748.755	0.0144070
748.833	0.0145549
748.912	0.0145085
748.990	0.0144701
749.068	0.0144305
749.146	0.0144450
749.224	0.0145277
749.302	0.0145741
749.380	0.0145527
749.458	0.0145645
749.537	0.0145078
749.615	0.0145165
749.693	0.0144704
749.771	0.0146115
749.849	0.0144727
749.927	0.0144637
750.005	0.0145905
750.083	0.0143606
750.162	0.0143926
750.240	0.0144347
750.318	0.0144631
750.396	0.0144267
750.474	0.0144694
750.552	0.0144555
750.630	0.0144098
750.708	0.0144090
750.787	0.0144447
750.865	0.0142026
750.943	0.0142850
751.021	0.0144283
751.099	0.0143836
751.177	0.0144273
751.255	0.0143681
751.333	0.0143495
751.412	0.0145057
751.490	0.0143466
751.568	0.0143871
751.646	0.0144090
751.724	0.0143864
751.802	0.0144090
751.880	0.0144195
751.958	0.0144386
752.037	0.0145507
752.115	0.0144253
752.193	0.0144907
752.271	0.0144514
752.349	0.0143944
752.427	0.0142974
752.505	0.0144444
752.583	0.0143906
752.662	0.0143939
752.740	0.0144595
752.818	0.0144003
752.896	0.0143929
752.974	0.0143663
753.052	0.0145366
753.130	0.0143493
753.208	0.0143674
753.287	0.0145382
753.365	0.0143436
753.443	0.0144872
753.521	0.0144997
753.599	0.0145261
753.677	0.0144953
753.755	0.0145151
753.833	0.0145087
753.912	0.0142862
753.990	0.0144676
754.068	0.0146171
754.146	0.0144398
754.224	0.0144896
754.302	0.0144664
754.380	0.0143100
754.458	0.0142564
754.537	0.0144872
754.615	0.0145575
754.693	0.0144537
754.771	0.0143253
754.849	0.0143884
754.927	0.0143716
755.005	0.0144272
755.083	0.0144787
755.162	0.0145429
755.240	0.0144672
755.318	0.0145220
755.396	0.0145045
755.474	0.0145585
755.552	0.0144914
755.630	0.0143839
755.708	0.0144923
755.787	0.0145015
755.865	0.0146159
755.943	0.0145520
756.021	0.0144353
756.099	0.0144810
756.177	0.0144369
756.255	0.0145398
756.333	0.0146037
756.412	0.0145896
756.490	0.0144429
756.568	0.0143217
756.646	0.0144925
756.724	0.0145470
756.802	0.0144273
756.880	0.0145081
756.958	0.0144298
757.037	0.0143478
757.115	0.0143478
757.193	0.0144299
757.271	0.0145338
757.349	0.0144407
757.427	0.0144220
757.505	0.0146774
757.583	0.0144346
757.662	0.0144423
757.740	0.0144746
757.818	0.0144850
757.896	0.0144589
757.974	0.0143811
758.052	0.0146027
758.130	0.0145915
758.208	0.0145065
758.287	0.0144324
758.365	0.0144325
758.443	0.0144756
758.521	0.0145141
758.599	0.0145646
758.677	0.0146375
758.755	0.0144257
758.833	0.0143238
758.912	0.0143266
758.990	0.0145985
759.068	0.0143305
759.146	0.0144532
759.224	0.0145638
759.302	0.0145038
759.380	0.0144676
759.458	0.0144763
759.537	0.0144537
759.615	0.0144158
759.693	0.0145278
759.771	0.0143833
759.849	0.0143592
759.927	0.0144717
760.005	0.0144297
760.083	0.0144260
760.162	0.0143928
760.240	0.0144868
760.318	0.0144588
760.396	0.0145973
760.474	0.0144646
760.552	0.0144823
760.630	0.0143030
760.708	0.0144283
760.787	0.0145818
760.865	0.0144783
760.943	0.0143577
761.021	0.0143873
761.099	0.0142909
761.177	0.0142812
761.255	0.0144180
761.333	0.0144921
761.412	0.0144894
761.490	0.0143466
761.568	0.0144989
761.646	0.0145077
761.724	0.0142472
761.802	0.0144503
761.880	0.0145466
761.958	0.0144650
762.037	0.0143517
762.115	0.0142288
762.193	0.0143546
762.271	0.0144592
762.349	0.0145404
762.427	0.0144989
762.505	0.0143401
762.583	0.0145473
762.662	0.0142810
762.740	0.0144419
762.818	0.0145031
762.896	0.0144952
762.974	0.0145850
763.052	0.0145238
763.130	0.0144053
763.208	0.0145287
763.287	0.0144537
763.365	0.0145029
763.443	0.0144406
763.521	0.0145255
763.599	0.0143962
763.677	0.0144154
763.755	0.0145438
763.833	0.0144406
763.912	0.0144699
763.990	0.0145087
764.068	0.0143878
764.146	0.0144231
764.224	0.0144598
764.302	0.0143819
764.380	0.0143765
764.458	0.0143916
764.537	0.0144853
764.615	0.0145035
764.693	0.0145385
764.771	0.0143131
764.849	0.0144005
764.927	0.0144396
765.005	0.0144335
765.083	0.0146220
765.162	0.0144070
765.240	0.0141213
765.318	0.0142758
765.396	0.0145243
765.474	0.0143993
765.552	0.0144036
765.630	0.0143800
765.708	0.0143250
765.787	0.0143418
765.865	0.0143791
765.943	0.0144705
766.021	0.0145441
766.099	0.0144702
766.177	0.0142863
766.255	0.0143717
766.333	0.0144146
766.412	0.0145379
766.490	0.0145177
766.568	0.0143994
766.646	0.0145766
766.724	0.0144006
766.802	0.0145097
766.880	0.0145634
766.958	0.0144032
767.037	0.0145159
767.115	0.0144231
767.193	0.0144131
767.271	0.0143726
767.349	0.0145024
767.427	0.0144337
767.505	0.0144270
767.583	0.0145114
767.662	0.0144443
767.740	0.0144466
767.818	0.0144205
767.896	0.0146133
767.974	0.0144209
768.052	0.0144517
768.130	0.0144352
768.208	0.0145920
768.287	0.0143958
768.365	0.0143659
768.443	0.0143113
768.521	0.0144151
768.599	0.0142882
768.677	0.0145776
768.755	0.0143811
768.833	0.0143486
768.912	0.0144122
768.990	0.0144622
769.068	0.0144756
769.146	0.0142310
769.224	0.0144292
769.302	0.0144688
769.380	0.0143765
769.458	0.0145570
769.537	0.0144231
769.615	0.0144885
769.693	0.0145537
769.771	0.0145553
769.849	0.0144508
769.927	0.0144355
770.005	0.0144823
770.083	0.0145243
770.162	0.0143558
770.240	0.0144327
770.318	0.0145103
770.396	0.0144344
770.474	0.0146473
770.552	0.0146136
770.630	0.0144318
770.708	0.0144183
770.787	0.0143917
770.865	0.0145116
770.943	0.0146395
771.021	0.0145276
771.099	0.0145846
771.177	0.0142795
771.255	0.0144651
771.333	0.0144968
771.412	0.0144909
771.490	0.0144211
771.568	0.0145020
771.646	0.0145446
771.724	0.0145055
771.802	0.0144540
771.880	0.0143973
771.958	0.0145449
772.037	0.0144362
772.115	0.0143892
772.193	0.0144577
772.271	0.0144643
772.349	0.0145433
772.427	0.0144180
772.505	0.0143706
772.583	0.0143016
772.662	0.0143987
772.740	0.0144733
772.818	0.0144568
772.896	0.0143121
772.974	0.0143557
773.052	0.0142290
773.130	0.0143968
773.208	0.0143666
773.287	0.0143753
773.365	0.0144388
773.443	0.0144637
773.521	0.0143607
773.599	0.0144794
773.677	0.0144228
773.755	0.0144109
773.833	0.0144021
773.912	0.0144572
773.990	0.0146048
774.068	0.0143622
774.146	0.0144415
774.224	0.0145033
774.302	0.0143770
774.380	0.0144404
774.458	0.0144530
774.537	0.0144670
774.615	0.0145011
774.693	0.0145422
774.771	0.0144450
774.849	0.0143841
774.927	0.0144421
775.005	0.0144843
775.083	0.0144672
775.162	0.0144403
775.240	0.0143761
775.318	0.0144122
775.396	0.0145290
775.474	0.0144793
775.552	0.0143906
775.630	0.0146024
775.708	0.0144002
775.787	0.0141939
775.865	0.0143954
775.943	0.0143288
776.021	0.0142688
776.099	0.0144742
776.177	0.0144364
776.255	0.0144089
776.333	0.0144011
776.412	0.0143737
776.490	0.0144853
776.568	0.0143262
776.646	0.0144726
776.724	0.0144524
776.802	0.0142557
776.880	0.0142697
776.958	0.0143155
777.037	0.0144444
777.115	0.0144255
777.193	0.0142675
777.271	0.0143086
777.349	0.0145585
777.427	0.0143810
777.505	0.0144373
777.583	0.0143513
777.662	0.0143164
777.740	0.0144373
777.818	0.0144229
777.896	0.0144153
777.974	0.0143399
778.052	0.0143969
778.130	0.0143745
778.208	0.0143311
778.287	0.0144235
778.365	0.0144289
778.443	0.0144100
778.521	0.0144905
778.599	0.0143761
778.677	0.0143413
778.755	0.0145113
778.833	0.0144233
778.912	0.0143042
778.990	0.0143561
779.068	0.0144956
779.146	0.0143945
779.224	0.0145520
779.302	0.0145227
779.380	0.0143919
779.458	0.0144440
779.537	0.0145908
779.615	0.0144138
779.693	0.0143761
779.771	0.0144893
779.849	0.0144341
779.927	0.0144628
780.005	0.0143969
780.083	0.0143418
780.162	0.0143986
780.240	0.0143811
780.318	0.0144730
780.396	0.0144958
780.474	0.0143381
780.552	0.0143806
780.630	0.0143327
780.708	0.0142711
780.787	0.0143634
780.865	0.0144562
780.943	0.0144293
781.021	0.0142949
781.099	0.0143283
781.177	0.0143002
781.255	0.0143298
781.333	0.0143420
781.412	0.0144106
781.490	0.0144702
781.568	0.0143879
781.646	0.0143678
781.724	0.0143676
781.802	0.0144691
781.880	0.0143815
781.958	0.0144212
782.037	0.0144810
782.115	0.0144952
782.193	0.0143988
782.271	0.0143104
782.349	0.0143680
782.427	0.0143600
782.505	0.0143534
782.583	0.0143380
782.662	0.0143786
782.740	0.0144285
782.818	0.0144192
782.896	0.0144852
782.974	0.0144606
783.052	0.0145139
783.130	0.0144224
783.208	0.0144430
783.287	0.0145486
783.365	0.0144867
783.443	0.0145792
783.521	0.0144923
783.599	0.0143960
783.677	0.0144489
783.755	0.0143925
783.833	0.0145137
783.912	0.0144157
783.990	0.0143437
784.068	0.0144794
784.146	0.0145175
784.224	0.0143909
784.302	0.0144415
784.380	0.0143834
784.458	0.0144484
784.537	0.0143944
784.615	0.0143897
784.693	0.0143256
784.771	0.0143805
784.849	0.0143006
784.927	0.0143999
785.005	0.0143678
785.083	0.0144753
785.162	0.0143885
785.240	0.0144518
785.318	0.0144334
785.396	0.0144561
785.474	0.0145599
785.552	0.0143688
785.630	0.0145814
785.708	0.0145036
785.787	0.0144280
785.865	0.0146200
785.943	0.0144561
786.021	0.0145921
786.099	0.0145339
786.177	0.0146048
786.255	0.0144572
786.333	0.0144662
786.412	0.0145101
786.490	0.0144263
786.568	0.0145177
786.646	0.0145702
786.724	0.0145768
786.802	0.0144840
786.880	0.0144503
786.958	0.0143766
787.037	0.0143919
787.115	0.0144314
787.193	0.0145078
787.271	0.0144004
787.349	0.0144095
787.427	0.0145566
787.505	0.0144952
787.583	0.0144382
787.662	0.0143637
787.740	0.0144478
787.818	0.0144106
787.896	0.0144273
787.974	0.0145232
788.052	0.0145155
788.130	0.0146391
788.208	0.0144691
788.287	0.0146230
788.365	0.0145343
788.443	0.0145473
788.521	0.0145761
788.599	0.0145830
788.677	0.0145716
788.755	0.0145357
788.833	0.0145795
788.912	0.0146511
788.990	0.0144077
789.068	0.0146043
789.146	0.0145688
789.224	0.0146600
789.302	0.0146185
789.380	0.0145276
789.458	0.0144910
789.537	0.0144572
789.615	0.0144773
789.693	0.0145619
789.771	0.0144331
789.849	0.0144234
789.927	0.0145126
790.005	0.0145254
790.083	0.0143022
790.162	0.0144244
790.240	0.0143285
790.318	0.0144077
790.396	0.0144354
790.474	0.0143400
790.552	0.0144750
790.630	0.0143987
790.708	0.0142536
790.787	0.0145010
790.865	0.0144939
790.943	0.0143848
791.021	0.0143395
791.099	0.0144433
791.177	0.0144123
791.255	0.0143752
791.333	0.0143916
791.412	0.0144596
791.490	0.0143710
791.568	0.0144298
791.646	0.0144837
791.724	0.0144074
791.802	0.0143832
791.880	0.0143440
791.958	0.0142757
792.037	0.0144634
792.115	0.0143772
792.193	0.0143331
792.271	0.0143285
792.349	0.0143357
792.427	0.0143844
792.505	0.0143122
792.583	0.0144603
792.662	0.0143990
792.740	0.0143846
792.818	0.0143187
792.896	0.0143842
792.974	0.0144557
793.052	0.0143150
793.130	0.0142253
793.208	0.0144371
793.287	0.0145585
793.365	0.0143428
793.443	0.0143017
793.521	0.0144454
793.599	0.0144685
793.677	0.0143902
793.755	0.0144269
793.833	0.0143086
793.912	0.0143654
793.990	0.0144373
794.068	0.0144331
794.146	0.0144951
794.224	0.0144057
794.302	0.0142737
794.380	0.0143153
794.458	0.0145871
794.537	0.0145220
794.615	0.0145190
794.693	0.0143393
794.771	0.0144130
794.849	0.0143700
794.927	0.0144891
795.005	0.0143822
795.083	0.0144351
795.162	0.0145657
795.240	0.0146046
795.318	0.0144596
795.396	0.0144881
795.474	0.0146442
795.552	0.0145200
795.630	0.0144714
795.708	0.0145478
795.787	0.0144591
795.865	0.0145084
795.943	0.0145464
796.021	0.0145113
796.099	0.0145480
796.177	0.0146334
796.255	0.0144987
796.333	0.0145216
796.412	0.0146545
796.490	0.0143961
796.568	0.0144738
796.646	0.0145253
796.724	0.0145091
796.802	0.0143835
796.880	0.0144895
796.958	0.0146957
797.037	0.0144711
797.115	0.0145863
797.193	0.0145528
797.271	0.0144597
797.349	0.0142353
797.427	0.0144090
797.505	0.0145126
797.583	0.0145025
797.662	0.0144632
797.740	0.0145601
797.818	0.0145557
797.896	0.0143327
797.974	0.0144249
798.052	0.0144566
798.130	0.0145168
798.208	0.0145485
798.287	0.0144215
798.365	0.0145552
798.443	0.0144764
798.521	0.0145473
798.599	0.0144534
798.677	0.0144849
798.755	0.0144408
798.833	0.0145457
798.912	0.0145245
798.990	0.0145559
799.068	0.0143842
799.146	0.0144624
799.224	0.0145374
799.302	0.0145384
799.380	0.0144529
799.458	0.0143518
799.537	0.0145522
799.615	0.0144469
799.693	0.0143584
799.771	0.0145379
799.849	0.0143611
799.927	0.0144196
800.005	0.0143259
800.083	0.0144212
800.162	0.0143504
800.240	0.0145243
800.318	0.0143689
800.396	0.0143111
800.474	0.0143786
800.552	0.0143221
800.630	0.0142592
800.708	0.0144241
800.787	0.0145060
800.865	0.0144066
800.943	0.0142084
801.021	0.0144878
801.099	0.0143987
801.177	0.0144552
801.255	0.0143923
801.333	0.0143333
801.412	0.0143964
801.490	0.0144356
801.568	0.0143600
801.646	0.0143536
801.724	0.0144626
801.802	0.0145408
801.880	0.0145073
801.958	0.0143380
802.037	0.0142274
802.115	0.0145035
802.193	0.0144731
802.271	0.0143094
802.349	0.0143581
802.427	0.0144106
802.505	0.0143052
802.583	0.0144431
802.662	0.0144698
802.740	0.0143922
802.818	0.0144827
802.896	0.0143436
802.974	0.0143879
803.052	0.0143121
803.130	0.0143453
803.208	0.0144350
803.287	0.0145019
803.365	0.0143853
803.443	0.0143557
803.521	0.0143510
803.599	0.0144901
803.677	0.0144678
803.755	0.0144753
803.833	0.0144685
803.912	0.0143363
803.990	0.0143590
804.068	0.0144358
804.146	0.0145020
804.224	0.0142732
804.302	0.0142715
804.380	0.0144557
804.458	0.0143772
804.537	0.0143207
804.615	0.0144531
804.693	0.0145011
804.771	0.0143982
804.849	0.0143734
804.927	0.0144910
805.005	0.0143727
805.083	0.0144510
805.162	0.0144120
805.240	0.0143439
805.318	0.0144458
805.396	0.0144449
805.474	0.0144621
805.552	0.0144679
805.630	0.0145145
805.708	0.0145238
805.787	0.0145409
805.865	0.0143403
805.943	0.0144944
806.021	0.0144540
806.099	0.0144587
806.177	0.0144409
806.255	0.0144821
806.333	0.0143320
806.412	0.0143317
806.490	0.0143904
806.568	0.0144919
806.646	0.0144244
806.724	0.0143774
806.802	0.0143462
806.880	0.0144679
806.958	0.0145483
807.037	0.0144160
807.115	0.0145065
807.193	0.0144268
807.271	0.0144006
807.349	0.0143226
807.427	0.0143699
807.505	0.0144957
807.583	0.0145293
807.662	0.0145006
807.740	0.0144597
807.818	0.0145238
807.896	0.0145863
807.974	0.0145741
808.052	0.0145291
808.130	0.0144267
808.208	0.0143755
808.287	0.0142861
808.365	0.0144010
808.443	0.0143688
808.521	0.0144318
808.599	0.0144989
808.677	0.0145464
808.755	0.0144374
808.833	0.0144672
808.912	0.0143951
808.990	0.0144241
809.068	0.0143717
809.146	0.0145798
809.224	0.0145935
809.302	0.0144639
809.380	0.0144814
809.458	0.0145809
809.537	0.0145003
809.615	0.0144305
809.693	0.0145879
809.771	0.0144813
809.849	0.0145385
809.927	0.0144489
810.005	0.0144406
810.083	0.0145222
810.162	0.0144476
810.240	0.0143422
810.318	0.0145174
810.396	0.0144908
810.474	0.0143544
810.552	0.0143768
810.630	0.0144553
810.708	0.0145555
810.787	0.0144205
810.865	0.0145377
810.943	0.0144476
811.021	0.0145440
811.099	0.0144536
811.177	0.0145172
811.255	0.0142925
811.333	0.0143736
811.412	0.0145020
811.490	0.0145576
811.568	0.0144844
811.646	0.0145588
811.724	0.0145460
811.802	0.0144582
811.880	0.0144334
811.958	0.0144199
812.037	0.0143593
812.115	0.0144103
812.193	0.0144419
812.271	0.0144389
812.349	0.0144543
812.427	0.0144263
812.505	0.0143330
812.583	0.0143678
812.662	0.0145126
812.740	0.0143964
812.818	0.0142872
812.896	0.0144552
812.974	0.0142525
813.052	0.0143587
813.130	0.0143878
813.208	0.0143992
813.287	0.0143388
813.365	0.0143479
813.443	0.0143761
813.521	0.0143776
813.599	0.0144814
813.677	0.0144455
813.755	0.0143413
813.833	0.0144929
813.912	0.0144967
813.990	0.0144155
814.068	0.0143354
814.146	0.0142271
814.224	0.0144212
814.302	0.0144881
814.380	0.0145404
814.458	0.0142869
814.537	0.0143947
814.615	0.0143753
814.693	0.0144472
814.771	0.0146378
814.849	0.0145267
814.927	0.0144986
815.005	0.0143235
815.083	0.0144085
815.162	0.0143065
815.240	0.0144109
815.318	0.0143526
815.396	0.0144728
815.474	0.0143772
815.552	0.0144292
815.630	0.0144820
815.708	0.0144479
815.787	0.0143762
815.865	0.0144794
815.943	0.0145436
816.021	0.0144848
816.099	0.0144836
816.177	0.0144642
816.255	0.0145753
816.333	0.0143336
816.412	0.0144782
816.490	0.0143781
816.568	0.0144225
816.646	0.0144360
816.724	0.0144945
816.802	0.0143823
816.880	0.0143664
816.958	0.0144391
817.037	0.0143220
817.115	0.0145246
817.193	0.0145569
817.271	0.0144723
817.349	0.0144505
817.427	0.0144768
817.505	0.0145214
817.583	0.0144552
817.662	0.0145570
817.740	0.0145598
817.818	0.0145181
817.896	0.0144453
817.974	0.0145887
818.052	0.0145222
818.130	0.0144859
818.208	0.0145485
818.287	0.0145985
818.365	0.0146009
818.443	0.0144150
818.521	0.0145349
818.599	0.0144756
818.677	0.0144816
818.755	0.0144600
818.833	0.0144882
818.912	0.0143581
818.990	0.0143835
819.068	0.0144263
819.146	0.0145006
819.224	0.0144563
819.302	0.0144194
819.380	0.0143825
819.458	0.0144553
819.537	0.0144967
819.615	0.0146091
819.693	0.0143511
819.771	0.0143925
819.849	0.0144782
819.927	0.0145815
820.005	0.0144424
820.083	0.0143505
820.162	0.0143848
820.240	0.0143459
820.318	0.0143403
820.396	0.0144476
820.474	0.0144453
820.552	0.0143188
820.630	0.0143790
820.708	0.0145391
820.787	0.0144418
820.865	0.0142767
820.943	0.0143945
821.021	0.0144045
821.099	0.0144299
821.177	0.0145025
821.255	0.0144805
821.333	0.0143933
821.412	0.0144579
821.490	0.0143330
821.568	0.0144131
821.646	0.0145692
821.724	0.0142831
821.802	0.0144379
821.880	0.0145760
821.958	0.0145636
822.037	0.0144061
822.115	0.0144864
822.193	0.0144554
822.271	0.0145558
822.349	0.0146169
822.427	0.0144640
822.505	0.0144383
822.583	0.0145135
822.662	0.0145361
822.740	0.0144684
822.818	0.0143826
822.896	0.0144841
822.974	0.0143477
823.052	0.0143296
823.130	0.0145890
823.208	0.0143929
823.287	0.0143441
823.365	0.0143826
823.443	0.0144227
823.521	0.0144350
823.599	0.0143922
823.677	0.0143904
823.755	0.0145053
823.833	0.0145440
823.912	0.0144211
823.990	0.0146012
824.068	0.0145369
824.146	0.0145407
824.224	0.0144569
824.302	0.0144570
824.380	0.0144874
824.458	0.0143903
824.537	0.0144384
824.615	0.0145338
824.693	0.0145374
824.771	0.0143893
824.849	0.0145067
824.927	0.0145483
825.005	0.0144150
825.083	0.0145391
825.162	0.0144491
825.240	0.0144810
825.318	0.0144396
825.396	0.0144862
825.474	0.0145030
825.552	0.0145388
825.630	0.0144571
825.708	0.0145580
825.787	0.0145095
825.865	0.0144313
825.943	0.0143578
826.021	0.0145483
826.099	0.0145407
826.177	0.0144830
826.255	0.0144205
826.333	0.0144463
826.412	0.0145828
826.490	0.0142870
826.568	0.0145891
826.646	0.0145314
826.724	0.0144959
826.802	0.0145645
826.880	0.0146052
826.958	0.0145316
827.037	0.0144533
827.115	0.0145255
827.193	0.0143169
827.271	0.0145308
827.349	0.0144840
827.427	0.0145997
827.505	0.0144986
827.583	0.0145942
827.662	0.0145277
827.740	0.0144597
827.818	0.0145941
827.896	0.0144626
827.974	0.0144302
828.052	0.0145564
828.130	0.0145204
828.208	0.0144441
828.287	0.0145403
828.365	0.0144827
828.443	0.0144010
828.521	0.0145899
828.599	0.0144177
828.677	0.0144728
828.755	0.0145432
828.833	0.0145835
828.912	0.0144093
828.990	0.0144635
829.068	0.0144409
829.146	0.0145750
829.224	0.0143083
829.302	0.0144505
829.380	0.0146420
829.458	0.0144755
829.537	0.0143947
829.615	0.0144408
829.693	0.0143830
829.771	0.0143707
829.849	0.0145074
829.927	0.0144556
830.005	0.0144237
830.083	0.0143832
830.162	0.0144395
830.240	0.0145387
830.318	0.0142904
830.396	0.0143546
830.474	0.0145760
830.552	0.0145103
830.630	0.0144521
830.708	0.0144680
830.787	0.0145758
830.865	0.0144218
830.943	0.0144428
831.021	0.0143568
831.099	0.0144180
831.177	0.0144749
831.255	0.0144839
831.333	0.0145218
831.412	0.0144566
831.490	0.0144786
831.568	0.0144395
831.646	0.0143369
831.724	0.0144253
831.802	0.0144590
831.880	0.0142844
831.958	0.0142919
832.037	0.0143899
832.115	0.0143444
832.193	0.0144566
832.271	0.0144382
832.349	0.0143092
832.427	0.0143749
832.505	0.0143446
832.583	0.0144546
832.662	0.0142695
832.740	0.0141523
832.818	0.0143311
832.896	0.0145002
832.974	0.0143389
833.052	0.0143640
833.130	0.0143414
833.208	0.0143147
833.287	0.0145486
833.365	0.0143811
833.443	0.0144147
833.521	0.0144772
833.599	0.0144164
833.677	0.0144176
833.755	0.0143559
833.833	0.0143979
833.912	0.0144614
833.990	0.0144726
834.068	0.0144588
834.146	0.0144805
834.224	0.0144386
834.302	0.0143632
834.380	0.0142719
834.458	0.0145628
834.537	0.0145004
834.615	0.0145002
834.693	0.0144656
834.771	0.0143439
834.849	0.0143322
834.927	0.0144309
835.005	0.0144860
835.083	0.0145147
835.162	0.0144088
835.240	0.0145362
835.318	0.0144759
835.396	0.0145096
835.474	0.0144839
835.552	0.0144903
835.630	0.0144708
835.708	0.0144669
835.787	0.0144264
835.865	0.0145741
835.943	0.0145572
836.021	0.0145052
836.099	0.0146178
836.177	0.0145068
836.255	0.0144289
836.333	0.0144049
836.412	0.0144003
836.490	0.0144653
836.568	0.0144302
836.646	0.0143557
836.724	0.0145026
836.802	0.0143816
836.880	0.0143708
836.958	0.0144843
837.037	0.0144294
837.115	0.0144611
837.193	0.0145175
837.271	0.0147089
837.349	0.0144231
837.427	0.0144637
837.505	0.0145113
837.583	0.0144881
837.662	0.0144180
837.740	0.0145314
837.818	0.0144440
837.896	0.0144398
837.974	0.0145491
838.052	0.0145824
838.130	0.0146046
838.208	0.0146115
838.287	0.0145094
838.365	0.0144456
838.443	0.0145164
838.521	0.0145815
838.599	0.0145097
838.677	0.0144934
838.755	0.0145443
838.833	0.0146762
838.912	0.0145120
838.990	0.0144270
839.068	0.0144389
839.146	0.0144923
839.224	0.0143539
839.302	0.0144013
839.380	0.0143524
839.458	0.0144630
839.537	0.0143590
839.615	0.0142921
839.693	0.0144301
839.771	0.0143947
839.849	0.0144769
839.927	0.0145002
840.005	0.0143952
840.083	0.0144482
840.162	0.0144019
840.240	0.0145617
840.318	0.0143641
840.396	0.0144418
840.474	0.0144605
840.552	0.0144598
840.630	0.0144362
840.708	0.0144635
840.787	0.0143992
840.865	0.0144757
840.943	0.0143075
841.021	0.0145111
841.099	0.0143857
841.177	0.0145304
841.255	0.0145068
841.333	0.0145552
841.412	0.0144305
841.490	0.0143774
841.568	0.0144237
841.646	0.0144598
841.724	0.0145179
841.802	0.0144759
841.880	0.0142876
841.958	0.0143250
842.037	0.0145480
842.115	0.0143977
842.193	0.0145737
842.271	0.0145039
842.349	0.0143852
842.427	0.0144237
842.505	0.0143650
842.583	0.0145013
842.662	0.0143798
842.740	0.0143280
842.818	0.0143478
842.896	0.0145480
842.974	0.0143499
843.052	0.0144060
843.130	0.0143292
843.208	0.0143678
843.287	0.0145134
843.365	0.0144040
843.443	0.0144204
843.521	0.0144309
843.599	0.0143616
843.677	0.0144326
843.755	0.0145564
843.833	0.0144078
843.912	0.0144028
843.990	0.0146027
844.068	0.0145351
844.146	0.0144498
844.224	0.0143460
844.302	0.0145347
844.380	0.0144543
844.458	0.0143851
844.537	0.0144054
844.615	0.0145198
844.693	0.0144830
844.771	0.0144465
844.849	0.0144807
844.927	0.0146140
845.005	0.0144494
845.083	0.0144843
845.162	0.0143886
845.240	0.0144389
845.318	0.0143679
845.396	0.0144306
845.474	0.0144599
845.552	0.0144301
845.630	0.0144956
845.708	0.0144498
845.787	0.0145338
845.865	0.0144729
845.943	0.0145134
846.021	0.0144497
846.099	0.0142252
846.177	0.0143564
846.255	0.0144920
846.333	0.0143454
846.412	0.0145135
846.490	0.0143763
846.568	0.0144914
846.646	0.0145232
846.724	0.0145349
846.802	0.0145842
846.880	0.0145222
846.958	0.0144589
847.037	0.0146140
847.115	0.0146085
847.193	0.0146349
847.271	0.0143295
847.349	0.0145387
847.427	0.0145420
847.505	0.0146024
847.583	0.0146516
847.662	0.0144713
847.740	0.0146289
847.818	0.0145898
847.896	0.0145507
847.974	0.0143994
848.052	0.0144929
848.130	0.0145090
848.208	0.0144914
848.287	0.0144709
848.365	0.0145902
848.443	0.0144612
848.521	0.0144978
848.599	0.0146674
848.677	0.0144734
848.755	0.0145862
848.833	0.0144945
848.912	0.0144534
848.990	0.0145359
849.068	0.0145174
849.146	0.0145857
849.224	0.0146172
849.302	0.0145107
849.380	0.0144666
849.458	0.0145788
849.537	0.0146057
849.615	0.0144353
849.693	0.0144843
849.771	0.0146629
849.849	0.0145155
849.927	0.0145299
850.005	0.0145366
850.083	0.0144571
850.162	0.0146076
850.240	0.0145146
850.318	0.0146329
850.396	0.0145038
850.474	0.0143414
850.552	0.0144848
850.630	0.0144354
850.708	0.0144118
850.787	0.0144633
850.865	0.0145003
850.943	0.0143459
851.021	0.0143793
851.099	0.0143688
851.177	0.0143304
851.255	0.0144030
851.333	0.0145942
851.412	0.0144366
851.490	0.0144801
851.568	0.0145888
851.646	0.0145603
851.724	0.0144311
851.802	0.0144342
851.880	0.0145129
851.958	0.0144202
852.037	0.0144302
852.115	0.0144985
852.193	0.0144588
852.271	0.0145261
852.349	0.0144279
852.427	0.0144267
852.505	0.0144942
852.583	0.0145962
852.662	0.0143486
852.740	0.0143444
852.818	0.0144731
852.896	0.0144425
852.974	0.0144320
853.052	0.0145058
853.130	0.0144798
853.208	0.0145480
853.287	0.0144534
853.365	0.0144259
853.443	0.0144984
853.521	0.0143079
853.599	0.0144729
853.677	0.0144844
853.755	0.0144663
853.833	0.0143919
853.912	0.0145267
853.990	0.0145271
854.068	0.0145373
854.146	0.0144637
854.224	0.0145177
854.302	0.0145380
854.380	0.0144362
854.458	0.0144848
854.537	0.0145794
854.615	0.0145007
854.693	0.0143906
854.771	0.0145245
854.849	0.0145183
854.927	0.0144061
855.005	0.0144534
855.083	0.0144331
855.162	0.0143759
855.240	0.0144544
855.318	0.0145453
855.396	0.0144685
855.474	0.0143890
855.552	0.0143751
855.630	0.0144398
855.708	0.0142554
855.787	0.0144736
855.865	0.0144524
855.943	0.0144182
856.021	0.0145242
856.099	0.0145029
856.177	0.0144236
856.255	0.0143723
856.333	0.0143686
856.412	0.0143485
856.490	0.0143112
856.568	0.0144226
856.646	0.0144597
856.724	0.0143586
856.802	0.0144484
856.880	0.0145422
856.958	0.0144754
857.037	0.0143983
857.115	0.0143873
857.193	0.0145003
857.271	0.0143533
857.349	0.0142623
857.427	0.0143800
857.505	0.0143505
857.583	0.0144083
857.662	0.0143692
857.740	0.0144250
857.818	0.0143719
857.896	0.0143828
857.974	0.0143999
858.052	0.0143745
858.130	0.0143354
858.208	0.0143986
858.287	0.0144123
858.365	0.0143873
858.443	0.0144720
858.521	0.0144816
858.599	0.0143571
858.677	0.0145329
858.755	0.0144058
858.833	0.0143875
858.912	0.0143829
858.990	0.0144539
859.068	0.0145554
859.146	0.0146245
859.224	0.0146086
859.302	0.0144717
859.380	0.0144194
859.458	0.0146146
859.537	0.0144771
859.615	0.0144284
859.693	0.0145246
859.771	0.0145237
859.849	0.0143282
859.927	0.0145091
860.005	0.0146546
860.083	0.0144616
860.162	0.0145135
860.240	0.0144375
860.318	0.0144481
860.396	0.0145129
860.474	0.0144793
860.552	0.0144276
860.630	0.0144561
860.708	0.0145727
860.787	0.0144363
860.865	0.0146288
860.943	0.0145605
861.021	0.0144421
861.099	0.0145490
861.177	0.0145009
861.255	0.0145074
861.333	0.0145479
861.412	0.0144438
861.490	0.0145485
861.568	0.0145221
861.646	0.0144725
861.724	0.0145247
861.802	0.0146072
861.880	0.0144333
861.958	0.0144608
862.037	0.0144939
862.115	0.0144942
862.193	0.0144084
862.271	0.0145078
862.349	0.0145961
862.427	0.0144276
862.505	0.0145123
862.583	0.0144163
862.662	0.0144716
862.740	0.0146201
862.818	0.0143931
862.896	0.0143658
862.974	0.0144254
863.052	0.0143772
863.130	0.0146020
863.208	0.0145634
863.287	0.0144476
863.365	0.0145047
863.443	0.0143571
863.521	0.0142865
863.599	0.0145052
863.677	0.0145366
863.755	0.0144392
863.833	0.0145091
863.912	0.0144125
863.990	0.0145695
864.068	0.0143538
864.146	0.0145024
864.224	0.0145257
864.302	0.0144423
864.380	0.0145362
864.458	0.0143211
864.537	0.0143509
864.615	0.0144451
864.693	0.0144479
864.771	0.0144823
864.849	0.0144328
864.927	0.0144604
865.005	0.0142875
865.083	0.0143243
865.162	0.0145183
865.240	0.0144715
865.318	0.0143732
865.396	0.0143006
865.474	0.0145285
865.552	0.0144606
865.630	0.0144360
865.708	0.0144993
865.787	0.0145972
865.865	0.0143452
865.943	0.0144420
866.021	0.0145467
866.099	0.0144445
866.177	0.0143665
866.255	0.0143330
866.333	0.0143891
866.412	0.0144749
866.490	0.0144840
866.568	0.0144569
866.646	0.0144434
866.724	0.0143152
866.802	0.0143996
866.880	0.0143592
866.958	0.0143775
867.037	0.0144767
867.115	0.0144415
867.193	0.0143253
867.271	0.0143426
867.349	0.0144917
867.427	0.0143364
867.505	0.0144035
867.583	0.0144416
867.662	0.0144669
867.740	0.0143928
867.818	0.0144352
867.896	0.0145130
867.974	0.0144890
868.052	0.0143991
868.130	0.0144293
868.208	0.0144927
868.287	0.0144690
868.365	0.0144402
868.443	0.0146073
868.521	0.0145835
868.599	0.0144447
868.677	0.0144062
868.755	0.0144485
868.833	0.0145218
868.912	0.0144168
868.990	0.0144548
869.068	0.0144758
869.146	0.0144710
869.224	0.0146295
869.302	0.0145799
869.380	0.0144189
869.458	0.0144762
869.537	0.0144276
869.615	0.0145041
869.693	0.0145195
869.771	0.0146066
869.849	0.0143845
869.927	0.0145386
870.005	0.0144544
870.083	0.0145035
870.162	0.0144447
870.240	0.0144270
870.318	0.0145926
870.396	0.0146111
870.474	0.0144505
870.552	0.0146256
870.630	0.0144959
870.708	0.0145387
870.787	0.0144672
870.865	0.0145185
870.943	0.0147146
871.021	0.0146138
871.099	0.0144830
871.177	0.0145043
871.255	0.0144298
871.333	0.0144781
871.412	0.0145874
871.490	0.0143422
871.568	0.0144427
871.646	0.0144236
871.724	0.0145110
871.802	0.0145711
871.880	0.0146090
871.958	0.0144661
872.037	0.0142901
872.115	0.0143449
872.193	0.0145008
872.271	0.0145755
872.349	0.0144925
872.427	0.0144693
872.505	0.0144689
872.583	0.0145187
872.662	0.0145740
872.740	0.0146007
872.818	0.0144883
872.896	0.0143919
872.974	0.0145599
873.052	0.0146305
873.130	0.0146111
873.208	0.0146758
873.287	0.0145815
873.365	0.0145701
873.443	0.0144857
873.521	0.0144341
873.599	0.0144566
873.677	0.0144016
873.755	0.0145350
873.833	0.0144120
873.912	0.0143070
873.990	0.0143746
874.068	0.0144116
874.146	0.0144313
874.224	0.0145017
874.302	0.0144662
874.380	0.0144172
874.458	0.0144067
874.537	0.0145739
874.615	0.0144996
874.693	0.0142876
874.771	0.0143313
874.849	0.0145527
874.927	0.0143337
875.005	0.0144282
875.083	0.0144032
875.162	0.0142725
875.240	0.0143828
875.318	0.0145484
875.396	0.0145174
875.474	0.0144723
875.552	0.0143827
875.630	0.0145000
875.708	0.0144396
875.787	0.0145409
875.865	0.0145105
875.943	0.0144466
876.021	0.0145200
876.099	0.0144707
876.177	0.0144559
876.255	0.0144443
876.333	0.0141990
876.412	0.0143671
876.490	0.0144136
876.568	0.0143192
876.646	0.0143695
876.724	0.0142499
876.802	0.0143497
876.880	0.0143674
876.958	0.0143658
877.037	0.0143580
877.115	0.0144302
877.193	0.0143391
877.271	0.0145112
877.349	0.0144318
877.427	0.0144334
877.505	0.0144186
877.583	0.0145106
877.662	0.0144774
877.740	0.0144726
877.818	0.0144135
877.896	0.0144411
877.974	0.0145104
878.052	0.0143905
878.130	0.0144102
878.208	0.0144760
878.287	0.0144807
878.365	0.0143763
878.443	0.0143734
878.521	0.0145467
878.599	0.0143855
878.677	0.0145094
878.755	0.0144873
878.833	0.0144907
878.912	0.0145349
878.990	0.0145247
879.068	0.0146216
879.146	0.0145097
879.224	0.0144071
879.302	0.0144505
879.380	0.0145016
879.458	0.0144106
879.537	0.0143571
879.615	0.0144659
879.693	0.0145044
879.771	0.0144832
879.849	0.0143555
879.927	0.0144376
880.005	0.0144563
880.083	0.0143435
880.162	0.0145145
880.240	0.0145467
880.318	0.0144704
880.396	0.0145529
880.474	0.0145076
880.552	0.0144999
880.630	0.0145412
880.708	0.0145068
880.787	0.0145306
880.865	0.0146804
880.943	0.0145737
881.021	0.0146627
881.099	0.0146544
881.177	0.0145782
881.255	0.0145232
881.333	0.0145973
881.412	0.0144910
881.490	0.0145420
881.568	0.0145694
881.646	0.0146046
881.724	0.0145019
881.802	0.0144730
881.880	0.0144054
881.958	0.0144958
882.037	0.0146401
882.115	0.0144247
882.193	0.0145029
882.271	0.0145129
882.349	0.0144946
882.427	0.0145875
882.505	0.0143765
882.583	0.0144933
882.662	0.0143774
882.740	0.0144873
882.818	0.0145179
882.896	0.0144518
882.974	0.0144360
883.052	0.0144901
883.130	0.0145663
883.208	0.0143636
883.287	0.0146249
883.365	0.0145801
883.443	0.0144584
883.521	0.0145580
883.599	0.0144094
883.677	0.0146358
883.755	0.0145095
883.833	0.0144883
883.912	0.0145628
883.990	0.0144399
884.068	0.0146420
884.146	0.0145078
884.224	0.0145321
884.302	0.0145709
884.380	0.0145664
884.458	0.0144073
884.537	0.0144596
884.615	0.0144588
884.693	0.0146908
884.771	0.0146112
884.849	0.0144815
884.927	0.0146096
885.005	0.0143597
885.083	0.0145508
885.162	0.0146348
885.240	0.0144620
885.318	0.0145824
885.396	0.0144843
885.474	0.0144584
885.552	0.0143328
885.630	0.0143592
885.708	0.0143602
885.787	0.0143928
885.865	0.0144582
885.943	0.0144402
886.021	0.0143349
886.099	0.0144363
886.177	0.0144545
886.255	0.0144034
886.333	0.0145804
886.412	0.0145481
886.490	0.0144398
886.568	0.0145343
886.646	0.0144986
886.724	0.0145990
886.802	0.0145131
886.880	0.0145011
886.958	0.0145411
887.037	0.0144371
887.115	0.0146046
887.193	0.0145535
887.271	0.0144328
887.349	0.0143365
887.427	0.0143474
887.505	0.0144886
887.583	0.0144865
887.662	0.0144327
887.740	0.0145052
887.818	0.0146728
887.896	0.0145083
887.974	0.0145517
888.052	0.0146539
888.130	0.0146952
888.208	0.0146503
888.287	0.0145045
888.365	0.0145071
888.443	0.0145715
888.521	0.0144749
888.599	0.0143646
888.677	0.0144427
888.755	0.0144684
888.833	0.0145493
888.912	0.0144456
888.990	0.0143713
889.068	0.0144507
889.146	0.0142719
889.224	0.0144459
889.302	0.0145448
889.380	0.0145504
889.458	0.0145546
889.537	0.0144118
889.615	0.0145298
889.693	0.0145599
889.771	0.0146386
889.849	0.0144514
889.927	0.0143955
890.005	0.0144408
890.083	0.0145078
890.162	0.0144707
890.240	0.0143076
890.318	0.0142049
890.396	0.0143321
890.474	0.0143250
890.552	0.0142677
890.630	0.0144119
890.708	0.0142287
890.787	0.0145375
890.865	0.0144272
890.943	0.0142966
891.021	0.0144714
891.099	0.0143832
891.177	0.0144044
891.255	0.0145869
891.333	0.0143094
891.412	0.0142829
891.490	0.0144566
891.568	0.0145097
891.646	0.0143625
891.724	0.0143382
891.802	0.0142810
891.880	0.0143961
891.958	0.0142928
892.037	0.0143167
892.115	0.0143258
892.193	0.0143967
892.271	0.0142857
892.349	0.0144003
892.427	0.0142655
892.505	0.0143430
892.583	0.0143369
892.662	0.0144286
892.740	0.0143033
892.818	0.0145132
892.896	0.0144785
892.974	0.0145275
893.052	0.0144979
893.130	0.0144617
893.208	0.0145576
893.287	0.0145599
893.365	0.0146624
893.443	0.0144751
893.521	0.0143777
893.599	0.0144756
893.677	0.0144601
893.755	0.0144058
893.833	0.0143470
893.912	0.0144891
893.990	0.0142979
894.068	0.0144501
894.146	0.0145016
894.224	0.0143875
894.302	0.0144390
894.380	0.0145023
894.458	0.0144949
894.537	0.0143629
894.615	0.0144042
894.693	0.0143848
894.771	0.0145921
894.849	0.0143958
894.927	0.0144469
895.005	0.0144292
895.083	0.0143942
895.162	0.0143478
895.240	0.0143830
895.318	0.0143661
895.396	0.0144442
895.474	0.0143657
895.552	0.0143973
895.630	0.0143144
895.708	0.0144087
895.787	0.0143904
895.865	0.0144681
895.943	0.0145049
896.021	0.0143390
896.099	0.0144715
896.177	0.0144242
896.255	0.0145168
896.333	0.0145567
896.412	0.0144048
896.490	0.0143717
896.568	0.0145061
896.646	0.0144566
896.724	0.0143848
896.802	0.0143759
896.880	0.0143603
896.958	0.0144167
897.037	0.0143121
897.115	0.0143265
897.193	0.0142968
897.271	0.0144306
897.349	0.0144084
897.427	0.0144799
897.505	0.0143877
897.583	0.0143969
897.662	0.0144464
897.740	0.0145447
897.818	0.0145608
897.896	0.0144083
897.974	0.0145401
898.052	0.0144107
898.130	0.0146069
898.208	0.0145924
898.287	0.0144185
898.365	0.0144309
898.443	0.0144751
898.521	0.0142868
898.599	0.0143512
898.677	0.0143835
898.755	0.0145184
898.833	0.0144650
898.912	0.0143573
898.990	0.0143458
899.068	0.0144248
899.146	0.0145132
899.224	0.0144606
899.302	0.0144818
899.380	0.0145823
899.458	0.0146991
899.537	0.0144817
899.615	0.0143945
899.693	0.0144785
899.771	0.0145058
899.849	0.0144808
899.927	0.0144283
900.005	0.0144860
900.083	0.0145147
900.162	0.0143845
900.240	0.0145311
900.318	0.0144643
900.396	0.0144158
900.474	0.0144544
900.552	0.0144664
900.630	0.0144343
900.708	0.0145402
900.787	0.0145940
900.865	0.0145600
900.943	0.0144132
901.021	0.0145221
901.099	0.0145190
901.177	0.0145123
901.255	0.0143537
901.333	0.0144866
901.412	0.0144339
901.490	0.0144482
901.568	0.0144396
901.646	0.0143810
901.724	0.0145177
901.802	0.0143240
901.880	0.0142209
901.958	0.0142753
902.037	0.0143085
902.115	0.0143992
902.193	0.0143974
902.271	0.0144197
902.349	0.0143995
902.427	0.0144086
902.505	0.0145979
902.583	0.0145639
902.662	0.0145083
902.740	0.0144890
902.818	0.0144492
902.896	0.0145733
902.974	0.0145414
903.052	0.0144188
903.130	0.0146298
903.208	0.0145081
903.287	0.0144815
903.365	0.0144476
903.443	0.0143824
903.521	0.0144139
903.599	0.0143841
903.677	0.0144121
903.755	0.0142950
903.833	0.0143893
903.912	0.0144196
903.990	0.0144430
904.068	0.0143135
904.146	0.0144534
904.224	0.0144188
904.302	0.0143398
904.380	0.0143800
904.458	0.0144481
904.537	0.0145203
904.615	0.0142736
904.693	0.0144854
904.771	0.0144049
904.849	0.0145046
904.927	0.0143947
905.005	0.0144032
905.083	0.0143622
905.162	0.0145894
905.240	0.0145099
905.318	0.0143401
905.396	0.0144075
905.474	0.0144719
905.552	0.0143980
905.630	0.0143608
905.708	0.0144858
905.787	0.0144549
905.865	0.0145093
905.943	0.0146102
906.021	0.0144716
906.099	0.0145251
906.177	0.0146212
906.255	0.0144225
906.333	0.0144707
906.412	0.0144196
906.490	0.0145430
906.568	0.0144659
906.646	0.0143971
906.724	0.0144047
906.802	0.0145222
906.880	0.0144579
906.958	0.0144742
907.037	0.0144930
907.115	0.0145496
907.193	0.0144134
907.271	0.0144393
907.349	0.0145105
907.427	0.0145303
907.505	0.0145007
907.583	0.0145245
907.662	0.0144909
907.740	0.0146427
907.818	0.0145582
907.896	0.0145348
907.974	0.0145370
908.052	0.0144256
908.130	0.0144866
908.208	0.0143947
908.287	0.0144205
908.365	0.0144235
908.443	0.0146252
908.521	0.0144632
908.599	0.0144588
908.677	0.0143858
908.755	0.0144714
908.833	0.0145161
908.912	0.0144314
908.990	0.0143609
909.068	0.0143466
909.146	0.0144653
909.224	0.0142796
909.302	0.0145189
909.380	0.0144044
909.458	0.0144165
909.537	0.0144175
909.615	0.0144076
909.693	0.0144883
909.771	0.0144169
909.849	0.0144881
909.927	0.0143504
910.005	0.0143967
910.083	0.0144478
910.162	0.0143681
910.240	0.0144300
910.318	0.0143362
910.396	0.0144246
910.474	0.0145155
910.552	0.0144584
910.630	0.0144482
910.708	0.0144629
910.787	0.0144288
910.865	0.0145357
910.943	0.0142097
911.021	0.0143951
911.099	0.0143684
911.177	0.0144075
911.255	0.0144318
911.333	0.0142969
911.412	0.0144059
911.490	0.0143884
911.568	0.0143525
911.646	0.0142802
911.724	0.0143358
911.802	0.0142319
911.880	0.0143917
911.958	0.0142895
912.037	0.0143213
912.115	0.0144583
912.193	0.0143548
912.271	0.0142474
912.349	0.0142617
912.427	0.0143489
912.505	0.0142324
912.583	0.0143736
912.662	0.0143852
912.740	0.0142542
912.818	0.0142999
912.896	0.0144269
912.974	0.0143452
913.052	0.0144281
913.130	0.0143282
913.208	0.0143571
913.287	0.0142896
913.365	0.0143300
913.443	0.0144304
913.521	0.0142706
913.599	0.0144365
913.677	0.0144389
913.755	0.0143192
913.833	0.0143658
913.912	0.0143196
913.990	0.0142674
914.068	0.0143060
914.146	0.0145007
914.224	0.0143736
914.302	0.0143984
914.380	0.0143293
914.458	0.0143381
914.537	0.0143355
914.615	0.0143869
914.693	0.0143446
914.771	0.0144961
914.849	0.0143733
914.927	0.0144217
915.005	0.0143251
915.083	0.0144868
915.162	0.0145605
915.240	0.0143873
915.318	0.0144361
915.396	0.0143773
915.474	0.0144581
915.552	0.0144982
915.630	0.0143955
915.708	0.0145393
915.787	0.0143623
915.865	0.0143964
915.943	0.0145750
916.021	0.0144314
916.099	0.0143984
916.177	0.0144193
916.255	0.0144384
916.333	0.0144037
916.412	0.0145249
916.490	0.0144266
916.568	0.0144764
916.646	0.0142982
916.724	0.0143800
916.802	0.0145107
916.880	0.0144316
916.958	0.0143917
917.037	0.0145367
917.115	0.0144704
917.193	0.0145041
917.271	0.0144685
917.349	0.0145315
917.427	0.0146371
917.505	0.0145207
917.583	0.0143946
917.662	0.0145598
917.740	0.0145310
917.818	0.0144731
917.896	0.0145039
917.974	0.0146252
918.052	0.0143758
918.130	0.0145112
918.208	0.0143857
918.287	0.0143788
918.365	0.0144902
918.443	0.0144512
918.521	0.0144907
918.599	0.0145107
918.677	0.0145503
918.755	0.0145545
918.833	0.0144040
918.912	0.0144851
918.990	0.0145156
919.068	0.0146450
919.146	0.0145023
919.224	0.0145144
919.302	0.0145933
919.380	0.0145789
919.458	0.0146311
919.537	0.0144761
919.615	0.0145511
919.693	0.0145593
919.771	0.0144913
919.849	0.0144838
919.927	0.0144695
920.005	0.0145190
920.083	0.0144698
920.162	0.0146028
920.240	0.0145586
920.318	0.0145529
920.396	0.0144003
920.474	0.0144709
920.552	0.0144913
920.630	0.0144508
920.708	0.0144145
920.787	0.0143646
920.865	0.0145509
920.943	0.0144994
921.021	0.0143736
921.099	0.0144022
921.177	0.0144160
921.255	0.0143660
921.333	0.0144766
921.412	0.0145151
921.490	0.0143193
921.568	0.0143600
921.646	0.0144876
921.724	0.0143792
921.802	0.0143149
921.880	0.0144096
921.958	0.0144310
922.037	0.0144466
922.115	0.0143887
922.193	0.0144081
922.271	0.0144517
922.349	0.0143160
922.427	0.0143711
922.505	0.0143659
922.583	0.0144279
922.662	0.0145687
922.740	0.0144173
922.818	0.0143114
922.896	0.0143498
922.974	0.0143913
923.052	0.0143709
923.130	0.0145082
923.208	0.0144817
923.287	0.0144299
923.365	0.0143687
923.443	0.0142654
923.521	0.0143333
923.599	0.0143893
923.677	0.0144422
923.755	0.0145071
923.833	0.0143416
923.912	0.0144165
923.990	0.0145442
924.068	0.0144587
924.146	0.0145941
924.224	0.0144070
924.302	0.0144345
924.380	0.0144051
924.458	0.0145700
924.537	0.0146086
924.615	0.0143899
924.693	0.0145309
924.771	0.0144913
924.849	0.0144942
924.927	0.0146511
925.005	0.0146207
925.083	0.0144662
925.162	0.0144713
925.240	0.0145759
925.318	0.0145828
925.396	0.0145075
925.474	0.0145319
925.552	0.0145250
925.630	0.0144921
925.708	0.0146414
925.787	0.0146957
925.865	0.0146569
925.943	0.0146504
926.021	0.0146578
926.099	0.0146504
926.177	0.0145855
926.255	0.0145104
926.333	0.0145981
926.412	0.0146715
926.490	0.0145293
926.568	0.0146207
926.646	0.0147240
926.724	0.0145002
926.802	0.0146063
926.880	0.0146099
926.958	0.0146364
927.037	0.0144889
927.115	0.0144656
927.193	0.0146047
927.271	0.0146204
927.349	0.0143907
927.427	0.0145431
927.505	0.0144847
927.583	0.0144279
927.662	0.0145161
927.740	0.0143992
927.818	0.0144147
927.896	0.0145341
927.974	0.0144825
928.052	0.0145008
928.130	0.0145254
928.208	0.0145271
928.287	0.0144657
928.365	0.0144186
928.443	0.0144611
928.521	0.0146560
928.599	0.0144914
928.677	0.0144637
928.755	0.0144412
928.833	0.0146661
928.912	0.0144833
928.990	0.0144720
929.068	0.0144865
929.146	0.0145071
929.224	0.0143076
929.302	0.0145796
929.380	0.0144514
929.458	0.0144223
929.537	0.0144957
929.615	0.0145455
929.693	0.0145125
929.771	0.0144076
929.849	0.0143736
929.927	0.0144862
930.005	0.0143307
930.083	0.0143399
930.162	0.0144110
930.240	0.0144898
930.318	0.0145259
930.396	0.0143699
930.474	0.0144178
930.552	0.0144370
930.630	0.0143074
930.708	0.0144592
930.787	0.0143813
930.865	0.0144102
930.943	0.0144009
931.021	0.0144514
931.099	0.0144085
931.177	0.0143085
931.255	0.0143945
931.333	0.0144170
931.412	0.0142886
931.490	0.0144044
931.568	0.0143852
931.646	0.0142654
931.724	0.0143897
931.802	0.0144640
931.880	0.0143358
931.958	0.0143512
932.037	0.0145370
932.115	0.0144190
932.193	0.0143359
932.271	0.0143810
932.349	0.0142871
932.427	0.0141609
932.505	0.0145657
932.583	0.0143922
932.662	0.0143518
932.740	0.0144514
932.818	0.0145072
932.896	0.0144099
932.974	0.0142688
933.052	0.0144952
933.130	0.0145313
933.208	0.0144849
933.287	0.0143439
933.365	0.0142355
933.443	0.0144609
933.521	0.0143535
933.599	0.0142871
933.677	0.0143758
933.755	0.0142953
933.833	0.0143334
933.912	0.0144736
933.990	0.0144397
934.068	0.0143590
934.146	0.0143846
934.224	0.0143607
934.302	0.0144153
934.380	0.0143655
934.458	0.0142207
934.537	0.0144123
934.615	0.0143689
934.693	0.0142873
934.771	0.0143845
934.849	0.0142800
934.927	0.0144403
935.005	0.0143945
935.083	0.0144592
935.162	0.0145238
935.240	0.0143768
935.318	0.0143764
935.396	0.0143319
935.474	0.0143192
935.552	0.0144097
935.630	0.0145250
935.708	0.0144753
935.787	0.0144196
935.865	0.0144633
935.943	0.0144608
936.021	0.0144115
936.099	0.0143733
936.177	0.0145265
936.255	0.0144339
936.333	0.0144828
936.412	0.0144448
936.490	0.0144419
936.568	0.0144286
936.646	0.0144161
936.724	0.0144118
936.802	0.0142924
936.880	0.0144382
936.958	0.0144025
937.037	0.0144054
937.115	0.0145325
937.193	0.0144300
937.271	0.0145593
937.349	0.0146026
937.427	0.0143545
937.505	0.0144798
937.583	0.0143990
937.662	0.0143957
937.740	0.0144188
937.818	0.0144999
937.896	0.0145016
937.974	0.0144434
938.052	0.0143513
938.130	0.0144791
938.208	0.0146010
938.287	0.0145247
938.365	0.0144434
938.443	0.0144279
938.521	0.0144051
938.599	0.0141892
938.677	0.0141578
938.755	0.0144639
938.833	0.0145399
938.912	0.0143605
938.990	0.0143667
939.068	0.0144317
939.146	0.0143796
939.224	0.0145356
939.302	0.0145074
939.380	0.0142894
939.458	0.0145149
939.537	0.0145401
939.615	0.0143345
939.693	0.0143755
939.771	0.0145116
939.849	0.0145135
939.927	0.0144348
940.005	0.0144180
940.083	0.0145277
940.162	0.0145391
940.240	0.0144762
940.318	0.0144978
940.396	0.0144505
940.474	0.0144604
940.552	0.0144536
940.630	0.0145406
940.708	0.0144227
940.787	0.0144034
940.865	0.0145354
940.943	0.0144391
941.021	0.0145268
941.099	0.0145177
941.177	0.0144762
941.255	0.0145005
941.333	0.0144386
941.412	0.0144787
941.490	0.0143966
941.568	0.0144019
941.646	0.0144821
941.724	0.0145009
941.802	0.0143509
941.880	0.0144149
941.958	0.0143734
942.037	0.0143671
942.115	0.0143904
942.193	0.0144409
942.271	0.0143296
942.349	0.0144604
942.427	0.0145186
942.505	0.0144288
942.583	0.0144532
942.662	0.0144462
942.740	0.0145424
942.818	0.0145835
942.896	0.0145551
942.974	0.0146466
943.052	0.0145158
943.130	0.0144055
943.208	0.0145311
943.287	0.0146842
943.365	0.0145525
943.443	0.0144400
943.521	0.0145602
943.599	0.0145882
943.677	0.0145326
943.755	0.0146313
943.833	0.0146561
943.912	0.0145418
943.990	0.0146040
944.068	0.0145488
944.146	0.0146191
944.224	0.0146954
944.302	0.0145734
944.380	0.0146413
944.458	0.0145485
944.537	0.0145008
944.615	0.0146120
944.693	0.0145870
944.771	0.0146576
944.849	0.0144643
944.927	0.0145282
945.005	0.0144894
945.083	0.0144515
945.162	0.0145000
945.240	0.0145537
945.318	0.0143536
945.396	0.0144561
945.474	0.0144733
945.552	0.0144807
945.630	0.0145070
945.708	0.0144083
945.787	0.0144880
945.865	0.0145160
945.943	0.0146178
946.021	0.0144547
946.099	0.0144672
946.177	0.0145455
946.255	0.0144867
946.333	0.0143897
946.412	0.0144646
946.490	0.0145357
946.568	0.0145942
946.646	0.0144952
946.724	0.0144920
946.802	0.0144785
946.880	0.0144974
946.958	0.0145088
947.037	0.0144929
947.115	0.0145133
947.193	0.0146290
947.271	0.0147397
947.349	0.0146187
947.427	0.0144499
947.505	0.0145454
947.583	0.0146155
947.662	0.0145249
947.740	0.0143999
947.818	0.0144798
947.896	0.0144868
947.974	0.0145969
948.052	0.0144761
948.130	0.0145541
948.208	0.0145454
948.287	0.0145892
948.365	0.0146011
948.443	0.0146010
948.521	0.0145611
948.599	0.0144800
948.677	0.0145702
948.755	0.0145301
948.833	0.0144989
948.912	0.0145133
948.990	0.0144176
949.068	0.0145272
949.146	0.0144627
949.224	0.0145467
949.302	0.0145125
949.380	0.0144041
949.458	0.0144759
949.537	0.0145834
949.615	0.0145113
949.693	0.0144205
949.771	0.0145132
949.849	0.0145935
949.927	0.0145908
950.005	0.0146687
950.083	0.0145608
950.162	0.0144765
950.240	0.0145014
950.318	0.0146758
950.396	0.0145437
950.474	0.0144637
950.552	0.0146631
950.630	0.0145517
950.708	0.0144924
950.787	0.0144265
950.865	0.0146049
950.943	0.0145182
951.021	0.0144727
951.099	0.0145792
951.177	0.0146030
951.255	0.0145770
951.333	0.0144689
951.412	0.0144577
951.490	0.0144941
951.568	0.0145090
951.646	0.0144753
951.724	0.0145164
951.802	0.0144922
951.880	0.0144372
951.958	0.0142911
952.037	0.0144345
952.115	0.0144771
952.193	0.0143420
952.271	0.0143059
952.349	0.0143796
952.427	0.0145356
952.505	0.0146010
952.583	0.0143574
952.662	0.0145623
952.740	0.0145518
952.818	0.0143866
952.896	0.0144185
952.974	0.0144760
953.052	0.0144740
953.130	0.0144443
953.208	0.0143307
953.287	0.0144942
953.365	0.0145370
953.443	0.0145688
953.521	0.0143683
953.599	0.0145019
953.677	0.0144985
953.755	0.0145010
953.833	0.0144671
953.912	0.0143754
953.990	0.0145652
954.068	0.0144167
954.146	0.0143446
954.224	0.0144919
954.302	0.0146458
954.380	0.0144435
954.458	0.0144113
954.537	0.0144156
954.615	0.0145174
954.693	0.0144654
954.771	0.0143747
954.849	0.0143655
954.927	0.0143134
955.005	0.0145765
955.083	0.0144463
955.162	0.0145321
955.240	0.0144898
955.318	0.0142696
955.396	0.0143465
955.474	0.0143336
955.552	0.0143647
955.630	0.0141828
955.708	0.0143435
955.787	0.0144897
955.865	0.0144827
955.943	0.0143872
956.021	0.0144138
956.099	0.0143184
956.177	0.0143033
956.255	0.0144161
956.333	0.0144248
956.412	0.0142619
956.490	0.0144005
956.568	0.0144560
956.646	0.0144599
956.724	0.0143644
956.802	0.0145238
956.880	0.0144151
956.958	0.0145195
957.037	0.0144501
957.115	0.0143233
957.193	0.0144710
957.271	0.0144571
957.349	0.0143595
957.427	0.0143062
957.505	0.0144559
957.583	0.0143803
957.662	0.0143990
957.740	0.0143807
957.818	0.0144364
957.896	0.0144907
957.974	0.0143764
958.052	0.0143634
958.130	0.0145357
958.208	0.0143781
958.287	0.0143371
958.365	0.0141895
958.443	0.0143716
958.521	0.0144724
958.599	0.0144257
958.677	0.0143265
958.755	0.0142680
958.833	0.0144033
958.912	0.0143468
958.990	0.0143875
959.068	0.0144775
959.146	0.0144724
959.224	0.0143928
959.302	0.0145606
959.380	0.0143459
959.458	0.0143934
959.537	0.0143856
959.615	0.0144067
959.693	0.0144501
959.771	0.0144277
959.849	0.0144697
959.927	0.0144128
960.005	0.0145609
960.083	0.0144761
960.162	0.0143889
960.240	0.0144363
960.318	0.0143538
960.396	0.0144108
960.474	0.0145044
960.552	0.0146770
960.630	0.0144348
960.708	0.0144191
960.787	0.0144308
960.865	0.0145108
960.943	0.0143452
961.021	0.0144967
961.099	0.0144098
961.177	0.0144888
961.255	0.0144155
961.333	0.0143776
961.412	0.0145186
961.490	0.0145758
961.568	0.0144454
961.646	0.0144546
961.724	0.0145863
961.802	0.0143627
961.880	0.0144537
961.958	0.0144516
962.037	0.0144354
962.115	0.0144457
962.193	0.0143932
962.271	0.0144315
962.349	0.0144678
962.427	0.0144896
962.505	0.0144108
962.583	0.0145120
962.662	0.0144263
962.740	0.0144061
962.818	0.0144189
962.896	0.0145625
962.974	0.0146235
963.052	0.0144430
963.130	0.0145134
963.208	0.0143877
963.287	0.0144292
963.365	0.0144901
963.443	0.0144520
963.521	0.0144455
963.599	0.0143317
963.677	0.0145008
963.755	0.0144856
963.833	0.0144662
963.912	0.0143574
963.990	0.0143549
964.068	0.0144757
964.146	0.0143975
964.224	0.0143294
964.302	0.0144157
964.380	0.0144518
964.458	0.0144475
964.537	0.0143391
964.615	0.0143552
964.693	0.0143237
964.771	0.0142905
964.849	0.0145296
964.927	0.0144165
965.005	0.0143113
965.083	0.0143792
965.162	0.0143960
965.240	0.0142496
965.318	0.0142212
965.396	0.0144083
965.474	0.0144576
965.552	0.0144622
965.630	0.0144096
965.708	0.0143666
965.787	0.0142829
965.865	0.0142522
965.943	0.0145653
966.021	0.0145491
966.099	0.0143487
966.177	0.0143092
966.255	0.0144315
966.333	0.0144444
966.412	0.0144898
966.490	0.0144135
966.568	0.0143606
966.646	0.0142889
966.724	0.0144340
966.802	0.0142887
966.880	0.0144461
966.958	0.0142728
967.037	0.0144044
967.115	0.0144295
967.193	0.0143206
967.271	0.0143246
967.349	0.0144169
967.427	0.0144610
967.505	0.0144183
967.583	0.0142694
967.662	0.0144197
967.740	0.0144740
967.818	0.0144711
967.896	0.0143167
967.974	0.0143668
968.052	0.0143915
968.130	0.0144048
968.208	0.0144370
968.287	0.0145102
968.365	0.0145374
968.443	0.0143325
968.521	0.0145124
968.599	0.0144532
968.677	0.0143819
968.755	0.0144165
968.833	0.0143391
968.912	0.0143591
968.990	0.0144547
969.068	0.0144372
969.146	0.0144548
969.224	0.0145273
969.302	0.0143289
969.380	0.0143684
969.458	0.0143984
969.537	0.0144082
969.615	0.0143216
969.693	0.0143301
969.771	0.0144536
969.849	0.0143934
969.927	0.0143357
970.005	0.0143169
970.083	0.0144347
970.162	0.0144572
970.240	0.0143458
970.318	0.0143761
970.396	0.0144996
970.474	0.0143868
970.552	0.0144017
970.630	0.0143697
970.708	0.0143333
970.787	0.0143102
970.865	0.0144175
970.943	0.0143871
971.021	0.0144609
971.099	0.0145181
971.177	0.0145775
971.255	0.0143162
971.333	0.0143707
971.412	0.0144997
971.490	0.0144238
971.568	0.0144065
971.646	0.0144903
971.724	0.0145184
971.802	0.0146821
971.880	0.0144087
971.958	0.0145386
972.037	0.0146474
972.115	0.0145922
972.193	0.0144985
972.271	0.0146334
972.349	0.0145848
972.427	0.0146073
972.505	0.0145167
972.583	0.0145019
972.662	0.0145002
972.740	0.0144441
972.818	0.0144316
972.896	0.0144329
972.974	0.0144484
973.052	0.0144627
973.130	0.0143948
973.208	0.0145387
973.287	0.0145056
973.365	0.0145860
973.443	0.0143586
973.521	0.0144350
973.599	0.0143468
973.677	0.0144439
973.755	0.0145593
973.833	0.0146669
973.912	0.0145673
973.990	0.0144933
974.068	0.0145351
974.146	0.0145420
974.224	0.0144037
974.302	0.0146238
974.380	0.0144838
974.458	0.0144986
974.537	0.0146878
974.615	0.0145360
974.693	0.0144894
974.771	0.0144452
974.849	0.0144701
974.927	0.0145750
975.005	0.0145435
975.083	0.0144804
975.162	0.0146464
975.240	0.0145135
975.318	0.0145572
975.396	0.0146873
975.474	0.0145438
975.552	0.0144718
975.630	0.0144050
975.708	0.0144440
975.787	0.0143785
975.865	0.0144361
975.943	0.0143828
976.021	0.0145016
976.099	0.0143788
976.177	0.0143079
976.255	0.0144672
976.333	0.0144344
976.412	0.0144215
976.490	0.0142688
976.568	0.0144601
976.646	0.0144958
976.724	0.0144143
976.802	0.0144921
976.880	0.0144836
976.958	0.0144839
977.037	0.0145452
977.115	0.0144213
977.193	0.0143888
977.271	0.0145326
977.349	0.0145022
977.427	0.0144513
977.505	0.0144140
977.583	0.0145421
977.662	0.0144054
977.740	0.0144836
977.818	0.0145271
977.896	0.0144290
977.974	0.0143137
978.052	0.0145304
978.130	0.0145561
978.208	0.0143736
978.287	0.0143887
978.365	0.0144257
978.443	0.0144560
978.521	0.0145142
978.599	0.0143605
978.677	0.0142688
978.755	0.0143537
978.833	0.0144427
978.912	0.0143845
978.990	0.0143898
979.068	0.0144386
979.146	0.0143517
979.224	0.0144876
979.302	0.0143457
979.380	0.0143660
979.458	0.0143329
979.537	0.0144106
979.615	0.0144953
979.693	0.0145074
979.771	0.0144736
979.849	0.0145605
979.927	0.0144598
980.005	0.0144934
980.083	0.0144338
980.162	0.0144499
980.240	0.0144338
980.318	0.0144279
980.396	0.0145771
980.474	0.0144720
980.552	0.0144676
980.630	0.0144776
980.708	0.0144735
980.787	0.0145002
980.865	0.0144435
980.943	0.0145498
981.021	0.0145420
981.099	0.0147005
981.177	0.0145673
981.255	0.0144035
981.333	0.0145352
981.412	0.0146359
981.490	0.0144823
981.568	0.0144785
981.646	0.0145376
981.724	0.0145903
981.802	0.0145979
981.880	0.0143748
981.958	0.0144415
982.037	0.0143970
982.115	0.0143787
982.193	0.0144582
982.271	0.0144599
982.349	0.0144540
982.427	0.0145172
982.505	0.0145618
982.583	0.0145977
982.662	0.0144745
982.740	0.0144637
982.818	0.0145041
982.896	0.0143591
982.974	0.0145966
983.052	0.0146320
983.130	0.0143927
983.208	0.0144862
983.287	0.0144796
983.365	0.0144097
983.443	0.0144534
983.521	0.0145560
983.599	0.0145065
983.677	0.0144625
983.755	0.0144725
983.833	0.0145056
983.912	0.0146617
983.990	0.0145921
984.068	0.0146065
984.146	0.0144598
984.224	0.0145458
984.302	0.0145442
984.380	0.0144479
984.458	0.0144455
984.537	0.0145185
984.615	0.0144544
984.693	0.0144076
984.771	0.0145260
984.849	0.0144320
984.927	0.0144486
985.005	0.0145245
985.083	0.0144041
985.162	0.0145734
985.240	0.0144926
985.318	0.0144144
985.396	0.0144718
985.474	0.0144096
985.552	0.0144542
985.630	0.0143399
985.708	0.0143966
985.787	0.0144463
985.865	0.0143727
985.943	0.0145335
986.021	0.0143867
986.099	0.0143746
986.177	0.0143790
986.255	0.0144118
986.333	0.0142702
986.412	0.0143460
986.490	0.0144768
986.568	0.0143024
986.646	0.0143904
986.724	0.0142423
986.802	0.0143521
986.880	0.0144790
986.958	0.0143979
987.037	0.0142924
987.115	0.0142629
987.193	0.0143666
987.271	0.0142452
987.349	0.0143785
987.427	0.0142659
987.505	0.0142955
987.583	0.0143855
987.662	0.0143113
987.740	0.0144346
987.818	0.0145694
987.896	0.0144253
987.974	0.0144030
988.052	0.0145695
988.130	0.0143604
988.208	0.0144925
988.287	0.0142822
988.365	0.0143143
988.443	0.0144852
988.521	0.0144161
988.599	0.0143565
988.677	0.0144847
988.755	0.0143591
988.833	0.0144341
988.912	0.0144983
988.990	0.0144549
989.068	0.0143381
989.146	0.0143930
989.224	0.0145121
989.302	0.0144106
989.380	0.0145528
989.458	0.0144304
989.537	0.0145008
989.615	0.0143095
989.693	0.0143491
989.771	0.0143697
989.849	0.0143561
989.927	0.0144409
990.005	0.0145499
990.083	0.0143507
990.162	0.0143130
990.240	0.0144981
990.318	0.0145638
990.396	0.0145356
990.474	0.0144837
990.552	0.0144957
990.630	0.0144904
990.708	0.0145155
990.787	0.0145251
990.865	0.0143587
990.943	0.0143707
991.021	0.0145453
991.099	0.0145435
991.177	0.0145766
991.255	0.0145569
991.333	0.0145129
991.412	0.0144071
991.490	0.0145426
991.568	0.0143494
991.646	0.0144002
991.724	0.0144660
991.802	0.0145074
991.880	0.0144779
991.958	0.0145045
992.037	0.0144380
992.115	0.0143466
992.193	0.0143837
992.271	0.0143360
992.349	0.0142502
992.427	0.0142971
992.505	0.0142712
992.583	0.0142543
992.662	0.0142914
992.740	0.0142956
992.818	0.0143247
992.896	0.0142397
992.974	0.0142839
993.052	0.0143338
993.130	0.0143803
993.208	0.0145006
993.287	0.0143481
993.365	0.0142391
993.443	0.0142877
993.521	0.0143794
993.599	0.0143623
993.677	0.0144108
993.755	0.0143797
993.833	0.0143971
993.912	0.0144175
993.990	0.0144343
994.068	0.0144556
994.146	0.0144414
994.224	0.0144335
994.302	0.0143468
994.380	0.0144706
994.458	0.0144906
994.537	0.0144324
994.615	0.0144802
994.693	0.0143999
994.771	0.0143803
994.849	0.0144367
994.927	0.0144439
995.005	0.0145094
995.083	0.0146041
995.162	0.0144200
995.240	0.0144415
995.318	0.0145466
995.396	0.0143924
995.474	0.0145395
995.552	0.0144064
995.630	0.0144609
995.708	0.0144102
995.787	0.0143394
995.865	0.0145188
995.943	0.0145120
996.021	0.0144203
996.099	0.0143916
996.177	0.0144478
996.255	0.0145264
996.333	0.0144418
996.412	0.0145112
996.490	0.0145119
996.568	0.0144981
996.646	0.0143696
996.724	0.0144545
996.802	0.0145931
996.880	0.0144246
996.958	0.0143886
997.037	0.0144747
997.115	0.0144106
997.193	0.0144192
997.271	0.0144514
997.349	0.0144788
997.427	0.0144437
997.505	0.0144518
997.583	0.0144627
997.662	0.0144826
997.740	0.0144485
997.818	0.0145015
997.896	0.0145518
997.974	0.0145332
998.052	0.0144478
998.130	0.0145833
998.208	0.0144691
998.287	0.0144406
998.365	0.0143967
998.443	0.0144270
998.521	0.0145232
998.599	0.0144230
998.677	0.0144073
998.755	0.0144652
998.833	0.0146209
998.912	0.0144981
