05/04/2022	21:37:39	Ver.	4.1	UNKNOWN
Optical Delay	678.996401	Delta X		0.078125	Sweeps	1	Scan Rate	0/0
Coordinates	Axis 1	NaN	Axis 2	NaN	Axis 3	NaN	Axis 4	NaN	Axis 5	NaN	Axis 6	0.000000
TX Power	0.000000	RX Power	0.000000

678.996	0.0146878
679.075	0.0144592
679.153	0.0146279
679.231	0.0144019
679.309	0.0147527
679.387	0.0146666
679.465	0.0145701
679.543	0.0147342
679.621	0.0148151
679.700	0.0148418
679.778	0.0147314
679.856	0.0147662
679.934	0.0148474
680.012	0.0148193
680.090	0.0147968
680.168	0.0146628
680.246	0.0145062
680.325	0.0143890
680.403	0.0144442
680.481	0.0143501
680.559	0.0143117
680.637	0.0144555
680.715	0.0144309
680.793	0.0145892
680.871	0.0147323
680.950	0.0147289
681.028	0.0149541
681.106	0.0150816
681.184	0.0152894
681.262	0.0151965
681.340	0.0149904
681.418	0.0150211
681.496	0.0147758
681.575	0.0146427
681.653	0.0144910
681.731	0.0144511
681.809	0.0143838
681.887	0.0141367
681.965	0.0141704
682.043	0.0142475
682.121	0.0143469
682.200	0.0143164
682.278	0.0144389
682.356	0.0145478
682.434	0.0147500
682.512	0.0148259
682.590	0.0148275
682.668	0.0147594
682.746	0.0146571
682.825	0.0145804
682.903	0.0144539
682.981	0.0143551
683.059	0.0144225
683.137	0.0143141
683.215	0.0141573
683.293	0.0143366
683.371	0.0144337
683.450	0.0143611
683.528	0.0145412
683.606	0.0147745
683.684	0.0148402
683.762	0.0148807
683.840	0.0150860
683.918	0.0151958
683.996	0.0153624
684.075	0.0154405
684.153	0.0154782
684.231	0.0152935
684.309	0.0151418
684.387	0.0148894
684.465	0.0146920
684.543	0.0147781
684.621	0.0144059
684.700	0.0143336
684.778	0.0141454
684.856	0.0140595
684.934	0.0140548
685.012	0.0140781
685.090	0.0142124
685.168	0.0141409
685.246	0.0143027
685.325	0.0143108
685.403	0.0143207
685.481	0.0143700
685.559	0.0144395
685.637	0.0142535
685.715	0.0142632
685.793	0.0142659
685.871	0.0142957
685.950	0.0144141
686.028	0.0144182
686.106	0.0147193
686.184	0.0146090
686.262	0.0146427
686.340	0.0147583
686.418	0.0149331
686.496	0.0150720
686.575	0.0151887
686.653	0.0153416
686.731	0.0152129
686.809	0.0153278
686.887	0.0154887
686.965	0.0154456
687.043	0.0154481
687.121	0.0154150
687.200	0.0152919
687.278	0.0152689
687.356	0.0151225
687.434	0.0147551
687.512	0.0145647
687.590	0.0143774
687.668	0.0142490
687.746	0.0139388
687.825	0.0138098
687.903	0.0137651
687.981	0.0137288
688.059	0.0137992
688.137	0.0138564
688.215	0.0139786
688.293	0.0140352
688.371	0.0141805
688.450	0.0143282
688.528	0.0145084
688.606	0.0147533
688.684	0.0147684
688.762	0.0147821
688.840	0.0148824
688.918	0.0150067
688.996	0.0148011
689.075	0.0147277
689.153	0.0148137
689.231	0.0146410
689.309	0.0145448
689.387	0.0144934
689.465	0.0146327
689.543	0.0147412
689.621	0.0146475
689.700	0.0149182
689.778	0.0149358
689.856	0.0152173
689.934	0.0152610
690.012	0.0156084
690.090	0.0155062
690.168	0.0156528
690.246	0.0153979
690.325	0.0152081
690.403	0.0151247
690.481	0.0147166
690.559	0.0145140
690.637	0.0141541
690.715	0.0139283
690.793	0.0138095
690.871	0.0136603
690.950	0.0134924
691.028	0.0136546
691.106	0.0137466
691.184	0.0138683
691.262	0.0140089
691.340	0.0140584
691.418	0.0144195
691.496	0.0145745
691.575	0.0145889
691.653	0.0147554
691.731	0.0149019
691.809	0.0150127
691.887	0.0148466
691.965	0.0148415
692.043	0.0146246
692.121	0.0147032
692.200	0.0146011
692.278	0.0145996
692.356	0.0146300
692.434	0.0147255
692.512	0.0147831
692.590	0.0150919
692.668	0.0153047
692.746	0.0153426
692.825	0.0156075
692.903	0.0156859
692.981	0.0157037
693.059	0.0157849
693.137	0.0156539
693.215	0.0155363
693.293	0.0153839
693.371	0.0152780
693.450	0.0149302
693.528	0.0147055
693.606	0.0143841
693.684	0.0141845
693.762	0.0140020
693.840	0.0137968
693.918	0.0137561
693.996	0.0136706
694.075	0.0137388
694.153	0.0138518
694.231	0.0137904
694.309	0.0140199
694.387	0.0142455
694.465	0.0144363
694.543	0.0145775
694.621	0.0147478
694.700	0.0147619
694.778	0.0149017
694.856	0.0151305
694.934	0.0149154
695.012	0.0149438
695.090	0.0149229
695.168	0.0147359
695.246	0.0147166
695.325	0.0144975
695.403	0.0145023
695.481	0.0144857
695.559	0.0144917
695.637	0.0144477
695.715	0.0143980
695.793	0.0145515
695.871	0.0145905
695.950	0.0147843
696.028	0.0148045
696.106	0.0148888
696.184	0.0150945
696.262	0.0151869
696.340	0.0151788
696.418	0.0149905
696.496	0.0150853
696.575	0.0152537
696.653	0.0152688
696.731	0.0149802
696.809	0.0150318
696.887	0.0151592
696.965	0.0149910
697.043	0.0150147
697.121	0.0150538
697.200	0.0147849
697.278	0.0148589
697.356	0.0147591
697.434	0.0146732
697.512	0.0145544
697.590	0.0146477
697.668	0.0147154
697.746	0.0146412
697.825	0.0144993
697.903	0.0144814
697.981	0.0146181
698.059	0.0145604
698.137	0.0143573
698.215	0.0142827
698.293	0.0141028
698.371	0.0140354
698.450	0.0140002
698.528	0.0139316
698.606	0.0140299
698.684	0.0140247
698.762	0.0139712
698.840	0.0141903
698.918	0.0142268
698.996	0.0146088
699.075	0.0148883
699.153	0.0150134
699.231	0.0151819
699.309	0.0154605
699.387	0.0154811
699.465	0.0156126
699.543	0.0157471
699.621	0.0156078
699.700	0.0157705
699.778	0.0154713
699.856	0.0153413
699.934	0.0153429
700.012	0.0152193
700.090	0.0150685
700.168	0.0148254
700.246	0.0146929
700.325	0.0144238
700.403	0.0143855
700.481	0.0145868
700.559	0.0144284
700.637	0.0146236
700.715	0.0144899
700.793	0.0144988
700.871	0.0146018
700.950	0.0148339
701.028	0.0147144
701.106	0.0147064
701.184	0.0147874
701.262	0.0146378
701.340	0.0144923
701.418	0.0144083
701.496	0.0141972
701.575	0.0141721
701.653	0.0141177
701.731	0.0140523
701.809	0.0139917
701.887	0.0139668
701.965	0.0139371
702.043	0.0141514
702.121	0.0141091
702.200	0.0142225
702.278	0.0144548
702.356	0.0144793
702.434	0.0146631
702.512	0.0149195
702.590	0.0149831
702.668	0.0151506
702.746	0.0151531
702.825	0.0153721
702.903	0.0153033
702.981	0.0152362
703.059	0.0152549
703.137	0.0153841
703.215	0.0152627
703.293	0.0151043
703.371	0.0150791
703.450	0.0149245
703.528	0.0150247
703.606	0.0148348
703.684	0.0148058
703.762	0.0148497
703.840	0.0148680
703.918	0.0147805
703.996	0.0147831
704.075	0.0147567
704.153	0.0150105
704.231	0.0149612
704.309	0.0148075
704.387	0.0147599
704.465	0.0146416
704.543	0.0146484
704.621	0.0144892
704.700	0.0142606
704.778	0.0140751
704.856	0.0141502
704.934	0.0141666
705.012	0.0139970
705.090	0.0140815
705.168	0.0141285
705.246	0.0142393
705.325	0.0143427
705.403	0.0144934
705.481	0.0144633
705.559	0.0145629
705.637	0.0146479
705.715	0.0146799
705.793	0.0147421
705.871	0.0147273
705.950	0.0146927
706.028	0.0147085
706.106	0.0148428
706.184	0.0148023
706.262	0.0147409
706.340	0.0148662
706.418	0.0147676
706.496	0.0148975
706.575	0.0149026
706.653	0.0150892
706.731	0.0149831
706.809	0.0149897
706.887	0.0151965
706.965	0.0150912
707.043	0.0149833
707.121	0.0149712
707.200	0.0150720
707.278	0.0149678
707.356	0.0147736
707.434	0.0147273
707.512	0.0148282
707.590	0.0146492
707.668	0.0145082
707.746	0.0145570
707.825	0.0144425
707.903	0.0144926
707.981	0.0142439
708.059	0.0143735
708.137	0.0143393
708.215	0.0141454
708.293	0.0142400
708.371	0.0143293
708.450	0.0143629
708.528	0.0143562
708.606	0.0144804
708.684	0.0145710
708.762	0.0144726
708.840	0.0144975
708.918	0.0145744
708.996	0.0146212
709.075	0.0146542
709.153	0.0147695
709.231	0.0148560
709.309	0.0148884
709.387	0.0148756
709.465	0.0149511
709.543	0.0150330
709.621	0.0151356
709.700	0.0149419
709.778	0.0149235
709.856	0.0149889
709.934	0.0148817
710.012	0.0146468
710.090	0.0145990
710.168	0.0146542
710.246	0.0144474
710.325	0.0143675
710.403	0.0144933
710.481	0.0144354
710.559	0.0142951
710.637	0.0144066
710.715	0.0144993
710.793	0.0145267
710.871	0.0145268
710.950	0.0148504
711.028	0.0146345
711.106	0.0149102
711.184	0.0149780
711.262	0.0151244
711.340	0.0151568
711.418	0.0150040
711.496	0.0151709
711.575	0.0152065
711.653	0.0150383
711.731	0.0151257
711.809	0.0150490
711.887	0.0149706
711.965	0.0147944
712.043	0.0146283
712.121	0.0146539
712.200	0.0145070
712.278	0.0144043
712.356	0.0142554
712.434	0.0142175
712.512	0.0142493
712.590	0.0142755
712.668	0.0143064
712.746	0.0142016
712.825	0.0143336
712.903	0.0143282
712.981	0.0143255
713.059	0.0143665
713.137	0.0144251
713.215	0.0145959
713.293	0.0145869
713.371	0.0146324
713.450	0.0147382
713.528	0.0146960
713.606	0.0147594
713.684	0.0148302
713.762	0.0148809
713.840	0.0149286
713.918	0.0150481
713.996	0.0150244
714.075	0.0151038
714.153	0.0150159
714.231	0.0151135
714.309	0.0151876
714.387	0.0151155
714.465	0.0151921
714.543	0.0150179
714.621	0.0149477
714.700	0.0148483
714.778	0.0148936
714.856	0.0147969
714.934	0.0145959
715.012	0.0144362
715.090	0.0144340
715.168	0.0142924
715.246	0.0141668
715.325	0.0141501
715.403	0.0142087
715.481	0.0140348
715.559	0.0140595
715.637	0.0140580
715.715	0.0142302
715.793	0.0142226
715.871	0.0143550
715.950	0.0143905
716.028	0.0146552
716.106	0.0146873
716.184	0.0147742
716.262	0.0147829
716.340	0.0149324
716.418	0.0150820
716.496	0.0149097
716.575	0.0150798
716.653	0.0150234
716.731	0.0150124
716.809	0.0150864
716.887	0.0151118
716.965	0.0149454
717.043	0.0148632
717.121	0.0149503
717.200	0.0147869
717.278	0.0147947
717.356	0.0149818
717.434	0.0147342
717.512	0.0147390
717.590	0.0145642
717.668	0.0144644
717.746	0.0146001
717.825	0.0146609
717.903	0.0147752
717.981	0.0147659
718.059	0.0146569
718.137	0.0147787
718.215	0.0147599
718.293	0.0147486
718.371	0.0147685
718.450	0.0149329
718.528	0.0146336
718.606	0.0147849
718.684	0.0148968
718.762	0.0147315
718.840	0.0146910
718.918	0.0147030
718.996	0.0146124
719.075	0.0147820
719.153	0.0147673
719.231	0.0147797
719.309	0.0146380
719.387	0.0146768
719.465	0.0145804
719.543	0.0147424
719.621	0.0146127
719.700	0.0146782
719.778	0.0147863
719.856	0.0147561
719.934	0.0145695
720.012	0.0146601
720.090	0.0147009
720.168	0.0145358
720.246	0.0146159
720.325	0.0145837
720.403	0.0145009
720.481	0.0145899
720.559	0.0145837
720.637	0.0145304
720.715	0.0144964
720.793	0.0146404
720.871	0.0147392
720.950	0.0146992
721.028	0.0148528
721.106	0.0149364
721.184	0.0149220
721.262	0.0149639
721.340	0.0151254
721.418	0.0150859
721.496	0.0149844
721.575	0.0149706
721.653	0.0148427
721.731	0.0148688
721.809	0.0148054
721.887	0.0147698
721.965	0.0146040
722.043	0.0145505
722.121	0.0144717
722.200	0.0144043
722.278	0.0142963
722.356	0.0143624
722.434	0.0142455
722.512	0.0144428
722.590	0.0145071
722.668	0.0145160
722.746	0.0144602
722.825	0.0146120
722.903	0.0147134
722.981	0.0147984
723.059	0.0146658
723.137	0.0146871
723.215	0.0149104
723.293	0.0148589
723.371	0.0148260
723.450	0.0148210
723.528	0.0149288
723.606	0.0147327
723.684	0.0147620
723.762	0.0148330
723.840	0.0147805
723.918	0.0148231
723.996	0.0148409
724.075	0.0148292
724.153	0.0148331
724.231	0.0146764
724.309	0.0146805
724.387	0.0148835
724.465	0.0147357
724.543	0.0147501
724.621	0.0145910
724.700	0.0147467
724.778	0.0145252
724.856	0.0146046
724.934	0.0144983
725.012	0.0145869
725.090	0.0144957
725.168	0.0145840
725.246	0.0145479
725.325	0.0145515
725.403	0.0145563
725.481	0.0148903
725.559	0.0148088
725.637	0.0149334
725.715	0.0149261
725.793	0.0150089
725.871	0.0149936
725.950	0.0148798
726.028	0.0149009
726.106	0.0148798
726.184	0.0147443
726.262	0.0147347
726.340	0.0147463
726.418	0.0145895
726.496	0.0144144
726.575	0.0144185
726.653	0.0144780
726.731	0.0144537
726.809	0.0144982
726.887	0.0144568
726.965	0.0143733
727.043	0.0143282
727.121	0.0143747
727.200	0.0145085
727.278	0.0145297
727.356	0.0146807
727.434	0.0146941
727.512	0.0147871
727.590	0.0147261
727.668	0.0147788
727.746	0.0147530
727.825	0.0148595
727.903	0.0150502
727.981	0.0149212
728.059	0.0149695
728.137	0.0150040
728.215	0.0149776
728.293	0.0150169
728.371	0.0149569
728.450	0.0148172
728.528	0.0149347
728.606	0.0148997
728.684	0.0151448
728.762	0.0149362
728.840	0.0147153
728.918	0.0147012
728.996	0.0147148
729.075	0.0145190
729.153	0.0145580
729.231	0.0144720
729.309	0.0144712
729.387	0.0144807
729.465	0.0142631
729.543	0.0144011
729.621	0.0143557
729.700	0.0142283
729.778	0.0143490
729.856	0.0143429
729.934	0.0144106
730.012	0.0144418
730.090	0.0146420
730.168	0.0146616
730.246	0.0146990
730.325	0.0148610
730.403	0.0147327
730.481	0.0147909
730.559	0.0148314
730.637	0.0147411
730.715	0.0148580
730.793	0.0147718
730.871	0.0147707
730.950	0.0148623
731.028	0.0146810
731.106	0.0146259
731.184	0.0146471
731.262	0.0145416
731.340	0.0146308
731.418	0.0146377
731.496	0.0145602
731.575	0.0145245
731.653	0.0145444
731.731	0.0144944
731.809	0.0146323
731.887	0.0147272
731.965	0.0145937
732.043	0.0147514
732.121	0.0146636
732.200	0.0146233
732.278	0.0145361
732.356	0.0146989
732.434	0.0148014
732.512	0.0146006
732.590	0.0144903
732.668	0.0147362
732.746	0.0148136
732.825	0.0147813
732.903	0.0147120
732.981	0.0147428
733.059	0.0147727
733.137	0.0147539
733.215	0.0146550
733.293	0.0146211
733.371	0.0148331
733.450	0.0148336
733.528	0.0147602
733.606	0.0147654
733.684	0.0146420
733.762	0.0146247
733.840	0.0145507
733.918	0.0146053
733.996	0.0146034
734.075	0.0146623
734.153	0.0146906
734.231	0.0145303
734.309	0.0145728
734.387	0.0146075
734.465	0.0147772
734.543	0.0146011
734.621	0.0147416
734.700	0.0148251
734.778	0.0146455
734.856	0.0147289
734.934	0.0148814
735.012	0.0148280
735.090	0.0148380
735.168	0.0149600
735.246	0.0149280
735.325	0.0148666
735.403	0.0147569
735.481	0.0149412
735.559	0.0148956
735.637	0.0147482
735.715	0.0147559
735.793	0.0147025
735.871	0.0146255
735.950	0.0147005
736.028	0.0147459
736.106	0.0145374
736.184	0.0144817
736.262	0.0146198
736.340	0.0145129
736.418	0.0147298
736.496	0.0146658
736.575	0.0145728
736.653	0.0146092
736.731	0.0147243
736.809	0.0148566
736.887	0.0147990
736.965	0.0146902
737.043	0.0146889
737.121	0.0147269
737.200	0.0146576
737.278	0.0147891
737.356	0.0146757
737.434	0.0147847
737.512	0.0147581
737.590	0.0148849
737.668	0.0149422
737.746	0.0147237
737.825	0.0146147
737.903	0.0147240
737.981	0.0146963
738.059	0.0147906
738.137	0.0146676
738.215	0.0146152
738.293	0.0147654
738.371	0.0147245
738.450	0.0146760
738.528	0.0147371
738.606	0.0146926
738.684	0.0146662
738.762	0.0147498
738.840	0.0147720
738.918	0.0147036
738.996	0.0147103
739.075	0.0147778
739.153	0.0146665
739.231	0.0148391
739.309	0.0147280
739.387	0.0147675
739.465	0.0146842
739.543	0.0146867
739.621	0.0146222
739.700	0.0147047
739.778	0.0146716
739.856	0.0146089
739.934	0.0145603
740.012	0.0145644
740.090	0.0145788
740.168	0.0146340
740.246	0.0145945
740.325	0.0147661
740.403	0.0145572
740.481	0.0144917
740.559	0.0144348
740.637	0.0145367
740.715	0.0147016
740.793	0.0146802
740.871	0.0146268
740.950	0.0146011
741.028	0.0145554
741.106	0.0147194
741.184	0.0147208
741.262	0.0146781
741.340	0.0148090
741.418	0.0147952
741.496	0.0146961
741.575	0.0148249
741.653	0.0148823
741.731	0.0147660
741.809	0.0146782
741.887	0.0148026
741.965	0.0147816
742.043	0.0147117
742.121	0.0147966
742.200	0.0146410
742.278	0.0145123
742.356	0.0146288
742.434	0.0146796
742.512	0.0146538
742.590	0.0146435
742.668	0.0146958
742.746	0.0145974
742.825	0.0146973
742.903	0.0146082
742.981	0.0146591
743.059	0.0146918
743.137	0.0146462
743.215	0.0146932
743.293	0.0146275
743.371	0.0145853
743.450	0.0146234
743.528	0.0146812
743.606	0.0146328
743.684	0.0146780
743.762	0.0145673
743.840	0.0144559
743.918	0.0144839
743.996	0.0145292
744.075	0.0146411
744.153	0.0144833
744.231	0.0145052
744.309	0.0145594
744.387	0.0145523
744.465	0.0145377
744.543	0.0145746
744.621	0.0144623
744.700	0.0145723
744.778	0.0145985
744.856	0.0146545
744.934	0.0147269
745.012	0.0147226
745.090	0.0147800
745.168	0.0148201
745.246	0.0147533
745.325	0.0145695
745.403	0.0148385
745.481	0.0147665
745.559	0.0147856
745.637	0.0148316
745.715	0.0146793
745.793	0.0147548
745.871	0.0147919
745.950	0.0148015
746.028	0.0147449
746.106	0.0147162
746.184	0.0146308
746.262	0.0145393
746.340	0.0144518
746.418	0.0146094
746.496	0.0145525
746.575	0.0145475
746.653	0.0146955
746.731	0.0145231
746.809	0.0146104
746.887	0.0145647
746.965	0.0145720
747.043	0.0147032
747.121	0.0145936
747.200	0.0146715
747.278	0.0147559
747.356	0.0146816
747.434	0.0146349
747.512	0.0146943
747.590	0.0146873
747.668	0.0146701
747.746	0.0147737
747.825	0.0147453
747.903	0.0146489
747.981	0.0146819
748.059	0.0145969
748.137	0.0146667
748.215	0.0145985
748.293	0.0146352
748.371	0.0146746
748.450	0.0147802
748.528	0.0147919
748.606	0.0146970
748.684	0.0146455
748.762	0.0145927
748.840	0.0147333
748.918	0.0148421
748.996	0.0147585
749.075	0.0147160
749.153	0.0146666
749.231	0.0146558
749.309	0.0147581
749.387	0.0147345
749.465	0.0149168
749.543	0.0147463
749.621	0.0146517
749.700	0.0146882
749.778	0.0147370
749.856	0.0147639
749.934	0.0147587
750.012	0.0146399
750.090	0.0146676
750.168	0.0146831
750.246	0.0147971
750.325	0.0146078
750.403	0.0146524
750.481	0.0146758
750.559	0.0147594
750.637	0.0146853
750.715	0.0146380
750.793	0.0146049
750.871	0.0146172
750.950	0.0145348
751.028	0.0146502
751.106	0.0147881
751.184	0.0146111
751.262	0.0144254
751.340	0.0146814
751.418	0.0147182
751.496	0.0146454
751.575	0.0147478
751.653	0.0144806
751.731	0.0145952
751.809	0.0148360
751.887	0.0147926
751.965	0.0147211
752.043	0.0146652
752.121	0.0147845
752.200	0.0148777
752.278	0.0145975
752.356	0.0146276
752.434	0.0145746
752.512	0.0146517
752.590	0.0147635
752.668	0.0147334
752.746	0.0146281
752.825	0.0147298
752.903	0.0147495
752.981	0.0146799
753.059	0.0146906
753.137	0.0147835
753.215	0.0146595
753.293	0.0146949
753.371	0.0147460
753.450	0.0147495
753.528	0.0147623
753.606	0.0146310
753.684	0.0146498
753.762	0.0147160
753.840	0.0146870
753.918	0.0146402
753.996	0.0147480
754.075	0.0147276
754.153	0.0147401
754.231	0.0146553
754.309	0.0146864
754.387	0.0146527
754.465	0.0145338
754.543	0.0147066
754.621	0.0145868
754.700	0.0146413
754.778	0.0145879
754.856	0.0146999
754.934	0.0146407
755.012	0.0147564
755.090	0.0145162
755.168	0.0146486
755.246	0.0147484
755.325	0.0147277
755.403	0.0147557
755.481	0.0146770
755.559	0.0147005
755.637	0.0147137
755.715	0.0147268
755.793	0.0145462
755.871	0.0146600
755.950	0.0147228
756.028	0.0146533
756.106	0.0146253
756.184	0.0146719
756.262	0.0146245
756.340	0.0146582
756.418	0.0146466
756.496	0.0146194
756.575	0.0145856
756.653	0.0146786
756.731	0.0146914
756.809	0.0146592
756.887	0.0146394
756.965	0.0145859
757.043	0.0147076
757.121	0.0147017
757.200	0.0146682
757.278	0.0146469
757.356	0.0146375
757.434	0.0147465
757.512	0.0146809
757.590	0.0147906
757.668	0.0147663
757.746	0.0145671
757.825	0.0146544
757.903	0.0147419
757.981	0.0146875
758.059	0.0147102
758.137	0.0148363
758.215	0.0148419
758.293	0.0146839
758.371	0.0147393
758.450	0.0147566
758.528	0.0146944
758.606	0.0146408
758.684	0.0147133
758.762	0.0147322
758.840	0.0146339
758.918	0.0146695
758.996	0.0147520
759.075	0.0146574
759.153	0.0145679
759.231	0.0148209
759.309	0.0147752
759.387	0.0145728
759.465	0.0146120
759.543	0.0146895
759.621	0.0146529
759.700	0.0147259
759.778	0.0145758
759.856	0.0147086
759.934	0.0147961
760.012	0.0147866
760.090	0.0147353
760.168	0.0146354
760.246	0.0146641
760.325	0.0147229
760.403	0.0146590
760.481	0.0146564
760.559	0.0146831
760.637	0.0146512
760.715	0.0147028
760.793	0.0146205
760.871	0.0146278
760.950	0.0147195
761.028	0.0146505
761.106	0.0147614
761.184	0.0146695
761.262	0.0146104
761.340	0.0147021
761.418	0.0147382
761.496	0.0146921
761.575	0.0147104
761.653	0.0147614
761.731	0.0146837
761.809	0.0146113
761.887	0.0147623
761.965	0.0147017
762.043	0.0146393
762.121	0.0145399
762.200	0.0147104
762.278	0.0146690
762.356	0.0146099
762.434	0.0146230
762.512	0.0146081
762.590	0.0147727
762.668	0.0146679
762.746	0.0147594
762.825	0.0147316
762.903	0.0147537
762.981	0.0146874
763.059	0.0147009
763.137	0.0148245
763.215	0.0146897
763.293	0.0146803
763.371	0.0146569
763.450	0.0146152
763.528	0.0146425
763.606	0.0146591
763.684	0.0146466
763.762	0.0144714
763.840	0.0145599
763.918	0.0145631
763.996	0.0146307
764.075	0.0146325
764.153	0.0146204
764.231	0.0146188
764.309	0.0146523
764.387	0.0147729
764.465	0.0146480
764.543	0.0146837
764.621	0.0147018
764.700	0.0145302
764.778	0.0145487
764.856	0.0146709
764.934	0.0146877
765.012	0.0146529
765.090	0.0145812
765.168	0.0146375
765.246	0.0146769
765.325	0.0146691
765.403	0.0145714
765.481	0.0145535
765.559	0.0146815
765.637	0.0147312
765.715	0.0146463
765.793	0.0146768
765.871	0.0148162
765.950	0.0147297
766.028	0.0147269
766.106	0.0146284
766.184	0.0147634
766.262	0.0149123
766.340	0.0148039
766.418	0.0147168
766.496	0.0146777
766.575	0.0148058
766.653	0.0146240
766.731	0.0147977
766.809	0.0147644
766.887	0.0147529
766.965	0.0146152
767.043	0.0146503
767.121	0.0146884
767.200	0.0145618
767.278	0.0146782
767.356	0.0146528
767.434	0.0145528
767.512	0.0146087
767.590	0.0148107
767.668	0.0148380
767.746	0.0146684
767.825	0.0147070
767.903	0.0147682
767.981	0.0146561
768.059	0.0145884
768.137	0.0145732
768.215	0.0146789
768.293	0.0145545
768.371	0.0146379
768.450	0.0146377
768.528	0.0145525
768.606	0.0146753
768.684	0.0146839
768.762	0.0146269
768.840	0.0146806
768.918	0.0145921
768.996	0.0146997
769.075	0.0147125
769.153	0.0147115
769.231	0.0148014
769.309	0.0146349
769.387	0.0146198
769.465	0.0146485
769.543	0.0147955
769.621	0.0147938
769.700	0.0146211
769.778	0.0146800
769.856	0.0147018
769.934	0.0146972
770.012	0.0146669
770.090	0.0145065
770.168	0.0146886
770.246	0.0148005
770.325	0.0146976
770.403	0.0146729
770.481	0.0146807
770.559	0.0147099
770.637	0.0146800
770.715	0.0148112
770.793	0.0148788
770.871	0.0145442
770.950	0.0146349
771.028	0.0147103
771.106	0.0147805
771.184	0.0146667
771.262	0.0146906
771.340	0.0147810
771.418	0.0145647
771.496	0.0145578
771.575	0.0146362
771.653	0.0146354
771.731	0.0147527
771.809	0.0146676
771.887	0.0147187
771.965	0.0145600
772.043	0.0145934
772.121	0.0147057
772.200	0.0147145
772.278	0.0145990
772.356	0.0146661
772.434	0.0146806
772.512	0.0145425
772.590	0.0145480
772.668	0.0146046
772.746	0.0146057
772.825	0.0145464
772.903	0.0146695
772.981	0.0146994
773.059	0.0146709
773.137	0.0145363
773.215	0.0145065
773.293	0.0145293
773.371	0.0145814
773.450	0.0145853
773.528	0.0147843
773.606	0.0146774
773.684	0.0146317
773.762	0.0145350
773.840	0.0145341
773.918	0.0146667
773.996	0.0148216
774.075	0.0147594
774.153	0.0146216
774.231	0.0145262
774.309	0.0147166
774.387	0.0146696
774.465	0.0147318
774.543	0.0146221
774.621	0.0145528
774.700	0.0145123
774.778	0.0146005
774.856	0.0146972
774.934	0.0145917
775.012	0.0146645
775.090	0.0145762
775.168	0.0146527
775.246	0.0147244
775.325	0.0146054
775.403	0.0145370
775.481	0.0146909
775.559	0.0147503
775.637	0.0147430
775.715	0.0145853
775.793	0.0145047
775.871	0.0145387
775.950	0.0146087
776.028	0.0147272
776.106	0.0145288
776.184	0.0145600
776.262	0.0145837
776.340	0.0145424
776.418	0.0146585
776.496	0.0146558
776.575	0.0145144
776.653	0.0146468
776.731	0.0146245
776.809	0.0147177
776.887	0.0146104
776.965	0.0147499
777.043	0.0147377
777.121	0.0145730
777.200	0.0146175
777.278	0.0146770
777.356	0.0146549
777.434	0.0146272
777.512	0.0146799
777.590	0.0146458
777.668	0.0146305
777.746	0.0146591
777.825	0.0146357
777.903	0.0145928
777.981	0.0145391
778.059	0.0147183
778.137	0.0145771
778.215	0.0145694
778.293	0.0147281
778.371	0.0146624
778.450	0.0147710
778.528	0.0147373
778.606	0.0147616
778.684	0.0147507
778.762	0.0146267
778.840	0.0147752
778.918	0.0147228
778.996	0.0145100
779.075	0.0147478
779.153	0.0145845
779.231	0.0146952
779.309	0.0146796
779.387	0.0148549
779.465	0.0147970
779.543	0.0145970
779.621	0.0146738
779.700	0.0147672
779.778	0.0146815
779.856	0.0147524
779.934	0.0146452
780.012	0.0148512
780.090	0.0147519
780.168	0.0146104
780.246	0.0145945
780.325	0.0145743
780.403	0.0144522
780.481	0.0145478
780.559	0.0145899
780.637	0.0145142
780.715	0.0144776
780.793	0.0145129
780.871	0.0145311
780.950	0.0146044
781.028	0.0147758
781.106	0.0144685
781.184	0.0145112
781.262	0.0145823
781.340	0.0146803
781.418	0.0146767
781.496	0.0146707
781.575	0.0147151
781.653	0.0146349
781.731	0.0146702
781.809	0.0146149
781.887	0.0146588
781.965	0.0147758
782.043	0.0148361
782.121	0.0145934
782.200	0.0146212
782.278	0.0146358
782.356	0.0145711
782.434	0.0146249
782.512	0.0145692
782.590	0.0147007
782.668	0.0147564
782.746	0.0147167
782.825	0.0147769
782.903	0.0146686
782.981	0.0145878
783.059	0.0147652
783.137	0.0147268
783.215	0.0147124
783.293	0.0148131
783.371	0.0148396
783.450	0.0146941
783.528	0.0146746
783.606	0.0146917
783.684	0.0148165
783.762	0.0146626
783.840	0.0148663
783.918	0.0147557
783.996	0.0146358
784.075	0.0145918
784.153	0.0147364
784.231	0.0145901
784.309	0.0147565
784.387	0.0147755
784.465	0.0146252
784.543	0.0146633
784.621	0.0146584
784.700	0.0145777
784.778	0.0146432
784.856	0.0146046
784.934	0.0147895
785.012	0.0146508
785.090	0.0147697
785.168	0.0147366
785.246	0.0147591
785.325	0.0146904
785.403	0.0145901
785.481	0.0146094
785.559	0.0148634
785.637	0.0149252
785.715	0.0147822
785.793	0.0148436
785.871	0.0146949
785.950	0.0147251
786.028	0.0147835
786.106	0.0147313
786.184	0.0146369
786.262	0.0147403
786.340	0.0146916
786.418	0.0146178
786.496	0.0148117
786.575	0.0146954
786.653	0.0147079
786.731	0.0147539
786.809	0.0145740
786.887	0.0146384
786.965	0.0146536
787.043	0.0146209
787.121	0.0146193
787.200	0.0146273
787.278	0.0147317
787.356	0.0146611
787.434	0.0146481
787.512	0.0146439
787.590	0.0145069
787.668	0.0147077
787.746	0.0146488
787.825	0.0145239
787.903	0.0146324
787.981	0.0147187
788.059	0.0146507
788.137	0.0146003
788.215	0.0145755
788.293	0.0147792
788.371	0.0146139
788.450	0.0147212
788.528	0.0147260
788.606	0.0146416
788.684	0.0148000
788.762	0.0146915
788.840	0.0147128
788.918	0.0148203
788.996	0.0148315
789.075	0.0147344
789.153	0.0146086
789.231	0.0146289
789.309	0.0146032
789.387	0.0146536
789.465	0.0145893
789.543	0.0145850
789.621	0.0145274
789.700	0.0147247
789.778	0.0146487
789.856	0.0145619
789.934	0.0145400
790.012	0.0145262
790.090	0.0144882
790.168	0.0143656
790.246	0.0145735
790.325	0.0144982
790.403	0.0145573
790.481	0.0146859
790.559	0.0144923
790.637	0.0146072
790.715	0.0145991
790.793	0.0145412
790.871	0.0146185
790.950	0.0146847
791.028	0.0148727
791.106	0.0147196
791.184	0.0145761
791.262	0.0146102
791.340	0.0146500
791.418	0.0147711
791.496	0.0147189
791.575	0.0147393
791.653	0.0146210
791.731	0.0147291
791.809	0.0147623
791.887	0.0146375
791.965	0.0146403
792.043	0.0147496
792.121	0.0147226
792.200	0.0147735
792.278	0.0146270
792.356	0.0148126
792.434	0.0147916
792.512	0.0146443
792.590	0.0147952
792.668	0.0147420
792.746	0.0146706
792.825	0.0147028
792.903	0.0148743
792.981	0.0148292
793.059	0.0147193
793.137	0.0148071
793.215	0.0147380
793.293	0.0146675
793.371	0.0146798
793.450	0.0146446
793.528	0.0147637
793.606	0.0148111
793.684	0.0147346
793.762	0.0147993
793.840	0.0146709
793.918	0.0146307
793.996	0.0146425
794.075	0.0146420
794.153	0.0146246
794.231	0.0146976
794.309	0.0146966
794.387	0.0146542
794.465	0.0147467
794.543	0.0146616
794.621	0.0147189
794.700	0.0147870
794.778	0.0147266
794.856	0.0146098
794.934	0.0146613
795.012	0.0147534
795.090	0.0147651
795.168	0.0148071
795.246	0.0147457
795.325	0.0146819
795.403	0.0148505
795.481	0.0147528
795.559	0.0147256
795.637	0.0147625
795.715	0.0147749
795.793	0.0146669
795.871	0.0147995
795.950	0.0146791
796.028	0.0146893
796.106	0.0148006
796.184	0.0147288
796.262	0.0147556
796.340	0.0147102
796.418	0.0147208
796.496	0.0147993
796.575	0.0147337
796.653	0.0146975
796.731	0.0147200
796.809	0.0147154
796.887	0.0146325
796.965	0.0145481
797.043	0.0145896
797.121	0.0145758
797.200	0.0145654
797.278	0.0145718
797.356	0.0147018
797.434	0.0145837
797.512	0.0146171
797.590	0.0145689
797.668	0.0145087
797.746	0.0146428
797.825	0.0146231
797.903	0.0145824
797.981	0.0145348
798.059	0.0146790
798.137	0.0146649
798.215	0.0146243
798.293	0.0145924
798.371	0.0145234
798.450	0.0147408
798.528	0.0145172
798.606	0.0146149
798.684	0.0145805
798.762	0.0145989
798.840	0.0145596
798.918	0.0146715
798.996	0.0147023
799.075	0.0146183
799.153	0.0146341
799.231	0.0146932
799.309	0.0145818
799.387	0.0146203
799.465	0.0146502
799.543	0.0145832
799.621	0.0145700
799.700	0.0145362
799.778	0.0145177
799.856	0.0146538
799.934	0.0145224
800.012	0.0145119
800.090	0.0144959
800.168	0.0145229
800.246	0.0146283
800.325	0.0145261
800.403	0.0144997
800.481	0.0145595
800.559	0.0146101
800.637	0.0147465
800.715	0.0146426
800.793	0.0145744
800.871	0.0146522
800.950	0.0146272
801.028	0.0146673
801.106	0.0146651
801.184	0.0146854
801.262	0.0146585
801.340	0.0146828
801.418	0.0145763
801.496	0.0146201
801.575	0.0146615
801.653	0.0146671
801.731	0.0144988
801.809	0.0146062
801.887	0.0146321
801.965	0.0146074
802.043	0.0145741
802.121	0.0145531
802.200	0.0145712
802.278	0.0145650
802.356	0.0145879
802.434	0.0146423
802.512	0.0145655
802.590	0.0146034
802.668	0.0146644
802.746	0.0146265
802.825	0.0146877
802.903	0.0144175
802.981	0.0146844
803.059	0.0147021
803.137	0.0146974
803.215	0.0145695
803.293	0.0145884
803.371	0.0145858
803.450	0.0146652
803.528	0.0145724
803.606	0.0146002
803.684	0.0145586
803.762	0.0145992
803.840	0.0146150
803.918	0.0147319
803.996	0.0146944
804.075	0.0146119
804.153	0.0147147
804.231	0.0146489
804.309	0.0145874
804.387	0.0146581
804.465	0.0146385
804.543	0.0146486
804.621	0.0145805
804.700	0.0146349
804.778	0.0146061
804.856	0.0146630
804.934	0.0147215
805.012	0.0147511
805.090	0.0148369
805.168	0.0145940
805.246	0.0147011
805.325	0.0145805
805.403	0.0146642
805.481	0.0146890
805.559	0.0147457
805.637	0.0147155
805.715	0.0147467
805.793	0.0147104
805.871	0.0147551
805.950	0.0147523
806.028	0.0147942
806.106	0.0147797
806.184	0.0146776
806.262	0.0145853
806.340	0.0146108
806.418	0.0146883
806.496	0.0146927
806.575	0.0145989
806.653	0.0146188
806.731	0.0146408
806.809	0.0148198
806.887	0.0147191
806.965	0.0145824
807.043	0.0147188
807.121	0.0146614
807.200	0.0147787
807.278	0.0148602
807.356	0.0146450
807.434	0.0146733
807.512	0.0148038
807.590	0.0148285
807.668	0.0148436
807.746	0.0147619
807.825	0.0148266
807.903	0.0148183
807.981	0.0147744
808.059	0.0148220
808.137	0.0148021
808.215	0.0147778
808.293	0.0147200
808.371	0.0146452
808.450	0.0147861
808.528	0.0146900
808.606	0.0146862
808.684	0.0146476
808.762	0.0146997
808.840	0.0147058
808.918	0.0147329
808.996	0.0145953
809.075	0.0146788
809.153	0.0146861
809.231	0.0146261
809.309	0.0145931
809.387	0.0147540
809.465	0.0146645
809.543	0.0146808
809.621	0.0146513
809.700	0.0146655
809.778	0.0146435
809.856	0.0147328
809.934	0.0147585
810.012	0.0145509
810.090	0.0147324
810.168	0.0145942
810.246	0.0146400
810.325	0.0145553
810.403	0.0146017
810.481	0.0145497
810.559	0.0146293
810.637	0.0145813
810.715	0.0145940
810.793	0.0145329
810.871	0.0146325
810.950	0.0145930
811.028	0.0145906
811.106	0.0147186
811.184	0.0146671
811.262	0.0145333
811.340	0.0145476
811.418	0.0146368
811.496	0.0147060
811.575	0.0146610
811.653	0.0145469
811.731	0.0146560
811.809	0.0144269
811.887	0.0146923
811.965	0.0147034
812.043	0.0145376
812.121	0.0145718
812.200	0.0147646
812.278	0.0146735
812.356	0.0145509
812.434	0.0146638
812.512	0.0146202
812.590	0.0147693
812.668	0.0148347
812.746	0.0146158
812.825	0.0146651
812.903	0.0147386
812.981	0.0146917
813.059	0.0147870
813.137	0.0146729
813.215	0.0145795
813.293	0.0146059
813.371	0.0147632
813.450	0.0147105
813.528	0.0146437
813.606	0.0146685
813.684	0.0145979
813.762	0.0145496
813.840	0.0147121
813.918	0.0146131
813.996	0.0146848
814.075	0.0148267
814.153	0.0148350
814.231	0.0147714
814.309	0.0147135
814.387	0.0146677
814.465	0.0146994
814.543	0.0147010
814.621	0.0147374
814.700	0.0147463
814.778	0.0145089
814.856	0.0146605
814.934	0.0145916
815.012	0.0147510
815.090	0.0146057
815.168	0.0146102
815.246	0.0146500
815.325	0.0146888
815.403	0.0148109
815.481	0.0148689
815.559	0.0147294
815.637	0.0146490
815.715	0.0146539
815.793	0.0147411
815.871	0.0147987
815.950	0.0146690
816.028	0.0144700
816.106	0.0147563
816.184	0.0147910
816.262	0.0147041
816.340	0.0148413
816.418	0.0147077
816.496	0.0146140
816.575	0.0145272
816.653	0.0145942
816.731	0.0148247
816.809	0.0147385
816.887	0.0147076
816.965	0.0147645
817.043	0.0145997
817.121	0.0146895
817.200	0.0146481
817.278	0.0147227
817.356	0.0147835
817.434	0.0147084
817.512	0.0146742
817.590	0.0148065
817.668	0.0148219
817.746	0.0148029
817.825	0.0145794
817.903	0.0146445
817.981	0.0148170
818.059	0.0146907
818.137	0.0146638
818.215	0.0146062
818.293	0.0146543
818.371	0.0147540
818.450	0.0148330
818.528	0.0145963
818.606	0.0146969
818.684	0.0147535
818.762	0.0147544
818.840	0.0146653
818.918	0.0148205
818.996	0.0146045
819.075	0.0146979
819.153	0.0146281
819.231	0.0146637
819.309	0.0147504
819.387	0.0146568
819.465	0.0148149
819.543	0.0146668
819.621	0.0146873
819.700	0.0147724
819.778	0.0145700
819.856	0.0145953
819.934	0.0147884
820.012	0.0146513
820.090	0.0146434
820.168	0.0146965
820.246	0.0147202
820.325	0.0146957
820.403	0.0146307
820.481	0.0145688
820.559	0.0146675
820.637	0.0145461
820.715	0.0148048
820.793	0.0147316
820.871	0.0147218
820.950	0.0147488
821.028	0.0146111
821.106	0.0146951
821.184	0.0146071
821.262	0.0145857
821.340	0.0146481
821.418	0.0146428
821.496	0.0147289
821.575	0.0147497
821.653	0.0147196
821.731	0.0147561
821.809	0.0147275
821.887	0.0146815
821.965	0.0146577
822.043	0.0144500
822.121	0.0145902
822.200	0.0147383
822.278	0.0145947
822.356	0.0146792
822.434	0.0147572
822.512	0.0148007
822.590	0.0148267
822.668	0.0147562
822.746	0.0144970
822.825	0.0145853
822.903	0.0147150
822.981	0.0148056
823.059	0.0144464
823.137	0.0146290
823.215	0.0147199
823.293	0.0147882
823.371	0.0148005
823.450	0.0147285
823.528	0.0146017
823.606	0.0147040
823.684	0.0146382
823.762	0.0147771
823.840	0.0149050
823.918	0.0148450
823.996	0.0147712
824.075	0.0149003
824.153	0.0147571
824.231	0.0147416
824.309	0.0147550
824.387	0.0147722
824.465	0.0148588
824.543	0.0149306
824.621	0.0148006
824.700	0.0148636
824.778	0.0147449
824.856	0.0147418
824.934	0.0147595
825.012	0.0146830
825.090	0.0146925
825.168	0.0147031
825.246	0.0148119
825.325	0.0147900
825.403	0.0146143
825.481	0.0146887
825.559	0.0148801
825.637	0.0147538
825.715	0.0147675
825.793	0.0147369
825.871	0.0146674
825.950	0.0147127
826.028	0.0147995
826.106	0.0146943
826.184	0.0146822
826.262	0.0148157
826.340	0.0146638
826.418	0.0147880
826.496	0.0148526
826.575	0.0147152
826.653	0.0146887
826.731	0.0146789
826.809	0.0146568
826.887	0.0147177
826.965	0.0147662
827.043	0.0146374
827.121	0.0147883
827.200	0.0146149
827.278	0.0147488
827.356	0.0145335
827.434	0.0146617
827.512	0.0146297
827.590	0.0146398
827.668	0.0145982
827.746	0.0145621
827.825	0.0147949
827.903	0.0146772
827.981	0.0147256
828.059	0.0147009
828.137	0.0147418
828.215	0.0146287
828.293	0.0147391
828.371	0.0147947
828.450	0.0146503
828.528	0.0146327
828.606	0.0146145
828.684	0.0146605
828.762	0.0147034
828.840	0.0146912
828.918	0.0146557
828.996	0.0145064
829.075	0.0145632
829.153	0.0146496
829.231	0.0145316
829.309	0.0146699
829.387	0.0146478
829.465	0.0145578
829.543	0.0145834
829.621	0.0145045
829.700	0.0147284
829.778	0.0146626
829.856	0.0146191
829.934	0.0145123
830.012	0.0147079
830.090	0.0147127
830.168	0.0145954
830.246	0.0146922
830.325	0.0147829
830.403	0.0146971
830.481	0.0145963
830.559	0.0146845
830.637	0.0147025
830.715	0.0147161
830.793	0.0147376
830.871	0.0146916
830.950	0.0147610
831.028	0.0147024
831.106	0.0146352
831.184	0.0146274
831.262	0.0146295
831.340	0.0147729
831.418	0.0146501
831.496	0.0146000
831.575	0.0146922
831.653	0.0145776
831.731	0.0144793
831.809	0.0146235
831.887	0.0147358
831.965	0.0145317
832.043	0.0145168
832.121	0.0146503
832.200	0.0144353
832.278	0.0144285
832.356	0.0145724
832.434	0.0145909
832.512	0.0144718
832.590	0.0146182
832.668	0.0146803
832.746	0.0146589
832.825	0.0145583
832.903	0.0146680
832.981	0.0145744
833.059	0.0144534
833.137	0.0146185
833.215	0.0147150
833.293	0.0146418
833.371	0.0147253
833.450	0.0146864
833.528	0.0146706
833.606	0.0146141
833.684	0.0145395
833.762	0.0146358
833.840	0.0148418
833.918	0.0146996
833.996	0.0146112
834.075	0.0145082
834.153	0.0148009
834.231	0.0147672
834.309	0.0147134
834.387	0.0146989
834.465	0.0148328
834.543	0.0146849
834.621	0.0147287
834.700	0.0146661
834.778	0.0146637
834.856	0.0147581
834.934	0.0146164
835.012	0.0146470
835.090	0.0147302
835.168	0.0147018
835.246	0.0147498
835.325	0.0146512
835.403	0.0145704
835.481	0.0146149
835.559	0.0147531
835.637	0.0148170
835.715	0.0146603
835.793	0.0145907
835.871	0.0147060
835.950	0.0147339
836.028	0.0147162
836.106	0.0146371
836.184	0.0147231
836.262	0.0146484
836.340	0.0146429
836.418	0.0146493
836.496	0.0146988
836.575	0.0146164
836.653	0.0145913
836.731	0.0146426
836.809	0.0147282
836.887	0.0146988
836.965	0.0146107
837.043	0.0146989
837.121	0.0147535
837.200	0.0146992
837.278	0.0146547
837.356	0.0147258
837.434	0.0146619
837.512	0.0147012
837.590	0.0146555
837.668	0.0147191
837.746	0.0146842
837.825	0.0146412
837.903	0.0146721
837.981	0.0147531
838.059	0.0147083
838.137	0.0146951
838.215	0.0145832
838.293	0.0147290
838.371	0.0146518
838.450	0.0147118
838.528	0.0147365
838.606	0.0147747
838.684	0.0147127
838.762	0.0146667
838.840	0.0146676
838.918	0.0146690
838.996	0.0146790
839.075	0.0146702
839.153	0.0146740
839.231	0.0147633
839.309	0.0147024
839.387	0.0147595
839.465	0.0145544
839.543	0.0145419
839.621	0.0145646
839.700	0.0144693
839.778	0.0146185
839.856	0.0147231
839.934	0.0146243
840.012	0.0146378
840.090	0.0146838
840.168	0.0147557
840.246	0.0145123
840.325	0.0144857
840.403	0.0147319
840.481	0.0146920
840.559	0.0146915
840.637	0.0146734
840.715	0.0145527
840.793	0.0146468
840.871	0.0145471
840.950	0.0144574
841.028	0.0146758
841.106	0.0147909
841.184	0.0145857
841.262	0.0146315
841.340	0.0146912
841.418	0.0146819
841.496	0.0145985
841.575	0.0147281
841.653	0.0145982
841.731	0.0148299
841.809	0.0146477
841.887	0.0145598
841.965	0.0147000
842.043	0.0147294
842.121	0.0145956
842.200	0.0145996
842.278	0.0146905
842.356	0.0146706
842.434	0.0145625
842.512	0.0146790
842.590	0.0146223
842.668	0.0145755
842.746	0.0146075
842.825	0.0145675
842.903	0.0147166
842.981	0.0145210
843.059	0.0146066
843.137	0.0145621
843.215	0.0146411
843.293	0.0145718
843.371	0.0146436
843.450	0.0146245
843.528	0.0147897
843.606	0.0145982
843.684	0.0146516
843.762	0.0147247
843.840	0.0146805
843.918	0.0147345
843.996	0.0147095
844.075	0.0147156
844.153	0.0148080
844.231	0.0146711
844.309	0.0147334
844.387	0.0146424
844.465	0.0146764
844.543	0.0148503
844.621	0.0147028
844.700	0.0147434
844.778	0.0148811
844.856	0.0147256
844.934	0.0147075
845.012	0.0147726
845.090	0.0147042
845.168	0.0147559
845.246	0.0146369
845.325	0.0146404
845.403	0.0147968
845.481	0.0147562
845.559	0.0146774
845.637	0.0148209
845.715	0.0146852
845.793	0.0146258
845.871	0.0147079
845.950	0.0146648
846.028	0.0146930
846.106	0.0146874
846.184	0.0148237
846.262	0.0147649
846.340	0.0148259
846.418	0.0147514
846.496	0.0148304
846.575	0.0148519
846.653	0.0146742
846.731	0.0147695
846.809	0.0147451
846.887	0.0148908
846.965	0.0147103
847.043	0.0147480
847.121	0.0148923
847.200	0.0148247
847.278	0.0147124
847.356	0.0146175
847.434	0.0147355
847.512	0.0147801
847.590	0.0146036
847.668	0.0146944
847.746	0.0146816
847.825	0.0146964
847.903	0.0147327
847.981	0.0146468
848.059	0.0146616
848.137	0.0147578
848.215	0.0146779
848.293	0.0146740
848.371	0.0146811
848.450	0.0147783
848.528	0.0146387
848.606	0.0146600
848.684	0.0147092
848.762	0.0147810
848.840	0.0146503
848.918	0.0146921
848.996	0.0147172
849.075	0.0147756
849.153	0.0147175
849.231	0.0145768
849.309	0.0145440
849.387	0.0147557
849.465	0.0148518
849.543	0.0147212
849.621	0.0147379
849.700	0.0147842
849.778	0.0148577
849.856	0.0146570
849.934	0.0147534
850.012	0.0147112
850.090	0.0147655
850.168	0.0147967
850.246	0.0146650
850.325	0.0145364
850.403	0.0146152
850.481	0.0147332
850.559	0.0147480
850.637	0.0146960
850.715	0.0146870
850.793	0.0145794
850.871	0.0146754
850.950	0.0148015
851.028	0.0146227
851.106	0.0147436
851.184	0.0148318
851.262	0.0147193
851.340	0.0146834
851.418	0.0148425
851.496	0.0147128
851.575	0.0147884
851.653	0.0146011
851.731	0.0147220
851.809	0.0146917
851.887	0.0146154
851.965	0.0145643
852.043	0.0147495
852.121	0.0148318
852.200	0.0146754
852.278	0.0146246
852.356	0.0147233
852.434	0.0147021
852.512	0.0148116
852.590	0.0146833
852.668	0.0145299
852.746	0.0146602
852.825	0.0146127
852.903	0.0147323
852.981	0.0147965
853.059	0.0147419
853.137	0.0146225
853.215	0.0145983
853.293	0.0146995
853.371	0.0146653
853.450	0.0147710
853.528	0.0146834
853.606	0.0145322
853.684	0.0145599
853.762	0.0145581
853.840	0.0146490
853.918	0.0146759
853.996	0.0146059
854.075	0.0145959
854.153	0.0145779
854.231	0.0147076
854.309	0.0146665
854.387	0.0145975
854.465	0.0145785
854.543	0.0143855
854.621	0.0145849
854.700	0.0145717
854.778	0.0145803
854.856	0.0146575
854.934	0.0145973
855.012	0.0145782
855.090	0.0144668
855.168	0.0145320
855.246	0.0145718
855.325	0.0146979
855.403	0.0146084
855.481	0.0146016
855.559	0.0146425
855.637	0.0146250
855.715	0.0146821
855.793	0.0146758
855.871	0.0145142
855.950	0.0147858
856.028	0.0146352
856.106	0.0146702
856.184	0.0147021
856.262	0.0144810
856.340	0.0147993
856.418	0.0146153
856.496	0.0146037
856.575	0.0146704
856.653	0.0147450
856.731	0.0146607
856.809	0.0144930
856.887	0.0147174
856.965	0.0146812
857.043	0.0146988
857.121	0.0146100
857.200	0.0146648
857.278	0.0146941
857.356	0.0145820
857.434	0.0146163
857.512	0.0147456
857.590	0.0146388
857.668	0.0147417
857.746	0.0146331
857.825	0.0145924
857.903	0.0146797
857.981	0.0147248
858.059	0.0147708
858.137	0.0147138
858.215	0.0146146
858.293	0.0146165
858.371	0.0146711
858.450	0.0147017
858.528	0.0146771
858.606	0.0146287
858.684	0.0147186
858.762	0.0146765
858.840	0.0148775
858.918	0.0148120
858.996	0.0145338
859.075	0.0145510
859.153	0.0147195
859.231	0.0146249
859.309	0.0146388
859.387	0.0146223
859.465	0.0147801
859.543	0.0148790
859.621	0.0147655
859.700	0.0147350
859.778	0.0146966
859.856	0.0146228
859.934	0.0146873
860.012	0.0146854
860.090	0.0147586
860.168	0.0146989
860.246	0.0145713
860.325	0.0145947
860.403	0.0145049
860.481	0.0147090
860.559	0.0145803
860.637	0.0146445
860.715	0.0146481
860.793	0.0146111
860.871	0.0146696
860.950	0.0146092
861.028	0.0145817
861.106	0.0146706
861.184	0.0147658
861.262	0.0146912
861.340	0.0146129
861.418	0.0147332
861.496	0.0146918
861.575	0.0146499
861.653	0.0146255
861.731	0.0146725
861.809	0.0147118
861.887	0.0146870
861.965	0.0145295
862.043	0.0145613
862.121	0.0146147
862.200	0.0147202
862.278	0.0148328
862.356	0.0146989
862.434	0.0146415
862.512	0.0146233
862.590	0.0147054
862.668	0.0148295
862.746	0.0146762
862.825	0.0146621
862.903	0.0145889
862.981	0.0147231
863.059	0.0145411
863.137	0.0146692
863.215	0.0145982
863.293	0.0146216
863.371	0.0146085
863.450	0.0145617
863.528	0.0144997
863.606	0.0145812
863.684	0.0146417
863.762	0.0146082
863.840	0.0146188
863.918	0.0144488
863.996	0.0146114
864.075	0.0146265
864.153	0.0146106
864.231	0.0145085
864.309	0.0147430
864.387	0.0145995
864.465	0.0146721
864.543	0.0145782
864.621	0.0146202
864.700	0.0145851
864.778	0.0146521
864.856	0.0147496
864.934	0.0146250
865.012	0.0144887
865.090	0.0146397
865.168	0.0148514
865.246	0.0147749
865.325	0.0147115
865.403	0.0146246
865.481	0.0146127
865.559	0.0145792
865.637	0.0145911
865.715	0.0147453
865.793	0.0146974
865.871	0.0146108
865.950	0.0146541
866.028	0.0149671
866.106	0.0148078
866.184	0.0147337
866.262	0.0148171
866.340	0.0145586
866.418	0.0148470
866.496	0.0148375
866.575	0.0147457
866.653	0.0148232
866.731	0.0147686
866.809	0.0145520
866.887	0.0146496
866.965	0.0146056
867.043	0.0146604
867.121	0.0146432
867.200	0.0146295
867.278	0.0146744
867.356	0.0148012
867.434	0.0146449
867.512	0.0147014
867.590	0.0146352
867.668	0.0147098
867.746	0.0146140
867.825	0.0148256
867.903	0.0146535
867.981	0.0146793
868.059	0.0147453
868.137	0.0147432
868.215	0.0147498
868.293	0.0146001
868.371	0.0147624
868.450	0.0146914
868.528	0.0145911
868.606	0.0147826
868.684	0.0148255
868.762	0.0147883
868.840	0.0146942
868.918	0.0147129
868.996	0.0148088
869.075	0.0145193
869.153	0.0146205
869.231	0.0148665
869.309	0.0146625
869.387	0.0146582
869.465	0.0146316
869.543	0.0147325
869.621	0.0147720
869.700	0.0146776
869.778	0.0146278
869.856	0.0147505
869.934	0.0147146
870.012	0.0147800
870.090	0.0147791
870.168	0.0149054
870.246	0.0147293
870.325	0.0146478
870.403	0.0146721
870.481	0.0147850
870.559	0.0146618
870.637	0.0146327
870.715	0.0145637
870.793	0.0146853
870.871	0.0147728
870.950	0.0146774
871.028	0.0145999
871.106	0.0146756
871.184	0.0147221
871.262	0.0147260
871.340	0.0147228
871.418	0.0147789
871.496	0.0146239
871.575	0.0146465
871.653	0.0147814
871.731	0.0145723
871.809	0.0146412
871.887	0.0147162
871.965	0.0146923
872.043	0.0145040
872.121	0.0145119
872.200	0.0145628
872.278	0.0146125
872.356	0.0146193
872.434	0.0147237
872.512	0.0147344
872.590	0.0146362
872.668	0.0148390
872.746	0.0146648
872.825	0.0146758
872.903	0.0147145
872.981	0.0146767
873.059	0.0146604
873.137	0.0148013
873.215	0.0147792
873.293	0.0147409
873.371	0.0147855
873.450	0.0147295
873.528	0.0146545
873.606	0.0146528
873.684	0.0146532
873.762	0.0146917
873.840	0.0146490
873.918	0.0146108
873.996	0.0146638
874.075	0.0146204
874.153	0.0145532
874.231	0.0146806
874.309	0.0147864
874.387	0.0146735
874.465	0.0145065
874.543	0.0147552
874.621	0.0147302
874.700	0.0146007
874.778	0.0147263
874.856	0.0147086
874.934	0.0146965
875.012	0.0145348
875.090	0.0146058
875.168	0.0146072
875.246	0.0146003
875.325	0.0147458
875.403	0.0146305
875.481	0.0147429
875.559	0.0147596
875.637	0.0146334
875.715	0.0147956
875.793	0.0148183
875.871	0.0147030
875.950	0.0148614
876.028	0.0147222
876.106	0.0147116
876.184	0.0146186
876.262	0.0145874
876.340	0.0145191
876.418	0.0145310
876.496	0.0145665
876.575	0.0147050
876.653	0.0148328
876.731	0.0146893
876.809	0.0145822
876.887	0.0146743
876.965	0.0146838
877.043	0.0146756
877.121	0.0147074
877.200	0.0148616
877.278	0.0148621
877.356	0.0147736
877.434	0.0147054
877.512	0.0147134
877.590	0.0147749
877.668	0.0147371
877.746	0.0147397
877.825	0.0147626
877.903	0.0148394
877.981	0.0147292
878.059	0.0146535
878.137	0.0145832
878.215	0.0147540
878.293	0.0148582
878.371	0.0147490
878.450	0.0145147
878.528	0.0146566
878.606	0.0147407
878.684	0.0147646
878.762	0.0146231
878.840	0.0146308
878.918	0.0147139
878.996	0.0146901
879.075	0.0145667
879.153	0.0146279
879.231	0.0146072
879.309	0.0146718
879.387	0.0146501
879.465	0.0145444
879.543	0.0145977
879.621	0.0145468
879.700	0.0146819
879.778	0.0145387
879.856	0.0145747
879.934	0.0146809
880.012	0.0146017
880.090	0.0147269
880.168	0.0146628
880.246	0.0146625
880.325	0.0145773
880.403	0.0147800
880.481	0.0148888
880.559	0.0147233
880.637	0.0147083
880.715	0.0147208
880.793	0.0148026
880.871	0.0147118
880.950	0.0147118
881.028	0.0148243
881.106	0.0148090
881.184	0.0147912
881.262	0.0147172
881.340	0.0146698
881.418	0.0146777
881.496	0.0147980
881.575	0.0147602
881.653	0.0147540
881.731	0.0147040
881.809	0.0147689
881.887	0.0147803
881.965	0.0147588
882.043	0.0147436
882.121	0.0149703
882.200	0.0147385
882.278	0.0147272
882.356	0.0147198
882.434	0.0147757
882.512	0.0146873
882.590	0.0147786
882.668	0.0146857
882.746	0.0147573
882.825	0.0145763
882.903	0.0146152
882.981	0.0145242
883.059	0.0146486
883.137	0.0148447
883.215	0.0147316
883.293	0.0148190
883.371	0.0146915
883.450	0.0147778
883.528	0.0146921
883.606	0.0147301
883.684	0.0147201
883.762	0.0147002
883.840	0.0147129
883.918	0.0147549
883.996	0.0147603
884.075	0.0147559
884.153	0.0148434
884.231	0.0147507
884.309	0.0146005
884.387	0.0147347
884.465	0.0147265
884.543	0.0147369
884.621	0.0147217
884.700	0.0148721
884.778	0.0148727
884.856	0.0147274
884.934	0.0147842
885.012	0.0147845
885.090	0.0146050
885.168	0.0147849
885.246	0.0147247
885.325	0.0146054
885.403	0.0146164
885.481	0.0146598
885.559	0.0146096
885.637	0.0145592
885.715	0.0146807
885.793	0.0147975
885.871	0.0146198
885.950	0.0145573
886.028	0.0146152
886.106	0.0146749
886.184	0.0146065
886.262	0.0147200
886.340	0.0146371
886.418	0.0146613
886.496	0.0147308
886.575	0.0146819
886.653	0.0146057
886.731	0.0146664
886.809	0.0146257
886.887	0.0146249
886.965	0.0147231
887.043	0.0144589
887.121	0.0145663
887.200	0.0146426
887.278	0.0145691
887.356	0.0145087
887.434	0.0145518
887.512	0.0145411
887.590	0.0146925
887.668	0.0145660
887.746	0.0146281
887.825	0.0146172
887.903	0.0145545
887.981	0.0147585
888.059	0.0146151
888.137	0.0145066
888.215	0.0147469
888.293	0.0146925
888.371	0.0145997
888.450	0.0146279
888.528	0.0146603
888.606	0.0146400
888.684	0.0146726
888.762	0.0144719
888.840	0.0146730
888.918	0.0145755
888.996	0.0145358
889.075	0.0146317
889.153	0.0145561
889.231	0.0146029
889.309	0.0147326
889.387	0.0146463
889.465	0.0146828
889.543	0.0146205
889.621	0.0145345
889.700	0.0146247
889.778	0.0147912
889.856	0.0145838
889.934	0.0145486
890.012	0.0146041
890.090	0.0145972
890.168	0.0147166
890.246	0.0146423
890.325	0.0145242
890.403	0.0145506
890.481	0.0145496
890.559	0.0147972
890.637	0.0146594
890.715	0.0146434
890.793	0.0145899
890.871	0.0146120
890.950	0.0146989
891.028	0.0146454
891.106	0.0146747
891.184	0.0148180
891.262	0.0147416
891.340	0.0146102
891.418	0.0146965
891.496	0.0147333
891.575	0.0146690
891.653	0.0146676
891.731	0.0145560
891.809	0.0146860
891.887	0.0147459
891.965	0.0145229
892.043	0.0144356
892.121	0.0144220
892.200	0.0145706
892.278	0.0145832
892.356	0.0146349
892.434	0.0146043
892.512	0.0145690
892.590	0.0146396
892.668	0.0146721
892.746	0.0144742
892.825	0.0146061
892.903	0.0146027
892.981	0.0145163
893.059	0.0146795
893.137	0.0145080
893.215	0.0145853
893.293	0.0144688
893.371	0.0146294
893.450	0.0148081
893.528	0.0146535
893.606	0.0145638
893.684	0.0145396
893.762	0.0144992
893.840	0.0144537
893.918	0.0145599
893.996	0.0147210
894.075	0.0146777
894.153	0.0145287
894.231	0.0145401
894.309	0.0145707
894.387	0.0145367
894.465	0.0146784
894.543	0.0147001
894.621	0.0146146
894.700	0.0146102
894.778	0.0147424
894.856	0.0146333
894.934	0.0147517
895.012	0.0145899
895.090	0.0146890
895.168	0.0146947
895.246	0.0145914
895.325	0.0146230
895.403	0.0147035
895.481	0.0147121
895.559	0.0146282
895.637	0.0146500
895.715	0.0146924
895.793	0.0146933
895.871	0.0147739
895.950	0.0147618
896.028	0.0146799
896.106	0.0146761
896.184	0.0146819
896.262	0.0146484
896.340	0.0146468
896.418	0.0146290
896.496	0.0146584
896.575	0.0144907
896.653	0.0146281
896.731	0.0146132
896.809	0.0145778
896.887	0.0147601
896.965	0.0147276
897.043	0.0146565
897.121	0.0145995
897.200	0.0146677
897.278	0.0146758
897.356	0.0146752
897.434	0.0146191
897.512	0.0148650
897.590	0.0148738
897.668	0.0147115
897.746	0.0146334
897.825	0.0147417
897.903	0.0148464
897.981	0.0148204
898.059	0.0147281
898.137	0.0146225
898.215	0.0146263
898.293	0.0146720
898.371	0.0146339
898.450	0.0145533
898.528	0.0146546
898.606	0.0146296
898.684	0.0147781
898.762	0.0147083
898.840	0.0146432
898.918	0.0147144
898.996	0.0145608
899.075	0.0146440
899.153	0.0147765
899.231	0.0146610
899.309	0.0146478
899.387	0.0147021
899.465	0.0147281
899.543	0.0146858
899.621	0.0147032
899.700	0.0145290
899.778	0.0148787
899.856	0.0147609
899.934	0.0147079
900.012	0.0146384
900.090	0.0145882
900.168	0.0146499
900.246	0.0146999
900.325	0.0146833
900.403	0.0146647
900.481	0.0146983
900.559	0.0146980
900.637	0.0146707
900.715	0.0146813
900.793	0.0147959
900.871	0.0147142
900.950	0.0148118
901.028	0.0146494
901.106	0.0144896
901.184	0.0146832
901.262	0.0147152
901.340	0.0147277
901.418	0.0145521
901.496	0.0144420
901.575	0.0147504
901.653	0.0146493
901.731	0.0147362
901.809	0.0146257
901.887	0.0145495
901.965	0.0146508
902.043	0.0146288
902.121	0.0145499
902.200	0.0146923
902.278	0.0148538
902.356	0.0147887
902.434	0.0147005
902.512	0.0147097
902.590	0.0147276
902.668	0.0146952
902.746	0.0147221
902.825	0.0147202
902.903	0.0146313
902.981	0.0146935
903.059	0.0148181
903.137	0.0148652
903.215	0.0147089
903.293	0.0147334
903.371	0.0146439
903.450	0.0147959
903.528	0.0146082
903.606	0.0145767
903.684	0.0147205
903.762	0.0146941
903.840	0.0145712
903.918	0.0144987
903.996	0.0146718
904.075	0.0146625
904.153	0.0145675
904.231	0.0147676
904.309	0.0146008
904.387	0.0146630
904.465	0.0148083
904.543	0.0146686
904.621	0.0147314
904.700	0.0145641
904.778	0.0146819
904.856	0.0147134
904.934	0.0147066
905.012	0.0146795
905.090	0.0146714
905.168	0.0147119
905.246	0.0148016
905.325	0.0146960
905.403	0.0147076
905.481	0.0147230
905.559	0.0147575
905.637	0.0147528
905.715	0.0147229
905.793	0.0146373
905.871	0.0146617
905.950	0.0147796
906.028	0.0147743
906.106	0.0147449
906.184	0.0148206
906.262	0.0147454
906.340	0.0146968
906.418	0.0146648
906.496	0.0146404
906.575	0.0147015
906.653	0.0147179
906.731	0.0145705
906.809	0.0147389
906.887	0.0147127
906.965	0.0146100
907.043	0.0147237
907.121	0.0146751
907.200	0.0146152
907.278	0.0146651
907.356	0.0146500
907.434	0.0147251
907.512	0.0146653
907.590	0.0146278
907.668	0.0146320
907.746	0.0146383
907.825	0.0146478
907.903	0.0146606
907.981	0.0145303
908.059	0.0146743
908.137	0.0147415
908.215	0.0146355
908.293	0.0146475
908.371	0.0145842
908.450	0.0145573
908.528	0.0146655
908.606	0.0145156
908.684	0.0146806
908.762	0.0145709
908.840	0.0146230
908.918	0.0146555
908.996	0.0145344
909.075	0.0146070
909.153	0.0145428
909.231	0.0145641
909.309	0.0144764
909.387	0.0146969
909.465	0.0145932
909.543	0.0144892
909.621	0.0146035
909.700	0.0144774
909.778	0.0144531
909.856	0.0144701
909.934	0.0146304
910.012	0.0146698
910.090	0.0146251
910.168	0.0145415
910.246	0.0145322
910.325	0.0146622
910.403	0.0146954
910.481	0.0145029
910.559	0.0146268
910.637	0.0145659
910.715	0.0147313
910.793	0.0146837
910.871	0.0146663
910.950	0.0145388
911.028	0.0145742
911.106	0.0145456
911.184	0.0145399
911.262	0.0146580
911.340	0.0146360
911.418	0.0145578
911.496	0.0145051
911.575	0.0146237
911.653	0.0146021
911.731	0.0145928
911.809	0.0145952
911.887	0.0146188
911.965	0.0145499
912.043	0.0144747
912.121	0.0147221
912.200	0.0148071
912.278	0.0145911
912.356	0.0146287
912.434	0.0146450
912.512	0.0147190
912.590	0.0146657
912.668	0.0145910
912.746	0.0146777
912.825	0.0145712
912.903	0.0145699
912.981	0.0146164
913.059	0.0145280
913.137	0.0145649
913.215	0.0145670
913.293	0.0146384
913.371	0.0146272
913.450	0.0146021
913.528	0.0145930
913.606	0.0146449
913.684	0.0147225
913.762	0.0146934
913.840	0.0146658
913.918	0.0145767
913.996	0.0147095
914.075	0.0145691
914.153	0.0145871
914.231	0.0146141
914.309	0.0148183
914.387	0.0145822
914.465	0.0147649
914.543	0.0145924
914.621	0.0146073
914.700	0.0146908
914.778	0.0147076
914.856	0.0147125
914.934	0.0147321
915.012	0.0146688
915.090	0.0147076
915.168	0.0148059
915.246	0.0146225
915.325	0.0146732
915.403	0.0146317
915.481	0.0145280
915.559	0.0147131
915.637	0.0147060
915.715	0.0147189
915.793	0.0147295
915.871	0.0146175
915.950	0.0146404
916.028	0.0146386
916.106	0.0145552
916.184	0.0145907
916.262	0.0146797
916.340	0.0147594
916.418	0.0147221
916.496	0.0146867
916.575	0.0146794
916.653	0.0147835
916.731	0.0146530
916.809	0.0148150
916.887	0.0146566
916.965	0.0146128
917.043	0.0147799
917.121	0.0146511
917.200	0.0146736
917.278	0.0147120
917.356	0.0146014
917.434	0.0146281
917.512	0.0146783
917.590	0.0146530
917.668	0.0147673
917.746	0.0145813
917.825	0.0146418
917.903	0.0145943
917.981	0.0144931
918.059	0.0146928
918.137	0.0146622
918.215	0.0146520
918.293	0.0146883
918.371	0.0148097
918.450	0.0146973
918.528	0.0147075
918.606	0.0145022
918.684	0.0148186
918.762	0.0146719
918.840	0.0146049
918.918	0.0147865
918.996	0.0146298
919.075	0.0147532
919.153	0.0147025
919.231	0.0147968
919.309	0.0147885
919.387	0.0147302
919.465	0.0146291
919.543	0.0146838
919.621	0.0147591
919.700	0.0147666
919.778	0.0147226
919.856	0.0146554
919.934	0.0146362
920.012	0.0147462
920.090	0.0145421
920.168	0.0145609
920.246	0.0146430
920.325	0.0146021
920.403	0.0147279
920.481	0.0145930
920.559	0.0146341
920.637	0.0147230
920.715	0.0146567
920.793	0.0146575
920.871	0.0147300
920.950	0.0146059
921.028	0.0146590
921.106	0.0146605
921.184	0.0146870
921.262	0.0147016
921.340	0.0146207
921.418	0.0145887
921.496	0.0146909
921.575	0.0146481
921.653	0.0146804
921.731	0.0146128
921.809	0.0146857
921.887	0.0146983
921.965	0.0147878
922.043	0.0146285
922.121	0.0146812
922.200	0.0147918
922.278	0.0147552
922.356	0.0146926
922.434	0.0147379
922.512	0.0146360
922.590	0.0147614
922.668	0.0147461
922.746	0.0147459
922.825	0.0147380
922.903	0.0147618
922.981	0.0148461
923.059	0.0146896
923.137	0.0146051
923.215	0.0146510
923.293	0.0147878
923.371	0.0147071
923.450	0.0146467
923.528	0.0148060
923.606	0.0148756
923.684	0.0148043
923.762	0.0148676
923.840	0.0147601
923.918	0.0149393
923.996	0.0148768
924.075	0.0148471
924.153	0.0147630
924.231	0.0148814
924.309	0.0148315
924.387	0.0148950
924.465	0.0149516
924.543	0.0148191
924.621	0.0148267
924.700	0.0148469
924.778	0.0149316
924.856	0.0147475
924.934	0.0146735
925.012	0.0148692
925.090	0.0148721
925.168	0.0147093
925.246	0.0148005
925.325	0.0146503
925.403	0.0146419
925.481	0.0147289
925.559	0.0147364
925.637	0.0146954
925.715	0.0147131
925.793	0.0147501
925.871	0.0146699
925.950	0.0147932
926.028	0.0146742
926.106	0.0146579
926.184	0.0147383
926.262	0.0146497
926.340	0.0147302
926.418	0.0148860
926.496	0.0147385
926.575	0.0145959
926.653	0.0147433
926.731	0.0147946
926.809	0.0147327
926.887	0.0147484
926.965	0.0147394
927.043	0.0147608
927.121	0.0145438
927.200	0.0147807
927.278	0.0147936
927.356	0.0146829
927.434	0.0145795
927.512	0.0147848
927.590	0.0146864
927.668	0.0146305
927.746	0.0145892
927.825	0.0146943
927.903	0.0146026
927.981	0.0146194
928.059	0.0145660
928.137	0.0145797
928.215	0.0145928
928.293	0.0147095
928.371	0.0147270
928.450	0.0145267
928.528	0.0145293
928.606	0.0144205
928.684	0.0145236
928.762	0.0146400
928.840	0.0144432
928.918	0.0145926
928.996	0.0146763
929.075	0.0147108
929.153	0.0146923
929.231	0.0146159
929.309	0.0145122
929.387	0.0146181
929.465	0.0145784
929.543	0.0145400
929.621	0.0147209
929.700	0.0146367
929.778	0.0146050
929.856	0.0146404
929.934	0.0146905
930.012	0.0145605
930.090	0.0146460
930.168	0.0145485
930.246	0.0145773
930.325	0.0147269
930.403	0.0145359
930.481	0.0145482
930.559	0.0144976
930.637	0.0146051
930.715	0.0146507
930.793	0.0147197
930.871	0.0145471
930.950	0.0145434
931.028	0.0145168
931.106	0.0146446
931.184	0.0145821
931.262	0.0145808
931.340	0.0146319
931.418	0.0144321
931.496	0.0146038
931.575	0.0145633
931.653	0.0146767
931.731	0.0146043
931.809	0.0145981
931.887	0.0145768
931.965	0.0145335
932.043	0.0144965
932.121	0.0146227
932.200	0.0146040
932.278	0.0145884
932.356	0.0146974
932.434	0.0146053
932.512	0.0146234
932.590	0.0146957
932.668	0.0146599
932.746	0.0145114
932.825	0.0146115
932.903	0.0144942
932.981	0.0145774
933.059	0.0146328
933.137	0.0146120
933.215	0.0146716
933.293	0.0146871
933.371	0.0146035
933.450	0.0146419
933.528	0.0146070
933.606	0.0146597
933.684	0.0147672
933.762	0.0146430
933.840	0.0147345
933.918	0.0148101
933.996	0.0146268
934.075	0.0146052
934.153	0.0146479
934.231	0.0147147
934.309	0.0146629
934.387	0.0146510
934.465	0.0146436
934.543	0.0145744
934.621	0.0146056
934.700	0.0146732
934.778	0.0145703
934.856	0.0145892
934.934	0.0146257
935.012	0.0144594
935.090	0.0146667
935.168	0.0146404
935.246	0.0144987
935.325	0.0146720
935.403	0.0147543
935.481	0.0145293
935.559	0.0145499
935.637	0.0146352
935.715	0.0146632
935.793	0.0145453
935.871	0.0145125
935.950	0.0147511
936.028	0.0146112
936.106	0.0145802
936.184	0.0145589
936.262	0.0146666
936.340	0.0146449
936.418	0.0145185
936.496	0.0145884
936.575	0.0147527
936.653	0.0147209
936.731	0.0146606
936.809	0.0145894
936.887	0.0145876
936.965	0.0145502
937.043	0.0146394
937.121	0.0145929
937.200	0.0146333
937.278	0.0147132
937.356	0.0146847
937.434	0.0145671
937.512	0.0146004
937.590	0.0147441
937.668	0.0146704
937.746	0.0147111
937.825	0.0147162
937.903	0.0145096
937.981	0.0147241
938.059	0.0146597
938.137	0.0146529
938.215	0.0146738
938.293	0.0147889
938.371	0.0146228
938.450	0.0146225
938.528	0.0146444
938.606	0.0146452
938.684	0.0145969
938.762	0.0146203
938.840	0.0145883
938.918	0.0146831
938.996	0.0146799
939.075	0.0146542
939.153	0.0146526
939.231	0.0147446
939.309	0.0147498
939.387	0.0147382
939.465	0.0147216
939.543	0.0148690
939.621	0.0147080
939.700	0.0148065
939.778	0.0147226
939.856	0.0147164
939.934	0.0147990
940.012	0.0147305
940.090	0.0148507
940.168	0.0148222
940.246	0.0148260
940.325	0.0147102
940.403	0.0146829
940.481	0.0146469
940.559	0.0148235
940.637	0.0147578
940.715	0.0147359
940.793	0.0147169
940.871	0.0146776
940.950	0.0148460
941.028	0.0146769
941.106	0.0146598
941.184	0.0146487
941.262	0.0148219
941.340	0.0146958
941.418	0.0146416
941.496	0.0147066
941.575	0.0145320
941.653	0.0146763
941.731	0.0146632
941.809	0.0146830
941.887	0.0147433
941.965	0.0146777
942.043	0.0145725
942.121	0.0145555
942.200	0.0145499
942.278	0.0145452
942.356	0.0146745
942.434	0.0147834
942.512	0.0147288
942.590	0.0146969
942.668	0.0146876
942.746	0.0146938
942.825	0.0146884
942.903	0.0147958
942.981	0.0147399
943.059	0.0147006
943.137	0.0147051
943.215	0.0146137
943.293	0.0146810
943.371	0.0148463
943.450	0.0146104
943.528	0.0147299
943.606	0.0147874
943.684	0.0147789
943.762	0.0148238
943.840	0.0147771
943.918	0.0147939
943.996	0.0146678
944.075	0.0148167
944.153	0.0147253
944.231	0.0147005
944.309	0.0147759
944.387	0.0147310
944.465	0.0148032
944.543	0.0146264
944.621	0.0146100
944.700	0.0145783
944.778	0.0146704
944.856	0.0146954
944.934	0.0146642
945.012	0.0146535
945.090	0.0145782
945.168	0.0146973
945.246	0.0147912
945.325	0.0146609
945.403	0.0147784
945.481	0.0145642
945.559	0.0147323
945.637	0.0147438
945.715	0.0147594
945.793	0.0145885
945.871	0.0145411
945.950	0.0145586
946.028	0.0147057
946.106	0.0145654
946.184	0.0146591
946.262	0.0145478
946.340	0.0147658
946.418	0.0148020
946.496	0.0146912
946.575	0.0147317
946.653	0.0146776
946.731	0.0147361
946.809	0.0147054
946.887	0.0147486
946.965	0.0146811
947.043	0.0147732
947.121	0.0148100
947.200	0.0147469
947.278	0.0147150
947.356	0.0148316
947.434	0.0148380
947.512	0.0147731
947.590	0.0146832
947.668	0.0147009
947.746	0.0147712
947.825	0.0148184
947.903	0.0148103
947.981	0.0148499
948.059	0.0146674
948.137	0.0147411
948.215	0.0146419
948.293	0.0147794
948.371	0.0148393
948.450	0.0147538
948.528	0.0148063
948.606	0.0147461
948.684	0.0148351
948.762	0.0146747
948.840	0.0147598
948.918	0.0147405
948.996	0.0147271
949.075	0.0148556
949.153	0.0147968
949.231	0.0145398
949.309	0.0146944
949.387	0.0147147
949.465	0.0147441
949.543	0.0147732
949.621	0.0146971
949.700	0.0146310
949.778	0.0148166
949.856	0.0146687
949.934	0.0147769
950.012	0.0147244
950.090	0.0147379
950.168	0.0147186
950.246	0.0146501
950.325	0.0146798
950.403	0.0146433
950.481	0.0147629
950.559	0.0146642
950.637	0.0148676
950.715	0.0147942
950.793	0.0147617
950.871	0.0145925
950.950	0.0147568
951.028	0.0148004
951.106	0.0146463
951.184	0.0147798
951.262	0.0147663
951.340	0.0147016
951.418	0.0147002
951.496	0.0146728
951.575	0.0146741
951.653	0.0146737
951.731	0.0147096
951.809	0.0146172
951.887	0.0148074
951.965	0.0147131
952.043	0.0147252
952.121	0.0147032
952.200	0.0145872
952.278	0.0145762
952.356	0.0146115
952.434	0.0147202
952.512	0.0146273
952.590	0.0148026
952.668	0.0146538
952.746	0.0145712
952.825	0.0145872
952.903	0.0147071
952.981	0.0146851
953.059	0.0148284
953.137	0.0146140
953.215	0.0147186
953.293	0.0146871
953.371	0.0148073
953.450	0.0146584
953.528	0.0146635
953.606	0.0147228
953.684	0.0147648
953.762	0.0146918
953.840	0.0146874
953.918	0.0147050
953.996	0.0146323
954.075	0.0147300
954.153	0.0147604
954.231	0.0145090
954.309	0.0145808
954.387	0.0145977
954.465	0.0146006
954.543	0.0144736
954.621	0.0145479
954.700	0.0146270
954.778	0.0146118
954.856	0.0146787
954.934	0.0146534
955.012	0.0145612
955.090	0.0145552
955.168	0.0145734
955.246	0.0145026
955.325	0.0146152
955.403	0.0146227
955.481	0.0146362
955.559	0.0145716
955.637	0.0146123
955.715	0.0147266
955.793	0.0145665
955.871	0.0144969
955.950	0.0148047
956.028	0.0145654
956.106	0.0146273
956.184	0.0147960
956.262	0.0146333
956.340	0.0146101
956.418	0.0147254
956.496	0.0146911
956.575	0.0146494
956.653	0.0147703
956.731	0.0146774
956.809	0.0145721
956.887	0.0147467
956.965	0.0145506
957.043	0.0147177
957.121	0.0145791
957.200	0.0145934
957.278	0.0145339
957.356	0.0145989
957.434	0.0146661
957.512	0.0145241
957.590	0.0145875
957.668	0.0145659
957.746	0.0146408
957.825	0.0146179
957.903	0.0146165
957.981	0.0146747
958.059	0.0145802
958.137	0.0147733
958.215	0.0145914
958.293	0.0145073
958.371	0.0145758
958.450	0.0146536
958.528	0.0144998
958.606	0.0146133
958.684	0.0147519
958.762	0.0146706
958.840	0.0147008
958.918	0.0147144
958.996	0.0148316
959.075	0.0146442
959.153	0.0144995
959.231	0.0147571
959.309	0.0146266
959.387	0.0145054
959.465	0.0145905
959.543	0.0145805
959.621	0.0147234
959.700	0.0146297
959.778	0.0145126
959.856	0.0147163
959.934	0.0146744
960.012	0.0146651
960.090	0.0146557
960.168	0.0146889
960.246	0.0146247
960.325	0.0146069
960.403	0.0147268
960.481	0.0144944
960.559	0.0145206
960.637	0.0146272
960.715	0.0146204
960.793	0.0146797
960.871	0.0147865
960.950	0.0146700
961.028	0.0147054
961.106	0.0146207
961.184	0.0147215
961.262	0.0146791
961.340	0.0146559
961.418	0.0146384
961.496	0.0145197
961.575	0.0146992
961.653	0.0145885
961.731	0.0146741
961.809	0.0146757
961.887	0.0146877
961.965	0.0145678
962.043	0.0146413
962.121	0.0146848
962.200	0.0146923
962.278	0.0146597
962.356	0.0146954
962.434	0.0145748
962.512	0.0145229
962.590	0.0146871
962.668	0.0146220
962.746	0.0146030
962.825	0.0147618
962.903	0.0146957
962.981	0.0144763
963.059	0.0147456
963.137	0.0147409
963.215	0.0146400
963.293	0.0146729
963.371	0.0146407
963.450	0.0146412
963.528	0.0146780
963.606	0.0146535
963.684	0.0145916
963.762	0.0145110
963.840	0.0145686
963.918	0.0146572
963.996	0.0147678
964.075	0.0145650
964.153	0.0146385
964.231	0.0145670
964.309	0.0146776
964.387	0.0146525
964.465	0.0144873
964.543	0.0145812
964.621	0.0146239
964.700	0.0146261
964.778	0.0146034
964.856	0.0146794
964.934	0.0146015
965.012	0.0145241
965.090	0.0145647
965.168	0.0146339
965.246	0.0147524
965.325	0.0146438
965.403	0.0146091
965.481	0.0145396
965.559	0.0146496
965.637	0.0146445
965.715	0.0146220
965.793	0.0146717
965.871	0.0146100
965.950	0.0146072
966.028	0.0146466
966.106	0.0146770
966.184	0.0147005
966.262	0.0145757
966.340	0.0146581
966.418	0.0146216
966.496	0.0147214
966.575	0.0147878
966.653	0.0147034
966.731	0.0146336
966.809	0.0147690
966.887	0.0145675
966.965	0.0145412
967.043	0.0146761
967.121	0.0146722
967.200	0.0147430
967.278	0.0145278
967.356	0.0146370
967.434	0.0146201
967.512	0.0146375
967.590	0.0146719
967.668	0.0146864
967.746	0.0145844
967.825	0.0145962
967.903	0.0147385
967.981	0.0147905
968.059	0.0146333
968.137	0.0146626
968.215	0.0145854
968.293	0.0147205
968.371	0.0146053
968.450	0.0148680
968.528	0.0147756
968.606	0.0146496
968.684	0.0147319
968.762	0.0148037
968.840	0.0146934
968.918	0.0147958
968.996	0.0147348
969.075	0.0147200
969.153	0.0146770
969.231	0.0146447
969.309	0.0148811
969.387	0.0146791
969.465	0.0147919
969.543	0.0146056
969.621	0.0147931
969.700	0.0146648
969.778	0.0147086
969.856	0.0146488
969.934	0.0147828
970.012	0.0146905
970.090	0.0146906
970.168	0.0147815
970.246	0.0147530
970.325	0.0145480
970.403	0.0147052
970.481	0.0147997
970.559	0.0147420
970.637	0.0147693
970.715	0.0146149
970.793	0.0147498
970.871	0.0146527
970.950	0.0148430
971.028	0.0147840
971.106	0.0147042
971.184	0.0147492
971.262	0.0147307
971.340	0.0148038
971.418	0.0148162
971.496	0.0147463
971.575	0.0147652
971.653	0.0148027
971.731	0.0148562
971.809	0.0146927
971.887	0.0146698
971.965	0.0147182
972.043	0.0148358
972.121	0.0146825
972.200	0.0147626
972.278	0.0146368
972.356	0.0148470
972.434	0.0146587
972.512	0.0147611
972.590	0.0147725
972.668	0.0148425
972.746	0.0147909
972.825	0.0146654
972.903	0.0145334
972.981	0.0145926
973.059	0.0147046
973.137	0.0147225
973.215	0.0146954
973.293	0.0147225
973.371	0.0147013
973.450	0.0148110
973.528	0.0146696
973.606	0.0146722
973.684	0.0146960
973.762	0.0147400
973.840	0.0146977
973.918	0.0147827
973.996	0.0147929
974.075	0.0147153
974.153	0.0147431
974.231	0.0146530
974.309	0.0147464
974.387	0.0148218
974.465	0.0146973
974.543	0.0146973
974.621	0.0148323
974.700	0.0148013
974.778	0.0147768
974.856	0.0146496
974.934	0.0148006
975.012	0.0146403
975.090	0.0146877
975.168	0.0147830
975.246	0.0147577
975.325	0.0148814
975.403	0.0147241
975.481	0.0144378
975.559	0.0145036
975.637	0.0146739
975.715	0.0146199
975.793	0.0144660
975.871	0.0146397
975.950	0.0146547
976.028	0.0146310
976.106	0.0145923
976.184	0.0145233
976.262	0.0146756
976.340	0.0147017
976.418	0.0146603
976.496	0.0146573
976.575	0.0145487
976.653	0.0148116
976.731	0.0146778
976.809	0.0146799
976.887	0.0147549
976.965	0.0147202
977.043	0.0146481
977.121	0.0148013
977.200	0.0146863
977.278	0.0145153
977.356	0.0146150
977.434	0.0146294
977.512	0.0146506
977.590	0.0147245
977.668	0.0147396
977.746	0.0147514
977.825	0.0147128
977.903	0.0145903
977.981	0.0148616
978.059	0.0148129
978.137	0.0147249
978.215	0.0146489
978.293	0.0147323
978.371	0.0147084
978.450	0.0146891
978.528	0.0146648
978.606	0.0147105
978.684	0.0147622
978.762	0.0148204
978.840	0.0147180
978.918	0.0146649
978.996	0.0146409
979.075	0.0146781
979.153	0.0148662
979.231	0.0146846
979.309	0.0148515
979.387	0.0148353
979.465	0.0147343
979.543	0.0147472
979.621	0.0148020
979.700	0.0148277
979.778	0.0148612
979.856	0.0147330
979.934	0.0146068
980.012	0.0146861
980.090	0.0147609
980.168	0.0146978
980.246	0.0148178
980.325	0.0146696
980.403	0.0148062
980.481	0.0147435
980.559	0.0148444
980.637	0.0146440
980.715	0.0147607
980.793	0.0147626
980.871	0.0147082
980.950	0.0147256
981.028	0.0147340
981.106	0.0147026
981.184	0.0148833
981.262	0.0147675
981.340	0.0148560
981.418	0.0148118
981.496	0.0147971
981.575	0.0148808
981.653	0.0144691
981.731	0.0147338
981.809	0.0147137
981.887	0.0147796
981.965	0.0146101
982.043	0.0146876
982.121	0.0146355
982.200	0.0145829
982.278	0.0146247
982.356	0.0146409
982.434	0.0147585
982.512	0.0147429
982.590	0.0146714
982.668	0.0148156
982.746	0.0146381
982.825	0.0147287
982.903	0.0146611
982.981	0.0145717
983.059	0.0147122
983.137	0.0147700
983.215	0.0148164
983.293	0.0146897
983.371	0.0147197
983.450	0.0146255
983.528	0.0147350
983.606	0.0145759
983.684	0.0145600
983.762	0.0146173
983.840	0.0146502
983.918	0.0145954
983.996	0.0146701
984.075	0.0146899
984.153	0.0147162
984.231	0.0146322
984.309	0.0145768
984.387	0.0146737
984.465	0.0146587
984.543	0.0144740
984.621	0.0147522
984.700	0.0146107
984.778	0.0144858
984.856	0.0145736
984.934	0.0146000
985.012	0.0145373
985.090	0.0146373
985.168	0.0146419
985.246	0.0144859
985.325	0.0146229
985.403	0.0146580
985.481	0.0146576
985.559	0.0144820
985.637	0.0145297
985.715	0.0146142
985.793	0.0147490
985.871	0.0145097
985.950	0.0144834
986.028	0.0146898
986.106	0.0147794
986.184	0.0145836
986.262	0.0145596
986.340	0.0146060
986.418	0.0146639
986.496	0.0147734
986.575	0.0145438
986.653	0.0146411
986.731	0.0146671
986.809	0.0146030
986.887	0.0146806
986.965	0.0146862
987.043	0.0148157
987.121	0.0145978
987.200	0.0146678
987.278	0.0146191
987.356	0.0146017
987.434	0.0145866
987.512	0.0145391
987.590	0.0147374
987.668	0.0146297
987.746	0.0146443
987.825	0.0145982
987.903	0.0146578
987.981	0.0145841
988.059	0.0146127
988.137	0.0146037
988.215	0.0146660
988.293	0.0147195
988.371	0.0144845
988.450	0.0145000
988.528	0.0146795
988.606	0.0146823
988.684	0.0147401
988.762	0.0145774
988.840	0.0147036
988.918	0.0146021
988.996	0.0145901
989.075	0.0145156
989.153	0.0146279
989.231	0.0145483
989.309	0.0146348
989.387	0.0146002
989.465	0.0145496
989.543	0.0146766
989.621	0.0146735
989.700	0.0146801
989.778	0.0146107
989.856	0.0145975
989.934	0.0146352
990.012	0.0145601
990.090	0.0145306
990.168	0.0147552
990.246	0.0145784
990.325	0.0144843
990.403	0.0145782
990.481	0.0145837
990.559	0.0146277
990.637	0.0145216
990.715	0.0145471
990.793	0.0146351
990.871	0.0145242
990.950	0.0145057
991.028	0.0147085
991.106	0.0146216
991.184	0.0146565
991.262	0.0146768
991.340	0.0145549
991.418	0.0145324
991.496	0.0147591
991.575	0.0147530
991.653	0.0148145
991.731	0.0147652
991.809	0.0146506
991.887	0.0146168
991.965	0.0147406
992.043	0.0147341
992.121	0.0147283
992.200	0.0146927
992.278	0.0146540
992.356	0.0146578
992.434	0.0146615
992.512	0.0146877
992.590	0.0145722
992.668	0.0146510
992.746	0.0146056
992.825	0.0146527
992.903	0.0146633
992.981	0.0147350
993.059	0.0146114
993.137	0.0147480
993.215	0.0147057
993.293	0.0146510
993.371	0.0146252
993.450	0.0147569
993.528	0.0146761
993.606	0.0146009
993.684	0.0147172
993.762	0.0147688
993.840	0.0148383
993.918	0.0147623
993.996	0.0147899
994.075	0.0146007
994.153	0.0146774
994.231	0.0147607
994.309	0.0146830
994.387	0.0148728
994.465	0.0147135
994.543	0.0146893
994.621	0.0148088
994.700	0.0148650
994.778	0.0146278
994.856	0.0149391
994.934	0.0146424
995.012	0.0147485
995.090	0.0147096
995.168	0.0147560
995.246	0.0148223
995.325	0.0147532
995.403	0.0148112
995.481	0.0146044
995.559	0.0146899
995.637	0.0146812
995.715	0.0146507
995.793	0.0147580
995.871	0.0145591
995.950	0.0146791
996.028	0.0148188
996.106	0.0147076
996.184	0.0147608
996.262	0.0144977
996.340	0.0146616
996.418	0.0147417
996.496	0.0147573
996.575	0.0147283
996.653	0.0147388
996.731	0.0146297
996.809	0.0147236
996.887	0.0146913
996.965	0.0146307
997.043	0.0145195
997.121	0.0145805
997.200	0.0147104
997.278	0.0146727
997.356	0.0146584
997.434	0.0145470
997.512	0.0145759
997.590	0.0146707
997.668	0.0146282
997.746	0.0147773
997.825	0.0147875
997.903	0.0147458
997.981	0.0147889
998.059	0.0147442
998.137	0.0147599
998.215	0.0147788
998.293	0.0148068
998.371	0.0146930
998.450	0.0148474
998.528	0.0146996
998.606	0.0147559
998.684	0.0146739
998.762	0.0147584
998.840	0.0148053
998.918	0.0149623
