05/04/2022	21:39:54	Ver.	4.1	UNKNOWN
Optical Delay	678.996401	Delta X		0.078125	Sweeps	1	Scan Rate	0/0
Coordinates	Axis 1	NaN	Axis 2	NaN	Axis 3	NaN	Axis 4	NaN	Axis 5	NaN	Axis 6	0.000000
TX Power	0.000000	RX Power	0.000000

678.996	0.0142225
679.075	0.0143645
679.153	0.0144925
679.231	0.0144423
679.309	0.0146282
679.387	0.0145827
679.465	0.0144349
679.543	0.0143936
679.621	0.0143064
679.700	0.0141254
679.778	0.0139947
679.856	0.0138876
679.934	0.0138326
680.012	0.0139114
680.090	0.0139104
680.168	0.0140068
680.246	0.0140810
680.325	0.0144427
680.403	0.0145905
680.481	0.0146021
680.559	0.0147332
680.637	0.0146680
680.715	0.0147042
680.793	0.0145851
680.871	0.0144291
680.950	0.0143701
681.028	0.0143030
681.106	0.0140233
681.184	0.0140114
681.262	0.0138352
681.340	0.0138158
681.418	0.0138077
681.496	0.0138719
681.575	0.0138588
681.653	0.0140965
681.731	0.0141247
681.809	0.0142710
681.887	0.0143105
681.965	0.0144557
682.043	0.0145898
682.121	0.0146334
682.200	0.0146489
682.278	0.0144627
682.356	0.0144516
682.434	0.0144672
682.512	0.0141177
682.590	0.0141560
682.668	0.0141002
682.746	0.0141223
682.825	0.0141198
682.903	0.0139405
682.981	0.0140486
683.059	0.0142751
683.137	0.0142548
683.215	0.0143411
683.293	0.0146545
683.371	0.0146601
683.450	0.0146905
683.528	0.0148833
683.606	0.0149519
683.684	0.0146745
683.762	0.0148142
683.840	0.0148947
683.918	0.0146864
683.996	0.0145427
684.075	0.0143713
684.153	0.0142128
684.231	0.0139095
684.309	0.0137228
684.387	0.0136895
684.465	0.0134992
684.543	0.0135215
684.621	0.0133565
684.700	0.0132778
684.778	0.0134447
684.856	0.0134975
684.934	0.0136857
685.012	0.0137386
685.090	0.0138550
685.168	0.0139798
685.246	0.0140183
685.325	0.0142097
685.403	0.0143072
685.481	0.0144332
685.559	0.0144343
685.637	0.0145355
685.715	0.0144909
685.793	0.0146810
685.871	0.0146652
685.950	0.0147404
686.028	0.0147685
686.106	0.0148565
686.184	0.0147182
686.262	0.0147546
686.340	0.0147012
686.418	0.0148174
686.496	0.0148513
686.575	0.0148147
686.653	0.0146624
686.731	0.0147115
686.809	0.0148592
686.887	0.0146512
686.965	0.0147100
687.043	0.0144071
687.121	0.0141169
687.200	0.0139852
687.278	0.0136520
687.356	0.0134372
687.434	0.0131463
687.512	0.0129690
687.590	0.0128758
687.668	0.0128821
687.746	0.0130222
687.825	0.0131422
687.903	0.0134063
687.981	0.0136714
688.059	0.0139990
688.137	0.0143027
688.215	0.0147285
688.293	0.0147745
688.371	0.0149313
688.450	0.0152850
688.528	0.0153056
688.606	0.0152935
688.684	0.0150602
688.762	0.0150156
688.840	0.0147532
688.918	0.0143456
688.996	0.0142284
689.075	0.0140224
689.153	0.0137130
689.231	0.0139803
689.309	0.0138710
689.387	0.0138207
689.465	0.0139407
689.543	0.0140875
689.621	0.0142671
689.700	0.0144996
689.778	0.0146124
689.856	0.0147181
689.934	0.0145711
690.012	0.0145728
690.090	0.0145490
690.168	0.0144206
690.246	0.0141872
690.325	0.0138708
690.403	0.0136653
690.481	0.0134643
690.559	0.0133550
690.637	0.0133350
690.715	0.0132955
690.793	0.0132923
690.871	0.0134003
690.950	0.0135384
691.028	0.0137042
691.106	0.0137512
691.184	0.0139065
691.262	0.0141241
691.340	0.0144294
691.418	0.0146737
691.496	0.0147735
691.575	0.0149186
691.653	0.0149270
691.731	0.0149055
691.809	0.0148103
691.887	0.0149288
691.965	0.0149069
692.043	0.0145325
692.121	0.0146444
692.200	0.0146685
692.278	0.0144485
692.356	0.0145164
692.434	0.0146169
692.512	0.0144800
692.590	0.0145213
692.668	0.0145642
692.746	0.0144910
692.825	0.0146098
692.903	0.0145227
692.981	0.0144557
693.059	0.0144236
693.137	0.0143639
693.215	0.0142913
693.293	0.0141276
693.371	0.0141641
693.450	0.0138448
693.528	0.0138599
693.606	0.0135988
693.684	0.0134726
693.762	0.0135179
693.840	0.0132752
693.918	0.0133126
693.996	0.0133250
694.075	0.0135661
694.153	0.0136198
694.231	0.0137711
694.309	0.0138675
694.387	0.0141930
694.465	0.0144982
694.543	0.0145588
694.621	0.0147696
694.700	0.0148043
694.778	0.0147775
694.856	0.0149125
694.934	0.0147241
695.012	0.0147092
695.090	0.0146484
695.168	0.0146668
695.246	0.0144478
695.325	0.0143345
695.403	0.0141531
695.481	0.0140401
695.559	0.0139394
695.637	0.0138010
695.715	0.0139471
695.793	0.0139180
695.871	0.0140199
695.950	0.0140005
696.028	0.0141328
696.106	0.0142814
696.184	0.0144153
696.262	0.0146379
696.340	0.0148092
696.418	0.0148773
696.496	0.0149399
696.575	0.0147036
696.653	0.0147394
696.731	0.0145667
696.809	0.0143828
696.887	0.0144027
696.965	0.0141354
697.043	0.0142332
697.121	0.0140598
697.200	0.0139475
697.278	0.0137742
697.356	0.0137200
697.434	0.0137793
697.512	0.0139301
697.590	0.0139441
697.668	0.0139880
697.746	0.0140033
697.825	0.0139071
697.903	0.0139249
697.981	0.0140270
698.059	0.0140550
698.137	0.0141364
698.215	0.0141654
698.293	0.0139807
698.371	0.0140697
698.450	0.0142035
698.528	0.0141511
698.606	0.0141628
698.684	0.0141277
698.762	0.0141396
698.840	0.0141588
698.918	0.0142130
698.996	0.0142153
699.075	0.0144009
699.153	0.0145760
699.231	0.0145714
699.309	0.0147090
699.387	0.0149026
699.465	0.0150398
699.543	0.0148775
699.621	0.0149199
699.700	0.0151630
699.778	0.0149145
699.856	0.0147583
699.934	0.0150008
700.012	0.0146673
700.090	0.0144951
700.168	0.0145156
700.246	0.0145338
700.325	0.0143930
700.403	0.0141145
700.481	0.0140247
700.559	0.0141265
700.637	0.0139042
700.715	0.0137491
700.793	0.0136025
700.871	0.0135120
700.950	0.0136148
701.028	0.0134840
701.106	0.0135892
701.184	0.0137347
701.262	0.0137344
701.340	0.0138848
701.418	0.0138233
701.496	0.0139763
701.575	0.0141162
701.653	0.0141953
701.731	0.0142281
701.809	0.0143005
701.887	0.0143296
701.965	0.0141509
702.043	0.0142052
702.121	0.0144484
702.200	0.0143855
702.278	0.0145142
702.356	0.0144522
702.434	0.0145082
702.512	0.0147705
702.590	0.0147254
702.668	0.0149326
702.746	0.0149490
702.825	0.0149567
702.903	0.0149100
702.981	0.0148013
703.059	0.0148286
703.137	0.0147207
703.215	0.0147413
703.293	0.0146241
703.371	0.0145173
703.450	0.0144141
703.528	0.0141793
703.606	0.0141962
703.684	0.0141631
703.762	0.0139679
703.840	0.0138773
703.918	0.0138045
703.996	0.0137403
704.075	0.0137881
704.153	0.0137889
704.231	0.0136810
704.309	0.0137234
704.387	0.0138891
704.465	0.0139400
704.543	0.0140028
704.621	0.0140401
704.700	0.0142368
704.778	0.0143887
704.856	0.0143875
704.934	0.0143491
705.012	0.0143254
705.090	0.0143755
705.168	0.0143530
705.246	0.0143199
705.325	0.0141354
705.403	0.0141228
705.481	0.0141627
705.559	0.0140987
705.637	0.0139893
705.715	0.0139450
705.793	0.0139336
705.871	0.0138483
705.950	0.0139519
706.028	0.0139606
706.106	0.0141594
706.184	0.0142012
706.262	0.0143573
706.340	0.0143993
706.418	0.0144241
706.496	0.0147015
706.575	0.0147421
706.653	0.0147205
706.731	0.0147566
706.809	0.0149310
706.887	0.0149567
706.965	0.0149162
707.043	0.0148207
707.121	0.0148456
707.200	0.0146535
707.278	0.0146779
707.356	0.0147104
707.434	0.0144014
707.512	0.0144798
707.590	0.0140787
707.668	0.0140649
707.746	0.0140611
707.825	0.0140427
707.903	0.0137443
707.981	0.0136938
708.059	0.0138336
708.137	0.0136770
708.215	0.0136585
708.293	0.0136961
708.371	0.0137600
708.450	0.0136481
708.528	0.0137729
708.606	0.0137686
708.684	0.0137614
708.762	0.0136978
708.840	0.0139065
708.918	0.0140781
708.996	0.0141021
709.075	0.0143269
709.153	0.0144347
709.231	0.0143916
709.309	0.0144637
709.387	0.0148024
709.465	0.0146780
709.543	0.0146725
709.621	0.0147797
709.700	0.0149442
709.778	0.0146872
709.856	0.0147835
709.934	0.0147072
710.012	0.0147481
710.090	0.0146616
710.168	0.0143400
710.246	0.0142902
710.325	0.0140589
710.403	0.0139516
710.481	0.0140401
710.559	0.0139072
710.637	0.0137906
710.715	0.0138191
710.793	0.0139101
710.871	0.0137751
710.950	0.0137427
711.028	0.0140256
711.106	0.0140615
711.184	0.0140372
711.262	0.0142486
711.340	0.0142821
711.418	0.0142489
711.496	0.0143653
711.575	0.0145628
711.653	0.0145985
711.731	0.0146593
711.809	0.0145850
711.887	0.0144928
711.965	0.0144193
712.043	0.0144579
712.121	0.0144291
712.200	0.0143420
712.278	0.0141914
712.356	0.0142387
712.434	0.0141622
712.512	0.0140253
712.590	0.0141574
712.668	0.0140822
712.746	0.0139353
712.825	0.0139554
712.903	0.0138948
712.981	0.0140707
713.059	0.0141155
713.137	0.0139735
713.215	0.0138918
713.293	0.0141691
713.371	0.0142784
713.450	0.0142891
713.528	0.0142757
713.606	0.0143229
713.684	0.0144485
713.762	0.0144052
713.840	0.0144097
713.918	0.0145245
713.996	0.0144967
714.075	0.0145807
714.153	0.0144488
714.231	0.0144792
714.309	0.0145818
714.387	0.0145371
714.465	0.0144894
714.543	0.0145887
714.621	0.0144875
714.700	0.0145438
714.778	0.0142754
714.856	0.0141150
714.934	0.0141815
715.012	0.0140943
715.090	0.0139883
715.168	0.0138681
715.246	0.0138731
715.325	0.0138817
715.403	0.0137215
715.481	0.0138506
715.559	0.0137917
715.637	0.0137978
715.715	0.0138276
715.793	0.0139391
715.871	0.0139574
715.950	0.0140948
716.028	0.0140755
716.106	0.0142558
716.184	0.0143862
716.262	0.0143140
716.340	0.0143880
716.418	0.0143771
716.496	0.0145369
716.575	0.0145291
716.653	0.0144956
716.731	0.0146021
716.809	0.0146756
716.887	0.0146976
716.965	0.0145251
717.043	0.0144627
717.121	0.0145161
717.200	0.0145596
717.278	0.0144170
717.356	0.0142857
717.434	0.0144114
717.512	0.0142778
717.590	0.0142222
717.668	0.0142849
717.746	0.0141367
717.825	0.0142985
717.903	0.0142133
717.981	0.0140779
718.059	0.0141348
718.137	0.0141563
718.215	0.0140112
718.293	0.0140754
718.371	0.0140746
718.450	0.0140376
718.528	0.0141603
718.606	0.0141535
718.684	0.0142638
718.762	0.0141898
718.840	0.0141050
718.918	0.0142361
718.996	0.0142620
719.075	0.0143421
719.153	0.0143455
719.231	0.0144478
719.309	0.0143624
719.387	0.0145338
719.465	0.0144781
719.543	0.0144289
719.621	0.0145427
719.700	0.0144766
719.778	0.0144261
719.856	0.0142786
719.934	0.0141839
720.012	0.0143214
720.090	0.0144316
720.168	0.0141953
720.246	0.0142903
720.325	0.0143705
720.403	0.0140933
720.481	0.0143076
720.559	0.0143456
720.637	0.0143370
720.715	0.0143976
720.793	0.0142827
720.871	0.0142424
720.950	0.0145235
721.028	0.0143503
721.106	0.0143879
721.184	0.0144568
721.262	0.0145663
721.340	0.0143193
721.418	0.0143310
721.496	0.0142718
721.575	0.0142297
721.653	0.0141909
721.731	0.0141975
721.809	0.0140723
721.887	0.0140191
721.965	0.0142790
722.043	0.0141072
722.121	0.0140962
722.200	0.0142242
722.278	0.0142745
722.356	0.0141557
722.434	0.0141654
722.512	0.0141423
722.590	0.0141011
722.668	0.0141852
722.746	0.0141551
722.825	0.0140772
722.903	0.0142198
722.981	0.0141938
723.059	0.0143378
723.137	0.0141376
723.215	0.0141698
723.293	0.0142092
723.371	0.0143712
723.450	0.0144255
723.528	0.0144304
723.606	0.0147119
723.684	0.0146230
723.762	0.0146144
723.840	0.0146861
723.918	0.0146489
723.996	0.0145140
724.075	0.0145333
724.153	0.0144604
724.231	0.0144695
724.309	0.0143220
724.387	0.0142804
724.465	0.0139460
724.543	0.0141729
724.621	0.0140878
724.700	0.0139308
724.778	0.0139965
724.856	0.0140879
724.934	0.0139979
725.012	0.0140338
725.090	0.0139745
725.168	0.0140700
725.246	0.0142255
725.325	0.0144238
725.403	0.0143818
725.481	0.0142195
725.559	0.0144260
725.637	0.0143554
725.715	0.0143353
725.793	0.0144374
725.871	0.0142812
725.950	0.0143922
726.028	0.0144079
726.106	0.0142548
726.184	0.0142712
726.262	0.0141991
726.340	0.0140942
726.418	0.0140560
726.496	0.0141447
726.575	0.0141069
726.653	0.0140661
726.731	0.0141672
726.809	0.0140189
726.887	0.0140361
726.965	0.0141821
727.043	0.0141685
727.121	0.0141393
727.200	0.0142150
727.278	0.0142242
727.356	0.0143376
727.434	0.0142491
727.512	0.0143552
727.590	0.0143745
727.668	0.0143060
727.746	0.0142885
727.825	0.0144125
727.903	0.0143425
727.981	0.0143035
728.059	0.0144621
728.137	0.0145641
728.215	0.0145858
728.293	0.0146531
728.371	0.0144220
728.450	0.0145483
728.528	0.0143520
728.606	0.0144477
728.684	0.0143991
728.762	0.0143087
728.840	0.0141786
728.918	0.0141631
728.996	0.0142424
729.075	0.0140369
729.153	0.0141434
729.231	0.0141077
729.309	0.0139817
729.387	0.0138743
729.465	0.0137790
729.543	0.0139485
729.621	0.0139801
729.700	0.0139601
729.778	0.0139999
729.856	0.0141180
729.934	0.0142186
730.012	0.0142432
730.090	0.0142302
730.168	0.0143700
730.246	0.0144727
730.325	0.0144184
730.403	0.0143903
730.481	0.0143464
730.559	0.0143700
730.637	0.0144058
730.715	0.0144534
730.793	0.0143587
730.871	0.0143722
730.950	0.0142447
731.028	0.0141712
731.106	0.0141185
731.184	0.0141652
731.262	0.0140377
731.340	0.0140708
731.418	0.0142014
731.496	0.0141335
731.575	0.0141099
731.653	0.0140737
731.731	0.0139676
731.809	0.0141512
731.887	0.0141958
731.965	0.0141209
732.043	0.0140211
732.121	0.0140405
732.200	0.0141811
732.278	0.0140698
732.356	0.0141568
732.434	0.0141833
732.512	0.0141023
732.590	0.0143344
732.668	0.0142287
732.746	0.0141676
732.825	0.0144660
732.903	0.0144191
732.981	0.0143541
733.059	0.0143816
733.137	0.0144058
733.215	0.0144127
733.293	0.0142733
733.371	0.0143065
733.450	0.0142714
733.528	0.0142562
733.606	0.0142519
733.684	0.0141504
733.762	0.0141769
733.840	0.0142117
733.918	0.0142036
733.996	0.0142393
734.075	0.0141515
734.153	0.0141170
734.231	0.0141930
734.309	0.0142981
734.387	0.0142471
734.465	0.0142835
734.543	0.0142731
734.621	0.0141763
734.700	0.0142300
734.778	0.0145531
734.856	0.0143198
734.934	0.0143758
735.012	0.0142990
735.090	0.0142027
735.168	0.0143784
735.246	0.0143489
735.325	0.0141981
735.403	0.0143269
735.481	0.0143739
735.559	0.0142207
735.637	0.0141887
735.715	0.0141928
735.793	0.0142728
735.871	0.0140160
735.950	0.0142193
736.028	0.0141530
736.106	0.0140847
736.184	0.0142564
736.262	0.0142495
736.340	0.0142253
736.418	0.0143396
736.496	0.0142133
736.575	0.0142455
736.653	0.0142651
736.731	0.0141196
736.809	0.0142395
736.887	0.0141868
736.965	0.0141901
737.043	0.0143069
737.121	0.0141969
737.200	0.0141111
737.278	0.0142310
737.356	0.0142352
737.434	0.0142043
737.512	0.0143209
737.590	0.0142477
737.668	0.0142318
737.746	0.0142789
737.825	0.0143952
737.903	0.0142741
737.981	0.0142173
738.059	0.0143044
738.137	0.0142807
738.215	0.0144245
738.293	0.0144185
738.371	0.0142104
738.450	0.0143819
738.528	0.0143269
738.606	0.0142370
738.684	0.0142369
738.762	0.0142014
738.840	0.0142217
738.918	0.0142197
738.996	0.0143775
739.075	0.0143086
739.153	0.0142146
739.231	0.0141848
739.309	0.0142593
739.387	0.0142732
739.465	0.0141887
739.543	0.0142736
739.621	0.0142899
739.700	0.0141921
739.778	0.0140530
739.856	0.0140401
739.934	0.0140540
740.012	0.0141391
740.090	0.0140865
740.168	0.0140800
740.246	0.0141290
740.325	0.0141763
740.403	0.0141183
740.481	0.0141216
740.559	0.0142017
740.637	0.0144034
740.715	0.0142767
740.793	0.0141581
740.871	0.0143204
740.950	0.0143690
741.028	0.0144196
741.106	0.0142747
741.184	0.0144395
741.262	0.0143932
741.340	0.0144630
741.418	0.0142889
741.496	0.0142218
741.575	0.0142751
741.653	0.0143272
741.731	0.0142575
741.809	0.0142052
741.887	0.0141828
741.965	0.0141804
742.043	0.0141222
742.121	0.0142172
742.200	0.0143057
742.278	0.0143628
742.356	0.0141529
742.434	0.0142294
742.512	0.0142527
742.590	0.0142562
742.668	0.0142592
742.746	0.0142522
742.825	0.0143357
742.903	0.0142493
742.981	0.0141065
743.059	0.0141532
743.137	0.0143240
743.215	0.0141657
743.293	0.0141373
743.371	0.0142172
743.450	0.0142416
743.528	0.0141969
743.606	0.0140583
743.684	0.0142111
743.762	0.0141372
743.840	0.0142022
743.918	0.0142024
743.996	0.0140871
744.075	0.0141392
744.153	0.0140940
744.231	0.0141348
744.309	0.0141331
744.387	0.0141571
744.465	0.0142450
744.543	0.0140751
744.621	0.0140594
744.700	0.0142213
744.778	0.0141055
744.856	0.0142110
744.934	0.0141927
745.012	0.0142765
745.090	0.0143164
745.168	0.0143221
745.246	0.0142252
745.325	0.0143546
745.403	0.0142840
745.481	0.0142551
745.559	0.0143698
745.637	0.0142455
745.715	0.0141428
745.793	0.0143460
745.871	0.0142492
745.950	0.0142422
746.028	0.0141740
746.106	0.0142256
746.184	0.0142762
746.262	0.0140659
746.340	0.0140929
746.418	0.0142715
746.496	0.0141793
746.575	0.0140864
746.653	0.0142450
746.731	0.0139722
746.809	0.0140330
746.887	0.0142134
746.965	0.0142157
747.043	0.0142490
747.121	0.0141828
747.200	0.0143128
747.278	0.0142368
747.356	0.0142571
747.434	0.0142777
747.512	0.0140977
747.590	0.0143224
747.668	0.0142543
747.746	0.0142115
747.825	0.0141948
747.903	0.0142288
747.981	0.0142702
748.059	0.0143088
748.137	0.0141895
748.215	0.0142199
748.293	0.0142707
748.371	0.0143582
748.450	0.0142390
748.528	0.0142680
748.606	0.0143344
748.684	0.0143535
748.762	0.0145203
748.840	0.0143749
748.918	0.0144827
748.996	0.0145030
749.075	0.0145335
749.153	0.0144683
749.231	0.0144447
749.309	0.0144779
749.387	0.0142783
749.465	0.0144505
749.543	0.0144559
749.621	0.0143676
749.700	0.0144048
749.778	0.0143434
749.856	0.0142460
749.934	0.0143123
750.012	0.0143863
750.090	0.0142801
750.168	0.0142810
750.246	0.0142672
750.325	0.0142865
750.403	0.0144470
750.481	0.0143754
750.559	0.0143882
750.637	0.0141846
750.715	0.0143872
750.793	0.0143898
750.871	0.0142558
750.950	0.0142686
751.028	0.0143916
751.106	0.0143018
751.184	0.0142610
751.262	0.0145072
751.340	0.0144912
751.418	0.0143227
751.496	0.0143089
751.575	0.0142751
751.653	0.0142806
751.731	0.0142864
751.809	0.0142355
751.887	0.0143274
751.965	0.0143526
752.043	0.0142738
752.121	0.0143597
752.200	0.0143650
752.278	0.0142369
752.356	0.0142598
752.434	0.0142262
752.512	0.0141804
752.590	0.0143005
752.668	0.0143324
752.746	0.0143058
752.825	0.0144020
752.903	0.0142491
752.981	0.0142439
753.059	0.0143384
753.137	0.0143311
753.215	0.0144334
753.293	0.0144653
753.371	0.0143018
753.450	0.0143369
753.528	0.0143147
753.606	0.0144637
753.684	0.0143371
753.762	0.0142581
753.840	0.0142834
753.918	0.0142884
753.996	0.0143374
754.075	0.0141583
754.153	0.0142740
754.231	0.0143180
754.309	0.0142454
754.387	0.0141511
754.465	0.0140948
754.543	0.0141948
754.621	0.0141936
754.700	0.0141573
754.778	0.0141300
754.856	0.0140737
754.934	0.0141948
755.012	0.0139290
755.090	0.0140941
755.168	0.0142238
755.246	0.0142446
755.325	0.0141502
755.403	0.0141475
755.481	0.0142772
755.559	0.0141363
755.637	0.0142676
755.715	0.0142187
755.793	0.0141356
755.871	0.0140906
755.950	0.0142090
756.028	0.0142570
756.106	0.0142231
756.184	0.0142082
756.262	0.0143728
756.340	0.0142348
756.418	0.0142272
756.496	0.0141506
756.575	0.0142384
756.653	0.0142528
756.731	0.0143368
756.809	0.0143121
756.887	0.0141189
756.965	0.0141100
757.043	0.0141803
757.121	0.0141725
757.200	0.0142092
757.278	0.0141301
757.356	0.0141555
757.434	0.0141452
757.512	0.0140736
757.590	0.0141933
757.668	0.0142039
757.746	0.0141535
757.825	0.0142868
757.903	0.0143081
757.981	0.0141844
758.059	0.0141554
758.137	0.0143847
758.215	0.0143429
758.293	0.0143536
758.371	0.0142934
758.450	0.0142657
758.528	0.0142918
758.606	0.0143452
758.684	0.0143444
758.762	0.0142476
758.840	0.0142758
758.918	0.0143037
758.996	0.0142867
759.075	0.0143404
759.153	0.0142572
759.231	0.0142677
759.309	0.0142698
759.387	0.0142659
759.465	0.0141409
759.543	0.0143515
759.621	0.0142216
759.700	0.0141937
759.778	0.0143450
759.856	0.0142059
759.934	0.0141560
760.012	0.0141598
760.090	0.0143070
760.168	0.0143179
760.246	0.0142111
760.325	0.0143147
760.403	0.0142085
760.481	0.0142650
760.559	0.0142142
760.637	0.0142860
760.715	0.0141795
760.793	0.0141340
760.871	0.0142355
760.950	0.0142742
761.028	0.0142548
761.106	0.0142183
761.184	0.0141521
761.262	0.0140596
761.340	0.0142323
761.418	0.0141985
761.496	0.0141873
761.575	0.0143121
761.653	0.0141797
761.731	0.0142007
761.809	0.0141686
761.887	0.0142485
761.965	0.0143276
762.043	0.0142843
762.121	0.0144031
762.200	0.0142652
762.278	0.0142881
762.356	0.0143771
762.434	0.0143588
762.512	0.0143279
762.590	0.0143771
762.668	0.0142881
762.746	0.0142519
762.825	0.0142769
762.903	0.0142615
762.981	0.0142346
763.059	0.0143447
763.137	0.0142008
763.215	0.0142636
763.293	0.0142204
763.371	0.0141910
763.450	0.0142233
763.528	0.0142697
763.606	0.0142538
763.684	0.0141657
763.762	0.0142233
763.840	0.0141202
763.918	0.0142762
763.996	0.0141376
764.075	0.0140772
764.153	0.0140888
764.231	0.0141972
764.309	0.0141968
764.387	0.0140923
764.465	0.0141895
764.543	0.0142168
764.621	0.0142161
764.700	0.0142707
764.778	0.0141257
764.856	0.0142834
764.934	0.0142532
765.012	0.0142349
765.090	0.0141881
765.168	0.0141218
765.246	0.0141599
765.325	0.0141682
765.403	0.0142417
765.481	0.0141385
765.559	0.0141236
765.637	0.0141952
765.715	0.0142412
765.793	0.0142320
765.871	0.0143551
765.950	0.0142814
766.028	0.0142385
766.106	0.0143752
766.184	0.0142838
766.262	0.0142353
766.340	0.0142793
766.418	0.0142272
766.496	0.0143224
766.575	0.0141854
766.653	0.0142138
766.731	0.0142882
766.809	0.0142989
766.887	0.0142892
766.965	0.0143391
767.043	0.0141634
767.121	0.0142688
767.200	0.0142840
767.278	0.0143410
767.356	0.0143243
767.434	0.0143111
767.512	0.0142806
767.590	0.0142772
767.668	0.0142596
767.746	0.0142879
767.825	0.0142267
767.903	0.0141861
767.981	0.0143053
768.059	0.0142816
768.137	0.0142443
768.215	0.0143301
768.293	0.0142419
768.371	0.0141732
768.450	0.0143242
768.528	0.0141708
768.606	0.0142814
768.684	0.0144460
768.762	0.0143051
768.840	0.0143059
768.918	0.0142300
768.996	0.0141798
769.075	0.0142789
769.153	0.0143154
769.231	0.0141351
769.309	0.0142583
769.387	0.0143072
769.465	0.0142485
769.543	0.0142333
769.621	0.0142642
769.700	0.0142912
769.778	0.0140910
769.856	0.0142225
769.934	0.0142856
770.012	0.0141619
770.090	0.0141830
770.168	0.0144112
770.246	0.0143143
770.325	0.0141607
770.403	0.0142175
770.481	0.0141217
770.559	0.0142043
770.637	0.0142931
770.715	0.0141815
770.793	0.0141973
770.871	0.0141390
770.950	0.0141086
771.028	0.0141231
771.106	0.0142287
771.184	0.0141267
771.262	0.0142360
771.340	0.0143265
771.418	0.0142603
771.496	0.0141072
771.575	0.0141792
771.653	0.0141130
771.731	0.0142787
771.809	0.0141814
771.887	0.0141370
771.965	0.0141496
772.043	0.0141831
772.121	0.0141811
772.200	0.0140836
772.278	0.0140570
772.356	0.0143326
772.434	0.0143762
772.512	0.0140796
772.590	0.0141510
772.668	0.0141955
772.746	0.0140911
772.825	0.0140450
772.903	0.0143366
772.981	0.0143121
773.059	0.0143483
773.137	0.0142524
773.215	0.0142072
773.293	0.0141332
773.371	0.0143770
773.450	0.0143323
773.528	0.0142576
773.606	0.0142844
773.684	0.0143162
773.762	0.0143147
773.840	0.0142439
773.918	0.0142724
773.996	0.0142903
774.075	0.0143154
774.153	0.0143827
774.231	0.0142736
774.309	0.0143171
774.387	0.0143082
774.465	0.0143723
774.543	0.0143242
774.621	0.0142936
774.700	0.0144225
774.778	0.0142548
774.856	0.0142471
774.934	0.0143301
775.012	0.0143184
775.090	0.0143605
775.168	0.0142547
775.246	0.0143892
775.325	0.0143635
775.403	0.0144087
775.481	0.0143729
775.559	0.0142765
775.637	0.0143259
775.715	0.0144104
775.793	0.0143011
775.871	0.0142973
775.950	0.0142498
776.028	0.0143413
776.106	0.0144269
776.184	0.0143826
776.262	0.0144476
776.340	0.0143861
776.418	0.0143323
776.496	0.0142921
776.575	0.0142826
776.653	0.0143844
776.731	0.0143587
776.809	0.0142982
776.887	0.0143471
776.965	0.0142230
777.043	0.0141607
777.121	0.0142699
777.200	0.0141974
777.278	0.0141709
777.356	0.0142513
777.434	0.0142147
777.512	0.0142890
777.590	0.0142257
777.668	0.0141270
777.746	0.0142152
777.825	0.0141445
777.903	0.0141080
777.981	0.0142652
778.059	0.0142735
778.137	0.0141152
778.215	0.0141306
778.293	0.0142715
778.371	0.0142953
778.450	0.0141462
778.528	0.0142115
778.606	0.0141927
778.684	0.0142101
778.762	0.0142495
778.840	0.0142013
778.918	0.0142485
778.996	0.0143030
779.075	0.0142044
779.153	0.0143099
779.231	0.0142757
779.309	0.0142516
779.387	0.0142437
779.465	0.0142509
779.543	0.0142362
779.621	0.0143214
779.700	0.0142691
779.778	0.0142971
779.856	0.0142635
779.934	0.0142059
780.012	0.0142806
780.090	0.0139928
780.168	0.0141573
780.246	0.0141947
780.325	0.0141325
780.403	0.0142796
780.481	0.0140352
780.559	0.0140751
780.637	0.0142713
780.715	0.0141187
780.793	0.0142084
780.871	0.0142519
780.950	0.0141462
781.028	0.0142151
781.106	0.0141367
781.184	0.0141196
781.262	0.0142845
781.340	0.0142303
781.418	0.0142962
781.496	0.0141458
781.575	0.0142734
781.653	0.0142316
781.731	0.0142062
781.809	0.0143016
781.887	0.0142059
781.965	0.0141888
782.043	0.0143152
782.121	0.0143069
782.200	0.0143143
782.278	0.0142972
782.356	0.0142397
782.434	0.0143245
782.512	0.0142094
782.590	0.0143655
782.668	0.0143906
782.746	0.0142252
782.825	0.0143008
782.903	0.0143102
782.981	0.0142101
783.059	0.0142194
783.137	0.0142794
783.215	0.0142053
783.293	0.0141584
783.371	0.0143453
783.450	0.0143035
783.528	0.0141409
783.606	0.0143288
783.684	0.0142165
783.762	0.0141723
783.840	0.0142693
783.918	0.0141959
783.996	0.0143052
784.075	0.0143327
784.153	0.0142579
784.231	0.0142448
784.309	0.0142812
784.387	0.0142543
784.465	0.0142994
784.543	0.0142909
784.621	0.0142498
784.700	0.0141824
784.778	0.0142263
784.856	0.0142494
784.934	0.0143358
785.012	0.0143001
785.090	0.0141527
785.168	0.0143285
785.246	0.0143456
785.325	0.0142075
785.403	0.0142313
785.481	0.0141170
785.559	0.0142014
785.637	0.0142294
785.715	0.0143253
785.793	0.0142217
785.871	0.0140974
785.950	0.0142665
786.028	0.0141240
786.106	0.0142094
786.184	0.0141413
786.262	0.0142435
786.340	0.0141894
786.418	0.0141301
786.496	0.0140249
786.575	0.0141468
786.653	0.0141840
786.731	0.0141873
786.809	0.0141302
786.887	0.0141638
786.965	0.0142052
787.043	0.0141947
787.121	0.0141363
787.200	0.0143142
787.278	0.0142469
787.356	0.0140775
787.434	0.0140829
787.512	0.0143192
787.590	0.0143307
787.668	0.0143179
787.746	0.0142482
787.825	0.0142737
787.903	0.0142822
787.981	0.0141886
788.059	0.0141608
788.137	0.0142684
788.215	0.0143995
788.293	0.0142197
788.371	0.0141053
788.450	0.0142814
788.528	0.0141294
788.606	0.0142328
788.684	0.0141981
788.762	0.0142194
788.840	0.0141856
788.918	0.0141462
788.996	0.0140718
789.075	0.0139693
789.153	0.0141073
789.231	0.0141158
789.309	0.0140752
789.387	0.0142081
789.465	0.0141081
789.543	0.0139941
789.621	0.0139461
789.700	0.0141248
789.778	0.0140308
789.856	0.0141475
789.934	0.0140348
790.012	0.0140157
790.090	0.0142033
790.168	0.0140590
790.246	0.0142400
790.325	0.0141333
790.403	0.0139953
790.481	0.0141366
790.559	0.0142006
790.637	0.0141518
790.715	0.0141770
790.793	0.0143259
790.871	0.0141196
790.950	0.0140978
791.028	0.0141808
791.106	0.0142842
791.184	0.0142537
791.262	0.0142507
791.340	0.0142142
791.418	0.0140984
791.496	0.0142245
791.575	0.0143097
791.653	0.0141536
791.731	0.0142663
791.809	0.0142789
791.887	0.0141484
791.965	0.0142228
792.043	0.0142231
792.121	0.0142635
792.200	0.0143464
792.278	0.0142805
792.356	0.0141982
792.434	0.0142412
792.512	0.0142930
792.590	0.0141528
792.668	0.0143107
792.746	0.0141644
792.825	0.0141954
792.903	0.0141978
792.981	0.0141005
793.059	0.0141936
793.137	0.0142646
793.215	0.0142950
793.293	0.0142294
793.371	0.0142092
793.450	0.0142007
793.528	0.0141951
793.606	0.0143371
793.684	0.0142136
793.762	0.0141966
793.840	0.0143054
793.918	0.0142822
793.996	0.0143580
794.075	0.0143123
794.153	0.0142137
794.231	0.0144028
794.309	0.0143147
794.387	0.0141490
794.465	0.0142924
794.543	0.0143630
794.621	0.0143357
794.700	0.0143331
794.778	0.0144289
794.856	0.0144431
794.934	0.0145042
795.012	0.0143481
795.090	0.0143552
795.168	0.0143385
795.246	0.0144553
795.325	0.0142590
795.403	0.0143330
795.481	0.0144359
795.559	0.0143345
795.637	0.0143191
795.715	0.0142746
795.793	0.0141845
795.871	0.0143800
795.950	0.0143480
796.028	0.0142529
796.106	0.0144277
796.184	0.0144367
796.262	0.0143956
796.340	0.0143069
796.418	0.0142691
796.496	0.0144241
796.575	0.0143791
796.653	0.0144269
796.731	0.0143393
796.809	0.0142999
796.887	0.0142673
796.965	0.0142922
797.043	0.0142510
797.121	0.0141843
797.200	0.0143270
797.278	0.0143860
797.356	0.0141811
797.434	0.0141345
797.512	0.0142114
797.590	0.0142436
797.668	0.0142723
797.746	0.0142893
797.825	0.0142795
797.903	0.0142568
797.981	0.0143452
798.059	0.0142016
798.137	0.0142952
798.215	0.0141424
798.293	0.0142633
798.371	0.0143166
798.450	0.0143008
798.528	0.0142615
798.606	0.0143079
798.684	0.0142284
798.762	0.0142518
798.840	0.0142379
798.918	0.0144288
798.996	0.0142405
799.075	0.0142886
799.153	0.0143369
799.231	0.0142504
799.309	0.0142863
799.387	0.0142170
799.465	0.0141533
799.543	0.0142989
799.621	0.0142393
799.700	0.0141602
799.778	0.0141878
799.856	0.0140669
799.934	0.0141531
800.012	0.0141785
800.090	0.0141267
800.168	0.0140458
800.246	0.0140749
800.325	0.0140707
800.403	0.0141821
800.481	0.0142572
800.559	0.0140797
800.637	0.0143014
800.715	0.0142117
800.793	0.0143324
800.871	0.0143462
800.950	0.0141474
801.028	0.0140973
801.106	0.0141728
801.184	0.0142117
801.262	0.0142442
801.340	0.0141416
801.418	0.0141527
801.496	0.0141284
801.575	0.0142075
801.653	0.0141754
801.731	0.0141588
801.809	0.0143162
801.887	0.0140885
801.965	0.0143150
802.043	0.0142102
802.121	0.0141460
802.200	0.0141908
802.278	0.0140865
802.356	0.0142242
802.434	0.0141173
802.512	0.0142854
802.590	0.0143650
802.668	0.0142125
802.746	0.0140509
802.825	0.0140847
802.903	0.0141747
802.981	0.0142636
803.059	0.0142369
803.137	0.0141596
803.215	0.0141254
803.293	0.0143127
803.371	0.0141461
803.450	0.0139954
803.528	0.0142341
803.606	0.0141341
803.684	0.0141337
803.762	0.0142233
803.840	0.0140997
803.918	0.0139271
803.996	0.0140365
804.075	0.0142553
804.153	0.0141904
804.231	0.0141313
804.309	0.0140495
804.387	0.0142139
804.465	0.0143230
804.543	0.0141411
804.621	0.0141582
804.700	0.0142294
804.778	0.0142279
804.856	0.0142828
804.934	0.0141119
805.012	0.0141735
805.090	0.0142156
805.168	0.0141854
805.246	0.0142892
805.325	0.0142954
805.403	0.0142309
805.481	0.0143861
805.559	0.0143216
805.637	0.0141626
805.715	0.0142787
805.793	0.0142072
805.871	0.0144151
805.950	0.0143566
806.028	0.0143909
806.106	0.0143062
806.184	0.0142467
806.262	0.0142505
806.340	0.0142045
806.418	0.0142520
806.496	0.0141924
806.575	0.0143408
806.653	0.0141905
806.731	0.0140839
806.809	0.0141352
806.887	0.0142405
806.965	0.0141559
807.043	0.0142854
807.121	0.0141315
807.200	0.0141588
807.278	0.0142069
807.356	0.0142648
807.434	0.0142537
807.512	0.0142036
807.590	0.0142538
807.668	0.0142550
807.746	0.0141331
807.825	0.0143866
807.903	0.0143137
807.981	0.0145083
808.059	0.0142751
808.137	0.0143762
808.215	0.0142687
808.293	0.0142159
808.371	0.0143370
808.450	0.0142145
808.528	0.0143037
808.606	0.0142768
808.684	0.0143009
808.762	0.0143462
808.840	0.0143515
808.918	0.0143200
808.996	0.0142234
809.075	0.0143065
809.153	0.0143607
809.231	0.0142593
809.309	0.0141700
809.387	0.0142793
809.465	0.0144381
809.543	0.0143885
809.621	0.0143594
809.700	0.0142913
809.778	0.0143947
809.856	0.0143501
809.934	0.0143964
810.012	0.0143533
810.090	0.0143886
810.168	0.0143403
810.246	0.0142491
810.325	0.0143069
810.403	0.0142793
810.481	0.0144059
810.559	0.0145665
810.637	0.0143999
810.715	0.0142841
810.793	0.0143997
810.871	0.0144959
810.950	0.0142672
811.028	0.0143011
811.106	0.0144434
811.184	0.0144038
811.262	0.0143821
811.340	0.0142883
811.418	0.0143140
811.496	0.0142712
811.575	0.0143056
811.653	0.0142586
811.731	0.0141946
811.809	0.0142294
811.887	0.0142480
811.965	0.0142159
812.043	0.0141831
812.121	0.0142496
812.200	0.0142860
812.278	0.0141732
812.356	0.0140952
812.434	0.0141779
812.512	0.0143998
812.590	0.0142693
812.668	0.0141470
812.746	0.0143745
812.825	0.0143407
812.903	0.0143253
812.981	0.0143946
813.059	0.0143942
813.137	0.0142877
813.215	0.0141922
813.293	0.0142131
813.371	0.0143804
813.450	0.0144163
813.528	0.0141827
813.606	0.0142697
813.684	0.0142522
813.762	0.0142886
813.840	0.0143266
813.918	0.0143587
813.996	0.0142690
814.075	0.0142821
814.153	0.0141567
814.231	0.0142986
814.309	0.0143540
814.387	0.0143638
814.465	0.0141435
814.543	0.0141914
814.621	0.0142773
814.700	0.0141817
814.778	0.0142971
814.856	0.0142104
814.934	0.0141730
815.012	0.0141907
815.090	0.0141394
815.168	0.0141366
815.246	0.0144041
815.325	0.0142142
815.403	0.0143211
815.481	0.0141978
815.559	0.0142564
815.637	0.0142665
815.715	0.0143988
815.793	0.0143212
815.871	0.0141633
815.950	0.0143538
816.028	0.0142766
816.106	0.0142982
816.184	0.0142426
816.262	0.0142307
816.340	0.0142656
816.418	0.0142198
816.496	0.0141248
816.575	0.0141598
816.653	0.0142470
816.731	0.0142675
816.809	0.0142715
816.887	0.0143307
816.965	0.0144193
817.043	0.0142368
817.121	0.0143476
817.200	0.0143956
817.278	0.0141988
817.356	0.0142764
817.434	0.0143399
817.512	0.0142969
817.590	0.0142149
817.668	0.0142830
817.746	0.0143362
817.825	0.0142230
817.903	0.0143259
817.981	0.0142380
818.059	0.0141087
818.137	0.0142249
818.215	0.0141674
818.293	0.0141921
818.371	0.0141277
818.450	0.0142570
818.528	0.0142068
818.606	0.0142971
818.684	0.0141714
818.762	0.0142529
818.840	0.0143120
818.918	0.0142029
818.996	0.0142710
819.075	0.0143006
819.153	0.0142645
819.231	0.0142931
819.309	0.0143047
819.387	0.0143607
819.465	0.0142052
819.543	0.0141899
819.621	0.0142776
819.700	0.0142075
819.778	0.0143076
819.856	0.0142188
819.934	0.0142098
820.012	0.0142371
820.090	0.0142145
820.168	0.0143383
820.246	0.0142117
820.325	0.0143338
820.403	0.0143438
820.481	0.0141922
820.559	0.0142720
820.637	0.0142155
820.715	0.0143027
820.793	0.0143362
820.871	0.0142886
820.950	0.0141644
821.028	0.0142185
821.106	0.0142447
821.184	0.0142592
821.262	0.0140461
821.340	0.0141388
821.418	0.0142899
821.496	0.0142776
821.575	0.0141737
821.653	0.0140052
821.731	0.0141579
821.809	0.0141128
821.887	0.0141850
821.965	0.0141212
822.043	0.0141963
822.121	0.0141304
822.200	0.0141336
822.278	0.0141515
822.356	0.0141521
822.434	0.0140089
822.512	0.0140383
822.590	0.0142180
822.668	0.0141074
822.746	0.0141591
822.825	0.0141216
822.903	0.0141882
822.981	0.0141100
823.059	0.0141402
823.137	0.0142024
823.215	0.0141371
823.293	0.0141015
823.371	0.0141078
823.450	0.0142342
823.528	0.0142161
823.606	0.0142533
823.684	0.0141045
823.762	0.0140994
823.840	0.0141641
823.918	0.0141023
823.996	0.0141060
824.075	0.0141608
824.153	0.0141566
824.231	0.0143520
824.309	0.0143215
824.387	0.0140555
824.465	0.0140868
824.543	0.0142252
824.621	0.0141830
824.700	0.0141290
824.778	0.0141495
824.856	0.0141738
824.934	0.0142739
825.012	0.0142458
825.090	0.0140994
825.168	0.0140669
825.246	0.0141428
825.325	0.0141418
825.403	0.0140362
825.481	0.0141590
825.559	0.0141831
825.637	0.0141636
825.715	0.0143052
825.793	0.0142978
825.871	0.0142553
825.950	0.0142271
826.028	0.0142449
826.106	0.0142310
826.184	0.0141805
826.262	0.0143828
826.340	0.0142112
826.418	0.0144187
826.496	0.0142456
826.575	0.0141794
826.653	0.0142030
826.731	0.0142168
826.809	0.0141470
826.887	0.0143378
826.965	0.0142505
827.043	0.0141446
827.121	0.0142480
827.200	0.0143275
827.278	0.0141615
827.356	0.0140940
827.434	0.0142214
827.512	0.0142311
827.590	0.0142005
827.668	0.0142848
827.746	0.0141193
827.825	0.0141245
827.903	0.0142182
827.981	0.0141482
828.059	0.0141775
828.137	0.0141493
828.215	0.0142131
828.293	0.0141782
828.371	0.0142691
828.450	0.0142430
828.528	0.0140889
828.606	0.0142002
828.684	0.0141689
828.762	0.0142944
828.840	0.0142645
828.918	0.0142105
828.996	0.0142738
829.075	0.0142214
829.153	0.0142548
829.231	0.0142084
829.309	0.0142648
829.387	0.0144087
829.465	0.0141593
829.543	0.0142239
829.621	0.0143997
829.700	0.0143354
829.778	0.0142519
829.856	0.0143443
829.934	0.0142664
830.012	0.0142509
830.090	0.0143561
830.168	0.0142640
830.246	0.0143310
830.325	0.0142238
830.403	0.0142374
830.481	0.0141761
830.559	0.0143192
830.637	0.0143532
830.715	0.0141975
830.793	0.0143337
830.871	0.0143645
830.950	0.0143526
831.028	0.0143695
831.106	0.0142502
831.184	0.0143087
831.262	0.0142500
831.340	0.0140826
831.418	0.0141873
831.496	0.0141262
831.575	0.0142239
831.653	0.0142332
831.731	0.0142602
831.809	0.0142726
831.887	0.0142649
831.965	0.0143522
832.043	0.0142691
832.121	0.0141660
832.200	0.0142126
832.278	0.0142000
832.356	0.0143628
832.434	0.0142879
832.512	0.0141677
832.590	0.0142734
832.668	0.0143215
832.746	0.0142301
832.825	0.0144324
832.903	0.0142569
832.981	0.0142400
833.059	0.0141865
833.137	0.0141712
833.215	0.0143378
833.293	0.0141660
833.371	0.0142535
833.450	0.0142052
833.528	0.0141994
833.606	0.0142238
833.684	0.0142399
833.762	0.0143114
833.840	0.0142067
833.918	0.0143367
833.996	0.0142036
834.075	0.0142805
834.153	0.0143203
834.231	0.0142454
834.309	0.0142949
834.387	0.0142734
834.465	0.0143231
834.543	0.0142674
834.621	0.0142723
834.700	0.0142564
834.778	0.0140883
834.856	0.0145224
834.934	0.0144127
835.012	0.0142422
835.090	0.0142342
835.168	0.0142037
835.246	0.0144453
835.325	0.0143394
835.403	0.0143939
835.481	0.0142791
835.559	0.0143190
835.637	0.0141975
835.715	0.0142935
835.793	0.0141930
835.871	0.0141157
835.950	0.0142467
836.028	0.0143288
836.106	0.0142921
836.184	0.0141799
836.262	0.0142166
836.340	0.0142385
836.418	0.0141982
836.496	0.0142780
836.575	0.0142846
836.653	0.0143218
836.731	0.0143407
836.809	0.0142795
836.887	0.0143078
836.965	0.0144354
837.043	0.0143282
837.121	0.0143159
837.200	0.0143919
837.278	0.0143512
837.356	0.0143809
837.434	0.0143179
837.512	0.0142817
837.590	0.0144090
837.668	0.0143800
837.746	0.0141978
837.825	0.0143596
837.903	0.0144189
837.981	0.0144337
838.059	0.0142935
838.137	0.0143156
838.215	0.0144427
838.293	0.0144609
838.371	0.0142550
838.450	0.0143423
838.528	0.0143375
838.606	0.0142543
838.684	0.0142744
838.762	0.0142924
838.840	0.0143573
838.918	0.0142541
838.996	0.0143353
839.075	0.0142004
839.153	0.0142357
839.231	0.0142418
839.309	0.0142262
839.387	0.0141859
839.465	0.0142343
839.543	0.0141414
839.621	0.0141692
839.700	0.0141785
839.778	0.0141182
839.856	0.0141611
839.934	0.0141404
840.012	0.0142788
840.090	0.0143214
840.168	0.0141907
840.246	0.0140908
840.325	0.0141866
840.403	0.0143709
840.481	0.0142164
840.559	0.0141827
840.637	0.0141093
840.715	0.0142718
840.793	0.0143195
840.871	0.0143608
840.950	0.0141845
841.028	0.0140317
841.106	0.0140924
841.184	0.0143008
841.262	0.0142219
841.340	0.0142556
841.418	0.0142580
841.496	0.0143224
841.575	0.0141093
841.653	0.0142522
841.731	0.0142871
841.809	0.0142858
841.887	0.0142397
841.965	0.0141745
842.043	0.0141764
842.121	0.0141708
842.200	0.0142648
842.278	0.0143424
842.356	0.0142697
842.434	0.0144427
842.512	0.0142262
842.590	0.0143591
842.668	0.0143488
842.746	0.0142413
842.825	0.0142934
842.903	0.0143931
842.981	0.0143496
843.059	0.0142477
843.137	0.0142396
843.215	0.0141726
843.293	0.0142520
843.371	0.0142258
843.450	0.0142046
843.528	0.0141553
843.606	0.0142900
843.684	0.0144114
843.762	0.0141598
843.840	0.0141516
843.918	0.0143268
843.996	0.0143771
844.075	0.0142530
844.153	0.0141646
844.231	0.0143413
844.309	0.0144330
844.387	0.0143726
844.465	0.0141916
844.543	0.0142398
844.621	0.0143534
844.700	0.0144993
844.778	0.0142931
844.856	0.0143275
844.934	0.0144201
845.012	0.0142403
845.090	0.0143248
845.168	0.0142422
845.246	0.0142549
845.325	0.0142171
845.403	0.0140990
845.481	0.0141796
845.559	0.0143437
845.637	0.0140907
845.715	0.0142147
845.793	0.0141164
845.871	0.0142248
845.950	0.0141692
846.028	0.0143582
846.106	0.0142346
846.184	0.0141665
846.262	0.0142263
846.340	0.0141730
846.418	0.0142287
846.496	0.0142399
846.575	0.0140559
846.653	0.0141575
846.731	0.0141850
846.809	0.0141555
846.887	0.0143330
846.965	0.0142730
847.043	0.0141050
847.121	0.0141421
847.200	0.0141329
847.278	0.0141863
847.356	0.0143352
847.434	0.0142435
847.512	0.0141553
847.590	0.0141793
847.668	0.0141629
847.746	0.0142039
847.825	0.0141656
847.903	0.0141933
847.981	0.0141266
848.059	0.0140031
848.137	0.0142490
848.215	0.0142745
848.293	0.0142117
848.371	0.0141149
848.450	0.0141440
848.528	0.0143267
848.606	0.0142275
848.684	0.0141860
848.762	0.0142813
848.840	0.0143125
848.918	0.0141339
848.996	0.0142416
849.075	0.0142897
849.153	0.0142812
849.231	0.0142544
849.309	0.0142943
849.387	0.0143244
849.465	0.0143259
849.543	0.0142986
849.621	0.0143372
849.700	0.0143568
849.778	0.0141496
849.856	0.0141464
849.934	0.0142414
850.012	0.0143488
850.090	0.0142594
850.168	0.0141685
850.246	0.0142905
850.325	0.0141261
850.403	0.0141507
850.481	0.0142758
850.559	0.0142522
850.637	0.0142351
850.715	0.0142729
850.793	0.0141846
850.871	0.0141854
850.950	0.0140689
851.028	0.0142804
851.106	0.0142094
851.184	0.0141759
851.262	0.0141286
851.340	0.0143674
851.418	0.0143436
851.496	0.0142903
851.575	0.0142879
851.653	0.0142865
851.731	0.0144214
851.809	0.0143579
851.887	0.0142747
851.965	0.0141639
852.043	0.0143256
852.121	0.0143421
852.200	0.0143377
852.278	0.0142181
852.356	0.0142093
852.434	0.0143311
852.512	0.0142992
852.590	0.0143346
852.668	0.0143353
852.746	0.0141843
852.825	0.0142680
852.903	0.0143153
852.981	0.0143171
853.059	0.0142827
853.137	0.0142471
853.215	0.0142426
853.293	0.0141808
853.371	0.0143008
853.450	0.0142430
853.528	0.0141241
853.606	0.0141185
853.684	0.0143176
853.762	0.0142271
853.840	0.0141554
853.918	0.0142546
853.996	0.0142647
854.075	0.0141774
854.153	0.0141230
854.231	0.0141941
854.309	0.0141357
854.387	0.0141705
854.465	0.0141468
854.543	0.0141451
854.621	0.0141290
854.700	0.0141298
854.778	0.0142973
854.856	0.0143212
854.934	0.0142258
855.012	0.0141238
855.090	0.0141967
855.168	0.0141817
855.246	0.0142549
855.325	0.0140424
855.403	0.0141427
855.481	0.0141842
855.559	0.0142062
855.637	0.0141674
855.715	0.0141427
855.793	0.0142309
855.871	0.0142300
855.950	0.0141154
856.028	0.0141386
856.106	0.0141946
856.184	0.0142642
856.262	0.0142325
856.340	0.0141468
856.418	0.0141999
856.496	0.0142898
856.575	0.0140862
856.653	0.0142351
856.731	0.0141823
856.809	0.0140861
856.887	0.0142613
856.965	0.0141463
857.043	0.0140414
857.121	0.0142531
857.200	0.0143108
857.278	0.0142482
857.356	0.0141932
857.434	0.0141328
857.512	0.0141792
857.590	0.0142904
857.668	0.0139960
857.746	0.0141853
857.825	0.0143565
857.903	0.0141722
857.981	0.0141390
858.059	0.0142927
858.137	0.0141168
858.215	0.0143526
858.293	0.0141174
858.371	0.0141932
858.450	0.0143988
858.528	0.0143388
858.606	0.0142580
858.684	0.0142272
858.762	0.0144662
858.840	0.0142976
858.918	0.0143129
858.996	0.0144091
859.075	0.0143000
859.153	0.0142609
859.231	0.0142708
859.309	0.0143954
859.387	0.0143039
859.465	0.0143186
859.543	0.0142336
859.621	0.0144005
859.700	0.0141949
859.778	0.0142535
859.856	0.0142272
859.934	0.0141972
860.012	0.0143761
860.090	0.0142404
860.168	0.0143079
860.246	0.0142715
860.325	0.0143066
860.403	0.0143432
860.481	0.0143608
860.559	0.0142407
860.637	0.0141483
860.715	0.0142925
860.793	0.0143007
860.871	0.0143198
860.950	0.0142268
861.028	0.0144228
861.106	0.0141940
861.184	0.0143027
861.262	0.0141711
861.340	0.0141497
861.418	0.0143481
861.496	0.0143496
861.575	0.0142525
861.653	0.0142631
861.731	0.0142480
861.809	0.0142966
861.887	0.0143021
861.965	0.0143772
862.043	0.0143365
862.121	0.0142024
862.200	0.0142367
862.278	0.0142413
862.356	0.0141270
862.434	0.0143050
862.512	0.0143035
862.590	0.0141640
862.668	0.0142564
862.746	0.0142972
862.825	0.0143075
862.903	0.0142162
862.981	0.0143766
863.059	0.0143880
863.137	0.0143832
863.215	0.0142011
863.293	0.0143628
863.371	0.0143495
863.450	0.0142652
863.528	0.0143931
863.606	0.0142844
863.684	0.0143082
863.762	0.0142463
863.840	0.0143295
863.918	0.0143600
863.996	0.0143686
864.075	0.0143254
864.153	0.0142191
864.231	0.0142197
864.309	0.0142852
864.387	0.0142602
864.465	0.0141318
864.543	0.0143478
864.621	0.0142870
864.700	0.0143152
864.778	0.0142656
864.856	0.0144354
864.934	0.0144128
865.012	0.0143482
865.090	0.0141715
865.168	0.0142198
865.246	0.0142838
865.325	0.0141821
865.403	0.0144173
865.481	0.0142980
865.559	0.0142875
865.637	0.0144091
865.715	0.0142662
865.793	0.0142398
865.871	0.0142872
865.950	0.0141645
866.028	0.0143337
866.106	0.0143583
866.184	0.0143729
866.262	0.0143296
866.340	0.0143419
866.418	0.0142303
866.496	0.0143706
866.575	0.0142920
866.653	0.0142793
866.731	0.0144207
866.809	0.0142673
866.887	0.0141592
866.965	0.0143029
867.043	0.0142882
867.121	0.0142289
867.200	0.0143187
867.278	0.0141080
867.356	0.0143240
867.434	0.0142416
867.512	0.0142207
867.590	0.0143909
867.668	0.0143074
867.746	0.0143538
867.825	0.0142808
867.903	0.0144274
867.981	0.0143886
868.059	0.0142746
868.137	0.0142983
868.215	0.0143277
868.293	0.0142747
868.371	0.0141325
868.450	0.0142998
868.528	0.0144103
868.606	0.0141933
868.684	0.0140576
868.762	0.0141407
868.840	0.0142643
868.918	0.0143929
868.996	0.0142025
869.075	0.0142309
869.153	0.0141885
869.231	0.0142454
869.309	0.0141608
869.387	0.0142958
869.465	0.0141856
869.543	0.0142004
869.621	0.0142696
869.700	0.0141644
869.778	0.0141124
869.856	0.0142005
869.934	0.0141301
870.012	0.0141756
870.090	0.0140829
870.168	0.0140158
870.246	0.0141878
870.325	0.0142306
870.403	0.0141792
870.481	0.0143011
870.559	0.0140896
870.637	0.0141954
870.715	0.0141869
870.793	0.0142229
870.871	0.0142719
870.950	0.0142201
871.028	0.0142517
871.106	0.0141299
871.184	0.0141832
871.262	0.0143439
871.340	0.0142197
871.418	0.0141304
871.496	0.0142457
871.575	0.0141579
871.653	0.0142027
871.731	0.0141355
871.809	0.0142854
871.887	0.0140671
871.965	0.0141161
872.043	0.0141866
872.121	0.0141245
872.200	0.0142664
872.278	0.0143119
872.356	0.0142021
872.434	0.0142436
872.512	0.0142050
872.590	0.0141354
872.668	0.0141125
872.746	0.0143071
872.825	0.0142596
872.903	0.0142717
872.981	0.0143169
873.059	0.0142413
873.137	0.0141779
873.215	0.0141700
873.293	0.0141763
873.371	0.0142281
873.450	0.0141772
873.528	0.0142592
873.606	0.0142474
873.684	0.0141462
873.762	0.0142266
873.840	0.0140993
873.918	0.0141668
873.996	0.0142827
874.075	0.0141978
874.153	0.0142522
874.231	0.0143207
874.309	0.0142761
874.387	0.0143266
874.465	0.0142630
874.543	0.0142502
874.621	0.0142028
874.700	0.0142326
874.778	0.0142088
874.856	0.0143198
874.934	0.0142966
875.012	0.0142470
875.090	0.0142402
875.168	0.0143063
875.246	0.0143786
875.325	0.0142963
875.403	0.0142147
875.481	0.0141778
875.559	0.0141386
875.637	0.0142250
875.715	0.0141892
875.793	0.0142471
875.871	0.0141821
875.950	0.0142616
876.028	0.0141743
876.106	0.0142078
876.184	0.0141489
876.262	0.0141282
876.340	0.0142744
876.418	0.0142743
876.496	0.0142474
876.575	0.0141286
876.653	0.0140888
876.731	0.0141634
876.809	0.0142867
876.887	0.0143105
876.965	0.0140865
877.043	0.0141833
877.121	0.0142711
877.200	0.0141824
877.278	0.0141048
877.356	0.0142536
877.434	0.0141811
877.512	0.0142358
877.590	0.0141843
877.668	0.0143108
877.746	0.0142068
877.825	0.0140865
877.903	0.0141167
877.981	0.0142930
878.059	0.0143401
878.137	0.0141414
878.215	0.0142243
878.293	0.0141994
878.371	0.0142052
878.450	0.0142090
878.528	0.0139067
878.606	0.0141743
878.684	0.0141508
878.762	0.0141110
878.840	0.0142220
878.918	0.0141516
878.996	0.0141822
879.075	0.0142061
879.153	0.0141859
879.231	0.0142193
879.309	0.0143354
879.387	0.0141106
879.465	0.0140464
879.543	0.0143030
879.621	0.0144138
879.700	0.0143810
879.778	0.0141907
879.856	0.0144269
879.934	0.0144818
880.012	0.0146111
880.090	0.0143719
880.168	0.0142619
880.246	0.0143134
880.325	0.0143369
880.403	0.0142896
880.481	0.0143915
880.559	0.0143719
880.637	0.0142583
880.715	0.0143099
880.793	0.0142900
880.871	0.0141316
880.950	0.0142988
881.028	0.0141666
881.106	0.0141064
881.184	0.0141051
881.262	0.0142126
881.340	0.0141075
881.418	0.0141382
881.496	0.0142918
881.575	0.0142921
881.653	0.0142569
881.731	0.0142826
881.809	0.0142445
881.887	0.0142970
881.965	0.0144012
882.043	0.0141811
882.121	0.0141814
882.200	0.0143109
882.278	0.0142525
882.356	0.0141603
882.434	0.0142213
882.512	0.0143398
882.590	0.0142048
882.668	0.0142123
882.746	0.0142847
882.825	0.0142345
882.903	0.0142166
882.981	0.0142954
883.059	0.0144158
883.137	0.0144101
883.215	0.0142652
883.293	0.0143536
883.371	0.0143192
883.450	0.0145060
883.528	0.0142625
883.606	0.0142760
883.684	0.0143308
883.762	0.0142216
883.840	0.0142668
883.918	0.0143146
883.996	0.0142548
884.075	0.0142776
884.153	0.0141740
884.231	0.0141913
884.309	0.0141314
884.387	0.0143299
884.465	0.0142386
884.543	0.0142565
884.621	0.0142740
884.700	0.0141354
884.778	0.0143232
884.856	0.0142317
884.934	0.0143304
885.012	0.0141126
885.090	0.0142101
885.168	0.0142242
885.246	0.0142936
885.325	0.0141508
885.403	0.0141116
885.481	0.0142027
885.559	0.0141113
885.637	0.0141798
885.715	0.0143047
885.793	0.0142511
885.871	0.0142868
885.950	0.0141755
886.028	0.0142954
886.106	0.0143030
886.184	0.0141898
886.262	0.0142634
886.340	0.0142339
886.418	0.0143341
886.496	0.0144037
886.575	0.0142250
886.653	0.0142166
886.731	0.0142822
886.809	0.0142889
886.887	0.0142837
886.965	0.0142110
887.043	0.0141990
887.121	0.0142549
887.200	0.0142181
887.278	0.0141340
887.356	0.0141838
887.434	0.0141970
887.512	0.0140946
887.590	0.0141371
887.668	0.0143723
887.746	0.0142324
887.825	0.0141022
887.903	0.0142352
887.981	0.0142896
888.059	0.0143169
888.137	0.0142039
888.215	0.0142854
888.293	0.0143948
888.371	0.0143610
888.450	0.0142569
888.528	0.0143034
888.606	0.0143194
888.684	0.0143056
888.762	0.0142802
888.840	0.0142906
888.918	0.0142949
888.996	0.0142203
889.075	0.0142579
889.153	0.0142334
889.231	0.0141512
889.309	0.0143816
889.387	0.0141455
889.465	0.0142209
889.543	0.0141530
889.621	0.0143039
889.700	0.0142522
889.778	0.0141637
889.856	0.0142355
889.934	0.0143530
890.012	0.0143562
890.090	0.0144621
890.168	0.0142937
890.246	0.0141590
890.325	0.0142387
890.403	0.0141644
890.481	0.0142684
890.559	0.0141930
890.637	0.0143659
890.715	0.0141746
890.793	0.0142905
890.871	0.0143311
890.950	0.0143472
891.028	0.0141606
891.106	0.0142108
891.184	0.0143346
891.262	0.0143495
891.340	0.0142136
891.418	0.0142641
891.496	0.0142364
891.575	0.0140626
891.653	0.0141541
891.731	0.0141773
891.809	0.0141069
891.887	0.0142607
891.965	0.0142036
892.043	0.0140974
892.121	0.0140213
892.200	0.0141737
892.278	0.0141055
892.356	0.0141875
892.434	0.0140498
892.512	0.0140782
892.590	0.0141883
892.668	0.0141524
892.746	0.0141085
892.825	0.0140708
892.903	0.0141525
892.981	0.0142417
893.059	0.0142387
893.137	0.0141077
893.215	0.0141231
893.293	0.0142179
893.371	0.0139312
893.450	0.0141888
893.528	0.0142667
893.606	0.0142007
893.684	0.0142079
893.762	0.0141439
893.840	0.0141840
893.918	0.0141485
893.996	0.0141824
894.075	0.0142249
894.153	0.0142857
894.231	0.0142461
894.309	0.0141032
894.387	0.0141543
894.465	0.0141486
894.543	0.0142370
894.621	0.0142453
894.700	0.0142468
894.778	0.0143358
894.856	0.0142659
894.934	0.0142838
895.012	0.0142793
895.090	0.0143005
895.168	0.0142230
895.246	0.0142776
895.325	0.0141775
895.403	0.0142730
895.481	0.0141850
895.559	0.0141431
895.637	0.0142970
895.715	0.0142018
895.793	0.0142145
895.871	0.0143005
895.950	0.0141846
896.028	0.0142517
896.106	0.0142046
896.184	0.0141928
896.262	0.0143259
896.340	0.0142310
896.418	0.0142341
896.496	0.0144087
896.575	0.0144633
896.653	0.0142371
896.731	0.0141922
896.809	0.0143192
896.887	0.0143309
896.965	0.0142388
897.043	0.0142656
897.121	0.0143175
897.200	0.0142364
897.278	0.0141073
897.356	0.0143027
897.434	0.0142976
897.512	0.0141824
897.590	0.0141708
897.668	0.0142401
897.746	0.0142568
897.825	0.0142462
897.903	0.0143099
897.981	0.0143745
898.059	0.0144373
898.137	0.0143367
898.215	0.0142433
898.293	0.0144044
898.371	0.0143752
898.450	0.0143334
898.528	0.0142872
898.606	0.0144283
898.684	0.0144117
898.762	0.0143273
898.840	0.0143636
898.918	0.0142783
898.996	0.0142910
899.075	0.0142501
899.153	0.0141582
899.231	0.0142417
899.309	0.0143007
899.387	0.0141344
899.465	0.0142907
899.543	0.0142634
899.621	0.0142675
899.700	0.0142127
899.778	0.0142248
899.856	0.0141598
899.934	0.0142738
900.012	0.0142990
900.090	0.0142111
900.168	0.0142702
900.246	0.0142767
900.325	0.0142216
900.403	0.0141553
900.481	0.0142797
900.559	0.0142421
900.637	0.0143048
900.715	0.0141756
900.793	0.0142120
900.871	0.0142342
900.950	0.0142791
901.028	0.0142271
901.106	0.0141640
901.184	0.0141988
901.262	0.0143775
901.340	0.0143764
901.418	0.0143868
901.496	0.0142049
901.575	0.0141897
901.653	0.0140973
901.731	0.0141138
901.809	0.0141833
901.887	0.0141637
901.965	0.0141279
902.043	0.0141120
902.121	0.0141016
902.200	0.0140078
902.278	0.0140562
902.356	0.0140867
902.434	0.0142386
902.512	0.0141974
902.590	0.0143162
902.668	0.0142961
902.746	0.0144032
902.825	0.0144576
902.903	0.0143411
902.981	0.0142995
903.059	0.0142464
903.137	0.0142519
903.215	0.0143940
903.293	0.0143799
903.371	0.0142570
903.450	0.0144974
903.528	0.0141743
903.606	0.0141039
903.684	0.0142537
903.762	0.0142557
903.840	0.0141852
903.918	0.0141562
903.996	0.0142139
904.075	0.0142691
904.153	0.0142417
904.231	0.0142537
904.309	0.0141167
904.387	0.0142284
904.465	0.0141592
904.543	0.0142147
904.621	0.0142452
904.700	0.0142099
904.778	0.0141422
904.856	0.0142872
904.934	0.0141370
905.012	0.0141276
905.090	0.0141648
905.168	0.0141956
905.246	0.0142670
905.325	0.0142588
905.403	0.0142970
905.481	0.0143792
905.559	0.0143765
905.637	0.0142810
905.715	0.0142782
905.793	0.0143142
905.871	0.0141491
905.950	0.0144361
906.028	0.0142713
906.106	0.0142462
906.184	0.0143231
906.262	0.0143041
906.340	0.0142095
906.418	0.0143823
906.496	0.0142957
906.575	0.0142603
906.653	0.0141927
906.731	0.0142258
906.809	0.0143093
906.887	0.0141698
906.965	0.0142442
907.043	0.0141494
907.121	0.0143822
907.200	0.0142045
907.278	0.0141747
907.356	0.0142997
907.434	0.0142093
907.512	0.0142845
907.590	0.0143970
907.668	0.0143412
907.746	0.0142268
907.825	0.0142077
907.903	0.0142542
907.981	0.0144498
908.059	0.0142205
908.137	0.0143027
908.215	0.0141560
908.293	0.0142563
908.371	0.0142841
908.450	0.0143333
908.528	0.0143036
908.606	0.0143073
908.684	0.0143228
908.762	0.0142899
908.840	0.0142635
908.918	0.0141809
908.996	0.0142651
909.075	0.0141675
909.153	0.0142319
909.231	0.0142867
909.309	0.0141808
909.387	0.0141229
909.465	0.0141012
909.543	0.0143123
909.621	0.0142274
909.700	0.0141263
909.778	0.0142521
909.856	0.0141785
909.934	0.0142802
910.012	0.0142329
910.090	0.0141642
910.168	0.0141759
910.246	0.0142696
910.325	0.0142750
910.403	0.0143161
910.481	0.0141283
910.559	0.0141975
910.637	0.0142130
910.715	0.0143430
910.793	0.0141241
910.871	0.0141720
910.950	0.0142429
911.028	0.0141934
911.106	0.0143109
911.184	0.0142712
911.262	0.0141536
911.340	0.0142230
911.418	0.0142029
911.496	0.0142793
911.575	0.0141409
911.653	0.0141876
911.731	0.0140762
911.809	0.0142123
911.887	0.0143035
911.965	0.0141800
912.043	0.0142314
912.121	0.0142310
912.200	0.0142188
912.278	0.0142867
912.356	0.0142272
912.434	0.0140443
912.512	0.0141249
912.590	0.0143279
912.668	0.0143464
912.746	0.0142175
912.825	0.0141531
912.903	0.0143343
912.981	0.0144067
913.059	0.0143375
913.137	0.0142040
913.215	0.0143604
913.293	0.0142507
913.371	0.0143954
913.450	0.0143453
913.528	0.0143378
913.606	0.0142304
913.684	0.0142455
913.762	0.0142307
913.840	0.0142419
913.918	0.0142382
913.996	0.0141068
914.075	0.0143507
914.153	0.0144032
914.231	0.0141911
914.309	0.0141546
914.387	0.0141414
914.465	0.0143119
914.543	0.0143413
914.621	0.0142426
914.700	0.0142041
914.778	0.0143114
914.856	0.0143449
914.934	0.0143315
915.012	0.0143806
915.090	0.0142907
915.168	0.0143128
915.246	0.0143451
915.325	0.0143266
915.403	0.0142971
915.481	0.0143551
915.559	0.0142606
915.637	0.0142408
915.715	0.0142551
915.793	0.0142509
915.871	0.0142168
915.950	0.0143108
916.028	0.0141927
916.106	0.0142079
916.184	0.0142068
916.262	0.0142617
916.340	0.0142468
916.418	0.0142378
916.496	0.0142281
916.575	0.0142329
916.653	0.0143091
916.731	0.0142902
916.809	0.0143585
916.887	0.0143366
916.965	0.0142397
917.043	0.0141908
917.121	0.0142114
917.200	0.0142133
917.278	0.0143225
917.356	0.0143440
917.434	0.0142643
917.512	0.0142709
917.590	0.0142011
917.668	0.0142240
917.746	0.0142596
917.825	0.0143367
917.903	0.0142212
917.981	0.0142410
918.059	0.0143833
918.137	0.0142262
918.215	0.0141862
918.293	0.0143559
918.371	0.0142625
918.450	0.0143091
918.528	0.0142205
918.606	0.0142865
918.684	0.0142782
918.762	0.0141564
918.840	0.0143159
918.918	0.0141282
918.996	0.0142110
919.075	0.0143622
919.153	0.0142450
919.231	0.0142397
919.309	0.0141557
919.387	0.0142187
919.465	0.0143073
919.543	0.0143234
919.621	0.0142593
919.700	0.0141698
919.778	0.0141509
919.856	0.0142677
919.934	0.0142001
920.012	0.0142931
920.090	0.0142654
920.168	0.0142854
920.246	0.0141810
920.325	0.0140099
920.403	0.0141627
920.481	0.0142456
920.559	0.0141658
920.637	0.0140493
920.715	0.0142173
920.793	0.0142095
920.871	0.0142329
920.950	0.0141659
921.028	0.0140623
921.106	0.0141085
921.184	0.0141380
921.262	0.0140038
921.340	0.0140340
921.418	0.0141306
921.496	0.0140003
921.575	0.0141431
921.653	0.0142519
921.731	0.0141136
921.809	0.0142130
921.887	0.0142650
921.965	0.0142569
922.043	0.0141817
922.121	0.0142447
922.200	0.0141213
922.278	0.0142430
922.356	0.0142214
922.434	0.0142517
922.512	0.0142685
922.590	0.0141833
922.668	0.0141259
922.746	0.0141623
922.825	0.0141896
922.903	0.0142003
922.981	0.0141730
923.059	0.0142525
923.137	0.0141587
923.215	0.0142662
923.293	0.0141923
923.371	0.0140663
923.450	0.0141318
923.528	0.0142860
923.606	0.0143666
923.684	0.0142699
923.762	0.0142085
923.840	0.0143056
923.918	0.0142803
923.996	0.0142504
924.075	0.0141765
924.153	0.0142500
924.231	0.0142394
924.309	0.0142485
924.387	0.0142953
924.465	0.0142033
924.543	0.0141315
924.621	0.0142849
924.700	0.0142173
924.778	0.0142582
924.856	0.0143476
924.934	0.0142860
925.012	0.0141486
925.090	0.0140485
925.168	0.0143066
925.246	0.0141994
925.325	0.0141358
925.403	0.0141069
925.481	0.0141968
925.559	0.0141579
925.637	0.0140408
925.715	0.0141951
925.793	0.0142011
925.871	0.0141043
925.950	0.0141690
926.028	0.0141381
926.106	0.0140871
926.184	0.0141425
926.262	0.0143883
926.340	0.0141765
926.418	0.0142037
926.496	0.0142077
926.575	0.0141805
926.653	0.0141747
926.731	0.0141522
926.809	0.0141967
926.887	0.0141975
926.965	0.0141455
927.043	0.0142490
927.121	0.0140615
927.200	0.0142478
927.278	0.0141102
927.356	0.0142219
927.434	0.0141819
927.512	0.0141747
927.590	0.0141650
927.668	0.0141699
927.746	0.0142618
927.825	0.0141160
927.903	0.0141495
927.981	0.0142519
928.059	0.0142577
928.137	0.0141655
928.215	0.0142142
928.293	0.0141869
928.371	0.0141649
928.450	0.0140517
928.528	0.0141538
928.606	0.0141130
928.684	0.0142307
928.762	0.0142912
928.840	0.0141257
928.918	0.0142622
928.996	0.0142679
929.075	0.0141824
929.153	0.0141997
929.231	0.0142898
929.309	0.0142725
929.387	0.0142684
929.465	0.0142229
929.543	0.0142771
929.621	0.0142876
929.700	0.0143373
929.778	0.0143032
929.856	0.0143717
929.934	0.0143004
930.012	0.0142212
930.090	0.0142822
930.168	0.0144066
930.246	0.0143206
930.325	0.0143868
930.403	0.0143906
930.481	0.0143985
930.559	0.0144511
930.637	0.0142808
930.715	0.0143607
930.793	0.0144446
930.871	0.0143852
930.950	0.0143240
931.028	0.0143216
931.106	0.0142104
931.184	0.0142966
931.262	0.0142527
931.340	0.0142985
931.418	0.0143053
931.496	0.0142302
931.575	0.0143138
931.653	0.0142914
931.731	0.0142687
931.809	0.0143329
931.887	0.0142218
931.965	0.0142155
932.043	0.0141450
932.121	0.0142786
932.200	0.0143118
932.278	0.0142401
932.356	0.0143450
932.434	0.0143113
932.512	0.0143340
932.590	0.0142564
932.668	0.0143044
932.746	0.0142896
932.825	0.0143725
932.903	0.0143577
932.981	0.0143722
933.059	0.0142945
933.137	0.0143150
933.215	0.0143122
933.293	0.0141505
933.371	0.0142258
933.450	0.0143784
933.528	0.0143944
933.606	0.0141958
933.684	0.0142592
933.762	0.0142255
933.840	0.0141826
933.918	0.0142091
933.996	0.0142371
934.075	0.0140956
934.153	0.0141029
934.231	0.0141821
934.309	0.0141776
934.387	0.0141766
934.465	0.0141667
934.543	0.0141882
934.621	0.0142535
934.700	0.0142134
934.778	0.0142847
934.856	0.0142105
934.934	0.0141430
935.012	0.0142677
935.090	0.0142381
935.168	0.0142951
935.246	0.0142388
935.325	0.0143755
935.403	0.0142984
935.481	0.0143268
935.559	0.0142498
935.637	0.0142210
935.715	0.0141702
935.793	0.0142503
935.871	0.0142468
935.950	0.0143122
936.028	0.0142180
936.106	0.0143172
936.184	0.0143024
936.262	0.0141953
936.340	0.0143365
936.418	0.0143253
936.496	0.0141638
936.575	0.0143546
936.653	0.0142072
936.731	0.0142542
936.809	0.0142246
936.887	0.0143513
936.965	0.0141667
937.043	0.0143018
937.121	0.0143553
937.200	0.0143538
937.278	0.0143701
937.356	0.0141674
937.434	0.0142359
937.512	0.0143036
937.590	0.0143652
937.668	0.0142959
937.746	0.0142802
937.825	0.0143118
937.903	0.0143305
937.981	0.0144470
938.059	0.0143140
938.137	0.0142479
938.215	0.0142558
938.293	0.0143877
938.371	0.0143365
938.450	0.0142782
938.528	0.0144861
938.606	0.0142784
938.684	0.0143297
938.762	0.0145257
938.840	0.0144670
938.918	0.0142500
938.996	0.0142928
939.075	0.0143431
939.153	0.0144305
939.231	0.0143089
939.309	0.0143870
939.387	0.0143714
939.465	0.0144724
939.543	0.0144650
939.621	0.0141960
939.700	0.0141837
939.778	0.0142869
939.856	0.0142077
939.934	0.0142593
940.012	0.0144032
940.090	0.0143009
940.168	0.0143595
940.246	0.0142700
940.325	0.0143131
940.403	0.0142026
940.481	0.0143468
940.559	0.0142310
940.637	0.0141805
940.715	0.0142412
940.793	0.0142735
940.871	0.0141100
940.950	0.0142793
941.028	0.0142991
941.106	0.0143155
941.184	0.0143390
941.262	0.0142748
941.340	0.0143778
941.418	0.0143082
941.496	0.0142822
941.575	0.0143352
941.653	0.0141997
941.731	0.0142213
941.809	0.0141737
941.887	0.0142897
941.965	0.0142951
942.043	0.0142944
942.121	0.0141659
942.200	0.0141460
942.278	0.0141841
942.356	0.0143668
942.434	0.0142960
942.512	0.0142072
942.590	0.0143703
942.668	0.0142544
942.746	0.0141530
942.825	0.0143367
942.903	0.0142435
942.981	0.0143729
943.059	0.0143374
943.137	0.0142751
943.215	0.0142757
943.293	0.0143709
943.371	0.0141677
943.450	0.0142619
943.528	0.0142226
943.606	0.0143353
943.684	0.0141606
943.762	0.0142709
943.840	0.0143001
943.918	0.0142358
943.996	0.0142218
944.075	0.0141180
944.153	0.0141548
944.231	0.0143031
944.309	0.0143684
944.387	0.0141113
944.465	0.0141010
944.543	0.0140424
944.621	0.0139403
944.700	0.0140733
944.778	0.0143127
944.856	0.0142680
944.934	0.0140251
945.012	0.0140953
945.090	0.0142377
945.168	0.0141930
945.246	0.0140759
945.325	0.0141074
945.403	0.0140701
945.481	0.0141393
945.559	0.0142204
945.637	0.0141977
945.715	0.0139211
945.793	0.0141373
945.871	0.0140833
945.950	0.0141791
946.028	0.0141448
946.106	0.0142024
946.184	0.0141274
946.262	0.0141083
946.340	0.0143641
946.418	0.0143034
946.496	0.0141359
946.575	0.0141312
946.653	0.0143418
946.731	0.0141129
946.809	0.0142696
946.887	0.0142069
946.965	0.0142110
947.043	0.0143978
947.121	0.0141804
947.200	0.0141595
947.278	0.0142152
947.356	0.0141581
947.434	0.0142585
947.512	0.0142623
947.590	0.0142377
947.668	0.0142269
947.746	0.0142300
947.825	0.0140564
947.903	0.0142097
947.981	0.0142050
948.059	0.0142338
948.137	0.0141794
948.215	0.0140842
948.293	0.0140727
948.371	0.0140815
948.450	0.0142358
948.528	0.0141666
948.606	0.0140905
948.684	0.0139281
948.762	0.0141558
948.840	0.0141397
948.918	0.0140534
948.996	0.0142839
949.075	0.0141975
949.153	0.0141425
949.231	0.0141572
949.309	0.0142611
949.387	0.0140249
949.465	0.0140852
949.543	0.0140763
949.621	0.0143055
949.700	0.0141769
949.778	0.0140269
949.856	0.0142042
949.934	0.0141010
950.012	0.0141385
950.090	0.0141840
950.168	0.0140315
950.246	0.0141503
950.325	0.0142207
950.403	0.0141338
950.481	0.0141214
950.559	0.0141382
950.637	0.0142171
950.715	0.0143129
950.793	0.0141949
950.871	0.0141437
950.950	0.0141746
951.028	0.0141190
951.106	0.0142235
951.184	0.0142917
951.262	0.0141998
951.340	0.0142097
951.418	0.0142680
951.496	0.0141641
951.575	0.0142463
951.653	0.0140593
951.731	0.0141447
951.809	0.0142560
951.887	0.0142429
951.965	0.0141993
952.043	0.0142060
952.121	0.0141973
952.200	0.0143418
952.278	0.0142739
952.356	0.0142443
952.434	0.0142435
952.512	0.0142408
952.590	0.0142328
952.668	0.0142519
952.746	0.0141998
952.825	0.0142078
952.903	0.0142622
952.981	0.0144615
953.059	0.0142711
953.137	0.0142925
953.215	0.0142371
953.293	0.0144318
953.371	0.0143671
953.450	0.0143697
953.528	0.0144605
953.606	0.0141801
953.684	0.0143388
953.762	0.0143513
953.840	0.0143334
953.918	0.0142979
953.996	0.0142644
954.075	0.0143781
954.153	0.0141277
954.231	0.0142211
954.309	0.0141933
954.387	0.0142015
954.465	0.0142139
954.543	0.0142642
954.621	0.0141819
954.700	0.0142267
954.778	0.0141310
954.856	0.0140482
954.934	0.0142445
955.012	0.0141325
955.090	0.0141048
955.168	0.0142090
955.246	0.0141869
955.325	0.0140570
955.403	0.0141991
955.481	0.0142522
955.559	0.0142269
955.637	0.0142533
955.715	0.0142050
955.793	0.0143317
955.871	0.0141929
955.950	0.0142330
956.028	0.0143542
956.106	0.0142754
956.184	0.0140941
956.262	0.0142443
956.340	0.0142530
956.418	0.0143345
956.496	0.0142666
956.575	0.0143214
956.653	0.0142641
956.731	0.0142196
956.809	0.0142403
956.887	0.0142619
956.965	0.0141829
957.043	0.0142663
957.121	0.0141759
957.200	0.0142628
957.278	0.0143882
957.356	0.0140954
957.434	0.0142406
957.512	0.0143782
957.590	0.0143502
957.668	0.0143140
957.746	0.0143483
957.825	0.0142384
957.903	0.0142463
957.981	0.0142690
958.059	0.0142526
958.137	0.0143931
958.215	0.0143805
958.293	0.0144290
958.371	0.0143110
958.450	0.0144271
958.528	0.0142083
958.606	0.0141068
958.684	0.0143591
958.762	0.0144241
958.840	0.0143492
958.918	0.0142376
958.996	0.0142185
959.075	0.0144810
959.153	0.0143272
959.231	0.0142162
959.309	0.0142562
959.387	0.0142655
959.465	0.0144004
959.543	0.0144502
959.621	0.0142853
959.700	0.0142574
959.778	0.0142934
959.856	0.0142899
959.934	0.0143002
960.012	0.0142966
960.090	0.0143156
960.168	0.0142597
960.246	0.0142390
960.325	0.0142677
960.403	0.0143283
960.481	0.0144527
960.559	0.0143170
960.637	0.0144779
960.715	0.0142285
960.793	0.0144392
960.871	0.0143598
960.950	0.0143978
961.028	0.0144527
961.106	0.0144640
961.184	0.0144214
961.262	0.0143588
961.340	0.0143236
961.418	0.0142649
961.496	0.0143467
961.575	0.0143366
961.653	0.0143874
961.731	0.0143102
961.809	0.0143169
961.887	0.0143203
961.965	0.0145611
962.043	0.0143427
962.121	0.0144559
962.200	0.0145429
962.278	0.0143567
962.356	0.0144401
962.434	0.0144927
962.512	0.0144329
962.590	0.0142841
962.668	0.0143602
962.746	0.0144370
962.825	0.0144277
962.903	0.0143654
962.981	0.0143430
963.059	0.0145779
963.137	0.0143827
963.215	0.0145095
963.293	0.0144118
963.371	0.0143523
963.450	0.0143810
963.528	0.0144068
963.606	0.0144355
963.684	0.0143667
963.762	0.0143877
963.840	0.0144147
963.918	0.0143826
963.996	0.0145844
964.075	0.0145644
964.153	0.0143579
964.231	0.0143238
964.309	0.0143707
964.387	0.0144686
964.465	0.0143832
964.543	0.0143591
964.621	0.0144038
964.700	0.0142760
964.778	0.0142976
964.856	0.0143034
964.934	0.0142573
965.012	0.0143033
965.090	0.0143797
965.168	0.0144925
965.246	0.0144160
965.325	0.0143406
965.403	0.0143948
965.481	0.0143146
965.559	0.0143649
965.637	0.0143714
965.715	0.0144324
965.793	0.0143127
965.871	0.0143255
965.950	0.0142782
966.028	0.0144251
966.106	0.0143169
966.184	0.0142263
966.262	0.0143036
966.340	0.0142569
966.418	0.0141208
966.496	0.0141621
966.575	0.0142805
966.653	0.0142892
966.731	0.0142951
966.809	0.0143219
966.887	0.0142983
966.965	0.0141821
967.043	0.0141391
967.121	0.0143552
967.200	0.0142223
967.278	0.0142579
967.356	0.0142953
967.434	0.0142010
967.512	0.0141865
967.590	0.0141962
967.668	0.0142794
967.746	0.0142254
967.825	0.0141026
967.903	0.0142384
967.981	0.0141257
968.059	0.0141419
968.137	0.0142792
968.215	0.0141932
968.293	0.0141872
968.371	0.0140199
968.450	0.0141142
968.528	0.0140523
968.606	0.0140891
968.684	0.0141024
968.762	0.0140901
968.840	0.0141419
968.918	0.0142136
968.996	0.0142034
969.075	0.0142547
969.153	0.0141026
969.231	0.0140929
969.309	0.0141846
969.387	0.0141074
969.465	0.0141485
969.543	0.0141840
969.621	0.0142250
969.700	0.0140522
969.778	0.0141053
969.856	0.0141842
969.934	0.0142258
970.012	0.0141422
970.090	0.0141460
970.168	0.0141257
970.246	0.0142515
970.325	0.0142569
970.403	0.0142006
970.481	0.0141409
970.559	0.0142742
970.637	0.0141772
970.715	0.0142576
970.793	0.0142515
970.871	0.0141566
970.950	0.0142426
971.028	0.0142123
971.106	0.0140187
971.184	0.0141746
971.262	0.0142446
971.340	0.0141900
971.418	0.0142402
971.496	0.0142785
971.575	0.0142558
971.653	0.0142218
971.731	0.0141887
971.809	0.0142544
971.887	0.0142400
971.965	0.0142580
972.043	0.0140524
972.121	0.0141689
972.200	0.0143452
972.278	0.0141451
972.356	0.0142999
972.434	0.0143117
972.512	0.0142777
972.590	0.0141664
972.668	0.0142046
972.746	0.0143356
972.825	0.0141689
972.903	0.0142182
972.981	0.0143044
973.059	0.0142028
973.137	0.0142122
973.215	0.0141837
973.293	0.0141537
973.371	0.0143332
973.450	0.0142293
973.528	0.0143034
973.606	0.0142612
973.684	0.0141714
973.762	0.0142767
973.840	0.0142580
973.918	0.0142099
973.996	0.0142961
974.075	0.0142257
974.153	0.0144545
974.231	0.0142711
974.309	0.0143227
974.387	0.0142561
974.465	0.0143327
974.543	0.0142097
974.621	0.0142441
974.700	0.0143917
974.778	0.0143952
974.856	0.0142365
974.934	0.0142443
975.012	0.0142268
975.090	0.0142944
975.168	0.0142350
975.246	0.0141371
975.325	0.0140739
975.403	0.0142819
975.481	0.0141183
975.559	0.0140979
975.637	0.0141319
975.715	0.0140195
975.793	0.0140936
975.871	0.0141337
975.950	0.0141985
976.028	0.0141589
976.106	0.0141528
976.184	0.0141416
976.262	0.0141757
976.340	0.0142072
976.418	0.0142012
976.496	0.0142152
976.575	0.0143184
976.653	0.0143150
976.731	0.0141778
976.809	0.0142537
976.887	0.0141206
976.965	0.0140897
977.043	0.0141899
977.121	0.0142730
977.200	0.0143907
977.278	0.0142662
977.356	0.0142070
977.434	0.0142490
977.512	0.0142458
977.590	0.0142393
977.668	0.0142602
977.746	0.0142148
977.825	0.0143166
977.903	0.0140913
977.981	0.0140342
978.059	0.0142073
978.137	0.0141326
978.215	0.0141231
978.293	0.0140639
978.371	0.0141192
978.450	0.0140765
978.528	0.0139991
978.606	0.0141870
978.684	0.0142010
978.762	0.0140341
978.840	0.0140504
978.918	0.0140998
978.996	0.0141991
979.075	0.0143375
979.153	0.0142520
979.231	0.0142310
979.309	0.0142927
979.387	0.0143591
979.465	0.0143332
979.543	0.0142169
979.621	0.0142761
979.700	0.0141552
979.778	0.0142595
979.856	0.0142567
979.934	0.0142838
980.012	0.0143156
980.090	0.0143618
980.168	0.0142653
980.246	0.0143174
980.325	0.0143475
980.403	0.0142767
980.481	0.0142210
980.559	0.0143810
980.637	0.0142181
980.715	0.0142809
980.793	0.0142713
980.871	0.0142922
980.950	0.0141549
981.028	0.0143235
981.106	0.0142919
981.184	0.0141125
981.262	0.0141393
981.340	0.0143353
981.418	0.0142318
981.496	0.0141144
981.575	0.0142147
981.653	0.0142415
981.731	0.0141628
981.809	0.0141367
981.887	0.0142471
981.965	0.0140575
982.043	0.0143754
982.121	0.0142345
982.200	0.0143057
982.278	0.0141685
982.356	0.0141707
982.434	0.0142077
982.512	0.0143436
982.590	0.0143089
982.668	0.0142458
982.746	0.0143116
982.825	0.0143179
982.903	0.0143349
982.981	0.0142256
983.059	0.0143127
983.137	0.0142390
983.215	0.0142429
983.293	0.0143320
983.371	0.0142314
983.450	0.0143613
983.528	0.0143835
983.606	0.0144934
983.684	0.0142715
983.762	0.0143311
983.840	0.0142343
983.918	0.0142545
983.996	0.0142304
984.075	0.0143607
984.153	0.0143552
984.231	0.0141855
984.309	0.0144814
984.387	0.0142539
984.465	0.0144768
984.543	0.0143177
984.621	0.0142844
984.700	0.0143169
984.778	0.0142561
984.856	0.0142354
984.934	0.0144479
985.012	0.0143932
985.090	0.0142657
985.168	0.0143605
985.246	0.0143149
985.325	0.0143718
985.403	0.0143297
985.481	0.0142325
985.559	0.0143246
985.637	0.0143816
985.715	0.0143581
985.793	0.0143215
985.871	0.0143054
985.950	0.0143025
986.028	0.0142516
986.106	0.0143071
986.184	0.0142094
986.262	0.0142854
986.340	0.0141463
986.418	0.0143342
986.496	0.0142620
986.575	0.0141289
986.653	0.0143501
986.731	0.0143503
986.809	0.0142049
986.887	0.0142046
986.965	0.0142302
987.043	0.0141170
987.121	0.0142245
987.200	0.0141479
987.278	0.0142626
987.356	0.0142161
987.434	0.0142367
987.512	0.0143071
987.590	0.0142300
987.668	0.0141534
987.746	0.0142329
987.825	0.0143889
987.903	0.0143090
987.981	0.0142186
988.059	0.0142674
988.137	0.0142183
988.215	0.0141334
988.293	0.0143420
988.371	0.0142580
988.450	0.0141236
988.528	0.0141812
988.606	0.0143230
988.684	0.0143022
988.762	0.0142068
988.840	0.0141917
988.918	0.0142308
988.996	0.0141566
989.075	0.0143073
989.153	0.0142598
989.231	0.0142775
989.309	0.0142385
989.387	0.0142205
989.465	0.0141944
989.543	0.0142150
989.621	0.0143671
989.700	0.0141945
989.778	0.0141978
989.856	0.0141964
989.934	0.0142445
990.012	0.0141781
990.090	0.0142453
990.168	0.0142377
990.246	0.0142117
990.325	0.0142490
990.403	0.0143806
990.481	0.0142999
990.559	0.0141967
990.637	0.0142773
990.715	0.0141917
990.793	0.0142336
990.871	0.0144137
990.950	0.0141653
991.028	0.0142134
991.106	0.0142083
991.184	0.0143935
991.262	0.0142519
991.340	0.0143434
991.418	0.0141539
991.496	0.0143192
991.575	0.0141141
991.653	0.0141843
991.731	0.0143452
991.809	0.0142332
991.887	0.0142060
991.965	0.0141431
992.043	0.0142374
992.121	0.0143502
992.200	0.0142408
992.278	0.0141499
992.356	0.0142047
992.434	0.0143052
992.512	0.0142229
992.590	0.0141869
992.668	0.0141817
992.746	0.0141933
992.825	0.0142192
992.903	0.0143221
992.981	0.0140883
993.059	0.0142417
993.137	0.0142874
993.215	0.0143069
993.293	0.0142830
993.371	0.0143995
993.450	0.0143503
993.528	0.0143848
993.606	0.0142403
993.684	0.0142584
993.762	0.0144050
993.840	0.0142499
993.918	0.0143081
993.996	0.0143201
994.075	0.0141187
994.153	0.0142969
994.231	0.0142634
994.309	0.0143082
994.387	0.0142215
994.465	0.0143642
994.543	0.0141902
994.621	0.0143790
994.700	0.0142783
994.778	0.0142464
994.856	0.0142760
994.934	0.0141874
995.012	0.0141830
995.090	0.0142753
995.168	0.0143052
995.246	0.0142713
995.325	0.0143912
995.403	0.0142014
995.481	0.0145249
995.559	0.0143739
995.637	0.0143892
995.715	0.0142159
995.793	0.0143571
995.871	0.0143657
995.950	0.0142874
996.028	0.0143750
996.106	0.0143075
996.184	0.0144381
996.262	0.0143131
996.340	0.0141657
996.418	0.0142608
996.496	0.0143138
996.575	0.0142922
996.653	0.0143307
996.731	0.0143917
996.809	0.0143358
996.887	0.0143645
996.965	0.0144360
997.043	0.0141750
997.121	0.0142713
997.200	0.0143503
997.278	0.0142491
997.356	0.0143326
997.434	0.0142630
997.512	0.0142933
997.590	0.0141174
997.668	0.0143382
997.746	0.0141608
997.825	0.0141608
997.903	0.0141753
997.981	0.0142573
998.059	0.0142632
998.137	0.0142292
998.215	0.0142548
998.293	0.0142580
998.371	0.0141559
998.450	0.0142211
998.528	0.0142407
998.606	0.0141531
998.684	0.0142981
998.762	0.0143404
998.840	0.0142671
998.918	0.0140910
