05/04/2022	21:40:34	Ver.	4.1	UNKNOWN
Optical Delay	678.996401	Delta X		0.078125	Sweeps	1	Scan Rate	0/0
Coordinates	Axis 1	NaN	Axis 2	NaN	Axis 3	NaN	Axis 4	NaN	Axis 5	NaN	Axis 6	0.000000
TX Power	0.000000	RX Power	0.000000

678.996	0.0144316
679.075	0.0143980
679.153	0.0144872
679.231	0.0147482
679.309	0.0148261
679.387	0.0149782
679.465	0.0148988
679.543	0.0148987
679.621	0.0147299
679.700	0.0146622
679.778	0.0146632
679.856	0.0144565
679.934	0.0141872
680.012	0.0142038
680.090	0.0140891
680.168	0.0140167
680.246	0.0139219
680.325	0.0138587
680.403	0.0141447
680.481	0.0142052
680.559	0.0143393
680.637	0.0145741
680.715	0.0146793
680.793	0.0147324
680.871	0.0147469
680.950	0.0147054
681.028	0.0147314
681.106	0.0147203
681.184	0.0148105
681.262	0.0147277
681.340	0.0145538
681.418	0.0145718
681.496	0.0144413
681.575	0.0142693
681.653	0.0142442
681.731	0.0140779
681.809	0.0141576
681.887	0.0142910
681.965	0.0144086
682.043	0.0143235
682.121	0.0144716
682.200	0.0147484
682.278	0.0147618
682.356	0.0149692
682.434	0.0149951
682.512	0.0149901
682.590	0.0149168
682.668	0.0151299
682.746	0.0149677
682.825	0.0148006
682.903	0.0148956
682.981	0.0146180
683.059	0.0143291
683.137	0.0141972
683.215	0.0140526
683.293	0.0138024
683.371	0.0136185
683.450	0.0134993
683.528	0.0135074
683.606	0.0135020
683.684	0.0135079
683.762	0.0135209
683.840	0.0138145
683.918	0.0138142
683.996	0.0141818
684.075	0.0142571
684.153	0.0146037
684.231	0.0147622
684.309	0.0147994
684.387	0.0150525
684.465	0.0151445
684.543	0.0151364
684.621	0.0151939
684.700	0.0153249
684.778	0.0152557
684.856	0.0149266
684.934	0.0149983
685.012	0.0148283
685.090	0.0147162
685.168	0.0147392
685.246	0.0148554
685.325	0.0147585
685.403	0.0147296
685.481	0.0148270
685.559	0.0148262
685.637	0.0147649
685.715	0.0149963
685.793	0.0148502
685.871	0.0147142
685.950	0.0146405
686.028	0.0144552
686.106	0.0142191
686.184	0.0139365
686.262	0.0136706
686.340	0.0133662
686.418	0.0132963
686.496	0.0131898
686.575	0.0129585
686.653	0.0133088
686.731	0.0135229
686.809	0.0135276
686.887	0.0138225
686.965	0.0142353
687.043	0.0146033
687.121	0.0149643
687.200	0.0153848
687.278	0.0155984
687.356	0.0157465
687.434	0.0156734
687.512	0.0157098
687.590	0.0155803
687.668	0.0152901
687.746	0.0151582
687.825	0.0148179
687.903	0.0144102
687.981	0.0143089
688.059	0.0138627
688.137	0.0137917
688.215	0.0138355
688.293	0.0137672
688.371	0.0138401
688.450	0.0139365
688.528	0.0140376
688.606	0.0144572
688.684	0.0145756
688.762	0.0146851
688.840	0.0147369
688.918	0.0147456
688.996	0.0146779
689.075	0.0145982
689.153	0.0144873
689.231	0.0143385
689.309	0.0141559
689.387	0.0141006
689.465	0.0139310
689.543	0.0138199
689.621	0.0137951
689.700	0.0137698
689.778	0.0136470
689.856	0.0138035
689.934	0.0138914
690.012	0.0141668
690.090	0.0143665
690.168	0.0145496
690.246	0.0146452
690.325	0.0150045
690.403	0.0152058
690.481	0.0151555
690.559	0.0152568
690.637	0.0153493
690.715	0.0153931
690.793	0.0151907
690.871	0.0151453
690.950	0.0150900
691.028	0.0148637
691.106	0.0148306
691.184	0.0146725
691.262	0.0145789
691.340	0.0145462
691.418	0.0145187
691.496	0.0144888
691.575	0.0146454
691.653	0.0146425
691.731	0.0146281
691.809	0.0144783
691.887	0.0145573
691.965	0.0146885
692.043	0.0145900
692.121	0.0146026
692.200	0.0145221
692.278	0.0144700
692.356	0.0145013
692.434	0.0141501
692.512	0.0140479
692.590	0.0143801
692.668	0.0140299
692.746	0.0138668
692.825	0.0139352
692.903	0.0138618
692.981	0.0140360
693.059	0.0139410
693.137	0.0139935
693.215	0.0140034
693.293	0.0142833
693.371	0.0144579
693.450	0.0146368
693.528	0.0147807
693.606	0.0148238
693.684	0.0149523
693.762	0.0150531
693.840	0.0149199
693.918	0.0151277
693.996	0.0151832
694.075	0.0149860
694.153	0.0149557
694.231	0.0149297
694.309	0.0148367
694.387	0.0147202
694.465	0.0144195
694.543	0.0144277
694.621	0.0143707
694.700	0.0144304
694.778	0.0142267
694.856	0.0141404
694.934	0.0142148
695.012	0.0142176
695.090	0.0144395
695.168	0.0145102
695.246	0.0146523
695.325	0.0147001
695.403	0.0148839
695.481	0.0149290
695.559	0.0149223
695.637	0.0148673
695.715	0.0148977
695.793	0.0147793
695.871	0.0145789
695.950	0.0144706
696.028	0.0143884
696.106	0.0145123
696.184	0.0142795
696.262	0.0141623
696.340	0.0143246
696.418	0.0141037
696.496	0.0142470
696.575	0.0141852
696.653	0.0143499
696.731	0.0144732
696.809	0.0144757
696.887	0.0145395
696.965	0.0144465
697.043	0.0144419
697.121	0.0145643
697.200	0.0144106
697.278	0.0144621
697.356	0.0144722
697.434	0.0143987
697.512	0.0145109
697.590	0.0144489
697.668	0.0144337
697.746	0.0143383
697.825	0.0143158
697.903	0.0143713
697.981	0.0144289
698.059	0.0144536
698.137	0.0143451
698.215	0.0145578
698.293	0.0148138
698.371	0.0147595
698.450	0.0148869
698.528	0.0149119
698.606	0.0151737
698.684	0.0150718
698.762	0.0150575
698.840	0.0151195
698.918	0.0149525
698.996	0.0149816
699.075	0.0149905
699.153	0.0147997
699.231	0.0146554
699.309	0.0144424
699.387	0.0144465
699.465	0.0142873
699.543	0.0140855
699.621	0.0138627
699.700	0.0137480
699.778	0.0138598
699.856	0.0136078
699.934	0.0135430
700.012	0.0134982
700.090	0.0135888
700.168	0.0135967
700.246	0.0136501
700.325	0.0137380
700.403	0.0139664
700.481	0.0139339
700.559	0.0142479
700.637	0.0141777
700.715	0.0143662
700.793	0.0145551
700.871	0.0146519
700.950	0.0146392
701.028	0.0147672
701.106	0.0145097
701.184	0.0146884
701.262	0.0147530
701.340	0.0148111
701.418	0.0147298
701.496	0.0148372
701.575	0.0149538
701.653	0.0149718
701.731	0.0149514
701.809	0.0149611
701.887	0.0148645
701.965	0.0150286
702.043	0.0149213
702.121	0.0150349
702.200	0.0150253
702.278	0.0149046
702.356	0.0146857
702.434	0.0146213
702.512	0.0144274
702.590	0.0142211
702.668	0.0141161
702.746	0.0140296
702.825	0.0138097
702.903	0.0137319
702.981	0.0135833
703.059	0.0136295
703.137	0.0138495
703.215	0.0137787
703.293	0.0138161
703.371	0.0140378
703.450	0.0141985
703.528	0.0144264
703.606	0.0145206
703.684	0.0145752
703.762	0.0148809
703.840	0.0148933
703.918	0.0148182
703.996	0.0148451
704.075	0.0147852
704.153	0.0148331
704.231	0.0146999
704.309	0.0145374
704.387	0.0144308
704.465	0.0142845
704.543	0.0142097
704.621	0.0141159
704.700	0.0141486
704.778	0.0142582
704.856	0.0141795
704.934	0.0142320
705.012	0.0142089
705.090	0.0143656
705.168	0.0145512
705.246	0.0145401
705.325	0.0145544
705.403	0.0146054
705.481	0.0146278
705.559	0.0146523
705.637	0.0146871
705.715	0.0148362
705.793	0.0149409
705.871	0.0147127
705.950	0.0148251
706.028	0.0150089
706.106	0.0150539
706.184	0.0149841
706.262	0.0151873
706.340	0.0150322
706.418	0.0150067
706.496	0.0148851
706.575	0.0148878
706.653	0.0145926
706.731	0.0144280
706.809	0.0143530
706.887	0.0139822
706.965	0.0138992
707.043	0.0138948
707.121	0.0138250
707.200	0.0138115
707.278	0.0136361
707.356	0.0136234
707.434	0.0137776
707.512	0.0136763
707.590	0.0138967
707.668	0.0138651
707.746	0.0139311
707.825	0.0140386
707.903	0.0141379
707.981	0.0141816
708.059	0.0144288
708.137	0.0144266
708.215	0.0145783
708.293	0.0148424
708.371	0.0149532
708.450	0.0149564
708.528	0.0149065
708.606	0.0151144
708.684	0.0151797
708.762	0.0151456
708.840	0.0152392
708.918	0.0151445
708.996	0.0150913
709.075	0.0150816
709.153	0.0148669
709.231	0.0148276
709.309	0.0147295
709.387	0.0144342
709.465	0.0145602
709.543	0.0144404
709.621	0.0141858
709.700	0.0141856
709.778	0.0141746
709.856	0.0141759
709.934	0.0140358
710.012	0.0140040
710.090	0.0140652
710.168	0.0141115
710.246	0.0142262
710.325	0.0142648
710.403	0.0144170
710.481	0.0144151
710.559	0.0145431
710.637	0.0147076
710.715	0.0147002
710.793	0.0148576
710.871	0.0148044
710.950	0.0148479
711.028	0.0148621
711.106	0.0149612
711.184	0.0149565
711.262	0.0147906
711.340	0.0148036
711.418	0.0146943
711.496	0.0147913
711.575	0.0146194
711.653	0.0145278
711.731	0.0144451
711.809	0.0145893
711.887	0.0145727
711.965	0.0144801
712.043	0.0143375
712.121	0.0143288
712.200	0.0141726
712.278	0.0143050
712.356	0.0143172
712.434	0.0143913
712.512	0.0143970
712.590	0.0145442
712.668	0.0145660
712.746	0.0145698
712.825	0.0147015
712.903	0.0148432
712.981	0.0149430
713.059	0.0149139
713.137	0.0150333
713.215	0.0148859
713.293	0.0149688
713.371	0.0149955
713.450	0.0149941
713.528	0.0148483
713.606	0.0147711
713.684	0.0146368
713.762	0.0145210
713.840	0.0144829
713.918	0.0144283
713.996	0.0144400
714.075	0.0142115
714.153	0.0142694
714.231	0.0143314
714.309	0.0142535
714.387	0.0142445
714.465	0.0142653
714.543	0.0140659
714.621	0.0142225
714.700	0.0143211
714.778	0.0142476
714.856	0.0142680
714.934	0.0143047
715.012	0.0144586
715.090	0.0143635
715.168	0.0143498
715.246	0.0145329
715.325	0.0144058
715.403	0.0145997
715.481	0.0146835
715.559	0.0146487
715.637	0.0147787
715.715	0.0147525
715.793	0.0146908
715.871	0.0147698
715.950	0.0147396
716.028	0.0148499
716.106	0.0147794
716.184	0.0147177
716.262	0.0147252
716.340	0.0145715
716.418	0.0146217
716.496	0.0145408
716.575	0.0144655
716.653	0.0144283
716.731	0.0143533
716.809	0.0141832
716.887	0.0143085
716.965	0.0143315
717.043	0.0142958
717.121	0.0142635
717.200	0.0141321
717.278	0.0142670
717.356	0.0142570
717.434	0.0140883
717.512	0.0141798
717.590	0.0142592
717.668	0.0142784
717.746	0.0143904
717.825	0.0143771
717.903	0.0143338
717.981	0.0144862
718.059	0.0144688
718.137	0.0144159
718.215	0.0145377
718.293	0.0148126
718.371	0.0145744
718.450	0.0145913
718.528	0.0145390
718.606	0.0145995
718.684	0.0145329
718.762	0.0145161
718.840	0.0145052
718.918	0.0144904
718.996	0.0143608
719.075	0.0144723
719.153	0.0146034
719.231	0.0145985
719.309	0.0144266
719.387	0.0145550
719.465	0.0145428
719.543	0.0144640
719.621	0.0145012
719.700	0.0146428
719.778	0.0146902
719.856	0.0145597
719.934	0.0145981
720.012	0.0146428
720.090	0.0146349
720.168	0.0146301
720.246	0.0144868
720.325	0.0143510
720.403	0.0142944
720.481	0.0143976
720.559	0.0143391
720.637	0.0143273
720.715	0.0143258
720.793	0.0143747
720.871	0.0143333
720.950	0.0143429
721.028	0.0142665
721.106	0.0144440
721.184	0.0144366
721.262	0.0142607
721.340	0.0144614
721.418	0.0144241
721.496	0.0143877
721.575	0.0143812
721.653	0.0143520
721.731	0.0144663
721.809	0.0144089
721.887	0.0143553
721.965	0.0144994
722.043	0.0145823
722.121	0.0145567
722.200	0.0144897
722.278	0.0145744
722.356	0.0145462
722.434	0.0146670
722.512	0.0146827
722.590	0.0147008
722.668	0.0147878
722.746	0.0147861
722.825	0.0148293
722.903	0.0148841
722.981	0.0146129
723.059	0.0146700
723.137	0.0146999
723.215	0.0145509
723.293	0.0145098
723.371	0.0145909
723.450	0.0144016
723.528	0.0143745
723.606	0.0143967
723.684	0.0142963
723.762	0.0144196
723.840	0.0142714
723.918	0.0141958
723.996	0.0141551
724.075	0.0143679
724.153	0.0142005
724.231	0.0142963
724.309	0.0142471
724.387	0.0144304
724.465	0.0143427
724.543	0.0143506
724.621	0.0144738
724.700	0.0146660
724.778	0.0145837
724.856	0.0145009
724.934	0.0145048
725.012	0.0143658
725.090	0.0143736
725.168	0.0144367
725.246	0.0144540
725.325	0.0144012
725.403	0.0143565
725.481	0.0145009
725.559	0.0144090
725.637	0.0144143
725.715	0.0144328
725.793	0.0142210
725.871	0.0143875
725.950	0.0143487
726.028	0.0144547
726.106	0.0143961
726.184	0.0142893
726.262	0.0142940
726.340	0.0143728
726.418	0.0143613
726.496	0.0143655
726.575	0.0143953
726.653	0.0144471
726.731	0.0143531
726.809	0.0144707
726.887	0.0145517
726.965	0.0144495
727.043	0.0145669
727.121	0.0146291
727.200	0.0145708
727.278	0.0147272
727.356	0.0146574
727.434	0.0146200
727.512	0.0146479
727.590	0.0146081
727.668	0.0144207
727.746	0.0145447
727.825	0.0144352
727.903	0.0145203
727.981	0.0143776
728.059	0.0143447
728.137	0.0143012
728.215	0.0142523
728.293	0.0142193
728.371	0.0141708
728.450	0.0140987
728.528	0.0142222
728.606	0.0142888
728.684	0.0142982
728.762	0.0141874
728.840	0.0143144
728.918	0.0143597
728.996	0.0144215
729.075	0.0144638
729.153	0.0145556
729.231	0.0147031
729.309	0.0146872
729.387	0.0146632
729.465	0.0147005
729.543	0.0147483
729.621	0.0147258
729.700	0.0146676
729.778	0.0147327
729.856	0.0146931
729.934	0.0144813
730.012	0.0145328
730.090	0.0145195
730.168	0.0144889
730.246	0.0144925
730.325	0.0144535
730.403	0.0145438
730.481	0.0142723
730.559	0.0143551
730.637	0.0143782
730.715	0.0141347
730.793	0.0142466
730.871	0.0143301
730.950	0.0142339
731.028	0.0143810
731.106	0.0143872
731.184	0.0143123
731.262	0.0144675
731.340	0.0143481
731.418	0.0143937
731.496	0.0144494
731.575	0.0145306
731.653	0.0146071
731.731	0.0145622
731.809	0.0145433
731.887	0.0146156
731.965	0.0148110
732.043	0.0146084
732.121	0.0145433
732.200	0.0145704
732.278	0.0144190
732.356	0.0144821
732.434	0.0145127
732.512	0.0144397
732.590	0.0144374
732.668	0.0143980
732.746	0.0144525
732.825	0.0144020
732.903	0.0144157
732.981	0.0145625
733.059	0.0145422
733.137	0.0145608
733.215	0.0144838
733.293	0.0144981
733.371	0.0143698
733.450	0.0145846
733.528	0.0144930
733.606	0.0144604
733.684	0.0145797
733.762	0.0143908
733.840	0.0144193
733.918	0.0145975
733.996	0.0145595
734.075	0.0144872
734.153	0.0144904
734.231	0.0145319
734.309	0.0143716
734.387	0.0144302
734.465	0.0144681
734.543	0.0145517
734.621	0.0145098
734.700	0.0144350
734.778	0.0143784
734.856	0.0144273
734.934	0.0145812
735.012	0.0144702
735.090	0.0145524
735.168	0.0144184
735.246	0.0143597
735.325	0.0143212
735.403	0.0144763
735.481	0.0143615
735.559	0.0144235
735.637	0.0143301
735.715	0.0143448
735.793	0.0142513
735.871	0.0144881
735.950	0.0143459
736.028	0.0144096
736.106	0.0142854
736.184	0.0143742
736.262	0.0143306
736.340	0.0144480
736.418	0.0144650
736.496	0.0145289
736.575	0.0146247
736.653	0.0143707
736.731	0.0145159
736.809	0.0145199
736.887	0.0146072
736.965	0.0146073
737.043	0.0145237
737.121	0.0145323
737.200	0.0145589
737.278	0.0144436
737.356	0.0145916
737.434	0.0145340
737.512	0.0147507
737.590	0.0145482
737.668	0.0144705
737.746	0.0145370
737.825	0.0143637
737.903	0.0144262
737.981	0.0144227
738.059	0.0143584
738.137	0.0142882
738.215	0.0144067
738.293	0.0143263
738.371	0.0143328
738.450	0.0143929
738.528	0.0143938
738.606	0.0143139
738.684	0.0143827
738.762	0.0143639
738.840	0.0142546
738.918	0.0142154
738.996	0.0141976
739.075	0.0143176
739.153	0.0142863
739.231	0.0143234
739.309	0.0143719
739.387	0.0144885
739.465	0.0143246
739.543	0.0143582
739.621	0.0144237
739.700	0.0145184
739.778	0.0145101
739.856	0.0145821
739.934	0.0145247
740.012	0.0146048
740.090	0.0146578
740.168	0.0146904
740.246	0.0146379
740.325	0.0146162
740.403	0.0144605
740.481	0.0145803
740.559	0.0145959
740.637	0.0146552
740.715	0.0145977
740.793	0.0145671
740.871	0.0143512
740.950	0.0144885
741.028	0.0145293
741.106	0.0145921
741.184	0.0145056
741.262	0.0144938
741.340	0.0144227
741.418	0.0145258
741.496	0.0145277
741.575	0.0145464
741.653	0.0144711
741.731	0.0145221
741.809	0.0145190
741.887	0.0144598
741.965	0.0145255
742.043	0.0144505
742.121	0.0145556
742.200	0.0144955
742.278	0.0144498
742.356	0.0145613
742.434	0.0145730
742.512	0.0144379
742.590	0.0145763
742.668	0.0144730
742.746	0.0144814
742.825	0.0144588
742.903	0.0144794
742.981	0.0144797
743.059	0.0144186
743.137	0.0145115
743.215	0.0145332
743.293	0.0144204
743.371	0.0144568
743.450	0.0143713
743.528	0.0144505
743.606	0.0144642
743.684	0.0145056
743.762	0.0143909
743.840	0.0144201
743.918	0.0144408
743.996	0.0145122
744.075	0.0145503
744.153	0.0147560
744.231	0.0147782
744.309	0.0146809
744.387	0.0145985
744.465	0.0146929
744.543	0.0146512
744.621	0.0146828
744.700	0.0145990
744.778	0.0144308
744.856	0.0145419
744.934	0.0145888
745.012	0.0144585
745.090	0.0143779
745.168	0.0145306
745.246	0.0146271
745.325	0.0145322
745.403	0.0143415
745.481	0.0145063
745.559	0.0144505
745.637	0.0145245
745.715	0.0146019
745.793	0.0144592
745.871	0.0143876
745.950	0.0143958
746.028	0.0144806
746.106	0.0144181
746.184	0.0145294
746.262	0.0145415
746.340	0.0144333
746.418	0.0143305
746.496	0.0143803
746.575	0.0144865
746.653	0.0144490
746.731	0.0144167
746.809	0.0144044
746.887	0.0143568
746.965	0.0144117
747.043	0.0144321
747.121	0.0144205
747.200	0.0144556
747.278	0.0144596
747.356	0.0144572
747.434	0.0144891
747.512	0.0144250
747.590	0.0145800
747.668	0.0146786
747.746	0.0146069
747.825	0.0146060
747.903	0.0146246
747.981	0.0145052
748.059	0.0144690
748.137	0.0147468
748.215	0.0146497
748.293	0.0145516
748.371	0.0143813
748.450	0.0145511
748.528	0.0145895
748.606	0.0144370
748.684	0.0144556
748.762	0.0144250
748.840	0.0144970
748.918	0.0142878
748.996	0.0144251
749.075	0.0143748
749.153	0.0143577
749.231	0.0144495
749.309	0.0143559
749.387	0.0143877
749.465	0.0142918
749.543	0.0143069
749.621	0.0144012
749.700	0.0143392
749.778	0.0143240
749.856	0.0143938
749.934	0.0143478
750.012	0.0143318
750.090	0.0143422
750.168	0.0144283
750.246	0.0144297
750.325	0.0145282
750.403	0.0144775
750.481	0.0146068
750.559	0.0144987
750.637	0.0145860
750.715	0.0146100
750.793	0.0145917
750.871	0.0145399
750.950	0.0143693
751.028	0.0145114
751.106	0.0144324
751.184	0.0145087
751.262	0.0143283
751.340	0.0144077
751.418	0.0143838
751.496	0.0143042
751.575	0.0143403
751.653	0.0143365
751.731	0.0143724
751.809	0.0145335
751.887	0.0144400
751.965	0.0142774
752.043	0.0145460
752.121	0.0145395
752.200	0.0144716
752.278	0.0146181
752.356	0.0146195
752.434	0.0145979
752.512	0.0144923
752.590	0.0145464
752.668	0.0145712
752.746	0.0145624
752.825	0.0145851
752.903	0.0146204
752.981	0.0144347
753.059	0.0144901
753.137	0.0144514
753.215	0.0143347
753.293	0.0144328
753.371	0.0144788
753.450	0.0144591
753.528	0.0143345
753.606	0.0144196
753.684	0.0143859
753.762	0.0142747
753.840	0.0143619
753.918	0.0143666
753.996	0.0145874
754.075	0.0144270
754.153	0.0143771
754.231	0.0143763
754.309	0.0144253
754.387	0.0142407
754.465	0.0144102
754.543	0.0144601
754.621	0.0143894
754.700	0.0145341
754.778	0.0145055
754.856	0.0144630
754.934	0.0144772
755.012	0.0143976
755.090	0.0146394
755.168	0.0142947
755.246	0.0144371
755.325	0.0145494
755.403	0.0144635
755.481	0.0143797
755.559	0.0144303
755.637	0.0143884
755.715	0.0143751
755.793	0.0144167
755.871	0.0144205
755.950	0.0143771
756.028	0.0144516
756.106	0.0144004
756.184	0.0143607
756.262	0.0144135
756.340	0.0143451
756.418	0.0142770
756.496	0.0145040
756.575	0.0144902
756.653	0.0143742
756.731	0.0143359
756.809	0.0144106
756.887	0.0144693
756.965	0.0143198
757.043	0.0144798
757.121	0.0144244
757.200	0.0144726
757.278	0.0145134
757.356	0.0144937
757.434	0.0145148
757.512	0.0144411
757.590	0.0144597
757.668	0.0145110
757.746	0.0146341
757.825	0.0143388
757.903	0.0145825
757.981	0.0145222
758.059	0.0145179
758.137	0.0144386
758.215	0.0144830
758.293	0.0144965
758.371	0.0145079
758.450	0.0144415
758.528	0.0145548
758.606	0.0144219
758.684	0.0144786
758.762	0.0144144
758.840	0.0144841
758.918	0.0144217
758.996	0.0144312
759.075	0.0143511
759.153	0.0145620
759.231	0.0144186
759.309	0.0144014
759.387	0.0143831
759.465	0.0142850
759.543	0.0145216
759.621	0.0144011
759.700	0.0143797
759.778	0.0144172
759.856	0.0143703
759.934	0.0144845
760.012	0.0144558
760.090	0.0144915
760.168	0.0146216
760.246	0.0144478
760.325	0.0143913
760.403	0.0144216
760.481	0.0145163
760.559	0.0144661
760.637	0.0143498
760.715	0.0144110
760.793	0.0144628
760.871	0.0144257
760.950	0.0144055
761.028	0.0143486
761.106	0.0144570
761.184	0.0145312
761.262	0.0145209
761.340	0.0145074
761.418	0.0145636
761.496	0.0145200
761.575	0.0144601
761.653	0.0144783
761.731	0.0145046
761.809	0.0145790
761.887	0.0145585
761.965	0.0145277
762.043	0.0145712
762.121	0.0144954
762.200	0.0144283
762.278	0.0144293
762.356	0.0143379
762.434	0.0143787
762.512	0.0144749
762.590	0.0144698
762.668	0.0143557
762.746	0.0144357
762.825	0.0143868
762.903	0.0144263
762.981	0.0144286
763.059	0.0144616
763.137	0.0144846
763.215	0.0143680
763.293	0.0143653
763.371	0.0143716
763.450	0.0144834
763.528	0.0143353
763.606	0.0143690
763.684	0.0143869
763.762	0.0144459
763.840	0.0143603
763.918	0.0143257
763.996	0.0143697
764.075	0.0144411
764.153	0.0144222
764.231	0.0144311
764.309	0.0143855
764.387	0.0143836
764.465	0.0143957
764.543	0.0144488
764.621	0.0143716
764.700	0.0144023
764.778	0.0143996
764.856	0.0144507
764.934	0.0144656
765.012	0.0145108
765.090	0.0145875
765.168	0.0145367
765.246	0.0145254
765.325	0.0144967
765.403	0.0146749
765.481	0.0145615
765.559	0.0145249
765.637	0.0144827
765.715	0.0144614
765.793	0.0144378
765.871	0.0142783
765.950	0.0145030
766.028	0.0145109
766.106	0.0143822
766.184	0.0146342
766.262	0.0144136
766.340	0.0145998
766.418	0.0145403
766.496	0.0145258
766.575	0.0145067
766.653	0.0144717
766.731	0.0143594
766.809	0.0144658
766.887	0.0144715
766.965	0.0144650
767.043	0.0144902
767.121	0.0146105
767.200	0.0145330
767.278	0.0145805
767.356	0.0144176
767.434	0.0144344
767.512	0.0143882
767.590	0.0144744
767.668	0.0145329
767.746	0.0144589
767.825	0.0146712
767.903	0.0145686
767.981	0.0146812
768.059	0.0146219
768.137	0.0146291
768.215	0.0146378
768.293	0.0144823
768.371	0.0145518
768.450	0.0145776
768.528	0.0145241
768.606	0.0146218
768.684	0.0145759
768.762	0.0146149
768.840	0.0146764
768.918	0.0145852
768.996	0.0146190
769.075	0.0147005
769.153	0.0146559
769.231	0.0146297
769.309	0.0147209
769.387	0.0146069
769.465	0.0145852
769.543	0.0144054
769.621	0.0146303
769.700	0.0146722
769.778	0.0145992
769.856	0.0145676
769.934	0.0145601
770.012	0.0145306
770.090	0.0144243
770.168	0.0146155
770.246	0.0145580
770.325	0.0144254
770.403	0.0145747
770.481	0.0144967
770.559	0.0145393
770.637	0.0146304
770.715	0.0145798
770.793	0.0145239
770.871	0.0145656
770.950	0.0145737
771.028	0.0145764
771.106	0.0146387
771.184	0.0145605
771.262	0.0144879
771.340	0.0145237
771.418	0.0144845
771.496	0.0146178
771.575	0.0146091
771.653	0.0145625
771.731	0.0144247
771.809	0.0144740
771.887	0.0144624
771.965	0.0146195
772.043	0.0144141
772.121	0.0144392
772.200	0.0144736
772.278	0.0144595
772.356	0.0144307
772.434	0.0144450
772.512	0.0144991
772.590	0.0144452
772.668	0.0143657
772.746	0.0144363
772.825	0.0144705
772.903	0.0144570
772.981	0.0143772
773.059	0.0144485
773.137	0.0144371
773.215	0.0143616
773.293	0.0143697
773.371	0.0144354
773.450	0.0144193
773.528	0.0144899
773.606	0.0144566
773.684	0.0144899
773.762	0.0143925
773.840	0.0144353
773.918	0.0145125
773.996	0.0144463
774.075	0.0144227
774.153	0.0144914
774.231	0.0145015
774.309	0.0144680
774.387	0.0143355
774.465	0.0144611
774.543	0.0146078
774.621	0.0145244
774.700	0.0144766
774.778	0.0146056
774.856	0.0145537
774.934	0.0144424
775.012	0.0143788
775.090	0.0145824
775.168	0.0145998
775.246	0.0145531
775.325	0.0145031
775.403	0.0146018
775.481	0.0145228
775.559	0.0144997
775.637	0.0145071
775.715	0.0145464
775.793	0.0143676
775.871	0.0145622
775.950	0.0144118
776.028	0.0144534
776.106	0.0143741
776.184	0.0145608
776.262	0.0145965
776.340	0.0145158
776.418	0.0146565
776.496	0.0145513
776.575	0.0142733
776.653	0.0145332
776.731	0.0144270
776.809	0.0145152
776.887	0.0145345
776.965	0.0145177
777.043	0.0144427
777.121	0.0145521
777.200	0.0146007
777.278	0.0146215
777.356	0.0145672
777.434	0.0144174
777.512	0.0146135
777.590	0.0144715
777.668	0.0144251
777.746	0.0146373
777.825	0.0145215
777.903	0.0144482
777.981	0.0144836
778.059	0.0144781
778.137	0.0146530
778.215	0.0146066
778.293	0.0144820
778.371	0.0145081
778.450	0.0146166
778.528	0.0146043
778.606	0.0145726
778.684	0.0145820
778.762	0.0146034
778.840	0.0144997
778.918	0.0144481
778.996	0.0144419
779.075	0.0145588
779.153	0.0145399
779.231	0.0145669
779.309	0.0143357
779.387	0.0144400
779.465	0.0144231
779.543	0.0145091
779.621	0.0144134
779.700	0.0143228
779.778	0.0143702
779.856	0.0144740
779.934	0.0144783
780.012	0.0145226
780.090	0.0144901
780.168	0.0143465
780.246	0.0145302
780.325	0.0144911
780.403	0.0145687
780.481	0.0144001
780.559	0.0144783
780.637	0.0145126
780.715	0.0144442
780.793	0.0144098
780.871	0.0144897
780.950	0.0145173
781.028	0.0144741
781.106	0.0143639
781.184	0.0144566
781.262	0.0144707
781.340	0.0145295
781.418	0.0143926
781.496	0.0143063
781.575	0.0144000
781.653	0.0143886
781.731	0.0144019
781.809	0.0144703
781.887	0.0144143
781.965	0.0144231
782.043	0.0142648
782.121	0.0143861
782.200	0.0143941
782.278	0.0143899
782.356	0.0142517
782.434	0.0143473
782.512	0.0143178
782.590	0.0143228
782.668	0.0143989
782.746	0.0143623
782.825	0.0144560
782.903	0.0144054
782.981	0.0145001
783.059	0.0143419
783.137	0.0144160
783.215	0.0144194
783.293	0.0145779
783.371	0.0144382
783.450	0.0144460
783.528	0.0144720
783.606	0.0144886
783.684	0.0145727
783.762	0.0145766
783.840	0.0144620
783.918	0.0144404
783.996	0.0144605
784.075	0.0144403
784.153	0.0143815
784.231	0.0144586
784.309	0.0143847
784.387	0.0144985
784.465	0.0145062
784.543	0.0143942
784.621	0.0143553
784.700	0.0143568
784.778	0.0143643
784.856	0.0143812
784.934	0.0143278
785.012	0.0144598
785.090	0.0144315
785.168	0.0143651
785.246	0.0144198
785.325	0.0144540
785.403	0.0142994
785.481	0.0144736
785.559	0.0143942
785.637	0.0144299
785.715	0.0143772
785.793	0.0144065
785.871	0.0145926
785.950	0.0144746
786.028	0.0143738
786.106	0.0144629
786.184	0.0144821
786.262	0.0145562
786.340	0.0144476
786.418	0.0145873
786.496	0.0144759
786.575	0.0144123
786.653	0.0146220
786.731	0.0145085
786.809	0.0146407
786.887	0.0146387
786.965	0.0146559
787.043	0.0146358
787.121	0.0145102
787.200	0.0145097
787.278	0.0145886
787.356	0.0145591
787.434	0.0146158
787.512	0.0146743
787.590	0.0145686
787.668	0.0146117
787.746	0.0146715
787.825	0.0146214
787.903	0.0145438
787.981	0.0144891
788.059	0.0145224
788.137	0.0145793
788.215	0.0144595
788.293	0.0145248
788.371	0.0144804
788.450	0.0144721
788.528	0.0145232
788.606	0.0146442
788.684	0.0145236
788.762	0.0145795
788.840	0.0146539
788.918	0.0144566
788.996	0.0145287
789.075	0.0145134
789.153	0.0144490
789.231	0.0145138
789.309	0.0145096
789.387	0.0145415
789.465	0.0145486
789.543	0.0144958
789.621	0.0145793
789.700	0.0146539
789.778	0.0145303
789.856	0.0145487
789.934	0.0145517
790.012	0.0145061
790.090	0.0145377
790.168	0.0145025
790.246	0.0144745
790.325	0.0145841
790.403	0.0146165
790.481	0.0146346
790.559	0.0146671
790.637	0.0144184
790.715	0.0144823
790.793	0.0145322
790.871	0.0145718
790.950	0.0145380
791.028	0.0145504
791.106	0.0145657
791.184	0.0145795
791.262	0.0143296
791.340	0.0145338
791.418	0.0145158
791.496	0.0145222
791.575	0.0144501
791.653	0.0144728
791.731	0.0145126
791.809	0.0144541
791.887	0.0144429
791.965	0.0143806
792.043	0.0145048
792.121	0.0145502
792.200	0.0143997
792.278	0.0144773
792.356	0.0143671
792.434	0.0145393
792.512	0.0145135
792.590	0.0144568
792.668	0.0146138
792.746	0.0145600
792.825	0.0144824
792.903	0.0145641
792.981	0.0145583
793.059	0.0145970
793.137	0.0144617
793.215	0.0144765
793.293	0.0145792
793.371	0.0145213
793.450	0.0146220
793.528	0.0144949
793.606	0.0145023
793.684	0.0144228
793.762	0.0144801
793.840	0.0146513
793.918	0.0145170
793.996	0.0144477
794.075	0.0143396
794.153	0.0145815
794.231	0.0144865
794.309	0.0144292
794.387	0.0145865
794.465	0.0144511
794.543	0.0144112
794.621	0.0145287
794.700	0.0144245
794.778	0.0145435
794.856	0.0145710
794.934	0.0144904
795.012	0.0144746
795.090	0.0144818
795.168	0.0144726
795.246	0.0143913
795.325	0.0144870
795.403	0.0143711
795.481	0.0143761
795.559	0.0144996
795.637	0.0144073
795.715	0.0143342
795.793	0.0143822
795.871	0.0143653
795.950	0.0143527
796.028	0.0144205
796.106	0.0144168
796.184	0.0142348
796.262	0.0142536
796.340	0.0142750
796.418	0.0144438
796.496	0.0143510
796.575	0.0144128
796.653	0.0144263
796.731	0.0144672
796.809	0.0143769
796.887	0.0143779
796.965	0.0144505
797.043	0.0143455
797.121	0.0143684
797.200	0.0145618
797.278	0.0146731
797.356	0.0144157
797.434	0.0145572
797.512	0.0145346
797.590	0.0145303
797.668	0.0144366
797.746	0.0145857
797.825	0.0144767
797.903	0.0143999
797.981	0.0144609
798.059	0.0142966
798.137	0.0143365
798.215	0.0142530
798.293	0.0144065
798.371	0.0143996
798.450	0.0144494
798.528	0.0142715
798.606	0.0143333
798.684	0.0144683
798.762	0.0142467
798.840	0.0143667
798.918	0.0143730
798.996	0.0143535
799.075	0.0142417
799.153	0.0143638
799.231	0.0143599
799.309	0.0143767
799.387	0.0143845
799.465	0.0144111
799.543	0.0142557
799.621	0.0143166
799.700	0.0144804
799.778	0.0145328
799.856	0.0144984
799.934	0.0144125
800.012	0.0143834
800.090	0.0144536
800.168	0.0143362
800.246	0.0143693
800.325	0.0144135
800.403	0.0143707
800.481	0.0145103
800.559	0.0145303
800.637	0.0143765
800.715	0.0144190
800.793	0.0144870
800.871	0.0144041
800.950	0.0144106
801.028	0.0144534
801.106	0.0144530
801.184	0.0143906
801.262	0.0145206
801.340	0.0145386
801.418	0.0145615
801.496	0.0144181
801.575	0.0144262
801.653	0.0144137
801.731	0.0145074
801.809	0.0145104
801.887	0.0146162
801.965	0.0144920
802.043	0.0145446
802.121	0.0146999
802.200	0.0146061
802.278	0.0145671
802.356	0.0145305
802.434	0.0144758
802.512	0.0145345
802.590	0.0145512
802.668	0.0145554
802.746	0.0145161
802.825	0.0146056
802.903	0.0146275
802.981	0.0144785
803.059	0.0146063
803.137	0.0144707
803.215	0.0145037
803.293	0.0146244
803.371	0.0145605
803.450	0.0143760
803.528	0.0146462
803.606	0.0146371
803.684	0.0144755
803.762	0.0145118
803.840	0.0145508
803.918	0.0145966
803.996	0.0146070
804.075	0.0145928
804.153	0.0146711
804.231	0.0145654
804.309	0.0146046
804.387	0.0146494
804.465	0.0146436
804.543	0.0146535
804.621	0.0146738
804.700	0.0146363
804.778	0.0145301
804.856	0.0147379
804.934	0.0146577
805.012	0.0146417
805.090	0.0145477
805.168	0.0144910
805.246	0.0144153
805.325	0.0146040
805.403	0.0148069
805.481	0.0145953
805.559	0.0143540
805.637	0.0145248
805.715	0.0146177
805.793	0.0144416
805.871	0.0145269
805.950	0.0144247
806.028	0.0144257
806.106	0.0143185
806.184	0.0144051
806.262	0.0144208
806.340	0.0144682
806.418	0.0144951
806.496	0.0145791
806.575	0.0145562
806.653	0.0144378
806.731	0.0143227
806.809	0.0145469
806.887	0.0145740
806.965	0.0145958
807.043	0.0145745
807.121	0.0143889
807.200	0.0145654
807.278	0.0145312
807.356	0.0144435
807.434	0.0145824
807.512	0.0144937
807.590	0.0145871
807.668	0.0144855
807.746	0.0145870
807.825	0.0144514
807.903	0.0144694
807.981	0.0144526
808.059	0.0143447
808.137	0.0145308
808.215	0.0144044
808.293	0.0144014
808.371	0.0144376
808.450	0.0144382
808.528	0.0144803
808.606	0.0144666
808.684	0.0144624
808.762	0.0145899
808.840	0.0144089
808.918	0.0145344
808.996	0.0144454
809.075	0.0145035
809.153	0.0145128
809.231	0.0144753
809.309	0.0145054
809.387	0.0144767
809.465	0.0143961
809.543	0.0145216
809.621	0.0144672
809.700	0.0144760
809.778	0.0146101
809.856	0.0145063
809.934	0.0145114
810.012	0.0144345
810.090	0.0145726
810.168	0.0145987
810.246	0.0145213
810.325	0.0145111
810.403	0.0144814
810.481	0.0144289
810.559	0.0144456
810.637	0.0145054
810.715	0.0144252
810.793	0.0144389
810.871	0.0144156
810.950	0.0144059
811.028	0.0145978
811.106	0.0144771
811.184	0.0145805
811.262	0.0144972
811.340	0.0144593
811.418	0.0145276
811.496	0.0145210
811.575	0.0143712
811.653	0.0145083
811.731	0.0145161
811.809	0.0144699
811.887	0.0145787
811.965	0.0145100
812.043	0.0144855
812.121	0.0145450
812.200	0.0145137
812.278	0.0144431
812.356	0.0143149
812.434	0.0143391
812.512	0.0145180
812.590	0.0144016
812.668	0.0145064
812.746	0.0145901
812.825	0.0144775
812.903	0.0144618
812.981	0.0144475
813.059	0.0144997
813.137	0.0145979
813.215	0.0144473
813.293	0.0144685
813.371	0.0145454
813.450	0.0145394
813.528	0.0145908
813.606	0.0144370
813.684	0.0143913
813.762	0.0143941
813.840	0.0145034
813.918	0.0145015
813.996	0.0144952
814.075	0.0143951
814.153	0.0144514
814.231	0.0144931
814.309	0.0143763
814.387	0.0145374
814.465	0.0145660
814.543	0.0144617
814.621	0.0145300
814.700	0.0145753
814.778	0.0145580
814.856	0.0146119
814.934	0.0145221
815.012	0.0144424
815.090	0.0144364
815.168	0.0144547
815.246	0.0142180
815.325	0.0144074
815.403	0.0144119
815.481	0.0144460
815.559	0.0142895
815.637	0.0144284
815.715	0.0144662
815.793	0.0145023
815.871	0.0143816
815.950	0.0144435
816.028	0.0145543
816.106	0.0145409
816.184	0.0145106
816.262	0.0144193
816.340	0.0145797
816.418	0.0144654
816.496	0.0145191
816.575	0.0144517
816.653	0.0144063
816.731	0.0145020
816.809	0.0143990
816.887	0.0143230
816.965	0.0144552
817.043	0.0142970
817.121	0.0143452
817.200	0.0144724
817.278	0.0143416
817.356	0.0144464
817.434	0.0144659
817.512	0.0143756
817.590	0.0144391
817.668	0.0143593
817.746	0.0142129
817.825	0.0144171
817.903	0.0144448
817.981	0.0144479
818.059	0.0144745
818.137	0.0144627
818.215	0.0143733
818.293	0.0144080
818.371	0.0144433
818.450	0.0144817
818.528	0.0143807
818.606	0.0143881
818.684	0.0143999
818.762	0.0143707
818.840	0.0143648
818.918	0.0144624
818.996	0.0142925
819.075	0.0142802
819.153	0.0144846
819.231	0.0143563
819.309	0.0144003
819.387	0.0144198
819.465	0.0143323
819.543	0.0143723
819.621	0.0144225
819.700	0.0144501
819.778	0.0144146
819.856	0.0145021
819.934	0.0144892
820.012	0.0144087
820.090	0.0144741
820.168	0.0145236
820.246	0.0144988
820.325	0.0145068
820.403	0.0144130
820.481	0.0144376
820.559	0.0145241
820.637	0.0144316
820.715	0.0144050
820.793	0.0145229
820.871	0.0143524
820.950	0.0144946
821.028	0.0144875
821.106	0.0144393
821.184	0.0144376
821.262	0.0143851
821.340	0.0145082
821.418	0.0143687
821.496	0.0146008
821.575	0.0144451
821.653	0.0143832
821.731	0.0143237
821.809	0.0144502
821.887	0.0144927
821.965	0.0144830
822.043	0.0143861
822.121	0.0144714
822.200	0.0144258
822.278	0.0144329
822.356	0.0145848
822.434	0.0145274
822.512	0.0144932
822.590	0.0145343
822.668	0.0144419
822.746	0.0143959
822.825	0.0144737
822.903	0.0145612
822.981	0.0145071
823.059	0.0144079
823.137	0.0145395
823.215	0.0144173
823.293	0.0144176
823.371	0.0144085
823.450	0.0143880
823.528	0.0144434
823.606	0.0144957
823.684	0.0144632
823.762	0.0145032
823.840	0.0143651
823.918	0.0143547
823.996	0.0144754
824.075	0.0145488
824.153	0.0143281
824.231	0.0144764
824.309	0.0144363
824.387	0.0142721
824.465	0.0144238
824.543	0.0145458
824.621	0.0144502
824.700	0.0144000
824.778	0.0144013
824.856	0.0144357
824.934	0.0145222
825.012	0.0144543
825.090	0.0144711
825.168	0.0144584
825.246	0.0143979
825.325	0.0144978
825.403	0.0145763
825.481	0.0144339
825.559	0.0144801
825.637	0.0145284
825.715	0.0145882
825.793	0.0145111
825.871	0.0143768
825.950	0.0144878
826.028	0.0144773
826.106	0.0145264
826.184	0.0144366
826.262	0.0145010
826.340	0.0144698
826.418	0.0145004
826.496	0.0144098
826.575	0.0145412
826.653	0.0143555
826.731	0.0144233
826.809	0.0144433
826.887	0.0144327
826.965	0.0144589
827.043	0.0145348
827.121	0.0144759
827.200	0.0145158
827.278	0.0144879
827.356	0.0143151
827.434	0.0145077
827.512	0.0144193
827.590	0.0145094
827.668	0.0145547
827.746	0.0144313
827.825	0.0144186
827.903	0.0144997
827.981	0.0144764
828.059	0.0143911
828.137	0.0144453
828.215	0.0144871
828.293	0.0146026
828.371	0.0144046
828.450	0.0144327
828.528	0.0145102
828.606	0.0144252
828.684	0.0145406
828.762	0.0144742
828.840	0.0144338
828.918	0.0144626
828.996	0.0144747
829.075	0.0145069
829.153	0.0143946
829.231	0.0145508
829.309	0.0145372
829.387	0.0144987
829.465	0.0144715
829.543	0.0145992
829.621	0.0144367
829.700	0.0145209
829.778	0.0145798
829.856	0.0145326
829.934	0.0145587
830.012	0.0144624
830.090	0.0145876
830.168	0.0144631
830.246	0.0144993
830.325	0.0143778
830.403	0.0144666
830.481	0.0144897
830.559	0.0143464
830.637	0.0143277
830.715	0.0143357
830.793	0.0141886
830.871	0.0144025
830.950	0.0144784
831.028	0.0144583
831.106	0.0145383
831.184	0.0144843
831.262	0.0144791
831.340	0.0143855
831.418	0.0144846
831.496	0.0144559
831.575	0.0144855
831.653	0.0144763
831.731	0.0145209
831.809	0.0143947
831.887	0.0144924
831.965	0.0146067
832.043	0.0145834
832.121	0.0144671
832.200	0.0144785
832.278	0.0146145
832.356	0.0145973
832.434	0.0146278
832.512	0.0145332
832.590	0.0145168
832.668	0.0145175
832.746	0.0146037
832.825	0.0144872
832.903	0.0145103
832.981	0.0145560
833.059	0.0145406
833.137	0.0145757
833.215	0.0146368
833.293	0.0145287
833.371	0.0146306
833.450	0.0145234
833.528	0.0145859
833.606	0.0146087
833.684	0.0145390
833.762	0.0145891
833.840	0.0145904
833.918	0.0144901
833.996	0.0144792
834.075	0.0144911
834.153	0.0145533
834.231	0.0146130
834.309	0.0144653
834.387	0.0144313
834.465	0.0145449
834.543	0.0145528
834.621	0.0143512
834.700	0.0145183
834.778	0.0146444
834.856	0.0145417
834.934	0.0145044
835.012	0.0145786
835.090	0.0145014
835.168	0.0145426
835.246	0.0144454
835.325	0.0144862
835.403	0.0145181
835.481	0.0144540
835.559	0.0146673
835.637	0.0145675
835.715	0.0144186
835.793	0.0143839
835.871	0.0143977
835.950	0.0146439
836.028	0.0146142
836.106	0.0145870
836.184	0.0144464
836.262	0.0145067
836.340	0.0145380
836.418	0.0145386
836.496	0.0145790
836.575	0.0145049
836.653	0.0144112
836.731	0.0145779
836.809	0.0145396
836.887	0.0145329
836.965	0.0145739
837.043	0.0145009
837.121	0.0145734
837.200	0.0144508
837.278	0.0145515
837.356	0.0144836
837.434	0.0145187
837.512	0.0144568
837.590	0.0146139
837.668	0.0144837
837.746	0.0145667
837.825	0.0145634
837.903	0.0145277
837.981	0.0145097
838.059	0.0144571
838.137	0.0145055
838.215	0.0144315
838.293	0.0144404
838.371	0.0145203
838.450	0.0145334
838.528	0.0145295
838.606	0.0144600
838.684	0.0145513
838.762	0.0144553
838.840	0.0142516
838.918	0.0145303
838.996	0.0146092
839.075	0.0145198
839.153	0.0145051
839.231	0.0144099
839.309	0.0144217
839.387	0.0145180
839.465	0.0145308
839.543	0.0144110
839.621	0.0145102
839.700	0.0144007
839.778	0.0143334
839.856	0.0144945
839.934	0.0146192
840.012	0.0144578
840.090	0.0144974
840.168	0.0144208
840.246	0.0144778
840.325	0.0146152
840.403	0.0144843
840.481	0.0144457
840.559	0.0143272
840.637	0.0144890
840.715	0.0145495
840.793	0.0144969
840.871	0.0143968
840.950	0.0144288
841.028	0.0144444
841.106	0.0145156
841.184	0.0144482
841.262	0.0143683
841.340	0.0143423
841.418	0.0144540
841.496	0.0143445
841.575	0.0144959
841.653	0.0145271
841.731	0.0144068
841.809	0.0143523
841.887	0.0143874
841.965	0.0144022
842.043	0.0144438
842.121	0.0145548
842.200	0.0143552
842.278	0.0142648
842.356	0.0142469
842.434	0.0143596
842.512	0.0144021
842.590	0.0145136
842.668	0.0143583
842.746	0.0143517
842.825	0.0144147
842.903	0.0144168
842.981	0.0144550
843.059	0.0144967
843.137	0.0144153
843.215	0.0144002
843.293	0.0143488
843.371	0.0144847
843.450	0.0145895
843.528	0.0145438
843.606	0.0145699
843.684	0.0146040
843.762	0.0145200
843.840	0.0145079
843.918	0.0144832
843.996	0.0145831
844.075	0.0144798
844.153	0.0146177
844.231	0.0146663
844.309	0.0145362
844.387	0.0145268
844.465	0.0144922
844.543	0.0146230
844.621	0.0144913
844.700	0.0146215
844.778	0.0146162
844.856	0.0145336
844.934	0.0145436
845.012	0.0144099
845.090	0.0144818
845.168	0.0145465
845.246	0.0145064
845.325	0.0145959
845.403	0.0145344
845.481	0.0145791
845.559	0.0144583
845.637	0.0145248
845.715	0.0145342
845.793	0.0144942
845.871	0.0145384
845.950	0.0145370
846.028	0.0145584
846.106	0.0145491
846.184	0.0145527
846.262	0.0144176
846.340	0.0145259
846.418	0.0144711
846.496	0.0144868
846.575	0.0144090
846.653	0.0143824
846.731	0.0144073
846.809	0.0144963
846.887	0.0145130
846.965	0.0145486
847.043	0.0145818
847.121	0.0145654
847.200	0.0144605
847.278	0.0144259
847.356	0.0145647
847.434	0.0144914
847.512	0.0144079
847.590	0.0144571
847.668	0.0144137
847.746	0.0144991
847.825	0.0144803
847.903	0.0143410
847.981	0.0144202
848.059	0.0143224
848.137	0.0145229
848.215	0.0145248
848.293	0.0145610
848.371	0.0145194
848.450	0.0143380
848.528	0.0144701
848.606	0.0145609
848.684	0.0144564
848.762	0.0144897
848.840	0.0143625
848.918	0.0144380
848.996	0.0145463
849.075	0.0145522
849.153	0.0145383
849.231	0.0143912
849.309	0.0143494
849.387	0.0144003
849.465	0.0143785
849.543	0.0145717
849.621	0.0143707
849.700	0.0143192
849.778	0.0143827
849.856	0.0143882
849.934	0.0142924
850.012	0.0145201
850.090	0.0142724
850.168	0.0143726
850.246	0.0143643
850.325	0.0144221
850.403	0.0145129
850.481	0.0145039
850.559	0.0144718
850.637	0.0144126
850.715	0.0145721
850.793	0.0144540
850.871	0.0144422
850.950	0.0144487
851.028	0.0144413
851.106	0.0143969
851.184	0.0145768
851.262	0.0145832
851.340	0.0145255
851.418	0.0146178
851.496	0.0144411
851.575	0.0143700
851.653	0.0144892
851.731	0.0145999
851.809	0.0145212
851.887	0.0144848
851.965	0.0145888
852.043	0.0143514
852.121	0.0143440
852.200	0.0144341
852.278	0.0144276
852.356	0.0145315
852.434	0.0144559
852.512	0.0143555
852.590	0.0144477
852.668	0.0144611
852.746	0.0143681
852.825	0.0144351
852.903	0.0145712
852.981	0.0143275
853.059	0.0145141
853.137	0.0145020
853.215	0.0144485
853.293	0.0144586
853.371	0.0143568
853.450	0.0144691
853.528	0.0145119
853.606	0.0145565
853.684	0.0144529
853.762	0.0144244
853.840	0.0144033
853.918	0.0144104
853.996	0.0144869
854.075	0.0145077
854.153	0.0144201
854.231	0.0145512
854.309	0.0145090
854.387	0.0144626
854.465	0.0144970
854.543	0.0143681
854.621	0.0144656
854.700	0.0144201
854.778	0.0144958
854.856	0.0143615
854.934	0.0144964
855.012	0.0144575
855.090	0.0144289
855.168	0.0143751
855.246	0.0144783
855.325	0.0143146
855.403	0.0144879
855.481	0.0144300
855.559	0.0144038
855.637	0.0145264
855.715	0.0145415
855.793	0.0145039
855.871	0.0143053
855.950	0.0143745
856.028	0.0144480
856.106	0.0144026
856.184	0.0144547
856.262	0.0144528
856.340	0.0145139
856.418	0.0144949
856.496	0.0144943
856.575	0.0145560
856.653	0.0144598
856.731	0.0144290
856.809	0.0144647
856.887	0.0145296
856.965	0.0144887
857.043	0.0144848
857.121	0.0145457
857.200	0.0144292
857.278	0.0144389
857.356	0.0145724
857.434	0.0145069
857.512	0.0145020
857.590	0.0145301
857.668	0.0145370
857.746	0.0144633
857.825	0.0144550
857.903	0.0144595
857.981	0.0146005
858.059	0.0146347
858.137	0.0144491
858.215	0.0144514
858.293	0.0145786
858.371	0.0145056
858.450	0.0145213
858.528	0.0144748
858.606	0.0144555
858.684	0.0143778
858.762	0.0145953
858.840	0.0144772
858.918	0.0144452
858.996	0.0145191
859.075	0.0145158
859.153	0.0144643
859.231	0.0144327
859.309	0.0144752
859.387	0.0144528
859.465	0.0144656
859.543	0.0144551
859.621	0.0144056
859.700	0.0145372
859.778	0.0143965
859.856	0.0144894
859.934	0.0146499
860.012	0.0145143
860.090	0.0145329
860.168	0.0144967
860.246	0.0145475
860.325	0.0146117
860.403	0.0143533
860.481	0.0144881
860.559	0.0145898
860.637	0.0144148
860.715	0.0144199
860.793	0.0145336
860.871	0.0144391
860.950	0.0143819
861.028	0.0145339
861.106	0.0144667
861.184	0.0145144
861.262	0.0144733
861.340	0.0145779
861.418	0.0143980
861.496	0.0143672
861.575	0.0144585
861.653	0.0144118
861.731	0.0144228
861.809	0.0144065
861.887	0.0144392
861.965	0.0144090
862.043	0.0144743
862.121	0.0144600
862.200	0.0144061
862.278	0.0144201
862.356	0.0144891
862.434	0.0143985
862.512	0.0144512
862.590	0.0144059
862.668	0.0143010
862.746	0.0144513
862.825	0.0143059
862.903	0.0143395
862.981	0.0144458
863.059	0.0144574
863.137	0.0143584
863.215	0.0143393
863.293	0.0144218
863.371	0.0144000
863.450	0.0142809
863.528	0.0144112
863.606	0.0145901
863.684	0.0143351
863.762	0.0142680
863.840	0.0144407
863.918	0.0145010
863.996	0.0143654
864.075	0.0144622
864.153	0.0143005
864.231	0.0144557
864.309	0.0142501
864.387	0.0143453
864.465	0.0144830
864.543	0.0144500
864.621	0.0145032
864.700	0.0143228
864.778	0.0144175
864.856	0.0143301
864.934	0.0144466
865.012	0.0144920
865.090	0.0145834
865.168	0.0144543
865.246	0.0144482
865.325	0.0144783
865.403	0.0143811
865.481	0.0145875
865.559	0.0145570
865.637	0.0144551
865.715	0.0142445
865.793	0.0143810
865.871	0.0144911
865.950	0.0144964
866.028	0.0146079
866.106	0.0145808
866.184	0.0145035
866.262	0.0144424
866.340	0.0145459
866.418	0.0144757
866.496	0.0146472
866.575	0.0146015
866.653	0.0144661
866.731	0.0144307
866.809	0.0144245
866.887	0.0145594
866.965	0.0147465
867.043	0.0146265
867.121	0.0144938
867.200	0.0145850
867.278	0.0146351
867.356	0.0144743
867.434	0.0143715
867.512	0.0144914
867.590	0.0144458
867.668	0.0145082
867.746	0.0145341
867.825	0.0146587
867.903	0.0145138
867.981	0.0144376
868.059	0.0145087
868.137	0.0145209
868.215	0.0146192
868.293	0.0144897
868.371	0.0145085
868.450	0.0144614
868.528	0.0144442
868.606	0.0143784
868.684	0.0144396
868.762	0.0144754
868.840	0.0144253
868.918	0.0143953
868.996	0.0143690
869.075	0.0144285
869.153	0.0145106
869.231	0.0143272
869.309	0.0144224
869.387	0.0143219
869.465	0.0144618
869.543	0.0144820
869.621	0.0144948
869.700	0.0144581
869.778	0.0145133
869.856	0.0144977
869.934	0.0146255
870.012	0.0144020
870.090	0.0144411
870.168	0.0145699
870.246	0.0144489
870.325	0.0143364
870.403	0.0144096
870.481	0.0145039
870.559	0.0144494
870.637	0.0144571
870.715	0.0144766
870.793	0.0143159
870.871	0.0143699
870.950	0.0143992
871.028	0.0145445
871.106	0.0144794
871.184	0.0145630
871.262	0.0144667
871.340	0.0144505
871.418	0.0146388
871.496	0.0145309
871.575	0.0145000
871.653	0.0145208
871.731	0.0144034
871.809	0.0145847
871.887	0.0145228
871.965	0.0144313
872.043	0.0144957
872.121	0.0144132
872.200	0.0144947
872.278	0.0144231
872.356	0.0146363
872.434	0.0145296
872.512	0.0145890
872.590	0.0144101
872.668	0.0144957
872.746	0.0145134
872.825	0.0144749
872.903	0.0145506
872.981	0.0144578
873.059	0.0146080
873.137	0.0144291
873.215	0.0145013
873.293	0.0145211
873.371	0.0144777
873.450	0.0145061
873.528	0.0145242
873.606	0.0145070
873.684	0.0146113
873.762	0.0145619
873.840	0.0144315
873.918	0.0146047
873.996	0.0145280
874.075	0.0146497
874.153	0.0146897
874.231	0.0146356
874.309	0.0144901
874.387	0.0146139
874.465	0.0146265
874.543	0.0145994
874.621	0.0146246
874.700	0.0144498
874.778	0.0144233
874.856	0.0144904
874.934	0.0144515
875.012	0.0145212
875.090	0.0145199
875.168	0.0144899
875.246	0.0145219
875.325	0.0144218
875.403	0.0145283
875.481	0.0144985
875.559	0.0145971
875.637	0.0146094
875.715	0.0144926
875.793	0.0144424
875.871	0.0144286
875.950	0.0145020
876.028	0.0146035
876.106	0.0146117
876.184	0.0144876
876.262	0.0145799
876.340	0.0145705
876.418	0.0147026
876.496	0.0145786
876.575	0.0146068
876.653	0.0144276
876.731	0.0145177
876.809	0.0145592
876.887	0.0143350
876.965	0.0146255
877.043	0.0145308
877.121	0.0144695
877.200	0.0144317
877.278	0.0144320
877.356	0.0145158
877.434	0.0145462
877.512	0.0142947
877.590	0.0143523
877.668	0.0144272
877.746	0.0145618
877.825	0.0144541
877.903	0.0142642
877.981	0.0143955
878.059	0.0143733
878.137	0.0142780
878.215	0.0142645
878.293	0.0142313
878.371	0.0144076
878.450	0.0145143
878.528	0.0143374
878.606	0.0142741
878.684	0.0145632
878.762	0.0146322
878.840	0.0144313
878.918	0.0144548
878.996	0.0146068
879.075	0.0144373
879.153	0.0145558
879.231	0.0146351
879.309	0.0146365
879.387	0.0145182
879.465	0.0143584
879.543	0.0144903
879.621	0.0144987
879.700	0.0144497
879.778	0.0143966
879.856	0.0143023
879.934	0.0144575
880.012	0.0142619
880.090	0.0143941
880.168	0.0143009
880.246	0.0142442
880.325	0.0142690
880.403	0.0144436
880.481	0.0145185
880.559	0.0144588
880.637	0.0144553
880.715	0.0143542
880.793	0.0146647
880.871	0.0145345
880.950	0.0144165
881.028	0.0145064
881.106	0.0146025
881.184	0.0144515
881.262	0.0145426
881.340	0.0143971
881.418	0.0145343
881.496	0.0144740
881.575	0.0144196
881.653	0.0146041
881.731	0.0145010
881.809	0.0145584
881.887	0.0144610
881.965	0.0145560
882.043	0.0145511
882.121	0.0144011
882.200	0.0143190
882.278	0.0144731
882.356	0.0147578
882.434	0.0144254
882.512	0.0144313
882.590	0.0145052
882.668	0.0146391
882.746	0.0145583
882.825	0.0145318
882.903	0.0143043
882.981	0.0142626
883.059	0.0143587
883.137	0.0144126
883.215	0.0144722
883.293	0.0144269
883.371	0.0144070
883.450	0.0145460
883.528	0.0144644
883.606	0.0145046
883.684	0.0146394
883.762	0.0145625
883.840	0.0144034
883.918	0.0143562
883.996	0.0144822
884.075	0.0144247
884.153	0.0145810
884.231	0.0145968
884.309	0.0144936
884.387	0.0145646
884.465	0.0144150
884.543	0.0143085
884.621	0.0144082
884.700	0.0143748
884.778	0.0144656
884.856	0.0143800
884.934	0.0144147
885.012	0.0144832
885.090	0.0144130
885.168	0.0144602
885.246	0.0144984
885.325	0.0144775
885.403	0.0144549
885.481	0.0144953
885.559	0.0145219
885.637	0.0145230
885.715	0.0145754
885.793	0.0145786
885.871	0.0144034
885.950	0.0145284
886.028	0.0143872
886.106	0.0143089
886.184	0.0144459
886.262	0.0143751
886.340	0.0144012
886.418	0.0143050
886.496	0.0143202
886.575	0.0142860
886.653	0.0143208
886.731	0.0142558
886.809	0.0141843
886.887	0.0144393
886.965	0.0144981
887.043	0.0145345
887.121	0.0144199
887.200	0.0142776
887.278	0.0143594
887.356	0.0144318
887.434	0.0143788
887.512	0.0144063
887.590	0.0143204
887.668	0.0144006
887.746	0.0144202
887.825	0.0144284
887.903	0.0143253
887.981	0.0143282
888.059	0.0142708
888.137	0.0142999
888.215	0.0143425
888.293	0.0142609
888.371	0.0143410
888.450	0.0144880
888.528	0.0144264
888.606	0.0143662
888.684	0.0143216
888.762	0.0144555
888.840	0.0143616
888.918	0.0144939
888.996	0.0144767
889.075	0.0143494
889.153	0.0144751
889.231	0.0145459
889.309	0.0144931
889.387	0.0145132
889.465	0.0143871
889.543	0.0145114
889.621	0.0144852
889.700	0.0145043
889.778	0.0146416
889.856	0.0145300
889.934	0.0144379
890.012	0.0145346
890.090	0.0144841
890.168	0.0146072
890.246	0.0145628
890.325	0.0146417
890.403	0.0145912
890.481	0.0146370
890.559	0.0145766
890.637	0.0147208
890.715	0.0145751
890.793	0.0145337
890.871	0.0144591
890.950	0.0145586
891.028	0.0143530
891.106	0.0144489
891.184	0.0145104
891.262	0.0143753
891.340	0.0143575
891.418	0.0145601
891.496	0.0144987
891.575	0.0145405
891.653	0.0144102
891.731	0.0146011
891.809	0.0145320
891.887	0.0147166
891.965	0.0143258
892.043	0.0144917
892.121	0.0144940
892.200	0.0145889
892.278	0.0146078
892.356	0.0146316
892.434	0.0144718
892.512	0.0145277
892.590	0.0145679
892.668	0.0146978
892.746	0.0146060
892.825	0.0146186
892.903	0.0145626
892.981	0.0144462
893.059	0.0144756
893.137	0.0143778
893.215	0.0145061
893.293	0.0144721
893.371	0.0144819
893.450	0.0143671
893.528	0.0145002
893.606	0.0144589
893.684	0.0145039
893.762	0.0144201
893.840	0.0145235
893.918	0.0144209
893.996	0.0146001
894.075	0.0145364
894.153	0.0143121
894.231	0.0143251
894.309	0.0143585
894.387	0.0144830
894.465	0.0144256
894.543	0.0144314
894.621	0.0142786
894.700	0.0143855
894.778	0.0145033
894.856	0.0144585
894.934	0.0145789
895.012	0.0144250
895.090	0.0145142
895.168	0.0144681
895.246	0.0145353
895.325	0.0145658
895.403	0.0144867
895.481	0.0144237
895.559	0.0144719
895.637	0.0146581
895.715	0.0144837
895.793	0.0145678
895.871	0.0145515
895.950	0.0144152
896.028	0.0144254
896.106	0.0144238
896.184	0.0144199
896.262	0.0143240
896.340	0.0143459
896.418	0.0142309
896.496	0.0143174
896.575	0.0145097
896.653	0.0144479
896.731	0.0143987
896.809	0.0144682
896.887	0.0143430
896.965	0.0145426
897.043	0.0143172
897.121	0.0143897
897.200	0.0144918
897.278	0.0145104
897.356	0.0145569
897.434	0.0143442
897.512	0.0145628
897.590	0.0145702
897.668	0.0145296
897.746	0.0144699
897.825	0.0145628
897.903	0.0146420
897.981	0.0145726
898.059	0.0147294
898.137	0.0145621
898.215	0.0144149
898.293	0.0144302
898.371	0.0144831
898.450	0.0144534
898.528	0.0143336
898.606	0.0144399
898.684	0.0143700
898.762	0.0144716
898.840	0.0143966
898.918	0.0143746
898.996	0.0145197
899.075	0.0144262
899.153	0.0144901
899.231	0.0145938
899.309	0.0145753
899.387	0.0144457
899.465	0.0143852
899.543	0.0144788
899.621	0.0144818
899.700	0.0144696
899.778	0.0146484
899.856	0.0146288
899.934	0.0146142
900.012	0.0144531
900.090	0.0145631
900.168	0.0146399
900.246	0.0145597
900.325	0.0145090
900.403	0.0145748
900.481	0.0145507
900.559	0.0144871
900.637	0.0144855
900.715	0.0145713
900.793	0.0146172
900.871	0.0145004
900.950	0.0143755
901.028	0.0144019
901.106	0.0145330
901.184	0.0144063
901.262	0.0142773
901.340	0.0143929
901.418	0.0143430
901.496	0.0144832
901.575	0.0145820
901.653	0.0144382
901.731	0.0143914
901.809	0.0144662
901.887	0.0144330
901.965	0.0144484
902.043	0.0144611
902.121	0.0143844
902.200	0.0144836
902.278	0.0146204
902.356	0.0145023
902.434	0.0145398
902.512	0.0144584
902.590	0.0144261
902.668	0.0145384
902.746	0.0145317
902.825	0.0144576
902.903	0.0144637
902.981	0.0144927
903.059	0.0144715
903.137	0.0143106
903.215	0.0144711
903.293	0.0144233
903.371	0.0144868
903.450	0.0144775
903.528	0.0144885
903.606	0.0144601
903.684	0.0144097
903.762	0.0144073
903.840	0.0143423
903.918	0.0144549
903.996	0.0143803
904.075	0.0145626
904.153	0.0143489
904.231	0.0144114
904.309	0.0144045
904.387	0.0145143
904.465	0.0143833
904.543	0.0144933
904.621	0.0145674
904.700	0.0144031
904.778	0.0144385
904.856	0.0145079
904.934	0.0145554
905.012	0.0144543
905.090	0.0145885
905.168	0.0145689
905.246	0.0145328
905.325	0.0146877
905.403	0.0145930
905.481	0.0145484
905.559	0.0145072
905.637	0.0144704
905.715	0.0144441
905.793	0.0146384
905.871	0.0143290
905.950	0.0144849
906.028	0.0145039
906.106	0.0144408
906.184	0.0145984
906.262	0.0144884
906.340	0.0143835
906.418	0.0144397
906.496	0.0144183
906.575	0.0143513
906.653	0.0143736
906.731	0.0144690
906.809	0.0145454
906.887	0.0144447
906.965	0.0144318
907.043	0.0144373
907.121	0.0144193
907.200	0.0144665
907.278	0.0144514
907.356	0.0143716
907.434	0.0143399
907.512	0.0144662
907.590	0.0145107
907.668	0.0144798
907.746	0.0144211
907.825	0.0143285
907.903	0.0145996
907.981	0.0143728
908.059	0.0143711
908.137	0.0144405
908.215	0.0143869
908.293	0.0143742
908.371	0.0142747
908.450	0.0142793
908.528	0.0144148
908.606	0.0144331
908.684	0.0145020
908.762	0.0145127
908.840	0.0143871
908.918	0.0144542
908.996	0.0144238
909.075	0.0144846
909.153	0.0143626
909.231	0.0143919
909.309	0.0144518
909.387	0.0144696
909.465	0.0144393
909.543	0.0145134
909.621	0.0144579
909.700	0.0144991
909.778	0.0145440
909.856	0.0144875
909.934	0.0144597
910.012	0.0144933
910.090	0.0144901
910.168	0.0145078
910.246	0.0144265
910.325	0.0144238
910.403	0.0144574
910.481	0.0145122
910.559	0.0144614
910.637	0.0143955
910.715	0.0144434
910.793	0.0144489
910.871	0.0144501
910.950	0.0144094
911.028	0.0144115
911.106	0.0144368
911.184	0.0144132
911.262	0.0144105
911.340	0.0146371
911.418	0.0145474
911.496	0.0145616
911.575	0.0144633
911.653	0.0146150
911.731	0.0145869
911.809	0.0144348
911.887	0.0145103
911.965	0.0144789
912.043	0.0144598
912.121	0.0145270
912.200	0.0144496
912.278	0.0145042
912.356	0.0145181
912.434	0.0144970
912.512	0.0144327
912.590	0.0145110
912.668	0.0144848
912.746	0.0146497
912.825	0.0146396
912.903	0.0144189
912.981	0.0143916
913.059	0.0144406
913.137	0.0145628
913.215	0.0145137
913.293	0.0144701
913.371	0.0144721
913.450	0.0143561
913.528	0.0144675
913.606	0.0143500
913.684	0.0143694
913.762	0.0145421
913.840	0.0145053
913.918	0.0144129
913.996	0.0144642
914.075	0.0145538
914.153	0.0144400
914.231	0.0145182
914.309	0.0146018
914.387	0.0144946
914.465	0.0145474
914.543	0.0144331
914.621	0.0143921
914.700	0.0145556
914.778	0.0143237
914.856	0.0144602
914.934	0.0144796
915.012	0.0144065
915.090	0.0144109
915.168	0.0144955
915.246	0.0142855
915.325	0.0143326
915.403	0.0143549
915.481	0.0141726
915.559	0.0144459
915.637	0.0144646
915.715	0.0145514
915.793	0.0143966
915.871	0.0143563
915.950	0.0144876
916.028	0.0143882
916.106	0.0143884
916.184	0.0143813
916.262	0.0145034
916.340	0.0142960
916.418	0.0142375
916.496	0.0144458
916.575	0.0144814
916.653	0.0142538
916.731	0.0142314
916.809	0.0142783
916.887	0.0144312
916.965	0.0143082
917.043	0.0144151
917.121	0.0144437
917.200	0.0143430
917.278	0.0143587
917.356	0.0144418
917.434	0.0145251
917.512	0.0146013
917.590	0.0143996
917.668	0.0143731
917.746	0.0145108
917.825	0.0145132
917.903	0.0145931
917.981	0.0145015
918.059	0.0144424
918.137	0.0144430
918.215	0.0145086
918.293	0.0144685
918.371	0.0144067
918.450	0.0143632
918.528	0.0144685
918.606	0.0145378
918.684	0.0144779
918.762	0.0144868
918.840	0.0144555
918.918	0.0144437
918.996	0.0145008
919.075	0.0145132
919.153	0.0145121
919.231	0.0145172
919.309	0.0145043
919.387	0.0145517
919.465	0.0145038
919.543	0.0144603
919.621	0.0144586
919.700	0.0142579
919.778	0.0144430
919.856	0.0144786
919.934	0.0144878
920.012	0.0145385
920.090	0.0143184
920.168	0.0142012
920.246	0.0144516
920.325	0.0143254
920.403	0.0143886
920.481	0.0143047
920.559	0.0143081
920.637	0.0144339
920.715	0.0143758
920.793	0.0144162
920.871	0.0143541
920.950	0.0145026
921.028	0.0144034
921.106	0.0145203
921.184	0.0144801
921.262	0.0143719
921.340	0.0144489
921.418	0.0145017
921.496	0.0143607
921.575	0.0145121
921.653	0.0145065
921.731	0.0144537
921.809	0.0144739
921.887	0.0145746
921.965	0.0144137
922.043	0.0145170
922.121	0.0143983
922.200	0.0144088
922.278	0.0143470
922.356	0.0144701
922.434	0.0145867
922.512	0.0145697
922.590	0.0145461
922.668	0.0145927
922.746	0.0144367
922.825	0.0146265
922.903	0.0143369
922.981	0.0144823
923.059	0.0145400
923.137	0.0144706
923.215	0.0144637
923.293	0.0144600
923.371	0.0145892
923.450	0.0145679
923.528	0.0145656
923.606	0.0146246
923.684	0.0147680
923.762	0.0145445
923.840	0.0146159
923.918	0.0144028
923.996	0.0145753
924.075	0.0146010
924.153	0.0146896
924.231	0.0144235
924.309	0.0145436
924.387	0.0147057
924.465	0.0147017
924.543	0.0144245
924.621	0.0145541
924.700	0.0146098
924.778	0.0145518
924.856	0.0144688
924.934	0.0145061
925.012	0.0145000
925.090	0.0144978
925.168	0.0146304
925.246	0.0146149
925.325	0.0145112
925.403	0.0144363
925.481	0.0145097
925.559	0.0145727
925.637	0.0144352
925.715	0.0145901
925.793	0.0146176
925.871	0.0144941
925.950	0.0145686
926.028	0.0145226
926.106	0.0145233
926.184	0.0146106
926.262	0.0145120
926.340	0.0145471
926.418	0.0145038
926.496	0.0145484
926.575	0.0145988
926.653	0.0145972
926.731	0.0145897
926.809	0.0143757
926.887	0.0145555
926.965	0.0145096
927.043	0.0145020
927.121	0.0145265
927.200	0.0144759
927.278	0.0145302
927.356	0.0144946
927.434	0.0144703
927.512	0.0145570
927.590	0.0145095
927.668	0.0145858
927.746	0.0143984
927.825	0.0144955
927.903	0.0143990
927.981	0.0145370
928.059	0.0146608
928.137	0.0145091
928.215	0.0145639
928.293	0.0145502
928.371	0.0144328
928.450	0.0145907
928.528	0.0145074
928.606	0.0145863
928.684	0.0146304
928.762	0.0145613
928.840	0.0146784
928.918	0.0145798
928.996	0.0144655
929.075	0.0145370
929.153	0.0146156
929.231	0.0146758
929.309	0.0146050
929.387	0.0145086
929.465	0.0146071
929.543	0.0145158
929.621	0.0144207
929.700	0.0145403
929.778	0.0144634
929.856	0.0146427
929.934	0.0145056
930.012	0.0145351
930.090	0.0143787
930.168	0.0145280
930.246	0.0143784
930.325	0.0144714
930.403	0.0145450
930.481	0.0145683
930.559	0.0146300
930.637	0.0146106
930.715	0.0145377
930.793	0.0145071
930.871	0.0144924
930.950	0.0145751
931.028	0.0145631
931.106	0.0145699
931.184	0.0145045
931.262	0.0145623
931.340	0.0145930
931.418	0.0145936
931.496	0.0146010
931.575	0.0146548
931.653	0.0146066
931.731	0.0146491
931.809	0.0146449
931.887	0.0146403
931.965	0.0145614
932.043	0.0145237
932.121	0.0145435
932.200	0.0145324
932.278	0.0145771
932.356	0.0144488
932.434	0.0145937
932.512	0.0144955
932.590	0.0145941
932.668	0.0144780
932.746	0.0144759
932.825	0.0145073
932.903	0.0145017
932.981	0.0144977
933.059	0.0144541
933.137	0.0145215
933.215	0.0145403
933.293	0.0146107
933.371	0.0145341
933.450	0.0144751
933.528	0.0144842
933.606	0.0145012
933.684	0.0145163
933.762	0.0144559
933.840	0.0144573
933.918	0.0145232
933.996	0.0146317
934.075	0.0144904
934.153	0.0144352
934.231	0.0144070
934.309	0.0145396
934.387	0.0145828
934.465	0.0145068
934.543	0.0144211
934.621	0.0144770
934.700	0.0145543
934.778	0.0145343
934.856	0.0144937
934.934	0.0144925
935.012	0.0144037
935.090	0.0143380
935.168	0.0144893
935.246	0.0144160
935.325	0.0143967
935.403	0.0144994
935.481	0.0145572
935.559	0.0145576
935.637	0.0144041
935.715	0.0144901
935.793	0.0144788
935.871	0.0144386
935.950	0.0145519
936.028	0.0145795
936.106	0.0145961
936.184	0.0144653
936.262	0.0145043
936.340	0.0145118
936.418	0.0145023
936.496	0.0145409
936.575	0.0143978
936.653	0.0145493
936.731	0.0144105
936.809	0.0143948
936.887	0.0144212
936.965	0.0145338
937.043	0.0145564
937.121	0.0144127
937.200	0.0144494
937.278	0.0144399
937.356	0.0143898
937.434	0.0143414
937.512	0.0143485
937.590	0.0144526
937.668	0.0144423
937.746	0.0145124
937.825	0.0146109
937.903	0.0144814
937.981	0.0143262
938.059	0.0143196
938.137	0.0143956
938.215	0.0144768
938.293	0.0144857
938.371	0.0144672
938.450	0.0144212
938.528	0.0144650
938.606	0.0145941
938.684	0.0144589
938.762	0.0144228
938.840	0.0144373
938.918	0.0143967
938.996	0.0145036
939.075	0.0144164
939.153	0.0143742
939.231	0.0143347
939.309	0.0144179
939.387	0.0144016
939.465	0.0143166
939.543	0.0143433
939.621	0.0144424
939.700	0.0143026
939.778	0.0144176
939.856	0.0143886
939.934	0.0143838
940.012	0.0143820
940.090	0.0144081
940.168	0.0143033
940.246	0.0145421
940.325	0.0144267
940.403	0.0143378
940.481	0.0144073
940.559	0.0143166
940.637	0.0143385
940.715	0.0143238
940.793	0.0145424
940.871	0.0144185
940.950	0.0143789
941.028	0.0144737
941.106	0.0143784
941.184	0.0143591
941.262	0.0144615
941.340	0.0143723
941.418	0.0142683
941.496	0.0143754
941.575	0.0145095
941.653	0.0144108
941.731	0.0144695
941.809	0.0144382
941.887	0.0142683
941.965	0.0143770
942.043	0.0144484
942.121	0.0144791
942.200	0.0146271
942.278	0.0144763
942.356	0.0144699
942.434	0.0144223
942.512	0.0143871
942.590	0.0143784
942.668	0.0144983
942.746	0.0144241
942.825	0.0143338
942.903	0.0145095
942.981	0.0143680
943.059	0.0143957
943.137	0.0143644
943.215	0.0143972
943.293	0.0143922
943.371	0.0143880
943.450	0.0143665
943.528	0.0143391
943.606	0.0144431
943.684	0.0144571
943.762	0.0143935
943.840	0.0143571
943.918	0.0143639
943.996	0.0142536
944.075	0.0143010
944.153	0.0143179
944.231	0.0144440
944.309	0.0142518
944.387	0.0144303
944.465	0.0143340
944.543	0.0143718
944.621	0.0144577
944.700	0.0143873
944.778	0.0143257
944.856	0.0144403
944.934	0.0144465
945.012	0.0144881
945.090	0.0144972
945.168	0.0144885
945.246	0.0144490
945.325	0.0146409
945.403	0.0145461
945.481	0.0144321
945.559	0.0144869
945.637	0.0145842
945.715	0.0144820
945.793	0.0144998
945.871	0.0144772
945.950	0.0144178
946.028	0.0144519
946.106	0.0144189
946.184	0.0145811
946.262	0.0145213
946.340	0.0145235
946.418	0.0146227
946.496	0.0143668
946.575	0.0144101
946.653	0.0145512
946.731	0.0146569
946.809	0.0145471
946.887	0.0143217
946.965	0.0144650
947.043	0.0144740
947.121	0.0144501
947.200	0.0145621
947.278	0.0145152
947.356	0.0144981
947.434	0.0145877
947.512	0.0144662
947.590	0.0145548
947.668	0.0144663
947.746	0.0145612
947.825	0.0145879
947.903	0.0145306
947.981	0.0145679
948.059	0.0146083
948.137	0.0145642
948.215	0.0144662
948.293	0.0146397
948.371	0.0146005
948.450	0.0146153
948.528	0.0144227
948.606	0.0145226
948.684	0.0144907
948.762	0.0144830
948.840	0.0144376
948.918	0.0144872
948.996	0.0144559
949.075	0.0145235
949.153	0.0144556
949.231	0.0143945
949.309	0.0145685
949.387	0.0143827
949.465	0.0144616
949.543	0.0143641
949.621	0.0144988
949.700	0.0144691
949.778	0.0146059
949.856	0.0144292
949.934	0.0144468
950.012	0.0145466
950.090	0.0143688
950.168	0.0143440
950.246	0.0144897
950.325	0.0144787
950.403	0.0144360
950.481	0.0144965
950.559	0.0144846
950.637	0.0143300
950.715	0.0145205
950.793	0.0145546
950.871	0.0143542
950.950	0.0144891
951.028	0.0144757
951.106	0.0144826
951.184	0.0144921
951.262	0.0144367
951.340	0.0145815
951.418	0.0144725
951.496	0.0143565
951.575	0.0144420
951.653	0.0143557
951.731	0.0145492
951.809	0.0145708
951.887	0.0144954
951.965	0.0144069
952.043	0.0144990
952.121	0.0144653
952.200	0.0144839
952.278	0.0145026
952.356	0.0144416
952.434	0.0146576
952.512	0.0145259
952.590	0.0144325
952.668	0.0145635
952.746	0.0145492
952.825	0.0144173
952.903	0.0145930
952.981	0.0146224
953.059	0.0146797
953.137	0.0145806
953.215	0.0145426
953.293	0.0145149
953.371	0.0144392
953.450	0.0146315
953.528	0.0145242
953.606	0.0144683
953.684	0.0144785
953.762	0.0144190
953.840	0.0145022
953.918	0.0145863
953.996	0.0146864
954.075	0.0146584
954.153	0.0145807
954.231	0.0146156
954.309	0.0146006
954.387	0.0146493
954.465	0.0146017
954.543	0.0144913
954.621	0.0145924
954.700	0.0146393
954.778	0.0145563
954.856	0.0144985
954.934	0.0147678
955.012	0.0146643
955.090	0.0146127
955.168	0.0147091
955.246	0.0145375
955.325	0.0145459
955.403	0.0146262
955.481	0.0146889
955.559	0.0145568
955.637	0.0144590
955.715	0.0146510
955.793	0.0146320
955.871	0.0146449
955.950	0.0144622
956.028	0.0145270
956.106	0.0145473
956.184	0.0145372
956.262	0.0145298
956.340	0.0146838
956.418	0.0145642
956.496	0.0144941
956.575	0.0146578
956.653	0.0145474
956.731	0.0146117
956.809	0.0145906
956.887	0.0146067
956.965	0.0146728
957.043	0.0145588
957.121	0.0146337
957.200	0.0146524
957.278	0.0146983
957.356	0.0146042
957.434	0.0144542
957.512	0.0147072
957.590	0.0146969
957.668	0.0144557
957.746	0.0145702
957.825	0.0146130
957.903	0.0145493
957.981	0.0145267
958.059	0.0145222
958.137	0.0145434
958.215	0.0145415
958.293	0.0144759
958.371	0.0145123
958.450	0.0145491
958.528	0.0146765
958.606	0.0145074
958.684	0.0146294
958.762	0.0144790
958.840	0.0145691
958.918	0.0145673
958.996	0.0146741
959.075	0.0146590
959.153	0.0146112
959.231	0.0147179
959.309	0.0146103
959.387	0.0144941
959.465	0.0145022
959.543	0.0145448
959.621	0.0145771
959.700	0.0145132
959.778	0.0145103
959.856	0.0145511
959.934	0.0144324
960.012	0.0145531
960.090	0.0145561
960.168	0.0146234
960.246	0.0145522
960.325	0.0145870
960.403	0.0145541
960.481	0.0144406
960.559	0.0144009
960.637	0.0144493
960.715	0.0145058
960.793	0.0145235
960.871	0.0144760
960.950	0.0144978
961.028	0.0145638
961.106	0.0145965
961.184	0.0143166
961.262	0.0144238
961.340	0.0144730
961.418	0.0144006
961.496	0.0144582
961.575	0.0144018
961.653	0.0144980
961.731	0.0143697
961.809	0.0143727
961.887	0.0144616
961.965	0.0145704
962.043	0.0144707
962.121	0.0144572
962.200	0.0144716
962.278	0.0142863
962.356	0.0144262
962.434	0.0143587
962.512	0.0144188
962.590	0.0145089
962.668	0.0144025
962.746	0.0142976
962.825	0.0144770
962.903	0.0142876
962.981	0.0143372
963.059	0.0143737
963.137	0.0144212
963.215	0.0144098
963.293	0.0143376
963.371	0.0142403
963.450	0.0144016
963.528	0.0144482
963.606	0.0143759
963.684	0.0143330
963.762	0.0143725
963.840	0.0144068
963.918	0.0144871
963.996	0.0145053
964.075	0.0143491
964.153	0.0142826
964.231	0.0143820
964.309	0.0144144
964.387	0.0145052
964.465	0.0144365
964.543	0.0143622
964.621	0.0145613
964.700	0.0144415
964.778	0.0144441
964.856	0.0144767
964.934	0.0143792
965.012	0.0143460
965.090	0.0144271
965.168	0.0144106
965.246	0.0143754
965.325	0.0144308
965.403	0.0144900
965.481	0.0145022
965.559	0.0145192
965.637	0.0144759
965.715	0.0144558
965.793	0.0144183
965.871	0.0145273
965.950	0.0145139
966.028	0.0144904
966.106	0.0144820
966.184	0.0145286
966.262	0.0145961
966.340	0.0145877
966.418	0.0145602
966.496	0.0145817
966.575	0.0145551
966.653	0.0145218
966.731	0.0145805
966.809	0.0144807
966.887	0.0144852
966.965	0.0144684
967.043	0.0146671
967.121	0.0144284
967.200	0.0144877
967.278	0.0145825
967.356	0.0145179
967.434	0.0143826
967.512	0.0145915
967.590	0.0145222
967.668	0.0144501
967.746	0.0144608
967.825	0.0144913
967.903	0.0144285
967.981	0.0144276
968.059	0.0144793
968.137	0.0143668
968.215	0.0144725
968.293	0.0144099
968.371	0.0144994
968.450	0.0144948
968.528	0.0143814
968.606	0.0144372
968.684	0.0144298
968.762	0.0145528
968.840	0.0145911
968.918	0.0145036
968.996	0.0144286
969.075	0.0145102
969.153	0.0145218
969.231	0.0145391
969.309	0.0144076
969.387	0.0145091
969.465	0.0145384
969.543	0.0144170
969.621	0.0143990
969.700	0.0143834
969.778	0.0145029
969.856	0.0144323
969.934	0.0144511
970.012	0.0144723
970.090	0.0144959
970.168	0.0143433
970.246	0.0143597
970.325	0.0144431
970.403	0.0145486
970.481	0.0143713
970.559	0.0145540
970.637	0.0145364
970.715	0.0144592
970.793	0.0145506
970.871	0.0146002
970.950	0.0144585
971.028	0.0144553
971.106	0.0145292
971.184	0.0144360
971.262	0.0145345
971.340	0.0146046
971.418	0.0145987
971.496	0.0144325
971.575	0.0144811
971.653	0.0145224
971.731	0.0145979
971.809	0.0145024
971.887	0.0146957
971.965	0.0145168
972.043	0.0144182
972.121	0.0145084
972.200	0.0145344
972.278	0.0145464
972.356	0.0143938
972.434	0.0145267
972.512	0.0145591
972.590	0.0144427
972.668	0.0144937
972.746	0.0144117
972.825	0.0145658
972.903	0.0143514
972.981	0.0144923
973.059	0.0143745
973.137	0.0143685
973.215	0.0144054
973.293	0.0143366
973.371	0.0144701
973.450	0.0144267
973.528	0.0144205
973.606	0.0144451
973.684	0.0145808
973.762	0.0145007
973.840	0.0144263
973.918	0.0143365
973.996	0.0143317
974.075	0.0143665
974.153	0.0143456
974.231	0.0144069
974.309	0.0144326
974.387	0.0143337
974.465	0.0143939
974.543	0.0143327
974.621	0.0144093
974.700	0.0143996
974.778	0.0143833
974.856	0.0143797
974.934	0.0145313
975.012	0.0145164
975.090	0.0144140
975.168	0.0143328
975.246	0.0144296
975.325	0.0144523
975.403	0.0142960
975.481	0.0143649
975.559	0.0145081
975.637	0.0144292
975.715	0.0144365
975.793	0.0145655
975.871	0.0145918
975.950	0.0144623
976.028	0.0145646
976.106	0.0145475
976.184	0.0145535
976.262	0.0144531
976.340	0.0145290
976.418	0.0145361
976.496	0.0144936
976.575	0.0146260
976.653	0.0144924
976.731	0.0145653
976.809	0.0144801
976.887	0.0145229
976.965	0.0144238
977.043	0.0145040
977.121	0.0145004
977.200	0.0144436
977.278	0.0143255
977.356	0.0145631
977.434	0.0143542
977.512	0.0143929
977.590	0.0144694
977.668	0.0144946
977.746	0.0143745
977.825	0.0143650
977.903	0.0144617
977.981	0.0145383
978.059	0.0145393
978.137	0.0144949
978.215	0.0143889
978.293	0.0145318
978.371	0.0144766
978.450	0.0145454
978.528	0.0144968
978.606	0.0145319
978.684	0.0145661
978.762	0.0146099
978.840	0.0145058
978.918	0.0144948
978.996	0.0146238
979.075	0.0146157
979.153	0.0144059
979.231	0.0143504
979.309	0.0144852
979.387	0.0145775
979.465	0.0145399
979.543	0.0144951
979.621	0.0143526
979.700	0.0143978
979.778	0.0144786
979.856	0.0144041
979.934	0.0145431
980.012	0.0144180
980.090	0.0144272
980.168	0.0143655
980.246	0.0144756
980.325	0.0143581
980.403	0.0144115
980.481	0.0143916
980.559	0.0143433
980.637	0.0144323
980.715	0.0143138
980.793	0.0142912
980.871	0.0144979
980.950	0.0144875
981.028	0.0144340
981.106	0.0143956
981.184	0.0145732
981.262	0.0145962
981.340	0.0144518
981.418	0.0145628
981.496	0.0145812
981.575	0.0145697
981.653	0.0144300
981.731	0.0144847
981.809	0.0145361
981.887	0.0145563
981.965	0.0144080
982.043	0.0144299
982.121	0.0144701
982.200	0.0144951
982.278	0.0144844
982.356	0.0145137
982.434	0.0144434
982.512	0.0143944
982.590	0.0144506
982.668	0.0144556
982.746	0.0144115
982.825	0.0145021
982.903	0.0145117
982.981	0.0144395
983.059	0.0144189
983.137	0.0145300
983.215	0.0144507
983.293	0.0144438
983.371	0.0144244
983.450	0.0144377
983.528	0.0144192
983.606	0.0145280
983.684	0.0144936
983.762	0.0143665
983.840	0.0143275
983.918	0.0144614
983.996	0.0144957
984.075	0.0144415
984.153	0.0143924
984.231	0.0145144
984.309	0.0144971
984.387	0.0144369
984.465	0.0145321
984.543	0.0144857
984.621	0.0144212
984.700	0.0144485
984.778	0.0145074
984.856	0.0144629
984.934	0.0144662
985.012	0.0145751
985.090	0.0145514
985.168	0.0144772
985.246	0.0144758
985.325	0.0144466
985.403	0.0146053
985.481	0.0144499
985.559	0.0146246
985.637	0.0145818
985.715	0.0146288
985.793	0.0144217
985.871	0.0145517
985.950	0.0145690
986.028	0.0145134
986.106	0.0144948
986.184	0.0144607
986.262	0.0144901
986.340	0.0147077
986.418	0.0145631
986.496	0.0144393
986.575	0.0144906
986.653	0.0145599
986.731	0.0145597
986.809	0.0145583
986.887	0.0143913
986.965	0.0145176
987.043	0.0145425
987.121	0.0145254
987.200	0.0146145
987.278	0.0145376
987.356	0.0144457
987.434	0.0144688
987.512	0.0145393
987.590	0.0144206
987.668	0.0145944
987.746	0.0144142
987.825	0.0146221
987.903	0.0145321
987.981	0.0144446
988.059	0.0143873
988.137	0.0145425
988.215	0.0146851
988.293	0.0145171
988.371	0.0144930
988.450	0.0145343
988.528	0.0144966
988.606	0.0144421
988.684	0.0144729
988.762	0.0145808
988.840	0.0146097
988.918	0.0144904
988.996	0.0144273
989.075	0.0145618
989.153	0.0145736
989.231	0.0144830
989.309	0.0144989
989.387	0.0144775
989.465	0.0144949
989.543	0.0144808
989.621	0.0143828
989.700	0.0144411
989.778	0.0144293
989.856	0.0145269
989.934	0.0143758
990.012	0.0143185
990.090	0.0143751
990.168	0.0144070
990.246	0.0144206
990.325	0.0144781
990.403	0.0144073
990.481	0.0143916
990.559	0.0143539
990.637	0.0143368
990.715	0.0143617
990.793	0.0144209
990.871	0.0143890
990.950	0.0144398
991.028	0.0144437
991.106	0.0144850
991.184	0.0142921
991.262	0.0143613
991.340	0.0143836
991.418	0.0143293
991.496	0.0144426
991.575	0.0143176
991.653	0.0143299
991.731	0.0143645
991.809	0.0145572
991.887	0.0144569
991.965	0.0145004
992.043	0.0145158
992.121	0.0143956
992.200	0.0144676
992.278	0.0144004
992.356	0.0144660
992.434	0.0145420
992.512	0.0145378
992.590	0.0145204
992.668	0.0144382
992.746	0.0143932
992.825	0.0144999
992.903	0.0145390
992.981	0.0145750
993.059	0.0144933
993.137	0.0145430
993.215	0.0144984
993.293	0.0144210
993.371	0.0144336
993.450	0.0145323
993.528	0.0144853
993.606	0.0144107
993.684	0.0144941
993.762	0.0144625
993.840	0.0145408
993.918	0.0144664
993.996	0.0143066
994.075	0.0142929
994.153	0.0144889
994.231	0.0145547
994.309	0.0143143
994.387	0.0144131
994.465	0.0144032
994.543	0.0144288
994.621	0.0145287
994.700	0.0145160
994.778	0.0143230
994.856	0.0144263
994.934	0.0145119
995.012	0.0144401
995.090	0.0145897
995.168	0.0144844
995.246	0.0143286
995.325	0.0143564
995.403	0.0144456
995.481	0.0144522
995.559	0.0144554
995.637	0.0144190
995.715	0.0145543
995.793	0.0144111
995.871	0.0144082
995.950	0.0144497
996.028	0.0143038
996.106	0.0144812
996.184	0.0144532
996.262	0.0143410
996.340	0.0144040
996.418	0.0144579
996.496	0.0143736
996.575	0.0144067
996.653	0.0143230
996.731	0.0144164
996.809	0.0144649
996.887	0.0144727
996.965	0.0145067
997.043	0.0144364
997.121	0.0145101
997.200	0.0144032
997.278	0.0143113
997.356	0.0142809
997.434	0.0145326
997.512	0.0141705
997.590	0.0143005
997.668	0.0141921
997.746	0.0144141
997.825	0.0143707
997.903	0.0144550
997.981	0.0144235
998.059	0.0143268
998.137	0.0144077
998.215	0.0143658
998.293	0.0144724
998.371	0.0143478
998.450	0.0143892
998.528	0.0144099
998.606	0.0142392
998.684	0.0142314
998.762	0.0144524
998.840	0.0144882
998.918	0.0145016
