05/04/2022	21:41:29	Ver.	4.1	UNKNOWN
Optical Delay	678.996401	Delta X		0.078125	Sweeps	1	Scan Rate	0/0
Coordinates	Axis 1	NaN	Axis 2	NaN	Axis 3	NaN	Axis 4	NaN	Axis 5	NaN	Axis 6	0.000000
TX Power	0.000000	RX Power	0.000000

678.996	0.0145008
679.075	0.0144877
679.153	0.0145645
679.231	0.0148082
679.309	0.0148917
679.387	0.0149336
679.465	0.0148718
679.543	0.0148165
679.621	0.0145028
679.700	0.0145023
679.778	0.0143934
679.856	0.0143134
679.934	0.0142335
680.012	0.0142339
680.090	0.0142799
680.168	0.0143197
680.246	0.0142957
680.325	0.0143793
680.403	0.0145539
680.481	0.0145995
680.559	0.0146516
680.637	0.0146922
680.715	0.0147545
680.793	0.0147054
680.871	0.0147449
680.950	0.0149392
681.028	0.0149143
681.106	0.0147786
681.184	0.0149107
681.262	0.0147906
681.340	0.0147842
681.418	0.0146968
681.496	0.0146487
681.575	0.0144820
681.653	0.0144508
681.731	0.0144559
681.809	0.0141925
681.887	0.0142828
681.965	0.0142579
682.043	0.0142072
682.121	0.0143743
682.200	0.0145496
682.278	0.0146404
682.356	0.0147302
682.434	0.0149368
682.512	0.0149250
682.590	0.0151540
682.668	0.0153059
682.746	0.0153195
682.825	0.0153239
682.903	0.0152105
682.981	0.0150769
683.059	0.0148585
683.137	0.0146057
683.215	0.0142809
683.293	0.0139642
683.371	0.0136831
683.450	0.0134155
683.528	0.0132890
683.606	0.0131713
683.684	0.0131794
683.762	0.0132686
683.840	0.0134031
683.918	0.0135802
683.996	0.0139621
684.075	0.0143825
684.153	0.0146526
684.231	0.0150345
684.309	0.0154621
684.387	0.0155442
684.465	0.0156339
684.543	0.0157179
684.621	0.0158213
684.700	0.0155279
684.778	0.0153955
684.856	0.0151305
684.934	0.0149348
685.012	0.0146949
685.090	0.0144813
685.168	0.0142746
685.246	0.0142695
685.325	0.0141460
685.403	0.0142120
685.481	0.0143060
685.559	0.0143744
685.637	0.0145112
685.715	0.0145792
685.793	0.0146163
685.871	0.0145161
685.950	0.0145739
686.028	0.0145908
686.106	0.0144798
686.184	0.0142536
686.262	0.0140955
686.340	0.0139279
686.418	0.0137577
686.496	0.0135004
686.575	0.0133939
686.653	0.0134323
686.731	0.0135818
686.809	0.0135835
686.887	0.0138751
686.965	0.0142023
687.043	0.0144265
687.121	0.0148502
687.200	0.0151118
687.278	0.0155855
687.356	0.0156966
687.434	0.0157658
687.512	0.0159983
687.590	0.0159839
687.668	0.0157597
687.746	0.0155820
687.825	0.0153790
687.903	0.0150169
687.981	0.0146322
688.059	0.0144488
688.137	0.0142194
688.215	0.0139235
688.293	0.0137516
688.371	0.0137003
688.450	0.0135215
688.528	0.0137043
688.606	0.0136758
688.684	0.0137106
688.762	0.0136789
688.840	0.0139837
688.918	0.0140559
688.996	0.0142171
689.075	0.0144027
689.153	0.0144273
689.231	0.0143166
689.309	0.0142867
689.387	0.0141738
689.465	0.0141545
689.543	0.0143307
689.621	0.0142224
689.700	0.0144206
689.778	0.0141506
689.856	0.0142549
689.934	0.0141828
690.012	0.0143700
690.090	0.0146050
690.168	0.0146125
690.246	0.0146603
690.325	0.0146675
690.403	0.0148944
690.481	0.0149358
690.559	0.0150836
690.637	0.0151579
690.715	0.0151588
690.793	0.0151312
690.871	0.0149521
690.950	0.0149291
691.028	0.0149407
691.106	0.0146188
691.184	0.0145410
691.262	0.0144828
691.340	0.0143412
691.418	0.0142036
691.496	0.0141822
691.575	0.0142995
691.653	0.0142388
691.731	0.0142245
691.809	0.0143805
691.887	0.0143567
691.965	0.0145277
692.043	0.0144682
692.121	0.0142847
692.200	0.0145051
692.278	0.0143652
692.356	0.0142357
692.434	0.0142311
692.512	0.0143185
692.590	0.0142165
692.668	0.0143380
692.746	0.0142684
692.825	0.0143769
692.903	0.0143217
692.981	0.0142853
693.059	0.0143100
693.137	0.0143728
693.215	0.0144611
693.293	0.0144326
693.371	0.0144189
693.450	0.0143851
693.528	0.0144759
693.606	0.0144511
693.684	0.0143147
693.762	0.0143895
693.840	0.0143696
693.918	0.0144324
693.996	0.0144373
694.075	0.0142602
694.153	0.0145695
694.231	0.0144388
694.309	0.0147139
694.387	0.0147554
694.465	0.0147972
694.543	0.0148356
694.621	0.0150953
694.700	0.0151648
694.778	0.0150490
694.856	0.0150781
694.934	0.0148956
695.012	0.0147260
695.090	0.0145890
695.168	0.0143510
695.246	0.0142873
695.325	0.0142374
695.403	0.0141048
695.481	0.0138393
695.559	0.0139906
695.637	0.0139876
695.715	0.0140890
695.793	0.0141485
695.871	0.0142842
695.950	0.0144732
696.028	0.0146423
696.106	0.0146246
696.184	0.0147969
696.262	0.0149178
696.340	0.0148495
696.418	0.0148363
696.496	0.0147384
696.575	0.0146290
696.653	0.0146569
696.731	0.0145112
696.809	0.0144703
696.887	0.0145229
696.965	0.0145052
697.043	0.0144508
697.121	0.0144197
697.200	0.0145005
697.278	0.0146122
697.356	0.0146023
697.434	0.0146790
697.512	0.0146933
697.590	0.0146830
697.668	0.0145889
697.746	0.0145142
697.825	0.0146185
697.903	0.0145355
697.981	0.0144466
698.059	0.0145477
698.137	0.0144247
698.215	0.0144714
698.293	0.0143708
698.371	0.0142708
698.450	0.0144340
698.528	0.0146745
698.606	0.0145981
698.684	0.0146521
698.762	0.0149429
698.840	0.0149595
698.918	0.0149311
698.996	0.0149850
699.075	0.0150822
699.153	0.0150645
699.231	0.0150854
699.309	0.0149258
699.387	0.0149398
699.465	0.0146389
699.543	0.0146204
699.621	0.0144769
699.700	0.0143506
699.778	0.0141749
699.856	0.0140282
699.934	0.0139557
700.012	0.0138874
700.090	0.0138921
700.168	0.0138530
700.246	0.0137717
700.325	0.0135662
700.403	0.0136593
700.481	0.0138102
700.559	0.0139919
700.637	0.0139442
700.715	0.0141894
700.793	0.0142937
700.871	0.0143511
700.950	0.0144285
701.028	0.0144933
701.106	0.0147413
701.184	0.0147085
701.262	0.0147576
701.340	0.0149658
701.418	0.0150105
701.496	0.0151068
701.575	0.0152534
701.653	0.0151204
701.731	0.0152306
701.809	0.0153937
701.887	0.0152198
701.965	0.0152035
702.043	0.0152932
702.121	0.0152473
702.200	0.0151850
702.278	0.0151035
702.356	0.0149274
702.434	0.0149377
702.512	0.0147970
702.590	0.0147516
702.668	0.0145776
702.746	0.0144592
702.825	0.0141411
702.903	0.0140715
702.981	0.0139350
703.059	0.0138596
703.137	0.0137150
703.215	0.0136781
703.293	0.0136606
703.371	0.0138248
703.450	0.0139056
703.528	0.0140872
703.606	0.0142044
703.684	0.0145452
703.762	0.0147156
703.840	0.0148170
703.918	0.0150723
703.996	0.0150668
704.075	0.0151321
704.153	0.0152991
704.231	0.0149928
704.309	0.0150707
704.387	0.0150296
704.465	0.0148524
704.543	0.0146923
704.621	0.0146227
704.700	0.0145939
704.778	0.0145245
704.856	0.0146239
704.934	0.0145947
705.012	0.0146320
705.090	0.0146741
705.168	0.0144286
705.246	0.0145245
705.325	0.0144975
705.403	0.0145140
705.481	0.0145216
705.559	0.0144241
705.637	0.0142954
705.715	0.0143722
705.793	0.0144368
705.871	0.0144415
705.950	0.0146092
706.028	0.0146577
706.106	0.0147040
706.184	0.0148163
706.262	0.0148742
706.340	0.0149797
706.418	0.0149151
706.496	0.0148411
706.575	0.0149738
706.653	0.0149944
706.731	0.0150317
706.809	0.0149123
706.887	0.0148979
706.965	0.0147958
707.043	0.0147272
707.121	0.0145560
707.200	0.0143388
707.278	0.0140981
707.356	0.0141211
707.434	0.0139776
707.512	0.0138847
707.590	0.0137698
707.668	0.0136755
707.746	0.0137022
707.825	0.0137988
707.903	0.0140293
707.981	0.0140575
708.059	0.0140932
708.137	0.0142101
708.215	0.0142104
708.293	0.0144156
708.371	0.0146523
708.450	0.0147406
708.528	0.0149358
708.606	0.0148472
708.684	0.0151531
708.762	0.0150062
708.840	0.0151573
708.918	0.0152614
708.996	0.0152354
709.075	0.0151014
709.153	0.0151303
709.231	0.0151260
709.309	0.0147879
709.387	0.0148378
709.465	0.0148797
709.543	0.0149616
709.621	0.0147583
709.700	0.0146323
709.778	0.0144810
709.856	0.0144359
709.934	0.0142529
710.012	0.0141540
710.090	0.0141701
710.168	0.0141464
710.246	0.0139756
710.325	0.0138760
710.403	0.0140123
710.481	0.0141155
710.559	0.0139087
710.637	0.0139774
710.715	0.0141338
710.793	0.0141557
710.871	0.0143461
710.950	0.0144691
711.028	0.0144676
711.106	0.0146198
711.184	0.0145742
711.262	0.0146865
711.340	0.0149024
711.418	0.0147538
711.496	0.0148930
711.575	0.0148900
711.653	0.0148066
711.731	0.0146719
711.809	0.0147372
711.887	0.0147373
711.965	0.0147658
712.043	0.0146233
712.121	0.0145515
712.200	0.0147106
712.278	0.0145847
712.356	0.0144862
712.434	0.0144810
712.512	0.0145840
712.590	0.0144846
712.668	0.0145512
712.746	0.0142672
712.825	0.0142905
712.903	0.0143032
712.981	0.0143145
713.059	0.0143425
713.137	0.0144057
713.215	0.0145044
713.293	0.0145053
713.371	0.0146244
713.450	0.0147710
713.528	0.0146356
713.606	0.0147125
713.684	0.0146725
713.762	0.0145916
713.840	0.0146141
713.918	0.0145681
713.996	0.0145841
714.075	0.0146339
714.153	0.0144615
714.231	0.0144308
714.309	0.0143368
714.387	0.0143783
714.465	0.0143463
714.543	0.0142725
714.621	0.0144006
714.700	0.0142056
714.778	0.0142007
714.856	0.0144086
714.934	0.0143657
715.012	0.0144552
715.090	0.0144658
715.168	0.0145216
715.246	0.0145718
715.325	0.0146502
715.403	0.0145564
715.481	0.0145614
715.559	0.0145651
715.637	0.0145663
715.715	0.0147093
715.793	0.0146320
715.871	0.0146693
715.950	0.0145988
716.028	0.0145232
716.106	0.0146247
716.184	0.0145483
716.262	0.0143507
716.340	0.0144788
716.418	0.0145826
716.496	0.0144346
716.575	0.0144167
716.653	0.0142816
716.731	0.0145205
716.809	0.0144040
716.887	0.0143908
716.965	0.0143204
717.043	0.0142843
717.121	0.0142028
717.200	0.0141752
717.278	0.0140249
717.356	0.0141381
717.434	0.0142177
717.512	0.0142197
717.590	0.0143633
717.668	0.0144018
717.746	0.0143525
717.825	0.0143587
717.903	0.0145384
717.981	0.0146092
718.059	0.0145188
718.137	0.0144920
718.215	0.0147122
718.293	0.0146926
718.371	0.0145885
718.450	0.0145765
718.528	0.0145694
718.606	0.0145232
718.684	0.0144593
718.762	0.0143683
718.840	0.0144244
718.918	0.0142520
718.996	0.0144068
719.075	0.0144244
719.153	0.0143056
719.231	0.0142870
719.309	0.0143128
719.387	0.0144474
719.465	0.0144559
719.543	0.0142974
719.621	0.0144243
719.700	0.0145275
719.778	0.0145912
719.856	0.0145559
719.934	0.0146360
720.012	0.0146700
720.090	0.0147161
720.168	0.0146085
720.246	0.0145863
720.325	0.0146024
720.403	0.0145541
720.481	0.0147446
720.559	0.0147365
720.637	0.0145199
720.715	0.0144874
720.793	0.0143903
720.871	0.0144819
720.950	0.0145010
721.028	0.0143600
721.106	0.0144306
721.184	0.0142935
721.262	0.0141878
721.340	0.0142201
721.418	0.0143214
721.496	0.0141999
721.575	0.0142196
721.653	0.0142358
721.731	0.0142413
721.809	0.0141939
721.887	0.0143595
721.965	0.0144051
722.043	0.0143674
722.121	0.0143801
722.200	0.0143723
722.278	0.0146133
722.356	0.0147313
722.434	0.0147397
722.512	0.0147647
722.590	0.0149290
722.668	0.0149075
722.746	0.0149226
722.825	0.0148460
722.903	0.0149970
722.981	0.0150488
723.059	0.0147979
723.137	0.0149352
723.215	0.0149552
723.293	0.0148777
723.371	0.0145205
723.450	0.0145766
723.528	0.0144508
723.606	0.0144598
723.684	0.0144405
723.762	0.0142339
723.840	0.0143736
723.918	0.0141182
723.996	0.0141892
724.075	0.0141592
724.153	0.0141187
724.231	0.0140310
724.309	0.0140798
724.387	0.0141820
724.465	0.0142436
724.543	0.0140977
724.621	0.0141785
724.700	0.0143598
724.778	0.0144630
724.856	0.0145425
724.934	0.0144872
725.012	0.0145055
725.090	0.0145090
725.168	0.0145537
725.246	0.0146519
725.325	0.0145041
725.403	0.0146471
725.481	0.0146453
725.559	0.0146101
725.637	0.0145251
725.715	0.0145712
725.793	0.0146579
725.871	0.0147195
725.950	0.0146492
726.028	0.0146512
726.106	0.0145815
726.184	0.0144624
726.262	0.0144752
726.340	0.0144614
726.418	0.0145056
726.496	0.0144990
726.575	0.0143940
726.653	0.0143819
726.731	0.0143426
726.809	0.0144427
726.887	0.0144006
726.965	0.0144008
727.043	0.0144702
727.121	0.0145071
727.200	0.0145159
727.278	0.0144416
727.356	0.0145125
727.434	0.0146114
727.512	0.0147328
727.590	0.0146434
727.668	0.0145701
727.746	0.0146770
727.825	0.0146802
727.903	0.0146486
727.981	0.0145488
728.059	0.0145979
728.137	0.0145924
728.215	0.0143724
728.293	0.0145316
728.371	0.0144355
728.450	0.0143661
728.528	0.0145208
728.606	0.0144418
728.684	0.0143290
728.762	0.0144738
728.840	0.0144551
728.918	0.0143603
728.996	0.0143656
729.075	0.0144472
729.153	0.0142489
729.231	0.0144722
729.309	0.0145591
729.387	0.0145137
729.465	0.0143612
729.543	0.0144559
729.621	0.0145786
729.700	0.0145543
729.778	0.0146843
729.856	0.0146304
729.934	0.0146585
730.012	0.0146393
730.090	0.0146509
730.168	0.0147670
730.246	0.0147269
730.325	0.0147986
730.403	0.0149070
730.481	0.0147607
730.559	0.0148096
730.637	0.0148272
730.715	0.0147202
730.793	0.0147526
730.871	0.0145247
730.950	0.0145230
731.028	0.0143207
731.106	0.0144343
731.184	0.0143429
731.262	0.0145069
731.340	0.0144542
731.418	0.0143954
731.496	0.0143722
731.575	0.0144628
731.653	0.0142963
731.731	0.0143533
731.809	0.0143940
731.887	0.0143679
731.965	0.0144547
732.043	0.0143833
732.121	0.0144820
732.200	0.0144921
732.278	0.0144547
732.356	0.0144989
732.434	0.0145674
732.512	0.0145047
732.590	0.0146375
732.668	0.0145512
732.746	0.0146303
732.825	0.0144543
732.903	0.0146651
732.981	0.0146929
733.059	0.0146400
733.137	0.0146227
733.215	0.0147530
733.293	0.0146872
733.371	0.0146507
733.450	0.0148164
733.528	0.0147342
733.606	0.0146291
733.684	0.0146397
733.762	0.0145335
733.840	0.0146519
733.918	0.0146085
733.996	0.0145058
734.075	0.0144592
734.153	0.0143900
734.231	0.0144193
734.309	0.0144896
734.387	0.0143243
734.465	0.0144113
734.543	0.0145038
734.621	0.0144797
734.700	0.0143639
734.778	0.0144565
734.856	0.0144765
734.934	0.0144810
735.012	0.0145909
735.090	0.0146828
735.168	0.0146526
735.246	0.0146391
735.325	0.0146328
735.403	0.0145785
735.481	0.0147157
735.559	0.0146870
735.637	0.0146709
735.715	0.0146764
735.793	0.0146026
735.871	0.0145808
735.950	0.0146048
736.028	0.0144955
736.106	0.0143782
736.184	0.0145554
736.262	0.0143777
736.340	0.0142591
736.418	0.0144588
736.496	0.0144312
736.575	0.0144324
736.653	0.0144363
736.731	0.0144960
736.809	0.0145412
736.887	0.0144091
736.965	0.0144032
737.043	0.0145695
737.121	0.0146676
737.200	0.0145083
737.278	0.0146317
737.356	0.0145456
737.434	0.0145683
737.512	0.0146364
737.590	0.0146023
737.668	0.0146659
737.746	0.0146008
737.825	0.0147908
737.903	0.0147350
737.981	0.0147728
738.059	0.0147477
738.137	0.0146684
738.215	0.0145657
738.293	0.0145674
738.371	0.0144867
738.450	0.0144673
738.528	0.0144259
738.606	0.0145908
738.684	0.0144475
738.762	0.0144023
738.840	0.0143895
738.918	0.0144884
738.996	0.0142834
739.075	0.0142757
739.153	0.0143005
739.231	0.0144303
739.309	0.0143900
739.387	0.0144402
739.465	0.0143246
739.543	0.0144658
739.621	0.0144482
739.700	0.0144015
739.778	0.0145152
739.856	0.0144498
739.934	0.0145825
740.012	0.0144190
740.090	0.0144626
740.168	0.0145844
740.246	0.0145222
740.325	0.0146482
740.403	0.0146564
740.481	0.0145180
740.559	0.0145158
740.637	0.0145986
740.715	0.0146500
740.793	0.0145551
740.871	0.0145475
740.950	0.0146559
741.028	0.0147456
741.106	0.0146174
741.184	0.0144702
741.262	0.0144468
741.340	0.0144908
741.418	0.0143988
741.496	0.0144912
741.575	0.0143479
741.653	0.0143742
741.731	0.0143774
741.809	0.0141822
741.887	0.0141843
741.965	0.0142638
742.043	0.0142768
742.121	0.0143408
742.200	0.0143185
742.278	0.0143084
742.356	0.0144613
742.434	0.0142046
742.512	0.0145378
742.590	0.0142355
742.668	0.0143655
742.746	0.0143867
742.825	0.0143189
742.903	0.0143964
742.981	0.0144164
743.059	0.0144708
743.137	0.0143323
743.215	0.0143798
743.293	0.0144650
743.371	0.0145219
743.450	0.0145239
743.528	0.0145392
743.606	0.0144836
743.684	0.0144938
743.762	0.0143977
743.840	0.0144714
743.918	0.0145153
743.996	0.0145261
744.075	0.0144322
744.153	0.0143167
744.231	0.0144243
744.309	0.0144561
744.387	0.0144521
744.465	0.0145008
744.543	0.0143050
744.621	0.0143708
744.700	0.0142738
744.778	0.0143064
744.856	0.0143253
744.934	0.0144153
745.012	0.0144804
745.090	0.0144398
745.168	0.0143664
745.246	0.0142406
745.325	0.0143839
745.403	0.0143890
745.481	0.0143889
745.559	0.0144472
745.637	0.0143948
745.715	0.0145074
745.793	0.0144703
745.871	0.0144316
745.950	0.0144866
746.028	0.0145444
746.106	0.0145493
746.184	0.0144674
746.262	0.0145210
746.340	0.0145614
746.418	0.0145703
746.496	0.0144227
746.575	0.0144630
746.653	0.0144910
746.731	0.0144698
746.809	0.0144411
746.887	0.0144934
746.965	0.0143768
747.043	0.0144902
747.121	0.0145275
747.200	0.0143237
747.278	0.0142686
747.356	0.0144183
747.434	0.0144357
747.512	0.0145958
747.590	0.0145997
747.668	0.0145094
747.746	0.0145439
747.825	0.0145026
747.903	0.0145981
747.981	0.0145793
748.059	0.0146147
748.137	0.0146763
748.215	0.0147108
748.293	0.0147213
748.371	0.0146246
748.450	0.0146572
748.528	0.0146408
748.606	0.0145817
748.684	0.0146675
748.762	0.0147432
748.840	0.0145753
748.918	0.0144869
748.996	0.0144500
749.075	0.0144385
749.153	0.0145794
749.231	0.0145127
749.309	0.0144043
749.387	0.0143108
749.465	0.0143475
749.543	0.0143121
749.621	0.0143618
749.700	0.0144310
749.778	0.0144613
749.856	0.0145346
749.934	0.0144144
750.012	0.0144450
750.090	0.0143778
750.168	0.0144931
750.246	0.0145099
750.325	0.0145377
750.403	0.0144730
750.481	0.0146108
750.559	0.0145895
750.637	0.0146723
750.715	0.0146899
750.793	0.0147619
750.871	0.0146935
750.950	0.0145040
751.028	0.0146606
751.106	0.0148361
751.184	0.0146348
751.262	0.0147568
751.340	0.0145355
751.418	0.0145718
751.496	0.0147302
751.575	0.0146382
751.653	0.0145971
751.731	0.0146241
751.809	0.0145338
751.887	0.0143755
751.965	0.0145215
752.043	0.0145219
752.121	0.0143296
752.200	0.0143835
752.278	0.0143672
752.356	0.0144797
752.434	0.0144297
752.512	0.0145788
752.590	0.0146933
752.668	0.0144357
752.746	0.0145476
752.825	0.0144753
752.903	0.0145345
752.981	0.0145334
753.059	0.0146372
753.137	0.0145963
753.215	0.0145390
753.293	0.0143915
753.371	0.0145795
753.450	0.0146954
753.528	0.0145142
753.606	0.0145159
753.684	0.0144939
753.762	0.0146752
753.840	0.0144876
753.918	0.0143967
753.996	0.0145709
754.075	0.0145193
754.153	0.0143978
754.231	0.0145124
754.309	0.0144556
754.387	0.0144824
754.465	0.0143918
754.543	0.0145446
754.621	0.0146192
754.700	0.0144243
754.778	0.0142876
754.856	0.0142966
754.934	0.0144519
755.012	0.0145083
755.090	0.0145776
755.168	0.0143723
755.246	0.0143997
755.325	0.0145163
755.403	0.0144638
755.481	0.0145923
755.559	0.0146434
755.637	0.0145250
755.715	0.0146743
755.793	0.0145607
755.871	0.0145200
755.950	0.0145901
756.028	0.0146493
756.106	0.0146320
756.184	0.0145490
756.262	0.0145400
756.340	0.0144743
756.418	0.0145590
756.496	0.0146079
756.575	0.0145507
756.653	0.0145103
756.731	0.0144231
756.809	0.0144990
756.887	0.0145627
756.965	0.0144090
757.043	0.0144393
757.121	0.0145206
757.200	0.0145904
757.278	0.0143903
757.356	0.0144859
757.434	0.0144496
757.512	0.0144913
757.590	0.0143267
757.668	0.0144973
757.746	0.0145418
757.825	0.0144153
757.903	0.0145798
757.981	0.0145659
758.059	0.0144726
758.137	0.0144518
758.215	0.0145953
758.293	0.0145740
758.371	0.0144882
758.450	0.0146436
758.528	0.0146935
758.606	0.0146130
758.684	0.0145255
758.762	0.0146116
758.840	0.0145341
758.918	0.0145874
758.996	0.0145178
759.075	0.0146336
759.153	0.0145335
759.231	0.0145760
759.309	0.0145068
759.387	0.0146111
759.465	0.0144281
759.543	0.0145048
759.621	0.0145064
759.700	0.0144268
759.778	0.0144131
759.856	0.0144434
759.934	0.0145264
760.012	0.0145201
760.090	0.0144144
760.168	0.0143892
760.246	0.0143494
760.325	0.0145322
760.403	0.0145313
760.481	0.0145417
760.559	0.0146061
760.637	0.0146004
760.715	0.0144997
760.793	0.0144107
760.871	0.0145739
760.950	0.0147245
761.028	0.0145879
761.106	0.0145819
761.184	0.0146259
761.262	0.0145821
761.340	0.0147307
761.418	0.0145998
761.496	0.0146162
761.575	0.0146331
761.653	0.0145774
761.731	0.0145956
761.809	0.0145551
761.887	0.0146339
761.965	0.0144775
762.043	0.0146925
762.121	0.0146549
762.200	0.0145123
762.278	0.0145641
762.356	0.0145010
762.434	0.0143963
762.512	0.0144464
762.590	0.0146260
762.668	0.0143547
762.746	0.0144746
762.825	0.0144662
762.903	0.0145022
762.981	0.0144417
763.059	0.0144562
763.137	0.0145451
763.215	0.0145078
763.293	0.0145442
763.371	0.0145657
763.450	0.0145645
763.528	0.0145799
763.606	0.0144476
763.684	0.0145113
763.762	0.0147407
763.840	0.0144160
763.918	0.0145116
763.996	0.0147601
764.075	0.0145494
764.153	0.0144837
764.231	0.0144781
764.309	0.0145555
764.387	0.0145066
764.465	0.0144257
764.543	0.0144475
764.621	0.0142462
764.700	0.0143614
764.778	0.0144489
764.856	0.0143548
764.934	0.0143802
765.012	0.0145602
765.090	0.0143729
765.168	0.0143459
765.246	0.0143423
765.325	0.0144439
765.403	0.0144143
765.481	0.0143703
765.559	0.0144841
765.637	0.0143904
765.715	0.0144892
765.793	0.0144429
765.871	0.0143932
765.950	0.0145026
766.028	0.0146125
766.106	0.0144049
766.184	0.0144193
766.262	0.0144286
766.340	0.0144334
766.418	0.0146558
766.496	0.0147102
766.575	0.0144213
766.653	0.0146279
766.731	0.0146474
766.809	0.0144079
766.887	0.0144683
766.965	0.0145446
767.043	0.0144981
767.121	0.0143918
767.200	0.0144343
767.278	0.0145270
767.356	0.0145689
767.434	0.0145496
767.512	0.0144736
767.590	0.0144132
767.668	0.0144935
767.746	0.0143768
767.825	0.0143758
767.903	0.0145174
767.981	0.0144823
768.059	0.0144049
768.137	0.0144366
768.215	0.0145324
768.293	0.0145248
768.371	0.0145332
768.450	0.0145686
768.528	0.0144323
768.606	0.0145464
768.684	0.0146002
768.762	0.0144841
768.840	0.0146024
768.918	0.0147400
768.996	0.0144264
769.075	0.0143859
769.153	0.0146975
769.231	0.0146770
769.309	0.0146402
769.387	0.0145558
769.465	0.0146980
769.543	0.0144870
769.621	0.0145740
769.700	0.0145843
769.778	0.0145418
769.856	0.0144659
769.934	0.0146105
770.012	0.0145588
770.090	0.0144691
770.168	0.0145641
770.246	0.0146028
770.325	0.0144850
770.403	0.0144903
770.481	0.0145510
770.559	0.0145658
770.637	0.0145171
770.715	0.0145377
770.793	0.0145452
770.871	0.0146384
770.950	0.0145915
771.028	0.0145593
771.106	0.0146265
771.184	0.0145361
771.262	0.0146558
771.340	0.0145374
771.418	0.0146127
771.496	0.0146519
771.575	0.0145884
771.653	0.0144015
771.731	0.0145371
771.809	0.0144439
771.887	0.0145001
771.965	0.0145065
772.043	0.0145226
772.121	0.0145290
772.200	0.0145564
772.278	0.0144743
772.356	0.0146572
772.434	0.0145392
772.512	0.0146282
772.590	0.0146481
772.668	0.0147061
772.746	0.0146199
772.825	0.0145889
772.903	0.0146044
772.981	0.0145546
773.059	0.0145901
773.137	0.0145693
773.215	0.0145634
773.293	0.0145234
773.371	0.0146787
773.450	0.0144976
773.528	0.0145273
773.606	0.0147249
773.684	0.0146062
773.762	0.0145128
773.840	0.0146557
773.918	0.0145541
773.996	0.0145414
774.075	0.0146429
774.153	0.0145540
774.231	0.0146676
774.309	0.0145651
774.387	0.0146478
774.465	0.0145259
774.543	0.0145376
774.621	0.0146727
774.700	0.0144918
774.778	0.0144720
774.856	0.0145191
774.934	0.0146088
775.012	0.0145380
775.090	0.0145539
775.168	0.0145958
775.246	0.0145772
775.325	0.0144951
775.403	0.0144091
775.481	0.0145908
775.559	0.0145023
775.637	0.0145492
775.715	0.0142795
775.793	0.0144928
775.871	0.0144569
775.950	0.0144625
776.028	0.0144722
776.106	0.0145425
776.184	0.0144212
776.262	0.0143623
776.340	0.0145383
776.418	0.0145523
776.496	0.0143382
776.575	0.0145627
776.653	0.0145097
776.731	0.0145723
776.809	0.0144654
776.887	0.0144656
776.965	0.0145006
777.043	0.0146080
777.121	0.0144959
777.200	0.0144762
777.278	0.0145197
777.356	0.0145467
777.434	0.0146182
777.512	0.0144521
777.590	0.0145356
777.668	0.0144621
777.746	0.0144427
777.825	0.0145619
777.903	0.0144220
777.981	0.0143778
778.059	0.0143642
778.137	0.0145880
778.215	0.0144813
778.293	0.0145060
778.371	0.0145285
778.450	0.0145436
778.528	0.0145390
778.606	0.0143960
778.684	0.0145265
778.762	0.0144846
778.840	0.0145242
778.918	0.0144391
778.996	0.0145171
779.075	0.0145432
779.153	0.0143148
779.231	0.0144518
779.309	0.0145302
779.387	0.0144769
779.465	0.0144231
779.543	0.0144040
779.621	0.0144484
779.700	0.0144273
779.778	0.0145338
779.856	0.0145613
779.934	0.0143810
780.012	0.0144527
780.090	0.0145419
780.168	0.0144711
780.246	0.0145848
780.325	0.0145325
780.403	0.0145295
780.481	0.0143861
780.559	0.0146186
780.637	0.0145642
780.715	0.0145940
780.793	0.0145265
780.871	0.0145078
780.950	0.0147281
781.028	0.0145972
781.106	0.0145862
781.184	0.0145614
781.262	0.0145000
781.340	0.0144460
781.418	0.0144983
781.496	0.0145473
781.575	0.0146314
781.653	0.0144717
781.731	0.0145249
781.809	0.0144986
781.887	0.0145450
781.965	0.0146265
782.043	0.0145759
782.121	0.0144344
782.200	0.0145564
782.278	0.0145323
782.356	0.0145084
782.434	0.0144865
782.512	0.0145898
782.590	0.0144425
782.668	0.0145712
782.746	0.0145004
782.825	0.0143462
782.903	0.0145197
782.981	0.0145261
783.059	0.0144968
783.137	0.0144756
783.215	0.0145286
783.293	0.0145817
783.371	0.0145938
783.450	0.0144951
783.528	0.0145384
783.606	0.0144981
783.684	0.0144590
783.762	0.0145463
783.840	0.0146041
783.918	0.0145508
783.996	0.0145889
784.075	0.0145112
784.153	0.0144986
784.231	0.0144878
784.309	0.0143927
784.387	0.0144530
784.465	0.0146222
784.543	0.0145234
784.621	0.0143451
784.700	0.0142251
784.778	0.0144049
784.856	0.0143092
784.934	0.0144714
785.012	0.0145108
785.090	0.0144530
785.168	0.0143707
785.246	0.0143386
785.325	0.0144185
785.403	0.0144436
785.481	0.0145600
785.559	0.0143887
785.637	0.0144275
785.715	0.0145010
785.793	0.0144573
785.871	0.0146969
785.950	0.0144374
786.028	0.0145789
786.106	0.0144469
786.184	0.0144873
786.262	0.0143996
786.340	0.0146012
786.418	0.0144461
786.496	0.0144212
786.575	0.0144728
786.653	0.0146066
786.731	0.0145432
786.809	0.0145435
786.887	0.0145042
786.965	0.0144509
787.043	0.0145329
787.121	0.0144197
787.200	0.0143586
787.278	0.0144105
787.356	0.0144443
787.434	0.0143790
787.512	0.0145070
787.590	0.0144984
787.668	0.0144620
787.746	0.0142744
787.825	0.0144535
787.903	0.0143144
787.981	0.0143347
788.059	0.0143954
788.137	0.0143409
788.215	0.0143501
788.293	0.0143937
788.371	0.0144048
788.450	0.0144256
788.528	0.0143648
788.606	0.0142882
788.684	0.0143437
788.762	0.0144288
788.840	0.0143457
788.918	0.0143910
788.996	0.0142822
789.075	0.0144741
789.153	0.0144474
789.231	0.0144245
789.309	0.0145625
789.387	0.0145014
789.465	0.0144671
789.543	0.0143791
789.621	0.0143776
789.700	0.0143375
789.778	0.0145309
789.856	0.0144233
789.934	0.0144447
790.012	0.0143682
790.090	0.0143659
790.168	0.0144302
790.246	0.0144908
790.325	0.0145573
790.403	0.0145786
790.481	0.0145685
790.559	0.0145099
790.637	0.0145612
790.715	0.0144139
790.793	0.0144613
790.871	0.0145939
790.950	0.0145406
791.028	0.0145578
791.106	0.0145710
791.184	0.0144009
791.262	0.0144836
791.340	0.0145357
791.418	0.0144386
791.496	0.0145284
791.575	0.0145167
791.653	0.0146284
791.731	0.0145602
791.809	0.0143995
791.887	0.0144627
791.965	0.0144825
792.043	0.0143894
792.121	0.0144022
792.200	0.0144961
792.278	0.0144572
792.356	0.0145376
792.434	0.0147003
792.512	0.0146162
792.590	0.0146114
792.668	0.0146326
792.746	0.0146014
792.825	0.0147261
792.903	0.0145046
792.981	0.0146344
793.059	0.0147598
793.137	0.0145157
793.215	0.0146365
793.293	0.0147438
793.371	0.0147266
793.450	0.0147051
793.528	0.0147946
793.606	0.0145332
793.684	0.0147294
793.762	0.0145536
793.840	0.0146811
793.918	0.0145934
793.996	0.0145765
794.075	0.0146184
794.153	0.0145374
794.231	0.0145071
794.309	0.0145718
794.387	0.0145399
794.465	0.0145950
794.543	0.0143744
794.621	0.0145130
794.700	0.0144228
794.778	0.0145501
794.856	0.0144978
794.934	0.0144182
795.012	0.0143260
795.090	0.0145690
795.168	0.0145746
795.246	0.0144498
795.325	0.0145083
795.403	0.0144707
795.481	0.0145408
795.559	0.0144773
795.637	0.0145546
795.715	0.0144830
795.793	0.0146156
795.871	0.0145160
795.950	0.0143850
796.028	0.0145300
796.106	0.0144318
796.184	0.0143810
796.262	0.0143949
796.340	0.0145164
796.418	0.0143599
796.496	0.0144640
796.575	0.0144879
796.653	0.0144243
796.731	0.0144695
796.809	0.0143773
796.887	0.0143781
796.965	0.0144617
797.043	0.0145148
797.121	0.0146479
797.200	0.0145009
797.278	0.0145142
797.356	0.0144556
797.434	0.0145319
797.512	0.0144974
797.590	0.0146001
797.668	0.0145180
797.746	0.0145569
797.825	0.0145318
797.903	0.0145480
797.981	0.0145718
798.059	0.0145222
798.137	0.0145211
798.215	0.0145172
798.293	0.0145628
798.371	0.0145364
798.450	0.0146171
798.528	0.0145626
798.606	0.0143086
798.684	0.0144848
798.762	0.0145339
798.840	0.0144739
798.918	0.0146219
798.996	0.0144840
799.075	0.0144533
799.153	0.0145460
799.231	0.0144093
799.309	0.0146391
799.387	0.0144363
799.465	0.0143671
799.543	0.0144399
799.621	0.0143917
799.700	0.0143566
799.778	0.0143704
799.856	0.0145172
799.934	0.0145855
800.012	0.0144772
800.090	0.0144592
800.168	0.0144875
800.246	0.0145278
800.325	0.0144331
800.403	0.0144617
800.481	0.0146626
800.559	0.0146853
800.637	0.0145261
800.715	0.0145773
800.793	0.0144874
800.871	0.0145609
800.950	0.0147375
801.028	0.0144389
801.106	0.0144117
801.184	0.0144096
801.262	0.0144997
801.340	0.0143657
801.418	0.0145109
801.496	0.0145391
801.575	0.0145383
801.653	0.0144902
801.731	0.0145667
801.809	0.0144923
801.887	0.0144396
801.965	0.0145579
802.043	0.0145715
802.121	0.0145903
802.200	0.0145450
802.278	0.0145226
802.356	0.0143344
802.434	0.0143486
802.512	0.0143825
802.590	0.0146059
802.668	0.0144236
802.746	0.0145018
802.825	0.0145394
802.903	0.0143507
802.981	0.0144507
803.059	0.0145041
803.137	0.0145385
803.215	0.0145479
803.293	0.0146104
803.371	0.0144390
803.450	0.0144602
803.528	0.0144296
803.606	0.0144330
803.684	0.0146250
803.762	0.0143965
803.840	0.0144573
803.918	0.0144841
803.996	0.0144331
804.075	0.0143730
804.153	0.0145310
804.231	0.0145314
804.309	0.0144164
804.387	0.0144285
804.465	0.0144609
804.543	0.0144929
804.621	0.0145776
804.700	0.0145206
804.778	0.0146124
804.856	0.0145538
804.934	0.0146681
805.012	0.0144481
805.090	0.0146417
805.168	0.0144984
805.246	0.0144921
805.325	0.0143673
805.403	0.0144660
805.481	0.0143241
805.559	0.0144556
805.637	0.0145490
805.715	0.0143901
805.793	0.0143021
805.871	0.0143963
805.950	0.0145262
806.028	0.0143670
806.106	0.0144516
806.184	0.0144434
806.262	0.0145045
806.340	0.0145482
806.418	0.0144608
806.496	0.0144665
806.575	0.0144772
806.653	0.0143481
806.731	0.0145382
806.809	0.0143954
806.887	0.0144300
806.965	0.0146101
807.043	0.0143775
807.121	0.0144337
807.200	0.0144510
807.278	0.0145296
807.356	0.0145026
807.434	0.0144182
807.512	0.0144839
807.590	0.0144939
807.668	0.0143949
807.746	0.0143368
807.825	0.0144267
807.903	0.0145697
807.981	0.0144234
808.059	0.0144928
808.137	0.0143653
808.215	0.0142719
808.293	0.0142633
808.371	0.0143539
808.450	0.0144491
808.528	0.0144544
808.606	0.0143379
808.684	0.0142632
808.762	0.0144478
808.840	0.0145451
808.918	0.0142369
808.996	0.0143206
809.075	0.0145084
809.153	0.0143969
809.231	0.0144424
809.309	0.0143727
809.387	0.0145705
809.465	0.0144137
809.543	0.0145160
809.621	0.0144680
809.700	0.0144064
809.778	0.0145097
809.856	0.0144497
809.934	0.0144794
810.012	0.0145441
810.090	0.0144534
810.168	0.0144576
810.246	0.0143372
810.325	0.0144766
810.403	0.0145252
810.481	0.0143346
810.559	0.0144780
810.637	0.0143762
810.715	0.0143439
810.793	0.0143024
810.871	0.0144346
810.950	0.0144545
811.028	0.0144490
811.106	0.0143816
811.184	0.0143456
811.262	0.0144182
811.340	0.0144623
811.418	0.0144910
811.496	0.0145150
811.575	0.0145281
811.653	0.0144550
811.731	0.0145512
811.809	0.0146210
811.887	0.0145620
811.965	0.0144608
812.043	0.0145741
812.121	0.0144580
812.200	0.0144902
812.278	0.0144789
812.356	0.0144149
812.434	0.0144937
812.512	0.0145290
812.590	0.0144547
812.668	0.0143736
812.746	0.0143980
812.825	0.0144378
812.903	0.0144217
812.981	0.0145499
813.059	0.0143845
813.137	0.0143851
813.215	0.0144962
813.293	0.0145149
813.371	0.0145374
813.450	0.0144025
813.528	0.0143764
813.606	0.0145298
813.684	0.0144731
813.762	0.0144395
813.840	0.0145333
813.918	0.0144179
813.996	0.0145787
814.075	0.0144635
814.153	0.0143514
814.231	0.0144666
814.309	0.0144796
814.387	0.0144616
814.465	0.0144809
814.543	0.0145074
814.621	0.0145265
814.700	0.0143565
814.778	0.0144950
814.856	0.0145937
814.934	0.0143959
815.012	0.0144710
815.090	0.0145373
815.168	0.0144661
815.246	0.0145051
815.325	0.0145810
815.403	0.0144599
815.481	0.0145627
815.559	0.0145251
815.637	0.0144894
815.715	0.0146084
815.793	0.0145769
815.871	0.0143890
815.950	0.0145651
816.028	0.0145819
816.106	0.0144307
816.184	0.0144482
816.262	0.0145863
816.340	0.0145755
816.418	0.0145778
816.496	0.0145400
816.575	0.0145821
816.653	0.0145970
816.731	0.0146253
816.809	0.0144604
816.887	0.0144793
816.965	0.0145799
817.043	0.0146555
817.121	0.0145516
817.200	0.0145528
817.278	0.0144935
817.356	0.0147191
817.434	0.0145130
817.512	0.0144650
817.590	0.0146141
817.668	0.0144685
817.746	0.0144651
817.825	0.0146436
817.903	0.0145885
817.981	0.0145508
818.059	0.0145410
818.137	0.0144012
818.215	0.0143922
818.293	0.0145024
818.371	0.0145620
818.450	0.0144972
818.528	0.0143786
818.606	0.0144462
818.684	0.0144810
818.762	0.0144965
818.840	0.0145190
818.918	0.0144547
818.996	0.0144236
819.075	0.0144988
819.153	0.0144044
819.231	0.0144526
819.309	0.0145017
819.387	0.0144416
819.465	0.0144283
819.543	0.0144649
819.621	0.0144731
819.700	0.0144178
819.778	0.0143886
819.856	0.0145260
819.934	0.0145465
820.012	0.0145259
820.090	0.0145261
820.168	0.0145390
820.246	0.0143760
820.325	0.0145956
820.403	0.0144912
820.481	0.0144402
820.559	0.0145097
820.637	0.0145628
820.715	0.0142876
820.793	0.0145368
820.871	0.0142919
820.950	0.0143629
821.028	0.0144521
821.106	0.0145972
821.184	0.0143570
821.262	0.0145460
821.340	0.0145338
821.418	0.0143325
821.496	0.0143835
821.575	0.0144416
821.653	0.0145132
821.731	0.0144363
821.809	0.0144771
821.887	0.0145318
821.965	0.0144237
822.043	0.0143964
822.121	0.0145428
822.200	0.0144096
822.278	0.0144161
822.356	0.0146038
822.434	0.0145264
822.512	0.0145390
822.590	0.0144738
822.668	0.0146064
822.746	0.0145330
822.825	0.0145488
822.903	0.0146526
822.981	0.0143568
823.059	0.0145606
823.137	0.0145113
823.215	0.0145200
823.293	0.0146382
823.371	0.0145445
823.450	0.0145206
823.528	0.0145790
823.606	0.0145045
823.684	0.0144105
823.762	0.0146112
823.840	0.0144913
823.918	0.0144067
823.996	0.0146250
824.075	0.0146042
824.153	0.0144292
824.231	0.0143880
824.309	0.0143821
824.387	0.0145731
824.465	0.0145564
824.543	0.0144998
824.621	0.0144785
824.700	0.0146642
824.778	0.0146365
824.856	0.0145467
824.934	0.0145801
825.012	0.0146121
825.090	0.0146788
825.168	0.0147105
825.246	0.0145499
825.325	0.0144899
825.403	0.0145052
825.481	0.0145544
825.559	0.0146015
825.637	0.0144514
825.715	0.0146867
825.793	0.0146047
825.871	0.0146009
825.950	0.0144543
826.028	0.0145393
826.106	0.0145432
826.184	0.0144441
826.262	0.0145383
826.340	0.0145838
826.418	0.0143945
826.496	0.0145634
826.575	0.0144993
826.653	0.0143379
826.731	0.0145586
826.809	0.0147504
826.887	0.0145608
826.965	0.0145147
827.043	0.0145305
827.121	0.0145219
827.200	0.0144290
827.278	0.0145375
827.356	0.0145919
827.434	0.0144719
827.512	0.0145539
827.590	0.0145042
827.668	0.0145826
827.746	0.0145863
827.825	0.0144016
827.903	0.0145152
827.981	0.0143958
828.059	0.0145095
828.137	0.0146049
828.215	0.0145349
828.293	0.0144340
828.371	0.0145779
828.450	0.0144214
828.528	0.0144590
828.606	0.0146002
828.684	0.0144566
828.762	0.0144862
828.840	0.0145968
828.918	0.0146420
828.996	0.0145078
829.075	0.0145534
829.153	0.0144355
829.231	0.0145910
829.309	0.0145114
829.387	0.0145424
829.465	0.0144272
829.543	0.0145021
829.621	0.0147146
829.700	0.0144646
829.778	0.0145536
829.856	0.0146098
829.934	0.0145411
830.012	0.0145036
830.090	0.0144970
830.168	0.0145084
830.246	0.0146097
830.325	0.0145142
830.403	0.0144855
830.481	0.0145476
830.559	0.0143790
830.637	0.0145072
830.715	0.0145788
830.793	0.0145209
830.871	0.0144979
830.950	0.0143831
831.028	0.0145801
831.106	0.0144643
831.184	0.0144128
831.262	0.0144389
831.340	0.0146420
831.418	0.0146104
831.496	0.0145192
831.575	0.0146577
831.653	0.0145547
831.731	0.0145753
831.809	0.0145808
831.887	0.0145360
831.965	0.0145096
832.043	0.0145522
832.121	0.0147100
832.200	0.0144871
832.278	0.0147968
832.356	0.0145670
832.434	0.0145894
832.512	0.0144859
832.590	0.0145429
832.668	0.0145730
832.746	0.0146291
832.825	0.0146489
832.903	0.0145448
832.981	0.0145492
833.059	0.0144626
833.137	0.0144997
833.215	0.0144871
833.293	0.0144579
833.371	0.0144946
833.450	0.0145257
833.528	0.0144223
833.606	0.0145387
833.684	0.0145586
833.762	0.0145027
833.840	0.0144685
833.918	0.0144557
833.996	0.0145517
834.075	0.0145325
834.153	0.0145021
834.231	0.0145225
834.309	0.0145224
834.387	0.0144098
834.465	0.0144851
834.543	0.0144214
834.621	0.0143042
834.700	0.0146047
834.778	0.0144411
834.856	0.0147523
834.934	0.0144630
835.012	0.0143719
835.090	0.0145292
835.168	0.0145386
835.246	0.0145720
835.325	0.0144887
835.403	0.0145158
835.481	0.0145576
835.559	0.0145026
835.637	0.0145264
835.715	0.0144817
835.793	0.0144072
835.871	0.0146510
835.950	0.0144439
836.028	0.0145399
836.106	0.0144413
836.184	0.0146204
836.262	0.0146096
836.340	0.0144616
836.418	0.0146470
836.496	0.0145655
836.575	0.0145205
836.653	0.0145326
836.731	0.0145413
836.809	0.0145916
836.887	0.0144794
836.965	0.0145440
837.043	0.0145395
837.121	0.0145919
837.200	0.0146286
837.278	0.0146322
837.356	0.0145279
837.434	0.0145668
837.512	0.0145723
837.590	0.0145724
837.668	0.0145430
837.746	0.0145203
837.825	0.0146429
837.903	0.0146341
837.981	0.0144979
838.059	0.0144854
838.137	0.0146148
838.215	0.0145266
838.293	0.0145319
838.371	0.0146404
838.450	0.0145950
838.528	0.0145836
838.606	0.0144341
838.684	0.0144958
838.762	0.0145602
838.840	0.0145062
838.918	0.0145456
838.996	0.0145311
839.075	0.0147114
839.153	0.0144946
839.231	0.0145282
839.309	0.0145913
839.387	0.0145605
839.465	0.0145115
839.543	0.0145428
839.621	0.0145555
839.700	0.0144672
839.778	0.0146009
839.856	0.0146377
839.934	0.0145875
840.012	0.0145590
840.090	0.0145612
840.168	0.0146093
840.246	0.0145715
840.325	0.0146642
840.403	0.0146444
840.481	0.0144875
840.559	0.0145242
840.637	0.0144724
840.715	0.0145601
840.793	0.0144757
840.871	0.0144631
840.950	0.0145128
841.028	0.0144460
841.106	0.0144627
841.184	0.0145074
841.262	0.0145908
841.340	0.0145712
841.418	0.0144456
841.496	0.0143948
841.575	0.0145065
841.653	0.0144740
841.731	0.0145255
841.809	0.0144680
841.887	0.0145028
841.965	0.0146204
842.043	0.0144210
842.121	0.0143157
842.200	0.0145252
842.278	0.0145795
842.356	0.0144806
842.434	0.0144781
842.512	0.0144355
842.590	0.0143777
842.668	0.0143201
842.746	0.0144508
842.825	0.0144175
842.903	0.0143087
842.981	0.0143983
843.059	0.0144311
843.137	0.0143029
843.215	0.0144796
843.293	0.0144188
843.371	0.0142428
843.450	0.0143221
843.528	0.0143974
843.606	0.0143901
843.684	0.0144105
843.762	0.0144287
843.840	0.0143774
843.918	0.0144247
843.996	0.0143167
844.075	0.0144873
844.153	0.0145160
844.231	0.0144437
844.309	0.0144626
844.387	0.0145275
844.465	0.0144603
844.543	0.0143013
844.621	0.0144455
844.700	0.0145496
844.778	0.0144926
844.856	0.0145053
844.934	0.0145967
845.012	0.0144874
845.090	0.0145915
845.168	0.0144296
845.246	0.0144066
845.325	0.0145503
845.403	0.0143964
845.481	0.0143920
845.559	0.0145127
845.637	0.0145573
845.715	0.0144867
845.793	0.0144611
845.871	0.0145765
845.950	0.0147404
846.028	0.0145226
846.106	0.0144396
846.184	0.0143707
846.262	0.0145438
846.340	0.0145853
846.418	0.0144829
846.496	0.0147387
846.575	0.0146136
846.653	0.0145006
846.731	0.0145592
846.809	0.0145044
846.887	0.0145093
846.965	0.0145276
847.043	0.0145890
847.121	0.0146808
847.200	0.0145911
847.278	0.0146098
847.356	0.0145757
847.434	0.0146556
847.512	0.0146684
847.590	0.0146236
847.668	0.0145905
847.746	0.0145620
847.825	0.0146533
847.903	0.0146906
847.981	0.0145129
848.059	0.0144966
848.137	0.0145245
848.215	0.0145557
848.293	0.0145533
848.371	0.0144904
848.450	0.0145549
848.528	0.0145536
848.606	0.0144849
848.684	0.0146110
848.762	0.0145645
848.840	0.0146679
848.918	0.0146558
848.996	0.0146444
849.075	0.0146099
849.153	0.0145595
849.231	0.0147593
849.309	0.0146385
849.387	0.0145132
849.465	0.0144173
849.543	0.0144774
849.621	0.0143974
849.700	0.0144643
849.778	0.0146810
849.856	0.0146056
849.934	0.0144939
850.012	0.0144649
850.090	0.0145518
850.168	0.0145994
850.246	0.0144348
850.325	0.0145533
850.403	0.0145750
850.481	0.0145029
850.559	0.0146078
850.637	0.0147711
850.715	0.0145567
850.793	0.0145941
850.871	0.0144790
850.950	0.0145801
851.028	0.0146059
851.106	0.0145962
851.184	0.0145273
851.262	0.0146281
851.340	0.0146208
851.418	0.0146127
851.496	0.0146334
851.575	0.0147153
851.653	0.0146235
851.731	0.0145570
851.809	0.0146167
851.887	0.0146661
851.965	0.0145901
852.043	0.0145347
852.121	0.0146497
852.200	0.0145891
852.278	0.0145594
852.356	0.0145287
852.434	0.0144987
852.512	0.0146524
852.590	0.0147018
852.668	0.0146008
852.746	0.0146148
852.825	0.0144357
852.903	0.0145533
852.981	0.0144927
853.059	0.0145448
853.137	0.0146942
853.215	0.0145045
853.293	0.0145180
853.371	0.0144852
853.450	0.0145444
853.528	0.0145288
853.606	0.0146428
853.684	0.0145571
853.762	0.0146286
853.840	0.0146111
853.918	0.0145965
853.996	0.0145744
854.075	0.0145105
854.153	0.0146523
854.231	0.0144820
854.309	0.0145576
854.387	0.0145941
854.465	0.0145558
854.543	0.0145152
854.621	0.0146757
854.700	0.0145483
854.778	0.0145961
854.856	0.0145209
854.934	0.0144028
855.012	0.0145261
855.090	0.0147057
855.168	0.0145090
855.246	0.0146609
855.325	0.0145222
855.403	0.0144073
855.481	0.0144468
855.559	0.0145688
855.637	0.0147197
855.715	0.0143914
855.793	0.0144861
855.871	0.0145563
855.950	0.0145999
856.028	0.0145309
856.106	0.0144307
856.184	0.0144012
856.262	0.0144861
856.340	0.0146140
856.418	0.0144685
856.496	0.0144083
856.575	0.0145557
856.653	0.0144962
856.731	0.0143854
856.809	0.0145992
856.887	0.0146269
856.965	0.0144809
857.043	0.0145959
857.121	0.0143096
857.200	0.0144493
857.278	0.0145743
857.356	0.0144836
857.434	0.0145005
857.512	0.0146075
857.590	0.0144255
857.668	0.0144785
857.746	0.0145514
857.825	0.0145600
857.903	0.0145135
857.981	0.0145461
858.059	0.0144199
858.137	0.0145218
858.215	0.0146196
858.293	0.0145922
858.371	0.0145999
858.450	0.0145195
858.528	0.0143969
858.606	0.0145416
858.684	0.0144697
858.762	0.0145471
858.840	0.0145463
858.918	0.0145345
858.996	0.0145309
859.075	0.0145142
859.153	0.0144780
859.231	0.0145454
859.309	0.0144402
859.387	0.0145358
859.465	0.0144640
859.543	0.0144698
859.621	0.0143464
859.700	0.0143261
859.778	0.0145831
859.856	0.0144560
859.934	0.0144994
860.012	0.0145163
860.090	0.0144608
860.168	0.0144404
860.246	0.0144337
860.325	0.0145571
860.403	0.0145618
860.481	0.0145504
860.559	0.0145100
860.637	0.0145528
860.715	0.0145341
860.793	0.0146270
860.871	0.0145702
860.950	0.0143903
861.028	0.0145665
861.106	0.0146693
861.184	0.0144201
861.262	0.0144807
861.340	0.0145848
861.418	0.0143899
861.496	0.0145351
861.575	0.0144929
861.653	0.0144050
861.731	0.0144196
861.809	0.0144884
861.887	0.0145210
861.965	0.0145535
862.043	0.0144489
862.121	0.0145953
862.200	0.0144824
862.278	0.0144116
862.356	0.0144732
862.434	0.0144758
862.512	0.0144863
862.590	0.0145802
862.668	0.0144311
862.746	0.0144020
862.825	0.0144283
862.903	0.0146655
862.981	0.0146132
863.059	0.0144329
863.137	0.0145717
863.215	0.0145621
863.293	0.0145020
863.371	0.0144919
863.450	0.0145535
863.528	0.0145614
863.606	0.0145410
863.684	0.0144279
863.762	0.0145798
863.840	0.0143466
863.918	0.0144836
863.996	0.0145907
864.075	0.0145671
864.153	0.0144981
864.231	0.0145527
864.309	0.0144858
864.387	0.0145128
864.465	0.0145501
864.543	0.0144813
864.621	0.0144001
864.700	0.0146291
864.778	0.0144754
864.856	0.0144485
864.934	0.0145834
865.012	0.0145134
865.090	0.0144217
865.168	0.0144903
865.246	0.0145023
865.325	0.0146982
865.403	0.0145383
865.481	0.0145970
865.559	0.0145478
865.637	0.0145396
865.715	0.0145442
865.793	0.0143858
865.871	0.0144231
865.950	0.0144463
866.028	0.0144909
866.106	0.0144331
866.184	0.0145568
866.262	0.0143902
866.340	0.0146185
866.418	0.0144232
866.496	0.0143668
866.575	0.0145572
866.653	0.0145457
866.731	0.0142789
866.809	0.0143031
866.887	0.0144387
866.965	0.0144029
867.043	0.0143813
867.121	0.0143915
867.200	0.0143778
867.278	0.0144097
867.356	0.0144695
867.434	0.0143256
867.512	0.0143970
867.590	0.0145611
867.668	0.0144482
867.746	0.0145581
867.825	0.0144241
867.903	0.0144756
867.981	0.0146016
868.059	0.0144910
868.137	0.0146241
868.215	0.0146096
868.293	0.0143807
868.371	0.0143336
868.450	0.0144249
868.528	0.0144601
868.606	0.0145013
868.684	0.0143942
868.762	0.0143469
868.840	0.0143917
868.918	0.0144455
868.996	0.0144808
869.075	0.0144087
869.153	0.0144377
869.231	0.0145858
869.309	0.0144316
869.387	0.0144678
869.465	0.0145515
869.543	0.0146333
869.621	0.0144805
869.700	0.0144960
869.778	0.0146007
869.856	0.0143400
869.934	0.0145061
870.012	0.0144749
870.090	0.0145819
870.168	0.0145023
870.246	0.0143658
870.325	0.0145246
870.403	0.0145255
870.481	0.0144473
870.559	0.0144041
870.637	0.0145043
870.715	0.0145756
870.793	0.0147223
870.871	0.0146779
870.950	0.0145213
871.028	0.0145205
871.106	0.0147292
871.184	0.0145896
871.262	0.0146133
871.340	0.0145383
871.418	0.0145997
871.496	0.0144476
871.575	0.0145941
871.653	0.0144646
871.731	0.0145441
871.809	0.0143773
871.887	0.0146508
871.965	0.0146628
872.043	0.0145235
872.121	0.0146262
872.200	0.0145420
872.278	0.0145431
872.356	0.0146586
872.434	0.0145829
872.512	0.0147621
872.590	0.0146075
872.668	0.0144579
872.746	0.0145715
872.825	0.0146672
872.903	0.0145499
872.981	0.0146311
873.059	0.0145345
873.137	0.0146324
873.215	0.0144896
873.293	0.0145205
873.371	0.0145842
873.450	0.0145668
873.528	0.0146061
873.606	0.0144544
873.684	0.0144998
873.762	0.0144891
873.840	0.0145933
873.918	0.0146277
873.996	0.0145511
874.075	0.0146681
874.153	0.0145496
874.231	0.0147051
874.309	0.0146828
874.387	0.0146101
874.465	0.0145222
874.543	0.0145432
874.621	0.0145276
874.700	0.0145655
874.778	0.0144955
874.856	0.0145250
874.934	0.0144633
875.012	0.0146063
875.090	0.0145121
875.168	0.0146597
875.246	0.0144676
875.325	0.0144715
875.403	0.0145990
875.481	0.0145655
875.559	0.0145322
875.637	0.0145065
875.715	0.0144863
875.793	0.0145660
875.871	0.0146119
875.950	0.0144952
876.028	0.0145140
876.106	0.0146657
876.184	0.0146633
876.262	0.0147042
876.340	0.0146685
876.418	0.0146503
876.496	0.0145206
876.575	0.0145642
876.653	0.0145789
876.731	0.0145187
876.809	0.0145269
876.887	0.0146675
876.965	0.0145796
877.043	0.0145103
877.121	0.0144809
877.200	0.0144779
877.278	0.0144863
877.356	0.0145869
877.434	0.0145703
877.512	0.0145799
877.590	0.0143892
877.668	0.0145127
877.746	0.0145080
877.825	0.0145877
877.903	0.0145769
877.981	0.0144194
878.059	0.0144866
878.137	0.0144619
878.215	0.0142997
878.293	0.0145103
878.371	0.0145672
878.450	0.0144131
878.528	0.0144983
878.606	0.0145432
878.684	0.0145000
878.762	0.0144517
878.840	0.0145936
878.918	0.0145879
878.996	0.0145081
879.075	0.0145438
879.153	0.0146081
879.231	0.0147013
879.309	0.0146615
879.387	0.0145438
879.465	0.0146078
879.543	0.0145875
879.621	0.0144965
879.700	0.0143631
879.778	0.0144912
879.856	0.0144283
879.934	0.0145113
880.012	0.0142800
880.090	0.0143244
880.168	0.0143570
880.246	0.0145235
880.325	0.0143784
880.403	0.0143954
880.481	0.0145390
880.559	0.0145306
880.637	0.0144672
880.715	0.0146091
880.793	0.0144606
880.871	0.0144727
880.950	0.0144533
881.028	0.0144550
881.106	0.0145308
881.184	0.0144167
881.262	0.0144759
881.340	0.0145902
881.418	0.0145691
881.496	0.0144612
881.575	0.0144485
881.653	0.0145196
881.731	0.0144997
881.809	0.0146735
881.887	0.0146022
881.965	0.0144453
882.043	0.0145184
882.121	0.0144542
882.200	0.0145219
882.278	0.0146083
882.356	0.0147707
882.434	0.0145646
882.512	0.0145340
882.590	0.0145700
882.668	0.0145846
882.746	0.0145154
882.825	0.0145042
882.903	0.0143935
882.981	0.0144556
883.059	0.0143978
883.137	0.0143844
883.215	0.0143756
883.293	0.0145464
883.371	0.0145704
883.450	0.0144318
883.528	0.0144219
883.606	0.0145654
883.684	0.0145996
883.762	0.0144691
883.840	0.0145492
883.918	0.0144865
883.996	0.0144373
884.075	0.0145431
884.153	0.0143980
884.231	0.0144714
884.309	0.0143990
884.387	0.0145237
884.465	0.0146269
884.543	0.0145898
884.621	0.0145663
884.700	0.0144904
884.778	0.0145434
884.856	0.0144968
884.934	0.0145712
885.012	0.0147204
885.090	0.0144319
885.168	0.0145120
885.246	0.0145715
885.325	0.0144973
885.403	0.0145173
885.481	0.0144913
885.559	0.0145533
885.637	0.0144390
885.715	0.0144559
885.793	0.0145170
885.871	0.0146114
885.950	0.0145745
886.028	0.0145269
886.106	0.0145361
886.184	0.0146259
886.262	0.0145203
886.340	0.0145454
886.418	0.0144299
886.496	0.0144668
886.575	0.0146288
886.653	0.0145088
886.731	0.0144804
886.809	0.0143932
886.887	0.0143889
886.965	0.0145748
887.043	0.0144617
887.121	0.0144756
887.200	0.0143777
887.278	0.0143917
887.356	0.0144102
887.434	0.0145695
887.512	0.0144389
887.590	0.0145097
887.668	0.0146019
887.746	0.0146167
887.825	0.0145068
887.903	0.0145655
887.981	0.0144855
888.059	0.0144640
888.137	0.0144438
888.215	0.0145858
888.293	0.0144797
888.371	0.0144640
888.450	0.0144846
888.528	0.0145337
888.606	0.0143108
888.684	0.0144199
888.762	0.0143583
888.840	0.0145570
888.918	0.0144931
888.996	0.0144204
889.075	0.0143925
889.153	0.0145042
889.231	0.0145541
889.309	0.0144933
889.387	0.0145224
889.465	0.0144595
889.543	0.0145280
889.621	0.0145950
889.700	0.0144865
889.778	0.0143907
889.856	0.0145102
889.934	0.0144817
890.012	0.0143153
890.090	0.0143820
890.168	0.0144768
890.246	0.0145631
890.325	0.0146281
890.403	0.0144691
890.481	0.0144198
890.559	0.0145471
890.637	0.0146031
890.715	0.0145392
890.793	0.0144595
890.871	0.0144049
890.950	0.0144429
891.028	0.0143937
891.106	0.0144482
891.184	0.0145562
891.262	0.0145103
891.340	0.0143674
891.418	0.0144646
891.496	0.0144745
891.575	0.0145591
891.653	0.0144889
891.731	0.0144289
891.809	0.0143724
891.887	0.0143893
891.965	0.0144736
892.043	0.0145100
892.121	0.0144545
892.200	0.0144800
892.278	0.0144842
892.356	0.0144015
892.434	0.0144678
892.512	0.0144783
892.590	0.0146286
892.668	0.0146375
892.746	0.0146194
892.825	0.0147713
892.903	0.0146989
892.981	0.0146626
893.059	0.0147107
893.137	0.0147414
893.215	0.0146134
893.293	0.0146245
893.371	0.0147386
893.450	0.0145351
893.528	0.0145934
893.606	0.0146017
893.684	0.0144965
893.762	0.0145482
893.840	0.0146016
893.918	0.0144244
893.996	0.0144662
894.075	0.0146452
894.153	0.0146549
894.231	0.0145736
894.309	0.0146384
894.387	0.0145787
894.465	0.0145315
894.543	0.0146577
894.621	0.0146050
894.700	0.0145717
894.778	0.0145666
894.856	0.0145863
894.934	0.0146351
895.012	0.0145406
895.090	0.0146017
895.168	0.0145560
895.246	0.0145886
895.325	0.0147316
895.403	0.0145870
895.481	0.0146556
895.559	0.0146185
895.637	0.0145015
895.715	0.0147004
895.793	0.0147457
895.871	0.0146565
895.950	0.0145294
896.028	0.0145033
896.106	0.0146053
896.184	0.0146034
896.262	0.0144686
896.340	0.0143907
896.418	0.0146033
896.496	0.0144002
896.575	0.0143651
896.653	0.0145119
896.731	0.0144392
896.809	0.0142883
896.887	0.0145147
896.965	0.0145284
897.043	0.0144624
897.121	0.0144252
897.200	0.0144103
897.278	0.0142867
897.356	0.0144026
897.434	0.0145505
897.512	0.0145717
897.590	0.0144357
897.668	0.0144604
897.746	0.0144954
897.825	0.0143184
897.903	0.0145927
897.981	0.0145348
898.059	0.0144527
898.137	0.0145711
898.215	0.0146310
898.293	0.0144217
898.371	0.0143998
898.450	0.0144383
898.528	0.0145519
898.606	0.0144463
898.684	0.0144096
898.762	0.0144968
898.840	0.0145160
898.918	0.0144176
898.996	0.0143657
899.075	0.0143815
899.153	0.0144040
899.231	0.0143257
899.309	0.0143515
899.387	0.0144356
899.465	0.0144644
899.543	0.0143546
899.621	0.0143523
899.700	0.0144401
899.778	0.0146237
899.856	0.0144496
899.934	0.0145866
900.012	0.0146657
900.090	0.0145863
900.168	0.0144960
900.246	0.0145722
900.325	0.0144713
900.403	0.0145408
900.481	0.0146095
900.559	0.0146198
900.637	0.0145348
900.715	0.0144280
900.793	0.0145695
900.871	0.0146472
900.950	0.0145271
901.028	0.0144942
901.106	0.0144734
901.184	0.0145919
901.262	0.0146274
901.340	0.0144774
901.418	0.0143115
901.496	0.0144012
901.575	0.0143468
901.653	0.0143948
901.731	0.0143993
901.809	0.0144560
901.887	0.0145062
901.965	0.0143454
902.043	0.0143839
902.121	0.0144701
902.200	0.0144508
902.278	0.0144486
902.356	0.0145735
902.434	0.0145138
902.512	0.0145077
902.590	0.0145164
902.668	0.0145185
902.746	0.0143349
902.825	0.0146637
902.903	0.0146712
902.981	0.0144828
903.059	0.0145930
903.137	0.0145876
903.215	0.0145834
903.293	0.0146404
903.371	0.0145876
903.450	0.0145570
903.528	0.0145992
903.606	0.0144956
903.684	0.0143341
903.762	0.0143411
903.840	0.0145756
903.918	0.0145667
903.996	0.0145382
904.075	0.0145888
904.153	0.0144993
904.231	0.0146746
904.309	0.0145338
904.387	0.0143895
904.465	0.0142828
904.543	0.0144726
904.621	0.0145771
904.700	0.0145663
904.778	0.0144593
904.856	0.0145026
904.934	0.0145385
905.012	0.0145625
905.090	0.0146078
905.168	0.0145902
905.246	0.0146579
905.325	0.0145592
905.403	0.0145200
905.481	0.0146190
905.559	0.0146432
905.637	0.0146111
905.715	0.0147337
905.793	0.0145695
905.871	0.0144761
905.950	0.0146620
906.028	0.0146514
906.106	0.0146284
906.184	0.0145058
906.262	0.0145105
906.340	0.0145124
906.418	0.0145978
906.496	0.0144279
906.575	0.0143517
906.653	0.0143208
906.731	0.0144985
906.809	0.0144473
906.887	0.0143174
906.965	0.0145170
907.043	0.0144166
907.121	0.0143184
907.200	0.0143186
907.278	0.0142760
907.356	0.0143513
907.434	0.0144338
907.512	0.0144181
907.590	0.0143631
907.668	0.0144182
907.746	0.0145636
907.825	0.0145506
907.903	0.0144794
907.981	0.0144898
908.059	0.0145247
908.137	0.0144730
908.215	0.0145490
908.293	0.0145297
908.371	0.0145248
908.450	0.0145163
908.528	0.0144765
908.606	0.0143748
908.684	0.0145041
908.762	0.0145752
908.840	0.0144878
908.918	0.0144037
908.996	0.0144000
909.075	0.0145097
909.153	0.0143276
909.231	0.0144823
909.309	0.0144871
909.387	0.0144248
909.465	0.0144270
909.543	0.0145293
909.621	0.0145007
909.700	0.0144824
909.778	0.0143581
909.856	0.0144879
909.934	0.0145179
910.012	0.0144431
910.090	0.0144995
910.168	0.0146035
910.246	0.0144301
910.325	0.0144965
910.403	0.0144911
910.481	0.0144817
910.559	0.0145560
910.637	0.0145532
910.715	0.0146032
910.793	0.0143680
910.871	0.0146774
910.950	0.0145716
911.028	0.0146662
911.106	0.0145171
911.184	0.0145339
911.262	0.0145020
911.340	0.0145049
911.418	0.0145229
911.496	0.0145721
911.575	0.0145557
911.653	0.0144221
911.731	0.0145828
911.809	0.0145790
911.887	0.0145816
911.965	0.0145200
912.043	0.0146031
912.121	0.0145501
912.200	0.0144756
912.278	0.0146352
912.356	0.0145129
912.434	0.0145033
912.512	0.0145025
912.590	0.0146098
912.668	0.0146072
912.746	0.0146671
912.825	0.0146409
912.903	0.0145330
912.981	0.0146233
913.059	0.0147188
913.137	0.0145547
913.215	0.0145595
913.293	0.0145214
913.371	0.0146918
913.450	0.0146244
913.528	0.0146308
913.606	0.0145758
913.684	0.0145206
913.762	0.0146203
913.840	0.0145365
913.918	0.0144480
913.996	0.0145618
914.075	0.0144939
914.153	0.0146327
914.231	0.0145798
914.309	0.0145279
914.387	0.0145664
914.465	0.0146200
914.543	0.0145899
914.621	0.0146870
914.700	0.0146690
914.778	0.0146230
914.856	0.0144733
914.934	0.0145418
915.012	0.0147126
915.090	0.0144776
915.168	0.0144514
915.246	0.0145290
915.325	0.0145021
915.403	0.0145593
915.481	0.0145383
915.559	0.0144828
915.637	0.0144482
915.715	0.0145255
915.793	0.0145827
915.871	0.0145602
915.950	0.0144160
916.028	0.0145478
916.106	0.0145332
916.184	0.0144973
916.262	0.0143857
916.340	0.0145374
916.418	0.0145254
916.496	0.0145564
916.575	0.0144514
916.653	0.0144907
916.731	0.0144740
916.809	0.0144755
916.887	0.0146131
916.965	0.0146177
917.043	0.0144257
917.121	0.0146330
917.200	0.0146600
917.278	0.0146040
917.356	0.0146882
917.434	0.0146635
917.512	0.0145799
917.590	0.0146514
917.668	0.0146320
917.746	0.0145887
917.825	0.0144632
917.903	0.0144574
917.981	0.0145838
918.059	0.0145234
918.137	0.0144138
918.215	0.0144234
918.293	0.0144586
918.371	0.0145615
918.450	0.0144886
918.528	0.0144605
918.606	0.0144633
918.684	0.0145534
918.762	0.0146268
918.840	0.0145238
918.918	0.0145852
918.996	0.0145048
919.075	0.0146277
919.153	0.0145899
919.231	0.0145962
919.309	0.0144456
919.387	0.0146053
919.465	0.0146525
919.543	0.0144946
919.621	0.0145496
919.700	0.0145988
919.778	0.0144424
919.856	0.0145717
919.934	0.0144611
920.012	0.0142832
920.090	0.0144805
920.168	0.0144585
920.246	0.0144610
920.325	0.0145244
920.403	0.0145444
920.481	0.0144971
920.559	0.0143843
920.637	0.0145986
920.715	0.0145101
920.793	0.0144617
920.871	0.0144984
920.950	0.0145522
921.028	0.0144087
921.106	0.0145557
921.184	0.0145742
921.262	0.0144798
921.340	0.0145081
921.418	0.0144786
921.496	0.0144997
921.575	0.0145083
921.653	0.0145255
921.731	0.0145857
921.809	0.0145197
921.887	0.0144765
921.965	0.0144620
922.043	0.0145380
922.121	0.0145304
922.200	0.0146162
922.278	0.0147776
922.356	0.0145179
922.434	0.0145674
922.512	0.0144504
922.590	0.0145405
922.668	0.0145040
922.746	0.0146000
922.825	0.0144367
922.903	0.0144228
922.981	0.0144474
923.059	0.0145152
923.137	0.0143975
923.215	0.0143810
923.293	0.0143882
923.371	0.0143612
923.450	0.0145698
923.528	0.0145308
923.606	0.0144263
923.684	0.0144456
923.762	0.0144898
923.840	0.0144971
923.918	0.0144193
923.996	0.0142821
924.075	0.0144753
924.153	0.0146483
924.231	0.0145338
924.309	0.0144231
924.387	0.0145306
924.465	0.0145062
924.543	0.0145884
924.621	0.0145589
924.700	0.0144567
924.778	0.0143797
924.856	0.0143253
924.934	0.0143285
925.012	0.0144580
925.090	0.0145102
925.168	0.0144328
925.246	0.0144720
925.325	0.0146785
925.403	0.0146402
925.481	0.0143184
925.559	0.0144704
925.637	0.0144541
925.715	0.0144524
925.793	0.0145786
925.871	0.0145808
925.950	0.0143283
926.028	0.0143490
926.106	0.0145721
926.184	0.0146373
926.262	0.0144855
926.340	0.0145520
926.418	0.0145210
926.496	0.0143956
926.575	0.0144293
926.653	0.0144514
926.731	0.0145352
926.809	0.0145107
926.887	0.0145343
926.965	0.0144776
927.043	0.0144002
927.121	0.0145261
927.200	0.0145135
927.278	0.0145360
927.356	0.0144891
927.434	0.0144337
927.512	0.0145132
927.590	0.0143584
927.668	0.0144547
927.746	0.0144815
927.825	0.0145464
927.903	0.0146214
927.981	0.0145015
928.059	0.0144060
928.137	0.0144283
928.215	0.0145022
928.293	0.0143690
928.371	0.0143871
928.450	0.0144478
928.528	0.0144653
928.606	0.0145544
928.684	0.0144183
928.762	0.0144919
928.840	0.0146211
928.918	0.0144757
928.996	0.0144065
929.075	0.0144330
929.153	0.0144765
929.231	0.0144632
929.309	0.0146161
929.387	0.0145915
929.465	0.0146726
929.543	0.0144160
929.621	0.0144027
929.700	0.0146188
929.778	0.0145966
929.856	0.0144466
929.934	0.0145908
930.012	0.0145406
930.090	0.0144799
930.168	0.0144749
930.246	0.0144196
930.325	0.0144646
930.403	0.0145470
930.481	0.0145573
930.559	0.0145418
930.637	0.0145351
930.715	0.0146697
930.793	0.0145718
930.871	0.0146795
930.950	0.0145313
931.028	0.0145013
931.106	0.0146485
931.184	0.0146338
931.262	0.0145065
931.340	0.0145813
931.418	0.0145314
931.496	0.0146830
931.575	0.0144512
931.653	0.0144875
931.731	0.0146458
931.809	0.0145985
931.887	0.0145679
931.965	0.0146902
932.043	0.0146323
932.121	0.0145922
932.200	0.0144700
932.278	0.0145919
932.356	0.0144542
932.434	0.0145686
932.512	0.0145016
932.590	0.0146863
932.668	0.0145245
932.746	0.0146819
932.825	0.0146068
932.903	0.0145435
932.981	0.0144576
933.059	0.0143846
933.137	0.0145189
933.215	0.0144309
933.293	0.0145409
933.371	0.0144534
933.450	0.0145407
933.528	0.0145707
933.606	0.0143704
933.684	0.0144642
933.762	0.0145058
933.840	0.0144616
933.918	0.0144476
933.996	0.0144193
934.075	0.0144830
934.153	0.0144437
934.231	0.0145129
934.309	0.0144515
934.387	0.0146935
934.465	0.0146297
934.543	0.0145318
934.621	0.0145200
934.700	0.0146008
934.778	0.0144872
934.856	0.0144975
934.934	0.0144640
935.012	0.0145495
935.090	0.0145749
935.168	0.0145221
935.246	0.0145420
935.325	0.0144140
935.403	0.0144035
935.481	0.0146349
935.559	0.0145896
935.637	0.0145764
935.715	0.0144783
935.793	0.0145685
935.871	0.0145726
935.950	0.0146220
936.028	0.0145135
936.106	0.0145858
936.184	0.0145007
936.262	0.0144863
936.340	0.0145033
936.418	0.0145554
936.496	0.0145783
936.575	0.0145637
936.653	0.0145541
936.731	0.0145338
936.809	0.0143758
936.887	0.0143540
936.965	0.0142564
937.043	0.0143617
937.121	0.0143887
937.200	0.0144656
937.278	0.0144166
937.356	0.0145078
937.434	0.0145759
937.512	0.0144062
937.590	0.0145751
937.668	0.0145690
937.746	0.0146075
937.825	0.0147007
937.903	0.0146164
937.981	0.0145810
938.059	0.0144758
938.137	0.0145773
938.215	0.0145947
938.293	0.0145737
938.371	0.0144649
938.450	0.0145531
938.528	0.0146368
938.606	0.0145542
938.684	0.0147252
938.762	0.0146557
938.840	0.0144947
938.918	0.0145464
938.996	0.0145571
939.075	0.0146520
939.153	0.0145962
939.231	0.0145290
939.309	0.0145994
939.387	0.0146706
939.465	0.0146581
939.543	0.0145007
939.621	0.0145921
939.700	0.0145892
939.778	0.0145303
939.856	0.0143987
939.934	0.0145636
940.012	0.0146116
940.090	0.0147189
940.168	0.0146810
940.246	0.0145284
940.325	0.0145730
940.403	0.0146426
940.481	0.0145389
940.559	0.0146239
940.637	0.0146552
940.715	0.0146376
940.793	0.0146065
940.871	0.0145017
940.950	0.0146109
941.028	0.0145987
941.106	0.0146552
941.184	0.0144872
941.262	0.0145802
941.340	0.0146017
941.418	0.0145690
941.496	0.0145487
941.575	0.0144646
941.653	0.0144711
941.731	0.0145500
941.809	0.0145277
941.887	0.0145197
941.965	0.0146242
942.043	0.0146708
942.121	0.0144986
942.200	0.0146146
942.278	0.0145996
942.356	0.0145860
942.434	0.0145371
942.512	0.0146389
942.590	0.0145625
942.668	0.0145534
942.746	0.0145470
942.825	0.0144265
942.903	0.0144930
942.981	0.0146188
943.059	0.0144962
943.137	0.0145267
943.215	0.0145502
943.293	0.0144495
943.371	0.0144332
943.450	0.0144827
943.528	0.0145045
943.606	0.0145070
943.684	0.0145703
943.762	0.0145713
943.840	0.0144542
943.918	0.0144551
943.996	0.0145351
944.075	0.0145642
944.153	0.0144952
944.231	0.0143048
944.309	0.0143746
944.387	0.0144646
944.465	0.0144415
944.543	0.0145199
944.621	0.0143411
944.700	0.0144269
944.778	0.0144298
944.856	0.0143958
944.934	0.0143621
945.012	0.0143241
945.090	0.0144595
945.168	0.0144563
945.246	0.0145200
945.325	0.0144984
945.403	0.0145624
945.481	0.0145465
945.559	0.0144115
945.637	0.0145814
945.715	0.0145681
945.793	0.0144691
945.871	0.0145070
945.950	0.0145684
946.028	0.0144805
946.106	0.0145291
946.184	0.0145247
946.262	0.0146523
946.340	0.0146030
946.418	0.0144756
946.496	0.0146084
946.575	0.0144606
946.653	0.0145036
946.731	0.0143645
946.809	0.0144930
946.887	0.0144463
946.965	0.0145639
947.043	0.0145071
947.121	0.0145577
947.200	0.0146067
947.278	0.0144424
947.356	0.0144386
947.434	0.0144214
947.512	0.0145187
947.590	0.0146474
947.668	0.0145366
947.746	0.0143994
947.825	0.0144238
947.903	0.0145562
947.981	0.0144509
948.059	0.0145731
948.137	0.0145843
948.215	0.0144551
948.293	0.0145764
948.371	0.0145483
948.450	0.0145184
948.528	0.0145574
948.606	0.0144540
948.684	0.0145827
948.762	0.0145497
948.840	0.0144785
948.918	0.0143734
948.996	0.0144868
949.075	0.0146653
949.153	0.0144458
949.231	0.0143183
949.309	0.0144936
949.387	0.0144140
949.465	0.0144875
949.543	0.0145317
949.621	0.0144088
949.700	0.0143170
949.778	0.0144257
949.856	0.0143754
949.934	0.0143486
950.012	0.0143798
950.090	0.0144567
950.168	0.0144857
950.246	0.0145253
950.325	0.0145333
950.403	0.0143952
950.481	0.0143983
950.559	0.0144702
950.637	0.0144277
950.715	0.0145908
950.793	0.0145679
950.871	0.0144456
950.950	0.0146134
951.028	0.0144782
951.106	0.0143929
951.184	0.0143992
951.262	0.0144701
951.340	0.0144887
951.418	0.0144586
951.496	0.0144188
951.575	0.0144576
951.653	0.0146234
951.731	0.0143732
951.809	0.0145129
951.887	0.0144637
951.965	0.0145072
952.043	0.0144790
952.121	0.0145493
952.200	0.0144686
952.278	0.0144085
952.356	0.0143569
952.434	0.0145660
952.512	0.0144303
952.590	0.0143861
952.668	0.0145750
952.746	0.0145203
952.825	0.0145348
952.903	0.0145598
952.981	0.0143070
953.059	0.0145232
953.137	0.0145192
953.215	0.0144932
953.293	0.0143549
953.371	0.0145203
953.450	0.0145898
953.528	0.0144539
953.606	0.0145188
953.684	0.0145266
953.762	0.0144325
953.840	0.0144562
953.918	0.0145428
953.996	0.0146355
954.075	0.0145490
954.153	0.0144986
954.231	0.0145041
954.309	0.0144231
954.387	0.0144656
954.465	0.0145374
954.543	0.0145694
954.621	0.0145683
954.700	0.0145176
954.778	0.0145624
954.856	0.0144301
954.934	0.0144825
955.012	0.0146377
955.090	0.0145560
955.168	0.0144477
955.246	0.0145064
955.325	0.0143110
955.403	0.0145654
955.481	0.0145125
955.559	0.0145622
955.637	0.0146395
955.715	0.0145997
955.793	0.0144592
955.871	0.0144693
955.950	0.0144070
956.028	0.0145107
956.106	0.0146559
956.184	0.0147164
956.262	0.0145094
956.340	0.0144096
956.418	0.0144962
956.496	0.0145553
956.575	0.0145515
956.653	0.0145021
956.731	0.0145533
956.809	0.0145967
956.887	0.0144659
956.965	0.0145954
957.043	0.0144627
957.121	0.0145386
957.200	0.0145758
957.278	0.0145734
957.356	0.0145901
957.434	0.0146131
957.512	0.0145179
957.590	0.0144211
957.668	0.0145419
957.746	0.0146099
957.825	0.0145299
957.903	0.0145413
957.981	0.0146606
958.059	0.0145831
958.137	0.0146185
958.215	0.0145625
958.293	0.0143835
958.371	0.0145375
958.450	0.0144698
958.528	0.0145778
958.606	0.0145591
958.684	0.0146329
958.762	0.0143394
958.840	0.0145969
958.918	0.0146786
958.996	0.0145433
959.075	0.0145740
959.153	0.0146289
959.231	0.0147343
959.309	0.0146784
959.387	0.0146358
959.465	0.0145518
959.543	0.0143934
959.621	0.0146154
959.700	0.0144909
959.778	0.0147347
959.856	0.0144268
959.934	0.0144653
960.012	0.0146129
960.090	0.0145792
960.168	0.0146173
960.246	0.0146167
960.325	0.0145794
960.403	0.0145726
960.481	0.0145109
960.559	0.0144888
960.637	0.0146115
960.715	0.0145367
960.793	0.0145638
960.871	0.0146777
960.950	0.0145360
961.028	0.0145032
961.106	0.0145820
961.184	0.0144690
961.262	0.0144505
961.340	0.0145614
961.418	0.0146526
961.496	0.0145327
961.575	0.0145145
961.653	0.0146550
961.731	0.0146740
961.809	0.0144878
961.887	0.0145617
961.965	0.0145234
962.043	0.0144250
962.121	0.0145109
962.200	0.0144874
962.278	0.0145492
962.356	0.0145605
962.434	0.0144771
962.512	0.0145538
962.590	0.0143652
962.668	0.0145574
962.746	0.0145569
962.825	0.0145301
962.903	0.0144828
962.981	0.0143435
963.059	0.0144635
963.137	0.0145533
963.215	0.0145425
963.293	0.0146185
963.371	0.0145466
963.450	0.0144455
963.528	0.0144756
963.606	0.0144594
963.684	0.0145345
963.762	0.0146322
963.840	0.0145424
963.918	0.0144218
963.996	0.0146229
964.075	0.0146409
964.153	0.0144562
964.231	0.0145082
964.309	0.0145702
964.387	0.0144974
964.465	0.0144621
964.543	0.0144925
964.621	0.0145406
964.700	0.0145511
964.778	0.0144682
964.856	0.0145453
964.934	0.0146475
965.012	0.0144669
965.090	0.0145792
965.168	0.0145361
965.246	0.0142787
965.325	0.0144631
965.403	0.0145468
965.481	0.0144734
965.559	0.0144543
965.637	0.0143597
965.715	0.0144126
965.793	0.0143935
965.871	0.0142735
965.950	0.0142571
966.028	0.0143047
966.106	0.0145032
966.184	0.0144092
966.262	0.0143622
966.340	0.0143742
966.418	0.0143858
966.496	0.0144239
966.575	0.0144170
966.653	0.0144907
966.731	0.0143799
966.809	0.0144714
966.887	0.0144424
966.965	0.0144994
967.043	0.0143752
967.121	0.0145344
967.200	0.0143563
967.278	0.0145639
967.356	0.0144916
967.434	0.0143233
967.512	0.0145315
967.590	0.0144628
967.668	0.0143806
967.746	0.0144787
967.825	0.0144375
967.903	0.0143743
967.981	0.0145306
968.059	0.0145311
968.137	0.0145299
968.215	0.0144817
968.293	0.0144783
968.371	0.0145617
968.450	0.0143988
968.528	0.0145397
968.606	0.0145215
968.684	0.0146239
968.762	0.0145772
968.840	0.0146095
968.918	0.0144138
968.996	0.0144219
969.075	0.0145329
969.153	0.0145642
969.231	0.0145123
969.309	0.0145029
969.387	0.0145328
969.465	0.0144810
969.543	0.0145049
969.621	0.0144011
969.700	0.0144720
969.778	0.0144586
969.856	0.0145445
969.934	0.0144428
970.012	0.0144810
970.090	0.0145173
970.168	0.0144376
970.246	0.0144907
970.325	0.0145869
970.403	0.0144297
970.481	0.0143629
970.559	0.0145252
970.637	0.0144341
970.715	0.0145063
970.793	0.0146070
970.871	0.0144311
970.950	0.0144750
971.028	0.0144212
971.106	0.0144676
971.184	0.0145672
971.262	0.0144541
971.340	0.0142434
971.418	0.0144353
971.496	0.0144680
971.575	0.0143701
971.653	0.0146099
971.731	0.0145614
971.809	0.0145216
971.887	0.0145570
971.965	0.0143145
972.043	0.0145242
972.121	0.0145043
972.200	0.0145860
972.278	0.0144735
972.356	0.0144921
972.434	0.0143581
972.512	0.0143964
972.590	0.0144606
972.668	0.0144320
972.746	0.0144458
972.825	0.0143933
972.903	0.0144219
972.981	0.0144921
973.059	0.0143865
973.137	0.0144672
973.215	0.0143042
973.293	0.0142941
973.371	0.0143518
973.450	0.0143790
973.528	0.0144022
973.606	0.0144002
973.684	0.0142993
973.762	0.0142719
973.840	0.0144372
973.918	0.0143192
973.996	0.0144917
974.075	0.0143049
974.153	0.0144468
974.231	0.0144973
974.309	0.0145102
974.387	0.0144054
974.465	0.0144926
974.543	0.0145771
974.621	0.0144019
974.700	0.0144814
974.778	0.0144640
974.856	0.0145187
974.934	0.0145027
975.012	0.0144617
975.090	0.0146005
975.168	0.0146770
975.246	0.0145162
975.325	0.0145193
975.403	0.0144994
975.481	0.0143995
975.559	0.0146274
975.637	0.0146043
975.715	0.0146126
975.793	0.0144831
975.871	0.0145748
975.950	0.0144529
976.028	0.0145585
976.106	0.0144735
976.184	0.0145109
976.262	0.0145323
976.340	0.0144482
976.418	0.0144054
976.496	0.0145207
976.575	0.0146444
976.653	0.0145192
976.731	0.0146589
976.809	0.0144487
976.887	0.0145866
976.965	0.0145784
977.043	0.0144501
977.121	0.0144453
977.200	0.0145147
977.278	0.0146210
977.356	0.0145340
977.434	0.0144740
977.512	0.0144577
977.590	0.0145339
977.668	0.0144576
977.746	0.0143726
977.825	0.0143876
977.903	0.0144630
977.981	0.0144726
978.059	0.0143945
978.137	0.0146798
978.215	0.0145261
978.293	0.0144853
978.371	0.0146656
978.450	0.0145506
978.528	0.0147395
978.606	0.0145012
978.684	0.0144719
978.762	0.0145966
978.840	0.0145261
978.918	0.0145068
978.996	0.0144781
979.075	0.0144280
979.153	0.0145872
979.231	0.0144731
979.309	0.0143692
979.387	0.0144550
979.465	0.0144420
979.543	0.0145072
979.621	0.0144259
979.700	0.0145992
979.778	0.0144714
979.856	0.0144588
979.934	0.0143950
980.012	0.0145210
980.090	0.0144191
980.168	0.0144395
980.246	0.0143591
980.325	0.0143707
980.403	0.0144347
980.481	0.0144075
980.559	0.0143285
980.637	0.0143838
980.715	0.0144259
980.793	0.0144284
980.871	0.0142767
980.950	0.0144239
981.028	0.0143315
981.106	0.0143794
981.184	0.0143971
981.262	0.0144459
981.340	0.0144098
981.418	0.0144363
981.496	0.0144201
981.575	0.0145964
981.653	0.0143835
981.731	0.0144054
981.809	0.0145712
981.887	0.0144652
981.965	0.0144883
982.043	0.0144969
982.121	0.0144630
982.200	0.0143700
982.278	0.0145095
982.356	0.0145162
982.434	0.0143384
982.512	0.0144102
982.590	0.0144975
982.668	0.0145375
982.746	0.0144591
982.825	0.0144677
982.903	0.0144038
982.981	0.0143932
983.059	0.0145347
983.137	0.0143917
983.215	0.0143136
983.293	0.0142951
983.371	0.0143182
983.450	0.0145126
983.528	0.0143739
983.606	0.0144090
983.684	0.0144943
983.762	0.0143990
983.840	0.0145182
983.918	0.0143558
983.996	0.0143687
984.075	0.0143884
984.153	0.0144092
984.231	0.0142988
984.309	0.0146067
984.387	0.0145217
984.465	0.0144390
984.543	0.0143192
984.621	0.0145097
984.700	0.0144172
984.778	0.0143741
984.856	0.0143807
984.934	0.0145451
985.012	0.0143439
985.090	0.0144240
985.168	0.0143409
985.246	0.0145851
985.325	0.0144891
985.403	0.0144060
985.481	0.0144481
985.559	0.0143816
985.637	0.0144785
985.715	0.0145068
985.793	0.0145423
985.871	0.0144798
985.950	0.0144676
986.028	0.0144509
986.106	0.0146091
986.184	0.0145507
986.262	0.0145935
986.340	0.0144740
986.418	0.0146045
986.496	0.0144785
986.575	0.0144419
986.653	0.0144430
986.731	0.0145101
986.809	0.0145072
986.887	0.0145748
986.965	0.0144527
987.043	0.0145774
987.121	0.0145615
987.200	0.0144805
987.278	0.0145344
987.356	0.0146049
987.434	0.0146179
987.512	0.0145512
987.590	0.0144499
987.668	0.0146487
987.746	0.0145673
987.825	0.0144910
987.903	0.0146677
987.981	0.0145233
988.059	0.0145386
988.137	0.0145972
988.215	0.0145661
988.293	0.0144672
988.371	0.0145480
988.450	0.0143967
988.528	0.0144102
988.606	0.0145933
988.684	0.0145463
988.762	0.0145126
988.840	0.0145992
988.918	0.0144166
988.996	0.0145466
989.075	0.0144067
989.153	0.0143749
989.231	0.0144913
989.309	0.0144570
989.387	0.0143710
989.465	0.0142319
989.543	0.0143044
989.621	0.0144328
989.700	0.0144474
989.778	0.0143549
989.856	0.0144098
989.934	0.0144447
990.012	0.0143717
990.090	0.0144997
990.168	0.0143605
990.246	0.0144607
990.325	0.0144686
990.403	0.0144694
990.481	0.0143943
990.559	0.0144208
990.637	0.0143710
990.715	0.0144220
990.793	0.0145214
990.871	0.0143727
990.950	0.0144311
991.028	0.0144980
991.106	0.0145155
991.184	0.0145309
991.262	0.0144678
991.340	0.0144228
991.418	0.0144088
991.496	0.0144450
991.575	0.0143571
991.653	0.0144341
991.731	0.0144608
991.809	0.0145502
991.887	0.0144345
991.965	0.0143967
992.043	0.0144954
992.121	0.0145480
992.200	0.0144125
992.278	0.0144615
992.356	0.0145991
992.434	0.0145346
992.512	0.0144736
992.590	0.0145108
992.668	0.0143506
992.746	0.0144814
992.825	0.0146385
992.903	0.0145541
992.981	0.0145553
993.059	0.0146272
993.137	0.0144785
993.215	0.0145300
993.293	0.0146228
993.371	0.0145145
993.450	0.0144672
993.528	0.0145443
993.606	0.0145724
993.684	0.0144544
993.762	0.0143842
993.840	0.0144641
993.918	0.0144226
993.996	0.0145987
994.075	0.0143491
994.153	0.0144891
994.231	0.0145319
994.309	0.0144499
994.387	0.0144360
994.465	0.0144371
994.543	0.0144319
994.621	0.0144724
994.700	0.0145190
994.778	0.0145559
994.856	0.0144794
994.934	0.0143769
995.012	0.0144122
995.090	0.0146535
995.168	0.0145161
995.246	0.0143851
995.325	0.0143507
995.403	0.0144003
995.481	0.0144968
995.559	0.0144329
995.637	0.0145290
995.715	0.0144777
995.793	0.0144521
995.871	0.0144794
995.950	0.0146363
996.028	0.0145341
996.106	0.0144701
996.184	0.0145267
996.262	0.0144850
996.340	0.0144779
996.418	0.0145633
996.496	0.0145537
996.575	0.0144852
996.653	0.0144963
996.731	0.0145338
996.809	0.0145558
996.887	0.0144798
996.965	0.0143331
997.043	0.0144585
997.121	0.0145348
997.200	0.0145397
997.278	0.0145596
997.356	0.0144684
997.434	0.0145976
997.512	0.0144090
997.590	0.0145315
997.668	0.0145502
997.746	0.0144160
997.825	0.0145617
997.903	0.0145482
997.981	0.0144211
998.059	0.0144444
998.137	0.0143941
998.215	0.0144141
998.293	0.0144406
998.371	0.0146510
998.450	0.0145451
998.528	0.0144632
998.606	0.0145290
998.684	0.0146159
998.762	0.0145285
998.840	0.0146307
998.918	0.0145694
