05/04/2022	21:44:24	Ver.	4.1	UNKNOWN
Optical Delay	630.015849	Delta X		0.078125	Sweeps	1	Scan Rate	0/0
Coordinates	Axis 1	NaN	Axis 2	NaN	Axis 3	NaN	Axis 4	NaN	Axis 5	NaN	Axis 6	0.000000
TX Power	0.000000	RX Power	0.000000

630.016	0.0141679
630.094	0.0142260
630.172	0.0142222
630.250	0.0142209
630.328	0.0140608
630.406	0.0141979
630.485	0.0142682
630.563	0.0142671
630.641	0.0142971
630.719	0.0142958
630.797	0.0142427
630.875	0.0142692
630.953	0.0142114
631.031	0.0141190
631.110	0.0142004
631.188	0.0142425
631.266	0.0141658
631.344	0.0141834
631.422	0.0142329
631.500	0.0142102
631.578	0.0141978
631.656	0.0142179
631.735	0.0141122
631.813	0.0141439
631.891	0.0140425
631.969	0.0141784
632.047	0.0141169
632.125	0.0140479
632.203	0.0141756
632.281	0.0142674
632.360	0.0142152
632.438	0.0141964
632.516	0.0142251
632.594	0.0140555
632.672	0.0141124
632.750	0.0140665
632.828	0.0141707
632.906	0.0142043
632.985	0.0141888
633.063	0.0142647
633.141	0.0140348
633.219	0.0141743
633.297	0.0141932
633.375	0.0141145
633.453	0.0140959
633.531	0.0141987
633.610	0.0141042
633.688	0.0141199
633.766	0.0141052
633.844	0.0141067
633.922	0.0140991
634.000	0.0140896
634.078	0.0140556
634.156	0.0141461
634.235	0.0141200
634.313	0.0140794
634.391	0.0142042
634.469	0.0140389
634.547	0.0140733
634.625	0.0143176
634.703	0.0142075
634.781	0.0141156
634.860	0.0141199
634.938	0.0140401
635.016	0.0141131
635.094	0.0141582
635.172	0.0141492
635.250	0.0141048
635.328	0.0141147
635.406	0.0140570
635.485	0.0141930
635.563	0.0140671
635.641	0.0139005
635.719	0.0140681
635.797	0.0141267
635.875	0.0141978
635.953	0.0141323
636.031	0.0140189
636.110	0.0140997
636.188	0.0141105
636.266	0.0141984
636.344	0.0141724
636.422	0.0140845
636.500	0.0141021
636.578	0.0140963
636.656	0.0140859
636.735	0.0141776
636.813	0.0140611
636.891	0.0140301
636.969	0.0141165
637.047	0.0140958
637.125	0.0140050
637.203	0.0140565
637.281	0.0140759
637.360	0.0140970
637.438	0.0140486
637.516	0.0140146
637.594	0.0140608
637.672	0.0139887
637.750	0.0140232
637.828	0.0140289
637.906	0.0140828
637.985	0.0141324
638.063	0.0140006
638.141	0.0139916
638.219	0.0140407
638.297	0.0138394
638.375	0.0140101
638.453	0.0141291
638.531	0.0141492
638.610	0.0140056
638.688	0.0140350
638.766	0.0140279
638.844	0.0139838
638.922	0.0141512
639.000	0.0141673
639.078	0.0140473
639.156	0.0139889
639.235	0.0141685
639.313	0.0139594
639.391	0.0139560
639.469	0.0139803
639.547	0.0141360
639.625	0.0140696
639.703	0.0141512
639.781	0.0141422
639.860	0.0141434
639.938	0.0141750
640.016	0.0142580
640.094	0.0141380
640.172	0.0140449
640.250	0.0141354
640.328	0.0141932
640.406	0.0141044
640.485	0.0141231
640.563	0.0140678
640.641	0.0141161
640.719	0.0140407
640.797	0.0140955
640.875	0.0143139
640.953	0.0142064
641.031	0.0141565
641.110	0.0141163
641.188	0.0141538
641.266	0.0142607
641.344	0.0141311
641.422	0.0141547
641.500	0.0141378
641.578	0.0142710
641.656	0.0142779
641.735	0.0141835
641.813	0.0143214
641.891	0.0141386
641.969	0.0141735
642.047	0.0142724
642.125	0.0143150
642.203	0.0142770
642.281	0.0143365
642.360	0.0142068
642.438	0.0141553
642.516	0.0143246
642.594	0.0142924
642.672	0.0141929
642.750	0.0142516
642.828	0.0143178
642.906	0.0142188
642.985	0.0141942
643.063	0.0142642
643.141	0.0143902
643.219	0.0144938
643.297	0.0142891
643.375	0.0142450
643.453	0.0142159
643.531	0.0143159
643.610	0.0143776
643.688	0.0141624
643.766	0.0143958
643.844	0.0143490
643.922	0.0143245
644.000	0.0143105
644.078	0.0141753
644.156	0.0141747
644.235	0.0143204
644.313	0.0142188
644.391	0.0142705
644.469	0.0142616
644.547	0.0142516
644.625	0.0142612
644.703	0.0142491
644.781	0.0142703
644.860	0.0142854
644.938	0.0142989
645.016	0.0143367
645.094	0.0142716
645.172	0.0141073
645.250	0.0143266
645.328	0.0143535
645.406	0.0141844
645.485	0.0141630
645.563	0.0142435
645.641	0.0143415
645.719	0.0142655
645.797	0.0142944
645.875	0.0142449
645.953	0.0142681
646.031	0.0142391
646.110	0.0143853
646.188	0.0142440
646.266	0.0142203
646.344	0.0142206
646.422	0.0142392
646.500	0.0143222
646.578	0.0143549
646.656	0.0143005
646.735	0.0142967
646.813	0.0142799
646.891	0.0142038
646.969	0.0142306
647.047	0.0142265
647.125	0.0142789
647.203	0.0141502
647.281	0.0141614
647.360	0.0142655
647.438	0.0141640
647.516	0.0140974
647.594	0.0141727
647.672	0.0142180
647.750	0.0142048
647.828	0.0141959
647.906	0.0141373
647.985	0.0141874
648.063	0.0141507
648.141	0.0140365
648.219	0.0142928
648.297	0.0143306
648.375	0.0141820
648.453	0.0141389
648.531	0.0141602
648.610	0.0141473
648.688	0.0142970
648.766	0.0140808
648.844	0.0141281
648.922	0.0142695
649.000	0.0141672
649.078	0.0140923
649.156	0.0140454
649.235	0.0141631
649.313	0.0142136
649.391	0.0141739
649.469	0.0141167
649.547	0.0140747
649.625	0.0141602
649.703	0.0141661
649.781	0.0140295
649.860	0.0142741
649.938	0.0141626
650.016	0.0141297
650.094	0.0142050
650.172	0.0143114
650.250	0.0141975
650.328	0.0142381
650.406	0.0141132
650.485	0.0141161
650.563	0.0141460
650.641	0.0143269
650.719	0.0142041
650.797	0.0141428
650.875	0.0141507
650.953	0.0142868
651.031	0.0142527
651.110	0.0142597
651.188	0.0141257
651.266	0.0143047
651.344	0.0142538
651.422	0.0142037
651.500	0.0143354
651.578	0.0143394
651.656	0.0143354
651.735	0.0144121
651.813	0.0142652
651.891	0.0142522
651.969	0.0142809
652.047	0.0142916
652.125	0.0142432
652.203	0.0143744
652.281	0.0142122
652.360	0.0142825
652.438	0.0143938
652.516	0.0142115
652.594	0.0142088
652.672	0.0142790
652.750	0.0143143
652.828	0.0142507
652.906	0.0142117
652.985	0.0142783
653.063	0.0144726
653.141	0.0144816
653.219	0.0143022
653.297	0.0142049
653.375	0.0143018
653.453	0.0143114
653.531	0.0143786
653.610	0.0143423
653.688	0.0143922
653.766	0.0143164
653.844	0.0143645
653.922	0.0143491
654.000	0.0142458
654.078	0.0142175
654.156	0.0143514
654.235	0.0143120
654.313	0.0142169
654.391	0.0142464
654.469	0.0142421
654.547	0.0144069
654.625	0.0142107
654.703	0.0142320
654.781	0.0142867
654.860	0.0142216
654.938	0.0142709
655.016	0.0142630
655.094	0.0141861
655.172	0.0143071
655.250	0.0143454
655.328	0.0143082
655.406	0.0141213
655.485	0.0142170
655.563	0.0142673
655.641	0.0142749
655.719	0.0144472
655.797	0.0142522
655.875	0.0140553
655.953	0.0142343
656.031	0.0141924
656.110	0.0141956
656.188	0.0142935
656.266	0.0142249
656.344	0.0142207
656.422	0.0141930
656.500	0.0141537
656.578	0.0142248
656.656	0.0142452
656.735	0.0141995
656.813	0.0143333
656.891	0.0141660
656.969	0.0140723
657.047	0.0141653
657.125	0.0142641
657.203	0.0140631
657.281	0.0141921
657.360	0.0142336
657.438	0.0141170
657.516	0.0141191
657.594	0.0141533
657.672	0.0140372
657.750	0.0140213
657.828	0.0141541
657.906	0.0141117
657.985	0.0140983
658.063	0.0140698
658.141	0.0141756
658.219	0.0142594
658.297	0.0141181
658.375	0.0139845
658.453	0.0141508
658.531	0.0142731
658.610	0.0140385
658.688	0.0141473
658.766	0.0141341
658.844	0.0142439
658.922	0.0142113
659.000	0.0142619
659.078	0.0142513
659.156	0.0141670
659.235	0.0142254
659.313	0.0143006
659.391	0.0142800
659.469	0.0142989
659.547	0.0141830
659.625	0.0141711
659.703	0.0141638
659.781	0.0140983
659.860	0.0141467
659.938	0.0140958
660.016	0.0142287
660.094	0.0141914
660.172	0.0141812
660.250	0.0142226
660.328	0.0140974
660.406	0.0141190
660.485	0.0141566
660.563	0.0141240
660.641	0.0141262
660.719	0.0140628
660.797	0.0141474
660.875	0.0141897
660.953	0.0142970
661.031	0.0141053
661.110	0.0142043
661.188	0.0143191
661.266	0.0143524
661.344	0.0142466
661.422	0.0142812
661.500	0.0141856
661.578	0.0143761
661.656	0.0141331
661.735	0.0141905
661.813	0.0143219
661.891	0.0142476
661.969	0.0141497
662.047	0.0141101
662.125	0.0141241
662.203	0.0141582
662.281	0.0141525
662.360	0.0142007
662.438	0.0141650
662.516	0.0140878
662.594	0.0140723
662.672	0.0142045
662.750	0.0140292
662.828	0.0141570
662.906	0.0141212
662.985	0.0141915
663.063	0.0142205
663.141	0.0141225
663.219	0.0141689
663.297	0.0142861
663.375	0.0141483
663.453	0.0143513
663.531	0.0141872
663.610	0.0141963
663.688	0.0141375
663.766	0.0141219
663.844	0.0140294
663.922	0.0140925
664.000	0.0141513
664.078	0.0140891
664.156	0.0141264
664.235	0.0141892
664.313	0.0142090
664.391	0.0141591
664.469	0.0141159
664.547	0.0140423
664.625	0.0140475
664.703	0.0143179
664.781	0.0143260
664.860	0.0141146
664.938	0.0141134
665.016	0.0142735
665.094	0.0142072
665.172	0.0140680
665.250	0.0141608
665.328	0.0142883
665.406	0.0142928
665.485	0.0141504
665.563	0.0141539
665.641	0.0141402
665.719	0.0141344
665.797	0.0143244
665.875	0.0142477
665.953	0.0143158
666.031	0.0142067
666.110	0.0141965
666.188	0.0141913
666.266	0.0140714
666.344	0.0142116
666.422	0.0141793
666.500	0.0140166
666.578	0.0141566
666.656	0.0140419
666.735	0.0143163
666.813	0.0142229
666.891	0.0142316
666.969	0.0142474
667.047	0.0142498
667.125	0.0142046
667.203	0.0142953
667.281	0.0140854
667.360	0.0142216
667.438	0.0141731
667.516	0.0142231
667.594	0.0143053
667.672	0.0142413
667.750	0.0143004
667.828	0.0142679
667.906	0.0142856
667.985	0.0143405
668.063	0.0142398
668.141	0.0143214
668.219	0.0143806
668.297	0.0142891
668.375	0.0142230
668.453	0.0142574
668.531	0.0144135
668.610	0.0143214
668.688	0.0143454
668.766	0.0144346
668.844	0.0143089
668.922	0.0143461
669.000	0.0142732
669.078	0.0141882
669.156	0.0144175
669.235	0.0143442
669.313	0.0141466
669.391	0.0141700
669.469	0.0141891
669.547	0.0143455
669.625	0.0141022
669.703	0.0139611
669.781	0.0141544
669.860	0.0141551
669.938	0.0139716
670.016	0.0140710
670.094	0.0140185
670.172	0.0141361
670.250	0.0140941
670.328	0.0141573
670.406	0.0142642
670.485	0.0142638
670.563	0.0141715
670.641	0.0142576
670.719	0.0144021
670.797	0.0143879
670.875	0.0143036
670.953	0.0144448
671.031	0.0142061
671.110	0.0142678
671.188	0.0143413
671.266	0.0142593
671.344	0.0142018
671.422	0.0143083
671.500	0.0143359
671.578	0.0141973
671.656	0.0141812
671.735	0.0141679
671.813	0.0143056
671.891	0.0142000
671.969	0.0142417
672.047	0.0143330
672.125	0.0142573
672.203	0.0143643
672.281	0.0141070
672.360	0.0142083
672.438	0.0140768
672.516	0.0140597
672.594	0.0141327
672.672	0.0140972
672.750	0.0140954
672.828	0.0141605
672.906	0.0141846
672.985	0.0142419
673.063	0.0142313
673.141	0.0144830
673.219	0.0143311
673.297	0.0143030
673.375	0.0144782
673.453	0.0144866
673.531	0.0144354
673.610	0.0143177
673.688	0.0142699
673.766	0.0143053
673.844	0.0141405
673.922	0.0140806
674.000	0.0139062
674.078	0.0139450
674.156	0.0138557
674.235	0.0137228
674.313	0.0137036
674.391	0.0137489
674.469	0.0137243
674.547	0.0136510
674.625	0.0140437
674.703	0.0139245
674.781	0.0142135
674.860	0.0144044
674.938	0.0144807
675.016	0.0145599
675.094	0.0146568
675.172	0.0146263
675.250	0.0146435
675.328	0.0145966
675.406	0.0143573
675.485	0.0143623
675.563	0.0142398
675.641	0.0141302
675.719	0.0141386
675.797	0.0138210
675.875	0.0137918
675.953	0.0139302
676.031	0.0140317
676.110	0.0139632
676.188	0.0141431
676.266	0.0142128
676.344	0.0142580
676.422	0.0144641
676.500	0.0145196
676.578	0.0144274
676.656	0.0145805
676.735	0.0145310
676.813	0.0145059
676.891	0.0145615
676.969	0.0145992
677.047	0.0144027
677.125	0.0142240
677.203	0.0141527
677.281	0.0140766
677.360	0.0138762
677.438	0.0137856
677.516	0.0136507
677.594	0.0135654
677.672	0.0136179
677.750	0.0138036
677.828	0.0139519
677.906	0.0138122
677.985	0.0139283
678.063	0.0140240
678.141	0.0143119
678.219	0.0143371
678.297	0.0143085
678.375	0.0144375
678.453	0.0144511
678.531	0.0143999
678.610	0.0145496
678.688	0.0145296
678.766	0.0142742
678.844	0.0144942
678.922	0.0144540
679.000	0.0144698
679.078	0.0142912
679.156	0.0143486
679.235	0.0144641
679.313	0.0141694
679.391	0.0142491
679.469	0.0142348
679.547	0.0140816
679.625	0.0141505
679.703	0.0140821
679.781	0.0141787
679.860	0.0141216
679.938	0.0140894
680.016	0.0140723
680.094	0.0142293
680.172	0.0142775
680.250	0.0143148
680.328	0.0143292
680.406	0.0144405
680.485	0.0141914
680.563	0.0141654
680.641	0.0140996
680.719	0.0138734
680.797	0.0140598
680.875	0.0139565
680.953	0.0137280
681.031	0.0139335
681.110	0.0140541
681.188	0.0140702
681.266	0.0143438
681.344	0.0144933
681.422	0.0146988
681.500	0.0148296
681.578	0.0148140
681.656	0.0149899
681.735	0.0148164
681.813	0.0147787
681.891	0.0146330
681.969	0.0143070
682.047	0.0140768
682.125	0.0138671
682.203	0.0136594
682.281	0.0132893
682.360	0.0133327
682.438	0.0130363
682.516	0.0129959
682.594	0.0128412
682.672	0.0130354
682.750	0.0131511
682.828	0.0133296
682.906	0.0137953
682.985	0.0140317
683.063	0.0142673
683.141	0.0146069
683.219	0.0148643
683.297	0.0149577
683.375	0.0149958
683.453	0.0152127
683.531	0.0152876
683.610	0.0151444
683.688	0.0149310
683.766	0.0147023
683.844	0.0145676
683.922	0.0145021
684.000	0.0143949
684.078	0.0141903
684.156	0.0140976
684.235	0.0140083
684.313	0.0140025
684.391	0.0141225
684.469	0.0142639
684.547	0.0141302
684.625	0.0142696
684.703	0.0143444
684.781	0.0142541
684.860	0.0141348
684.938	0.0139044
685.016	0.0137830
685.094	0.0136553
685.172	0.0135138
685.250	0.0132279
685.328	0.0130032
685.406	0.0132471
685.485	0.0130855
685.563	0.0129686
685.641	0.0131318
685.719	0.0135371
685.797	0.0137299
685.875	0.0138462
685.953	0.0142053
686.031	0.0145497
686.110	0.0148017
686.188	0.0150037
686.266	0.0150608
686.344	0.0152902
686.422	0.0152216
686.500	0.0152299
686.578	0.0150098
686.656	0.0151556
686.735	0.0149490
686.813	0.0147749
686.891	0.0146950
686.969	0.0144563
687.047	0.0140682
687.125	0.0138288
687.203	0.0138487
687.281	0.0136549
687.360	0.0135741
687.438	0.0136514
687.516	0.0135136
687.594	0.0135278
687.672	0.0135625
687.750	0.0135148
687.828	0.0135875
687.906	0.0136576
687.985	0.0135146
688.063	0.0135567
688.141	0.0135984
688.219	0.0134789
688.297	0.0135813
688.375	0.0136171
688.453	0.0137277
688.531	0.0137740
688.610	0.0139716
688.688	0.0140168
688.766	0.0142711
688.844	0.0144193
688.922	0.0146013
689.000	0.0147198
689.078	0.0150185
689.156	0.0150243
689.235	0.0151470
689.313	0.0151401
689.391	0.0151218
689.469	0.0150695
689.547	0.0148602
689.625	0.0148415
689.703	0.0145989
689.781	0.0143874
689.860	0.0142443
689.938	0.0141129
690.016	0.0138864
690.094	0.0136774
690.172	0.0136390
690.250	0.0135559
690.328	0.0135867
690.406	0.0135316
690.485	0.0136762
690.563	0.0137789
690.641	0.0138400
690.719	0.0138732
690.797	0.0139424
690.875	0.0140899
690.953	0.0141853
691.031	0.0141994
691.110	0.0141543
691.188	0.0142421
691.266	0.0140376
691.344	0.0140536
691.422	0.0140965
691.500	0.0142101
691.578	0.0142015
691.656	0.0141659
691.735	0.0141932
691.813	0.0143591
691.891	0.0143218
691.969	0.0143395
692.047	0.0143331
692.125	0.0144247
692.203	0.0141991
692.281	0.0142344
692.360	0.0142851
692.438	0.0142358
692.516	0.0141140
692.594	0.0139470
692.672	0.0139592
692.750	0.0139192
692.828	0.0136928
692.906	0.0136009
692.985	0.0137682
693.063	0.0134692
693.141	0.0135313
693.219	0.0136626
693.297	0.0136945
693.375	0.0137216
693.453	0.0138580
693.531	0.0141347
693.610	0.0142849
693.688	0.0143778
693.766	0.0145310
693.844	0.0146145
693.922	0.0147192
694.000	0.0148252
694.078	0.0149475
694.156	0.0147873
694.235	0.0146562
694.313	0.0145335
694.391	0.0145556
694.469	0.0142799
694.547	0.0139727
694.625	0.0137753
694.703	0.0136331
694.781	0.0134263
694.860	0.0132504
694.938	0.0135013
695.016	0.0133298
695.094	0.0134325
695.172	0.0135812
695.250	0.0136656
695.328	0.0138903
695.406	0.0140194
695.485	0.0141386
695.563	0.0142291
695.641	0.0145709
695.719	0.0145341
695.797	0.0145373
695.875	0.0145207
695.953	0.0144485
696.031	0.0146896
696.110	0.0144371
696.188	0.0142444
696.266	0.0141999
696.344	0.0141969
696.422	0.0141981
696.500	0.0142390
696.578	0.0142822
696.656	0.0142034
696.735	0.0143192
696.813	0.0145940
696.891	0.0145570
696.969	0.0145167
697.047	0.0145587
697.125	0.0144852
697.203	0.0143006
697.281	0.0142110
697.360	0.0141862
697.438	0.0139950
697.516	0.0139111
697.594	0.0139090
697.672	0.0136647
697.750	0.0136797
697.828	0.0136089
697.906	0.0136810
697.985	0.0138614
698.063	0.0139030
698.141	0.0140169
698.219	0.0142268
698.297	0.0143757
698.375	0.0144160
698.453	0.0144814
698.531	0.0144791
698.610	0.0145000
698.688	0.0145267
698.766	0.0143773
698.844	0.0142592
698.922	0.0141424
699.000	0.0139159
699.078	0.0138210
699.156	0.0137991
699.235	0.0136391
699.313	0.0136621
699.391	0.0134348
699.469	0.0135345
699.547	0.0135666
699.625	0.0135694
699.703	0.0136524
699.781	0.0138789
699.860	0.0139659
699.938	0.0139147
700.016	0.0139671
700.094	0.0139794
700.172	0.0140170
700.250	0.0140637
700.328	0.0141458
700.406	0.0141518
700.485	0.0142366
700.563	0.0143043
700.641	0.0144351
700.719	0.0145484
700.797	0.0144366
700.875	0.0146117
700.953	0.0146596
701.031	0.0147412
701.110	0.0146429
701.188	0.0146315
701.266	0.0145786
701.344	0.0144913
701.422	0.0142606
701.500	0.0141805
701.578	0.0142587
701.656	0.0141673
701.735	0.0139969
701.813	0.0140125
701.891	0.0139759
701.969	0.0138664
702.047	0.0138597
702.125	0.0139491
702.203	0.0139202
702.281	0.0139991
702.360	0.0138214
702.438	0.0139046
702.516	0.0140771
702.594	0.0138548
702.672	0.0139249
702.750	0.0140041
702.828	0.0138116
702.906	0.0137413
702.985	0.0139194
703.063	0.0139158
703.141	0.0139597
703.219	0.0139842
703.297	0.0140949
703.375	0.0141562
703.453	0.0141260
703.531	0.0141447
703.610	0.0141286
703.688	0.0144421
703.766	0.0145631
703.844	0.0143370
703.922	0.0146420
704.000	0.0144951
704.078	0.0145562
704.156	0.0144173
704.235	0.0144028
704.313	0.0141187
704.391	0.0141108
704.469	0.0141791
704.547	0.0140725
704.625	0.0141262
704.703	0.0140050
704.781	0.0140317
704.860	0.0140254
704.938	0.0140202
705.016	0.0141135
705.094	0.0141318
705.172	0.0141010
705.250	0.0141014
705.328	0.0141117
705.406	0.0140168
705.485	0.0139721
705.563	0.0139989
705.641	0.0139816
705.719	0.0138874
705.797	0.0139328
705.875	0.0138358
705.953	0.0137421
706.031	0.0136796
706.110	0.0137123
706.188	0.0138618
706.266	0.0137046
706.344	0.0137865
706.422	0.0139964
706.500	0.0138445
706.578	0.0139376
706.656	0.0138036
706.735	0.0139270
706.813	0.0140690
706.891	0.0139581
706.969	0.0141171
707.047	0.0139805
707.125	0.0140995
707.203	0.0141487
707.281	0.0142256
707.360	0.0142085
707.438	0.0143398
707.516	0.0142292
707.594	0.0142484
707.672	0.0141740
707.750	0.0142033
707.828	0.0142920
707.906	0.0143185
707.985	0.0142825
708.063	0.0142648
708.141	0.0143356
708.219	0.0142664
708.297	0.0143473
708.375	0.0143801
708.453	0.0143581
708.531	0.0142028
708.610	0.0141719
708.688	0.0140930
708.766	0.0140237
708.844	0.0139148
708.922	0.0140392
709.000	0.0139844
709.078	0.0139142
709.156	0.0138352
709.235	0.0139612
709.313	0.0137735
709.391	0.0139406
709.469	0.0140108
709.547	0.0139988
709.625	0.0140454
709.703	0.0140822
709.781	0.0140842
709.860	0.0140829
709.938	0.0141019
710.016	0.0140416
710.094	0.0141235
710.172	0.0141591
710.250	0.0142457
710.328	0.0140618
710.406	0.0141495
710.485	0.0142175
710.563	0.0140516
710.641	0.0141516
710.719	0.0139317
710.797	0.0139559
710.875	0.0140589
710.953	0.0140479
711.031	0.0139618
711.110	0.0139249
711.188	0.0139015
711.266	0.0140446
711.344	0.0140379
711.422	0.0139394
711.500	0.0140360
711.578	0.0142010
711.656	0.0141176
711.735	0.0140409
711.813	0.0142426
711.891	0.0141554
711.969	0.0142525
712.047	0.0143774
712.125	0.0143334
712.203	0.0143608
712.281	0.0144617
712.360	0.0146151
712.438	0.0145166
712.516	0.0146027
712.594	0.0143501
712.672	0.0145180
712.750	0.0142896
712.828	0.0142852
712.906	0.0142209
712.985	0.0141914
713.063	0.0141224
713.141	0.0138448
713.219	0.0138995
713.297	0.0137614
713.375	0.0136460
713.453	0.0135617
713.531	0.0135597
713.610	0.0136318
713.688	0.0134370
713.766	0.0135394
713.844	0.0134543
713.922	0.0134903
714.000	0.0136647
714.078	0.0137718
714.156	0.0138039
714.235	0.0139780
714.313	0.0140109
714.391	0.0142546
714.469	0.0144096
714.547	0.0143655
714.625	0.0145248
714.703	0.0146797
714.781	0.0148821
714.860	0.0147765
714.938	0.0148441
715.016	0.0146805
715.094	0.0145406
715.172	0.0145639
715.250	0.0142906
715.328	0.0145522
715.406	0.0142209
715.485	0.0139510
715.563	0.0139871
715.641	0.0138237
715.719	0.0137537
715.797	0.0136612
715.875	0.0136463
715.953	0.0136556
716.031	0.0135460
716.110	0.0135109
716.188	0.0134811
716.266	0.0135686
716.344	0.0136217
716.422	0.0136011
716.500	0.0137896
716.578	0.0139243
716.656	0.0140436
716.735	0.0141098
716.813	0.0141475
716.891	0.0142522
716.969	0.0144235
717.047	0.0145870
717.125	0.0145041
717.203	0.0143229
717.281	0.0146597
717.360	0.0145854
717.438	0.0145378
717.516	0.0144851
717.594	0.0146458
717.672	0.0144635
717.750	0.0145804
717.828	0.0144638
717.906	0.0143983
717.985	0.0143194
718.063	0.0142413
718.141	0.0140611
718.219	0.0140784
718.297	0.0138947
718.375	0.0138573
718.453	0.0138561
718.531	0.0136337
718.610	0.0137740
718.688	0.0137874
718.766	0.0138248
718.844	0.0138712
718.922	0.0138258
719.000	0.0139645
719.078	0.0141911
719.156	0.0140083
719.235	0.0140883
719.313	0.0141970
719.391	0.0142731
719.469	0.0142478
719.547	0.0143033
719.625	0.0145994
719.703	0.0145190
719.781	0.0144880
719.860	0.0145624
719.938	0.0145195
720.016	0.0145052
720.094	0.0146407
720.172	0.0145393
720.250	0.0144663
720.328	0.0145405
720.406	0.0143472
720.485	0.0144897
720.563	0.0145108
720.641	0.0142445
720.719	0.0142859
720.797	0.0140733
720.875	0.0141025
720.953	0.0139957
721.031	0.0139613
721.110	0.0139996
721.188	0.0141334
721.266	0.0138416
721.344	0.0137360
721.422	0.0139256
721.500	0.0139322
721.578	0.0140541
721.656	0.0140726
721.735	0.0143184
721.813	0.0141121
721.891	0.0142990
721.969	0.0142438
722.047	0.0144189
722.125	0.0144625
722.203	0.0144241
722.281	0.0144530
722.360	0.0144924
722.438	0.0144634
722.516	0.0144305
722.594	0.0144460
722.672	0.0143578
722.750	0.0143585
722.828	0.0143345
722.906	0.0142717
722.985	0.0140970
723.063	0.0141865
723.141	0.0141004
723.219	0.0139459
723.297	0.0139509
723.375	0.0138878
723.453	0.0138078
723.531	0.0137347
723.610	0.0138511
723.688	0.0136695
723.766	0.0135518
723.844	0.0137743
723.922	0.0137217
724.000	0.0137208
724.078	0.0136916
724.156	0.0137462
724.235	0.0137584
724.313	0.0139554
724.391	0.0139842
724.469	0.0140295
724.547	0.0141638
724.625	0.0141073
724.703	0.0141931
724.781	0.0144733
724.860	0.0144052
724.938	0.0144123
725.016	0.0145296
725.094	0.0144834
725.172	0.0144180
725.250	0.0145064
725.328	0.0143069
725.406	0.0142107
725.485	0.0141974
725.563	0.0140927
725.641	0.0141045
725.719	0.0140531
725.797	0.0138974
725.875	0.0138667
725.953	0.0137067
726.031	0.0137459
726.110	0.0137599
726.188	0.0137383
726.266	0.0137760
726.344	0.0136964
726.422	0.0139001
726.500	0.0139890
726.578	0.0139415
726.656	0.0138982
726.735	0.0141417
726.813	0.0141534
726.891	0.0140356
726.969	0.0141219
727.047	0.0141973
727.125	0.0141943
727.203	0.0141449
727.281	0.0141100
727.360	0.0140810
727.438	0.0141135
727.516	0.0141800
727.594	0.0141357
727.672	0.0142204
727.750	0.0140168
727.828	0.0141275
727.906	0.0142704
727.985	0.0141658
728.063	0.0141190
728.141	0.0141830
728.219	0.0141366
728.297	0.0142333
728.375	0.0142097
728.453	0.0140607
728.531	0.0139149
728.610	0.0140258
728.688	0.0140184
728.766	0.0139553
728.844	0.0139249
728.922	0.0141646
729.000	0.0139326
729.078	0.0139361
729.156	0.0141135
729.235	0.0140629
729.313	0.0142678
729.391	0.0141368
729.469	0.0142422
729.547	0.0142776
729.625	0.0142699
729.703	0.0142325
729.781	0.0141681
729.860	0.0143936
729.938	0.0143913
730.016	0.0142237
730.094	0.0142650
730.172	0.0142809
730.250	0.0141396
730.328	0.0143053
730.406	0.0141972
730.485	0.0142827
730.563	0.0142677
730.641	0.0143155
730.719	0.0142336
730.797	0.0141782
730.875	0.0141837
730.953	0.0141842
731.031	0.0142764
731.110	0.0140864
731.188	0.0141531
731.266	0.0142016
731.344	0.0141523
731.422	0.0141139
731.500	0.0142027
731.578	0.0141101
731.656	0.0142271
731.735	0.0142239
731.813	0.0142704
731.891	0.0142403
731.969	0.0142107
732.047	0.0142719
732.125	0.0143987
732.203	0.0144009
732.281	0.0142738
732.360	0.0143290
732.438	0.0146132
732.516	0.0144950
732.594	0.0144473
732.672	0.0144218
732.750	0.0143905
732.828	0.0143873
732.906	0.0143820
732.985	0.0144123
733.063	0.0144438
733.141	0.0142875
733.219	0.0143509
733.297	0.0143793
733.375	0.0143925
733.453	0.0142753
733.531	0.0142654
733.610	0.0140698
733.688	0.0141956
733.766	0.0141354
733.844	0.0141376
733.922	0.0141022
734.000	0.0141414
734.078	0.0141052
734.156	0.0140034
734.235	0.0140397
734.313	0.0140340
734.391	0.0140089
734.469	0.0141400
734.547	0.0140853
734.625	0.0141390
734.703	0.0141901
734.781	0.0141448
734.860	0.0141805
734.938	0.0143098
735.016	0.0142731
735.094	0.0141311
735.172	0.0141792
735.250	0.0142707
735.328	0.0143649
735.406	0.0143316
735.485	0.0144062
735.563	0.0141769
735.641	0.0142442
735.719	0.0143726
735.797	0.0142892
735.875	0.0140095
735.953	0.0141959
736.031	0.0142126
736.110	0.0142128
736.188	0.0141571
736.266	0.0139796
736.344	0.0140669
736.422	0.0141604
736.500	0.0139706
736.578	0.0139242
736.656	0.0139866
736.735	0.0140759
736.813	0.0141370
736.891	0.0139983
736.969	0.0140576
737.047	0.0141291
737.125	0.0141655
737.203	0.0141650
737.281	0.0141250
737.360	0.0142587
737.438	0.0142990
737.516	0.0144022
737.594	0.0141513
737.672	0.0142561
737.750	0.0141621
737.828	0.0143008
737.906	0.0141719
737.985	0.0140764
738.063	0.0141805
738.141	0.0141651
738.219	0.0140601
738.297	0.0142294
738.375	0.0141117
738.453	0.0140549
738.531	0.0140837
738.610	0.0141685
738.688	0.0142145
738.766	0.0140362
738.844	0.0139608
738.922	0.0141034
739.000	0.0140356
739.078	0.0139587
739.156	0.0140168
739.235	0.0141708
739.313	0.0142309
739.391	0.0142137
739.469	0.0140939
739.547	0.0142059
739.625	0.0140623
739.703	0.0141105
739.781	0.0141541
739.860	0.0142078
739.938	0.0142374
740.016	0.0141570
740.094	0.0142533
740.172	0.0141992
740.250	0.0141882
740.328	0.0142532
740.406	0.0141616
740.485	0.0141408
740.563	0.0142088
740.641	0.0142409
740.719	0.0142492
740.797	0.0143621
740.875	0.0142020
740.953	0.0140154
741.031	0.0139960
741.110	0.0140450
741.188	0.0140677
741.266	0.0139455
741.344	0.0140771
741.422	0.0139527
741.500	0.0139616
741.578	0.0140431
741.656	0.0139761
741.735	0.0139108
741.813	0.0139658
741.891	0.0140053
741.969	0.0140988
742.047	0.0140009
742.125	0.0140069
742.203	0.0141512
742.281	0.0140720
742.360	0.0141540
742.438	0.0142598
742.516	0.0142081
742.594	0.0142818
742.672	0.0141711
742.750	0.0142464
742.828	0.0142661
742.906	0.0143633
742.985	0.0140879
743.063	0.0142480
743.141	0.0142588
743.219	0.0140848
743.297	0.0140741
743.375	0.0142773
743.453	0.0143014
743.531	0.0142144
743.610	0.0141549
743.688	0.0141532
743.766	0.0142189
743.844	0.0141976
743.922	0.0141506
744.000	0.0142051
744.078	0.0141620
744.156	0.0141205
744.235	0.0141628
744.313	0.0142311
744.391	0.0140446
744.469	0.0142342
744.547	0.0142242
744.625	0.0142487
744.703	0.0142070
744.781	0.0140187
744.860	0.0142905
744.938	0.0144167
745.016	0.0144046
745.094	0.0143889
745.172	0.0142319
745.250	0.0143291
745.328	0.0143226
745.406	0.0144432
745.485	0.0144357
745.563	0.0142210
745.641	0.0141925
745.719	0.0142844
745.797	0.0142615
745.875	0.0142927
745.953	0.0143324
746.031	0.0143564
746.110	0.0141500
746.188	0.0141888
746.266	0.0142212
746.344	0.0142130
746.422	0.0141303
746.500	0.0142043
746.578	0.0143192
746.656	0.0143275
746.735	0.0142216
746.813	0.0142420
746.891	0.0141839
746.969	0.0142788
747.047	0.0144212
747.125	0.0143017
747.203	0.0143817
747.281	0.0144179
747.360	0.0142960
747.438	0.0142458
747.516	0.0143116
747.594	0.0143013
747.672	0.0144466
747.750	0.0143452
747.828	0.0144088
747.906	0.0143801
747.985	0.0143174
748.063	0.0143363
748.141	0.0142877
748.219	0.0143639
748.297	0.0143934
748.375	0.0141904
748.453	0.0142628
748.531	0.0141945
748.610	0.0142947
748.688	0.0142554
748.766	0.0141866
748.844	0.0140738
748.922	0.0141355
749.000	0.0142210
749.078	0.0141908
749.156	0.0141500
749.235	0.0141910
749.313	0.0142487
749.391	0.0142857
749.469	0.0143369
749.547	0.0141796
749.625	0.0142781
749.703	0.0142224
749.781	0.0142863
749.860	0.0142356
749.938	0.0143610
750.016	0.0143698
750.094	0.0144994
750.172	0.0143563
750.250	0.0141119
750.328	0.0142792
750.406	0.0143729
750.485	0.0142908
750.563	0.0142390
750.641	0.0142888
750.719	0.0144009
750.797	0.0142309
750.875	0.0142405
750.953	0.0143246
751.031	0.0142934
751.110	0.0142929
751.188	0.0142908
751.266	0.0142400
751.344	0.0142586
751.422	0.0143694
751.500	0.0143243
751.578	0.0141253
751.656	0.0141158
751.735	0.0140620
751.813	0.0142634
751.891	0.0141901
751.969	0.0141501
752.047	0.0140250
752.125	0.0140172
752.203	0.0141324
752.281	0.0141590
752.360	0.0142128
752.438	0.0141761
752.516	0.0141301
752.594	0.0141778
752.672	0.0141454
752.750	0.0142311
752.828	0.0143620
752.906	0.0142001
752.985	0.0141556
753.063	0.0141454
753.141	0.0142384
753.219	0.0143049
753.297	0.0143323
753.375	0.0141899
753.453	0.0142071
753.531	0.0141170
753.610	0.0142687
753.688	0.0142376
753.766	0.0142956
753.844	0.0143683
753.922	0.0141431
754.000	0.0142139
754.078	0.0141035
754.156	0.0142768
754.235	0.0142825
754.313	0.0143305
754.391	0.0143961
754.469	0.0142589
754.547	0.0143296
754.625	0.0143248
754.703	0.0144466
754.781	0.0142359
754.860	0.0142258
754.938	0.0144651
755.016	0.0143877
755.094	0.0142414
755.172	0.0142795
755.250	0.0143010
755.328	0.0142096
755.406	0.0143922
755.485	0.0142788
755.563	0.0142042
755.641	0.0142793
755.719	0.0143394
755.797	0.0142116
755.875	0.0142084
755.953	0.0142321
756.031	0.0141222
756.110	0.0142988
756.188	0.0141370
756.266	0.0141545
756.344	0.0141554
756.422	0.0143114
756.500	0.0141986
756.578	0.0141543
756.656	0.0141032
756.735	0.0141891
756.813	0.0141161
756.891	0.0139094
756.969	0.0140240
757.047	0.0140903
757.125	0.0140510
757.203	0.0140318
757.281	0.0140751
757.360	0.0141026
757.438	0.0140299
757.516	0.0141063
757.594	0.0140027
757.672	0.0142902
757.750	0.0143037
757.828	0.0142483
757.906	0.0142856
757.985	0.0143552
758.063	0.0141930
758.141	0.0143094
758.219	0.0142337
758.297	0.0142494
758.375	0.0142458
758.453	0.0141280
758.531	0.0142538
758.610	0.0143739
758.688	0.0143642
758.766	0.0143273
758.844	0.0142607
758.922	0.0141568
759.000	0.0141708
759.078	0.0142760
759.156	0.0141782
759.235	0.0141830
759.313	0.0143456
759.391	0.0141753
759.469	0.0141926
759.547	0.0141662
759.625	0.0140363
759.703	0.0142212
759.781	0.0141925
759.860	0.0141506
759.938	0.0142917
760.016	0.0142783
760.094	0.0142704
760.172	0.0142310
760.250	0.0142104
760.328	0.0142628
760.406	0.0143847
760.485	0.0143213
760.563	0.0143259
760.641	0.0141822
760.719	0.0143349
760.797	0.0144333
760.875	0.0144662
760.953	0.0144051
761.031	0.0141708
761.110	0.0141815
761.188	0.0143105
761.266	0.0143400
761.344	0.0143056
761.422	0.0141901
761.500	0.0141486
761.578	0.0142941
761.656	0.0141347
761.735	0.0142770
761.813	0.0143139
761.891	0.0143468
761.969	0.0141255
762.047	0.0142282
762.125	0.0142475
762.203	0.0141378
762.281	0.0142054
762.360	0.0142931
762.438	0.0142545
762.516	0.0142234
762.594	0.0141776
762.672	0.0142060
762.750	0.0141761
762.828	0.0142110
762.906	0.0142046
762.985	0.0140810
763.063	0.0141610
763.141	0.0142110
763.219	0.0142519
763.297	0.0142712
763.375	0.0141574
763.453	0.0141210
763.531	0.0141863
763.610	0.0140469
763.688	0.0141867
763.766	0.0141666
763.844	0.0140690
763.922	0.0139319
764.000	0.0140232
764.078	0.0141746
764.156	0.0140289
764.235	0.0139474
764.313	0.0139989
764.391	0.0139357
764.469	0.0138844
764.547	0.0139854
764.625	0.0139076
764.703	0.0140536
764.781	0.0139993
764.860	0.0140623
764.938	0.0140621
765.016	0.0139991
765.094	0.0140574
765.172	0.0139857
765.250	0.0140958
765.328	0.0141888
765.406	0.0140230
765.485	0.0140950
765.563	0.0141622
765.641	0.0142512
765.719	0.0140155
765.797	0.0139987
765.875	0.0141386
765.953	0.0140683
766.031	0.0140875
766.110	0.0141441
766.188	0.0139423
766.266	0.0140693
766.344	0.0140047
766.422	0.0140559
766.500	0.0140840
766.578	0.0140344
766.656	0.0141599
766.735	0.0140582
766.813	0.0140643
766.891	0.0139671
766.969	0.0140670
767.047	0.0139256
767.125	0.0139499
767.203	0.0140835
767.281	0.0139594
767.360	0.0141982
767.438	0.0140234
767.516	0.0140840
767.594	0.0140401
767.672	0.0141419
767.750	0.0140507
767.828	0.0140759
767.906	0.0139713
767.985	0.0141213
768.063	0.0140740
768.141	0.0140774
768.219	0.0140838
768.297	0.0141267
768.375	0.0141500
768.453	0.0141620
768.531	0.0140332
768.610	0.0141187
768.688	0.0140137
768.766	0.0139437
768.844	0.0141681
768.922	0.0140224
769.000	0.0139692
769.078	0.0140211
769.156	0.0140321
769.235	0.0140420
769.313	0.0139857
769.391	0.0141963
769.469	0.0140293
769.547	0.0139449
769.625	0.0140849
769.703	0.0139129
769.781	0.0141228
769.860	0.0140361
769.938	0.0138960
770.016	0.0141165
770.094	0.0141496
770.172	0.0140358
770.250	0.0140230
770.328	0.0141451
770.406	0.0141043
770.485	0.0141017
770.563	0.0140214
770.641	0.0141885
770.719	0.0141271
770.797	0.0141541
770.875	0.0140672
770.953	0.0141193
771.031	0.0140009
771.110	0.0141201
771.188	0.0141766
771.266	0.0143357
771.344	0.0142532
771.422	0.0142661
771.500	0.0142102
771.578	0.0141973
771.656	0.0141551
771.735	0.0142320
771.813	0.0142880
771.891	0.0142182
771.969	0.0141301
772.047	0.0141801
772.125	0.0141432
772.203	0.0142020
772.281	0.0142028
772.360	0.0142924
772.438	0.0140262
772.516	0.0140580
772.594	0.0142963
772.672	0.0142251
772.750	0.0141121
772.828	0.0141776
772.906	0.0142598
772.985	0.0142723
773.063	0.0142375
773.141	0.0143206
773.219	0.0142804
773.297	0.0141996
773.375	0.0141245
773.453	0.0142336
773.531	0.0142202
773.610	0.0141582
773.688	0.0142223
773.766	0.0141602
773.844	0.0140604
773.922	0.0141840
774.000	0.0142427
774.078	0.0142377
774.156	0.0142162
774.235	0.0141245
774.313	0.0141027
774.391	0.0141900
774.469	0.0140910
774.547	0.0141097
774.625	0.0141196
774.703	0.0141627
774.781	0.0142142
774.860	0.0140988
774.938	0.0140513
775.016	0.0140952
775.094	0.0140767
775.172	0.0141411
775.250	0.0139861
775.328	0.0140724
775.406	0.0141959
775.485	0.0140320
775.563	0.0140426
775.641	0.0141304
775.719	0.0141644
775.797	0.0140836
775.875	0.0141668
775.953	0.0141677
776.031	0.0140622
776.110	0.0140930
776.188	0.0140607
776.266	0.0142497
776.344	0.0141579
776.422	0.0141879
776.500	0.0141766
776.578	0.0141812
776.656	0.0142165
776.735	0.0142400
776.813	0.0140945
776.891	0.0140636
776.969	0.0140249
777.047	0.0141701
777.125	0.0141770
777.203	0.0142189
777.281	0.0142132
777.360	0.0140817
777.438	0.0141335
777.516	0.0142665
777.594	0.0142636
777.672	0.0141557
777.750	0.0141833
777.828	0.0141670
777.906	0.0141560
777.985	0.0142521
778.063	0.0142213
778.141	0.0143696
778.219	0.0141621
778.297	0.0140754
778.375	0.0141842
778.453	0.0142312
778.531	0.0140956
778.610	0.0143257
778.688	0.0142348
778.766	0.0141163
778.844	0.0142004
778.922	0.0143865
779.000	0.0141464
779.078	0.0142696
779.156	0.0142562
779.235	0.0142251
779.313	0.0141444
779.391	0.0143001
779.469	0.0143489
779.547	0.0143121
779.625	0.0144475
779.703	0.0141437
779.781	0.0142418
779.860	0.0143647
779.938	0.0142632
780.016	0.0142004
780.094	0.0142851
780.172	0.0143376
780.250	0.0142107
780.328	0.0142615
780.406	0.0141643
780.485	0.0142363
780.563	0.0142081
780.641	0.0143509
780.719	0.0141206
780.797	0.0141615
780.875	0.0142168
780.953	0.0141861
781.031	0.0142236
781.110	0.0142503
781.188	0.0140932
781.266	0.0142031
781.344	0.0142121
781.422	0.0142659
781.500	0.0141995
781.578	0.0140071
781.656	0.0142322
781.735	0.0141935
781.813	0.0141187
781.891	0.0140849
781.969	0.0142049
782.047	0.0141442
782.125	0.0142014
782.203	0.0141871
782.281	0.0141506
782.360	0.0142352
782.438	0.0140903
782.516	0.0141673
782.594	0.0142918
782.672	0.0142336
782.750	0.0141726
782.828	0.0140538
782.906	0.0141797
782.985	0.0141880
783.063	0.0140292
783.141	0.0139903
783.219	0.0140726
783.297	0.0141315
783.375	0.0140511
783.453	0.0140736
783.531	0.0139639
783.610	0.0140143
783.688	0.0140481
783.766	0.0140638
783.844	0.0138879
783.922	0.0140720
784.000	0.0140385
784.078	0.0140176
784.156	0.0139397
784.235	0.0140658
784.313	0.0140299
784.391	0.0140485
784.469	0.0140792
784.547	0.0140252
784.625	0.0140630
784.703	0.0139193
784.781	0.0140832
784.860	0.0141447
784.938	0.0140617
785.016	0.0141085
785.094	0.0142826
785.172	0.0142484
785.250	0.0142274
785.328	0.0141169
785.406	0.0141113
785.485	0.0142092
785.563	0.0141761
785.641	0.0141467
785.719	0.0141662
785.797	0.0140823
785.875	0.0142215
785.953	0.0142245
786.031	0.0140379
786.110	0.0141297
786.188	0.0141926
786.266	0.0141147
786.344	0.0140199
786.422	0.0140417
786.500	0.0140790
786.578	0.0140559
786.656	0.0140491
786.735	0.0141808
786.813	0.0142795
786.891	0.0139918
786.969	0.0142015
787.047	0.0142245
787.125	0.0141164
787.203	0.0141220
787.281	0.0141435
787.360	0.0142090
787.438	0.0142477
787.516	0.0141226
787.594	0.0140992
787.672	0.0141452
787.750	0.0140788
787.828	0.0141348
787.906	0.0140375
787.985	0.0140652
788.063	0.0141726
788.141	0.0142616
788.219	0.0140821
788.297	0.0141196
788.375	0.0141003
788.453	0.0140334
788.531	0.0140450
788.610	0.0140852
788.688	0.0141743
788.766	0.0141262
788.844	0.0140637
788.922	0.0141563
789.000	0.0141940
789.078	0.0141103
789.156	0.0142570
789.235	0.0140251
789.313	0.0141671
789.391	0.0141833
789.469	0.0141325
789.547	0.0140504
789.625	0.0140833
789.703	0.0141646
789.781	0.0141516
789.860	0.0143078
789.938	0.0141916
790.016	0.0140740
790.094	0.0141804
790.172	0.0142686
790.250	0.0140655
790.328	0.0141150
790.406	0.0141254
790.485	0.0141302
790.563	0.0140278
790.641	0.0139622
790.719	0.0141027
790.797	0.0141433
790.875	0.0139291
790.953	0.0140446
791.031	0.0141235
791.110	0.0140804
791.188	0.0140817
791.266	0.0140485
791.344	0.0140487
791.422	0.0140520
791.500	0.0140166
791.578	0.0140765
791.656	0.0140147
791.735	0.0140796
791.813	0.0141666
791.891	0.0141647
791.969	0.0141050
792.047	0.0141698
792.125	0.0142112
792.203	0.0140302
792.281	0.0142728
792.360	0.0142952
792.438	0.0142030
792.516	0.0141655
792.594	0.0140936
792.672	0.0140878
792.750	0.0141448
792.828	0.0141151
792.906	0.0140302
792.985	0.0141130
793.063	0.0141879
793.141	0.0141368
793.219	0.0141872
793.297	0.0140370
793.375	0.0140591
793.453	0.0139828
793.531	0.0141339
793.610	0.0139804
793.688	0.0138425
793.766	0.0140392
793.844	0.0138646
793.922	0.0140796
794.000	0.0139114
794.078	0.0141270
794.156	0.0140896
794.235	0.0140042
794.313	0.0141014
794.391	0.0139941
794.469	0.0141198
794.547	0.0141016
794.625	0.0141653
794.703	0.0140875
794.781	0.0141837
794.860	0.0140716
794.938	0.0141411
795.016	0.0141194
795.094	0.0142005
795.172	0.0140193
795.250	0.0141562
795.328	0.0141442
795.406	0.0141916
795.485	0.0142028
795.563	0.0139697
795.641	0.0140823
795.719	0.0139839
795.797	0.0139869
795.875	0.0140169
795.953	0.0141667
796.031	0.0140153
796.110	0.0139815
796.188	0.0139921
796.266	0.0139517
796.344	0.0140211
796.422	0.0140775
796.500	0.0139263
796.578	0.0140798
796.656	0.0139597
796.735	0.0140445
796.813	0.0141885
796.891	0.0140647
796.969	0.0140034
797.047	0.0140932
797.125	0.0140139
797.203	0.0141942
797.281	0.0139922
797.360	0.0139909
797.438	0.0141763
797.516	0.0141911
797.594	0.0140848
797.672	0.0141026
797.750	0.0140147
797.828	0.0139498
797.906	0.0140421
797.985	0.0140541
798.063	0.0140252
798.141	0.0141212
798.219	0.0141913
798.297	0.0140372
798.375	0.0141868
798.453	0.0139950
798.531	0.0140495
798.610	0.0141134
798.688	0.0140283
798.766	0.0140929
798.844	0.0140913
798.922	0.0140174
799.000	0.0138743
799.078	0.0140822
799.156	0.0140857
799.235	0.0140436
799.313	0.0139474
799.391	0.0141199
799.469	0.0140510
799.547	0.0141590
799.625	0.0142091
799.703	0.0139388
799.781	0.0141083
799.860	0.0140160
799.938	0.0141052
800.016	0.0142076
800.094	0.0141409
800.172	0.0141753
800.250	0.0141107
800.328	0.0140626
800.406	0.0140918
800.485	0.0140964
800.563	0.0142284
800.641	0.0142620
800.719	0.0142355
800.797	0.0141852
800.875	0.0142493
800.953	0.0141987
801.031	0.0140884
801.110	0.0143329
801.188	0.0143253
801.266	0.0142283
801.344	0.0141802
801.422	0.0141628
801.500	0.0141741
801.578	0.0141772
801.656	0.0142457
801.735	0.0141301
801.813	0.0140385
801.891	0.0142028
801.969	0.0142338
802.047	0.0142997
802.125	0.0143488
802.203	0.0143723
802.281	0.0141846
802.360	0.0142017
802.438	0.0142789
802.516	0.0142655
802.594	0.0142288
802.672	0.0140557
802.750	0.0141858
802.828	0.0141415
802.906	0.0141658
802.985	0.0141571
803.063	0.0142852
803.141	0.0143136
803.219	0.0142281
803.297	0.0141457
803.375	0.0141171
803.453	0.0141062
803.531	0.0142879
803.610	0.0143939
803.688	0.0141691
803.766	0.0142250
803.844	0.0142818
803.922	0.0141598
804.000	0.0141276
804.078	0.0141053
804.156	0.0142081
804.235	0.0143607
804.313	0.0142650
804.391	0.0142456
804.469	0.0142561
804.547	0.0143379
804.625	0.0142693
804.703	0.0141821
804.781	0.0141994
804.860	0.0142304
804.938	0.0142000
805.016	0.0142848
805.094	0.0143297
805.172	0.0142793
805.250	0.0142363
805.328	0.0144115
805.406	0.0143449
805.485	0.0141860
805.563	0.0142476
805.641	0.0142004
805.719	0.0142046
805.797	0.0142158
805.875	0.0141438
805.953	0.0141738
806.031	0.0142960
806.110	0.0142281
806.188	0.0142785
806.266	0.0143113
806.344	0.0143154
806.422	0.0142885
806.500	0.0142990
806.578	0.0141596
806.656	0.0142158
806.735	0.0141983
806.813	0.0141862
806.891	0.0142938
806.969	0.0140780
807.047	0.0142094
807.125	0.0141779
807.203	0.0140467
807.281	0.0141240
807.360	0.0142009
807.438	0.0141985
807.516	0.0141886
807.594	0.0142479
807.672	0.0142638
807.750	0.0141751
807.828	0.0141278
807.906	0.0141435
807.985	0.0140253
808.063	0.0142771
808.141	0.0143053
808.219	0.0143300
808.297	0.0142738
808.375	0.0141988
808.453	0.0142661
808.531	0.0141349
808.610	0.0141038
808.688	0.0142395
808.766	0.0142524
808.844	0.0141178
808.922	0.0140696
809.000	0.0141469
809.078	0.0141991
809.156	0.0140984
809.235	0.0140851
809.313	0.0141528
809.391	0.0140113
809.469	0.0141473
809.547	0.0142619
809.625	0.0140314
809.703	0.0140556
809.781	0.0141643
809.860	0.0142818
809.938	0.0142056
810.016	0.0141596
810.094	0.0140610
810.172	0.0141227
810.250	0.0141296
810.328	0.0141544
810.406	0.0141297
810.485	0.0141721
810.563	0.0140444
810.641	0.0141255
810.719	0.0142929
810.797	0.0143169
810.875	0.0141146
810.953	0.0140939
811.031	0.0142823
811.110	0.0143426
811.188	0.0143639
811.266	0.0142103
811.344	0.0142706
811.422	0.0143605
811.500	0.0141383
811.578	0.0142487
811.656	0.0142786
811.735	0.0142343
811.813	0.0141325
811.891	0.0143105
811.969	0.0142310
812.047	0.0142207
812.125	0.0140965
812.203	0.0141385
812.281	0.0141535
812.360	0.0142076
812.438	0.0141979
812.516	0.0141293
812.594	0.0140483
812.672	0.0140613
812.750	0.0142268
812.828	0.0142496
812.906	0.0140937
812.985	0.0141227
813.063	0.0140766
813.141	0.0140411
813.219	0.0142532
813.297	0.0141162
813.375	0.0141142
813.453	0.0142064
813.531	0.0141669
813.610	0.0140939
813.688	0.0141474
813.766	0.0143029
813.844	0.0142950
813.922	0.0141353
814.000	0.0141372
814.078	0.0141630
814.156	0.0140624
814.235	0.0140917
814.313	0.0140879
814.391	0.0141195
814.469	0.0139973
814.547	0.0141018
814.625	0.0140565
814.703	0.0140519
814.781	0.0141319
814.860	0.0139953
814.938	0.0141138
815.016	0.0140086
815.094	0.0141463
815.172	0.0140952
815.250	0.0139832
815.328	0.0141372
815.406	0.0140686
815.485	0.0138983
815.563	0.0141415
815.641	0.0141456
815.719	0.0140730
815.797	0.0140800
815.875	0.0141008
815.953	0.0141285
816.031	0.0142119
816.110	0.0141707
816.188	0.0140437
816.266	0.0142451
816.344	0.0141653
816.422	0.0142105
816.500	0.0140584
816.578	0.0140694
816.656	0.0140623
816.735	0.0140052
816.813	0.0141066
816.891	0.0141623
816.969	0.0140312
817.047	0.0141518
817.125	0.0140472
817.203	0.0139483
817.281	0.0139539
817.360	0.0139383
817.438	0.0138543
817.516	0.0140285
817.594	0.0139462
817.672	0.0140201
817.750	0.0139014
817.828	0.0141257
817.906	0.0139864
817.985	0.0140242
818.063	0.0141304
818.141	0.0141357
818.219	0.0140413
818.297	0.0139567
818.375	0.0140435
818.453	0.0141526
818.531	0.0141370
818.610	0.0142335
818.688	0.0141487
818.766	0.0142800
818.844	0.0142628
818.922	0.0142347
819.000	0.0141459
819.078	0.0140981
819.156	0.0142087
819.235	0.0143269
819.313	0.0140721
819.391	0.0142978
819.469	0.0142547
819.547	0.0143262
819.625	0.0141277
819.703	0.0141431
819.781	0.0142992
819.860	0.0141939
819.938	0.0141786
820.016	0.0141245
820.094	0.0140162
820.172	0.0140461
820.250	0.0141129
820.328	0.0141518
820.406	0.0139463
820.485	0.0140240
820.563	0.0141956
820.641	0.0141372
820.719	0.0141970
820.797	0.0142087
820.875	0.0141366
820.953	0.0141902
821.031	0.0141772
821.110	0.0142355
821.188	0.0142386
821.266	0.0140979
821.344	0.0141087
821.422	0.0141787
821.500	0.0142380
821.578	0.0142766
821.656	0.0142227
821.735	0.0142757
821.813	0.0142743
821.891	0.0141326
821.969	0.0141692
822.047	0.0141895
822.125	0.0142579
822.203	0.0142998
822.281	0.0141541
822.360	0.0142036
822.438	0.0141171
822.516	0.0141466
822.594	0.0141271
822.672	0.0141840
822.750	0.0143305
822.828	0.0141271
822.906	0.0141990
822.985	0.0142486
823.063	0.0141392
823.141	0.0142659
823.219	0.0142144
823.297	0.0142300
823.375	0.0142174
823.453	0.0143129
823.531	0.0142363
823.610	0.0142332
823.688	0.0141687
823.766	0.0141196
823.844	0.0143056
823.922	0.0142416
824.000	0.0142200
824.078	0.0143514
824.156	0.0141991
824.235	0.0141506
824.313	0.0141652
824.391	0.0142430
824.469	0.0143276
824.547	0.0141096
824.625	0.0143015
824.703	0.0141920
824.781	0.0141373
824.860	0.0141965
824.938	0.0142834
825.016	0.0142827
825.094	0.0142342
825.172	0.0142404
825.250	0.0141808
825.328	0.0142204
825.406	0.0142896
825.485	0.0141571
825.563	0.0141703
825.641	0.0141917
825.719	0.0141879
825.797	0.0142944
825.875	0.0143771
825.953	0.0140892
826.031	0.0142249
826.110	0.0142508
826.188	0.0141631
826.266	0.0141683
826.344	0.0141578
826.422	0.0141413
826.500	0.0142010
826.578	0.0141925
826.656	0.0140878
826.735	0.0141096
826.813	0.0140820
826.891	0.0141975
826.969	0.0141245
827.047	0.0141009
827.125	0.0140874
827.203	0.0142549
827.281	0.0142096
827.360	0.0141706
827.438	0.0141492
827.516	0.0142149
827.594	0.0141616
827.672	0.0142054
827.750	0.0142710
827.828	0.0142908
827.906	0.0142960
827.985	0.0142307
828.063	0.0141853
828.141	0.0142400
828.219	0.0142572
828.297	0.0141982
828.375	0.0141941
828.453	0.0143061
828.531	0.0142422
828.610	0.0142298
828.688	0.0142336
828.766	0.0141856
828.844	0.0139204
828.922	0.0142016
829.000	0.0140788
829.078	0.0142505
829.156	0.0142415
829.235	0.0141575
829.313	0.0140441
829.391	0.0141208
829.469	0.0141529
829.547	0.0140817
829.625	0.0142146
829.703	0.0141727
829.781	0.0141352
829.860	0.0141783
829.938	0.0141866
830.016	0.0140793
830.094	0.0142137
830.172	0.0142037
830.250	0.0140800
830.328	0.0140729
830.406	0.0141008
830.485	0.0140553
830.563	0.0141496
830.641	0.0142242
830.719	0.0141188
830.797	0.0141307
830.875	0.0141194
830.953	0.0141403
831.031	0.0141508
831.110	0.0141422
831.188	0.0142768
831.266	0.0143386
831.344	0.0141704
831.422	0.0143104
831.500	0.0142808
831.578	0.0141965
831.656	0.0142870
831.735	0.0142314
831.813	0.0142953
831.891	0.0144418
831.969	0.0141963
832.047	0.0142039
832.125	0.0142732
832.203	0.0143506
832.281	0.0143075
832.360	0.0141958
832.438	0.0142071
832.516	0.0142072
832.594	0.0141734
832.672	0.0141953
832.750	0.0142088
832.828	0.0140945
832.906	0.0142444
832.985	0.0141529
833.063	0.0141197
833.141	0.0141399
833.219	0.0141711
833.297	0.0141914
833.375	0.0142185
833.453	0.0141805
833.531	0.0141219
833.610	0.0142699
833.688	0.0141843
833.766	0.0141251
833.844	0.0139790
833.922	0.0141351
834.000	0.0141488
834.078	0.0141482
834.156	0.0142030
834.235	0.0141055
834.313	0.0141620
834.391	0.0142223
834.469	0.0141934
834.547	0.0143448
834.625	0.0140385
834.703	0.0140376
834.781	0.0141532
834.860	0.0141282
834.938	0.0141389
835.016	0.0139666
835.094	0.0141010
835.172	0.0141975
835.250	0.0139883
835.328	0.0140562
835.406	0.0140547
835.485	0.0143266
835.563	0.0141429
835.641	0.0141364
835.719	0.0140714
835.797	0.0141347
835.875	0.0140768
835.953	0.0142523
836.031	0.0141833
836.110	0.0140740
836.188	0.0141755
836.266	0.0141572
836.344	0.0141521
836.422	0.0143029
836.500	0.0140776
836.578	0.0141080
836.656	0.0142564
836.735	0.0143636
836.813	0.0141306
836.891	0.0141518
836.969	0.0141310
837.047	0.0141573
837.125	0.0140794
837.203	0.0141388
837.281	0.0141643
837.360	0.0140648
837.438	0.0141869
837.516	0.0141036
837.594	0.0140936
837.672	0.0141582
837.750	0.0140714
837.828	0.0142027
837.906	0.0141056
837.985	0.0141317
838.063	0.0140687
838.141	0.0141908
838.219	0.0141901
838.297	0.0141242
838.375	0.0141625
838.453	0.0140639
838.531	0.0141562
838.610	0.0141885
838.688	0.0141960
838.766	0.0141529
838.844	0.0141409
838.922	0.0141626
839.000	0.0141175
839.078	0.0141935
839.156	0.0142011
839.235	0.0141238
839.313	0.0141032
839.391	0.0141269
839.469	0.0141464
839.547	0.0140204
839.625	0.0141448
839.703	0.0141418
839.781	0.0141659
839.860	0.0141945
839.938	0.0141609
840.016	0.0140567
840.094	0.0140163
840.172	0.0140291
840.250	0.0140860
840.328	0.0140842
840.406	0.0141061
840.485	0.0140886
840.563	0.0140807
840.641	0.0139841
840.719	0.0140544
840.797	0.0141610
840.875	0.0140700
840.953	0.0139887
841.031	0.0141421
841.110	0.0142473
841.188	0.0141559
841.266	0.0141097
841.344	0.0142057
841.422	0.0140235
841.500	0.0140971
841.578	0.0142490
841.656	0.0141864
841.735	0.0142268
841.813	0.0141331
841.891	0.0141314
841.969	0.0141552
842.047	0.0139731
842.125	0.0141536
842.203	0.0140291
842.281	0.0142981
842.360	0.0141197
842.438	0.0141884
842.516	0.0141372
842.594	0.0141244
842.672	0.0142253
842.750	0.0141623
842.828	0.0142476
842.906	0.0140282
842.985	0.0141711
843.063	0.0142423
843.141	0.0141375
843.219	0.0141908
843.297	0.0141471
843.375	0.0141628
843.453	0.0143253
843.531	0.0141624
843.610	0.0142759
843.688	0.0142305
843.766	0.0141697
843.844	0.0143401
843.922	0.0143124
844.000	0.0142904
844.078	0.0143191
844.156	0.0141805
844.235	0.0141998
844.313	0.0142588
844.391	0.0142318
844.469	0.0141674
844.547	0.0142438
844.625	0.0142079
844.703	0.0142117
844.781	0.0142400
844.860	0.0142714
844.938	0.0142554
845.016	0.0142986
845.094	0.0142725
845.172	0.0142373
845.250	0.0141808
845.328	0.0143005
845.406	0.0142264
845.485	0.0143364
845.563	0.0142503
845.641	0.0142445
845.719	0.0143040
845.797	0.0141665
845.875	0.0142726
845.953	0.0141669
846.031	0.0141576
846.110	0.0141105
846.188	0.0142105
846.266	0.0141421
846.344	0.0143067
846.422	0.0140672
846.500	0.0141817
846.578	0.0141769
846.656	0.0142252
846.735	0.0142813
846.813	0.0142870
846.891	0.0141954
846.969	0.0141114
847.047	0.0141793
847.125	0.0141293
847.203	0.0142806
847.281	0.0141798
847.360	0.0142126
847.438	0.0142686
847.516	0.0142358
847.594	0.0143282
847.672	0.0141447
847.750	0.0140401
847.828	0.0140835
847.906	0.0143246
847.985	0.0140076
848.063	0.0140382
848.141	0.0142264
848.219	0.0142566
848.297	0.0141594
848.375	0.0141348
848.453	0.0142279
848.531	0.0142616
848.610	0.0141282
848.688	0.0140341
848.766	0.0141618
848.844	0.0141919
848.922	0.0140903
849.000	0.0141122
849.078	0.0141397
849.156	0.0142463
849.235	0.0142045
849.313	0.0141904
849.391	0.0141571
849.469	0.0142651
849.547	0.0141203
849.625	0.0142326
849.703	0.0140808
849.781	0.0141763
849.860	0.0141706
849.938	0.0141849
850.016	0.0141393
850.094	0.0141586
850.172	0.0141332
850.250	0.0141695
850.328	0.0142828
850.406	0.0141326
850.485	0.0140299
850.563	0.0141630
850.641	0.0142410
850.719	0.0141767
850.797	0.0141691
850.875	0.0143310
850.953	0.0140758
851.031	0.0140962
851.110	0.0141053
851.188	0.0140872
851.266	0.0142656
851.344	0.0140838
851.422	0.0141647
851.500	0.0141425
851.578	0.0141415
851.656	0.0142155
851.735	0.0141209
851.813	0.0140061
851.891	0.0142080
851.969	0.0141809
852.047	0.0141314
852.125	0.0140727
852.203	0.0140472
852.281	0.0141335
852.360	0.0142379
852.438	0.0141548
852.516	0.0140950
852.594	0.0140996
852.672	0.0142297
852.750	0.0141366
852.828	0.0141600
852.906	0.0140646
852.985	0.0139786
853.063	0.0142448
853.141	0.0142155
853.219	0.0142294
853.297	0.0139983
853.375	0.0141814
853.453	0.0140105
853.531	0.0140219
853.610	0.0141360
853.688	0.0141489
853.766	0.0142126
853.844	0.0141393
853.922	0.0140844
854.000	0.0140820
854.078	0.0140762
854.156	0.0140385
854.235	0.0141537
854.313	0.0140719
854.391	0.0141930
854.469	0.0141194
854.547	0.0140852
854.625	0.0142241
854.703	0.0142226
854.781	0.0141922
854.860	0.0142825
854.938	0.0140322
855.016	0.0140074
855.094	0.0140918
855.172	0.0141658
855.250	0.0140576
855.328	0.0143286
855.406	0.0141508
855.485	0.0140893
855.563	0.0140799
855.641	0.0140667
855.719	0.0142139
855.797	0.0141371
855.875	0.0141144
855.953	0.0140424
856.031	0.0141877
856.110	0.0141161
856.188	0.0141840
856.266	0.0140390
856.344	0.0139343
856.422	0.0140530
856.500	0.0142150
856.578	0.0142323
856.656	0.0140192
856.735	0.0140476
856.813	0.0140681
856.891	0.0141865
856.969	0.0141817
857.047	0.0142327
857.125	0.0140266
857.203	0.0140726
857.281	0.0141604
857.360	0.0142020
857.438	0.0141908
857.516	0.0142416
857.594	0.0140618
857.672	0.0140302
857.750	0.0139804
857.828	0.0139931
857.906	0.0140630
857.985	0.0140582
858.063	0.0140673
858.141	0.0140514
858.219	0.0141390
858.297	0.0141630
858.375	0.0139663
858.453	0.0141131
858.531	0.0140914
858.610	0.0140933
858.688	0.0141378
858.766	0.0141385
858.844	0.0140593
858.922	0.0140000
859.000	0.0140394
859.078	0.0141551
859.156	0.0142331
859.235	0.0141412
859.313	0.0140556
859.391	0.0140980
859.469	0.0141244
859.547	0.0141434
859.625	0.0141358
859.703	0.0141219
859.781	0.0141917
859.860	0.0141805
859.938	0.0142515
860.016	0.0141109
860.094	0.0140613
860.172	0.0139828
860.250	0.0140557
860.328	0.0141852
860.406	0.0140290
860.485	0.0140562
860.563	0.0139913
860.641	0.0139825
860.719	0.0140541
860.797	0.0140431
860.875	0.0139342
860.953	0.0140717
861.031	0.0141565
861.110	0.0141795
861.188	0.0140495
861.266	0.0141509
861.344	0.0142567
861.422	0.0139835
861.500	0.0139896
861.578	0.0141013
861.656	0.0140802
861.735	0.0141180
861.813	0.0139779
861.891	0.0141884
861.969	0.0141579
862.047	0.0141557
862.125	0.0142923
862.203	0.0143422
862.281	0.0141398
862.360	0.0141609
862.438	0.0142027
862.516	0.0141402
862.594	0.0141122
862.672	0.0142122
862.750	0.0140274
862.828	0.0140929
862.906	0.0141758
862.985	0.0142488
863.063	0.0140825
863.141	0.0141212
863.219	0.0140724
863.297	0.0141750
863.375	0.0142403
863.453	0.0140942
863.531	0.0140894
863.610	0.0141808
863.688	0.0141593
863.766	0.0141711
863.844	0.0142674
863.922	0.0141525
864.000	0.0140871
864.078	0.0140504
864.156	0.0140372
864.235	0.0140186
864.313	0.0141737
864.391	0.0141277
864.469	0.0140804
864.547	0.0140704
864.625	0.0142511
864.703	0.0140846
864.781	0.0141755
864.860	0.0141697
864.938	0.0141270
865.016	0.0141357
865.094	0.0140468
865.172	0.0142013
865.250	0.0141292
865.328	0.0141374
865.406	0.0142097
865.485	0.0142625
865.563	0.0141019
865.641	0.0141596
865.719	0.0141246
865.797	0.0141141
865.875	0.0140268
865.953	0.0140240
866.031	0.0140115
866.110	0.0140609
866.188	0.0141125
866.266	0.0140879
866.344	0.0141258
866.422	0.0140829
866.500	0.0140496
866.578	0.0141599
866.656	0.0142606
866.735	0.0141548
866.813	0.0141953
866.891	0.0140842
866.969	0.0141070
867.047	0.0141913
867.125	0.0143972
867.203	0.0141932
867.281	0.0139767
867.360	0.0141651
867.438	0.0141055
867.516	0.0141089
867.594	0.0139931
867.672	0.0140723
867.750	0.0142036
867.828	0.0141894
867.906	0.0142130
867.985	0.0140489
868.063	0.0140977
868.141	0.0142102
868.219	0.0141383
868.297	0.0141400
868.375	0.0141602
868.453	0.0140955
868.531	0.0142097
868.610	0.0141799
868.688	0.0141618
868.766	0.0141069
868.844	0.0141592
868.922	0.0141872
869.000	0.0141204
869.078	0.0141086
869.156	0.0140572
869.235	0.0140736
869.313	0.0140733
869.391	0.0141689
869.469	0.0140843
869.547	0.0142769
869.625	0.0142702
869.703	0.0142564
869.781	0.0142107
869.860	0.0142937
869.938	0.0142065
870.016	0.0142352
870.094	0.0142352
870.172	0.0141327
870.250	0.0143198
870.328	0.0142149
870.406	0.0141908
870.485	0.0144781
870.563	0.0142705
870.641	0.0143462
870.719	0.0142713
870.797	0.0142599
870.875	0.0142651
870.953	0.0142146
871.031	0.0142478
871.110	0.0142885
871.188	0.0142350
871.266	0.0143009
871.344	0.0141991
871.422	0.0142637
871.500	0.0141968
871.578	0.0142045
871.656	0.0142644
871.735	0.0141922
871.813	0.0142631
871.891	0.0142556
871.969	0.0140591
872.047	0.0140758
872.125	0.0142133
872.203	0.0143135
872.281	0.0142630
872.360	0.0141793
872.438	0.0141711
872.516	0.0142433
872.594	0.0140739
872.672	0.0140849
872.750	0.0142876
872.828	0.0141341
872.906	0.0140752
872.985	0.0141777
873.063	0.0142252
873.141	0.0141834
873.219	0.0141242
873.297	0.0142258
873.375	0.0142820
873.453	0.0141003
873.531	0.0141769
873.610	0.0141365
873.688	0.0142242
873.766	0.0139601
873.844	0.0140149
873.922	0.0140327
874.000	0.0139661
874.078	0.0140027
874.156	0.0140642
874.235	0.0139889
874.313	0.0138890
874.391	0.0138189
874.469	0.0140507
874.547	0.0139597
874.625	0.0141434
874.703	0.0140650
874.781	0.0141344
874.860	0.0140887
874.938	0.0142826
875.016	0.0143456
875.094	0.0141325
875.172	0.0140909
875.250	0.0141469
875.328	0.0140245
875.406	0.0140369
875.485	0.0142136
875.563	0.0142535
875.641	0.0140721
875.719	0.0139966
875.797	0.0141545
875.875	0.0141113
875.953	0.0140869
876.031	0.0140639
876.110	0.0140226
876.188	0.0141016
876.266	0.0141093
876.344	0.0141594
876.422	0.0140601
876.500	0.0140614
876.578	0.0141805
876.656	0.0143263
876.735	0.0140240
876.813	0.0140379
876.891	0.0141617
876.969	0.0141886
877.047	0.0140923
877.125	0.0140590
877.203	0.0140225
877.281	0.0141462
877.360	0.0139918
877.438	0.0139304
877.516	0.0141569
877.594	0.0142538
877.672	0.0142663
877.750	0.0140559
877.828	0.0141594
877.906	0.0143227
877.985	0.0141824
878.063	0.0141150
878.141	0.0142338
878.219	0.0142061
878.297	0.0141334
878.375	0.0142152
878.453	0.0140031
878.531	0.0140309
878.610	0.0141848
878.688	0.0140268
878.766	0.0140441
878.844	0.0141164
878.922	0.0141099
879.000	0.0140721
879.078	0.0142084
879.156	0.0140767
879.235	0.0140693
879.313	0.0141210
879.391	0.0141662
879.469	0.0141296
879.547	0.0142453
879.625	0.0142721
879.703	0.0142410
879.781	0.0142104
879.860	0.0141598
879.938	0.0143871
880.016	0.0143198
880.094	0.0142100
880.172	0.0142542
880.250	0.0144237
880.328	0.0143562
880.406	0.0143299
880.485	0.0143210
880.563	0.0142922
880.641	0.0142441
880.719	0.0143952
880.797	0.0143430
880.875	0.0143560
880.953	0.0142885
881.031	0.0141355
881.110	0.0142967
881.188	0.0142605
881.266	0.0143015
881.344	0.0142889
881.422	0.0141972
881.500	0.0141503
881.578	0.0142470
881.656	0.0142728
881.735	0.0140146
881.813	0.0141102
881.891	0.0141409
881.969	0.0140205
882.047	0.0140728
882.125	0.0142061
882.203	0.0142475
882.281	0.0142467
882.360	0.0141204
882.438	0.0141257
882.516	0.0142658
882.594	0.0142572
882.672	0.0141734
882.750	0.0141985
882.828	0.0141373
882.906	0.0141233
882.985	0.0142066
883.063	0.0142563
883.141	0.0140488
883.219	0.0141090
883.297	0.0140658
883.375	0.0141558
883.453	0.0141939
883.531	0.0141138
883.610	0.0141287
883.688	0.0141788
883.766	0.0140197
883.844	0.0141280
883.922	0.0141270
884.000	0.0141714
884.078	0.0140791
884.156	0.0141551
884.235	0.0142191
884.313	0.0141687
884.391	0.0140021
884.469	0.0140691
884.547	0.0141196
884.625	0.0140549
884.703	0.0141187
884.781	0.0140757
884.860	0.0141297
884.938	0.0141966
885.016	0.0141554
885.094	0.0141280
885.172	0.0140913
885.250	0.0142670
885.328	0.0140560
885.406	0.0141741
885.485	0.0143060
885.563	0.0143040
885.641	0.0144407
885.719	0.0142628
885.797	0.0141373
885.875	0.0144177
885.953	0.0142951
886.031	0.0143237
886.110	0.0142443
886.188	0.0141753
886.266	0.0141407
886.344	0.0141069
886.422	0.0141932
886.500	0.0140240
886.578	0.0140939
886.656	0.0141891
886.735	0.0141548
886.813	0.0142132
886.891	0.0142278
886.969	0.0141349
887.047	0.0140591
887.125	0.0142155
887.203	0.0141805
887.281	0.0143010
887.360	0.0141164
887.438	0.0143424
887.516	0.0143822
887.594	0.0141658
887.672	0.0142595
887.750	0.0142920
887.828	0.0143425
887.906	0.0143024
887.985	0.0141094
888.063	0.0141713
888.141	0.0141382
888.219	0.0141380
888.297	0.0142270
888.375	0.0142308
888.453	0.0141103
888.531	0.0141544
888.610	0.0140391
888.688	0.0141488
888.766	0.0141720
888.844	0.0141087
888.922	0.0140816
889.000	0.0142027
889.078	0.0141157
889.156	0.0140936
889.235	0.0140958
889.313	0.0140965
889.391	0.0141521
889.469	0.0141446
889.547	0.0142188
889.625	0.0141278
889.703	0.0141341
889.781	0.0141886
889.860	0.0141083
889.938	0.0141039
890.016	0.0141592
890.094	0.0141904
890.172	0.0142194
890.250	0.0141692
890.328	0.0141753
890.406	0.0141469
890.485	0.0141637
890.563	0.0142278
890.641	0.0141025
890.719	0.0139997
890.797	0.0140797
890.875	0.0141465
890.953	0.0141092
891.031	0.0140739
891.110	0.0140936
891.188	0.0140830
891.266	0.0140289
891.344	0.0142274
891.422	0.0141170
891.500	0.0141981
891.578	0.0141588
891.656	0.0142388
891.735	0.0141277
891.813	0.0142274
891.891	0.0143209
891.969	0.0142834
892.047	0.0141060
892.125	0.0142002
892.203	0.0141813
892.281	0.0140901
892.360	0.0140990
892.438	0.0141529
892.516	0.0141161
892.594	0.0140868
892.672	0.0140574
892.750	0.0142012
892.828	0.0141660
892.906	0.0140794
892.985	0.0141129
893.063	0.0140916
893.141	0.0141460
893.219	0.0140584
893.297	0.0142140
893.375	0.0142018
893.453	0.0141524
893.531	0.0139903
893.610	0.0139472
893.688	0.0139812
893.766	0.0139720
893.844	0.0140049
893.922	0.0141254
894.000	0.0140352
894.078	0.0140083
894.156	0.0140447
894.235	0.0140007
894.313	0.0140361
894.391	0.0140387
894.469	0.0139979
894.547	0.0139013
894.625	0.0139548
894.703	0.0139311
894.781	0.0140224
894.860	0.0140847
894.938	0.0140289
895.016	0.0140941
895.094	0.0140522
895.172	0.0139278
895.250	0.0140064
895.328	0.0140746
895.406	0.0140248
895.485	0.0141201
895.563	0.0141016
895.641	0.0140850
895.719	0.0139965
895.797	0.0141327
895.875	0.0140368
895.953	0.0140888
896.031	0.0139667
896.110	0.0139626
896.188	0.0140411
896.266	0.0139684
896.344	0.0140887
896.422	0.0140279
896.500	0.0140325
896.578	0.0140616
896.656	0.0140608
896.735	0.0140417
896.813	0.0140384
896.891	0.0140667
896.969	0.0139664
897.047	0.0141285
897.125	0.0140630
897.203	0.0139778
897.281	0.0140778
897.360	0.0141665
897.438	0.0141086
897.516	0.0140789
897.594	0.0141563
897.672	0.0139814
897.750	0.0141205
897.828	0.0141702
897.906	0.0142145
897.985	0.0141528
898.063	0.0141541
898.141	0.0141788
898.219	0.0141123
898.297	0.0141773
898.375	0.0142944
898.453	0.0141943
898.531	0.0141631
898.610	0.0142271
898.688	0.0141872
898.766	0.0142826
898.844	0.0141958
898.922	0.0143693
899.000	0.0141734
899.078	0.0141893
899.156	0.0141286
899.235	0.0142216
899.313	0.0140385
899.391	0.0141803
899.469	0.0141983
899.547	0.0142924
899.625	0.0142109
899.703	0.0141698
899.781	0.0142231
899.860	0.0141631
899.938	0.0142978
900.016	0.0143913
900.094	0.0142981
900.172	0.0141529
900.250	0.0141701
900.328	0.0142439
900.406	0.0143233
900.485	0.0142413
900.563	0.0140878
900.641	0.0142157
900.719	0.0142147
900.797	0.0142364
900.875	0.0142461
900.953	0.0142063
901.031	0.0142304
901.110	0.0143591
901.188	0.0141322
901.266	0.0142233
901.344	0.0142153
901.422	0.0141038
901.500	0.0141786
901.578	0.0142757
901.656	0.0142094
901.735	0.0142456
901.813	0.0142660
901.891	0.0142685
901.969	0.0142931
902.047	0.0143328
902.125	0.0141679
902.203	0.0142706
902.281	0.0142875
902.360	0.0142087
902.438	0.0142238
902.516	0.0143309
902.594	0.0142212
902.672	0.0143021
902.750	0.0141024
902.828	0.0141798
902.906	0.0144303
902.985	0.0144202
903.063	0.0144078
903.141	0.0143491
903.219	0.0144283
903.297	0.0143715
903.375	0.0143914
903.453	0.0142963
903.531	0.0143151
903.610	0.0144325
903.688	0.0143979
903.766	0.0143063
903.844	0.0143102
903.922	0.0144791
904.000	0.0144360
904.078	0.0143233
904.156	0.0143650
904.235	0.0143834
904.313	0.0143488
904.391	0.0144075
904.469	0.0143648
904.547	0.0143712
904.625	0.0143159
904.703	0.0143926
904.781	0.0143559
904.860	0.0143766
904.938	0.0144441
905.016	0.0143926
905.094	0.0145057
905.172	0.0143472
905.250	0.0142319
905.328	0.0142873
905.406	0.0143159
905.485	0.0143346
905.563	0.0142715
905.641	0.0142705
905.719	0.0144617
905.797	0.0142879
905.875	0.0144299
905.953	0.0144956
906.031	0.0143512
906.110	0.0143409
906.188	0.0143868
906.266	0.0143764
906.344	0.0142980
906.422	0.0144765
906.500	0.0144341
906.578	0.0144682
906.656	0.0142381
906.735	0.0143256
906.813	0.0144398
906.891	0.0143042
906.969	0.0142426
907.047	0.0142940
907.125	0.0142942
907.203	0.0142177
907.281	0.0141785
907.360	0.0142455
907.438	0.0142049
907.516	0.0142578
907.594	0.0142160
907.672	0.0141082
907.750	0.0141891
907.828	0.0142226
907.906	0.0144419
907.985	0.0142269
908.063	0.0141828
908.141	0.0142703
908.219	0.0143835
908.297	0.0142279
908.375	0.0143003
908.453	0.0142220
908.531	0.0142976
908.610	0.0142647
908.688	0.0140852
908.766	0.0141948
908.844	0.0144027
908.922	0.0142625
909.000	0.0141756
909.078	0.0142303
909.156	0.0142318
909.235	0.0142422
909.313	0.0142408
909.391	0.0142686
909.469	0.0142499
909.547	0.0141257
909.625	0.0142005
909.703	0.0143513
909.781	0.0143208
909.860	0.0142904
909.938	0.0142646
910.016	0.0142503
910.094	0.0141917
910.172	0.0141621
910.250	0.0142454
910.328	0.0143211
910.406	0.0143079
910.485	0.0140716
910.563	0.0143653
910.641	0.0142912
910.719	0.0142629
910.797	0.0144201
910.875	0.0144494
910.953	0.0143128
911.031	0.0144062
911.110	0.0143668
911.188	0.0143586
911.266	0.0142188
911.344	0.0142582
911.422	0.0141933
911.500	0.0142551
911.578	0.0142097
911.656	0.0143031
911.735	0.0141720
911.813	0.0141586
911.891	0.0141464
911.969	0.0142058
912.047	0.0142505
912.125	0.0142121
912.203	0.0142550
912.281	0.0140660
912.360	0.0141721
912.438	0.0142042
912.516	0.0141269
912.594	0.0141534
912.672	0.0141540
912.750	0.0141912
912.828	0.0141821
912.906	0.0141908
912.985	0.0141672
913.063	0.0141911
913.141	0.0140524
913.219	0.0142940
913.297	0.0141547
913.375	0.0142105
913.453	0.0142463
913.531	0.0141730
913.610	0.0141772
913.688	0.0141871
913.766	0.0141568
913.844	0.0142658
913.922	0.0142747
914.000	0.0142002
914.078	0.0141293
914.156	0.0142165
914.235	0.0140835
914.313	0.0140688
914.391	0.0141032
914.469	0.0140833
914.547	0.0140925
914.625	0.0140930
914.703	0.0140818
914.781	0.0141766
914.860	0.0140783
914.938	0.0141653
915.016	0.0142331
915.094	0.0140961
915.172	0.0141534
915.250	0.0141069
915.328	0.0140836
915.406	0.0141984
915.485	0.0139586
915.563	0.0140894
915.641	0.0140929
915.719	0.0140844
915.797	0.0142024
915.875	0.0141487
915.953	0.0141779
916.031	0.0141574
916.110	0.0142074
916.188	0.0141093
916.266	0.0141775
916.344	0.0140769
916.422	0.0140782
916.500	0.0141700
916.578	0.0142288
916.656	0.0141535
916.735	0.0141821
916.813	0.0141193
916.891	0.0141353
916.969	0.0140465
917.047	0.0140796
917.125	0.0141087
917.203	0.0142926
917.281	0.0142110
917.360	0.0140430
917.438	0.0140721
917.516	0.0140733
917.594	0.0141335
917.672	0.0140868
917.750	0.0141183
917.828	0.0141946
917.906	0.0142410
917.985	0.0142504
918.063	0.0140790
918.141	0.0141255
918.219	0.0141479
918.297	0.0140639
918.375	0.0141547
918.453	0.0141528
918.531	0.0140343
918.610	0.0143726
918.688	0.0140952
918.766	0.0141624
918.844	0.0141394
918.922	0.0142963
919.000	0.0142031
919.078	0.0142413
919.156	0.0141409
919.235	0.0141956
919.313	0.0141513
919.391	0.0140377
919.469	0.0141715
919.547	0.0141597
919.625	0.0139966
919.703	0.0141515
919.781	0.0140875
919.860	0.0141088
919.938	0.0141597
920.016	0.0142159
920.094	0.0142065
920.172	0.0142648
920.250	0.0141637
920.328	0.0141579
920.406	0.0140769
920.485	0.0141502
920.563	0.0142057
920.641	0.0142178
920.719	0.0141588
920.797	0.0141676
920.875	0.0141042
920.953	0.0141433
921.031	0.0140432
921.110	0.0140625
921.188	0.0140994
921.266	0.0141707
921.344	0.0141864
921.422	0.0143217
921.500	0.0141965
921.578	0.0141433
921.656	0.0142175
921.735	0.0141393
921.813	0.0141468
921.891	0.0141075
921.969	0.0140814
922.047	0.0143032
922.125	0.0142317
922.203	0.0142081
922.281	0.0142258
922.360	0.0142059
922.438	0.0141732
922.516	0.0142429
922.594	0.0141538
922.672	0.0141682
922.750	0.0142182
922.828	0.0141059
922.906	0.0140897
922.985	0.0143097
923.063	0.0141514
923.141	0.0140812
923.219	0.0141177
923.297	0.0142484
923.375	0.0141361
923.453	0.0141135
923.531	0.0142361
923.610	0.0141061
923.688	0.0141697
923.766	0.0142017
923.844	0.0143106
923.922	0.0142715
924.000	0.0142312
924.078	0.0142690
924.156	0.0142893
924.235	0.0142451
924.313	0.0140521
924.391	0.0143307
924.469	0.0141088
924.547	0.0142735
924.625	0.0142422
924.703	0.0142613
924.781	0.0143367
924.860	0.0144137
924.938	0.0142192
925.016	0.0141359
925.094	0.0142068
925.172	0.0142917
925.250	0.0143086
925.328	0.0142501
925.406	0.0142574
925.485	0.0143151
925.563	0.0143876
925.641	0.0142538
925.719	0.0142285
925.797	0.0142925
925.875	0.0142001
925.953	0.0143190
926.031	0.0141689
926.110	0.0142448
926.188	0.0142799
926.266	0.0142258
926.344	0.0142937
926.422	0.0142957
926.500	0.0142214
926.578	0.0141905
926.656	0.0142136
926.735	0.0142954
926.813	0.0143307
926.891	0.0143235
926.969	0.0143692
927.047	0.0141989
927.125	0.0141159
927.203	0.0143452
927.281	0.0142432
927.360	0.0143816
927.438	0.0143569
927.516	0.0143731
927.594	0.0142292
927.672	0.0142935
927.750	0.0140681
927.828	0.0141776
927.906	0.0142341
927.985	0.0141512
928.063	0.0142423
928.141	0.0142071
928.219	0.0141167
928.297	0.0142264
928.375	0.0141391
928.453	0.0141356
928.531	0.0141185
928.610	0.0140875
928.688	0.0140326
928.766	0.0141457
928.844	0.0140668
928.922	0.0141267
929.000	0.0141653
929.078	0.0141317
929.156	0.0139970
929.235	0.0139918
929.313	0.0140768
929.391	0.0141331
929.469	0.0141069
929.547	0.0141135
929.625	0.0142007
929.703	0.0140245
929.781	0.0140192
929.860	0.0140617
929.938	0.0140581
930.016	0.0141199
930.094	0.0141011
930.172	0.0140321
930.250	0.0140161
930.328	0.0140668
930.406	0.0140930
930.485	0.0141380
930.563	0.0140038
930.641	0.0139693
930.719	0.0140640
930.797	0.0141122
930.875	0.0140214
930.953	0.0141681
931.031	0.0139969
931.110	0.0141024
931.188	0.0141994
931.266	0.0142170
931.344	0.0141598
931.422	0.0142342
931.500	0.0141515
931.578	0.0141154
931.656	0.0141957
931.735	0.0142950
931.813	0.0143504
931.891	0.0141488
931.969	0.0140923
932.047	0.0140812
932.125	0.0143710
932.203	0.0143466
932.281	0.0143150
932.360	0.0141857
932.438	0.0141904
932.516	0.0141060
932.594	0.0142760
932.672	0.0143060
932.750	0.0140431
932.828	0.0142340
932.906	0.0142516
932.985	0.0142287
933.063	0.0143340
933.141	0.0142206
933.219	0.0142516
933.297	0.0143040
933.375	0.0143491
933.453	0.0142560
933.531	0.0142834
933.610	0.0142439
933.688	0.0141667
933.766	0.0142699
933.844	0.0141801
933.922	0.0142260
934.000	0.0142976
934.078	0.0142436
934.156	0.0140641
934.235	0.0142103
934.313	0.0142067
934.391	0.0142077
934.469	0.0142505
934.547	0.0141343
934.625	0.0143829
934.703	0.0142889
934.781	0.0142561
934.860	0.0141338
934.938	0.0141755
935.016	0.0142894
935.094	0.0142444
935.172	0.0142923
935.250	0.0140878
935.328	0.0141579
935.406	0.0141958
935.485	0.0142291
935.563	0.0142463
935.641	0.0142249
935.719	0.0142721
935.797	0.0143394
935.875	0.0140894
935.953	0.0141596
936.031	0.0142522
936.110	0.0142072
936.188	0.0143019
936.266	0.0143060
936.344	0.0142064
936.422	0.0142625
936.500	0.0141861
936.578	0.0143114
936.656	0.0141684
936.735	0.0141232
936.813	0.0142165
936.891	0.0142384
936.969	0.0142859
937.047	0.0142516
937.125	0.0142017
937.203	0.0141302
937.281	0.0141811
937.360	0.0142086
937.438	0.0141205
937.516	0.0141566
937.594	0.0141409
937.672	0.0142738
937.750	0.0142815
937.828	0.0141921
937.906	0.0142338
937.985	0.0140779
938.063	0.0141126
938.141	0.0142590
938.219	0.0140659
938.297	0.0142388
938.375	0.0141621
938.453	0.0142033
938.531	0.0142538
938.610	0.0141107
938.688	0.0142069
938.766	0.0141499
938.844	0.0142020
938.922	0.0142117
939.000	0.0142933
939.078	0.0142168
939.156	0.0142106
939.235	0.0141756
939.313	0.0142039
939.391	0.0141766
939.469	0.0141080
939.547	0.0142071
939.625	0.0140817
939.703	0.0142765
939.781	0.0142609
939.860	0.0140761
939.938	0.0142151
940.016	0.0140587
940.094	0.0141338
940.172	0.0141489
940.250	0.0141557
940.328	0.0141386
940.406	0.0141030
940.485	0.0140128
940.563	0.0141138
940.641	0.0141298
940.719	0.0141764
940.797	0.0141201
940.875	0.0142715
940.953	0.0141815
941.031	0.0141321
941.110	0.0141717
941.188	0.0142900
941.266	0.0141591
941.344	0.0142412
941.422	0.0142245
941.500	0.0140788
941.578	0.0141595
941.656	0.0141794
941.735	0.0141595
941.813	0.0140411
941.891	0.0141587
941.969	0.0141808
942.047	0.0141061
942.125	0.0140766
942.203	0.0140580
942.281	0.0140520
942.360	0.0140635
942.438	0.0141785
942.516	0.0142028
942.594	0.0142665
942.672	0.0141390
942.750	0.0141312
942.828	0.0141939
942.906	0.0141729
942.985	0.0141665
943.063	0.0142285
943.141	0.0141220
943.219	0.0141663
943.297	0.0141315
943.375	0.0142784
943.453	0.0142326
943.531	0.0142006
943.610	0.0141758
943.688	0.0141693
943.766	0.0142630
943.844	0.0143787
943.922	0.0142664
944.000	0.0141882
944.078	0.0142732
944.156	0.0144088
944.235	0.0142013
944.313	0.0141938
944.391	0.0141741
944.469	0.0141946
944.547	0.0142400
944.625	0.0142063
944.703	0.0140532
944.781	0.0140520
944.860	0.0142083
944.938	0.0141882
945.016	0.0139575
945.094	0.0142189
945.172	0.0142805
945.250	0.0140453
945.328	0.0142985
945.406	0.0142957
945.485	0.0141650
945.563	0.0140023
945.641	0.0141729
945.719	0.0142329
945.797	0.0142730
945.875	0.0142050
945.953	0.0141807
946.031	0.0141566
946.110	0.0140170
946.188	0.0141415
946.266	0.0140155
946.344	0.0140272
946.422	0.0141955
946.500	0.0140959
946.578	0.0141070
946.656	0.0141547
946.735	0.0140995
946.813	0.0140028
946.891	0.0140095
946.969	0.0141240
947.047	0.0140941
947.125	0.0140615
947.203	0.0140946
947.281	0.0140314
947.360	0.0139954
947.438	0.0141438
947.516	0.0141781
947.594	0.0140276
947.672	0.0141134
947.750	0.0141618
947.828	0.0140061
947.906	0.0141402
947.985	0.0141702
948.063	0.0141327
948.141	0.0141226
948.219	0.0140096
948.297	0.0140883
948.375	0.0142488
948.453	0.0141531
948.531	0.0141753
948.610	0.0141474
948.688	0.0141506
948.766	0.0141219
948.844	0.0140867
948.922	0.0141307
949.000	0.0140885
949.078	0.0140104
949.156	0.0139357
949.235	0.0141272
949.313	0.0140457
949.391	0.0141605
949.469	0.0141861
949.547	0.0140760
949.625	0.0140566
949.703	0.0140288
949.781	0.0139955
949.860	0.0141212
949.938	0.0140985
