05/04/2022	21:45:49	Ver.	4.1	UNKNOWN
Optical Delay	630.015849	Delta X		0.078125	Sweeps	1	Scan Rate	0/0
Coordinates	Axis 1	NaN	Axis 2	NaN	Axis 3	NaN	Axis 4	NaN	Axis 5	NaN	Axis 6	0.000000
TX Power	0.000000	RX Power	0.000000

630.016	0.0148873
630.094	0.0149007
630.172	0.0149851
630.250	0.0148190
630.328	0.0148641
630.406	0.0147340
630.485	0.0147782
630.563	0.0148390
630.641	0.0148479
630.719	0.0148451
630.797	0.0148808
630.875	0.0147787
630.953	0.0147987
631.031	0.0148489
631.110	0.0149225
631.188	0.0147177
631.266	0.0146341
631.344	0.0146522
631.422	0.0147684
631.500	0.0148357
631.578	0.0147173
631.656	0.0148076
631.735	0.0148669
631.813	0.0147516
631.891	0.0148661
631.969	0.0148401
632.047	0.0147143
632.125	0.0147736
632.203	0.0148011
632.281	0.0148267
632.360	0.0148618
632.438	0.0148269
632.516	0.0148090
632.594	0.0147308
632.672	0.0149883
632.750	0.0149516
632.828	0.0148705
632.906	0.0149458
632.985	0.0148388
633.063	0.0148615
633.141	0.0149789
633.219	0.0148593
633.297	0.0148046
633.375	0.0148763
633.453	0.0149465
633.531	0.0150283
633.610	0.0150259
633.688	0.0149384
633.766	0.0148747
633.844	0.0148083
633.922	0.0147706
634.000	0.0150128
634.078	0.0149353
634.156	0.0150018
634.235	0.0148571
634.313	0.0148505
634.391	0.0149616
634.469	0.0149648
634.547	0.0148647
634.625	0.0150169
634.703	0.0148519
634.781	0.0148830
634.860	0.0148859
634.938	0.0148777
635.016	0.0148801
635.094	0.0150375
635.172	0.0148936
635.250	0.0149473
635.328	0.0149033
635.406	0.0149726
635.485	0.0148753
635.563	0.0150162
635.641	0.0149113
635.719	0.0148811
635.797	0.0148932
635.875	0.0148991
635.953	0.0148718
636.031	0.0149735
636.110	0.0148799
636.188	0.0147822
636.266	0.0150043
636.344	0.0149508
636.422	0.0149118
636.500	0.0149171
636.578	0.0149387
636.656	0.0149294
636.735	0.0147833
636.813	0.0148663
636.891	0.0150348
636.969	0.0148540
637.047	0.0148100
637.125	0.0148065
637.203	0.0148777
637.281	0.0148653
637.360	0.0147872
637.438	0.0147850
637.516	0.0148871
637.594	0.0149000
637.672	0.0147157
637.750	0.0148373
637.828	0.0148552
637.906	0.0148258
637.985	0.0149620
638.063	0.0148466
638.141	0.0147929
638.219	0.0148848
638.297	0.0148645
638.375	0.0149480
638.453	0.0149706
638.531	0.0149110
638.610	0.0148122
638.688	0.0150034
638.766	0.0148344
638.844	0.0147652
638.922	0.0149010
639.000	0.0149802
639.078	0.0148785
639.156	0.0147633
639.235	0.0148502
639.313	0.0147841
639.391	0.0149433
639.469	0.0148965
639.547	0.0148560
639.625	0.0148784
639.703	0.0147813
639.781	0.0148063
639.860	0.0148960
639.938	0.0149109
640.016	0.0146814
640.094	0.0147604
640.172	0.0148653
640.250	0.0148181
640.328	0.0148343
640.406	0.0147610
640.485	0.0147829
640.563	0.0147215
640.641	0.0148116
640.719	0.0147836
640.797	0.0147129
640.875	0.0147019
640.953	0.0147634
641.031	0.0148547
641.110	0.0146532
641.188	0.0147571
641.266	0.0147031
641.344	0.0148350
641.422	0.0148276
641.500	0.0146516
641.578	0.0147510
641.656	0.0147805
641.735	0.0148844
641.813	0.0147907
641.891	0.0147548
641.969	0.0149092
642.047	0.0148446
642.125	0.0147620
642.203	0.0147785
642.281	0.0147881
642.360	0.0148090
642.438	0.0147516
642.516	0.0147703
642.594	0.0146385
642.672	0.0145831
642.750	0.0147676
642.828	0.0147134
642.906	0.0147664
642.985	0.0147912
643.063	0.0147108
643.141	0.0147511
643.219	0.0147712
643.297	0.0147215
643.375	0.0147849
643.453	0.0147145
643.531	0.0149629
643.610	0.0149179
643.688	0.0150100
643.766	0.0150113
643.844	0.0148254
643.922	0.0147662
644.000	0.0149391
644.078	0.0148743
644.156	0.0148359
644.235	0.0148157
644.313	0.0148555
644.391	0.0147717
644.469	0.0148492
644.547	0.0149578
644.625	0.0149596
644.703	0.0148416
644.781	0.0148534
644.860	0.0149187
644.938	0.0149935
645.016	0.0148631
645.094	0.0150758
645.172	0.0149249
645.250	0.0148735
645.328	0.0149917
645.406	0.0149860
645.485	0.0149532
645.563	0.0150318
645.641	0.0148833
645.719	0.0149413
645.797	0.0148934
645.875	0.0150182
645.953	0.0148880
646.031	0.0148460
646.110	0.0148885
646.188	0.0148164
646.266	0.0149407
646.344	0.0150330
646.422	0.0150485
646.500	0.0148672
646.578	0.0147871
646.656	0.0149106
646.735	0.0148592
646.813	0.0149387
646.891	0.0148599
646.969	0.0149162
647.047	0.0149137
647.125	0.0149055
647.203	0.0150568
647.281	0.0148294
647.360	0.0148347
647.438	0.0148015
647.516	0.0148923
647.594	0.0149545
647.672	0.0148591
647.750	0.0149932
647.828	0.0149086
647.906	0.0148591
647.985	0.0149078
648.063	0.0147137
648.141	0.0147147
648.219	0.0147594
648.297	0.0148314
648.375	0.0148320
648.453	0.0147938
648.531	0.0147433
648.610	0.0147218
648.688	0.0148602
648.766	0.0147411
648.844	0.0148737
648.922	0.0147923
649.000	0.0147585
649.078	0.0147424
649.156	0.0147561
649.235	0.0148750
649.313	0.0146557
649.391	0.0146886
649.469	0.0147272
649.547	0.0147324
649.625	0.0149111
649.703	0.0147521
649.781	0.0146818
649.860	0.0147927
649.938	0.0147414
650.016	0.0147210
650.094	0.0147256
650.172	0.0147974
650.250	0.0147755
650.328	0.0147247
650.406	0.0147457
650.485	0.0148722
650.563	0.0148595
650.641	0.0147364
650.719	0.0147644
650.797	0.0146062
650.875	0.0148829
650.953	0.0147159
651.031	0.0148489
651.110	0.0146942
651.188	0.0148125
651.266	0.0147433
651.344	0.0148396
651.422	0.0147519
651.500	0.0147383
651.578	0.0147605
651.656	0.0149316
651.735	0.0147356
651.813	0.0149303
651.891	0.0148016
651.969	0.0147391
652.047	0.0147913
652.125	0.0147405
652.203	0.0148608
652.281	0.0148898
652.360	0.0147369
652.438	0.0146720
652.516	0.0149175
652.594	0.0149109
652.672	0.0148470
652.750	0.0146919
652.828	0.0148714
652.906	0.0149692
652.985	0.0147189
653.063	0.0147474
653.141	0.0149825
653.219	0.0147914
653.297	0.0147595
653.375	0.0148735
653.453	0.0149106
653.531	0.0148199
653.610	0.0148438
653.688	0.0148310
653.766	0.0147611
653.844	0.0148101
653.922	0.0148656
654.000	0.0148343
654.078	0.0148036
654.156	0.0148490
654.235	0.0147917
654.313	0.0148119
654.391	0.0148921
654.469	0.0147179
654.547	0.0147900
654.625	0.0147228
654.703	0.0148587
654.781	0.0149081
654.860	0.0148146
654.938	0.0147744
655.016	0.0147392
655.094	0.0148294
655.172	0.0148933
655.250	0.0147270
655.328	0.0148369
655.406	0.0147827
655.485	0.0147698
655.563	0.0148192
655.641	0.0147970
655.719	0.0147243
655.797	0.0147427
655.875	0.0146717
655.953	0.0147393
656.031	0.0148322
656.110	0.0148466
656.188	0.0147488
656.266	0.0146846
656.344	0.0148127
656.422	0.0148511
656.500	0.0148715
656.578	0.0148510
656.656	0.0147343
656.735	0.0147606
656.813	0.0148676
656.891	0.0148446
656.969	0.0148587
657.047	0.0147239
657.125	0.0148000
657.203	0.0147866
657.281	0.0148095
657.360	0.0147958
657.438	0.0148694
657.516	0.0148361
657.594	0.0149081
657.672	0.0149400
657.750	0.0148811
657.828	0.0146913
657.906	0.0149529
657.985	0.0147394
658.063	0.0149137
658.141	0.0150360
658.219	0.0149490
658.297	0.0148474
658.375	0.0148000
658.453	0.0147104
658.531	0.0148412
658.610	0.0148357
658.688	0.0149306
658.766	0.0148463
658.844	0.0148134
658.922	0.0147717
659.000	0.0147345
659.078	0.0146752
659.156	0.0148630
659.235	0.0148404
659.313	0.0147185
659.391	0.0147292
659.469	0.0147958
659.547	0.0147092
659.625	0.0147674
659.703	0.0147255
659.781	0.0147429
659.860	0.0148027
659.938	0.0148643
660.016	0.0147359
660.094	0.0147221
660.172	0.0146864
660.250	0.0146691
660.328	0.0147963
660.406	0.0148484
660.485	0.0146233
660.563	0.0148704
660.641	0.0148183
660.719	0.0150063
660.797	0.0149762
660.875	0.0149784
660.953	0.0148451
661.031	0.0148991
661.110	0.0150008
661.188	0.0147904
661.266	0.0150156
661.344	0.0148150
661.422	0.0149888
661.500	0.0149925
661.578	0.0147449
661.656	0.0148783
661.735	0.0148019
661.813	0.0147260
661.891	0.0148248
661.969	0.0148852
662.047	0.0149437
662.125	0.0149605
662.203	0.0148833
662.281	0.0149731
662.360	0.0148635
662.438	0.0149482
662.516	0.0148939
662.594	0.0150094
662.672	0.0151170
662.750	0.0150681
662.828	0.0149995
662.906	0.0149062
662.985	0.0149304
663.063	0.0150303
663.141	0.0149804
663.219	0.0148849
663.297	0.0150284
663.375	0.0148550
663.453	0.0148330
663.531	0.0149932
663.610	0.0148218
663.688	0.0148566
663.766	0.0148447
663.844	0.0148033
663.922	0.0147582
664.000	0.0147919
664.078	0.0148975
664.156	0.0147789
664.235	0.0148008
664.313	0.0148020
664.391	0.0149026
664.469	0.0149530
664.547	0.0150139
664.625	0.0147912
664.703	0.0149812
664.781	0.0150488
664.860	0.0147488
664.938	0.0148058
665.016	0.0149669
665.094	0.0149160
665.172	0.0148235
665.250	0.0148367
665.328	0.0148273
665.406	0.0148133
665.485	0.0148483
665.563	0.0149767
665.641	0.0149152
665.719	0.0148324
665.797	0.0148376
665.875	0.0147904
665.953	0.0147164
666.031	0.0147181
666.110	0.0148499
666.188	0.0149111
666.266	0.0146856
666.344	0.0147456
666.422	0.0148322
666.500	0.0147612
666.578	0.0147455
666.656	0.0147373
666.735	0.0147813
666.813	0.0149245
666.891	0.0147400
666.969	0.0147377
667.047	0.0149849
667.125	0.0147330
667.203	0.0147459
667.281	0.0148916
667.360	0.0148339
667.438	0.0149831
667.516	0.0150806
667.594	0.0150329
667.672	0.0149402
667.750	0.0149142
667.828	0.0147655
667.906	0.0148650
667.985	0.0147621
668.063	0.0147515
668.141	0.0147459
668.219	0.0148135
668.297	0.0148371
668.375	0.0147554
668.453	0.0148492
668.531	0.0146794
668.610	0.0147568
668.688	0.0149041
668.766	0.0149355
668.844	0.0148808
668.922	0.0147415
669.000	0.0149983
669.078	0.0148380
669.156	0.0147910
669.235	0.0147002
669.313	0.0146323
669.391	0.0145152
669.469	0.0144180
669.547	0.0143736
669.625	0.0144482
669.703	0.0145181
669.781	0.0143555
669.860	0.0143539
669.938	0.0145001
670.016	0.0144331
670.094	0.0145539
670.172	0.0145715
670.250	0.0147224
670.328	0.0148009
670.406	0.0147433
670.485	0.0149135
670.563	0.0150135
670.641	0.0151488
670.719	0.0150985
670.797	0.0151402
670.875	0.0148486
670.953	0.0150477
671.031	0.0149110
671.110	0.0148317
671.188	0.0148054
671.266	0.0147958
671.344	0.0146147
671.422	0.0145824
671.500	0.0146650
671.578	0.0146615
671.656	0.0146200
671.735	0.0144770
671.813	0.0145096
671.891	0.0146039
671.969	0.0146719
672.047	0.0147474
672.125	0.0146858
672.203	0.0146158
672.281	0.0148264
672.360	0.0146139
672.438	0.0145747
672.516	0.0146068
672.594	0.0145052
672.672	0.0146783
672.750	0.0146204
672.828	0.0146857
672.906	0.0145628
672.985	0.0146327
673.063	0.0147954
673.141	0.0146828
673.219	0.0149345
673.297	0.0148512
673.375	0.0148146
673.453	0.0148669
673.531	0.0149036
673.610	0.0148261
673.688	0.0148006
673.766	0.0145403
673.844	0.0145763
673.922	0.0145715
674.000	0.0144237
674.078	0.0143938
674.156	0.0143219
674.235	0.0143458
674.313	0.0143219
674.391	0.0142468
674.469	0.0142405
674.547	0.0143703
674.625	0.0143850
674.703	0.0145699
674.781	0.0146004
674.860	0.0146075
674.938	0.0148084
675.016	0.0150943
675.094	0.0150974
675.172	0.0151756
675.250	0.0152029
675.328	0.0151919
675.406	0.0152459
675.485	0.0152117
675.563	0.0150485
675.641	0.0148876
675.719	0.0148033
675.797	0.0146152
675.875	0.0145824
675.953	0.0145110
676.031	0.0143217
676.110	0.0143815
676.188	0.0143359
676.266	0.0143435
676.344	0.0144567
676.422	0.0144730
676.500	0.0145144
676.578	0.0145951
676.656	0.0146881
676.735	0.0146976
676.813	0.0147730
676.891	0.0149484
676.969	0.0148026
677.047	0.0149886
677.125	0.0149726
677.203	0.0149766
677.281	0.0149019
677.360	0.0149541
677.438	0.0148446
677.516	0.0148132
677.594	0.0145528
677.672	0.0144808
677.750	0.0143503
677.828	0.0141963
677.906	0.0141322
677.985	0.0141491
678.063	0.0140414
678.141	0.0141394
678.219	0.0143193
678.297	0.0144534
678.375	0.0145785
678.453	0.0147292
678.531	0.0146572
678.610	0.0148409
678.688	0.0149764
678.766	0.0151455
678.844	0.0150386
678.922	0.0151126
679.000	0.0152278
679.078	0.0151126
679.156	0.0152087
679.235	0.0151178
679.313	0.0152469
679.391	0.0152528
679.469	0.0150724
679.547	0.0150086
679.625	0.0150057
679.703	0.0149595
679.781	0.0147846
679.860	0.0146841
679.938	0.0147057
680.016	0.0145727
680.094	0.0146643
680.172	0.0146098
680.250	0.0146806
680.328	0.0145989
680.406	0.0145013
680.485	0.0144542
680.563	0.0145432
680.641	0.0146668
680.719	0.0144016
680.797	0.0144985
680.875	0.0145578
680.953	0.0144726
681.031	0.0143625
681.110	0.0145947
681.188	0.0147902
681.266	0.0147939
681.344	0.0149268
681.422	0.0150302
681.500	0.0150484
681.578	0.0151887
681.656	0.0152160
681.735	0.0152969
681.813	0.0153313
681.891	0.0154520
681.969	0.0152090
682.047	0.0151282
682.125	0.0150004
682.203	0.0148189
682.281	0.0146299
682.360	0.0144805
682.438	0.0141866
682.516	0.0140025
682.594	0.0139489
682.672	0.0138539
682.750	0.0137308
682.828	0.0138689
682.906	0.0140232
682.985	0.0139405
683.063	0.0141950
683.141	0.0144249
683.219	0.0147072
683.297	0.0149450
683.375	0.0148854
683.453	0.0150480
683.531	0.0152310
683.610	0.0153193
683.688	0.0153217
683.766	0.0153828
683.844	0.0153685
683.922	0.0155754
684.000	0.0153689
684.078	0.0152164
684.156	0.0152887
684.235	0.0152843
684.313	0.0151958
684.391	0.0152337
684.469	0.0152444
684.547	0.0150011
684.625	0.0149683
684.703	0.0150415
684.781	0.0148697
684.860	0.0148291
684.938	0.0149219
685.016	0.0147721
685.094	0.0146984
685.172	0.0144279
685.250	0.0142477
685.328	0.0141270
685.406	0.0139034
685.485	0.0138824
685.563	0.0136888
685.641	0.0136662
685.719	0.0134986
685.797	0.0136474
685.875	0.0138473
685.953	0.0139899
686.031	0.0143065
686.110	0.0142732
686.188	0.0145634
686.266	0.0149369
686.344	0.0150341
686.422	0.0154092
686.500	0.0155720
686.578	0.0156484
686.656	0.0157847
686.735	0.0157854
686.813	0.0159995
686.891	0.0159129
686.969	0.0158652
687.047	0.0158224
687.125	0.0158021
687.203	0.0153897
687.281	0.0152533
687.360	0.0148997
687.438	0.0147519
687.516	0.0147735
687.594	0.0144491
687.672	0.0141815
687.750	0.0142188
687.828	0.0141693
687.906	0.0141875
687.985	0.0140363
688.063	0.0139574
688.141	0.0139712
688.219	0.0140648
688.297	0.0140173
688.375	0.0140363
688.453	0.0141801
688.531	0.0143442
688.610	0.0142210
688.688	0.0144260
688.766	0.0144720
688.844	0.0144324
688.922	0.0147645
689.000	0.0147542
689.078	0.0150603
689.156	0.0150984
689.235	0.0152462
689.313	0.0152625
689.391	0.0154352
689.469	0.0156111
689.547	0.0156395
689.625	0.0156964
689.703	0.0156090
689.781	0.0156566
689.860	0.0155784
689.938	0.0153837
690.016	0.0151512
690.094	0.0149290
690.172	0.0146355
690.250	0.0143770
690.328	0.0142342
690.406	0.0141998
690.485	0.0140849
690.563	0.0139259
690.641	0.0139290
690.719	0.0138493
690.797	0.0140966
690.875	0.0141180
690.953	0.0139856
691.031	0.0141652
691.110	0.0143234
691.188	0.0143494
691.266	0.0145727
691.344	0.0146521
691.422	0.0146645
691.500	0.0146230
691.578	0.0147240
691.656	0.0147456
691.735	0.0148966
691.813	0.0149383
691.891	0.0150040
691.969	0.0152014
692.047	0.0150935
692.125	0.0150524
692.203	0.0150977
692.281	0.0151276
692.360	0.0151182
692.438	0.0151437
692.516	0.0152132
692.594	0.0150713
692.672	0.0149084
692.750	0.0148194
692.828	0.0145112
692.906	0.0145009
692.985	0.0141711
693.063	0.0140256
693.141	0.0140324
693.219	0.0138937
693.297	0.0138912
693.375	0.0139219
693.453	0.0139452
693.531	0.0140412
693.610	0.0142289
693.688	0.0143848
693.766	0.0146791
693.844	0.0147715
693.922	0.0147814
694.000	0.0149702
694.078	0.0152311
694.156	0.0151982
694.235	0.0152724
694.313	0.0152708
694.391	0.0154047
694.469	0.0152112
694.547	0.0152690
694.625	0.0149640
694.703	0.0149736
694.781	0.0149536
694.860	0.0147073
694.938	0.0146317
695.016	0.0145263
695.094	0.0143307
695.172	0.0141582
695.250	0.0140562
695.328	0.0142312
695.406	0.0141050
695.485	0.0140925
695.563	0.0142533
695.641	0.0142442
695.719	0.0142824
695.797	0.0142722
695.875	0.0143644
695.953	0.0145488
696.031	0.0147305
696.110	0.0148514
696.188	0.0149419
696.266	0.0149200
696.344	0.0149833
696.422	0.0151604
696.500	0.0152137
696.578	0.0150840
696.656	0.0151201
696.735	0.0151198
696.813	0.0150954
696.891	0.0151038
696.969	0.0150357
697.047	0.0151340
697.125	0.0149732
697.203	0.0148964
697.281	0.0150040
697.360	0.0148699
697.438	0.0148270
697.516	0.0147723
697.594	0.0148756
697.672	0.0147397
697.750	0.0147600
697.828	0.0147594
697.906	0.0146634
697.985	0.0146665
698.063	0.0146633
698.141	0.0146355
698.219	0.0144907
698.297	0.0146584
698.375	0.0146082
698.453	0.0144061
698.531	0.0144650
698.610	0.0144821
698.688	0.0144976
698.766	0.0145807
698.844	0.0146578
698.922	0.0145167
699.000	0.0146644
699.078	0.0147642
699.156	0.0148399
699.235	0.0148153
699.313	0.0148631
699.391	0.0148595
699.469	0.0149810
699.547	0.0149521
699.625	0.0147713
699.703	0.0146963
699.781	0.0148697
699.860	0.0148145
699.938	0.0146899
700.016	0.0147958
700.094	0.0149564
700.172	0.0148222
700.250	0.0148481
700.328	0.0149387
700.406	0.0147636
700.485	0.0148622
700.563	0.0147047
700.641	0.0148222
700.719	0.0147100
700.797	0.0145740
700.875	0.0146158
700.953	0.0147427
701.031	0.0147851
701.110	0.0146001
701.188	0.0148782
701.266	0.0148013
701.344	0.0148148
701.422	0.0148337
701.500	0.0148172
701.578	0.0147449
701.656	0.0148016
701.735	0.0149419
701.813	0.0149160
701.891	0.0148248
701.969	0.0149417
702.047	0.0148865
702.125	0.0148832
702.203	0.0149263
702.281	0.0148869
702.360	0.0147028
702.438	0.0148350
702.516	0.0146318
702.594	0.0148602
702.672	0.0148746
702.750	0.0146185
702.828	0.0148259
702.906	0.0149427
702.985	0.0146571
703.063	0.0146146
703.141	0.0145749
703.219	0.0146597
703.297	0.0145808
703.375	0.0147235
703.453	0.0146678
703.531	0.0147342
703.610	0.0146556
703.688	0.0147127
703.766	0.0147377
703.844	0.0148779
703.922	0.0149389
704.000	0.0149023
704.078	0.0149693
704.156	0.0149841
704.235	0.0149923
704.313	0.0149747
704.391	0.0150031
704.469	0.0149419
704.547	0.0149290
704.625	0.0147921
704.703	0.0148878
704.781	0.0149503
704.860	0.0148807
704.938	0.0148662
705.016	0.0148138
705.094	0.0149074
705.172	0.0149586
705.250	0.0149318
705.328	0.0149110
705.406	0.0148396
705.485	0.0148133
705.563	0.0149187
705.641	0.0149972
705.719	0.0149780
705.797	0.0149078
705.875	0.0149626
705.953	0.0148236
706.031	0.0147533
706.110	0.0148065
706.188	0.0148665
706.266	0.0146211
706.344	0.0146126
706.422	0.0145820
706.500	0.0146566
706.578	0.0145703
706.656	0.0146200
706.735	0.0145060
706.813	0.0146313
706.891	0.0146077
706.969	0.0145593
707.047	0.0147752
707.125	0.0149946
707.203	0.0149715
707.281	0.0149582
707.360	0.0149624
707.438	0.0150934
707.516	0.0152067
707.594	0.0152155
707.672	0.0152020
707.750	0.0151745
707.828	0.0153025
707.906	0.0151966
707.985	0.0151605
708.063	0.0151328
708.141	0.0150648
708.219	0.0150237
708.297	0.0149242
708.375	0.0150384
708.453	0.0148578
708.531	0.0147153
708.610	0.0147284
708.688	0.0147154
708.766	0.0147073
708.844	0.0146769
708.922	0.0147056
709.000	0.0145815
709.078	0.0146040
709.156	0.0144627
709.235	0.0145361
709.313	0.0144930
709.391	0.0146401
709.469	0.0145250
709.547	0.0145284
709.625	0.0146243
709.703	0.0147375
709.781	0.0146758
709.860	0.0145352
709.938	0.0147121
710.016	0.0148569
710.094	0.0148413
710.172	0.0149251
710.250	0.0149612
710.328	0.0148925
710.406	0.0149696
710.485	0.0149545
710.563	0.0148690
710.641	0.0149422
710.719	0.0148852
710.797	0.0147736
710.875	0.0148074
710.953	0.0147191
711.031	0.0147848
711.110	0.0147260
711.188	0.0147370
711.266	0.0146963
711.344	0.0146126
711.422	0.0145029
711.500	0.0145486
711.578	0.0146221
711.656	0.0146782
711.735	0.0145472
711.813	0.0147075
711.891	0.0145804
711.969	0.0147070
712.047	0.0146717
712.125	0.0147245
712.203	0.0147094
712.281	0.0146958
712.360	0.0147497
712.438	0.0147060
712.516	0.0148927
712.594	0.0147652
712.672	0.0149120
712.750	0.0152206
712.828	0.0152299
712.906	0.0151073
712.985	0.0151290
713.063	0.0152431
713.141	0.0151472
713.219	0.0150938
713.297	0.0150410
713.375	0.0149678
713.453	0.0149035
713.531	0.0148723
713.610	0.0148232
713.688	0.0147382
713.766	0.0145858
713.844	0.0145192
713.922	0.0144862
714.000	0.0143215
714.078	0.0142117
714.156	0.0142575
714.235	0.0144105
714.313	0.0142767
714.391	0.0143001
714.469	0.0143814
714.547	0.0144798
714.625	0.0145155
714.703	0.0147430
714.781	0.0148589
714.860	0.0148891
714.938	0.0150233
715.016	0.0152317
715.094	0.0151781
715.172	0.0152188
715.250	0.0153014
715.328	0.0153339
715.406	0.0154712
715.485	0.0153952
715.563	0.0153407
715.641	0.0153860
715.719	0.0153249
715.797	0.0151348
715.875	0.0151081
715.953	0.0151784
716.031	0.0149074
716.110	0.0148524
716.188	0.0147234
716.266	0.0146583
716.344	0.0147291
716.422	0.0144352
716.500	0.0142976
716.578	0.0143729
716.656	0.0142816
716.735	0.0143237
716.813	0.0142609
716.891	0.0142067
716.969	0.0143090
717.047	0.0142758
717.125	0.0145702
717.203	0.0144590
717.281	0.0144994
717.360	0.0145956
717.438	0.0147457
717.516	0.0148003
717.594	0.0147915
717.672	0.0148904
717.750	0.0149951
717.828	0.0149449
717.906	0.0150388
717.985	0.0152143
718.063	0.0149425
718.141	0.0150560
718.219	0.0151159
718.297	0.0151787
718.375	0.0149530
718.453	0.0149866
718.531	0.0148907
718.610	0.0148705
718.688	0.0147282
718.766	0.0147263
718.844	0.0146397
718.922	0.0144862
719.000	0.0146636
719.078	0.0145258
719.156	0.0146352
719.235	0.0145992
719.313	0.0145088
719.391	0.0143899
719.469	0.0145526
719.547	0.0146225
719.625	0.0145708
719.703	0.0146793
719.781	0.0147005
719.860	0.0148449
719.938	0.0148999
720.016	0.0149008
720.094	0.0148943
720.172	0.0148067
720.250	0.0149406
720.328	0.0150896
720.406	0.0150323
720.485	0.0150867
720.563	0.0150593
720.641	0.0151006
720.719	0.0151393
720.797	0.0150114
720.875	0.0149825
720.953	0.0150233
721.031	0.0148636
721.110	0.0148942
721.188	0.0147170
721.266	0.0146168
721.344	0.0148255
721.422	0.0148083
721.500	0.0146512
721.578	0.0147577
721.656	0.0146167
721.735	0.0146252
721.813	0.0146447
721.891	0.0146263
721.969	0.0146039
722.047	0.0146056
722.125	0.0146964
722.203	0.0146840
722.281	0.0146279
722.360	0.0148278
722.438	0.0147843
722.516	0.0148215
722.594	0.0150494
722.672	0.0150368
722.750	0.0148391
722.828	0.0149361
722.906	0.0149374
722.985	0.0149315
723.063	0.0150674
723.141	0.0151095
723.219	0.0149310
723.297	0.0148474
723.375	0.0150673
723.453	0.0151257
723.531	0.0148785
723.610	0.0149016
723.688	0.0149770
723.766	0.0149239
723.844	0.0149725
723.922	0.0148176
724.000	0.0148691
724.078	0.0149046
724.156	0.0148512
724.235	0.0147840
724.313	0.0146255
724.391	0.0146427
724.469	0.0147662
724.547	0.0147515
724.625	0.0147844
724.703	0.0148003
724.781	0.0147890
724.860	0.0148344
724.938	0.0148785
725.016	0.0148699
725.094	0.0149127
725.172	0.0150146
725.250	0.0149995
725.328	0.0149444
725.406	0.0148858
725.485	0.0149861
725.563	0.0149906
725.641	0.0151549
725.719	0.0150135
725.797	0.0150684
725.875	0.0149999
725.953	0.0151265
726.031	0.0151067
726.110	0.0149709
726.188	0.0149388
726.266	0.0148663
726.344	0.0148419
726.422	0.0149933
726.500	0.0148344
726.578	0.0148998
726.656	0.0149135
726.735	0.0148135
726.813	0.0148264
726.891	0.0146778
726.969	0.0147941
727.047	0.0147929
727.125	0.0147496
727.203	0.0149029
727.281	0.0149002
727.360	0.0148040
727.438	0.0148369
727.516	0.0149551
727.594	0.0147906
727.672	0.0148968
727.750	0.0149103
727.828	0.0150075
727.906	0.0149143
727.985	0.0148852
728.063	0.0150389
728.141	0.0150086
728.219	0.0149114
728.297	0.0149891
728.375	0.0151010
728.453	0.0149972
728.531	0.0150070
728.610	0.0150438
728.688	0.0150600
728.766	0.0148586
728.844	0.0150158
728.922	0.0149781
729.000	0.0147297
729.078	0.0148291
729.156	0.0148943
729.235	0.0149037
729.313	0.0147405
729.391	0.0146886
729.469	0.0147803
729.547	0.0147912
729.625	0.0147621
729.703	0.0147565
729.781	0.0147749
729.860	0.0148388
729.938	0.0148896
730.016	0.0148669
730.094	0.0148753
730.172	0.0149984
730.250	0.0149812
730.328	0.0149210
730.406	0.0149051
730.485	0.0148833
730.563	0.0149896
730.641	0.0148615
730.719	0.0147957
730.797	0.0148047
730.875	0.0148665
730.953	0.0148670
731.031	0.0148661
731.110	0.0147964
731.188	0.0147483
731.266	0.0146883
731.344	0.0147157
731.422	0.0147998
731.500	0.0148804
731.578	0.0147664
731.656	0.0146667
731.735	0.0147346
731.813	0.0145385
731.891	0.0148170
731.969	0.0148750
732.047	0.0148479
732.125	0.0146680
732.203	0.0148829
732.281	0.0149838
732.360	0.0147868
732.438	0.0149047
732.516	0.0149024
732.594	0.0147759
732.672	0.0149503
732.750	0.0148794
732.828	0.0149026
732.906	0.0149151
732.985	0.0149775
733.063	0.0149471
733.141	0.0147952
733.219	0.0147646
733.297	0.0147983
733.375	0.0148088
733.453	0.0147780
733.531	0.0146761
733.610	0.0146667
733.688	0.0147260
733.766	0.0146882
733.844	0.0145415
733.922	0.0147261
734.000	0.0146057
734.078	0.0145690
734.156	0.0145834
734.235	0.0147317
734.313	0.0147115
734.391	0.0147109
734.469	0.0145233
734.547	0.0145856
734.625	0.0147112
734.703	0.0146655
734.781	0.0146525
734.860	0.0146940
734.938	0.0147387
735.016	0.0148188
735.094	0.0147867
735.172	0.0147658
735.250	0.0148281
735.328	0.0148433
735.406	0.0149262
735.485	0.0148059
735.563	0.0148034
735.641	0.0149407
735.719	0.0149035
735.797	0.0148251
735.875	0.0148595
735.953	0.0148145
736.031	0.0149694
736.110	0.0147143
736.188	0.0149422
736.266	0.0150226
736.344	0.0147435
736.422	0.0148936
736.500	0.0147933
736.578	0.0149005
736.656	0.0148486
736.735	0.0147026
736.813	0.0146364
736.891	0.0147461
736.969	0.0147869
737.047	0.0147458
737.125	0.0147255
737.203	0.0147233
737.281	0.0148457
737.360	0.0148048
737.438	0.0146988
737.516	0.0146657
737.594	0.0147500
737.672	0.0149155
737.750	0.0148439
737.828	0.0148604
737.906	0.0148972
737.985	0.0148605
738.063	0.0149423
738.141	0.0148882
738.219	0.0147923
738.297	0.0148178
738.375	0.0149586
738.453	0.0148478
738.531	0.0147836
738.610	0.0148112
738.688	0.0148125
738.766	0.0148455
738.844	0.0148933
738.922	0.0147572
739.000	0.0147428
739.078	0.0147559
739.156	0.0148167
739.235	0.0147462
739.313	0.0148840
739.391	0.0147897
739.469	0.0146727
739.547	0.0146999
739.625	0.0148162
739.703	0.0148194
739.781	0.0148891
739.860	0.0146941
739.938	0.0148158
740.016	0.0148442
740.094	0.0148557
740.172	0.0148147
740.250	0.0148447
740.328	0.0149134
740.406	0.0147263
740.485	0.0147986
740.563	0.0149101
740.641	0.0149046
740.719	0.0148402
740.797	0.0149210
740.875	0.0148146
740.953	0.0146886
741.031	0.0146853
741.110	0.0147845
741.188	0.0149051
741.266	0.0147798
741.344	0.0147874
741.422	0.0148325
741.500	0.0147325
741.578	0.0148641
741.656	0.0147672
741.735	0.0146606
741.813	0.0148054
741.891	0.0146568
741.969	0.0147130
742.047	0.0146532
742.125	0.0147386
742.203	0.0147263
742.281	0.0147906
742.360	0.0147255
742.438	0.0147025
742.516	0.0147388
742.594	0.0148299
742.672	0.0148761
742.750	0.0150565
742.828	0.0147598
742.906	0.0149274
742.985	0.0148721
743.063	0.0148058
743.141	0.0148500
743.219	0.0149599
743.297	0.0150578
743.375	0.0149564
743.453	0.0149348
743.531	0.0149624
743.610	0.0149704
743.688	0.0150701
743.766	0.0148820
743.844	0.0148295
743.922	0.0149372
744.000	0.0149290
744.078	0.0149207
744.156	0.0148406
744.235	0.0148937
744.313	0.0148839
744.391	0.0148157
744.469	0.0148444
744.547	0.0148406
744.625	0.0148041
744.703	0.0148730
744.781	0.0147885
744.860	0.0148009
744.938	0.0148048
745.016	0.0147292
745.094	0.0146999
745.172	0.0147719
745.250	0.0148196
745.328	0.0148264
745.406	0.0148410
745.485	0.0148547
745.563	0.0148257
745.641	0.0148304
745.719	0.0148405
745.797	0.0149469
745.875	0.0149834
745.953	0.0149309
746.031	0.0148887
746.110	0.0147867
746.188	0.0150494
746.266	0.0150241
746.344	0.0148544
746.422	0.0149418
746.500	0.0149392
746.578	0.0148058
746.656	0.0148723
746.735	0.0148785
746.813	0.0147568
746.891	0.0148357
746.969	0.0147940
747.047	0.0147952
747.125	0.0149449
747.203	0.0148154
747.281	0.0148442
747.360	0.0150058
747.438	0.0147217
747.516	0.0148420
747.594	0.0149858
747.672	0.0148592
747.750	0.0147836
747.828	0.0150074
747.906	0.0149463
747.985	0.0147826
748.063	0.0149597
748.141	0.0148933
748.219	0.0149298
748.297	0.0149082
748.375	0.0149351
748.453	0.0147924
748.531	0.0149430
748.610	0.0149433
748.688	0.0147516
748.766	0.0148283
748.844	0.0148754
748.922	0.0148980
749.000	0.0148006
749.078	0.0147510
749.156	0.0147956
749.235	0.0147943
749.313	0.0145670
749.391	0.0147178
749.469	0.0145702
749.547	0.0146179
749.625	0.0146682
749.703	0.0145683
749.781	0.0146963
749.860	0.0146606
749.938	0.0146368
750.016	0.0146631
750.094	0.0145563
750.172	0.0147807
750.250	0.0147421
750.328	0.0148051
750.406	0.0147264
750.485	0.0147802
750.563	0.0147791
750.641	0.0149487
750.719	0.0148146
750.797	0.0149216
750.875	0.0148029
750.953	0.0148263
751.031	0.0148289
751.110	0.0148804
751.188	0.0148389
751.266	0.0148513
751.344	0.0147084
751.422	0.0149240
751.500	0.0148643
751.578	0.0148213
751.656	0.0149935
751.735	0.0148607
751.813	0.0147731
751.891	0.0148032
751.969	0.0148029
752.047	0.0147553
752.125	0.0146585
752.203	0.0146999
752.281	0.0147084
752.360	0.0147209
752.438	0.0147533
752.516	0.0147733
752.594	0.0147495
752.672	0.0147632
752.750	0.0147630
752.828	0.0148576
752.906	0.0147812
752.985	0.0147382
753.063	0.0148066
753.141	0.0146985
753.219	0.0147043
753.297	0.0148597
753.375	0.0147589
753.453	0.0146987
753.531	0.0147844
753.610	0.0148935
753.688	0.0149268
753.766	0.0148580
753.844	0.0150148
753.922	0.0149213
754.000	0.0148563
754.078	0.0146478
754.156	0.0149160
754.235	0.0148923
754.313	0.0149475
754.391	0.0149329
754.469	0.0148576
754.547	0.0147742
754.625	0.0148373
754.703	0.0149400
754.781	0.0148998
754.860	0.0148051
754.938	0.0147864
755.016	0.0148055
755.094	0.0148579
755.172	0.0148311
755.250	0.0146587
755.328	0.0146815
755.406	0.0148109
755.485	0.0147520
755.563	0.0148004
755.641	0.0148266
755.719	0.0147789
755.797	0.0147681
755.875	0.0148795
755.953	0.0147205
756.031	0.0147284
756.110	0.0148596
756.188	0.0147679
756.266	0.0146626
756.344	0.0147044
756.422	0.0147596
756.500	0.0147794
756.578	0.0146663
756.656	0.0147311
756.735	0.0148236
756.813	0.0147065
756.891	0.0147736
756.969	0.0146716
757.047	0.0146320
757.125	0.0145273
757.203	0.0146318
757.281	0.0145703
757.360	0.0146265
757.438	0.0145457
757.516	0.0145720
757.594	0.0145940
757.672	0.0145947
757.750	0.0146402
757.828	0.0147262
757.906	0.0146379
757.985	0.0145030
758.063	0.0146377
758.141	0.0147283
758.219	0.0148235
758.297	0.0147678
758.375	0.0147132
758.453	0.0146587
758.531	0.0147349
758.610	0.0147453
758.688	0.0148194
758.766	0.0149039
758.844	0.0148454
758.922	0.0148798
759.000	0.0149117
759.078	0.0147514
759.156	0.0149165
759.235	0.0148270
759.313	0.0149133
759.391	0.0148344
759.469	0.0147879
759.547	0.0147034
759.625	0.0148244
759.703	0.0147925
759.781	0.0148506
759.860	0.0148127
759.938	0.0146881
760.016	0.0146268
760.094	0.0148421
760.172	0.0148254
760.250	0.0148822
760.328	0.0148083
760.406	0.0146577
760.485	0.0146409
760.563	0.0147762
760.641	0.0148585
760.719	0.0147765
760.797	0.0148437
760.875	0.0147765
760.953	0.0149102
761.031	0.0148289
761.110	0.0147662
761.188	0.0148744
761.266	0.0148188
761.344	0.0148862
761.422	0.0147561
761.500	0.0148496
761.578	0.0147407
761.656	0.0149429
761.735	0.0148952
761.813	0.0148624
761.891	0.0148470
761.969	0.0148376
762.047	0.0148438
762.125	0.0147863
762.203	0.0149204
762.281	0.0147937
762.360	0.0147467
762.438	0.0148757
762.516	0.0149571
762.594	0.0149227
762.672	0.0147899
762.750	0.0148453
762.828	0.0148798
762.906	0.0148089
762.985	0.0148215
763.063	0.0147704
763.141	0.0148694
763.219	0.0148191
763.297	0.0146878
763.375	0.0148949
763.453	0.0146738
763.531	0.0148811
763.610	0.0147418
763.688	0.0147715
763.766	0.0147967
763.844	0.0148894
763.922	0.0148803
764.000	0.0147256
764.078	0.0147770
764.156	0.0147728
764.235	0.0147609
764.313	0.0149319
764.391	0.0146974
764.469	0.0146220
764.547	0.0147013
764.625	0.0147086
764.703	0.0146474
764.781	0.0146905
764.860	0.0146414
764.938	0.0146918
765.016	0.0146922
765.094	0.0145365
765.172	0.0145631
765.250	0.0146767
765.328	0.0146515
765.406	0.0145609
765.485	0.0146953
765.563	0.0146539
765.641	0.0146126
765.719	0.0145973
765.797	0.0146845
765.875	0.0145549
765.953	0.0147149
766.031	0.0145496
766.110	0.0146185
766.188	0.0146624
766.266	0.0147801
766.344	0.0147643
766.422	0.0146355
766.500	0.0147264
766.578	0.0147942
766.656	0.0146407
766.735	0.0148837
766.813	0.0148783
766.891	0.0147539
766.969	0.0147758
767.047	0.0148655
767.125	0.0148746
767.203	0.0147387
767.281	0.0148010
767.360	0.0148078
767.438	0.0147476
767.516	0.0148293
767.594	0.0148785
767.672	0.0148409
767.750	0.0148122
767.828	0.0147154
767.906	0.0148036
767.985	0.0148943
768.063	0.0146976
768.141	0.0148332
768.219	0.0147268
768.297	0.0147101
768.375	0.0148634
768.453	0.0147245
768.531	0.0146458
768.610	0.0147303
768.688	0.0146804
768.766	0.0148577
768.844	0.0147979
768.922	0.0146431
769.000	0.0147177
769.078	0.0149538
769.156	0.0149080
769.235	0.0147919
769.313	0.0147813
769.391	0.0148516
769.469	0.0148171
769.547	0.0148380
769.625	0.0149149
769.703	0.0147042
769.781	0.0148543
769.860	0.0148201
769.938	0.0147951
770.016	0.0148661
770.094	0.0148631
770.172	0.0149671
770.250	0.0147899
770.328	0.0147079
770.406	0.0148100
770.485	0.0148956
770.563	0.0149058
770.641	0.0148729
770.719	0.0147871
770.797	0.0148164
770.875	0.0148205
770.953	0.0147442
771.031	0.0148308
771.110	0.0147572
771.188	0.0147741
771.266	0.0148609
771.344	0.0148850
771.422	0.0149361
771.500	0.0147186
771.578	0.0148370
771.656	0.0148813
771.735	0.0149287
771.813	0.0146818
771.891	0.0148263
771.969	0.0148141
772.047	0.0148235
772.125	0.0148116
772.203	0.0147935
772.281	0.0148788
772.360	0.0149146
772.438	0.0148677
772.516	0.0148510
772.594	0.0147202
772.672	0.0147728
772.750	0.0147966
772.828	0.0148142
772.906	0.0147256
772.985	0.0146846
773.063	0.0148260
773.141	0.0149145
773.219	0.0146565
773.297	0.0148237
773.375	0.0147086
773.453	0.0146720
773.531	0.0147913
773.610	0.0146873
773.688	0.0147575
773.766	0.0147871
773.844	0.0147020
773.922	0.0145427
774.000	0.0146149
774.078	0.0147657
774.156	0.0146913
774.235	0.0146854
774.313	0.0145947
774.391	0.0146854
774.469	0.0146893
774.547	0.0147491
774.625	0.0147501
774.703	0.0146092
774.781	0.0146967
774.860	0.0146709
774.938	0.0147162
775.016	0.0146572
775.094	0.0147334
775.172	0.0146244
775.250	0.0145544
775.328	0.0145937
775.406	0.0147295
775.485	0.0145740
775.563	0.0146660
775.641	0.0145181
775.719	0.0146703
775.797	0.0146898
775.875	0.0147147
775.953	0.0147223
776.031	0.0145753
776.110	0.0146235
776.188	0.0147320
776.266	0.0146857
776.344	0.0147514
776.422	0.0148975
776.500	0.0147507
776.578	0.0148740
776.656	0.0148405
776.735	0.0147768
776.813	0.0147929
776.891	0.0147633
776.969	0.0148268
777.047	0.0148218
777.125	0.0148005
777.203	0.0147926
777.281	0.0149037
777.360	0.0148248
777.438	0.0147863
777.516	0.0147236
777.594	0.0147198
777.672	0.0148942
777.750	0.0148411
777.828	0.0149020
777.906	0.0148442
777.985	0.0148393
778.063	0.0148451
778.141	0.0148447
778.219	0.0148536
778.297	0.0148148
778.375	0.0148978
778.453	0.0149445
778.531	0.0148585
778.610	0.0149294
778.688	0.0149280
778.766	0.0147962
778.844	0.0148975
778.922	0.0149592
779.000	0.0148950
779.078	0.0148390
779.156	0.0149072
779.235	0.0149758
779.313	0.0148917
779.391	0.0150064
779.469	0.0148349
779.547	0.0148832
779.625	0.0149312
779.703	0.0148872
779.781	0.0148574
779.860	0.0148220
779.938	0.0148642
780.016	0.0148457
780.094	0.0149126
780.172	0.0148116
780.250	0.0149138
780.328	0.0148073
780.406	0.0149409
780.485	0.0149732
780.563	0.0148804
780.641	0.0147020
780.719	0.0147167
780.797	0.0149809
780.875	0.0147571
780.953	0.0149178
781.031	0.0148840
781.110	0.0147324
781.188	0.0147727
781.266	0.0148717
781.344	0.0149636
781.422	0.0147493
781.500	0.0148553
781.578	0.0147577
781.656	0.0147530
781.735	0.0148626
781.813	0.0147131
781.891	0.0147443
781.969	0.0147776
782.047	0.0148841
782.125	0.0148490
782.203	0.0149171
782.281	0.0148757
782.360	0.0147710
782.438	0.0147446
782.516	0.0148793
782.594	0.0149021
782.672	0.0148203
782.750	0.0148573
782.828	0.0147161
782.906	0.0148425
782.985	0.0147743
783.063	0.0148571
783.141	0.0149345
783.219	0.0149670
783.297	0.0148229
783.375	0.0148501
783.453	0.0148884
783.531	0.0148076
783.610	0.0146510
783.688	0.0148237
783.766	0.0147528
783.844	0.0148258
783.922	0.0148092
784.000	0.0147847
784.078	0.0147096
784.156	0.0147687
784.235	0.0147534
784.313	0.0148168
784.391	0.0147741
784.469	0.0146429
784.547	0.0147476
784.625	0.0146867
784.703	0.0146436
784.781	0.0146215
784.860	0.0147412
784.938	0.0147213
785.016	0.0146687
785.094	0.0147424
785.172	0.0147927
785.250	0.0148178
785.328	0.0147517
785.406	0.0147631
785.485	0.0147751
785.563	0.0146511
785.641	0.0146977
785.719	0.0147814
785.797	0.0147260
785.875	0.0146438
785.953	0.0147235
786.031	0.0147086
786.110	0.0147529
786.188	0.0146939
786.266	0.0147556
786.344	0.0147689
786.422	0.0149043
786.500	0.0147862
786.578	0.0147368
786.656	0.0147256
786.735	0.0147955
786.813	0.0147091
786.891	0.0146762
786.969	0.0146849
787.047	0.0147161
787.125	0.0146550
787.203	0.0147050
787.281	0.0147104
787.360	0.0148325
787.438	0.0148946
787.516	0.0147098
787.594	0.0146955
787.672	0.0149023
787.750	0.0146540
787.828	0.0146796
787.906	0.0148377
787.985	0.0149026
788.063	0.0147800
788.141	0.0147694
788.219	0.0146910
788.297	0.0148049
788.375	0.0148151
788.453	0.0146687
788.531	0.0146721
788.610	0.0147569
788.688	0.0146471
788.766	0.0147031
788.844	0.0146953
788.922	0.0148090
789.000	0.0147282
789.078	0.0146209
789.156	0.0143765
789.235	0.0146273
789.313	0.0147128
789.391	0.0145296
789.469	0.0146694
789.547	0.0146703
789.625	0.0146750
789.703	0.0146537
789.781	0.0145609
789.860	0.0147390
789.938	0.0147763
790.016	0.0146427
790.094	0.0146226
790.172	0.0147903
790.250	0.0147906
790.328	0.0147570
790.406	0.0147047
790.485	0.0148288
790.563	0.0147207
790.641	0.0146648
790.719	0.0145885
790.797	0.0147855
790.875	0.0148013
790.953	0.0148206
791.031	0.0147335
791.110	0.0147483
791.188	0.0148101
791.266	0.0147347
791.344	0.0148395
791.422	0.0146469
791.500	0.0147278
791.578	0.0147731
791.656	0.0148505
791.735	0.0148425
791.813	0.0148644
791.891	0.0149220
791.969	0.0149955
792.047	0.0148556
792.125	0.0150076
792.203	0.0148745
792.281	0.0150426
792.360	0.0148938
792.438	0.0148860
792.516	0.0149698
792.594	0.0149710
792.672	0.0149765
792.750	0.0148827
792.828	0.0149471
792.906	0.0149435
792.985	0.0149597
793.063	0.0148743
793.141	0.0149446
793.219	0.0148885
793.297	0.0149473
793.375	0.0149092
793.453	0.0150470
793.531	0.0147475
793.610	0.0150330
793.688	0.0148708
793.766	0.0148319
793.844	0.0148687
793.922	0.0148355
794.000	0.0148946
794.078	0.0149004
794.156	0.0148077
794.235	0.0148914
794.313	0.0147730
794.391	0.0147710
794.469	0.0147049
794.547	0.0148257
794.625	0.0148788
794.703	0.0147476
794.781	0.0147736
794.860	0.0147778
794.938	0.0147992
795.016	0.0148623
795.094	0.0148228
795.172	0.0147965
795.250	0.0149629
795.328	0.0147340
795.406	0.0149918
795.485	0.0149805
795.563	0.0147943
795.641	0.0149100
795.719	0.0148164
795.797	0.0148147
795.875	0.0148103
795.953	0.0148639
796.031	0.0148548
796.110	0.0147186
796.188	0.0147385
796.266	0.0148035
796.344	0.0149039
796.422	0.0149065
796.500	0.0146661
796.578	0.0148031
796.656	0.0148634
796.735	0.0147320
796.813	0.0149109
796.891	0.0147652
796.969	0.0147252
797.047	0.0148273
797.125	0.0147854
797.203	0.0146265
797.281	0.0146441
797.360	0.0147014
797.438	0.0148055
797.516	0.0146126
797.594	0.0146171
797.672	0.0149294
797.750	0.0149028
797.828	0.0148142
797.906	0.0148116
797.985	0.0147515
798.063	0.0150478
798.141	0.0150287
798.219	0.0148794
798.297	0.0148829
798.375	0.0148395
798.453	0.0147354
798.531	0.0147794
798.610	0.0149017
798.688	0.0149406
798.766	0.0149091
798.844	0.0149531
798.922	0.0149129
799.000	0.0149403
799.078	0.0149131
799.156	0.0149550
799.235	0.0148672
799.313	0.0148965
799.391	0.0147982
799.469	0.0148336
799.547	0.0149506
799.625	0.0149378
799.703	0.0149187
799.781	0.0148891
799.860	0.0148102
799.938	0.0147968
800.016	0.0148788
800.094	0.0149679
800.172	0.0149704
800.250	0.0148522
800.328	0.0148934
800.406	0.0148931
800.485	0.0149890
800.563	0.0147996
800.641	0.0149435
800.719	0.0148716
800.797	0.0148725
800.875	0.0148800
800.953	0.0148708
801.031	0.0148132
801.110	0.0147327
801.188	0.0148232
801.266	0.0147042
801.344	0.0146882
801.422	0.0147985
801.500	0.0145847
801.578	0.0147827
801.656	0.0145935
801.735	0.0147243
801.813	0.0146908
801.891	0.0146866
801.969	0.0146745
802.047	0.0146288
802.125	0.0147301
802.203	0.0148189
802.281	0.0148492
802.360	0.0147552
802.438	0.0148634
802.516	0.0147730
802.594	0.0147736
802.672	0.0148231
802.750	0.0148339
802.828	0.0147422
802.906	0.0147916
802.985	0.0148387
803.063	0.0148900
803.141	0.0147401
803.219	0.0149229
803.297	0.0147862
803.375	0.0148415
803.453	0.0148183
803.531	0.0149084
803.610	0.0146787
803.688	0.0148911
803.766	0.0149540
803.844	0.0148108
803.922	0.0148221
804.000	0.0149651
804.078	0.0147805
804.156	0.0149169
804.235	0.0150121
804.313	0.0149258
804.391	0.0148950
804.469	0.0148636
804.547	0.0148383
804.625	0.0148518
804.703	0.0148625
804.781	0.0149689
804.860	0.0149519
804.938	0.0149024
805.016	0.0149938
805.094	0.0147955
805.172	0.0148111
805.250	0.0148061
805.328	0.0148420
805.406	0.0148554
805.485	0.0148258
805.563	0.0147035
805.641	0.0148347
805.719	0.0148817
805.797	0.0148204
805.875	0.0146762
805.953	0.0148682
806.031	0.0149902
806.110	0.0148701
806.188	0.0148334
806.266	0.0148289
806.344	0.0149388
806.422	0.0149044
806.500	0.0147423
806.578	0.0148055
806.656	0.0148249
806.735	0.0149396
806.813	0.0148084
806.891	0.0147301
806.969	0.0148750
807.047	0.0148235
807.125	0.0147662
807.203	0.0149589
807.281	0.0146870
807.360	0.0148486
807.438	0.0147046
807.516	0.0148992
807.594	0.0147771
807.672	0.0148997
807.750	0.0148560
807.828	0.0148247
807.906	0.0149361
807.985	0.0148892
808.063	0.0147193
808.141	0.0147158
808.219	0.0148402
808.297	0.0148326
808.375	0.0149178
808.453	0.0148129
808.531	0.0147734
808.610	0.0148817
808.688	0.0149815
808.766	0.0147463
808.844	0.0149132
808.922	0.0149271
809.000	0.0150788
809.078	0.0149095
809.156	0.0148610
809.235	0.0148689
809.313	0.0149849
809.391	0.0147676
809.469	0.0147402
809.547	0.0148636
809.625	0.0148711
809.703	0.0149014
809.781	0.0148021
809.860	0.0147614
809.938	0.0147931
810.016	0.0148129
810.094	0.0148033
810.172	0.0145963
810.250	0.0146713
810.328	0.0147949
810.406	0.0148672
810.485	0.0148812
810.563	0.0147705
810.641	0.0148242
810.719	0.0147570
810.797	0.0148235
810.875	0.0148145
810.953	0.0147137
811.031	0.0147843
811.110	0.0148286
811.188	0.0147379
811.266	0.0147197
811.344	0.0148465
811.422	0.0147401
811.500	0.0147292
811.578	0.0147515
811.656	0.0149057
811.735	0.0147412
811.813	0.0148505
811.891	0.0148570
811.969	0.0147872
812.047	0.0147852
812.125	0.0147931
812.203	0.0147301
812.281	0.0147420
812.360	0.0148901
812.438	0.0147323
812.516	0.0147258
812.594	0.0147736
812.672	0.0146510
812.750	0.0146988
812.828	0.0146729
812.906	0.0146947
812.985	0.0147247
813.063	0.0147006
813.141	0.0147257
813.219	0.0147481
813.297	0.0148737
813.375	0.0146951
813.453	0.0148344
813.531	0.0148749
813.610	0.0147360
813.688	0.0147023
813.766	0.0147515
813.844	0.0147680
813.922	0.0148214
814.000	0.0149766
814.078	0.0149451
814.156	0.0148598
814.235	0.0149901
814.313	0.0150154
814.391	0.0148947
814.469	0.0148610
814.547	0.0147052
814.625	0.0148012
814.703	0.0148923
814.781	0.0147894
814.860	0.0146674
814.938	0.0147039
815.016	0.0148331
815.094	0.0149123
815.172	0.0147734
815.250	0.0147238
815.328	0.0147719
815.406	0.0148211
815.485	0.0147946
815.563	0.0148081
815.641	0.0147921
815.719	0.0147332
815.797	0.0147054
815.875	0.0148495
815.953	0.0148032
816.031	0.0147607
816.110	0.0149043
816.188	0.0147717
816.266	0.0148115
816.344	0.0149187
816.422	0.0148997
816.500	0.0149046
816.578	0.0148576
816.656	0.0149860
816.735	0.0147866
816.813	0.0149115
816.891	0.0150828
816.969	0.0149278
817.047	0.0149575
817.125	0.0149209
817.203	0.0148921
817.281	0.0147304
817.360	0.0147557
817.438	0.0147691
817.516	0.0148264
817.594	0.0148881
817.672	0.0148782
817.750	0.0147638
817.828	0.0146831
817.906	0.0147585
817.985	0.0147360
818.063	0.0148067
818.141	0.0146779
818.219	0.0147684
818.297	0.0147978
818.375	0.0148301
818.453	0.0147985
818.531	0.0147138
818.610	0.0148227
818.688	0.0148003
818.766	0.0147623
818.844	0.0147973
818.922	0.0148166
819.000	0.0147739
819.078	0.0147987
819.156	0.0148528
819.235	0.0146974
819.313	0.0148157
819.391	0.0147868
819.469	0.0148076
819.547	0.0147961
819.625	0.0147794
819.703	0.0148571
819.781	0.0145509
819.860	0.0149148
819.938	0.0147980
820.016	0.0147089
820.094	0.0147891
820.172	0.0146686
820.250	0.0146238
820.328	0.0148763
820.406	0.0147518
820.485	0.0147929
820.563	0.0147232
820.641	0.0148461
820.719	0.0148296
820.797	0.0148550
820.875	0.0147598
820.953	0.0148412
821.031	0.0147955
821.110	0.0148430
821.188	0.0148532
821.266	0.0149054
821.344	0.0147881
821.422	0.0146998
821.500	0.0148456
821.578	0.0149255
821.656	0.0149066
821.735	0.0148151
821.813	0.0149686
821.891	0.0148640
821.969	0.0147442
822.047	0.0149041
822.125	0.0148932
822.203	0.0148608
822.281	0.0148206
822.360	0.0148893
822.438	0.0147944
822.516	0.0148375
822.594	0.0147995
822.672	0.0147954
822.750	0.0148692
822.828	0.0148491
822.906	0.0146684
822.985	0.0147985
823.063	0.0148135
823.141	0.0147385
823.219	0.0148361
823.297	0.0148681
823.375	0.0148961
823.453	0.0149091
823.531	0.0148342
823.610	0.0148927
823.688	0.0148210
823.766	0.0149304
823.844	0.0149305
823.922	0.0149583
824.000	0.0149407
824.078	0.0148544
824.156	0.0149123
824.235	0.0150139
824.313	0.0150062
824.391	0.0148760
824.469	0.0149208
824.547	0.0149613
824.625	0.0148387
824.703	0.0148145
824.781	0.0149400
824.860	0.0147575
824.938	0.0148840
825.016	0.0150119
825.094	0.0149273
825.172	0.0148444
825.250	0.0149577
825.328	0.0148965
825.406	0.0148859
825.485	0.0148402
825.563	0.0148758
825.641	0.0148650
825.719	0.0147841
825.797	0.0148909
825.875	0.0148428
825.953	0.0149081
826.031	0.0147742
826.110	0.0147633
826.188	0.0148886
826.266	0.0147143
826.344	0.0147845
826.422	0.0149120
826.500	0.0148027
826.578	0.0148337
826.656	0.0148305
826.735	0.0147362
826.813	0.0148789
826.891	0.0148708
826.969	0.0148120
827.047	0.0148594
827.125	0.0149563
827.203	0.0147514
827.281	0.0149525
827.360	0.0148885
827.438	0.0148950
827.516	0.0148257
827.594	0.0147711
827.672	0.0149215
827.750	0.0148344
827.828	0.0148268
827.906	0.0148489
827.985	0.0147796
828.063	0.0148840
828.141	0.0148421
828.219	0.0149380
828.297	0.0148665
828.375	0.0148971
828.453	0.0149809
828.531	0.0149728
828.610	0.0148299
828.688	0.0147454
828.766	0.0149364
828.844	0.0147551
828.922	0.0147449
829.000	0.0149619
829.078	0.0149214
829.156	0.0148618
829.235	0.0148467
829.313	0.0148762
829.391	0.0148273
829.469	0.0148570
829.547	0.0147763
829.625	0.0147650
829.703	0.0148383
829.781	0.0148663
829.860	0.0147101
829.938	0.0147488
830.016	0.0146904
830.094	0.0147701
830.172	0.0149283
830.250	0.0147804
830.328	0.0146954
830.406	0.0147404
830.485	0.0147665
830.563	0.0147430
830.641	0.0147952
830.719	0.0147062
830.797	0.0147423
830.875	0.0147581
830.953	0.0147839
831.031	0.0148669
831.110	0.0148018
831.188	0.0148113
831.266	0.0147930
831.344	0.0146898
831.422	0.0146249
831.500	0.0148151
831.578	0.0148497
831.656	0.0147517
831.735	0.0148177
831.813	0.0147478
831.891	0.0147809
831.969	0.0145582
832.047	0.0147913
832.125	0.0148032
832.203	0.0147351
832.281	0.0148265
832.360	0.0146848
832.438	0.0147725
832.516	0.0147821
832.594	0.0147723
832.672	0.0147623
832.750	0.0148497
832.828	0.0147646
832.906	0.0147722
832.985	0.0146796
833.063	0.0148505
833.141	0.0148805
833.219	0.0148809
833.297	0.0148075
833.375	0.0147825
833.453	0.0148112
833.531	0.0148232
833.610	0.0146800
833.688	0.0147826
833.766	0.0147498
833.844	0.0147317
833.922	0.0148121
834.000	0.0148478
834.078	0.0147028
834.156	0.0147471
834.235	0.0147596
834.313	0.0147933
834.391	0.0147143
834.469	0.0147132
834.547	0.0148785
834.625	0.0148309
834.703	0.0148283
834.781	0.0147538
834.860	0.0148125
834.938	0.0147120
835.016	0.0147642
835.094	0.0149067
835.172	0.0147765
835.250	0.0147181
835.328	0.0146559
835.406	0.0148393
835.485	0.0147289
835.563	0.0147240
835.641	0.0147590
835.719	0.0147481
835.797	0.0148227
835.875	0.0146847
835.953	0.0147045
836.031	0.0147598
836.110	0.0146747
836.188	0.0148548
836.266	0.0146890
836.344	0.0145258
836.422	0.0148020
836.500	0.0147835
836.578	0.0146799
836.656	0.0146615
836.735	0.0147437
836.813	0.0147146
836.891	0.0146591
836.969	0.0146789
837.047	0.0147966
837.125	0.0147042
837.203	0.0147201
837.281	0.0146684
837.360	0.0146723
837.438	0.0146770
837.516	0.0146644
837.594	0.0147776
837.672	0.0147426
837.750	0.0147922
837.828	0.0147340
837.906	0.0147357
837.985	0.0147217
838.063	0.0145937
838.141	0.0147140
838.219	0.0148238
838.297	0.0147127
838.375	0.0146680
838.453	0.0147933
838.531	0.0145557
838.610	0.0146964
838.688	0.0148647
838.766	0.0146822
838.844	0.0145974
838.922	0.0147797
839.000	0.0145276
839.078	0.0146106
839.156	0.0146689
839.235	0.0148045
839.313	0.0146732
839.391	0.0147955
839.469	0.0146992
839.547	0.0146482
839.625	0.0147243
839.703	0.0148727
839.781	0.0147543
839.860	0.0147197
839.938	0.0146729
840.016	0.0147074
840.094	0.0148685
840.172	0.0146792
840.250	0.0147974
840.328	0.0147983
840.406	0.0146723
840.485	0.0147288
840.563	0.0146625
840.641	0.0147105
840.719	0.0147988
840.797	0.0146099
840.875	0.0146230
840.953	0.0146722
841.031	0.0147237
841.110	0.0147732
841.188	0.0147221
841.266	0.0148263
841.344	0.0148414
841.422	0.0147820
841.500	0.0146739
841.578	0.0147649
841.656	0.0147725
841.735	0.0147584
841.813	0.0146407
841.891	0.0147080
841.969	0.0149052
842.047	0.0147626
842.125	0.0147649
842.203	0.0148930
842.281	0.0148109
842.360	0.0148093
842.438	0.0147437
842.516	0.0148705
842.594	0.0146543
842.672	0.0147225
842.750	0.0148534
842.828	0.0147643
842.906	0.0147321
842.985	0.0146542
843.063	0.0147139
843.141	0.0148138
843.219	0.0147156
843.297	0.0148291
843.375	0.0147747
843.453	0.0148524
843.531	0.0147594
843.610	0.0148028
843.688	0.0148403
843.766	0.0148356
843.844	0.0147021
843.922	0.0146342
844.000	0.0146033
844.078	0.0146561
844.156	0.0147475
844.235	0.0146729
844.313	0.0147418
844.391	0.0147019
844.469	0.0146806
844.547	0.0147779
844.625	0.0148056
844.703	0.0148393
844.781	0.0149137
844.860	0.0146530
844.938	0.0147694
845.016	0.0147457
845.094	0.0147354
845.172	0.0148653
845.250	0.0147298
845.328	0.0147668
845.406	0.0147505
845.485	0.0148051
845.563	0.0148151
845.641	0.0147416
845.719	0.0147192
845.797	0.0147925
845.875	0.0147435
845.953	0.0148231
846.031	0.0146782
846.110	0.0148100
846.188	0.0147781
846.266	0.0146878
846.344	0.0149126
846.422	0.0147870
846.500	0.0147809
846.578	0.0148006
846.656	0.0148519
846.735	0.0146800
846.813	0.0147761
846.891	0.0146646
846.969	0.0145538
847.047	0.0147266
847.125	0.0146968
847.203	0.0147546
847.281	0.0147150
847.360	0.0147405
847.438	0.0147741
847.516	0.0146655
847.594	0.0147088
847.672	0.0147816
847.750	0.0148380
847.828	0.0148916
847.906	0.0148509
847.985	0.0148337
848.063	0.0147778
848.141	0.0148080
848.219	0.0148275
848.297	0.0149120
848.375	0.0148224
848.453	0.0147015
848.531	0.0148138
848.610	0.0148666
848.688	0.0149332
848.766	0.0147316
848.844	0.0148448
848.922	0.0148011
849.000	0.0148881
849.078	0.0146786
849.156	0.0147577
849.235	0.0148817
849.313	0.0148024
849.391	0.0148898
849.469	0.0148707
849.547	0.0147412
849.625	0.0146933
849.703	0.0149785
849.781	0.0147426
849.860	0.0147780
849.938	0.0147504
850.016	0.0146710
850.094	0.0148191
850.172	0.0147926
850.250	0.0147887
850.328	0.0148515
850.406	0.0147958
850.485	0.0146686
850.563	0.0148319
850.641	0.0146978
850.719	0.0147251
850.797	0.0147945
850.875	0.0146939
850.953	0.0147749
851.031	0.0148100
851.110	0.0147774
851.188	0.0147930
851.266	0.0145708
851.344	0.0147530
851.422	0.0147655
851.500	0.0146953
851.578	0.0146762
851.656	0.0147664
851.735	0.0147243
851.813	0.0147613
851.891	0.0147458
851.969	0.0146629
852.047	0.0146798
852.125	0.0146864
852.203	0.0147065
852.281	0.0147581
852.360	0.0146599
852.438	0.0147625
852.516	0.0146342
852.594	0.0146613
852.672	0.0147160
852.750	0.0147819
852.828	0.0147536
852.906	0.0145683
852.985	0.0146370
853.063	0.0146112
853.141	0.0147197
853.219	0.0148937
853.297	0.0145927
853.375	0.0146727
853.453	0.0147894
853.531	0.0148541
853.610	0.0147894
853.688	0.0148768
853.766	0.0148190
853.844	0.0148509
853.922	0.0148064
854.000	0.0148123
854.078	0.0148562
854.156	0.0148286
854.235	0.0147503
854.313	0.0148976
854.391	0.0148894
854.469	0.0147904
854.547	0.0148351
854.625	0.0148299
854.703	0.0147570
854.781	0.0148683
854.860	0.0148343
854.938	0.0148025
855.016	0.0148477
855.094	0.0148616
855.172	0.0147952
855.250	0.0146694
855.328	0.0146545
855.406	0.0147388
855.485	0.0148007
855.563	0.0148536
855.641	0.0146788
855.719	0.0148180
855.797	0.0147991
855.875	0.0147805
855.953	0.0148353
856.031	0.0147556
856.110	0.0148220
856.188	0.0149001
856.266	0.0147771
856.344	0.0148295
856.422	0.0147169
856.500	0.0149802
856.578	0.0148385
856.656	0.0147770
856.735	0.0148064
856.813	0.0149520
856.891	0.0148462
856.969	0.0148580
857.047	0.0147705
857.125	0.0147116
857.203	0.0147926
857.281	0.0149625
857.360	0.0147903
857.438	0.0148247
857.516	0.0148046
857.594	0.0148124
857.672	0.0147241
857.750	0.0147135
857.828	0.0148794
857.906	0.0148271
857.985	0.0147189
858.063	0.0146808
858.141	0.0148608
858.219	0.0147270
858.297	0.0148704
858.375	0.0148209
858.453	0.0146461
858.531	0.0146460
858.610	0.0148711
858.688	0.0147446
858.766	0.0147192
858.844	0.0147556
858.922	0.0146916
859.000	0.0146732
859.078	0.0147643
859.156	0.0147925
859.235	0.0148511
859.313	0.0146062
859.391	0.0147467
859.469	0.0147500
859.547	0.0147111
859.625	0.0148576
859.703	0.0148242
859.781	0.0148058
859.860	0.0146476
859.938	0.0146525
860.016	0.0148920
860.094	0.0148056
860.172	0.0147454
860.250	0.0147889
860.328	0.0147504
860.406	0.0147379
860.485	0.0148380
860.563	0.0147117
860.641	0.0147220
860.719	0.0147589
860.797	0.0147311
860.875	0.0146645
860.953	0.0147240
861.031	0.0148359
861.110	0.0149379
861.188	0.0147762
861.266	0.0149612
861.344	0.0149850
861.422	0.0148733
861.500	0.0148257
861.578	0.0148096
861.656	0.0148937
861.735	0.0148065
861.813	0.0147260
861.891	0.0148422
861.969	0.0149740
862.047	0.0149559
862.125	0.0149696
862.203	0.0150464
862.281	0.0150304
862.360	0.0149661
862.438	0.0149741
862.516	0.0150017
862.594	0.0150401
862.672	0.0149586
862.750	0.0149600
862.828	0.0149968
862.906	0.0149457
862.985	0.0149166
863.063	0.0148761
863.141	0.0148826
863.219	0.0149321
863.297	0.0147900
863.375	0.0148211
863.453	0.0147272
863.531	0.0149902
863.610	0.0148526
863.688	0.0147768
863.766	0.0149459
863.844	0.0148246
863.922	0.0148225
864.000	0.0149497
864.078	0.0149355
864.156	0.0147727
864.235	0.0146922
864.313	0.0148566
864.391	0.0149996
864.469	0.0148467
864.547	0.0147729
864.625	0.0147363
864.703	0.0147842
864.781	0.0147929
864.860	0.0147137
864.938	0.0147897
865.016	0.0148688
865.094	0.0148576
865.172	0.0149004
865.250	0.0147292
865.328	0.0148827
865.406	0.0149131
865.485	0.0147495
865.563	0.0145290
865.641	0.0145603
865.719	0.0146514
865.797	0.0147965
865.875	0.0146411
865.953	0.0147823
866.031	0.0146993
866.110	0.0146419
866.188	0.0146886
866.266	0.0144580
866.344	0.0145982
866.422	0.0146300
866.500	0.0146949
866.578	0.0146498
866.656	0.0146696
866.735	0.0147470
866.813	0.0146367
866.891	0.0146398
866.969	0.0147598
867.047	0.0148578
867.125	0.0147121
867.203	0.0146674
867.281	0.0146699
867.360	0.0149213
867.438	0.0147875
867.516	0.0146188
867.594	0.0148297
867.672	0.0146276
867.750	0.0148862
867.828	0.0146392
867.906	0.0146999
867.985	0.0147221
868.063	0.0146970
868.141	0.0147144
868.219	0.0148697
868.297	0.0147087
868.375	0.0147636
868.453	0.0148297
868.531	0.0146684
868.610	0.0147859
868.688	0.0147458
868.766	0.0147417
868.844	0.0148289
868.922	0.0147220
869.000	0.0148795
869.078	0.0147914
869.156	0.0147099
869.235	0.0146901
869.313	0.0147231
869.391	0.0147536
869.469	0.0148183
869.547	0.0146818
869.625	0.0147534
869.703	0.0148717
869.781	0.0148054
869.860	0.0146533
869.938	0.0147742
870.016	0.0149377
870.094	0.0148354
870.172	0.0147398
870.250	0.0148648
870.328	0.0147713
870.406	0.0149637
870.485	0.0148514
870.563	0.0148350
870.641	0.0148783
870.719	0.0148733
870.797	0.0147483
870.875	0.0148584
870.953	0.0148758
871.031	0.0146820
871.110	0.0147763
871.188	0.0147899
871.266	0.0148239
871.344	0.0147571
871.422	0.0146950
871.500	0.0147989
871.578	0.0147861
871.656	0.0147908
871.735	0.0147415
871.813	0.0147270
871.891	0.0146943
871.969	0.0147960
872.047	0.0148454
872.125	0.0148535
872.203	0.0147842
872.281	0.0148574
872.360	0.0146746
872.438	0.0146729
872.516	0.0147687
872.594	0.0147623
872.672	0.0148739
872.750	0.0148045
872.828	0.0146817
872.906	0.0147718
872.985	0.0146880
873.063	0.0148370
873.141	0.0148430
873.219	0.0149132
873.297	0.0147311
873.375	0.0146552
873.453	0.0147453
873.531	0.0147842
873.610	0.0147762
873.688	0.0148226
873.766	0.0147588
873.844	0.0148038
873.922	0.0146212
874.000	0.0147993
874.078	0.0147377
874.156	0.0146111
874.235	0.0146334
874.313	0.0146788
874.391	0.0146768
874.469	0.0146011
874.547	0.0146619
874.625	0.0145027
874.703	0.0145210
874.781	0.0145564
874.860	0.0147559
874.938	0.0147658
875.016	0.0147273
875.094	0.0147280
875.172	0.0147750
875.250	0.0146896
875.328	0.0148912
875.406	0.0148036
875.485	0.0147120
875.563	0.0148010
875.641	0.0147727
875.719	0.0145901
875.797	0.0145849
875.875	0.0147807
875.953	0.0148634
876.031	0.0147366
876.110	0.0146803
876.188	0.0147746
876.266	0.0147247
876.344	0.0148904
876.422	0.0147925
876.500	0.0147047
876.578	0.0148343
876.656	0.0149099
876.735	0.0148795
876.813	0.0146807
876.891	0.0147111
876.969	0.0148501
877.047	0.0147510
877.125	0.0146149
877.203	0.0148000
877.281	0.0147819
877.360	0.0147173
877.438	0.0149066
877.516	0.0148402
877.594	0.0147429
877.672	0.0148122
877.750	0.0148843
877.828	0.0148545
877.906	0.0148766
877.985	0.0148943
878.063	0.0150016
878.141	0.0150169
878.219	0.0149683
878.297	0.0148695
878.375	0.0150050
878.453	0.0150278
878.531	0.0150517
878.610	0.0148333
878.688	0.0149344
878.766	0.0149838
878.844	0.0148426
878.922	0.0148227
879.000	0.0149951
879.078	0.0148195
879.156	0.0148485
879.235	0.0149026
879.313	0.0148540
879.391	0.0147940
879.469	0.0148312
879.547	0.0147758
879.625	0.0148762
879.703	0.0147369
879.781	0.0148524
879.860	0.0149393
879.938	0.0149036
880.016	0.0147929
880.094	0.0147369
880.172	0.0148502
880.250	0.0148951
880.328	0.0149460
880.406	0.0148882
880.485	0.0148623
880.563	0.0148491
880.641	0.0147375
880.719	0.0147650
880.797	0.0150510
880.875	0.0149114
880.953	0.0148767
881.031	0.0149051
881.110	0.0147763
881.188	0.0148923
881.266	0.0149368
881.344	0.0148940
881.422	0.0148574
881.500	0.0148333
881.578	0.0148769
881.656	0.0149366
881.735	0.0148809
881.813	0.0148046
881.891	0.0148673
881.969	0.0148106
882.047	0.0147824
882.125	0.0147105
882.203	0.0148116
882.281	0.0148973
882.360	0.0148228
882.438	0.0148305
882.516	0.0148048
882.594	0.0148526
882.672	0.0148788
882.750	0.0148228
882.828	0.0149615
882.906	0.0150311
882.985	0.0148467
883.063	0.0148000
883.141	0.0149416
883.219	0.0150934
883.297	0.0149825
883.375	0.0148710
883.453	0.0149512
883.531	0.0150213
883.610	0.0150465
883.688	0.0150819
883.766	0.0148499
883.844	0.0150217
883.922	0.0151265
884.000	0.0148025
884.078	0.0149422
884.156	0.0150101
884.235	0.0147068
884.313	0.0149816
884.391	0.0149397
884.469	0.0147787
884.547	0.0148236
884.625	0.0147867
884.703	0.0148610
884.781	0.0147708
884.860	0.0147765
884.938	0.0148319
885.016	0.0147827
885.094	0.0147753
885.172	0.0147987
885.250	0.0147318
885.328	0.0147119
885.406	0.0147718
885.485	0.0148804
885.563	0.0147899
885.641	0.0148662
885.719	0.0147688
885.797	0.0147864
885.875	0.0149106
885.953	0.0148534
886.031	0.0148950
886.110	0.0148702
886.188	0.0148977
886.266	0.0150421
886.344	0.0147508
886.422	0.0148233
886.500	0.0149075
886.578	0.0147618
886.656	0.0147781
886.735	0.0146908
886.813	0.0147553
886.891	0.0148685
886.969	0.0148250
887.047	0.0147887
887.125	0.0147473
887.203	0.0147094
887.281	0.0146963
887.360	0.0148474
887.438	0.0148573
887.516	0.0148933
887.594	0.0146941
887.672	0.0146304
887.750	0.0149077
887.828	0.0147587
887.906	0.0148701
887.985	0.0148842
888.063	0.0148808
888.141	0.0149431
888.219	0.0147346
888.297	0.0148455
888.375	0.0149285
888.453	0.0148050
888.531	0.0149673
888.610	0.0148269
888.688	0.0148349
888.766	0.0149405
888.844	0.0148982
888.922	0.0149680
889.000	0.0147668
889.078	0.0148666
889.156	0.0149404
889.235	0.0148911
889.313	0.0147276
889.391	0.0147252
889.469	0.0149135
889.547	0.0150018
889.625	0.0149277
889.703	0.0147872
889.781	0.0148865
889.860	0.0150007
889.938	0.0148899
890.016	0.0149178
890.094	0.0148494
890.172	0.0148692
890.250	0.0150101
890.328	0.0149383
890.406	0.0148801
890.485	0.0148482
890.563	0.0149557
890.641	0.0151280
890.719	0.0150233
890.797	0.0150012
890.875	0.0148112
890.953	0.0149513
891.031	0.0149587
891.110	0.0149325
891.188	0.0148573
891.266	0.0149603
891.344	0.0148515
891.422	0.0148656
891.500	0.0148465
891.578	0.0149591
891.656	0.0149972
891.735	0.0149221
891.813	0.0148846
891.891	0.0148350
891.969	0.0147832
892.047	0.0147726
892.125	0.0146693
892.203	0.0146850
892.281	0.0148801
892.360	0.0147919
892.438	0.0147424
892.516	0.0148191
892.594	0.0149337
892.672	0.0147027
892.750	0.0146153
892.828	0.0146712
892.906	0.0146403
892.985	0.0147749
893.063	0.0147954
893.141	0.0148048
893.219	0.0147730
893.297	0.0148840
893.375	0.0148201
893.453	0.0147269
893.531	0.0147662
893.610	0.0147805
893.688	0.0148384
893.766	0.0148018
893.844	0.0147797
893.922	0.0148038
894.000	0.0147929
894.078	0.0148328
894.156	0.0147979
894.235	0.0148438
894.313	0.0147557
894.391	0.0148565
894.469	0.0147923
894.547	0.0146510
894.625	0.0148003
894.703	0.0147625
894.781	0.0147524
894.860	0.0148073
894.938	0.0147042
895.016	0.0146848
895.094	0.0149018
895.172	0.0148679
895.250	0.0148428
895.328	0.0149485
895.406	0.0148181
895.485	0.0147362
895.563	0.0147573
895.641	0.0148152
895.719	0.0148006
895.797	0.0147913
895.875	0.0148959
895.953	0.0148515
896.031	0.0148992
896.110	0.0148271
896.188	0.0147133
896.266	0.0147269
896.344	0.0147810
896.422	0.0148885
896.500	0.0148603
896.578	0.0149191
896.656	0.0147659
896.735	0.0147918
896.813	0.0148560
896.891	0.0148702
896.969	0.0148859
897.047	0.0148285
897.125	0.0150078
897.203	0.0148416
897.281	0.0148991
897.360	0.0147537
897.438	0.0147135
897.516	0.0147683
897.594	0.0148977
897.672	0.0147992
897.750	0.0148533
897.828	0.0147056
897.906	0.0147399
897.985	0.0148669
898.063	0.0148484
898.141	0.0146101
898.219	0.0147715
898.297	0.0148967
898.375	0.0147381
898.453	0.0146344
898.531	0.0148426
898.610	0.0148133
898.688	0.0147471
898.766	0.0148813
898.844	0.0149422
898.922	0.0148467
899.000	0.0148473
899.078	0.0147682
899.156	0.0149026
899.235	0.0150503
899.313	0.0148370
899.391	0.0148383
899.469	0.0149667
899.547	0.0147467
899.625	0.0148123
899.703	0.0148972
899.781	0.0148565
899.860	0.0148334
899.938	0.0148209
900.016	0.0148402
900.094	0.0148451
900.172	0.0148132
900.250	0.0146529
900.328	0.0147175
900.406	0.0147452
900.485	0.0149219
900.563	0.0147852
900.641	0.0148093
900.719	0.0148153
900.797	0.0148016
900.875	0.0148032
900.953	0.0148053
901.031	0.0148598
901.110	0.0147833
901.188	0.0147089
901.266	0.0148455
901.344	0.0148753
901.422	0.0148418
901.500	0.0149372
901.578	0.0149103
901.656	0.0147171
901.735	0.0147931
901.813	0.0149601
901.891	0.0149207
901.969	0.0147762
902.047	0.0148629
902.125	0.0148055
902.203	0.0147935
902.281	0.0149070
902.360	0.0148251
902.438	0.0148146
902.516	0.0148971
902.594	0.0147089
902.672	0.0147752
902.750	0.0149402
902.828	0.0148874
902.906	0.0146587
902.985	0.0148558
903.063	0.0148198
903.141	0.0147866
903.219	0.0148596
903.297	0.0147298
903.375	0.0149156
903.453	0.0149716
903.531	0.0149104
903.610	0.0146178
903.688	0.0148560
903.766	0.0148851
903.844	0.0148641
903.922	0.0147459
904.000	0.0149255
904.078	0.0148618
904.156	0.0149088
904.235	0.0148013
904.313	0.0148136
904.391	0.0148795
904.469	0.0148739
904.547	0.0148855
904.625	0.0149841
904.703	0.0147705
904.781	0.0148604
904.860	0.0147610
904.938	0.0148190
905.016	0.0148465
905.094	0.0147849
905.172	0.0147559
905.250	0.0148252
905.328	0.0148009
905.406	0.0147540
905.485	0.0147360
905.563	0.0147751
905.641	0.0146389
905.719	0.0147109
905.797	0.0147355
905.875	0.0147146
905.953	0.0148460
906.031	0.0147285
906.110	0.0148515
906.188	0.0147186
906.266	0.0147058
906.344	0.0149216
906.422	0.0148289
906.500	0.0149212
906.578	0.0149142
906.656	0.0149686
906.735	0.0148144
906.813	0.0149035
906.891	0.0148491
906.969	0.0148751
907.047	0.0148159
907.125	0.0149437
907.203	0.0149342
907.281	0.0149590
907.360	0.0149185
907.438	0.0146897
907.516	0.0149105
907.594	0.0147997
907.672	0.0148901
907.750	0.0148994
907.828	0.0148325
907.906	0.0148300
907.985	0.0148264
908.063	0.0148435
908.141	0.0148693
908.219	0.0147244
908.297	0.0147203
908.375	0.0149043
908.453	0.0147836
908.531	0.0147452
908.610	0.0148621
908.688	0.0148343
908.766	0.0149058
908.844	0.0148965
908.922	0.0148949
909.000	0.0147905
909.078	0.0148655
909.156	0.0147581
909.235	0.0149067
909.313	0.0149004
909.391	0.0148169
909.469	0.0148743
909.547	0.0147887
909.625	0.0147895
909.703	0.0148476
909.781	0.0146632
909.860	0.0148318
909.938	0.0148860
910.016	0.0149198
910.094	0.0146873
910.172	0.0148450
910.250	0.0149864
910.328	0.0145773
910.406	0.0148893
910.485	0.0148123
910.563	0.0148003
910.641	0.0149026
910.719	0.0148573
910.797	0.0147902
910.875	0.0148780
910.953	0.0148820
911.031	0.0147013
911.110	0.0147914
911.188	0.0148618
911.266	0.0149554
911.344	0.0147794
911.422	0.0148595
911.500	0.0148335
911.578	0.0146815
911.656	0.0147734
911.735	0.0147430
911.813	0.0147577
911.891	0.0147176
911.969	0.0148221
912.047	0.0147330
912.125	0.0145710
912.203	0.0146796
912.281	0.0148390
912.360	0.0148596
912.438	0.0146514
912.516	0.0147314
912.594	0.0145750
912.672	0.0145665
912.750	0.0146274
912.828	0.0147215
912.906	0.0147746
912.985	0.0147793
913.063	0.0146690
913.141	0.0145861
913.219	0.0147464
913.297	0.0146111
913.375	0.0147017
913.453	0.0146619
913.531	0.0146386
913.610	0.0146154
913.688	0.0146714
913.766	0.0146626
913.844	0.0147318
913.922	0.0146214
914.000	0.0146239
914.078	0.0147632
914.156	0.0146225
914.235	0.0145891
914.313	0.0146841
914.391	0.0147157
914.469	0.0148187
914.547	0.0148419
914.625	0.0146992
914.703	0.0147602
914.781	0.0146223
914.860	0.0147678
914.938	0.0148006
915.016	0.0147478
915.094	0.0148215
915.172	0.0147720
915.250	0.0146942
915.328	0.0147214
915.406	0.0148128
915.485	0.0147658
915.563	0.0147681
915.641	0.0147087
915.719	0.0146639
915.797	0.0147770
915.875	0.0147487
915.953	0.0147931
916.031	0.0146648
916.110	0.0148245
916.188	0.0150606
916.266	0.0147418
916.344	0.0147274
916.422	0.0147175
916.500	0.0148233
916.578	0.0149524
916.656	0.0149046
916.735	0.0149020
916.813	0.0148518
916.891	0.0148260
916.969	0.0148990
917.047	0.0149486
917.125	0.0149208
917.203	0.0148194
917.281	0.0148350
917.360	0.0147768
917.438	0.0148050
917.516	0.0148199
917.594	0.0147991
917.672	0.0148467
917.750	0.0147501
917.828	0.0148296
917.906	0.0147990
917.985	0.0147994
918.063	0.0147020
918.141	0.0148029
918.219	0.0148219
918.297	0.0147398
918.375	0.0148557
918.453	0.0147809
918.531	0.0148338
918.610	0.0149961
918.688	0.0149281
918.766	0.0146056
918.844	0.0147666
918.922	0.0147787
919.000	0.0147362
919.078	0.0148763
919.156	0.0147543
919.235	0.0147849
919.313	0.0149005
919.391	0.0149661
919.469	0.0148010
919.547	0.0149636
919.625	0.0148647
919.703	0.0148224
919.781	0.0148484
919.860	0.0149263
919.938	0.0148666
920.016	0.0148832
920.094	0.0148340
920.172	0.0148955
920.250	0.0147847
920.328	0.0150385
920.406	0.0147894
920.485	0.0148400
920.563	0.0147887
920.641	0.0149619
920.719	0.0148763
920.797	0.0148203
920.875	0.0148196
920.953	0.0147175
921.031	0.0149167
921.110	0.0146274
921.188	0.0148412
921.266	0.0146457
921.344	0.0147364
921.422	0.0148610
921.500	0.0148095
921.578	0.0147495
921.656	0.0147440
921.735	0.0148466
921.813	0.0147793
921.891	0.0147514
921.969	0.0147460
922.047	0.0147881
922.125	0.0147289
922.203	0.0147498
922.281	0.0147701
922.360	0.0148438
922.438	0.0147179
922.516	0.0148363
922.594	0.0149792
922.672	0.0148617
922.750	0.0147800
922.828	0.0147305
922.906	0.0147977
922.985	0.0147878
923.063	0.0147627
923.141	0.0147703
923.219	0.0147198
923.297	0.0148783
923.375	0.0147826
923.453	0.0146286
923.531	0.0147951
923.610	0.0148763
923.688	0.0148344
923.766	0.0147427
923.844	0.0148613
923.922	0.0147436
924.000	0.0146754
924.078	0.0146547
924.156	0.0147360
924.235	0.0148412
924.313	0.0149215
924.391	0.0147391
924.469	0.0147465
924.547	0.0148215
924.625	0.0148761
924.703	0.0148190
924.781	0.0148973
924.860	0.0149840
924.938	0.0149606
925.016	0.0147895
925.094	0.0149277
925.172	0.0149448
925.250	0.0148041
925.328	0.0148378
925.406	0.0149821
925.485	0.0148739
925.563	0.0148597
925.641	0.0148895
925.719	0.0148789
925.797	0.0149199
925.875	0.0150105
925.953	0.0149223
926.031	0.0149734
926.110	0.0149574
926.188	0.0148003
926.266	0.0148145
926.344	0.0147478
926.422	0.0147922
926.500	0.0148553
926.578	0.0148582
926.656	0.0148139
926.735	0.0146959
926.813	0.0147681
926.891	0.0147280
926.969	0.0147733
927.047	0.0147816
927.125	0.0148067
927.203	0.0146409
927.281	0.0147198
927.360	0.0148643
927.438	0.0146410
927.516	0.0147778
927.594	0.0147629
927.672	0.0145866
927.750	0.0148148
927.828	0.0147218
927.906	0.0147952
927.985	0.0147958
928.063	0.0147643
928.141	0.0147597
928.219	0.0148635
928.297	0.0147276
928.375	0.0148557
928.453	0.0148085
928.531	0.0147453
928.610	0.0147655
928.688	0.0148307
928.766	0.0147824
928.844	0.0146470
928.922	0.0146523
929.000	0.0147272
929.078	0.0147549
929.156	0.0146256
929.235	0.0145219
929.313	0.0147575
929.391	0.0148102
929.469	0.0146135
929.547	0.0146763
929.625	0.0147367
929.703	0.0146779
929.781	0.0146923
929.860	0.0147433
929.938	0.0146608
930.016	0.0146812
930.094	0.0146872
930.172	0.0146786
930.250	0.0147009
930.328	0.0146708
930.406	0.0147791
930.485	0.0147002
930.563	0.0146511
930.641	0.0148957
930.719	0.0146601
930.797	0.0146797
930.875	0.0147323
930.953	0.0146228
931.031	0.0147217
931.110	0.0146204
931.188	0.0146002
931.266	0.0147616
931.344	0.0146954
931.422	0.0146970
931.500	0.0147039
931.578	0.0147395
931.656	0.0148824
931.735	0.0146812
931.813	0.0146297
931.891	0.0146042
931.969	0.0144561
932.047	0.0147246
932.125	0.0147459
932.203	0.0146012
932.281	0.0146880
932.360	0.0146462
932.438	0.0146270
932.516	0.0145996
932.594	0.0146487
932.672	0.0146084
932.750	0.0146155
932.828	0.0145984
932.906	0.0146201
932.985	0.0146920
933.063	0.0145924
933.141	0.0147401
933.219	0.0146898
933.297	0.0147980
933.375	0.0147318
933.453	0.0147144
933.531	0.0148195
933.610	0.0149026
933.688	0.0147473
933.766	0.0146840
933.844	0.0147758
933.922	0.0148376
934.000	0.0147739
934.078	0.0147898
934.156	0.0147443
934.235	0.0146564
934.313	0.0146326
934.391	0.0147765
934.469	0.0147437
934.547	0.0146602
934.625	0.0146883
934.703	0.0147292
934.781	0.0146375
934.860	0.0146027
934.938	0.0147052
935.016	0.0146375
935.094	0.0147237
935.172	0.0147668
935.250	0.0146717
935.328	0.0146139
935.406	0.0146124
935.485	0.0147578
935.563	0.0146371
935.641	0.0146635
935.719	0.0145506
935.797	0.0145670
935.875	0.0146176
935.953	0.0145008
936.031	0.0146164
936.110	0.0147365
936.188	0.0145545
936.266	0.0146368
936.344	0.0146576
936.422	0.0146447
936.500	0.0145000
936.578	0.0144911
936.656	0.0147018
936.735	0.0147091
936.813	0.0146091
936.891	0.0147477
936.969	0.0146638
937.047	0.0147389
937.125	0.0146490
937.203	0.0146275
937.281	0.0145895
937.360	0.0147090
937.438	0.0144414
937.516	0.0144938
937.594	0.0146759
937.672	0.0148100
937.750	0.0145959
937.828	0.0145297
937.906	0.0145151
937.985	0.0144881
938.063	0.0144958
938.141	0.0146173
938.219	0.0145564
938.297	0.0145929
938.375	0.0144623
938.453	0.0146431
938.531	0.0146379
938.610	0.0146069
938.688	0.0145357
938.766	0.0147018
938.844	0.0146905
938.922	0.0146911
939.000	0.0146521
939.078	0.0146412
939.156	0.0147768
939.235	0.0148705
939.313	0.0147535
939.391	0.0148430
939.469	0.0148041
939.547	0.0147414
939.625	0.0148643
939.703	0.0147453
939.781	0.0147384
939.860	0.0148189
939.938	0.0145759
940.016	0.0147256
940.094	0.0147739
940.172	0.0147688
940.250	0.0148518
940.328	0.0147971
940.406	0.0147259
940.485	0.0147994
940.563	0.0148069
940.641	0.0145724
940.719	0.0149248
940.797	0.0148526
940.875	0.0148425
940.953	0.0148687
941.031	0.0148949
941.110	0.0149644
941.188	0.0148681
941.266	0.0148939
941.344	0.0148692
941.422	0.0150262
941.500	0.0149361
941.578	0.0148421
941.656	0.0149265
941.735	0.0149416
941.813	0.0149201
941.891	0.0148373
941.969	0.0149125
942.047	0.0149709
942.125	0.0148631
942.203	0.0147729
942.281	0.0147186
942.360	0.0148763
942.438	0.0149070
942.516	0.0147083
942.594	0.0147467
942.672	0.0148373
942.750	0.0147168
942.828	0.0147327
942.906	0.0148019
942.985	0.0147439
943.063	0.0147373
943.141	0.0147390
943.219	0.0147278
943.297	0.0147496
943.375	0.0146238
943.453	0.0146003
943.531	0.0145816
943.610	0.0145472
943.688	0.0146871
943.766	0.0145849
943.844	0.0146477
943.922	0.0146819
944.000	0.0146178
944.078	0.0146921
944.156	0.0146277
944.235	0.0146234
944.313	0.0147059
944.391	0.0146028
944.469	0.0146516
944.547	0.0147607
944.625	0.0146739
944.703	0.0146429
944.781	0.0147103
944.860	0.0147227
944.938	0.0146558
945.016	0.0146700
945.094	0.0146050
945.172	0.0146143
945.250	0.0145857
945.328	0.0147114
945.406	0.0147031
945.485	0.0146584
945.563	0.0146518
945.641	0.0147002
945.719	0.0147060
945.797	0.0147168
945.875	0.0146729
945.953	0.0147448
946.031	0.0146281
946.110	0.0147478
946.188	0.0148465
946.266	0.0147733
946.344	0.0148217
946.422	0.0147507
946.500	0.0147686
946.578	0.0148145
946.656	0.0149420
946.735	0.0149050
946.813	0.0147066
946.891	0.0146885
946.969	0.0148230
947.047	0.0147621
947.125	0.0148399
947.203	0.0148227
947.281	0.0147570
947.360	0.0147824
947.438	0.0148685
947.516	0.0148719
947.594	0.0147354
947.672	0.0148224
947.750	0.0147704
947.828	0.0147336
947.906	0.0146789
947.985	0.0146994
948.063	0.0146989
948.141	0.0148709
948.219	0.0146101
948.297	0.0147746
948.375	0.0147480
948.453	0.0147129
948.531	0.0145504
948.610	0.0147348
948.688	0.0148585
948.766	0.0148679
948.844	0.0147950
948.922	0.0146959
949.000	0.0147560
949.078	0.0147238
949.156	0.0147980
949.235	0.0146352
949.313	0.0147326
949.391	0.0149075
949.469	0.0149355
949.547	0.0148393
949.625	0.0148177
949.703	0.0147489
949.781	0.0147313
949.860	0.0147142
949.938	0.0147829
