05/04/2022	20:53:16	Ver.	4.1	UNKNOWN
Optical Delay	678.996401	Delta X		0.078125	Sweeps	1	Scan Rate	0/0
Coordinates	Axis 1	NaN	Axis 2	NaN	Axis 3	NaN	Axis 4	NaN	Axis 5	NaN	Axis 6	0.000000
TX Power	0.000000	RX Power	0.000000

678.996	0.0143735
679.075	0.0143862
679.153	0.0144306
679.231	0.0144272
679.309	0.0143074
679.387	0.0144493
679.465	0.0144942
679.543	0.0145797
679.621	0.0143795
679.700	0.0142019
679.778	0.0143912
679.856	0.0141727
679.934	0.0142703
680.012	0.0142821
680.090	0.0144257
680.168	0.0143437
680.246	0.0144214
680.325	0.0143468
680.403	0.0142708
680.481	0.0145097
680.559	0.0144012
680.637	0.0143928
680.715	0.0143094
680.793	0.0142424
680.871	0.0142558
680.950	0.0142595
681.028	0.0144415
681.106	0.0145024
681.184	0.0143866
681.262	0.0144874
681.340	0.0144794
681.418	0.0143860
681.496	0.0143653
681.575	0.0143568
681.653	0.0144027
681.731	0.0143546
681.809	0.0143139
681.887	0.0144030
681.965	0.0143983
682.043	0.0144081
682.121	0.0142882
682.200	0.0144838
682.278	0.0144902
682.356	0.0143721
682.434	0.0144411
682.512	0.0143776
682.590	0.0143172
682.668	0.0143060
682.746	0.0143846
682.825	0.0145977
682.903	0.0142915
682.981	0.0143179
683.059	0.0144252
683.137	0.0145014
683.215	0.0143959
683.293	0.0144386
683.371	0.0143765
683.450	0.0143264
683.528	0.0142773
683.606	0.0143322
683.684	0.0144053
683.762	0.0145339
683.840	0.0144730
683.918	0.0143164
683.996	0.0143730
684.075	0.0143491
684.153	0.0143201
684.231	0.0143903
684.309	0.0143678
684.387	0.0143517
684.465	0.0144602
684.543	0.0143041
684.621	0.0144607
684.700	0.0143687
684.778	0.0143324
684.856	0.0144894
684.934	0.0143107
685.012	0.0144546
685.090	0.0143037
685.168	0.0143121
685.246	0.0143513
685.325	0.0143189
685.403	0.0143053
685.481	0.0143348
685.559	0.0143429
685.637	0.0143226
685.715	0.0144013
685.793	0.0145945
685.871	0.0143626
685.950	0.0143498
686.028	0.0142041
686.106	0.0143312
686.184	0.0143500
686.262	0.0143697
686.340	0.0143185
686.418	0.0143724
686.496	0.0143745
686.575	0.0143611
686.653	0.0141481
686.731	0.0143456
686.809	0.0143937
686.887	0.0144167
686.965	0.0144535
687.043	0.0144603
687.121	0.0143389
687.200	0.0143871
687.278	0.0143105
687.356	0.0143052
687.434	0.0143587
687.512	0.0143755
687.590	0.0144913
687.668	0.0143999
687.746	0.0143069
687.825	0.0143598
687.903	0.0143545
687.981	0.0145002
688.059	0.0143472
688.137	0.0144000
688.215	0.0144181
688.293	0.0142856
688.371	0.0144830
688.450	0.0143082
688.528	0.0143114
688.606	0.0142904
688.684	0.0142299
688.762	0.0143111
688.840	0.0143494
688.918	0.0143695
688.996	0.0143722
689.075	0.0143079
689.153	0.0143633
689.231	0.0143747
689.309	0.0144099
689.387	0.0142430
689.465	0.0142736
689.543	0.0143360
689.621	0.0142551
689.700	0.0143067
689.778	0.0143255
689.856	0.0143145
689.934	0.0144579
690.012	0.0143334
690.090	0.0143440
690.168	0.0142896
690.246	0.0142224
690.325	0.0142598
690.403	0.0143000
690.481	0.0144611
690.559	0.0142890
690.637	0.0142508
690.715	0.0143887
690.793	0.0143394
690.871	0.0143172
690.950	0.0142059
691.028	0.0141425
691.106	0.0142594
691.184	0.0144176
691.262	0.0142146
691.340	0.0143076
691.418	0.0144364
691.496	0.0142966
691.575	0.0144118
691.653	0.0143669
691.731	0.0143829
691.809	0.0143655
691.887	0.0142491
691.965	0.0144552
692.043	0.0143742
692.121	0.0142181
692.200	0.0143588
692.278	0.0143195
692.356	0.0144106
692.434	0.0144630
692.512	0.0143653
692.590	0.0142398
692.668	0.0143783
692.746	0.0143754
692.825	0.0143308
692.903	0.0143935
692.981	0.0143057
693.059	0.0142809
693.137	0.0143105
693.215	0.0143481
693.293	0.0143382
693.371	0.0143840
693.450	0.0143730
693.528	0.0143050
693.606	0.0144246
693.684	0.0144108
693.762	0.0142886
693.840	0.0144351
693.918	0.0143628
693.996	0.0141948
694.075	0.0143513
694.153	0.0143576
694.231	0.0144189
694.309	0.0144534
694.387	0.0143839
694.465	0.0143958
694.543	0.0143589
694.621	0.0143657
694.700	0.0143446
694.778	0.0142783
694.856	0.0143114
694.934	0.0144033
695.012	0.0143298
695.090	0.0142624
695.168	0.0143603
695.246	0.0144210
695.325	0.0144794
695.403	0.0144752
695.481	0.0143137
695.559	0.0144929
695.637	0.0144110
695.715	0.0143657
695.793	0.0143674
695.871	0.0144411
695.950	0.0144262
696.028	0.0144276
696.106	0.0142852
696.184	0.0142995
696.262	0.0143920
696.340	0.0144188
696.418	0.0143934
696.496	0.0144247
696.575	0.0143497
696.653	0.0142919
696.731	0.0143237
696.809	0.0143279
696.887	0.0143826
696.965	0.0143281
697.043	0.0142915
697.121	0.0142211
697.200	0.0143970
697.278	0.0143398
697.356	0.0143095
697.434	0.0143556
697.512	0.0143868
697.590	0.0142924
697.668	0.0143276
697.746	0.0142775
697.825	0.0142906
697.903	0.0143197
697.981	0.0143729
698.059	0.0143454
698.137	0.0144061
698.215	0.0142645
698.293	0.0143360
698.371	0.0143418
698.450	0.0143948
698.528	0.0143269
698.606	0.0143400
698.684	0.0142516
698.762	0.0143732
698.840	0.0142920
698.918	0.0143565
698.996	0.0142529
699.075	0.0143688
699.153	0.0143562
699.231	0.0142944
699.309	0.0144349
699.387	0.0143381
699.465	0.0144514
699.543	0.0144471
699.621	0.0143002
699.700	0.0142712
699.778	0.0142995
699.856	0.0144051
699.934	0.0143118
700.012	0.0141613
700.090	0.0143337
700.168	0.0142261
700.246	0.0143644
700.325	0.0142579
700.403	0.0142384
700.481	0.0143290
700.559	0.0144170
700.637	0.0143449
700.715	0.0143855
700.793	0.0143868
700.871	0.0143443
700.950	0.0142987
701.028	0.0142937
701.106	0.0143605
701.184	0.0144495
701.262	0.0143068
701.340	0.0143726
701.418	0.0142571
701.496	0.0143696
701.575	0.0144262
701.653	0.0143964
701.731	0.0143511
701.809	0.0144234
701.887	0.0143243
701.965	0.0142339
702.043	0.0142874
702.121	0.0142909
702.200	0.0142970
702.278	0.0143713
702.356	0.0143242
702.434	0.0144688
702.512	0.0143511
702.590	0.0143625
702.668	0.0143478
702.746	0.0142327
702.825	0.0144110
702.903	0.0143821
702.981	0.0143052
703.059	0.0143737
703.137	0.0145404
703.215	0.0143563
703.293	0.0143310
703.371	0.0143690
703.450	0.0142890
703.528	0.0144231
703.606	0.0143998
703.684	0.0143080
703.762	0.0143567
703.840	0.0143453
703.918	0.0143100
703.996	0.0143901
704.075	0.0145132
704.153	0.0144246
704.231	0.0143864
704.309	0.0144966
704.387	0.0143944
704.465	0.0143851
704.543	0.0144415
704.621	0.0143292
704.700	0.0143763
704.778	0.0143265
704.856	0.0144082
704.934	0.0143669
705.012	0.0143745
705.090	0.0144347
705.168	0.0143265
705.246	0.0143992
705.325	0.0144434
705.403	0.0143574
705.481	0.0144078
705.559	0.0144196
705.637	0.0143372
705.715	0.0143460
705.793	0.0144216
705.871	0.0143433
705.950	0.0144956
706.028	0.0144260
706.106	0.0143819
706.184	0.0143184
706.262	0.0143573
706.340	0.0143690
706.418	0.0144281
706.496	0.0143105
706.575	0.0143436
706.653	0.0145058
706.731	0.0143157
706.809	0.0143224
706.887	0.0143201
706.965	0.0143255
707.043	0.0142599
707.121	0.0143708
707.200	0.0144491
707.278	0.0143494
707.356	0.0142983
707.434	0.0143728
707.512	0.0142944
707.590	0.0144180
707.668	0.0144141
707.746	0.0144164
707.825	0.0144034
707.903	0.0143944
707.981	0.0143771
708.059	0.0144057
708.137	0.0144786
708.215	0.0143451
708.293	0.0142049
708.371	0.0145073
708.450	0.0143961
708.528	0.0145031
708.606	0.0145192
708.684	0.0145501
708.762	0.0144308
708.840	0.0145969
708.918	0.0144723
708.996	0.0144254
709.075	0.0145007
709.153	0.0143403
709.231	0.0143003
709.309	0.0143347
709.387	0.0142823
709.465	0.0143478
709.543	0.0143761
709.621	0.0142458
709.700	0.0143312
709.778	0.0143614
709.856	0.0143578
709.934	0.0144252
710.012	0.0144078
710.090	0.0143425
710.168	0.0143613
710.246	0.0142709
710.325	0.0143600
710.403	0.0144789
710.481	0.0142520
710.559	0.0144849
710.637	0.0145539
710.715	0.0147327
710.793	0.0145972
710.871	0.0147174
710.950	0.0147229
711.028	0.0145821
711.106	0.0144540
711.184	0.0143530
711.262	0.0142478
711.340	0.0142936
711.418	0.0141485
711.496	0.0143791
711.575	0.0143138
711.653	0.0144098
711.731	0.0145316
711.809	0.0143530
711.887	0.0143293
711.965	0.0141475
712.043	0.0141586
712.121	0.0141971
712.200	0.0141129
712.278	0.0141100
712.356	0.0141001
712.434	0.0142275
712.512	0.0145626
712.590	0.0146094
712.668	0.0149799
712.746	0.0148528
712.825	0.0149223
712.903	0.0150862
712.981	0.0148673
713.059	0.0148197
713.137	0.0148679
713.215	0.0146252
713.293	0.0144730
713.371	0.0141335
713.450	0.0140858
713.528	0.0138966
713.606	0.0138588
713.684	0.0140295
713.762	0.0139924
713.840	0.0140243
713.918	0.0142151
713.996	0.0142880
714.075	0.0145579
714.153	0.0145639
714.231	0.0147577
714.309	0.0148479
714.387	0.0149171
714.465	0.0148815
714.543	0.0148750
714.621	0.0149196
714.700	0.0148011
714.778	0.0147882
714.856	0.0145191
714.934	0.0142651
715.012	0.0139912
715.090	0.0136841
715.168	0.0134902
715.246	0.0132620
715.325	0.0131313
715.403	0.0132345
715.481	0.0133404
715.559	0.0136266
715.637	0.0139026
715.715	0.0141116
715.793	0.0145129
715.871	0.0147643
715.950	0.0149995
716.028	0.0152184
716.106	0.0151039
716.184	0.0147996
716.262	0.0146381
716.340	0.0142785
716.418	0.0139174
716.496	0.0135573
716.575	0.0133553
716.653	0.0130888
716.731	0.0131937
716.809	0.0132933
716.887	0.0135651
716.965	0.0137788
717.043	0.0142172
717.121	0.0147231
717.200	0.0150401
717.278	0.0156532
717.356	0.0158727
717.434	0.0159610
717.512	0.0161536
717.590	0.0162447
717.668	0.0161830
717.746	0.0160635
717.825	0.0156882
717.903	0.0154654
717.981	0.0150642
718.059	0.0145435
718.137	0.0140702
718.215	0.0136235
718.293	0.0132805
718.371	0.0129992
718.450	0.0128856
718.528	0.0128160
718.606	0.0130634
718.684	0.0135173
718.762	0.0138167
718.840	0.0140993
718.918	0.0146411
718.996	0.0149919
719.075	0.0153442
719.153	0.0154640
719.231	0.0155025
719.309	0.0153990
719.387	0.0152688
719.465	0.0150869
719.543	0.0145987
719.621	0.0141761
719.700	0.0140802
719.778	0.0137038
719.856	0.0133987
719.934	0.0133681
720.012	0.0133776
720.090	0.0134550
720.168	0.0137797
720.246	0.0140173
720.325	0.0144151
720.403	0.0147968
720.481	0.0151173
720.559	0.0151648
720.637	0.0153310
720.715	0.0152426
720.793	0.0152020
720.871	0.0149499
720.950	0.0147250
721.028	0.0144409
721.106	0.0141113
721.184	0.0137530
721.262	0.0135202
721.340	0.0132531
721.418	0.0129721
721.496	0.0130302
721.575	0.0130794
721.653	0.0133722
721.731	0.0135458
721.809	0.0136610
721.887	0.0138711
721.965	0.0143649
722.043	0.0146753
722.121	0.0151292
722.200	0.0154598
722.278	0.0156676
722.356	0.0156918
722.434	0.0156909
722.512	0.0154989
722.590	0.0154505
722.668	0.0152379
722.746	0.0149612
722.825	0.0148596
722.903	0.0144855
722.981	0.0142583
723.059	0.0139903
723.137	0.0138496
723.215	0.0135995
723.293	0.0136890
723.371	0.0137275
723.450	0.0136871
723.528	0.0138051
723.606	0.0140140
723.684	0.0142712
723.762	0.0144886
723.840	0.0148065
723.918	0.0151527
723.996	0.0154490
724.075	0.0154281
724.153	0.0156857
724.231	0.0156301
724.309	0.0154819
724.387	0.0152183
724.465	0.0150311
724.543	0.0147948
724.621	0.0144492
724.700	0.0142690
724.778	0.0139671
724.856	0.0136715
724.934	0.0136021
725.012	0.0134318
725.090	0.0133015
725.168	0.0132410
725.246	0.0133658
725.325	0.0132343
725.403	0.0134910
725.481	0.0139570
725.559	0.0141573
725.637	0.0144084
725.715	0.0146610
725.793	0.0149219
725.871	0.0152060
725.950	0.0151900
726.028	0.0153976
726.106	0.0154304
726.184	0.0152586
726.262	0.0151557
726.340	0.0150230
726.418	0.0146938
726.496	0.0144041
726.575	0.0141872
726.653	0.0137162
726.731	0.0135196
726.809	0.0134760
726.887	0.0134051
726.965	0.0133435
727.043	0.0133390
727.121	0.0134550
727.200	0.0135638
727.278	0.0137242
727.356	0.0140564
727.434	0.0143568
727.512	0.0147070
727.590	0.0147851
727.668	0.0150957
727.746	0.0152222
727.825	0.0153532
727.903	0.0153804
727.981	0.0151727
728.059	0.0150557
728.137	0.0149787
728.215	0.0149238
728.293	0.0148190
728.371	0.0144028
728.450	0.0142712
728.528	0.0141506
728.606	0.0140131
728.684	0.0139162
728.762	0.0139136
728.840	0.0139197
728.918	0.0140779
728.996	0.0140179
729.075	0.0142681
729.153	0.0143206
729.231	0.0142690
729.309	0.0145061
729.387	0.0146989
729.465	0.0146162
729.543	0.0146545
729.621	0.0147794
729.700	0.0146719
729.778	0.0146580
729.856	0.0147356
729.934	0.0146626
730.012	0.0146211
730.090	0.0144533
730.168	0.0144221
730.246	0.0144019
730.325	0.0143890
730.403	0.0143427
730.481	0.0141530
730.559	0.0141502
730.637	0.0142720
730.715	0.0142755
730.793	0.0142026
730.871	0.0142352
730.950	0.0142208
731.028	0.0140446
731.106	0.0140601
731.184	0.0142598
731.262	0.0142175
731.340	0.0140457
731.418	0.0140285
731.496	0.0141171
731.575	0.0141070
731.653	0.0142272
731.731	0.0141888
731.809	0.0144435
731.887	0.0145334
731.965	0.0146799
732.043	0.0146211
732.121	0.0147475
732.200	0.0147342
732.278	0.0148801
732.356	0.0149055
732.434	0.0146939
732.512	0.0145915
732.590	0.0144111
732.668	0.0142699
732.746	0.0141660
732.825	0.0138834
732.903	0.0137081
732.981	0.0136962
733.059	0.0136306
733.137	0.0134711
733.215	0.0136234
733.293	0.0136297
733.371	0.0136897
733.450	0.0137870
733.528	0.0139255
733.606	0.0141660
733.684	0.0143786
733.762	0.0145302
733.840	0.0146453
733.918	0.0147173
733.996	0.0149068
734.075	0.0150172
734.153	0.0148995
734.231	0.0151211
734.309	0.0148668
734.387	0.0146761
734.465	0.0147504
734.543	0.0148576
734.621	0.0146760
734.700	0.0145672
734.778	0.0145062
734.856	0.0143563
734.934	0.0142773
735.012	0.0141486
735.090	0.0140445
735.168	0.0138575
735.246	0.0137876
735.325	0.0138771
735.403	0.0138181
735.481	0.0139072
735.559	0.0138953
735.637	0.0139542
735.715	0.0139877
735.793	0.0141666
735.871	0.0143499
735.950	0.0142839
736.028	0.0144299
736.106	0.0145651
736.184	0.0147168
736.262	0.0147962
736.340	0.0149782
736.418	0.0149404
736.496	0.0150697
736.575	0.0150611
736.653	0.0149654
736.731	0.0148775
736.809	0.0146811
736.887	0.0144009
736.965	0.0144808
737.043	0.0144028
737.121	0.0144283
737.200	0.0141953
737.278	0.0141637
737.356	0.0139719
737.434	0.0140058
737.512	0.0141203
737.590	0.0141548
737.668	0.0142300
737.746	0.0142412
737.825	0.0142613
737.903	0.0145288
737.981	0.0145178
738.059	0.0145681
738.137	0.0147269
738.215	0.0146562
738.293	0.0146127
738.371	0.0146933
738.450	0.0146059
738.528	0.0146658
738.606	0.0144952
738.684	0.0147105
738.762	0.0146249
738.840	0.0144061
738.918	0.0144159
738.996	0.0144633
739.075	0.0145047
739.153	0.0144134
739.231	0.0143491
739.309	0.0142758
739.387	0.0142418
739.465	0.0141232
739.543	0.0142592
739.621	0.0142350
739.700	0.0141544
739.778	0.0140080
739.856	0.0138770
739.934	0.0137572
740.012	0.0138583
740.090	0.0137450
740.168	0.0138313
740.246	0.0139389
740.325	0.0139877
740.403	0.0141573
740.481	0.0143399
740.559	0.0143095
740.637	0.0147585
740.715	0.0146983
740.793	0.0150417
740.871	0.0150155
740.950	0.0149379
741.028	0.0148957
741.106	0.0148739
741.184	0.0148096
741.262	0.0147773
741.340	0.0146719
741.418	0.0143214
741.496	0.0142413
741.575	0.0142999
741.653	0.0140948
741.731	0.0139620
741.809	0.0138916
741.887	0.0138453
741.965	0.0138565
742.043	0.0139120
742.121	0.0139320
742.200	0.0140255
742.278	0.0142511
742.356	0.0141898
742.434	0.0142425
742.512	0.0142985
742.590	0.0142892
742.668	0.0144740
742.746	0.0144638
742.825	0.0145152
742.903	0.0145411
742.981	0.0145272
743.059	0.0144312
743.137	0.0145457
743.215	0.0145087
743.293	0.0145145
743.371	0.0144872
743.450	0.0144289
743.528	0.0144189
743.606	0.0143418
743.684	0.0143829
743.762	0.0142370
743.840	0.0143272
743.918	0.0144257
743.996	0.0142161
744.075	0.0141711
744.153	0.0141754
744.231	0.0142775
744.309	0.0139973
744.387	0.0141177
744.465	0.0141276
744.543	0.0142405
744.621	0.0143967
744.700	0.0143901
744.778	0.0144878
744.856	0.0146080
744.934	0.0146870
745.012	0.0146284
745.090	0.0145882
745.168	0.0146900
745.246	0.0146046
745.325	0.0145512
745.403	0.0144989
745.481	0.0144978
745.559	0.0142612
745.637	0.0141320
745.715	0.0141190
745.793	0.0141628
745.871	0.0140993
745.950	0.0141235
746.028	0.0141542
746.106	0.0142099
746.184	0.0142661
746.262	0.0143008
746.340	0.0142652
746.418	0.0144753
746.496	0.0144344
746.575	0.0146786
746.653	0.0148318
746.731	0.0148790
746.809	0.0147783
746.887	0.0146429
746.965	0.0147318
747.043	0.0146838
747.121	0.0145215
747.200	0.0146416
747.278	0.0144322
747.356	0.0143469
747.434	0.0140713
747.512	0.0140247
747.590	0.0141474
747.668	0.0140714
747.746	0.0140685
747.825	0.0140476
747.903	0.0140575
747.981	0.0141130
748.059	0.0143080
748.137	0.0144717
748.215	0.0144397
748.293	0.0145020
748.371	0.0146028
748.450	0.0146642
748.528	0.0148309
748.606	0.0147362
748.684	0.0147764
748.762	0.0147250
748.840	0.0148413
748.918	0.0146581
748.996	0.0145175
749.075	0.0145113
749.153	0.0143258
749.231	0.0143555
749.309	0.0142246
749.387	0.0141820
749.465	0.0140396
749.543	0.0140837
749.621	0.0140181
749.700	0.0141606
749.778	0.0141483
749.856	0.0140565
749.934	0.0141942
750.012	0.0142545
750.090	0.0144479
750.168	0.0145409
750.246	0.0143153
750.325	0.0144089
750.403	0.0145010
750.481	0.0145466
750.559	0.0144415
750.637	0.0145565
750.715	0.0143556
750.793	0.0142956
750.871	0.0144416
750.950	0.0143169
751.028	0.0143741
751.106	0.0144724
751.184	0.0144086
751.262	0.0142950
751.340	0.0144098
751.418	0.0143878
751.496	0.0143695
751.575	0.0144272
751.653	0.0143900
751.731	0.0144014
751.809	0.0143336
751.887	0.0143368
751.965	0.0142548
752.043	0.0142136
752.121	0.0143661
752.200	0.0142214
752.278	0.0142565
752.356	0.0141532
752.434	0.0143053
752.512	0.0144165
752.590	0.0144839
752.668	0.0146085
752.746	0.0146088
752.825	0.0145280
752.903	0.0145797
752.981	0.0146520
753.059	0.0145383
753.137	0.0143784
753.215	0.0144749
753.293	0.0145217
753.371	0.0143850
753.450	0.0145171
753.528	0.0144193
753.606	0.0143497
753.684	0.0142616
753.762	0.0143959
753.840	0.0143542
753.918	0.0144680
753.996	0.0143304
754.075	0.0143568
754.153	0.0144352
754.231	0.0144658
754.309	0.0144921
754.387	0.0145453
754.465	0.0144078
754.543	0.0144827
754.621	0.0144421
754.700	0.0144939
754.778	0.0144008
754.856	0.0144467
754.934	0.0143001
755.012	0.0143227
755.090	0.0143092
755.168	0.0140973
755.246	0.0140887
755.325	0.0141290
755.403	0.0140891
755.481	0.0141187
755.559	0.0142287
755.637	0.0143462
755.715	0.0142783
755.793	0.0142953
755.871	0.0144510
755.950	0.0144113
756.028	0.0145839
756.106	0.0145406
756.184	0.0145644
756.262	0.0146911
756.340	0.0145584
756.418	0.0145403
756.496	0.0144396
756.575	0.0143803
756.653	0.0142842
756.731	0.0142764
756.809	0.0142524
756.887	0.0141804
756.965	0.0142123
757.043	0.0141039
757.121	0.0139585
757.200	0.0141618
757.278	0.0142028
757.356	0.0141661
757.434	0.0142119
757.512	0.0142640
757.590	0.0142540
757.668	0.0142564
757.746	0.0143516
757.825	0.0142794
757.903	0.0142772
757.981	0.0143234
758.059	0.0142928
758.137	0.0143059
758.215	0.0143376
758.293	0.0143941
758.371	0.0142961
758.450	0.0142963
758.528	0.0143893
758.606	0.0142459
758.684	0.0144128
758.762	0.0144827
758.840	0.0145169
758.918	0.0145553
758.996	0.0145934
759.075	0.0146422
759.153	0.0144731
759.231	0.0145361
759.309	0.0144542
759.387	0.0143204
759.465	0.0143533
759.543	0.0142882
759.621	0.0142876
759.700	0.0143321
759.778	0.0143066
759.856	0.0141496
759.934	0.0141351
760.012	0.0142421
760.090	0.0142046
760.168	0.0142858
760.246	0.0142444
760.325	0.0144157
760.403	0.0145010
760.481	0.0144437
760.559	0.0145892
760.637	0.0145719
760.715	0.0146571
760.793	0.0146397
760.871	0.0146620
760.950	0.0146092
761.028	0.0145159
761.106	0.0144316
761.184	0.0144671
761.262	0.0144806
761.340	0.0145418
761.418	0.0144396
761.496	0.0144422
761.575	0.0143524
761.653	0.0143913
761.731	0.0143698
761.809	0.0144105
761.887	0.0145277
761.965	0.0143644
762.043	0.0143659
762.121	0.0143980
762.200	0.0145110
762.278	0.0145570
762.356	0.0144939
762.434	0.0145753
762.512	0.0144447
762.590	0.0144157
762.668	0.0144822
762.746	0.0144131
762.825	0.0144565
762.903	0.0143961
762.981	0.0143266
763.059	0.0143215
763.137	0.0143417
763.215	0.0142345
763.293	0.0143484
763.371	0.0143793
763.450	0.0143824
763.528	0.0142755
763.606	0.0142449
763.684	0.0144770
763.762	0.0143172
763.840	0.0144085
763.918	0.0144785
763.996	0.0145329
764.075	0.0144299
764.153	0.0144143
764.231	0.0144109
764.309	0.0143678
764.387	0.0143933
764.465	0.0144566
764.543	0.0144127
764.621	0.0142904
764.700	0.0144469
764.778	0.0144357
764.856	0.0144613
764.934	0.0142967
765.012	0.0141817
765.090	0.0143803
765.168	0.0144086
765.246	0.0144254
765.325	0.0143519
765.403	0.0143078
765.481	0.0144126
765.559	0.0143943
765.637	0.0143401
765.715	0.0142115
765.793	0.0142158
765.871	0.0142585
765.950	0.0142263
766.028	0.0144087
766.106	0.0143554
766.184	0.0142263
766.262	0.0143851
766.340	0.0143439
766.418	0.0143883
766.496	0.0142937
766.575	0.0143533
766.653	0.0144131
766.731	0.0145332
766.809	0.0145414
766.887	0.0145464
766.965	0.0144423
767.043	0.0144379
767.121	0.0143047
767.200	0.0142814
767.278	0.0143324
767.356	0.0143143
767.434	0.0143126
767.512	0.0141856
767.590	0.0142046
767.668	0.0142085
767.746	0.0142670
767.825	0.0141757
767.903	0.0142899
767.981	0.0142520
768.059	0.0142788
768.137	0.0143405
768.215	0.0143659
768.293	0.0144377
768.371	0.0145226
768.450	0.0145049
768.528	0.0144351
768.606	0.0146381
768.684	0.0145693
768.762	0.0144939
768.840	0.0144648
768.918	0.0144447
768.996	0.0143732
769.075	0.0144417
769.153	0.0143410
769.231	0.0143697
769.309	0.0143464
769.387	0.0143077
769.465	0.0142099
769.543	0.0142042
769.621	0.0143008
769.700	0.0143365
769.778	0.0143475
769.856	0.0143918
769.934	0.0144913
770.012	0.0144770
770.090	0.0143849
770.168	0.0143464
770.246	0.0144484
770.325	0.0143875
770.403	0.0143263
770.481	0.0143475
770.559	0.0142432
770.637	0.0141609
770.715	0.0143890
770.793	0.0143637
770.871	0.0141939
770.950	0.0143356
771.028	0.0142017
771.106	0.0142496
771.184	0.0144633
771.262	0.0143011
771.340	0.0142924
771.418	0.0143230
771.496	0.0145635
771.575	0.0143594
771.653	0.0143374
771.731	0.0144840
771.809	0.0144269
771.887	0.0144149
771.965	0.0144810
772.043	0.0145433
772.121	0.0144872
772.200	0.0144073
772.278	0.0143545
772.356	0.0144581
772.434	0.0144301
772.512	0.0143510
772.590	0.0142685
772.668	0.0142639
772.746	0.0143000
772.825	0.0142923
772.903	0.0143442
772.981	0.0144137
773.059	0.0143996
773.137	0.0143539
773.215	0.0143681
773.293	0.0142435
773.371	0.0145594
773.450	0.0144845
773.528	0.0143713
773.606	0.0144199
773.684	0.0144560
773.762	0.0144457
773.840	0.0143730
773.918	0.0144430
773.996	0.0144602
774.075	0.0144534
774.153	0.0144494
774.231	0.0143293
774.309	0.0142559
774.387	0.0144884
774.465	0.0144125
774.543	0.0144018
774.621	0.0144040
774.700	0.0145133
774.778	0.0144595
774.856	0.0144498
774.934	0.0145130
775.012	0.0144865
775.090	0.0144108
775.168	0.0143396
775.246	0.0142461
775.325	0.0142448
775.403	0.0145020
775.481	0.0144219
775.559	0.0144628
775.637	0.0143192
775.715	0.0143978
775.793	0.0144179
775.871	0.0143610
775.950	0.0144588
776.028	0.0144434
776.106	0.0144979
776.184	0.0143403
776.262	0.0143478
776.340	0.0142858
776.418	0.0144384
776.496	0.0144341
776.575	0.0144109
776.653	0.0144385
776.731	0.0144052
776.809	0.0144761
776.887	0.0144421
776.965	0.0145147
777.043	0.0144963
777.121	0.0143645
777.200	0.0145448
777.278	0.0146445
777.356	0.0143961
777.434	0.0144589
777.512	0.0144985
777.590	0.0145585
777.668	0.0145692
777.746	0.0144810
777.825	0.0144881
777.903	0.0144480
777.981	0.0145510
778.059	0.0144317
778.137	0.0143755
778.215	0.0143731
778.293	0.0144354
778.371	0.0143796
778.450	0.0143881
778.528	0.0143169
778.606	0.0142354
778.684	0.0142569
778.762	0.0143635
778.840	0.0143851
778.918	0.0143250
778.996	0.0143790
779.075	0.0144653
779.153	0.0144244
779.231	0.0144238
779.309	0.0144756
779.387	0.0144926
779.465	0.0143655
779.543	0.0144085
779.621	0.0145313
779.700	0.0144408
779.778	0.0145594
779.856	0.0144694
779.934	0.0143538
780.012	0.0144289
780.090	0.0143253
780.168	0.0143681
780.246	0.0143917
780.325	0.0143324
780.403	0.0142291
780.481	0.0143681
780.559	0.0142633
780.637	0.0143611
780.715	0.0143451
780.793	0.0143017
780.871	0.0142995
780.950	0.0143849
781.028	0.0143137
781.106	0.0144450
781.184	0.0142867
781.262	0.0142370
781.340	0.0142776
781.418	0.0145067
781.496	0.0144482
781.575	0.0142050
781.653	0.0143813
781.731	0.0143333
781.809	0.0142262
781.887	0.0143032
781.965	0.0144044
782.043	0.0144051
782.121	0.0144559
782.200	0.0143909
782.278	0.0144074
782.356	0.0144883
782.434	0.0144617
782.512	0.0143314
782.590	0.0144158
782.668	0.0144060
782.746	0.0144057
782.825	0.0143826
782.903	0.0143736
782.981	0.0143484
783.059	0.0143192
783.137	0.0142583
783.215	0.0142835
783.293	0.0143431
783.371	0.0142419
783.450	0.0142663
783.528	0.0142167
783.606	0.0143188
783.684	0.0143211
783.762	0.0142063
783.840	0.0143005
783.918	0.0141597
783.996	0.0144802
784.075	0.0143476
784.153	0.0143843
784.231	0.0144393
784.309	0.0144276
784.387	0.0143969
784.465	0.0144398
784.543	0.0145596
784.621	0.0144629
784.700	0.0146124
784.778	0.0143562
784.856	0.0142625
784.934	0.0143553
785.012	0.0143407
785.090	0.0143603
785.168	0.0143034
785.246	0.0144160
785.325	0.0143754
785.403	0.0142135
785.481	0.0142620
785.559	0.0143140
785.637	0.0142865
785.715	0.0143678
785.793	0.0143121
785.871	0.0142740
785.950	0.0141917
786.028	0.0144471
786.106	0.0144360
786.184	0.0143857
786.262	0.0142719
786.340	0.0144611
786.418	0.0142136
786.496	0.0144218
786.575	0.0143073
786.653	0.0142821
786.731	0.0143652
786.809	0.0142775
786.887	0.0144783
786.965	0.0143277
787.043	0.0143332
787.121	0.0142475
787.200	0.0143958
787.278	0.0144401
787.356	0.0143210
787.434	0.0144276
787.512	0.0142475
787.590	0.0142922
787.668	0.0143496
787.746	0.0144154
787.825	0.0143572
787.903	0.0143501
787.981	0.0143079
788.059	0.0143964
788.137	0.0143885
788.215	0.0144360
788.293	0.0143648
788.371	0.0143417
788.450	0.0143207
788.528	0.0142114
788.606	0.0141153
788.684	0.0143093
788.762	0.0143626
788.840	0.0144434
788.918	0.0143660
788.996	0.0144060
789.075	0.0143420
789.153	0.0143749
789.231	0.0145044
789.309	0.0143720
789.387	0.0143847
789.465	0.0145233
789.543	0.0145227
789.621	0.0145136
789.700	0.0143584
789.778	0.0145577
789.856	0.0145388
789.934	0.0144511
790.012	0.0144547
790.090	0.0142813
790.168	0.0143919
790.246	0.0143532
790.325	0.0143718
790.403	0.0143893
790.481	0.0143301
790.559	0.0145711
790.637	0.0144579
790.715	0.0142863
790.793	0.0142592
790.871	0.0142799
790.950	0.0143112
791.028	0.0143142
791.106	0.0143488
791.184	0.0143491
791.262	0.0143989
791.340	0.0143426
791.418	0.0144179
791.496	0.0143886
791.575	0.0144559
791.653	0.0143428
791.731	0.0144792
791.809	0.0144345
791.887	0.0144113
791.965	0.0144308
792.043	0.0142908
792.121	0.0143538
792.200	0.0143810
792.278	0.0144585
792.356	0.0143014
792.434	0.0144920
792.512	0.0142557
792.590	0.0143130
792.668	0.0142948
792.746	0.0143169
792.825	0.0143512
792.903	0.0143974
792.981	0.0143334
793.059	0.0144136
793.137	0.0142406
793.215	0.0142095
793.293	0.0143899
793.371	0.0144421
793.450	0.0143465
793.528	0.0143945
793.606	0.0144121
793.684	0.0143710
793.762	0.0144063
793.840	0.0142937
793.918	0.0143440
793.996	0.0143572
794.075	0.0143939
794.153	0.0143178
794.231	0.0142561
794.309	0.0143500
794.387	0.0142886
794.465	0.0143085
794.543	0.0142809
794.621	0.0143874
794.700	0.0141701
794.778	0.0143273
794.856	0.0144520
794.934	0.0143790
795.012	0.0142567
795.090	0.0143902
795.168	0.0145091
795.246	0.0144419
795.325	0.0145158
795.403	0.0142489
795.481	0.0143475
795.559	0.0144445
795.637	0.0144815
795.715	0.0142540
795.793	0.0141290
795.871	0.0142511
795.950	0.0141603
796.028	0.0142828
796.106	0.0142046
796.184	0.0142722
796.262	0.0142654
796.340	0.0143679
796.418	0.0143649
796.496	0.0143087
796.575	0.0143695
796.653	0.0143069
796.731	0.0143144
796.809	0.0142384
796.887	0.0143459
796.965	0.0144523
797.043	0.0143063
797.121	0.0143307
797.200	0.0143954
797.278	0.0144435
797.356	0.0143700
797.434	0.0144140
797.512	0.0144256
797.590	0.0144360
797.668	0.0143889
797.746	0.0143485
797.825	0.0144518
797.903	0.0144496
797.981	0.0145135
798.059	0.0143385
798.137	0.0145022
798.215	0.0145618
798.293	0.0145720
798.371	0.0145455
798.450	0.0144624
798.528	0.0145449
798.606	0.0144605
798.684	0.0145955
798.762	0.0144743
798.840	0.0144246
798.918	0.0144547
798.996	0.0145110
799.075	0.0143504
799.153	0.0143019
799.231	0.0143718
799.309	0.0143868
799.387	0.0144462
799.465	0.0143880
799.543	0.0143484
799.621	0.0143793
799.700	0.0143930
799.778	0.0144530
799.856	0.0144022
799.934	0.0145216
800.012	0.0144614
800.090	0.0144602
800.168	0.0144482
800.246	0.0145581
800.325	0.0143967
800.403	0.0143246
800.481	0.0143971
800.559	0.0143974
800.637	0.0145208
800.715	0.0143861
800.793	0.0145027
800.871	0.0144125
800.950	0.0144309
801.028	0.0145039
801.106	0.0144659
801.184	0.0143756
801.262	0.0144691
801.340	0.0143743
801.418	0.0144361
801.496	0.0143992
801.575	0.0143887
801.653	0.0143201
801.731	0.0144293
801.809	0.0144470
801.887	0.0143873
801.965	0.0144070
802.043	0.0144417
802.121	0.0144395
802.200	0.0144703
802.278	0.0143176
802.356	0.0143002
802.434	0.0144180
802.512	0.0145651
802.590	0.0143761
802.668	0.0143617
802.746	0.0143787
802.825	0.0145377
802.903	0.0144961
802.981	0.0144429
803.059	0.0144363
803.137	0.0143451
803.215	0.0143663
803.293	0.0144641
803.371	0.0143897
803.450	0.0145352
803.528	0.0143888
803.606	0.0144540
803.684	0.0144197
803.762	0.0144304
803.840	0.0144356
803.918	0.0144105
803.996	0.0143890
804.075	0.0144150
804.153	0.0144837
804.231	0.0143356
804.309	0.0143859
804.387	0.0143697
804.465	0.0143459
804.543	0.0143108
804.621	0.0143721
804.700	0.0143356
804.778	0.0143703
804.856	0.0144506
804.934	0.0143738
805.012	0.0143893
805.090	0.0144350
805.168	0.0145743
805.246	0.0143806
805.325	0.0143739
805.403	0.0145394
805.481	0.0144302
805.559	0.0143437
805.637	0.0144238
805.715	0.0143449
805.793	0.0142317
805.871	0.0144306
805.950	0.0143281
806.028	0.0143878
806.106	0.0144414
806.184	0.0142688
806.262	0.0143575
806.340	0.0142571
806.418	0.0142119
806.496	0.0143248
806.575	0.0144231
806.653	0.0143939
806.731	0.0143565
806.809	0.0142567
806.887	0.0143391
806.965	0.0143090
807.043	0.0144717
807.121	0.0143329
807.200	0.0144043
807.278	0.0144691
807.356	0.0144044
807.434	0.0144133
807.512	0.0144239
807.590	0.0142159
807.668	0.0143834
807.746	0.0144797
807.825	0.0144007
807.903	0.0143432
807.981	0.0143960
808.059	0.0144582
808.137	0.0144728
808.215	0.0142992
808.293	0.0142854
808.371	0.0145515
808.450	0.0141977
808.528	0.0143034
808.606	0.0143920
808.684	0.0143520
808.762	0.0143570
808.840	0.0143025
808.918	0.0142419
808.996	0.0144353
809.075	0.0144537
809.153	0.0144370
809.231	0.0143124
809.309	0.0143638
809.387	0.0143693
809.465	0.0143061
809.543	0.0144316
809.621	0.0143348
809.700	0.0142322
809.778	0.0143604
809.856	0.0144312
809.934	0.0143352
810.012	0.0143880
810.090	0.0142886
810.168	0.0143201
810.246	0.0144350
810.325	0.0143548
810.403	0.0143251
810.481	0.0143938
810.559	0.0143423
810.637	0.0141718
810.715	0.0142587
810.793	0.0143214
810.871	0.0143656
810.950	0.0143540
811.028	0.0142614
811.106	0.0142560
811.184	0.0144361
811.262	0.0142466
811.340	0.0141161
811.418	0.0141534
811.496	0.0142911
811.575	0.0144291
811.653	0.0143772
811.731	0.0144201
811.809	0.0144402
811.887	0.0141836
811.965	0.0141314
812.043	0.0142887
812.121	0.0145271
812.200	0.0143633
812.278	0.0142937
812.356	0.0143609
812.434	0.0143231
812.512	0.0143243
812.590	0.0143244
812.668	0.0142612
812.746	0.0142953
812.825	0.0143075
812.903	0.0142987
812.981	0.0143406
813.059	0.0143960
813.137	0.0144269
813.215	0.0143410
813.293	0.0143371
813.371	0.0143547
813.450	0.0144000
813.528	0.0145426
813.606	0.0144785
813.684	0.0144995
813.762	0.0144667
813.840	0.0144069
813.918	0.0144019
813.996	0.0144872
814.075	0.0145313
814.153	0.0144147
814.231	0.0143065
814.309	0.0141985
814.387	0.0141967
814.465	0.0143674
814.543	0.0142982
814.621	0.0142688
814.700	0.0143156
814.778	0.0143555
814.856	0.0143198
814.934	0.0144250
815.012	0.0142608
815.090	0.0143456
815.168	0.0143543
815.246	0.0141606
815.325	0.0143097
815.403	0.0144326
815.481	0.0144021
815.559	0.0143182
815.637	0.0144263
815.715	0.0143015
815.793	0.0143324
815.871	0.0142176
815.950	0.0142641
816.028	0.0143027
816.106	0.0141888
816.184	0.0142207
816.262	0.0143959
816.340	0.0143534
816.418	0.0143449
816.496	0.0142694
816.575	0.0142303
816.653	0.0145325
816.731	0.0143247
816.809	0.0142751
816.887	0.0143370
816.965	0.0143080
817.043	0.0143542
817.121	0.0142533
817.200	0.0142794
817.278	0.0142741
817.356	0.0143014
817.434	0.0141369
817.512	0.0141219
817.590	0.0142417
817.668	0.0143180
817.746	0.0143102
817.825	0.0142179
817.903	0.0142127
817.981	0.0142849
818.059	0.0143448
818.137	0.0142173
818.215	0.0142370
818.293	0.0141508
818.371	0.0144713
818.450	0.0144443
818.528	0.0143638
818.606	0.0143820
818.684	0.0143268
818.762	0.0143315
818.840	0.0143213
818.918	0.0143449
818.996	0.0143745
819.075	0.0143562
819.153	0.0142869
819.231	0.0143312
819.309	0.0143941
819.387	0.0143427
819.465	0.0142660
819.543	0.0144280
819.621	0.0143420
819.700	0.0142976
819.778	0.0141718
819.856	0.0144115
819.934	0.0143328
820.012	0.0143080
820.090	0.0143449
820.168	0.0143839
820.246	0.0144511
820.325	0.0143353
820.403	0.0145647
820.481	0.0143689
820.559	0.0144763
820.637	0.0144724
820.715	0.0144348
820.793	0.0144440
820.871	0.0144150
820.950	0.0144606
821.028	0.0144066
821.106	0.0145213
821.184	0.0144014
821.262	0.0145279
821.340	0.0144283
821.418	0.0144438
821.496	0.0145116
821.575	0.0144122
821.653	0.0143983
821.731	0.0145151
821.809	0.0143263
821.887	0.0145055
821.965	0.0143731
822.043	0.0145514
822.121	0.0144318
822.200	0.0143979
822.278	0.0143266
822.356	0.0144259
822.434	0.0143629
822.512	0.0143223
822.590	0.0144204
822.668	0.0144067
822.746	0.0143537
822.825	0.0143022
822.903	0.0142308
822.981	0.0143823
823.059	0.0143324
823.137	0.0141992
823.215	0.0143209
823.293	0.0144643
823.371	0.0144073
823.450	0.0143417
823.528	0.0143493
823.606	0.0143502
823.684	0.0143893
823.762	0.0145322
823.840	0.0144120
823.918	0.0144215
823.996	0.0144208
824.075	0.0143153
824.153	0.0144819
824.231	0.0144246
824.309	0.0143089
824.387	0.0144239
824.465	0.0143873
824.543	0.0142345
824.621	0.0143462
824.700	0.0142737
824.778	0.0142355
824.856	0.0144534
824.934	0.0144389
825.012	0.0144581
825.090	0.0142974
825.168	0.0144029
825.246	0.0144901
825.325	0.0144747
825.403	0.0143613
825.481	0.0144296
825.559	0.0143103
825.637	0.0143021
825.715	0.0143728
825.793	0.0142899
825.871	0.0143456
825.950	0.0143221
826.028	0.0142651
826.106	0.0143678
826.184	0.0143232
826.262	0.0144667
826.340	0.0144523
826.418	0.0145354
826.496	0.0144112
826.575	0.0144770
826.653	0.0145307
826.731	0.0143664
826.809	0.0143571
826.887	0.0144089
826.965	0.0144309
827.043	0.0144532
827.121	0.0145706
827.200	0.0144296
827.278	0.0143847
827.356	0.0146043
827.434	0.0143378
827.512	0.0142424
827.590	0.0140828
827.668	0.0143436
827.746	0.0142902
827.825	0.0143115
827.903	0.0142380
827.981	0.0142779
828.059	0.0142046
828.137	0.0143504
828.215	0.0143243
828.293	0.0144012
828.371	0.0143380
828.450	0.0143607
828.528	0.0142538
828.606	0.0144933
828.684	0.0144969
828.762	0.0144306
828.840	0.0145421
828.918	0.0143903
828.996	0.0142696
829.075	0.0142742
829.153	0.0143555
829.231	0.0142766
829.309	0.0143443
829.387	0.0143999
829.465	0.0143590
829.543	0.0143177
829.621	0.0143374
829.700	0.0143732
829.778	0.0142270
829.856	0.0141884
829.934	0.0142455
830.012	0.0144375
830.090	0.0143545
830.168	0.0142345
830.246	0.0143103
830.325	0.0142961
830.403	0.0143536
830.481	0.0142803
830.559	0.0142859
830.637	0.0142635
830.715	0.0144064
830.793	0.0144205
830.871	0.0142894
830.950	0.0143578
831.028	0.0145003
831.106	0.0143946
831.184	0.0142913
831.262	0.0142381
831.340	0.0143433
831.418	0.0144220
831.496	0.0145042
831.575	0.0144407
831.653	0.0143262
831.731	0.0143147
831.809	0.0144216
831.887	0.0143607
831.965	0.0144872
832.043	0.0143129
832.121	0.0143230
832.200	0.0142106
832.278	0.0143879
832.356	0.0143430
832.434	0.0143652
832.512	0.0143567
832.590	0.0144233
832.668	0.0143024
832.746	0.0143266
832.825	0.0143416
832.903	0.0143896
832.981	0.0143347
833.059	0.0143075
833.137	0.0144012
833.215	0.0143835
833.293	0.0143777
833.371	0.0143771
833.450	0.0144697
833.528	0.0143418
833.606	0.0143500
833.684	0.0145054
833.762	0.0144819
833.840	0.0144679
833.918	0.0143067
833.996	0.0142964
834.075	0.0143509
834.153	0.0143848
834.231	0.0143942
834.309	0.0143418
834.387	0.0143519
834.465	0.0142328
834.543	0.0143438
834.621	0.0142454
834.700	0.0143865
834.778	0.0143694
834.856	0.0142538
834.934	0.0143191
835.012	0.0144562
835.090	0.0143655
835.168	0.0143036
835.246	0.0144764
835.325	0.0144749
835.403	0.0143723
835.481	0.0144124
835.559	0.0143291
835.637	0.0143608
835.715	0.0143240
835.793	0.0141642
835.871	0.0143575
835.950	0.0142861
836.028	0.0142850
836.106	0.0143409
836.184	0.0142657
836.262	0.0142735
836.340	0.0144203
836.418	0.0143854
836.496	0.0143381
836.575	0.0143802
836.653	0.0144775
836.731	0.0144303
836.809	0.0145232
836.887	0.0144757
836.965	0.0143794
837.043	0.0144397
837.121	0.0144236
837.200	0.0144492
837.278	0.0144497
837.356	0.0143583
837.434	0.0143648
837.512	0.0142004
837.590	0.0142699
837.668	0.0141481
837.746	0.0144382
837.825	0.0144253
837.903	0.0142862
837.981	0.0141467
838.059	0.0143201
838.137	0.0142010
838.215	0.0143559
838.293	0.0143154
838.371	0.0143391
838.450	0.0144247
838.528	0.0143626
838.606	0.0143812
838.684	0.0143044
838.762	0.0144907
838.840	0.0144895
838.918	0.0143720
838.996	0.0141942
839.075	0.0141782
839.153	0.0144198
839.231	0.0142857
839.309	0.0142461
839.387	0.0143124
839.465	0.0142226
839.543	0.0143755
839.621	0.0143153
839.700	0.0143736
839.778	0.0144430
839.856	0.0144565
839.934	0.0145249
840.012	0.0144574
840.090	0.0146259
840.168	0.0145544
840.246	0.0144810
840.325	0.0144465
840.403	0.0143517
840.481	0.0143529
840.559	0.0143275
840.637	0.0143955
840.715	0.0143816
840.793	0.0143660
840.871	0.0144814
840.950	0.0144358
841.028	0.0143639
841.106	0.0143777
841.184	0.0143834
841.262	0.0144652
841.340	0.0143708
841.418	0.0144484
841.496	0.0146058
841.575	0.0145139
841.653	0.0144555
841.731	0.0145543
841.809	0.0145654
841.887	0.0145873
841.965	0.0144692
842.043	0.0145336
842.121	0.0145885
842.200	0.0144366
842.278	0.0142480
842.356	0.0142234
842.434	0.0142657
842.512	0.0143229
842.590	0.0142883
842.668	0.0143996
842.746	0.0144020
842.825	0.0143870
842.903	0.0143303
842.981	0.0143122
843.059	0.0144634
843.137	0.0144695
843.215	0.0145248
843.293	0.0145937
843.371	0.0144675
843.450	0.0145492
843.528	0.0145503
843.606	0.0144411
843.684	0.0144186
843.762	0.0144614
843.840	0.0143935
843.918	0.0144395
843.996	0.0143335
844.075	0.0143319
844.153	0.0143085
844.231	0.0143388
844.309	0.0142658
844.387	0.0142796
844.465	0.0142391
844.543	0.0142819
844.621	0.0143626
844.700	0.0143014
844.778	0.0142825
844.856	0.0142645
844.934	0.0144127
845.012	0.0144591
845.090	0.0145423
845.168	0.0146249
845.246	0.0145192
845.325	0.0143757
845.403	0.0145592
845.481	0.0145593
845.559	0.0145200
845.637	0.0143853
845.715	0.0144392
845.793	0.0143900
845.871	0.0144211
845.950	0.0143359
846.028	0.0143816
846.106	0.0143303
846.184	0.0144327
846.262	0.0144003
846.340	0.0141718
846.418	0.0143190
846.496	0.0142007
846.575	0.0142743
846.653	0.0143009
846.731	0.0142678
846.809	0.0143208
846.887	0.0142499
846.965	0.0143083
847.043	0.0144217
847.121	0.0144602
847.200	0.0144593
847.278	0.0144524
847.356	0.0144762
847.434	0.0144655
847.512	0.0145055
847.590	0.0145257
847.668	0.0145509
847.746	0.0145317
847.825	0.0143879
847.903	0.0143962
847.981	0.0145287
848.059	0.0145286
848.137	0.0144920
848.215	0.0143836
848.293	0.0142964
848.371	0.0142802
848.450	0.0144167
848.528	0.0142886
848.606	0.0143407
848.684	0.0143810
848.762	0.0144758
848.840	0.0143826
848.918	0.0144597
848.996	0.0144917
849.075	0.0144638
849.153	0.0144038
849.231	0.0143992
849.309	0.0145248
849.387	0.0144897
849.465	0.0143290
849.543	0.0144785
849.621	0.0143314
849.700	0.0143472
849.778	0.0144951
849.856	0.0143575
849.934	0.0143896
850.012	0.0143498
850.090	0.0144569
850.168	0.0145339
850.246	0.0143899
850.325	0.0143544
850.403	0.0144044
850.481	0.0143752
850.559	0.0145667
850.637	0.0143711
850.715	0.0143434
850.793	0.0144927
850.871	0.0144536
850.950	0.0144868
851.028	0.0144582
851.106	0.0145165
851.184	0.0144071
851.262	0.0143832
851.340	0.0144301
851.418	0.0145083
851.496	0.0144637
851.575	0.0144315
851.653	0.0144617
851.731	0.0144084
851.809	0.0144769
851.887	0.0144433
851.965	0.0143890
852.043	0.0142237
852.121	0.0143019
852.200	0.0143683
852.278	0.0143515
852.356	0.0142564
852.434	0.0144716
852.512	0.0143696
852.590	0.0142852
852.668	0.0143819
852.746	0.0143759
852.825	0.0143019
852.903	0.0142635
852.981	0.0144977
853.059	0.0144205
853.137	0.0143998
853.215	0.0143777
853.293	0.0143605
853.371	0.0144789
853.450	0.0145047
853.528	0.0144594
853.606	0.0142701
853.684	0.0143633
853.762	0.0144633
853.840	0.0144580
853.918	0.0145558
853.996	0.0144218
854.075	0.0144218
854.153	0.0144010
854.231	0.0143158
854.309	0.0144026
854.387	0.0143281
854.465	0.0144236
854.543	0.0143353
854.621	0.0142990
854.700	0.0144553
854.778	0.0143865
854.856	0.0143333
854.934	0.0144555
855.012	0.0144106
855.090	0.0145472
855.168	0.0145325
855.246	0.0145615
855.325	0.0144704
855.403	0.0145711
855.481	0.0145847
855.559	0.0145258
855.637	0.0144465
855.715	0.0145968
855.793	0.0143632
855.871	0.0144054
855.950	0.0145045
856.028	0.0143899
856.106	0.0143604
856.184	0.0145545
856.262	0.0144791
856.340	0.0143340
856.418	0.0145167
856.496	0.0144828
856.575	0.0144455
856.653	0.0142288
856.731	0.0144498
856.809	0.0144765
856.887	0.0143752
856.965	0.0144067
857.043	0.0145132
857.121	0.0143651
857.200	0.0142288
857.278	0.0143868
857.356	0.0143903
857.434	0.0143577
857.512	0.0144219
857.590	0.0145541
857.668	0.0144821
857.746	0.0144637
857.825	0.0144316
857.903	0.0144745
857.981	0.0145038
858.059	0.0145441
858.137	0.0145158
858.215	0.0144108
858.293	0.0144504
858.371	0.0145035
858.450	0.0144349
858.528	0.0143059
858.606	0.0143670
858.684	0.0142950
858.762	0.0143200
858.840	0.0144695
858.918	0.0144962
858.996	0.0143638
859.075	0.0142700
859.153	0.0144157
859.231	0.0142516
859.309	0.0143298
859.387	0.0144765
859.465	0.0144174
859.543	0.0143121
859.621	0.0143693
859.700	0.0145679
859.778	0.0143844
859.856	0.0143481
859.934	0.0144147
860.012	0.0144922
860.090	0.0143629
860.168	0.0143246
860.246	0.0143308
860.325	0.0144780
860.403	0.0144533
860.481	0.0143304
860.559	0.0143881
860.637	0.0141932
860.715	0.0143311
860.793	0.0144273
860.871	0.0143204
860.950	0.0143815
861.028	0.0143180
861.106	0.0143140
861.184	0.0143294
861.262	0.0144082
861.340	0.0142354
861.418	0.0143116
861.496	0.0142443
861.575	0.0142830
861.653	0.0143809
861.731	0.0143469
861.809	0.0143173
861.887	0.0143273
861.965	0.0143159
862.043	0.0142165
862.121	0.0143114
862.200	0.0144324
862.278	0.0143599
862.356	0.0143659
862.434	0.0144434
862.512	0.0143327
862.590	0.0143260
862.668	0.0144641
862.746	0.0144231
862.825	0.0144218
862.903	0.0143034
862.981	0.0143225
863.059	0.0142702
863.137	0.0143325
863.215	0.0142728
863.293	0.0143775
863.371	0.0143246
863.450	0.0142453
863.528	0.0143834
863.606	0.0143224
863.684	0.0142752
863.762	0.0143468
863.840	0.0143244
863.918	0.0142955
863.996	0.0143289
864.075	0.0144598
864.153	0.0144019
864.231	0.0144234
864.309	0.0144077
864.387	0.0143652
864.465	0.0143344
864.543	0.0143388
864.621	0.0144576
864.700	0.0144872
864.778	0.0145190
864.856	0.0144252
864.934	0.0143921
865.012	0.0144096
865.090	0.0145080
865.168	0.0143095
865.246	0.0143318
865.325	0.0143576
865.403	0.0143203
865.481	0.0143806
865.559	0.0146141
865.637	0.0144384
865.715	0.0144034
865.793	0.0144063
865.871	0.0143600
865.950	0.0144632
866.028	0.0144464
866.106	0.0143579
866.184	0.0143934
866.262	0.0144744
866.340	0.0143265
866.418	0.0143452
866.496	0.0145064
866.575	0.0145189
866.653	0.0145419
866.731	0.0143454
866.809	0.0143307
866.887	0.0144122
866.965	0.0143684
867.043	0.0143977
867.121	0.0144699
867.200	0.0143452
867.278	0.0143742
867.356	0.0144502
867.434	0.0143153
867.512	0.0142977
867.590	0.0144901
867.668	0.0145325
867.746	0.0143246
867.825	0.0143933
867.903	0.0144896
867.981	0.0142918
868.059	0.0143842
868.137	0.0144807
868.215	0.0143945
868.293	0.0144389
868.371	0.0143465
868.450	0.0143745
868.528	0.0144644
868.606	0.0144044
868.684	0.0143846
868.762	0.0142406
868.840	0.0142859
868.918	0.0143362
868.996	0.0143524
869.075	0.0143517
869.153	0.0143717
869.231	0.0144437
869.309	0.0145083
869.387	0.0144393
869.465	0.0144532
869.543	0.0145409
869.621	0.0144064
869.700	0.0143974
869.778	0.0144739
869.856	0.0144834
869.934	0.0145078
870.012	0.0144165
870.090	0.0144872
870.168	0.0143191
870.246	0.0144349
870.325	0.0145116
870.403	0.0145625
870.481	0.0144579
870.559	0.0143242
870.637	0.0144311
870.715	0.0144938
870.793	0.0143810
870.871	0.0144878
870.950	0.0144979
871.028	0.0144807
871.106	0.0143578
871.184	0.0144097
871.262	0.0144136
871.340	0.0144997
871.418	0.0144154
871.496	0.0144173
871.575	0.0144262
871.653	0.0144222
871.731	0.0145432
871.809	0.0145149
871.887	0.0143676
871.965	0.0145553
872.043	0.0145711
872.121	0.0144239
872.200	0.0145890
872.278	0.0144349
872.356	0.0144821
872.434	0.0144473
872.512	0.0145329
872.590	0.0145289
872.668	0.0143532
872.746	0.0142361
872.825	0.0143700
872.903	0.0144386
872.981	0.0143874
873.059	0.0143736
873.137	0.0144292
873.215	0.0145340
873.293	0.0144090
873.371	0.0143951
873.450	0.0145639
873.528	0.0144269
873.606	0.0146165
873.684	0.0144059
873.762	0.0143523
873.840	0.0145554
873.918	0.0143466
873.996	0.0144313
874.075	0.0143665
874.153	0.0145226
874.231	0.0145179
874.309	0.0143390
874.387	0.0144252
874.465	0.0144415
874.543	0.0143848
874.621	0.0143845
874.700	0.0145419
874.778	0.0144539
874.856	0.0144887
874.934	0.0143674
875.012	0.0143874
875.090	0.0145992
875.168	0.0144573
875.246	0.0143352
875.325	0.0145134
875.403	0.0143423
875.481	0.0142138
875.559	0.0145299
875.637	0.0144733
875.715	0.0143723
875.793	0.0144762
875.871	0.0145244
875.950	0.0144122
876.028	0.0143203
876.106	0.0143143
876.184	0.0144307
876.262	0.0143692
876.340	0.0144412
876.418	0.0145090
876.496	0.0145264
876.575	0.0143966
876.653	0.0143250
876.731	0.0144578
876.809	0.0143661
876.887	0.0143183
876.965	0.0144622
877.043	0.0144002
877.121	0.0141605
877.200	0.0143249
877.278	0.0142240
877.356	0.0143867
877.434	0.0144382
877.512	0.0142695
877.590	0.0144177
877.668	0.0144862
877.746	0.0143430
877.825	0.0143649
877.903	0.0143812
877.981	0.0143642
878.059	0.0143163
878.137	0.0143124
878.215	0.0144047
878.293	0.0145523
878.371	0.0143747
878.450	0.0142733
878.528	0.0144104
878.606	0.0143197
878.684	0.0144544
878.762	0.0143600
878.840	0.0142817
878.918	0.0144283
878.996	0.0143382
879.075	0.0143692
879.153	0.0145271
879.231	0.0143778
879.309	0.0143884
879.387	0.0144595
879.465	0.0143381
879.543	0.0142828
879.621	0.0144019
879.700	0.0142190
879.778	0.0144489
879.856	0.0145126
879.934	0.0143415
880.012	0.0144595
880.090	0.0143053
880.168	0.0144539
880.246	0.0144318
880.325	0.0144805
880.403	0.0145026
880.481	0.0144476
880.559	0.0143651
880.637	0.0144952
880.715	0.0143312
880.793	0.0143225
880.871	0.0143976
880.950	0.0143724
881.028	0.0143556
881.106	0.0144522
881.184	0.0144312
881.262	0.0143761
881.340	0.0143515
881.418	0.0144431
881.496	0.0145625
881.575	0.0143413
881.653	0.0143586
881.731	0.0144106
881.809	0.0144506
881.887	0.0145122
881.965	0.0143209
882.043	0.0145068
882.121	0.0144252
882.200	0.0142252
882.278	0.0144338
882.356	0.0145454
882.434	0.0143661
882.512	0.0143673
882.590	0.0143057
882.668	0.0145472
882.746	0.0143995
882.825	0.0142577
882.903	0.0144090
882.981	0.0143484
883.059	0.0144824
883.137	0.0144522
883.215	0.0143600
883.293	0.0143444
883.371	0.0144800
883.450	0.0145673
883.528	0.0143699
883.606	0.0144351
883.684	0.0145376
883.762	0.0144403
883.840	0.0145791
883.918	0.0145388
883.996	0.0144736
884.075	0.0144485
884.153	0.0144767
884.231	0.0145575
884.309	0.0143958
884.387	0.0145023
884.465	0.0143257
884.543	0.0143710
884.621	0.0143854
884.700	0.0143015
884.778	0.0143479
884.856	0.0144595
884.934	0.0144998
885.012	0.0143650
885.090	0.0142597
885.168	0.0144799
885.246	0.0144176
885.325	0.0142552
885.403	0.0143352
885.481	0.0144112
885.559	0.0144080
885.637	0.0144360
885.715	0.0144217
885.793	0.0144010
885.871	0.0143942
885.950	0.0145270
886.028	0.0144734
886.106	0.0145303
886.184	0.0143858
886.262	0.0143024
886.340	0.0143521
886.418	0.0145004
886.496	0.0144061
886.575	0.0144371
886.653	0.0143236
886.731	0.0142855
886.809	0.0142816
886.887	0.0143449
886.965	0.0144810
887.043	0.0143816
887.121	0.0144412
887.200	0.0142609
887.278	0.0144141
887.356	0.0144482
887.434	0.0143920
887.512	0.0143816
887.590	0.0145920
887.668	0.0145170
887.746	0.0143666
887.825	0.0144540
887.903	0.0145064
887.981	0.0145061
888.059	0.0144320
888.137	0.0143473
888.215	0.0144087
888.293	0.0144395
888.371	0.0143918
888.450	0.0142889
888.528	0.0143211
888.606	0.0144605
888.684	0.0144496
888.762	0.0143745
888.840	0.0142887
888.918	0.0142877
888.996	0.0144035
889.075	0.0143797
889.153	0.0144713
889.231	0.0143163
889.309	0.0143186
889.387	0.0144151
889.465	0.0143344
889.543	0.0143966
889.621	0.0143253
889.700	0.0142533
889.778	0.0143275
889.856	0.0143562
889.934	0.0143345
890.012	0.0142709
890.090	0.0143394
890.168	0.0144158
890.246	0.0143874
890.325	0.0145395
890.403	0.0144779
890.481	0.0142944
890.559	0.0143163
890.637	0.0144802
890.715	0.0144237
890.793	0.0144221
890.871	0.0144893
890.950	0.0143475
891.028	0.0142683
891.106	0.0141688
891.184	0.0142856
891.262	0.0144172
891.340	0.0143993
891.418	0.0144106
891.496	0.0144399
891.575	0.0144174
891.653	0.0144315
891.731	0.0143192
891.809	0.0144870
891.887	0.0146320
891.965	0.0144459
892.043	0.0143775
892.121	0.0144614
892.200	0.0143371
892.278	0.0143763
892.356	0.0144761
892.434	0.0144300
892.512	0.0144291
892.590	0.0143694
892.668	0.0142957
892.746	0.0143459
892.825	0.0142627
892.903	0.0143552
892.981	0.0144779
893.059	0.0143786
893.137	0.0143204
893.215	0.0144571
893.293	0.0145699
893.371	0.0145301
893.450	0.0144128
893.528	0.0143679
893.606	0.0145374
893.684	0.0143704
893.762	0.0144998
893.840	0.0144957
893.918	0.0143322
893.996	0.0144199
894.075	0.0144456
894.153	0.0144582
894.231	0.0144575
894.309	0.0145361
894.387	0.0143085
894.465	0.0145470
894.543	0.0144032
894.621	0.0144046
894.700	0.0143833
894.778	0.0144817
894.856	0.0144267
894.934	0.0144128
895.012	0.0145108
895.090	0.0143520
895.168	0.0144066
895.246	0.0144107
895.325	0.0143899
895.403	0.0144943
895.481	0.0143484
895.559	0.0142561
895.637	0.0144071
895.715	0.0143817
895.793	0.0144012
895.871	0.0144025
895.950	0.0142800
896.028	0.0146136
896.106	0.0144139
896.184	0.0143990
896.262	0.0143757
896.340	0.0143987
896.418	0.0144666
896.496	0.0143713
896.575	0.0142595
896.653	0.0142130
896.731	0.0143224
896.809	0.0144578
896.887	0.0143699
896.965	0.0143114
897.043	0.0142802
897.121	0.0143050
897.200	0.0144537
897.278	0.0142930
897.356	0.0142216
897.434	0.0144106
897.512	0.0144018
897.590	0.0143687
897.668	0.0143188
897.746	0.0143108
897.825	0.0144776
897.903	0.0144079
897.981	0.0145007
898.059	0.0143076
898.137	0.0142819
898.215	0.0144543
898.293	0.0143787
898.371	0.0142955
898.450	0.0144321
898.528	0.0143776
898.606	0.0142283
898.684	0.0143227
898.762	0.0143774
898.840	0.0144149
898.918	0.0143929
898.996	0.0144244
899.075	0.0142435
899.153	0.0142863
899.231	0.0142175
899.309	0.0142205
899.387	0.0144388
899.465	0.0143729
899.543	0.0142736
899.621	0.0144508
899.700	0.0143629
899.778	0.0142864
899.856	0.0142448
899.934	0.0143996
900.012	0.0142595
900.090	0.0143193
900.168	0.0144261
900.246	0.0143603
900.325	0.0143877
900.403	0.0145305
900.481	0.0144456
900.559	0.0144998
900.637	0.0143770
900.715	0.0143247
900.793	0.0143951
900.871	0.0143259
900.950	0.0142735
901.028	0.0142848
901.106	0.0142776
901.184	0.0142870
901.262	0.0142808
901.340	0.0142358
901.418	0.0144485
901.496	0.0143060
901.575	0.0142971
901.653	0.0142660
901.731	0.0141501
901.809	0.0142512
901.887	0.0144217
901.965	0.0143950
902.043	0.0144048
902.121	0.0143449
902.200	0.0142920
902.278	0.0144261
902.356	0.0143714
902.434	0.0144763
902.512	0.0144601
902.590	0.0144113
902.668	0.0144351
902.746	0.0143094
902.825	0.0143550
902.903	0.0144344
902.981	0.0143735
903.059	0.0143607
903.137	0.0143198
903.215	0.0144181
903.293	0.0143700
903.371	0.0144117
903.450	0.0143022
903.528	0.0143577
903.606	0.0142840
903.684	0.0145171
903.762	0.0145177
903.840	0.0142882
903.918	0.0143665
903.996	0.0143715
904.075	0.0143614
904.153	0.0144482
904.231	0.0143557
904.309	0.0143947
904.387	0.0144576
904.465	0.0144722
904.543	0.0143765
904.621	0.0143660
904.700	0.0143719
904.778	0.0144698
904.856	0.0144439
904.934	0.0145043
905.012	0.0143861
905.090	0.0144554
905.168	0.0144411
905.246	0.0144160
905.325	0.0142870
905.403	0.0143518
905.481	0.0143212
905.559	0.0143627
905.637	0.0143907
905.715	0.0144328
905.793	0.0143868
905.871	0.0143909
905.950	0.0143891
906.028	0.0143832
906.106	0.0145068
906.184	0.0143989
906.262	0.0143510
906.340	0.0145720
906.418	0.0144301
906.496	0.0144574
906.575	0.0144399
906.653	0.0144503
906.731	0.0143298
906.809	0.0143813
906.887	0.0143867
906.965	0.0143442
907.043	0.0144591
907.121	0.0143247
907.200	0.0142435
907.278	0.0143792
907.356	0.0143414
907.434	0.0142924
907.512	0.0144010
907.590	0.0143026
907.668	0.0144231
907.746	0.0142840
907.825	0.0143235
907.903	0.0144942
907.981	0.0143164
908.059	0.0142713
908.137	0.0144273
908.215	0.0142168
908.293	0.0141987
908.371	0.0144573
908.450	0.0144342
908.528	0.0143909
908.606	0.0143660
908.684	0.0145287
908.762	0.0144837
908.840	0.0144838
908.918	0.0144334
908.996	0.0144004
909.075	0.0144144
909.153	0.0143787
909.231	0.0144106
909.309	0.0143168
909.387	0.0142239
909.465	0.0143278
909.543	0.0143571
909.621	0.0142245
909.700	0.0141405
909.778	0.0141948
909.856	0.0142262
909.934	0.0142364
910.012	0.0142673
910.090	0.0141403
910.168	0.0142184
910.246	0.0143208
910.325	0.0142078
910.403	0.0144322
910.481	0.0143289
910.559	0.0143414
910.637	0.0144077
910.715	0.0143200
910.793	0.0143222
910.871	0.0144426
910.950	0.0144814
911.028	0.0142815
911.106	0.0142799
911.184	0.0143462
911.262	0.0143182
911.340	0.0143215
911.418	0.0143056
911.496	0.0142648
911.575	0.0143350
911.653	0.0142212
911.731	0.0142860
911.809	0.0142990
911.887	0.0142944
911.965	0.0144408
912.043	0.0144008
912.121	0.0144069
912.200	0.0145251
912.278	0.0144856
912.356	0.0144698
912.434	0.0142891
912.512	0.0143855
912.590	0.0143079
912.668	0.0142805
912.746	0.0144006
912.825	0.0142031
912.903	0.0143243
912.981	0.0142195
913.059	0.0142637
913.137	0.0142382
913.215	0.0144740
913.293	0.0143517
913.371	0.0143575
913.450	0.0143417
913.528	0.0143976
913.606	0.0143508
913.684	0.0144675
913.762	0.0143336
913.840	0.0144682
913.918	0.0144429
913.996	0.0145393
914.075	0.0145332
914.153	0.0146123
914.231	0.0145728
914.309	0.0145222
914.387	0.0144388
914.465	0.0143479
914.543	0.0143925
914.621	0.0144607
914.700	0.0145258
914.778	0.0143515
914.856	0.0143447
914.934	0.0143377
915.012	0.0145168
915.090	0.0143238
915.168	0.0142630
915.246	0.0144108
915.325	0.0144408
915.403	0.0144921
915.481	0.0144719
915.559	0.0144319
915.637	0.0145188
915.715	0.0144627
915.793	0.0145452
915.871	0.0145667
915.950	0.0147329
916.028	0.0146865
916.106	0.0143623
916.184	0.0143195
916.262	0.0144746
916.340	0.0143607
916.418	0.0143280
916.496	0.0143871
916.575	0.0143301
916.653	0.0142119
916.731	0.0143336
916.809	0.0143157
916.887	0.0144550
916.965	0.0143665
917.043	0.0143326
917.121	0.0143530
917.200	0.0145351
917.278	0.0146121
917.356	0.0145222
917.434	0.0144798
917.512	0.0144477
917.590	0.0145456
917.668	0.0145090
917.746	0.0145611
917.825	0.0145952
917.903	0.0144816
917.981	0.0144756
918.059	0.0144825
918.137	0.0143624
918.215	0.0143863
918.293	0.0145036
918.371	0.0143348
918.450	0.0142973
918.528	0.0143130
918.606	0.0142602
918.684	0.0142466
918.762	0.0143148
918.840	0.0144431
918.918	0.0144054
918.996	0.0144911
919.075	0.0144156
919.153	0.0143220
919.231	0.0144312
919.309	0.0145668
919.387	0.0144419
919.465	0.0144563
919.543	0.0145664
919.621	0.0144078
919.700	0.0143109
919.778	0.0144148
919.856	0.0145471
919.934	0.0142970
920.012	0.0144344
920.090	0.0143966
920.168	0.0144391
920.246	0.0144666
920.325	0.0143989
920.403	0.0143456
920.481	0.0142902
920.559	0.0143703
920.637	0.0143068
920.715	0.0142084
920.793	0.0141124
920.871	0.0142358
920.950	0.0142399
921.028	0.0142798
921.106	0.0143465
921.184	0.0142752
921.262	0.0143130
921.340	0.0143082
921.418	0.0143651
921.496	0.0142539
921.575	0.0143312
921.653	0.0143905
921.731	0.0143145
921.809	0.0143999
921.887	0.0143749
921.965	0.0144389
922.043	0.0143944
922.121	0.0142830
922.200	0.0144521
922.278	0.0143165
922.356	0.0143404
922.434	0.0142863
922.512	0.0143887
922.590	0.0142645
922.668	0.0143037
922.746	0.0142928
922.825	0.0142368
922.903	0.0143071
922.981	0.0144311
923.059	0.0142323
923.137	0.0143533
923.215	0.0143484
923.293	0.0144102
923.371	0.0143192
923.450	0.0143514
923.528	0.0143453
923.606	0.0144319
923.684	0.0143641
923.762	0.0143810
923.840	0.0143640
923.918	0.0142828
923.996	0.0143787
924.075	0.0144426
924.153	0.0142681
924.231	0.0143304
924.309	0.0142743
924.387	0.0142322
924.465	0.0143170
924.543	0.0141980
924.621	0.0142828
924.700	0.0142030
924.778	0.0142609
924.856	0.0142778
924.934	0.0144249
925.012	0.0143140
925.090	0.0143436
925.168	0.0144279
925.246	0.0145734
925.325	0.0144386
925.403	0.0145539
925.481	0.0145371
925.559	0.0145428
925.637	0.0145770
925.715	0.0145201
925.793	0.0145222
925.871	0.0144672
925.950	0.0143887
926.028	0.0142980
926.106	0.0144022
926.184	0.0143829
926.262	0.0143925
926.340	0.0141652
926.418	0.0140702
926.496	0.0144236
926.575	0.0142416
926.653	0.0141753
926.731	0.0142881
926.809	0.0142600
926.887	0.0142009
926.965	0.0143099
927.043	0.0142262
927.121	0.0142690
927.200	0.0143816
927.278	0.0143291
927.356	0.0143362
927.434	0.0144196
927.512	0.0144292
927.590	0.0145606
927.668	0.0143267
927.746	0.0143350
927.825	0.0144195
927.903	0.0144434
927.981	0.0144677
928.059	0.0143917
928.137	0.0145307
928.215	0.0142905
928.293	0.0144665
928.371	0.0144030
928.450	0.0145311
928.528	0.0144251
928.606	0.0142252
928.684	0.0142273
928.762	0.0143363
928.840	0.0141757
928.918	0.0142763
928.996	0.0143661
929.075	0.0141543
929.153	0.0142909
929.231	0.0142793
929.309	0.0143179
929.387	0.0142970
929.465	0.0143291
929.543	0.0145072
929.621	0.0143816
929.700	0.0143326
929.778	0.0144870
929.856	0.0144579
929.934	0.0144531
930.012	0.0143707
930.090	0.0144339
930.168	0.0143716
930.246	0.0144313
930.325	0.0144038
930.403	0.0144273
930.481	0.0144200
930.559	0.0144413
930.637	0.0145120
930.715	0.0144428
930.793	0.0144285
930.871	0.0142841
930.950	0.0143213
931.028	0.0144139
931.106	0.0144257
931.184	0.0142460
931.262	0.0143237
931.340	0.0143766
931.418	0.0141690
931.496	0.0143206
931.575	0.0141759
931.653	0.0142331
931.731	0.0143439
931.809	0.0144001
931.887	0.0144277
931.965	0.0142052
932.043	0.0142748
932.121	0.0142624
932.200	0.0142806
932.278	0.0142802
932.356	0.0144977
932.434	0.0144264
932.512	0.0144220
932.590	0.0144421
932.668	0.0145004
932.746	0.0143860
932.825	0.0145324
932.903	0.0143774
932.981	0.0143328
933.059	0.0144843
933.137	0.0142693
933.215	0.0143395
933.293	0.0143560
933.371	0.0141821
933.450	0.0143105
933.528	0.0143304
933.606	0.0142707
933.684	0.0143098
933.762	0.0142582
933.840	0.0143200
933.918	0.0144094
933.996	0.0143565
934.075	0.0142809
934.153	0.0142824
934.231	0.0143199
934.309	0.0143436
934.387	0.0143987
934.465	0.0144463
934.543	0.0143470
934.621	0.0143263
934.700	0.0144823
934.778	0.0144065
934.856	0.0143938
934.934	0.0144441
935.012	0.0144897
935.090	0.0143992
935.168	0.0144569
935.246	0.0144866
935.325	0.0144650
935.403	0.0145646
935.481	0.0145037
935.559	0.0145357
935.637	0.0144692
935.715	0.0144351
935.793	0.0144765
935.871	0.0144651
935.950	0.0143508
936.028	0.0145235
936.106	0.0145732
936.184	0.0144130
936.262	0.0145813
936.340	0.0144532
936.418	0.0144787
936.496	0.0144624
936.575	0.0144566
936.653	0.0145070
936.731	0.0144899
936.809	0.0144982
936.887	0.0145513
936.965	0.0143619
937.043	0.0144915
937.121	0.0144707
937.200	0.0143587
937.278	0.0144581
937.356	0.0144624
937.434	0.0142799
937.512	0.0144537
937.590	0.0145020
937.668	0.0144920
937.746	0.0144157
937.825	0.0145026
937.903	0.0143758
937.981	0.0145094
938.059	0.0144864
938.137	0.0144515
938.215	0.0144698
938.293	0.0145345
938.371	0.0144460
938.450	0.0146362
938.528	0.0144508
938.606	0.0143251
938.684	0.0144518
938.762	0.0144965
938.840	0.0144688
938.918	0.0145543
938.996	0.0142657
939.075	0.0144459
939.153	0.0145257
939.231	0.0143865
939.309	0.0144944
939.387	0.0145406
939.465	0.0144707
939.543	0.0144164
939.621	0.0144249
939.700	0.0144238
939.778	0.0144464
939.856	0.0145213
939.934	0.0143489
940.012	0.0142276
940.090	0.0143886
940.168	0.0144747
940.246	0.0144443
940.325	0.0144616
940.403	0.0144241
940.481	0.0144804
940.559	0.0144374
940.637	0.0144111
940.715	0.0143565
940.793	0.0144816
940.871	0.0144174
940.950	0.0144508
941.028	0.0144162
941.106	0.0142475
941.184	0.0144476
941.262	0.0144322
941.340	0.0142687
941.418	0.0144319
941.496	0.0144557
941.575	0.0144679
941.653	0.0144041
941.731	0.0143828
941.809	0.0144811
941.887	0.0144527
941.965	0.0144849
942.043	0.0145033
942.121	0.0145200
942.200	0.0143318
942.278	0.0145603
942.356	0.0143851
942.434	0.0144111
942.512	0.0142714
942.590	0.0143395
942.668	0.0143945
942.746	0.0144598
942.825	0.0143832
942.903	0.0142961
942.981	0.0143256
943.059	0.0144276
943.137	0.0143037
943.215	0.0144237
943.293	0.0143269
943.371	0.0143345
943.450	0.0143649
943.528	0.0143363
943.606	0.0144441
943.684	0.0144176
943.762	0.0143807
943.840	0.0145046
943.918	0.0144544
943.996	0.0144495
944.075	0.0143069
944.153	0.0143642
944.231	0.0143958
944.309	0.0143247
944.387	0.0143426
944.465	0.0144137
944.543	0.0144480
944.621	0.0143059
944.700	0.0142111
944.778	0.0143871
944.856	0.0143634
944.934	0.0141917
945.012	0.0143456
945.090	0.0144115
945.168	0.0142843
945.246	0.0143636
945.325	0.0143294
945.403	0.0143780
945.481	0.0144305
945.559	0.0143188
945.637	0.0144257
945.715	0.0144960
945.793	0.0143219
945.871	0.0145081
945.950	0.0141824
946.028	0.0143394
946.106	0.0144658
946.184	0.0144126
946.262	0.0142731
946.340	0.0144749
946.418	0.0143930
946.496	0.0143637
946.575	0.0143266
946.653	0.0144315
946.731	0.0143623
946.809	0.0142889
946.887	0.0143541
946.965	0.0142905
947.043	0.0143977
947.121	0.0143933
947.200	0.0145767
947.278	0.0143014
947.356	0.0143746
947.434	0.0143828
947.512	0.0144514
947.590	0.0144778
947.668	0.0144382
947.746	0.0144062
947.825	0.0144807
947.903	0.0144543
947.981	0.0144381
948.059	0.0143749
948.137	0.0144463
948.215	0.0144083
948.293	0.0143787
948.371	0.0144803
948.450	0.0144888
948.528	0.0143610
948.606	0.0142694
948.684	0.0143733
948.762	0.0143864
948.840	0.0144016
948.918	0.0144620
948.996	0.0144909
949.075	0.0143562
949.153	0.0144794
949.231	0.0145781
949.309	0.0143748
949.387	0.0143739
949.465	0.0145806
949.543	0.0145821
949.621	0.0145090
949.700	0.0145958
949.778	0.0144760
949.856	0.0143562
949.934	0.0143642
950.012	0.0144678
950.090	0.0143930
950.168	0.0143973
950.246	0.0144216
950.325	0.0145069
950.403	0.0143992
950.481	0.0143633
950.559	0.0142686
950.637	0.0144257
950.715	0.0145018
950.793	0.0143781
950.871	0.0144474
950.950	0.0145022
951.028	0.0145876
951.106	0.0144092
951.184	0.0144836
951.262	0.0145641
951.340	0.0144373
951.418	0.0145712
951.496	0.0146329
951.575	0.0146207
951.653	0.0144247
951.731	0.0144153
951.809	0.0145569
951.887	0.0144420
951.965	0.0145727
952.043	0.0144403
952.121	0.0143196
952.200	0.0143342
952.278	0.0143736
952.356	0.0144807
952.434	0.0145129
952.512	0.0144940
952.590	0.0143951
952.668	0.0143642
952.746	0.0144126
952.825	0.0144211
952.903	0.0142441
952.981	0.0144215
953.059	0.0144155
953.137	0.0145049
953.215	0.0144022
953.293	0.0143884
953.371	0.0144057
953.450	0.0142784
953.528	0.0143922
953.606	0.0145273
953.684	0.0145340
953.762	0.0144778
953.840	0.0143962
953.918	0.0144326
953.996	0.0143255
954.075	0.0144286
954.153	0.0143653
954.231	0.0142439
954.309	0.0142464
954.387	0.0144167
954.465	0.0144083
954.543	0.0143721
954.621	0.0143787
954.700	0.0141906
954.778	0.0143057
954.856	0.0141189
954.934	0.0142936
955.012	0.0144006
955.090	0.0143439
955.168	0.0143042
955.246	0.0142148
955.325	0.0143636
955.403	0.0143387
955.481	0.0145629
955.559	0.0144273
955.637	0.0144188
955.715	0.0143645
955.793	0.0144756
955.871	0.0145226
955.950	0.0145422
956.028	0.0144715
956.106	0.0144223
956.184	0.0144070
956.262	0.0143099
956.340	0.0142839
956.418	0.0144909
956.496	0.0144338
956.575	0.0143448
956.653	0.0143891
956.731	0.0143629
956.809	0.0143222
956.887	0.0143317
956.965	0.0143784
957.043	0.0143493
957.121	0.0144446
957.200	0.0144514
957.278	0.0143414
957.356	0.0143647
957.434	0.0145806
957.512	0.0144579
957.590	0.0144492
957.668	0.0143754
957.746	0.0144273
957.825	0.0144566
957.903	0.0144939
957.981	0.0144408
958.059	0.0143639
958.137	0.0143775
958.215	0.0143319
958.293	0.0144551
958.371	0.0143950
958.450	0.0144012
958.528	0.0144318
958.606	0.0144865
958.684	0.0143290
958.762	0.0142360
958.840	0.0143590
958.918	0.0144663
958.996	0.0144271
959.075	0.0142899
959.153	0.0143597
959.231	0.0145234
959.309	0.0142310
959.387	0.0144070
959.465	0.0144611
959.543	0.0143587
959.621	0.0144038
959.700	0.0143671
959.778	0.0145689
959.856	0.0144106
959.934	0.0143245
960.012	0.0143892
960.090	0.0145025
960.168	0.0144741
960.246	0.0144904
960.325	0.0144421
960.403	0.0143787
960.481	0.0142220
960.559	0.0143737
960.637	0.0144038
960.715	0.0144252
960.793	0.0143415
960.871	0.0143555
960.950	0.0143904
961.028	0.0144490
961.106	0.0144206
961.184	0.0144117
961.262	0.0144129
961.340	0.0144815
961.418	0.0145906
961.496	0.0144167
961.575	0.0144998
961.653	0.0145692
961.731	0.0146024
961.809	0.0145699
961.887	0.0145494
961.965	0.0145274
962.043	0.0145439
962.121	0.0145030
962.200	0.0144660
962.278	0.0143683
962.356	0.0143248
962.434	0.0144585
962.512	0.0143917
962.590	0.0143480
962.668	0.0143901
962.746	0.0144451
962.825	0.0143818
962.903	0.0142330
962.981	0.0142217
963.059	0.0142088
963.137	0.0143260
963.215	0.0142484
963.293	0.0144428
963.371	0.0144379
963.450	0.0143288
963.528	0.0144373
963.606	0.0143530
963.684	0.0144126
963.762	0.0143382
963.840	0.0143556
963.918	0.0143700
963.996	0.0144042
964.075	0.0144482
964.153	0.0143907
964.231	0.0142771
964.309	0.0143420
964.387	0.0143111
964.465	0.0143513
964.543	0.0143155
964.621	0.0143144
964.700	0.0143024
964.778	0.0141551
964.856	0.0142505
964.934	0.0142719
965.012	0.0142636
965.090	0.0141885
965.168	0.0141960
965.246	0.0144155
965.325	0.0142889
965.403	0.0141846
965.481	0.0143652
965.559	0.0143669
965.637	0.0142171
965.715	0.0143258
965.793	0.0143991
965.871	0.0144616
965.950	0.0143776
966.028	0.0144710
966.106	0.0143958
966.184	0.0144176
966.262	0.0144210
966.340	0.0143610
966.418	0.0142709
966.496	0.0145078
966.575	0.0143847
966.653	0.0142488
966.731	0.0144448
966.809	0.0143300
966.887	0.0144942
966.965	0.0143283
967.043	0.0143031
967.121	0.0144443
967.200	0.0143085
967.278	0.0142747
967.356	0.0143111
967.434	0.0143075
967.512	0.0144093
967.590	0.0143968
967.668	0.0145421
967.746	0.0143784
967.825	0.0144518
967.903	0.0144750
967.981	0.0144582
968.059	0.0144741
968.137	0.0145414
968.215	0.0143630
968.293	0.0145616
968.371	0.0143497
968.450	0.0145067
968.528	0.0143368
968.606	0.0143847
968.684	0.0144136
968.762	0.0143809
968.840	0.0142355
968.918	0.0142142
968.996	0.0143475
969.075	0.0142061
969.153	0.0142370
969.231	0.0142188
969.309	0.0142905
969.387	0.0143195
969.465	0.0143239
969.543	0.0143420
969.621	0.0142428
969.700	0.0144215
969.778	0.0144050
969.856	0.0142450
969.934	0.0144689
970.012	0.0143435
970.090	0.0143627
970.168	0.0143350
970.246	0.0143536
970.325	0.0145039
970.403	0.0143449
970.481	0.0142052
970.559	0.0145037
970.637	0.0143799
970.715	0.0143680
970.793	0.0144743
970.871	0.0144859
970.950	0.0144097
971.028	0.0142990
971.106	0.0144909
971.184	0.0144144
971.262	0.0143437
971.340	0.0142561
971.418	0.0142938
971.496	0.0143240
971.575	0.0143806
971.653	0.0144025
971.731	0.0144373
971.809	0.0144695
971.887	0.0144277
971.965	0.0144057
972.043	0.0144671
972.121	0.0144910
972.200	0.0145744
972.278	0.0143266
972.356	0.0144360
972.434	0.0144027
972.512	0.0144789
972.590	0.0145337
972.668	0.0143182
972.746	0.0143350
972.825	0.0143641
972.903	0.0143462
972.981	0.0143730
973.059	0.0142996
973.137	0.0143870
973.215	0.0143372
973.293	0.0142770
973.371	0.0145138
973.450	0.0145153
973.528	0.0144230
973.606	0.0142881
973.684	0.0142844
973.762	0.0144286
973.840	0.0144392
973.918	0.0144326
973.996	0.0143683
974.075	0.0144696
974.153	0.0145349
974.231	0.0145151
974.309	0.0145502
974.387	0.0145728
974.465	0.0146240
974.543	0.0144505
974.621	0.0145311
974.700	0.0144774
974.778	0.0144231
974.856	0.0144203
974.934	0.0144559
975.012	0.0144450
975.090	0.0144614
975.168	0.0143752
975.246	0.0143756
975.325	0.0144304
975.403	0.0143379
975.481	0.0143813
975.559	0.0142496
975.637	0.0143453
975.715	0.0143854
975.793	0.0143375
975.871	0.0142948
975.950	0.0142661
976.028	0.0144140
976.106	0.0143629
976.184	0.0144040
976.262	0.0144913
976.340	0.0144253
976.418	0.0143015
976.496	0.0144554
976.575	0.0144195
976.653	0.0145041
976.731	0.0144885
976.809	0.0143544
976.887	0.0144055
976.965	0.0144792
977.043	0.0144845
977.121	0.0144197
977.200	0.0143394
977.278	0.0143668
977.356	0.0144057
977.434	0.0143915
977.512	0.0142986
977.590	0.0144839
977.668	0.0143861
977.746	0.0144318
977.825	0.0143637
977.903	0.0142892
977.981	0.0143353
978.059	0.0143369
978.137	0.0143841
978.215	0.0145731
978.293	0.0143927
978.371	0.0142750
978.450	0.0145708
978.528	0.0145831
978.606	0.0143858
978.684	0.0143826
978.762	0.0144143
978.840	0.0144076
978.918	0.0143325
978.996	0.0143611
979.075	0.0143414
979.153	0.0144074
979.231	0.0143137
979.309	0.0144602
979.387	0.0143804
979.465	0.0142938
979.543	0.0143467
979.621	0.0142586
979.700	0.0144109
979.778	0.0144077
979.856	0.0145309
979.934	0.0143831
980.012	0.0143627
980.090	0.0145329
980.168	0.0144913
980.246	0.0143621
980.325	0.0145007
980.403	0.0146321
980.481	0.0145501
980.559	0.0145848
980.637	0.0144638
980.715	0.0145621
980.793	0.0144725
980.871	0.0143600
980.950	0.0144277
981.028	0.0144154
981.106	0.0144278
981.184	0.0144370
981.262	0.0141763
981.340	0.0142251
981.418	0.0143724
981.496	0.0142359
981.575	0.0143834
981.653	0.0143610
981.731	0.0143058
981.809	0.0143170
981.887	0.0142402
981.965	0.0143687
982.043	0.0143515
982.121	0.0143003
982.200	0.0143136
982.278	0.0144170
982.356	0.0143253
982.434	0.0143295
982.512	0.0144766
982.590	0.0145061
982.668	0.0145006
982.746	0.0144517
982.825	0.0144819
982.903	0.0144522
982.981	0.0144540
983.059	0.0144253
983.137	0.0144867
983.215	0.0144780
983.293	0.0144065
983.371	0.0144440
983.450	0.0144240
983.528	0.0143711
983.606	0.0143249
983.684	0.0144140
983.762	0.0144948
983.840	0.0142734
983.918	0.0143322
983.996	0.0142953
984.075	0.0143606
984.153	0.0143925
984.231	0.0144756
984.309	0.0143530
984.387	0.0145310
984.465	0.0143474
984.543	0.0143555
984.621	0.0143395
984.700	0.0143649
984.778	0.0142372
984.856	0.0143758
984.934	0.0144278
985.012	0.0142544
985.090	0.0143965
985.168	0.0145139
985.246	0.0144182
985.325	0.0143718
985.403	0.0144054
985.481	0.0142737
985.559	0.0141908
985.637	0.0144257
985.715	0.0142693
985.793	0.0142972
985.871	0.0143301
985.950	0.0144402
986.028	0.0143406
986.106	0.0142278
986.184	0.0143044
986.262	0.0143144
986.340	0.0144112
986.418	0.0143167
986.496	0.0143929
986.575	0.0143832
986.653	0.0143615
986.731	0.0143933
986.809	0.0146267
986.887	0.0144552
986.965	0.0144195
987.043	0.0144522
987.121	0.0144312
987.200	0.0145154
987.278	0.0143546
987.356	0.0143339
987.434	0.0144485
987.512	0.0144366
987.590	0.0142959
987.668	0.0144850
987.746	0.0144109
987.825	0.0143524
987.903	0.0144461
987.981	0.0144535
988.059	0.0142683
988.137	0.0144485
988.215	0.0144012
988.293	0.0144451
988.371	0.0143681
988.450	0.0144353
988.528	0.0143655
988.606	0.0143569
988.684	0.0144306
988.762	0.0143271
988.840	0.0143678
988.918	0.0143801
988.996	0.0143709
989.075	0.0144054
989.153	0.0142457
989.231	0.0143592
989.309	0.0143867
989.387	0.0143144
989.465	0.0143867
989.543	0.0143608
989.621	0.0144284
989.700	0.0143507
989.778	0.0142464
989.856	0.0143129
989.934	0.0143442
990.012	0.0142917
990.090	0.0142305
990.168	0.0144109
990.246	0.0143951
990.325	0.0143977
990.403	0.0144894
990.481	0.0143336
990.559	0.0144712
990.637	0.0144995
990.715	0.0144016
990.793	0.0142696
990.871	0.0144741
990.950	0.0143742
991.028	0.0143876
991.106	0.0143777
991.184	0.0145078
991.262	0.0143438
991.340	0.0143905
991.418	0.0143623
991.496	0.0143893
991.575	0.0144193
991.653	0.0144154
991.731	0.0143958
991.809	0.0143346
991.887	0.0143311
991.965	0.0144409
992.043	0.0142625
992.121	0.0143070
992.200	0.0143265
992.278	0.0142140
992.356	0.0143108
992.434	0.0144187
992.512	0.0143198
992.590	0.0142737
992.668	0.0143845
992.746	0.0142117
992.825	0.0142968
992.903	0.0142556
992.981	0.0143226
993.059	0.0143214
993.137	0.0144129
993.215	0.0143679
993.293	0.0143349
993.371	0.0143819
993.450	0.0145124
993.528	0.0144599
993.606	0.0143531
993.684	0.0142001
993.762	0.0141838
993.840	0.0142914
993.918	0.0142937
993.996	0.0142506
994.075	0.0143021
994.153	0.0142339
994.231	0.0142163
994.309	0.0142830
994.387	0.0144118
994.465	0.0143454
994.543	0.0142404
994.621	0.0142284
994.700	0.0141990
994.778	0.0143852
994.856	0.0143816
994.934	0.0143129
995.012	0.0143605
995.090	0.0144216
995.168	0.0144720
995.246	0.0144617
995.325	0.0144808
995.403	0.0144025
995.481	0.0144034
995.559	0.0143982
995.637	0.0143199
995.715	0.0142680
995.793	0.0143317
995.871	0.0142113
995.950	0.0142229
996.028	0.0143170
996.106	0.0143058
996.184	0.0143573
996.262	0.0143372
996.340	0.0142712
996.418	0.0142442
996.496	0.0143395
996.575	0.0143174
996.653	0.0143378
996.731	0.0143024
996.809	0.0144539
996.887	0.0143558
996.965	0.0143506
997.043	0.0142778
997.121	0.0143539
997.200	0.0144249
997.278	0.0144099
997.356	0.0145313
997.434	0.0145193
997.512	0.0142234
997.590	0.0144842
997.668	0.0144991
997.746	0.0144168
997.825	0.0144309
997.903	0.0142545
997.981	0.0142293
998.059	0.0144802
998.137	0.0144426
998.215	0.0144188
998.293	0.0143632
998.371	0.0144613
998.450	0.0146220
998.528	0.0145120
998.606	0.0143929
998.684	0.0143372
998.762	0.0144605
998.840	0.0142857
998.918	0.0145216
