05/04/2022	20:53:41	Ver.	4.1	UNKNOWN
Optical Delay	678.996401	Delta X		0.078125	Sweeps	1	Scan Rate	0/0
Coordinates	Axis 1	NaN	Axis 2	NaN	Axis 3	NaN	Axis 4	NaN	Axis 5	NaN	Axis 6	0.000000
TX Power	0.000000	RX Power	0.000000

678.996	0.0141946
679.075	0.0141858
679.153	0.0142826
679.231	0.0141217
679.309	0.0142628
679.387	0.0141898
679.465	0.0142437
679.543	0.0142853
679.621	0.0142534
679.700	0.0143168
679.778	0.0142248
679.856	0.0141813
679.934	0.0142701
680.012	0.0142089
680.090	0.0142192
680.168	0.0142187
680.246	0.0141722
680.325	0.0142951
680.403	0.0143705
680.481	0.0143233
680.559	0.0141866
680.637	0.0141599
680.715	0.0141502
680.793	0.0142532
680.871	0.0143018
680.950	0.0142116
681.028	0.0141624
681.106	0.0141783
681.184	0.0143235
681.262	0.0142092
681.340	0.0141916
681.418	0.0143083
681.496	0.0144475
681.575	0.0143413
681.653	0.0143066
681.731	0.0142580
681.809	0.0143244
681.887	0.0142374
681.965	0.0140504
682.043	0.0142735
682.121	0.0143838
682.200	0.0141927
682.278	0.0143676
682.356	0.0142429
682.434	0.0143633
682.512	0.0141847
682.590	0.0141023
682.668	0.0142582
682.746	0.0141859
682.825	0.0142118
682.903	0.0142020
682.981	0.0143938
683.059	0.0143692
683.137	0.0142643
683.215	0.0141717
683.293	0.0143073
683.371	0.0141879
683.450	0.0140525
683.528	0.0142364
683.606	0.0142593
683.684	0.0142130
683.762	0.0143112
683.840	0.0142883
683.918	0.0142854
683.996	0.0143324
684.075	0.0142947
684.153	0.0142744
684.231	0.0140665
684.309	0.0141916
684.387	0.0141917
684.465	0.0143245
684.543	0.0142937
684.621	0.0142155
684.700	0.0142751
684.778	0.0141685
684.856	0.0142069
684.934	0.0142476
685.012	0.0143530
685.090	0.0143447
685.168	0.0143450
685.246	0.0141562
685.325	0.0142036
685.403	0.0143044
685.481	0.0141550
685.559	0.0142004
685.637	0.0142906
685.715	0.0142313
685.793	0.0143050
685.871	0.0143490
685.950	0.0141720
686.028	0.0142891
686.106	0.0141647
686.184	0.0140884
686.262	0.0141898
686.340	0.0141569
686.418	0.0142596
686.496	0.0141068
686.575	0.0141479
686.653	0.0142453
686.731	0.0141941
686.809	0.0143192
686.887	0.0142110
686.965	0.0141300
687.043	0.0141531
687.121	0.0142210
687.200	0.0142576
687.278	0.0141438
687.356	0.0142229
687.434	0.0140896
687.512	0.0142043
687.590	0.0142211
687.668	0.0142027
687.746	0.0143192
687.825	0.0140051
687.903	0.0141751
687.981	0.0142683
688.059	0.0140961
688.137	0.0142726
688.215	0.0142275
688.293	0.0142085
688.371	0.0142844
688.450	0.0141595
688.528	0.0142342
688.606	0.0140578
688.684	0.0140829
688.762	0.0141335
688.840	0.0142167
688.918	0.0142547
688.996	0.0143539
689.075	0.0142779
689.153	0.0142534
689.231	0.0142204
689.309	0.0142482
689.387	0.0142790
689.465	0.0142278
689.543	0.0142133
689.621	0.0142601
689.700	0.0142738
689.778	0.0143067
689.856	0.0141508
689.934	0.0141467
690.012	0.0142175
690.090	0.0142793
690.168	0.0142396
690.246	0.0142316
690.325	0.0141377
690.403	0.0142094
690.481	0.0141302
690.559	0.0143620
690.637	0.0144009
690.715	0.0143217
690.793	0.0143295
690.871	0.0142741
690.950	0.0143347
691.028	0.0142348
691.106	0.0141808
691.184	0.0142814
691.262	0.0143330
691.340	0.0143164
691.418	0.0142232
691.496	0.0141827
691.575	0.0141687
691.653	0.0141645
691.731	0.0141137
691.809	0.0142168
691.887	0.0142118
691.965	0.0141977
692.043	0.0141718
692.121	0.0141411
692.200	0.0141128
692.278	0.0141708
692.356	0.0142406
692.434	0.0142583
692.512	0.0141747
692.590	0.0140545
692.668	0.0141188
692.746	0.0140778
692.825	0.0141287
692.903	0.0141833
692.981	0.0143388
693.059	0.0143086
693.137	0.0142779
693.215	0.0140994
693.293	0.0141652
693.371	0.0142121
693.450	0.0141800
693.528	0.0143352
693.606	0.0142195
693.684	0.0142090
693.762	0.0141627
693.840	0.0143114
693.918	0.0141164
693.996	0.0142188
694.075	0.0142365
694.153	0.0141946
694.231	0.0142733
694.309	0.0142586
694.387	0.0142648
694.465	0.0141425
694.543	0.0141623
694.621	0.0142599
694.700	0.0141832
694.778	0.0141162
694.856	0.0142017
694.934	0.0142325
695.012	0.0142790
695.090	0.0141916
695.168	0.0142293
695.246	0.0141577
695.325	0.0143221
695.403	0.0143225
695.481	0.0142218
695.559	0.0141072
695.637	0.0141785
695.715	0.0142298
695.793	0.0141677
695.871	0.0142945
695.950	0.0142924
696.028	0.0141490
696.106	0.0141833
696.184	0.0141616
696.262	0.0142388
696.340	0.0142800
696.418	0.0142531
696.496	0.0142033
696.575	0.0141830
696.653	0.0140843
696.731	0.0142951
696.809	0.0143229
696.887	0.0142586
696.965	0.0143599
697.043	0.0142003
697.121	0.0140957
697.200	0.0142030
697.278	0.0141926
697.356	0.0143868
697.434	0.0143404
697.512	0.0141158
697.590	0.0142413
697.668	0.0141222
697.746	0.0141724
697.825	0.0142696
697.903	0.0142382
697.981	0.0140876
698.059	0.0143226
698.137	0.0142411
698.215	0.0141975
698.293	0.0141183
698.371	0.0144072
698.450	0.0142325
698.528	0.0142093
698.606	0.0141441
698.684	0.0141189
698.762	0.0142525
698.840	0.0143189
698.918	0.0142176
698.996	0.0141701
699.075	0.0141694
699.153	0.0142638
699.231	0.0141994
699.309	0.0141856
699.387	0.0142365
699.465	0.0141566
699.543	0.0143410
699.621	0.0142171
699.700	0.0142390
699.778	0.0143016
699.856	0.0141634
699.934	0.0141788
700.012	0.0141660
700.090	0.0141882
700.168	0.0142634
700.246	0.0142223
700.325	0.0141255
700.403	0.0142465
700.481	0.0143116
700.559	0.0142144
700.637	0.0142109
700.715	0.0142912
700.793	0.0142751
700.871	0.0142512
700.950	0.0142194
701.028	0.0143138
701.106	0.0142332
701.184	0.0142602
701.262	0.0142256
701.340	0.0141263
701.418	0.0142616
701.496	0.0142178
701.575	0.0141493
701.653	0.0140529
701.731	0.0141070
701.809	0.0142393
701.887	0.0142194
701.965	0.0142535
702.043	0.0142165
702.121	0.0141933
702.200	0.0141039
702.278	0.0142099
702.356	0.0141751
702.434	0.0141887
702.512	0.0141909
702.590	0.0141223
702.668	0.0142168
702.746	0.0141191
702.825	0.0141362
702.903	0.0141878
702.981	0.0141859
703.059	0.0141869
703.137	0.0144245
703.215	0.0140849
703.293	0.0142290
703.371	0.0142622
703.450	0.0141743
703.528	0.0142131
703.606	0.0142068
703.684	0.0141083
703.762	0.0140540
703.840	0.0142271
703.918	0.0141549
703.996	0.0142870
704.075	0.0141505
704.153	0.0142425
704.231	0.0142426
704.309	0.0141686
704.387	0.0142783
704.465	0.0142947
704.543	0.0141740
704.621	0.0140836
704.700	0.0143335
704.778	0.0142762
704.856	0.0142496
704.934	0.0143274
705.012	0.0141510
705.090	0.0141621
705.168	0.0142519
705.246	0.0142453
705.325	0.0140953
705.403	0.0142909
705.481	0.0141335
705.559	0.0142484
705.637	0.0141619
705.715	0.0142696
705.793	0.0143694
705.871	0.0141004
705.950	0.0142393
706.028	0.0142538
706.106	0.0141257
706.184	0.0142437
706.262	0.0142376
706.340	0.0142196
706.418	0.0141953
706.496	0.0141031
706.575	0.0142752
706.653	0.0141272
706.731	0.0141162
706.809	0.0143280
706.887	0.0141316
706.965	0.0141612
707.043	0.0141188
707.121	0.0141663
707.200	0.0140614
707.278	0.0141473
707.356	0.0142395
707.434	0.0142408
707.512	0.0142484
707.590	0.0142577
707.668	0.0142123
707.746	0.0141943
707.825	0.0141596
707.903	0.0141981
707.981	0.0141107
708.059	0.0141736
708.137	0.0142532
708.215	0.0143215
708.293	0.0142988
708.371	0.0142087
708.450	0.0142592
708.528	0.0143045
708.606	0.0142931
708.684	0.0142541
708.762	0.0143652
708.840	0.0142252
708.918	0.0141460
708.996	0.0142683
709.075	0.0141656
709.153	0.0141528
709.231	0.0141812
709.309	0.0141719
709.387	0.0141438
709.465	0.0141369
709.543	0.0141523
709.621	0.0140678
709.700	0.0140590
709.778	0.0142360
709.856	0.0142739
709.934	0.0141887
710.012	0.0141125
710.090	0.0141925
710.168	0.0142662
710.246	0.0141596
710.325	0.0139951
710.403	0.0141474
710.481	0.0142314
710.559	0.0142540
710.637	0.0144584
710.715	0.0146011
710.793	0.0145579
710.871	0.0144542
710.950	0.0144182
711.028	0.0142735
711.106	0.0140771
711.184	0.0140877
711.262	0.0139799
711.340	0.0139203
711.418	0.0140398
711.496	0.0140440
711.575	0.0140822
711.653	0.0143269
711.731	0.0143773
711.809	0.0142942
711.887	0.0142406
711.965	0.0142512
712.043	0.0142419
712.121	0.0141537
712.200	0.0140533
712.278	0.0140667
712.356	0.0141321
712.434	0.0142255
712.512	0.0142230
712.590	0.0144791
712.668	0.0146153
712.746	0.0146684
712.825	0.0145129
712.903	0.0147398
712.981	0.0149122
713.059	0.0144516
713.137	0.0144995
713.215	0.0143301
713.293	0.0141564
713.371	0.0140620
713.450	0.0138840
713.528	0.0139967
713.606	0.0138454
713.684	0.0138844
713.762	0.0139523
713.840	0.0139740
713.918	0.0141891
713.996	0.0142046
714.075	0.0141389
714.153	0.0143501
714.231	0.0144704
714.309	0.0146440
714.387	0.0147082
714.465	0.0146178
714.543	0.0147746
714.621	0.0150023
714.700	0.0148607
714.778	0.0146724
714.856	0.0145651
714.934	0.0143941
715.012	0.0140382
715.090	0.0137359
715.168	0.0132523
715.246	0.0129815
715.325	0.0128602
715.403	0.0126446
715.481	0.0125164
715.559	0.0129332
715.637	0.0130952
715.715	0.0132294
715.793	0.0138290
715.871	0.0142041
715.950	0.0143996
716.028	0.0146358
716.106	0.0149842
716.184	0.0149973
716.262	0.0148406
716.340	0.0147995
716.418	0.0144028
716.496	0.0142905
716.575	0.0141019
716.653	0.0138295
716.731	0.0135110
716.809	0.0136897
716.887	0.0137185
716.965	0.0137099
717.043	0.0139066
717.121	0.0141328
717.200	0.0144257
717.278	0.0145812
717.356	0.0149706
717.434	0.0151770
717.512	0.0154450
717.590	0.0156195
717.668	0.0156287
717.746	0.0155398
717.825	0.0154170
717.903	0.0153582
717.981	0.0151434
718.059	0.0146814
718.137	0.0144619
718.215	0.0141205
718.293	0.0135306
718.371	0.0132507
718.450	0.0128935
718.528	0.0128408
718.606	0.0127369
718.684	0.0128387
718.762	0.0128986
718.840	0.0133896
718.918	0.0137891
718.996	0.0142970
719.075	0.0148133
719.153	0.0150485
719.231	0.0152957
719.309	0.0154440
719.387	0.0153436
719.465	0.0152222
719.543	0.0149677
719.621	0.0148081
719.700	0.0141180
719.778	0.0137704
719.856	0.0134478
719.934	0.0133762
720.012	0.0131740
720.090	0.0131036
720.168	0.0133111
720.246	0.0134904
720.325	0.0139092
720.403	0.0140462
720.481	0.0143826
720.559	0.0147186
720.637	0.0147696
720.715	0.0150213
720.793	0.0150366
720.871	0.0148916
720.950	0.0148519
721.028	0.0145063
721.106	0.0142087
721.184	0.0139738
721.262	0.0138921
721.340	0.0135948
721.418	0.0131189
721.496	0.0128293
721.575	0.0127125
721.653	0.0127296
721.731	0.0127328
721.809	0.0131320
721.887	0.0132065
721.965	0.0136021
722.043	0.0141433
722.121	0.0146399
722.200	0.0149639
722.278	0.0153622
722.356	0.0156401
722.434	0.0157371
722.512	0.0158833
722.590	0.0158383
722.668	0.0156163
722.746	0.0153067
722.825	0.0151210
722.903	0.0147585
722.981	0.0144884
723.059	0.0141645
723.137	0.0140259
723.215	0.0136469
723.293	0.0134441
723.371	0.0133125
723.450	0.0131033
723.528	0.0131052
723.606	0.0133077
723.684	0.0134802
723.762	0.0135291
723.840	0.0139317
723.918	0.0141669
723.996	0.0144411
724.075	0.0150129
724.153	0.0153307
724.231	0.0153975
724.309	0.0154869
724.387	0.0155835
724.465	0.0155442
724.543	0.0153671
724.621	0.0150739
724.700	0.0147995
724.778	0.0145523
724.856	0.0140072
724.934	0.0138783
725.012	0.0135815
725.090	0.0133813
725.168	0.0131887
725.246	0.0131561
725.325	0.0128986
725.403	0.0129283
725.481	0.0130726
725.559	0.0132743
725.637	0.0135694
725.715	0.0137246
725.793	0.0140844
725.871	0.0143424
725.950	0.0145774
726.028	0.0148792
726.106	0.0150032
726.184	0.0151263
726.262	0.0152048
726.340	0.0150987
726.418	0.0150655
726.496	0.0148795
726.575	0.0146324
726.653	0.0144000
726.731	0.0140790
726.809	0.0138734
726.887	0.0136377
726.965	0.0134050
727.043	0.0132796
727.121	0.0131066
727.200	0.0131641
727.278	0.0133153
727.356	0.0134148
727.434	0.0136484
727.512	0.0137996
727.590	0.0140374
727.668	0.0141747
727.746	0.0144694
727.825	0.0146767
727.903	0.0147742
727.981	0.0150238
728.059	0.0150603
728.137	0.0149281
728.215	0.0151200
728.293	0.0150954
728.371	0.0149011
728.450	0.0148687
728.528	0.0145074
728.606	0.0144048
728.684	0.0143203
728.762	0.0141145
728.840	0.0139126
728.918	0.0137815
728.996	0.0137447
729.075	0.0138223
729.153	0.0137392
729.231	0.0137318
729.309	0.0137291
729.387	0.0138034
729.465	0.0139671
729.543	0.0139759
729.621	0.0141884
729.700	0.0141951
729.778	0.0143896
729.856	0.0143295
729.934	0.0142910
730.012	0.0143233
730.090	0.0145696
730.168	0.0144213
730.246	0.0144039
730.325	0.0143627
730.403	0.0144257
730.481	0.0144753
730.559	0.0142847
730.637	0.0142609
730.715	0.0142267
730.793	0.0142529
730.871	0.0143027
730.950	0.0143031
731.028	0.0142364
731.106	0.0141775
731.184	0.0140328
731.262	0.0139840
731.340	0.0139678
731.418	0.0138127
731.496	0.0137666
731.575	0.0137180
731.653	0.0137044
731.731	0.0138602
731.809	0.0140535
731.887	0.0140091
731.965	0.0140142
732.043	0.0141382
732.121	0.0143227
732.200	0.0143350
732.278	0.0144296
732.356	0.0143886
732.434	0.0144324
732.512	0.0143365
732.590	0.0143472
732.668	0.0143098
732.746	0.0142344
732.825	0.0141692
732.903	0.0140347
732.981	0.0139023
733.059	0.0136516
733.137	0.0138780
733.215	0.0136028
733.293	0.0134943
733.371	0.0136567
733.450	0.0136531
733.528	0.0137360
733.606	0.0138425
733.684	0.0138479
733.762	0.0140621
733.840	0.0141496
733.918	0.0144050
733.996	0.0145541
734.075	0.0143707
734.153	0.0146039
734.231	0.0147428
734.309	0.0146115
734.387	0.0148022
734.465	0.0147773
734.543	0.0146600
734.621	0.0146754
734.700	0.0144957
734.778	0.0142524
734.856	0.0142137
734.934	0.0143150
735.012	0.0142935
735.090	0.0139736
735.168	0.0138730
735.246	0.0140290
735.325	0.0139494
735.403	0.0139133
735.481	0.0138817
735.559	0.0137291
735.637	0.0137298
735.715	0.0137961
735.793	0.0138854
735.871	0.0139863
735.950	0.0141212
736.028	0.0140896
736.106	0.0142098
736.184	0.0143833
736.262	0.0144395
736.340	0.0147777
736.418	0.0147392
736.496	0.0149213
736.575	0.0148934
736.653	0.0148571
736.731	0.0149075
736.809	0.0148941
736.887	0.0146754
736.965	0.0146539
737.043	0.0144806
737.121	0.0143665
737.200	0.0141792
737.278	0.0139700
737.356	0.0140073
737.434	0.0138776
737.512	0.0139186
737.590	0.0139292
737.668	0.0139223
737.746	0.0138393
737.825	0.0139999
737.903	0.0141363
737.981	0.0142562
738.059	0.0142354
738.137	0.0143134
738.215	0.0144996
738.293	0.0145145
738.371	0.0145457
738.450	0.0147269
738.528	0.0145520
738.606	0.0146461
738.684	0.0146457
738.762	0.0146301
738.840	0.0144784
738.918	0.0143943
738.996	0.0144016
739.075	0.0142190
739.153	0.0142580
739.231	0.0141790
739.309	0.0142924
739.387	0.0141969
739.465	0.0139370
739.543	0.0139466
739.621	0.0139214
739.700	0.0138558
739.778	0.0137103
739.856	0.0136638
739.934	0.0136409
740.012	0.0135678
740.090	0.0135507
740.168	0.0136036
740.246	0.0136205
740.325	0.0137802
740.403	0.0139442
740.481	0.0140139
740.559	0.0141364
740.637	0.0143164
740.715	0.0146136
740.793	0.0147258
740.871	0.0147925
740.950	0.0150126
741.028	0.0150166
741.106	0.0150074
741.184	0.0149767
741.262	0.0149094
741.340	0.0148815
741.418	0.0145660
741.496	0.0145162
741.575	0.0142153
741.653	0.0140739
741.731	0.0138965
741.809	0.0138435
741.887	0.0137840
741.965	0.0136653
742.043	0.0136333
742.121	0.0136890
742.200	0.0135991
742.278	0.0136301
742.356	0.0137883
742.434	0.0137498
742.512	0.0138766
742.590	0.0141188
742.668	0.0142304
742.746	0.0142921
742.825	0.0143978
742.903	0.0145040
742.981	0.0146150
743.059	0.0144559
743.137	0.0145901
743.215	0.0144408
743.293	0.0145715
743.371	0.0146621
743.450	0.0146311
743.528	0.0146029
743.606	0.0145331
743.684	0.0144951
743.762	0.0143132
743.840	0.0142087
743.918	0.0141309
743.996	0.0140799
744.075	0.0140422
744.153	0.0139718
744.231	0.0136880
744.309	0.0138029
744.387	0.0138059
744.465	0.0138115
744.543	0.0138544
744.621	0.0137401
744.700	0.0139901
744.778	0.0140936
744.856	0.0144200
744.934	0.0144221
745.012	0.0145096
745.090	0.0145735
745.168	0.0146163
745.246	0.0146864
745.325	0.0146379
745.403	0.0147075
745.481	0.0146323
745.559	0.0143204
745.637	0.0144296
745.715	0.0144522
745.793	0.0142441
745.871	0.0142896
745.950	0.0140901
746.028	0.0140726
746.106	0.0140915
746.184	0.0139131
746.262	0.0139841
746.340	0.0139615
746.418	0.0140286
746.496	0.0140805
746.575	0.0141393
746.653	0.0142810
746.731	0.0142296
746.809	0.0143918
746.887	0.0143440
746.965	0.0144443
747.043	0.0144307
747.121	0.0146392
747.200	0.0144337
747.278	0.0144173
747.356	0.0142123
747.434	0.0141169
747.512	0.0142654
747.590	0.0140382
747.668	0.0138809
747.746	0.0140232
747.825	0.0140039
747.903	0.0141218
747.981	0.0138436
748.059	0.0140032
748.137	0.0139854
748.215	0.0142227
748.293	0.0141973
748.371	0.0142465
748.450	0.0143835
748.528	0.0145504
748.606	0.0147278
748.684	0.0144936
748.762	0.0144965
748.840	0.0146217
748.918	0.0145257
748.996	0.0146062
749.075	0.0144811
749.153	0.0142702
749.231	0.0141945
749.309	0.0142246
749.387	0.0140063
749.465	0.0138938
749.543	0.0139370
749.621	0.0136877
749.700	0.0137765
749.778	0.0138436
749.856	0.0139987
749.934	0.0139615
750.012	0.0139816
750.090	0.0138752
750.168	0.0141676
750.246	0.0142721
750.325	0.0142969
750.403	0.0143033
750.481	0.0143731
750.559	0.0145842
750.637	0.0143479
750.715	0.0144080
750.793	0.0146204
750.871	0.0144358
750.950	0.0144482
751.028	0.0143676
751.106	0.0143425
751.184	0.0143133
751.262	0.0143105
751.340	0.0142910
751.418	0.0142712
751.496	0.0141568
751.575	0.0141405
751.653	0.0140804
751.731	0.0141089
751.809	0.0140043
751.887	0.0140988
751.965	0.0140669
752.043	0.0140512
752.121	0.0139008
752.200	0.0139613
752.278	0.0139175
752.356	0.0139835
752.434	0.0141384
752.512	0.0141467
752.590	0.0144015
752.668	0.0143147
752.746	0.0143828
752.825	0.0144214
752.903	0.0145001
752.981	0.0146348
753.059	0.0146043
753.137	0.0145810
753.215	0.0146474
753.293	0.0144903
753.371	0.0144480
753.450	0.0144543
753.528	0.0142972
753.606	0.0141770
753.684	0.0140728
753.762	0.0141288
753.840	0.0139464
753.918	0.0137720
753.996	0.0138366
754.075	0.0138955
754.153	0.0140591
754.231	0.0141121
754.309	0.0140776
754.387	0.0141103
754.465	0.0141531
754.543	0.0142355
754.621	0.0143601
754.700	0.0144240
754.778	0.0144141
754.856	0.0143408
754.934	0.0143391
755.012	0.0143337
755.090	0.0143359
755.168	0.0143825
755.246	0.0142295
755.325	0.0142075
755.403	0.0140759
755.481	0.0140878
755.559	0.0141253
755.637	0.0142797
755.715	0.0141426
755.793	0.0141404
755.871	0.0141966
755.950	0.0142077
756.028	0.0142789
756.106	0.0142656
756.184	0.0142269
756.262	0.0142454
756.340	0.0141667
756.418	0.0141291
756.496	0.0141801
756.575	0.0140792
756.653	0.0141528
756.731	0.0141747
756.809	0.0141386
756.887	0.0140506
756.965	0.0140694
757.043	0.0140395
757.121	0.0139852
757.200	0.0141048
757.278	0.0141277
757.356	0.0140205
757.434	0.0140354
757.512	0.0141309
757.590	0.0142109
757.668	0.0140859
757.746	0.0142271
757.825	0.0143140
757.903	0.0143347
757.981	0.0143092
758.059	0.0141876
758.137	0.0141770
758.215	0.0141309
758.293	0.0141228
758.371	0.0143077
758.450	0.0141956
758.528	0.0141326
758.606	0.0141118
758.684	0.0142081
758.762	0.0140936
758.840	0.0142035
758.918	0.0142324
758.996	0.0141805
759.075	0.0142621
759.153	0.0142724
759.231	0.0142451
759.309	0.0143650
759.387	0.0141763
759.465	0.0143132
759.543	0.0142731
759.621	0.0141540
759.700	0.0141750
759.778	0.0140208
759.856	0.0141047
759.934	0.0140665
760.012	0.0140009
760.090	0.0140002
760.168	0.0141445
760.246	0.0141898
760.325	0.0141608
760.403	0.0142863
760.481	0.0141363
760.559	0.0142639
760.637	0.0143699
760.715	0.0142406
760.793	0.0143421
760.871	0.0144247
760.950	0.0143742
761.028	0.0144059
761.106	0.0142902
761.184	0.0143245
761.262	0.0143598
761.340	0.0141468
761.418	0.0142107
761.496	0.0141425
761.575	0.0142085
761.653	0.0141444
761.731	0.0141615
761.809	0.0142767
761.887	0.0140505
761.965	0.0141427
762.043	0.0140897
762.121	0.0141722
762.200	0.0141647
762.278	0.0142361
762.356	0.0142294
762.434	0.0143836
762.512	0.0142236
762.590	0.0143470
762.668	0.0144755
762.746	0.0143452
762.825	0.0141980
762.903	0.0142885
762.981	0.0144291
763.059	0.0143108
763.137	0.0141855
763.215	0.0141360
763.293	0.0142727
763.371	0.0142389
763.450	0.0141628
763.528	0.0142874
763.606	0.0139215
763.684	0.0140683
763.762	0.0142772
763.840	0.0141973
763.918	0.0140042
763.996	0.0140420
764.075	0.0140128
764.153	0.0141901
764.231	0.0140788
764.309	0.0141328
764.387	0.0140951
764.465	0.0141637
764.543	0.0142067
764.621	0.0142738
764.700	0.0142492
764.778	0.0142803
764.856	0.0143610
764.934	0.0142268
765.012	0.0142403
765.090	0.0143613
765.168	0.0143371
765.246	0.0144324
765.325	0.0143084
765.403	0.0142900
765.481	0.0142171
765.559	0.0141269
765.637	0.0141738
765.715	0.0141438
765.793	0.0142184
765.871	0.0139697
765.950	0.0140753
766.028	0.0140919
766.106	0.0141312
766.184	0.0140714
766.262	0.0139876
766.340	0.0141799
766.418	0.0140875
766.496	0.0142748
766.575	0.0142983
766.653	0.0143284
766.731	0.0143620
766.809	0.0144012
766.887	0.0143474
766.965	0.0142632
767.043	0.0143517
767.121	0.0144702
767.200	0.0144092
767.278	0.0144194
767.356	0.0142167
767.434	0.0141711
767.512	0.0142252
767.590	0.0141728
767.668	0.0141294
767.746	0.0140750
767.825	0.0139397
767.903	0.0141155
767.981	0.0141429
768.059	0.0140929
768.137	0.0140164
768.215	0.0141315
768.293	0.0141079
768.371	0.0141981
768.450	0.0141878
768.528	0.0143081
768.606	0.0143850
768.684	0.0142893
768.762	0.0143179
768.840	0.0143050
768.918	0.0143018
768.996	0.0142929
769.075	0.0142670
769.153	0.0142876
769.231	0.0140449
769.309	0.0141944
769.387	0.0143127
769.465	0.0143198
769.543	0.0142494
769.621	0.0142845
769.700	0.0141968
769.778	0.0141908
769.856	0.0141374
769.934	0.0143309
770.012	0.0142142
770.090	0.0141740
770.168	0.0141801
770.246	0.0143356
770.325	0.0143789
770.403	0.0142609
770.481	0.0142581
770.559	0.0141372
770.637	0.0143056
770.715	0.0141372
770.793	0.0141550
770.871	0.0142634
770.950	0.0140675
771.028	0.0140504
771.106	0.0140259
771.184	0.0141472
771.262	0.0141373
771.340	0.0142033
771.418	0.0143138
771.496	0.0141912
771.575	0.0141533
771.653	0.0142678
771.731	0.0142947
771.809	0.0142569
771.887	0.0143097
771.965	0.0143882
772.043	0.0142863
772.121	0.0141187
772.200	0.0142940
772.278	0.0142970
772.356	0.0142379
772.434	0.0140989
772.512	0.0143011
772.590	0.0143571
772.668	0.0140331
772.746	0.0142815
772.825	0.0143069
772.903	0.0142885
772.981	0.0141865
773.059	0.0143196
773.137	0.0143027
773.215	0.0143180
773.293	0.0142613
773.371	0.0141806
773.450	0.0142388
773.528	0.0140780
773.606	0.0142414
773.684	0.0142660
773.762	0.0143807
773.840	0.0143633
773.918	0.0143187
773.996	0.0141310
774.075	0.0142831
774.153	0.0141674
774.231	0.0141851
774.309	0.0141905
774.387	0.0143077
774.465	0.0142274
774.543	0.0143569
774.621	0.0143511
774.700	0.0142767
774.778	0.0141521
774.856	0.0143119
774.934	0.0142727
775.012	0.0143246
775.090	0.0143820
775.168	0.0144868
775.246	0.0143579
775.325	0.0143790
775.403	0.0142684
775.481	0.0142931
775.559	0.0142635
775.637	0.0143042
775.715	0.0143655
775.793	0.0142706
775.871	0.0142507
775.950	0.0142356
776.028	0.0143241
776.106	0.0142374
776.184	0.0141608
776.262	0.0141508
776.340	0.0141479
776.418	0.0141390
776.496	0.0141193
776.575	0.0142625
776.653	0.0142980
776.731	0.0142252
776.809	0.0143271
776.887	0.0144135
776.965	0.0143258
777.043	0.0142664
777.121	0.0143047
777.200	0.0142960
777.278	0.0143912
777.356	0.0143885
777.434	0.0144699
777.512	0.0143707
777.590	0.0142861
777.668	0.0143385
777.746	0.0143663
777.825	0.0142447
777.903	0.0142516
777.981	0.0143428
778.059	0.0141323
778.137	0.0142139
778.215	0.0141929
778.293	0.0142419
778.371	0.0142451
778.450	0.0142377
778.528	0.0140306
778.606	0.0140139
778.684	0.0141308
778.762	0.0141771
778.840	0.0141760
778.918	0.0142197
778.996	0.0142753
779.075	0.0143534
779.153	0.0142628
779.231	0.0141845
779.309	0.0142615
779.387	0.0145071
779.465	0.0144619
779.543	0.0144167
779.621	0.0143768
779.700	0.0141718
779.778	0.0142242
779.856	0.0142999
779.934	0.0142793
780.012	0.0142264
780.090	0.0143019
780.168	0.0141647
780.246	0.0141924
780.325	0.0141518
780.403	0.0141740
780.481	0.0141850
780.559	0.0142416
780.637	0.0141621
780.715	0.0141528
780.793	0.0141980
780.871	0.0142268
780.950	0.0141399
781.028	0.0143240
781.106	0.0142934
781.184	0.0143203
781.262	0.0142318
781.340	0.0141096
781.418	0.0141972
781.496	0.0142423
781.575	0.0142713
781.653	0.0142139
781.731	0.0142400
781.809	0.0142094
781.887	0.0142014
781.965	0.0142449
782.043	0.0143237
782.121	0.0141116
782.200	0.0141351
782.278	0.0142557
782.356	0.0141293
782.434	0.0141707
782.512	0.0142069
782.590	0.0142470
782.668	0.0142595
782.746	0.0141710
782.825	0.0141361
782.903	0.0141299
782.981	0.0141431
783.059	0.0141524
783.137	0.0141920
783.215	0.0141412
783.293	0.0140868
783.371	0.0142685
783.450	0.0140627
783.528	0.0141316
783.606	0.0141155
783.684	0.0141267
783.762	0.0141785
783.840	0.0141579
783.918	0.0141997
783.996	0.0142955
784.075	0.0142522
784.153	0.0141713
784.231	0.0142728
784.309	0.0143741
784.387	0.0143631
784.465	0.0141972
784.543	0.0142225
784.621	0.0143188
784.700	0.0143048
784.778	0.0142808
784.856	0.0142461
784.934	0.0141295
785.012	0.0141792
785.090	0.0140923
785.168	0.0141579
785.246	0.0142598
785.325	0.0142489
785.403	0.0141943
785.481	0.0142397
785.559	0.0142656
785.637	0.0141511
785.715	0.0142180
785.793	0.0141642
785.871	0.0142344
785.950	0.0141379
786.028	0.0142252
786.106	0.0142102
786.184	0.0142575
786.262	0.0141134
786.340	0.0142393
786.418	0.0142564
786.496	0.0142129
786.575	0.0142629
786.653	0.0141206
786.731	0.0142430
786.809	0.0142639
786.887	0.0141593
786.965	0.0141293
787.043	0.0141560
787.121	0.0141644
787.200	0.0141685
787.278	0.0142207
787.356	0.0142018
787.434	0.0142142
787.512	0.0141250
787.590	0.0141479
787.668	0.0142665
787.746	0.0143512
787.825	0.0142574
787.903	0.0142752
787.981	0.0143203
788.059	0.0141306
788.137	0.0142104
788.215	0.0141562
788.293	0.0142479
788.371	0.0141638
788.450	0.0140292
788.528	0.0143001
788.606	0.0141774
788.684	0.0141425
788.762	0.0140629
788.840	0.0141375
788.918	0.0141547
788.996	0.0142160
789.075	0.0140790
789.153	0.0141502
789.231	0.0143821
789.309	0.0143421
789.387	0.0142405
789.465	0.0143379
789.543	0.0143276
789.621	0.0143239
789.700	0.0143728
789.778	0.0142826
789.856	0.0141431
789.934	0.0143771
790.012	0.0141823
790.090	0.0142660
790.168	0.0143524
790.246	0.0142429
790.325	0.0141689
790.403	0.0143401
790.481	0.0142710
790.559	0.0142166
790.637	0.0142077
790.715	0.0141310
790.793	0.0143044
790.871	0.0143075
790.950	0.0141290
791.028	0.0141132
791.106	0.0141337
791.184	0.0141525
791.262	0.0141841
791.340	0.0142236
791.418	0.0141238
791.496	0.0141833
791.575	0.0142387
791.653	0.0144173
791.731	0.0143198
791.809	0.0143163
791.887	0.0142824
791.965	0.0141966
792.043	0.0141564
792.121	0.0143409
792.200	0.0143697
792.278	0.0143108
792.356	0.0143715
792.434	0.0141072
792.512	0.0140825
792.590	0.0142323
792.668	0.0142210
792.746	0.0142585
792.825	0.0140722
792.903	0.0141386
792.981	0.0141379
793.059	0.0141837
793.137	0.0142184
793.215	0.0142283
793.293	0.0141876
793.371	0.0142761
793.450	0.0141159
793.528	0.0140891
793.606	0.0141723
793.684	0.0142834
793.762	0.0143330
793.840	0.0141479
793.918	0.0142786
793.996	0.0143682
794.075	0.0142171
794.153	0.0142596
794.231	0.0139788
794.309	0.0141457
794.387	0.0142650
794.465	0.0142932
794.543	0.0142860
794.621	0.0141316
794.700	0.0142834
794.778	0.0142557
794.856	0.0142145
794.934	0.0142343
795.012	0.0143916
795.090	0.0142768
795.168	0.0142430
795.246	0.0142861
795.325	0.0141356
795.403	0.0142654
795.481	0.0143434
795.559	0.0141937
795.637	0.0141896
795.715	0.0142668
795.793	0.0142658
795.871	0.0143150
795.950	0.0142361
796.028	0.0141991
796.106	0.0141630
796.184	0.0140101
796.262	0.0141590
796.340	0.0141978
796.418	0.0141380
796.496	0.0143417
796.575	0.0143415
796.653	0.0141077
796.731	0.0142053
796.809	0.0142765
796.887	0.0142197
796.965	0.0143135
797.043	0.0141407
797.121	0.0141354
797.200	0.0142802
797.278	0.0144276
797.356	0.0142855
797.434	0.0143673
797.512	0.0142401
797.590	0.0141452
797.668	0.0143157
797.746	0.0143858
797.825	0.0141529
797.903	0.0142049
797.981	0.0143880
798.059	0.0143730
798.137	0.0142455
798.215	0.0143080
798.293	0.0143146
798.371	0.0143245
798.450	0.0143024
798.528	0.0143770
798.606	0.0144944
798.684	0.0143166
798.762	0.0142869
798.840	0.0142014
798.918	0.0142617
798.996	0.0141586
799.075	0.0144620
799.153	0.0142664
799.231	0.0141640
799.309	0.0141642
799.387	0.0141834
799.465	0.0143056
799.543	0.0144772
799.621	0.0142661
799.700	0.0142255
799.778	0.0142786
799.856	0.0142905
799.934	0.0142462
800.012	0.0142672
800.090	0.0142342
800.168	0.0142169
800.246	0.0141138
800.325	0.0140429
800.403	0.0142686
800.481	0.0141702
800.559	0.0141261
800.637	0.0140926
800.715	0.0142419
800.793	0.0142100
800.871	0.0141602
800.950	0.0141732
801.028	0.0141698
801.106	0.0141805
801.184	0.0142416
801.262	0.0140837
801.340	0.0141833
801.418	0.0142488
801.496	0.0143357
801.575	0.0142353
801.653	0.0142966
801.731	0.0141261
801.809	0.0141852
801.887	0.0143394
801.965	0.0142336
802.043	0.0141339
802.121	0.0142038
802.200	0.0141931
802.278	0.0142410
802.356	0.0143121
802.434	0.0143836
802.512	0.0142149
802.590	0.0142828
802.668	0.0142639
802.746	0.0142595
802.825	0.0144040
802.903	0.0143613
802.981	0.0142603
803.059	0.0142131
803.137	0.0144292
803.215	0.0142790
803.293	0.0142133
803.371	0.0142989
803.450	0.0141907
803.528	0.0141932
803.606	0.0142471
803.684	0.0141834
803.762	0.0143375
803.840	0.0141029
803.918	0.0142925
803.996	0.0143204
804.075	0.0142355
804.153	0.0141100
804.231	0.0142365
804.309	0.0142858
804.387	0.0142092
804.465	0.0142278
804.543	0.0142695
804.621	0.0142810
804.700	0.0142705
804.778	0.0142909
804.856	0.0143222
804.934	0.0142426
805.012	0.0142513
805.090	0.0141738
805.168	0.0141264
805.246	0.0143604
805.325	0.0142109
805.403	0.0141940
805.481	0.0141435
805.559	0.0141277
805.637	0.0141840
805.715	0.0140491
805.793	0.0142271
805.871	0.0141221
805.950	0.0141637
806.028	0.0142406
806.106	0.0142214
806.184	0.0140678
806.262	0.0141335
806.340	0.0141905
806.418	0.0141868
806.496	0.0142234
806.575	0.0142025
806.653	0.0142361
806.731	0.0142279
806.809	0.0141847
806.887	0.0142165
806.965	0.0141160
807.043	0.0142304
807.121	0.0141103
807.200	0.0142541
807.278	0.0140658
807.356	0.0143161
807.434	0.0142896
807.512	0.0143346
807.590	0.0143451
807.668	0.0142013
807.746	0.0142751
807.825	0.0142191
807.903	0.0141840
807.981	0.0141221
808.059	0.0142554
808.137	0.0142478
808.215	0.0142433
808.293	0.0139439
808.371	0.0141756
808.450	0.0142869
808.528	0.0142101
808.606	0.0140954
808.684	0.0141334
808.762	0.0144127
808.840	0.0142876
808.918	0.0142298
808.996	0.0142298
809.075	0.0143026
809.153	0.0143005
809.231	0.0142843
809.309	0.0142289
809.387	0.0142617
809.465	0.0141758
809.543	0.0142939
809.621	0.0142021
809.700	0.0142796
809.778	0.0141930
809.856	0.0143181
809.934	0.0142237
810.012	0.0141631
810.090	0.0143082
810.168	0.0142741
810.246	0.0141321
810.325	0.0141918
810.403	0.0142640
810.481	0.0141631
810.559	0.0141637
810.637	0.0140959
810.715	0.0141970
810.793	0.0143796
810.871	0.0142852
810.950	0.0141752
811.028	0.0142724
811.106	0.0142870
811.184	0.0140653
811.262	0.0142535
811.340	0.0141958
811.418	0.0141279
811.496	0.0142136
811.575	0.0141114
811.653	0.0141551
811.731	0.0141736
811.809	0.0141608
811.887	0.0140456
811.965	0.0140269
812.043	0.0141869
812.121	0.0142272
812.200	0.0141570
812.278	0.0141915
812.356	0.0142595
812.434	0.0141059
812.512	0.0141193
812.590	0.0141374
812.668	0.0141904
812.746	0.0140530
812.825	0.0142167
812.903	0.0141789
812.981	0.0143848
813.059	0.0143028
813.137	0.0143395
813.215	0.0143849
813.293	0.0141940
813.371	0.0142049
813.450	0.0144204
813.528	0.0143066
813.606	0.0142163
813.684	0.0143260
813.762	0.0142686
813.840	0.0142101
813.918	0.0142723
813.996	0.0143487
814.075	0.0142055
814.153	0.0140977
814.231	0.0141470
814.309	0.0142007
814.387	0.0140992
814.465	0.0141463
814.543	0.0142495
814.621	0.0143415
814.700	0.0142071
814.778	0.0141474
814.856	0.0141888
814.934	0.0142013
815.012	0.0141348
815.090	0.0143764
815.168	0.0142123
815.246	0.0141071
815.325	0.0142339
815.403	0.0143486
815.481	0.0143235
815.559	0.0142614
815.637	0.0142376
815.715	0.0142651
815.793	0.0141904
815.871	0.0141893
815.950	0.0142759
816.028	0.0141783
816.106	0.0141192
816.184	0.0141092
816.262	0.0142645
816.340	0.0141851
816.418	0.0141993
816.496	0.0142421
816.575	0.0143246
816.653	0.0142375
816.731	0.0143488
816.809	0.0142297
816.887	0.0140372
816.965	0.0142799
817.043	0.0141698
817.121	0.0142817
817.200	0.0142262
817.278	0.0140489
817.356	0.0141448
817.434	0.0140880
817.512	0.0141024
817.590	0.0141058
817.668	0.0143543
817.746	0.0140749
817.825	0.0140721
817.903	0.0142931
817.981	0.0141972
818.059	0.0142374
818.137	0.0141373
818.215	0.0141408
818.293	0.0143645
818.371	0.0143834
818.450	0.0142352
818.528	0.0141487
818.606	0.0142192
818.684	0.0141775
818.762	0.0141001
818.840	0.0142805
818.918	0.0143893
818.996	0.0142125
819.075	0.0141196
819.153	0.0141835
819.231	0.0141877
819.309	0.0140913
819.387	0.0142097
819.465	0.0141483
819.543	0.0142513
819.621	0.0141795
819.700	0.0140807
819.778	0.0142131
819.856	0.0143134
819.934	0.0142688
820.012	0.0141360
820.090	0.0142368
820.168	0.0144152
820.246	0.0141396
820.325	0.0143197
820.403	0.0143491
820.481	0.0142661
820.559	0.0143834
820.637	0.0142830
820.715	0.0142351
820.793	0.0143175
820.871	0.0143537
820.950	0.0141869
821.028	0.0143111
821.106	0.0142615
821.184	0.0142470
821.262	0.0142424
821.340	0.0142070
821.418	0.0142803
821.496	0.0141650
821.575	0.0142997
821.653	0.0142640
821.731	0.0141020
821.809	0.0142799
821.887	0.0142210
821.965	0.0142876
822.043	0.0142416
822.121	0.0142216
822.200	0.0145279
822.278	0.0142034
822.356	0.0141131
822.434	0.0143133
822.512	0.0144932
822.590	0.0143067
822.668	0.0141531
822.746	0.0142381
822.825	0.0142947
822.903	0.0142480
822.981	0.0140851
823.059	0.0141415
823.137	0.0142239
823.215	0.0141232
823.293	0.0141801
823.371	0.0142742
823.450	0.0142831
823.528	0.0141454
823.606	0.0142468
823.684	0.0142492
823.762	0.0141119
823.840	0.0142811
823.918	0.0142663
823.996	0.0143201
824.075	0.0141208
824.153	0.0139845
824.231	0.0141634
824.309	0.0142343
824.387	0.0142102
824.465	0.0142018
824.543	0.0142818
824.621	0.0141510
824.700	0.0140927
824.778	0.0142706
824.856	0.0142528
824.934	0.0141939
825.012	0.0142088
825.090	0.0142751
825.168	0.0143351
825.246	0.0141919
825.325	0.0141611
825.403	0.0141841
825.481	0.0142107
825.559	0.0141592
825.637	0.0141862
825.715	0.0141389
825.793	0.0141691
825.871	0.0142717
825.950	0.0141418
826.028	0.0141575
826.106	0.0141770
826.184	0.0142346
826.262	0.0142020
826.340	0.0141557
826.418	0.0141390
826.496	0.0141895
826.575	0.0141910
826.653	0.0142775
826.731	0.0142788
826.809	0.0141985
826.887	0.0141727
826.965	0.0142281
827.043	0.0143070
827.121	0.0142751
827.200	0.0142760
827.278	0.0142183
827.356	0.0141821
827.434	0.0141846
827.512	0.0141759
827.590	0.0142311
827.668	0.0142661
827.746	0.0141489
827.825	0.0141249
827.903	0.0141431
827.981	0.0141488
828.059	0.0141935
828.137	0.0140485
828.215	0.0141655
828.293	0.0142183
828.371	0.0141904
828.450	0.0141091
828.528	0.0142487
828.606	0.0142754
828.684	0.0142390
828.762	0.0142255
828.840	0.0141546
828.918	0.0142262
828.996	0.0142805
829.075	0.0142020
829.153	0.0140972
829.231	0.0141902
829.309	0.0142202
829.387	0.0141484
829.465	0.0142484
829.543	0.0141470
829.621	0.0141191
829.700	0.0139906
829.778	0.0140834
829.856	0.0142434
829.934	0.0141595
830.012	0.0140665
830.090	0.0140740
830.168	0.0141983
830.246	0.0142818
830.325	0.0140944
830.403	0.0142731
830.481	0.0141759
830.559	0.0141816
830.637	0.0142545
830.715	0.0142602
830.793	0.0142678
830.871	0.0144383
830.950	0.0142303
831.028	0.0141042
831.106	0.0141724
831.184	0.0143204
831.262	0.0142316
831.340	0.0142332
831.418	0.0141162
831.496	0.0141512
831.575	0.0142376
831.653	0.0142298
831.731	0.0142717
831.809	0.0141435
831.887	0.0141179
831.965	0.0142303
832.043	0.0140689
832.121	0.0143864
832.200	0.0142295
832.278	0.0141541
832.356	0.0142181
832.434	0.0141820
832.512	0.0142554
832.590	0.0141750
832.668	0.0141138
832.746	0.0142139
832.825	0.0142177
832.903	0.0143121
832.981	0.0142017
833.059	0.0142140
833.137	0.0143333
833.215	0.0143291
833.293	0.0141682
833.371	0.0141630
833.450	0.0142053
833.528	0.0142245
833.606	0.0143357
833.684	0.0142529
833.762	0.0142298
833.840	0.0142558
833.918	0.0142119
833.996	0.0140311
834.075	0.0140913
834.153	0.0141605
834.231	0.0140819
834.309	0.0140670
834.387	0.0142738
834.465	0.0142346
834.543	0.0141988
834.621	0.0142315
834.700	0.0141545
834.778	0.0141609
834.856	0.0142405
834.934	0.0142458
835.012	0.0141738
835.090	0.0142619
835.168	0.0142807
835.246	0.0143501
835.325	0.0142390
835.403	0.0141408
835.481	0.0142244
835.559	0.0142747
835.637	0.0141984
835.715	0.0142168
835.793	0.0140692
835.871	0.0142187
835.950	0.0140688
836.028	0.0140835
836.106	0.0142095
836.184	0.0141642
836.262	0.0141269
836.340	0.0141766
836.418	0.0142132
836.496	0.0141914
836.575	0.0142289
836.653	0.0142484
836.731	0.0143018
836.809	0.0142315
836.887	0.0143020
836.965	0.0141513
837.043	0.0141529
837.121	0.0143058
837.200	0.0143119
837.278	0.0141142
837.356	0.0141016
837.434	0.0140277
837.512	0.0143360
837.590	0.0142942
837.668	0.0140691
837.746	0.0140238
837.825	0.0141130
837.903	0.0140503
837.981	0.0140822
838.059	0.0141296
838.137	0.0140582
838.215	0.0141534
838.293	0.0141600
838.371	0.0141705
838.450	0.0141845
838.528	0.0142864
838.606	0.0143130
838.684	0.0141036
838.762	0.0141750
838.840	0.0142538
838.918	0.0140663
838.996	0.0142226
839.075	0.0140682
839.153	0.0140469
839.231	0.0142635
839.309	0.0141256
839.387	0.0141320
839.465	0.0141647
839.543	0.0142409
839.621	0.0142013
839.700	0.0141199
839.778	0.0141984
839.856	0.0140603
839.934	0.0142298
840.012	0.0142892
840.090	0.0142435
840.168	0.0141048
840.246	0.0142333
840.325	0.0140679
840.403	0.0141601
840.481	0.0141526
840.559	0.0141114
840.637	0.0142966
840.715	0.0140244
840.793	0.0142226
840.871	0.0141781
840.950	0.0141368
841.028	0.0141817
841.106	0.0141664
841.184	0.0142340
841.262	0.0141844
841.340	0.0143670
841.418	0.0141803
841.496	0.0141991
841.575	0.0144032
841.653	0.0144120
841.731	0.0143240
841.809	0.0144480
841.887	0.0144907
841.965	0.0143569
842.043	0.0144919
842.121	0.0142462
842.200	0.0143243
842.278	0.0141877
842.356	0.0142738
842.434	0.0143784
842.512	0.0141717
842.590	0.0141408
842.668	0.0140686
842.746	0.0141027
842.825	0.0141062
842.903	0.0140282
842.981	0.0142020
843.059	0.0142445
843.137	0.0140404
843.215	0.0143024
843.293	0.0142865
843.371	0.0143557
843.450	0.0143494
843.528	0.0145100
843.606	0.0143504
843.684	0.0142984
843.762	0.0143021
843.840	0.0143158
843.918	0.0142487
843.996	0.0142142
844.075	0.0142350
844.153	0.0141309
844.231	0.0141323
844.309	0.0141795
844.387	0.0140287
844.465	0.0141035
844.543	0.0141695
844.621	0.0139609
844.700	0.0141788
844.778	0.0142208
844.856	0.0141854
844.934	0.0142316
845.012	0.0142860
845.090	0.0142651
845.168	0.0142864
845.246	0.0143008
845.325	0.0144020
845.403	0.0143216
845.481	0.0142984
845.559	0.0143462
845.637	0.0143846
845.715	0.0143635
845.793	0.0143523
845.871	0.0142419
845.950	0.0142673
846.028	0.0142632
846.106	0.0141993
846.184	0.0142095
846.262	0.0140550
846.340	0.0141590
846.418	0.0142355
846.496	0.0140620
846.575	0.0141283
846.653	0.0141271
846.731	0.0141653
846.809	0.0142072
846.887	0.0141224
846.965	0.0143050
847.043	0.0144163
847.121	0.0142450
847.200	0.0144112
847.278	0.0143103
847.356	0.0142519
847.434	0.0143782
847.512	0.0143251
847.590	0.0143083
847.668	0.0143311
847.746	0.0143568
847.825	0.0142912
847.903	0.0142592
847.981	0.0143149
848.059	0.0143659
848.137	0.0142511
848.215	0.0142482
848.293	0.0142114
848.371	0.0141194
848.450	0.0141933
848.528	0.0142186
848.606	0.0142285
848.684	0.0141367
848.762	0.0141801
848.840	0.0143046
848.918	0.0144263
848.996	0.0141019
849.075	0.0143439
849.153	0.0143488
849.231	0.0142487
849.309	0.0143366
849.387	0.0143925
849.465	0.0143456
849.543	0.0143635
849.621	0.0143259
849.700	0.0142198
849.778	0.0143095
849.856	0.0142629
849.934	0.0141743
850.012	0.0143240
850.090	0.0143316
850.168	0.0143263
850.246	0.0143156
850.325	0.0142007
850.403	0.0141537
850.481	0.0142477
850.559	0.0141415
850.637	0.0142228
850.715	0.0141261
850.793	0.0142380
850.871	0.0142615
850.950	0.0142594
851.028	0.0144434
851.106	0.0142933
851.184	0.0142390
851.262	0.0142256
851.340	0.0140665
851.418	0.0142175
851.496	0.0141434
851.575	0.0142049
851.653	0.0142891
851.731	0.0141911
851.809	0.0142188
851.887	0.0140871
851.965	0.0142418
852.043	0.0141369
852.121	0.0140135
852.200	0.0139891
852.278	0.0142560
852.356	0.0142574
852.434	0.0141638
852.512	0.0141430
852.590	0.0140910
852.668	0.0142491
852.746	0.0141943
852.825	0.0142213
852.903	0.0142282
852.981	0.0142288
853.059	0.0142849
853.137	0.0143510
853.215	0.0141199
853.293	0.0141544
853.371	0.0141330
853.450	0.0141952
853.528	0.0142693
853.606	0.0141936
853.684	0.0141924
853.762	0.0142358
853.840	0.0142367
853.918	0.0142239
853.996	0.0140531
854.075	0.0142764
854.153	0.0143037
854.231	0.0141955
854.309	0.0143212
854.387	0.0143580
854.465	0.0141663
854.543	0.0141849
854.621	0.0141029
854.700	0.0142729
854.778	0.0143232
854.856	0.0143030
854.934	0.0142361
855.012	0.0144038
855.090	0.0142851
855.168	0.0142868
855.246	0.0141839
855.325	0.0142435
855.403	0.0143205
855.481	0.0144868
855.559	0.0144509
855.637	0.0144641
855.715	0.0143159
855.793	0.0144241
855.871	0.0144034
855.950	0.0142445
856.028	0.0142403
856.106	0.0143279
856.184	0.0142436
856.262	0.0141168
856.340	0.0142613
856.418	0.0142397
856.496	0.0141567
856.575	0.0142786
856.653	0.0141869
856.731	0.0141723
856.809	0.0141151
856.887	0.0142612
856.965	0.0142124
857.043	0.0143564
857.121	0.0143566
857.200	0.0143378
857.278	0.0141283
857.356	0.0143475
857.434	0.0143315
857.512	0.0143075
857.590	0.0142534
857.668	0.0142915
857.746	0.0141207
857.825	0.0143254
857.903	0.0142609
857.981	0.0142055
858.059	0.0143732
858.137	0.0143931
858.215	0.0143291
858.293	0.0143151
858.371	0.0139817
858.450	0.0141729
858.528	0.0143094
858.606	0.0141948
858.684	0.0141958
858.762	0.0143258
858.840	0.0140594
858.918	0.0142154
858.996	0.0142659
859.075	0.0140137
859.153	0.0140995
859.231	0.0141842
859.309	0.0142268
859.387	0.0141626
859.465	0.0142574
859.543	0.0141763
859.621	0.0141483
859.700	0.0142530
859.778	0.0141177
859.856	0.0142101
859.934	0.0141425
860.012	0.0142193
860.090	0.0143088
860.168	0.0142274
860.246	0.0142336
860.325	0.0141833
860.403	0.0142226
860.481	0.0141038
860.559	0.0142719
860.637	0.0141799
860.715	0.0141614
860.793	0.0141443
860.871	0.0141953
860.950	0.0141512
861.028	0.0142529
861.106	0.0140043
861.184	0.0140801
861.262	0.0142952
861.340	0.0140540
861.418	0.0142159
861.496	0.0142047
861.575	0.0141061
861.653	0.0141663
861.731	0.0141945
861.809	0.0140244
861.887	0.0142371
861.965	0.0142397
862.043	0.0142782
862.121	0.0139728
862.200	0.0141331
862.278	0.0141713
862.356	0.0142428
862.434	0.0140495
862.512	0.0141638
862.590	0.0142606
862.668	0.0142661
862.746	0.0142580
862.825	0.0143102
862.903	0.0143889
862.981	0.0142061
863.059	0.0140254
863.137	0.0142268
863.215	0.0142329
863.293	0.0142774
863.371	0.0141580
863.450	0.0141047
863.528	0.0141447
863.606	0.0142431
863.684	0.0140974
863.762	0.0142386
863.840	0.0141422
863.918	0.0141197
863.996	0.0141952
864.075	0.0143616
864.153	0.0142410
864.231	0.0141059
864.309	0.0141145
864.387	0.0142390
864.465	0.0142475
864.543	0.0143890
864.621	0.0142657
864.700	0.0141872
864.778	0.0141961
864.856	0.0142032
864.934	0.0142757
865.012	0.0141629
865.090	0.0141396
865.168	0.0142377
865.246	0.0142665
865.325	0.0142082
865.403	0.0142307
865.481	0.0142786
865.559	0.0142159
865.637	0.0142033
865.715	0.0142051
865.793	0.0141989
865.871	0.0141697
865.950	0.0141649
866.028	0.0142278
866.106	0.0141970
866.184	0.0142460
866.262	0.0143095
866.340	0.0142569
866.418	0.0142613
866.496	0.0141687
866.575	0.0141138
866.653	0.0140988
866.731	0.0142188
866.809	0.0141193
866.887	0.0141456
866.965	0.0141965
867.043	0.0141959
867.121	0.0141214
867.200	0.0140788
867.278	0.0141125
867.356	0.0143761
867.434	0.0143404
867.512	0.0143092
867.590	0.0141001
867.668	0.0141939
867.746	0.0142999
867.825	0.0142226
867.903	0.0142651
867.981	0.0141554
868.059	0.0142025
868.137	0.0141353
868.215	0.0142056
868.293	0.0142030
868.371	0.0142697
868.450	0.0141183
868.528	0.0141645
868.606	0.0142316
868.684	0.0142764
868.762	0.0142886
868.840	0.0142233
868.918	0.0141959
868.996	0.0141367
869.075	0.0141512
869.153	0.0141693
869.231	0.0142450
869.309	0.0142181
869.387	0.0143044
869.465	0.0142574
869.543	0.0143217
869.621	0.0142742
869.700	0.0142680
869.778	0.0142565
869.856	0.0142662
869.934	0.0142944
870.012	0.0142445
870.090	0.0142979
870.168	0.0143271
870.246	0.0142961
870.325	0.0142728
870.403	0.0143077
870.481	0.0142501
870.559	0.0142516
870.637	0.0141514
870.715	0.0142184
870.793	0.0143461
870.871	0.0141549
870.950	0.0141847
871.028	0.0142178
871.106	0.0142789
871.184	0.0143297
871.262	0.0143354
871.340	0.0142173
871.418	0.0142348
871.496	0.0142394
871.575	0.0142744
871.653	0.0142894
871.731	0.0143582
871.809	0.0143928
871.887	0.0143683
871.965	0.0143579
872.043	0.0143722
872.121	0.0142007
872.200	0.0142364
872.278	0.0142764
872.356	0.0143259
872.434	0.0142592
872.512	0.0141670
872.590	0.0142091
872.668	0.0143145
872.746	0.0141576
872.825	0.0142130
872.903	0.0141393
872.981	0.0140823
873.059	0.0143219
873.137	0.0142742
873.215	0.0142830
873.293	0.0142236
873.371	0.0142669
873.450	0.0143327
873.528	0.0142828
873.606	0.0143124
873.684	0.0143481
873.762	0.0141728
873.840	0.0142100
873.918	0.0142206
873.996	0.0142267
874.075	0.0143303
874.153	0.0143268
874.231	0.0143423
874.309	0.0143395
874.387	0.0142403
874.465	0.0141827
874.543	0.0141317
874.621	0.0143473
874.700	0.0142315
874.778	0.0142590
874.856	0.0142420
874.934	0.0142128
875.012	0.0141584
875.090	0.0140687
875.168	0.0142783
875.246	0.0141489
875.325	0.0142273
875.403	0.0141805
875.481	0.0142352
875.559	0.0143333
875.637	0.0142394
875.715	0.0142229
875.793	0.0142821
875.871	0.0144056
875.950	0.0143459
876.028	0.0141715
876.106	0.0140613
876.184	0.0144042
876.262	0.0141110
876.340	0.0141039
876.418	0.0141562
876.496	0.0141674
876.575	0.0142371
876.653	0.0141273
876.731	0.0140579
876.809	0.0141154
876.887	0.0141469
876.965	0.0141846
877.043	0.0141699
877.121	0.0142280
877.200	0.0141360
877.278	0.0141308
877.356	0.0142101
877.434	0.0141128
877.512	0.0141515
877.590	0.0141993
877.668	0.0143124
877.746	0.0143512
877.825	0.0140893
877.903	0.0142605
877.981	0.0142368
878.059	0.0143591
878.137	0.0142357
878.215	0.0141151
878.293	0.0141795
878.371	0.0142132
878.450	0.0142596
878.528	0.0140775
878.606	0.0142216
878.684	0.0141676
878.762	0.0141665
878.840	0.0144122
878.918	0.0141659
878.996	0.0140344
879.075	0.0140541
879.153	0.0140578
879.231	0.0139816
879.309	0.0142374
879.387	0.0142287
879.465	0.0141495
879.543	0.0140606
879.621	0.0142563
879.700	0.0143040
879.778	0.0142740
879.856	0.0142060
879.934	0.0143001
880.012	0.0143501
880.090	0.0143011
880.168	0.0141547
880.246	0.0141544
880.325	0.0142857
880.403	0.0142686
880.481	0.0141209
880.559	0.0141534
880.637	0.0142735
880.715	0.0140734
880.793	0.0142960
880.871	0.0140918
880.950	0.0141417
881.028	0.0141321
881.106	0.0140783
881.184	0.0141590
881.262	0.0140633
881.340	0.0140320
881.418	0.0140673
881.496	0.0141321
881.575	0.0141075
881.653	0.0142475
881.731	0.0141726
881.809	0.0142874
881.887	0.0143658
881.965	0.0142533
882.043	0.0142294
882.121	0.0141916
882.200	0.0142625
882.278	0.0142258
882.356	0.0142583
882.434	0.0141698
882.512	0.0141795
882.590	0.0141998
882.668	0.0141389
882.746	0.0140855
882.825	0.0141317
882.903	0.0141241
882.981	0.0141177
883.059	0.0141176
883.137	0.0142097
883.215	0.0141738
883.293	0.0140887
883.371	0.0141810
883.450	0.0142458
883.528	0.0141290
883.606	0.0141826
883.684	0.0142001
883.762	0.0141781
883.840	0.0143430
883.918	0.0143448
883.996	0.0144119
884.075	0.0144386
884.153	0.0143835
884.231	0.0142891
884.309	0.0141010
884.387	0.0142500
884.465	0.0144003
884.543	0.0142316
884.621	0.0142812
884.700	0.0141948
884.778	0.0142056
884.856	0.0140743
884.934	0.0141521
885.012	0.0140489
885.090	0.0141158
885.168	0.0142056
885.246	0.0141469
885.325	0.0140771
885.403	0.0140938
885.481	0.0141375
885.559	0.0142197
885.637	0.0141905
885.715	0.0141997
885.793	0.0141150
885.871	0.0141732
885.950	0.0141551
886.028	0.0142962
886.106	0.0143193
886.184	0.0142970
886.262	0.0142999
886.340	0.0141308
886.418	0.0141370
886.496	0.0141260
886.575	0.0141323
886.653	0.0141433
886.731	0.0140858
886.809	0.0141755
886.887	0.0142301
886.965	0.0139750
887.043	0.0140071
887.121	0.0140508
887.200	0.0140983
887.278	0.0140797
887.356	0.0141142
887.434	0.0141694
887.512	0.0141865
887.590	0.0142551
887.668	0.0142161
887.746	0.0141779
887.825	0.0142110
887.903	0.0142049
887.981	0.0143050
888.059	0.0141060
888.137	0.0142849
888.215	0.0142775
888.293	0.0142227
888.371	0.0142441
888.450	0.0141672
888.528	0.0142102
888.606	0.0143492
888.684	0.0140965
888.762	0.0141647
888.840	0.0142286
888.918	0.0140414
888.996	0.0140263
889.075	0.0141653
889.153	0.0141948
889.231	0.0141439
889.309	0.0142508
889.387	0.0141132
889.465	0.0142033
889.543	0.0141170
889.621	0.0142888
889.700	0.0141994
889.778	0.0142736
889.856	0.0141209
889.934	0.0141628
890.012	0.0141852
890.090	0.0143114
890.168	0.0142859
890.246	0.0140451
890.325	0.0140656
890.403	0.0142404
890.481	0.0142970
890.559	0.0140889
890.637	0.0141567
890.715	0.0141330
890.793	0.0141074
890.871	0.0143350
890.950	0.0141462
891.028	0.0142356
891.106	0.0142307
891.184	0.0142063
891.262	0.0141459
891.340	0.0142010
891.418	0.0142467
891.496	0.0142238
891.575	0.0142973
891.653	0.0142211
891.731	0.0141216
891.809	0.0142493
891.887	0.0142233
891.965	0.0140988
892.043	0.0142818
892.121	0.0142905
892.200	0.0141909
892.278	0.0141013
892.356	0.0142451
892.434	0.0142378
892.512	0.0141899
892.590	0.0143419
892.668	0.0141232
892.746	0.0142312
892.825	0.0143015
892.903	0.0142282
892.981	0.0141553
893.059	0.0142205
893.137	0.0142780
893.215	0.0143093
893.293	0.0142746
893.371	0.0142432
893.450	0.0142086
893.528	0.0142336
893.606	0.0142281
893.684	0.0143719
893.762	0.0142930
893.840	0.0142449
893.918	0.0141945
893.996	0.0142431
894.075	0.0141743
894.153	0.0140871
894.231	0.0141615
894.309	0.0142908
894.387	0.0142643
894.465	0.0141447
894.543	0.0143253
894.621	0.0142233
894.700	0.0142064
894.778	0.0142484
894.856	0.0142561
894.934	0.0142063
895.012	0.0142311
895.090	0.0143210
895.168	0.0143405
895.246	0.0141968
895.325	0.0142205
895.403	0.0143198
895.481	0.0141380
895.559	0.0140720
895.637	0.0141798
895.715	0.0142171
895.793	0.0141457
895.871	0.0141901
895.950	0.0142393
896.028	0.0141500
896.106	0.0141434
896.184	0.0141967
896.262	0.0142464
896.340	0.0143991
896.418	0.0142013
896.496	0.0142202
896.575	0.0142762
896.653	0.0141252
896.731	0.0141003
896.809	0.0140001
896.887	0.0140248
896.965	0.0142667
897.043	0.0141240
897.121	0.0140081
897.200	0.0141241
897.278	0.0141232
897.356	0.0141865
897.434	0.0140929
897.512	0.0141132
897.590	0.0140396
897.668	0.0142541
897.746	0.0140866
897.825	0.0141034
897.903	0.0142517
897.981	0.0141103
898.059	0.0143121
898.137	0.0139527
898.215	0.0142213
898.293	0.0142205
898.371	0.0142377
898.450	0.0141271
898.528	0.0141819
898.606	0.0141920
898.684	0.0141071
898.762	0.0140379
898.840	0.0140868
898.918	0.0142683
898.996	0.0141412
899.075	0.0140876
899.153	0.0142085
899.231	0.0140845
899.309	0.0140112
899.387	0.0141208
899.465	0.0140170
899.543	0.0140982
899.621	0.0142100
899.700	0.0141724
899.778	0.0141113
899.856	0.0140813
899.934	0.0139456
900.012	0.0142458
900.090	0.0143534
900.168	0.0141748
900.246	0.0140730
900.325	0.0143084
900.403	0.0142516
900.481	0.0140796
900.559	0.0141206
900.637	0.0142887
900.715	0.0141103
900.793	0.0141358
900.871	0.0141074
900.950	0.0141533
901.028	0.0140574
901.106	0.0141796
901.184	0.0140240
901.262	0.0140721
901.340	0.0140098
901.418	0.0140004
901.496	0.0141948
901.575	0.0140910
901.653	0.0140594
901.731	0.0142345
901.809	0.0142876
901.887	0.0142262
901.965	0.0140812
902.043	0.0142294
902.121	0.0143320
902.200	0.0141792
902.278	0.0141365
902.356	0.0142841
902.434	0.0143617
902.512	0.0142281
902.590	0.0142029
902.668	0.0140636
902.746	0.0141161
902.825	0.0141148
902.903	0.0141878
902.981	0.0141251
903.059	0.0142028
903.137	0.0141941
903.215	0.0141734
903.293	0.0141249
903.371	0.0141500
903.450	0.0142023
903.528	0.0141528
903.606	0.0141323
903.684	0.0142614
903.762	0.0143143
903.840	0.0142130
903.918	0.0141752
903.996	0.0142439
904.075	0.0141796
904.153	0.0141648
904.231	0.0142383
904.309	0.0141367
904.387	0.0141669
904.465	0.0141803
904.543	0.0141859
904.621	0.0143338
904.700	0.0142548
904.778	0.0142525
904.856	0.0141971
904.934	0.0143015
905.012	0.0141536
905.090	0.0142346
905.168	0.0140778
905.246	0.0141892
905.325	0.0141730
905.403	0.0141356
905.481	0.0142372
905.559	0.0142813
905.637	0.0142739
905.715	0.0140948
905.793	0.0142074
905.871	0.0141273
905.950	0.0140789
906.028	0.0141352
906.106	0.0143491
906.184	0.0142223
906.262	0.0141949
906.340	0.0142422
906.418	0.0142525
906.496	0.0142072
906.575	0.0143429
906.653	0.0142516
906.731	0.0141285
906.809	0.0141967
906.887	0.0140514
906.965	0.0142072
907.043	0.0141087
907.121	0.0140586
907.200	0.0141074
907.278	0.0140865
907.356	0.0140472
907.434	0.0141542
907.512	0.0141413
907.590	0.0140630
907.668	0.0142326
907.746	0.0141183
907.825	0.0141341
907.903	0.0143343
907.981	0.0142104
908.059	0.0142313
908.137	0.0140904
908.215	0.0142381
908.293	0.0142536
908.371	0.0142091
908.450	0.0141592
908.528	0.0141055
908.606	0.0141125
908.684	0.0141791
908.762	0.0142099
908.840	0.0143111
908.918	0.0140781
908.996	0.0141513
909.075	0.0142120
909.153	0.0141427
909.231	0.0140170
909.309	0.0141277
909.387	0.0141435
909.465	0.0139017
909.543	0.0139945
909.621	0.0141023
909.700	0.0140987
909.778	0.0141916
909.856	0.0140334
909.934	0.0140582
910.012	0.0140234
910.090	0.0141570
910.168	0.0142352
910.246	0.0140971
910.325	0.0140279
910.403	0.0141626
910.481	0.0141543
910.559	0.0140094
910.637	0.0142731
910.715	0.0141676
910.793	0.0142556
910.871	0.0141833
910.950	0.0143172
911.028	0.0141550
911.106	0.0141386
911.184	0.0141498
911.262	0.0141631
911.340	0.0141187
911.418	0.0142167
911.496	0.0141710
911.575	0.0140890
911.653	0.0140985
911.731	0.0140932
911.809	0.0141521
911.887	0.0141943
911.965	0.0141497
912.043	0.0141599
912.121	0.0141975
912.200	0.0141199
912.278	0.0142499
912.356	0.0143490
912.434	0.0143733
912.512	0.0142982
912.590	0.0141296
912.668	0.0143164
912.746	0.0141683
912.825	0.0142352
912.903	0.0140842
912.981	0.0141055
913.059	0.0141047
913.137	0.0141531
913.215	0.0140780
913.293	0.0140345
913.371	0.0141057
913.450	0.0141604
913.528	0.0140885
913.606	0.0141716
913.684	0.0141487
913.762	0.0142651
913.840	0.0142584
913.918	0.0143045
913.996	0.0143626
914.075	0.0143266
914.153	0.0143103
914.231	0.0144521
914.309	0.0143884
914.387	0.0144066
914.465	0.0142995
914.543	0.0142837
914.621	0.0142463
914.700	0.0141998
914.778	0.0142010
914.856	0.0142773
914.934	0.0140836
915.012	0.0142422
915.090	0.0141727
915.168	0.0141510
915.246	0.0140968
915.325	0.0140727
915.403	0.0141553
915.481	0.0141017
915.559	0.0140202
915.637	0.0141037
915.715	0.0142148
915.793	0.0143197
915.871	0.0144489
915.950	0.0142659
916.028	0.0141908
916.106	0.0143070
916.184	0.0142339
916.262	0.0141002
916.340	0.0141554
916.418	0.0141686
916.496	0.0143401
916.575	0.0141795
916.653	0.0141750
916.731	0.0141981
916.809	0.0141280
916.887	0.0140219
916.965	0.0139949
917.043	0.0141293
917.121	0.0142062
917.200	0.0142922
917.278	0.0142606
917.356	0.0140759
917.434	0.0140324
917.512	0.0142719
917.590	0.0143618
917.668	0.0143953
917.746	0.0142889
917.825	0.0143330
917.903	0.0142775
917.981	0.0143398
918.059	0.0143427
918.137	0.0143286
918.215	0.0143302
918.293	0.0142299
918.371	0.0142545
918.450	0.0142645
918.528	0.0142320
918.606	0.0141425
918.684	0.0142159
918.762	0.0141996
918.840	0.0141203
918.918	0.0141756
918.996	0.0142717
919.075	0.0142173
919.153	0.0141405
919.231	0.0141702
919.309	0.0141258
919.387	0.0141549
919.465	0.0143775
919.543	0.0144015
919.621	0.0142954
919.700	0.0142754
919.778	0.0143774
919.856	0.0142458
919.934	0.0141726
920.012	0.0142725
920.090	0.0141405
920.168	0.0141450
920.246	0.0141439
920.325	0.0140967
920.403	0.0141857
920.481	0.0141368
920.559	0.0141494
920.637	0.0138865
920.715	0.0140240
920.793	0.0141793
920.871	0.0140208
920.950	0.0139543
921.028	0.0141957
921.106	0.0141394
921.184	0.0141167
921.262	0.0141571
921.340	0.0141630
921.418	0.0142149
921.496	0.0141607
921.575	0.0142465
921.653	0.0143300
921.731	0.0143418
921.809	0.0142989
921.887	0.0142592
921.965	0.0142021
922.043	0.0142198
922.121	0.0143418
922.200	0.0143050
922.278	0.0141638
922.356	0.0142297
922.434	0.0142708
922.512	0.0142554
922.590	0.0140086
922.668	0.0141618
922.746	0.0141186
922.825	0.0140623
922.903	0.0141904
922.981	0.0141450
923.059	0.0141739
923.137	0.0142055
923.215	0.0142356
923.293	0.0140534
923.371	0.0141837
923.450	0.0140932
923.528	0.0142170
923.606	0.0142657
923.684	0.0141411
923.762	0.0141383
923.840	0.0140552
923.918	0.0142516
923.996	0.0143300
924.075	0.0143583
924.153	0.0141187
924.231	0.0142018
924.309	0.0140469
924.387	0.0141727
924.465	0.0143233
924.543	0.0142008
924.621	0.0141177
924.700	0.0141233
924.778	0.0141053
924.856	0.0141779
924.934	0.0141051
925.012	0.0141367
925.090	0.0141798
925.168	0.0142648
925.246	0.0143283
925.325	0.0143018
925.403	0.0142975
925.481	0.0142146
925.559	0.0141211
925.637	0.0142532
925.715	0.0142535
925.793	0.0142184
925.871	0.0143372
925.950	0.0142487
926.028	0.0142496
926.106	0.0141956
926.184	0.0141791
926.262	0.0141546
926.340	0.0142239
926.418	0.0141325
926.496	0.0142107
926.575	0.0140097
926.653	0.0141589
926.731	0.0142294
926.809	0.0142423
926.887	0.0142483
926.965	0.0141977
927.043	0.0142173
927.121	0.0142565
927.200	0.0141392
927.278	0.0141427
927.356	0.0141628
927.434	0.0141597
927.512	0.0142099
927.590	0.0141929
927.668	0.0141734
927.746	0.0141702
927.825	0.0140993
927.903	0.0141711
927.981	0.0142151
928.059	0.0140459
928.137	0.0141882
928.215	0.0140696
928.293	0.0142935
928.371	0.0142590
928.450	0.0140934
928.528	0.0141119
928.606	0.0141250
928.684	0.0143604
928.762	0.0142776
928.840	0.0140536
928.918	0.0141278
928.996	0.0140464
929.075	0.0142372
929.153	0.0141239
929.231	0.0141302
929.309	0.0143462
929.387	0.0141219
929.465	0.0140710
929.543	0.0143082
929.621	0.0142914
929.700	0.0142977
929.778	0.0142567
929.856	0.0143996
929.934	0.0142507
930.012	0.0142484
930.090	0.0143170
930.168	0.0142857
930.246	0.0142303
930.325	0.0141862
930.403	0.0141692
930.481	0.0142376
930.559	0.0143752
930.637	0.0142918
930.715	0.0143648
930.793	0.0141164
930.871	0.0141791
930.950	0.0143401
931.028	0.0141361
931.106	0.0142323
931.184	0.0142454
931.262	0.0141620
931.340	0.0141216
931.418	0.0142703
931.496	0.0141702
931.575	0.0140592
931.653	0.0141000
931.731	0.0140659
931.809	0.0140811
931.887	0.0140342
931.965	0.0141877
932.043	0.0140982
932.121	0.0142486
932.200	0.0141068
932.278	0.0140992
932.356	0.0143174
932.434	0.0142598
932.512	0.0142815
932.590	0.0143629
932.668	0.0143348
932.746	0.0143085
932.825	0.0145019
932.903	0.0143177
932.981	0.0141463
933.059	0.0143128
933.137	0.0142207
933.215	0.0142512
933.293	0.0141861
933.371	0.0141537
933.450	0.0140979
933.528	0.0140551
933.606	0.0142193
933.684	0.0141137
933.762	0.0141135
933.840	0.0141844
933.918	0.0140773
933.996	0.0142134
934.075	0.0141665
934.153	0.0141335
934.231	0.0143269
934.309	0.0142416
934.387	0.0142286
934.465	0.0142825
934.543	0.0141035
934.621	0.0142455
934.700	0.0143523
934.778	0.0142305
934.856	0.0142177
934.934	0.0141779
935.012	0.0142504
935.090	0.0143800
935.168	0.0142938
935.246	0.0143372
935.325	0.0142098
935.403	0.0143691
935.481	0.0143280
935.559	0.0143262
935.637	0.0143106
935.715	0.0142185
935.793	0.0142992
935.871	0.0142954
935.950	0.0142714
936.028	0.0141473
936.106	0.0143550
936.184	0.0143159
936.262	0.0142362
936.340	0.0143221
936.418	0.0143076
936.496	0.0143176
936.575	0.0141857
936.653	0.0144299
936.731	0.0143658
936.809	0.0143375
936.887	0.0142310
936.965	0.0142827
937.043	0.0144218
937.121	0.0143285
937.200	0.0144450
937.278	0.0142764
937.356	0.0143083
937.434	0.0142127
937.512	0.0142829
937.590	0.0142999
937.668	0.0141907
937.746	0.0142562
937.825	0.0142326
937.903	0.0142685
937.981	0.0141921
938.059	0.0141756
938.137	0.0142434
938.215	0.0142647
938.293	0.0142417
938.371	0.0142287
938.450	0.0142677
938.528	0.0143281
938.606	0.0141351
938.684	0.0143681
938.762	0.0144248
938.840	0.0142192
938.918	0.0142824
938.996	0.0143595
939.075	0.0142538
939.153	0.0142628
939.231	0.0142387
939.309	0.0144003
939.387	0.0143115
939.465	0.0143822
939.543	0.0142181
939.621	0.0141911
939.700	0.0141714
939.778	0.0141145
939.856	0.0141545
939.934	0.0142469
940.012	0.0141985
940.090	0.0141772
940.168	0.0142791
940.246	0.0142046
940.325	0.0142536
940.403	0.0142853
940.481	0.0142760
940.559	0.0142210
940.637	0.0142223
940.715	0.0141511
940.793	0.0142876
940.871	0.0142182
940.950	0.0142042
941.028	0.0142543
941.106	0.0143251
941.184	0.0142989
941.262	0.0142722
941.340	0.0141824
941.418	0.0141559
941.496	0.0141899
941.575	0.0140437
941.653	0.0141953
941.731	0.0142071
941.809	0.0143008
941.887	0.0143539
941.965	0.0142042
942.043	0.0141464
942.121	0.0143055
942.200	0.0142093
942.278	0.0142570
942.356	0.0142554
942.434	0.0142300
942.512	0.0141696
942.590	0.0141663
942.668	0.0142661
942.746	0.0143982
942.825	0.0143542
942.903	0.0141647
942.981	0.0141147
943.059	0.0142667
943.137	0.0141576
943.215	0.0140971
943.293	0.0142161
943.371	0.0141702
943.450	0.0142321
943.528	0.0141758
943.606	0.0140569
943.684	0.0140903
943.762	0.0141389
943.840	0.0140963
943.918	0.0142061
943.996	0.0140746
944.075	0.0142027
944.153	0.0142546
944.231	0.0141874
944.309	0.0141653
944.387	0.0141255
944.465	0.0141530
944.543	0.0141515
944.621	0.0141154
944.700	0.0142145
944.778	0.0140361
944.856	0.0140719
944.934	0.0141279
945.012	0.0141285
945.090	0.0141666
945.168	0.0143074
945.246	0.0141164
945.325	0.0140948
945.403	0.0141647
945.481	0.0142351
945.559	0.0141840
945.637	0.0141552
945.715	0.0141857
945.793	0.0140694
945.871	0.0140409
945.950	0.0142690
946.028	0.0141460
946.106	0.0142060
946.184	0.0143774
946.262	0.0141881
946.340	0.0140661
946.418	0.0142714
946.496	0.0141593
946.575	0.0142390
946.653	0.0141931
946.731	0.0142862
946.809	0.0141579
946.887	0.0141354
946.965	0.0142673
947.043	0.0141211
947.121	0.0141611
947.200	0.0141566
947.278	0.0140704
947.356	0.0141969
947.434	0.0140972
947.512	0.0142108
947.590	0.0141368
947.668	0.0141431
947.746	0.0141032
947.825	0.0142721
947.903	0.0142625
947.981	0.0141936
948.059	0.0142882
948.137	0.0142012
948.215	0.0142205
948.293	0.0142370
948.371	0.0142301
948.450	0.0141685
948.528	0.0141883
948.606	0.0141946
948.684	0.0142116
948.762	0.0142691
948.840	0.0141472
948.918	0.0143964
948.996	0.0142648
949.075	0.0142264
949.153	0.0142101
949.231	0.0142684
949.309	0.0143037
949.387	0.0140913
949.465	0.0142251
949.543	0.0141418
949.621	0.0142448
949.700	0.0142668
949.778	0.0143092
949.856	0.0141884
949.934	0.0143480
950.012	0.0143584
950.090	0.0143244
950.168	0.0141505
950.246	0.0140867
950.325	0.0141484
950.403	0.0140479
950.481	0.0141639
950.559	0.0143082
950.637	0.0141205
950.715	0.0142519
950.793	0.0142645
950.871	0.0142293
950.950	0.0142711
951.028	0.0144309
951.106	0.0142545
951.184	0.0143182
951.262	0.0142699
951.340	0.0143052
951.418	0.0142337
951.496	0.0141873
951.575	0.0142336
951.653	0.0142638
951.731	0.0142706
951.809	0.0142077
951.887	0.0141998
951.965	0.0142093
952.043	0.0141613
952.121	0.0142892
952.200	0.0141935
952.278	0.0143277
952.356	0.0142021
952.434	0.0141753
952.512	0.0142375
952.590	0.0142084
952.668	0.0142752
952.746	0.0142191
952.825	0.0143650
952.903	0.0142079
952.981	0.0141502
953.059	0.0141239
953.137	0.0142493
953.215	0.0142885
953.293	0.0142659
953.371	0.0142522
953.450	0.0142181
953.528	0.0142755
953.606	0.0140757
953.684	0.0141559
953.762	0.0141706
953.840	0.0141725
953.918	0.0141605
953.996	0.0141605
954.075	0.0141359
954.153	0.0141996
954.231	0.0141755
954.309	0.0141324
954.387	0.0141611
954.465	0.0140269
954.543	0.0140889
954.621	0.0141216
954.700	0.0143143
954.778	0.0140293
954.856	0.0140942
954.934	0.0140548
955.012	0.0139977
955.090	0.0140556
955.168	0.0141376
955.246	0.0142578
955.325	0.0141186
955.403	0.0142310
955.481	0.0142094
955.559	0.0142831
955.637	0.0141849
955.715	0.0142049
955.793	0.0142989
955.871	0.0140913
955.950	0.0141599
956.028	0.0142846
956.106	0.0141938
956.184	0.0141822
956.262	0.0141917
956.340	0.0141254
956.418	0.0141662
956.496	0.0141467
956.575	0.0142013
956.653	0.0140465
956.731	0.0141460
956.809	0.0141874
956.887	0.0141670
956.965	0.0140939
957.043	0.0140861
957.121	0.0141308
957.200	0.0142480
957.278	0.0143324
957.356	0.0143400
957.434	0.0143220
957.512	0.0142236
957.590	0.0142995
957.668	0.0143507
957.746	0.0144072
957.825	0.0142815
957.903	0.0142448
957.981	0.0142809
958.059	0.0141629
958.137	0.0143778
958.215	0.0142555
958.293	0.0143125
958.371	0.0140027
958.450	0.0141962
958.528	0.0141644
958.606	0.0140334
958.684	0.0142233
958.762	0.0141533
958.840	0.0141312
958.918	0.0141762
958.996	0.0142522
959.075	0.0140554
959.153	0.0141809
959.231	0.0142226
959.309	0.0143607
959.387	0.0141351
959.465	0.0140722
959.543	0.0142308
959.621	0.0143130
959.700	0.0142825
959.778	0.0142599
959.856	0.0141685
959.934	0.0142496
960.012	0.0143199
960.090	0.0142043
960.168	0.0143087
960.246	0.0143230
960.325	0.0143106
960.403	0.0142648
960.481	0.0141870
960.559	0.0141757
960.637	0.0142183
960.715	0.0142301
960.793	0.0141717
960.871	0.0142290
960.950	0.0143218
961.028	0.0142247
961.106	0.0142027
961.184	0.0142826
961.262	0.0144048
961.340	0.0143011
961.418	0.0143265
961.496	0.0143791
961.575	0.0143033
961.653	0.0143672
961.731	0.0142058
961.809	0.0144070
961.887	0.0142451
961.965	0.0141328
962.043	0.0144828
962.121	0.0143169
962.200	0.0142226
962.278	0.0142027
962.356	0.0142669
962.434	0.0142245
962.512	0.0142038
962.590	0.0141021
962.668	0.0141129
962.746	0.0140744
962.825	0.0141646
962.903	0.0142249
962.981	0.0141489
963.059	0.0141899
963.137	0.0141974
963.215	0.0141936
963.293	0.0139873
963.371	0.0140829
963.450	0.0141832
963.528	0.0141422
963.606	0.0141737
963.684	0.0141951
963.762	0.0140788
963.840	0.0141687
963.918	0.0142908
963.996	0.0142630
964.075	0.0142851
964.153	0.0142884
964.231	0.0141666
964.309	0.0142538
964.387	0.0142121
964.465	0.0141975
964.543	0.0141423
964.621	0.0141862
964.700	0.0139846
964.778	0.0139428
964.856	0.0141147
964.934	0.0139816
965.012	0.0140182
965.090	0.0140623
965.168	0.0141736
965.246	0.0141296
965.325	0.0141291
965.403	0.0140875
965.481	0.0140047
965.559	0.0140901
965.637	0.0141088
965.715	0.0142023
965.793	0.0141240
965.871	0.0142208
965.950	0.0141367
966.028	0.0141613
966.106	0.0141294
966.184	0.0140289
966.262	0.0141608
966.340	0.0142347
966.418	0.0141698
966.496	0.0141316
966.575	0.0142843
966.653	0.0142854
966.731	0.0140591
966.809	0.0140904
966.887	0.0141811
966.965	0.0142325
967.043	0.0140437
967.121	0.0142081
967.200	0.0141519
967.278	0.0140971
967.356	0.0141346
967.434	0.0141366
967.512	0.0142188
967.590	0.0142097
967.668	0.0140335
967.746	0.0141775
967.825	0.0142740
967.903	0.0143141
967.981	0.0142649
968.059	0.0142952
968.137	0.0142143
968.215	0.0141744
968.293	0.0142041
968.371	0.0141992
968.450	0.0141243
968.528	0.0141562
968.606	0.0141462
968.684	0.0141532
968.762	0.0141510
968.840	0.0141280
968.918	0.0140459
968.996	0.0141368
969.075	0.0141253
969.153	0.0141660
969.231	0.0141587
969.309	0.0141913
969.387	0.0140315
969.465	0.0141815
969.543	0.0140038
969.621	0.0140542
969.700	0.0141504
969.778	0.0142606
969.856	0.0141505
969.934	0.0141634
970.012	0.0142590
970.090	0.0141428
970.168	0.0143652
970.246	0.0140633
970.325	0.0142738
970.403	0.0141621
970.481	0.0143082
970.559	0.0142518
970.637	0.0141984
970.715	0.0141187
970.793	0.0141802
970.871	0.0142139
970.950	0.0142602
971.028	0.0142531
971.106	0.0142757
971.184	0.0141691
971.262	0.0142809
971.340	0.0141518
971.418	0.0141480
971.496	0.0142210
971.575	0.0142278
971.653	0.0141972
971.731	0.0142110
971.809	0.0141981
971.887	0.0142074
971.965	0.0142747
972.043	0.0142587
972.121	0.0142194
972.200	0.0143176
972.278	0.0143114
972.356	0.0142752
972.434	0.0142610
972.512	0.0142422
972.590	0.0143158
972.668	0.0144293
972.746	0.0142326
972.825	0.0141867
972.903	0.0142346
972.981	0.0142893
973.059	0.0140939
973.137	0.0142615
973.215	0.0142572
973.293	0.0140755
973.371	0.0142047
973.450	0.0140917
973.528	0.0141841
973.606	0.0142657
973.684	0.0142109
973.762	0.0141668
973.840	0.0141717
973.918	0.0140947
973.996	0.0142230
974.075	0.0141743
974.153	0.0143451
974.231	0.0144218
974.309	0.0142792
974.387	0.0141593
974.465	0.0142736
974.543	0.0142146
974.621	0.0143206
974.700	0.0142119
974.778	0.0141991
974.856	0.0142268
974.934	0.0141182
975.012	0.0141359
975.090	0.0142279
975.168	0.0142899
975.246	0.0141646
975.325	0.0140002
975.403	0.0141503
975.481	0.0140546
975.559	0.0141461
975.637	0.0140999
975.715	0.0139571
975.793	0.0141094
975.871	0.0142267
975.950	0.0142169
976.028	0.0140639
976.106	0.0142271
976.184	0.0141975
976.262	0.0142458
976.340	0.0142511
976.418	0.0142588
976.496	0.0143007
976.575	0.0143571
976.653	0.0142397
976.731	0.0142822
976.809	0.0143602
976.887	0.0141966
976.965	0.0142489
977.043	0.0140533
977.121	0.0140546
977.200	0.0142331
977.278	0.0141792
977.356	0.0140761
977.434	0.0140627
977.512	0.0141370
977.590	0.0140712
977.668	0.0141713
977.746	0.0140070
977.825	0.0141664
977.903	0.0140790
977.981	0.0141022
978.059	0.0142074
978.137	0.0143083
978.215	0.0140578
978.293	0.0142985
978.371	0.0143732
978.450	0.0143577
978.528	0.0143166
978.606	0.0143151
978.684	0.0143522
978.762	0.0142948
978.840	0.0142625
978.918	0.0142892
978.996	0.0142964
979.075	0.0141690
979.153	0.0142379
979.231	0.0141910
979.309	0.0141406
979.387	0.0140775
979.465	0.0140400
979.543	0.0140682
979.621	0.0140633
979.700	0.0141137
979.778	0.0141785
979.856	0.0141662
979.934	0.0139951
980.012	0.0141634
980.090	0.0142158
980.168	0.0141102
980.246	0.0141827
980.325	0.0142588
980.403	0.0143233
980.481	0.0142757
980.559	0.0142083
980.637	0.0140703
980.715	0.0141834
980.793	0.0142073
980.871	0.0141519
980.950	0.0142603
981.028	0.0142930
981.106	0.0143194
981.184	0.0142004
981.262	0.0140172
981.340	0.0142365
981.418	0.0141880
981.496	0.0141469
981.575	0.0141568
981.653	0.0140908
981.731	0.0140554
981.809	0.0141700
981.887	0.0141363
981.965	0.0141428
982.043	0.0141048
982.121	0.0140723
982.200	0.0142377
982.278	0.0140597
982.356	0.0141404
982.434	0.0141432
982.512	0.0141404
982.590	0.0141465
982.668	0.0143083
982.746	0.0142405
982.825	0.0140568
982.903	0.0140776
982.981	0.0142683
983.059	0.0143390
983.137	0.0142355
983.215	0.0141772
983.293	0.0141795
983.371	0.0138824
983.450	0.0142500
983.528	0.0142651
983.606	0.0140672
983.684	0.0141635
983.762	0.0141393
983.840	0.0141383
983.918	0.0141608
983.996	0.0140406
984.075	0.0139960
984.153	0.0140160
984.231	0.0139855
984.309	0.0140656
984.387	0.0141446
984.465	0.0142189
984.543	0.0141800
984.621	0.0141660
984.700	0.0140721
984.778	0.0141269
984.856	0.0140839
984.934	0.0142389
985.012	0.0142255
985.090	0.0141993
985.168	0.0142191
985.246	0.0142033
985.325	0.0142428
985.403	0.0142629
985.481	0.0141753
985.559	0.0141767
985.637	0.0141525
985.715	0.0142460
985.793	0.0141583
985.871	0.0141536
985.950	0.0141904
986.028	0.0141074
986.106	0.0142832
986.184	0.0141443
986.262	0.0141631
986.340	0.0141642
986.418	0.0142273
986.496	0.0142327
986.575	0.0141554
986.653	0.0142783
986.731	0.0141668
986.809	0.0142475
986.887	0.0142486
986.965	0.0141834
987.043	0.0143565
987.121	0.0143013
987.200	0.0142113
987.278	0.0142237
987.356	0.0142362
987.434	0.0144200
987.512	0.0141985
987.590	0.0141244
987.668	0.0142555
987.746	0.0142303
987.825	0.0142070
987.903	0.0141302
987.981	0.0140439
988.059	0.0141144
988.137	0.0142446
988.215	0.0141291
988.293	0.0142078
988.371	0.0142641
988.450	0.0142491
988.528	0.0141721
988.606	0.0142233
988.684	0.0142357
988.762	0.0141772
988.840	0.0142927
988.918	0.0142129
988.996	0.0143163
989.075	0.0141319
989.153	0.0142788
989.231	0.0141885
989.309	0.0142361
989.387	0.0142370
989.465	0.0141798
989.543	0.0141004
989.621	0.0141637
989.700	0.0142865
989.778	0.0141683
989.856	0.0141406
989.934	0.0140607
990.012	0.0141547
990.090	0.0141873
990.168	0.0140048
990.246	0.0139909
990.325	0.0139972
990.403	0.0141170
990.481	0.0141685
990.559	0.0141053
990.637	0.0140330
990.715	0.0141102
990.793	0.0141448
990.871	0.0141287
990.950	0.0142264
991.028	0.0140887
991.106	0.0140622
991.184	0.0141281
991.262	0.0142673
991.340	0.0142341
991.418	0.0141337
991.496	0.0140126
991.575	0.0141277
991.653	0.0142192
991.731	0.0142862
991.809	0.0142502
991.887	0.0141599
991.965	0.0140832
992.043	0.0139816
992.121	0.0140841
992.200	0.0140473
992.278	0.0142065
992.356	0.0141396
992.434	0.0141237
992.512	0.0141276
992.590	0.0142169
992.668	0.0140860
992.746	0.0141263
992.825	0.0142204
992.903	0.0140955
992.981	0.0141049
993.059	0.0140712
993.137	0.0142555
993.215	0.0142464
993.293	0.0140397
993.371	0.0142569
993.450	0.0140973
993.528	0.0140231
993.606	0.0141972
993.684	0.0142415
993.762	0.0141206
993.840	0.0140814
993.918	0.0140421
993.996	0.0140239
994.075	0.0140917
994.153	0.0142226
994.231	0.0141663
994.309	0.0140670
994.387	0.0142063
994.465	0.0142039
994.543	0.0143054
994.621	0.0141644
994.700	0.0141574
994.778	0.0141338
994.856	0.0142438
994.934	0.0141999
995.012	0.0141830
995.090	0.0141316
995.168	0.0142384
995.246	0.0141501
995.325	0.0141675
995.403	0.0140678
995.481	0.0143047
995.559	0.0141057
995.637	0.0140798
995.715	0.0141278
995.793	0.0140945
995.871	0.0140263
995.950	0.0141790
996.028	0.0141556
996.106	0.0140667
996.184	0.0141027
996.262	0.0140617
996.340	0.0141522
996.418	0.0142400
996.496	0.0142204
996.575	0.0140788
996.653	0.0142627
996.731	0.0141730
996.809	0.0141976
996.887	0.0142399
996.965	0.0143847
997.043	0.0143256
997.121	0.0142745
997.200	0.0140615
997.278	0.0141394
997.356	0.0141999
997.434	0.0142156
997.512	0.0142065
997.590	0.0142842
997.668	0.0142778
997.746	0.0142856
997.825	0.0140905
997.903	0.0140796
997.981	0.0142223
998.059	0.0143217
998.137	0.0141354
998.215	0.0140308
998.293	0.0143011
998.371	0.0140997
998.450	0.0143005
998.528	0.0141699
998.606	0.0140613
998.684	0.0141503
998.762	0.0142167
998.840	0.0140426
998.918	0.0141839
