05/04/2022	20:54:41	Ver.	4.1	UNKNOWN
Optical Delay	678.996401	Delta X		0.078125	Sweeps	1	Scan Rate	0/0
Coordinates	Axis 1	NaN	Axis 2	NaN	Axis 3	NaN	Axis 4	NaN	Axis 5	NaN	Axis 6	0.000000
TX Power	0.000000	RX Power	0.000000

678.996	0.0142757
679.075	0.0141791
679.153	0.0142714
679.231	0.0141930
679.309	0.0143775
679.387	0.0143799
679.465	0.0142513
679.543	0.0142094
679.621	0.0142117
679.700	0.0142128
679.778	0.0143826
679.856	0.0142686
679.934	0.0142884
680.012	0.0141798
680.090	0.0142793
680.168	0.0144426
680.246	0.0143941
680.325	0.0141096
680.403	0.0142233
680.481	0.0143034
680.559	0.0143706
680.637	0.0144031
680.715	0.0143724
680.793	0.0142522
680.871	0.0141962
680.950	0.0141456
681.028	0.0142294
681.106	0.0142559
681.184	0.0142345
681.262	0.0144355
681.340	0.0143468
681.418	0.0140807
681.496	0.0143061
681.575	0.0143055
681.653	0.0142530
681.731	0.0142649
681.809	0.0142992
681.887	0.0142663
681.965	0.0142690
682.043	0.0143371
682.121	0.0143008
682.200	0.0143264
682.278	0.0142716
682.356	0.0143085
682.434	0.0142735
682.512	0.0143913
682.590	0.0144202
682.668	0.0142953
682.746	0.0143172
682.825	0.0142481
682.903	0.0141802
682.981	0.0142887
683.059	0.0143189
683.137	0.0142313
683.215	0.0142694
683.293	0.0142805
683.371	0.0143320
683.450	0.0143720
683.528	0.0141715
683.606	0.0142688
683.684	0.0143469
683.762	0.0142638
683.840	0.0142274
683.918	0.0141127
683.996	0.0144272
684.075	0.0143752
684.153	0.0142233
684.231	0.0142574
684.309	0.0143517
684.387	0.0142455
684.465	0.0143464
684.543	0.0142853
684.621	0.0141967
684.700	0.0141746
684.778	0.0143153
684.856	0.0142625
684.934	0.0140913
685.012	0.0143019
685.090	0.0143861
685.168	0.0141808
685.246	0.0142467
685.325	0.0143246
685.403	0.0144064
685.481	0.0142235
685.559	0.0142516
685.637	0.0144249
685.715	0.0142303
685.793	0.0142591
685.871	0.0141612
685.950	0.0143891
686.028	0.0142792
686.106	0.0142590
686.184	0.0141964
686.262	0.0142536
686.340	0.0143810
686.418	0.0144486
686.496	0.0143224
686.575	0.0142449
686.653	0.0142803
686.731	0.0142597
686.809	0.0141148
686.887	0.0143962
686.965	0.0141972
687.043	0.0141744
687.121	0.0142809
687.200	0.0142884
687.278	0.0142889
687.356	0.0142200
687.434	0.0143208
687.512	0.0144131
687.590	0.0142489
687.668	0.0142480
687.746	0.0143568
687.825	0.0142702
687.903	0.0141650
687.981	0.0142879
688.059	0.0143452
688.137	0.0142996
688.215	0.0142339
688.293	0.0141489
688.371	0.0143649
688.450	0.0142561
688.528	0.0142369
688.606	0.0143623
688.684	0.0143528
688.762	0.0143134
688.840	0.0143505
688.918	0.0142323
688.996	0.0141166
689.075	0.0142916
689.153	0.0142875
689.231	0.0143111
689.309	0.0141468
689.387	0.0142884
689.465	0.0141833
689.543	0.0142554
689.621	0.0143665
689.700	0.0144188
689.778	0.0143264
689.856	0.0142965
689.934	0.0143726
690.012	0.0143603
690.090	0.0144041
690.168	0.0142691
690.246	0.0142090
690.325	0.0143481
690.403	0.0141995
690.481	0.0142880
690.559	0.0142368
690.637	0.0144357
690.715	0.0144060
690.793	0.0143182
690.871	0.0143208
690.950	0.0142730
691.028	0.0143436
691.106	0.0142934
691.184	0.0141981
691.262	0.0143552
691.340	0.0142551
691.418	0.0143313
691.496	0.0142759
691.575	0.0143933
691.653	0.0143641
691.731	0.0144432
691.809	0.0143430
691.887	0.0144295
691.965	0.0142897
692.043	0.0142960
692.121	0.0142439
692.200	0.0143454
692.278	0.0142306
692.356	0.0142815
692.434	0.0144229
692.512	0.0142578
692.590	0.0143523
692.668	0.0144761
692.746	0.0143215
692.825	0.0142049
692.903	0.0142374
692.981	0.0141695
693.059	0.0142675
693.137	0.0142866
693.215	0.0143349
693.293	0.0143258
693.371	0.0141669
693.450	0.0143727
693.528	0.0143492
693.606	0.0141682
693.684	0.0144170
693.762	0.0144029
693.840	0.0144379
693.918	0.0143236
693.996	0.0143377
694.075	0.0142534
694.153	0.0143001
694.231	0.0142030
694.309	0.0143729
694.387	0.0143634
694.465	0.0143476
694.543	0.0142781
694.621	0.0143483
694.700	0.0143061
694.778	0.0143645
694.856	0.0143569
694.934	0.0142841
695.012	0.0142870
695.090	0.0143333
695.168	0.0143523
695.246	0.0142579
695.325	0.0143041
695.403	0.0141753
695.481	0.0144113
695.559	0.0142818
695.637	0.0142770
695.715	0.0143868
695.793	0.0142436
695.871	0.0142654
695.950	0.0141750
696.028	0.0144095
696.106	0.0142814
696.184	0.0143011
696.262	0.0143991
696.340	0.0142831
696.418	0.0143069
696.496	0.0143842
696.575	0.0143707
696.653	0.0143256
696.731	0.0143636
696.809	0.0142838
696.887	0.0143459
696.965	0.0142903
697.043	0.0142701
697.121	0.0142625
697.200	0.0143900
697.278	0.0141672
697.356	0.0144341
697.434	0.0143741
697.512	0.0142157
697.590	0.0142582
697.668	0.0143652
697.746	0.0143976
697.825	0.0143990
697.903	0.0142563
697.981	0.0144165
698.059	0.0142457
698.137	0.0143935
698.215	0.0143520
698.293	0.0142713
698.371	0.0143552
698.450	0.0142262
698.528	0.0142544
698.606	0.0143078
698.684	0.0143977
698.762	0.0142108
698.840	0.0142217
698.918	0.0143171
698.996	0.0143615
699.075	0.0142384
699.153	0.0141808
699.231	0.0142503
699.309	0.0142708
699.387	0.0142252
699.465	0.0143362
699.543	0.0142777
699.621	0.0143501
699.700	0.0143048
699.778	0.0144162
699.856	0.0142416
699.934	0.0141880
700.012	0.0142269
700.090	0.0143689
700.168	0.0142715
700.246	0.0142174
700.325	0.0142978
700.403	0.0142592
700.481	0.0141847
700.559	0.0142952
700.637	0.0142104
700.715	0.0142185
700.793	0.0142801
700.871	0.0143308
700.950	0.0143174
701.028	0.0141630
701.106	0.0141817
701.184	0.0142561
701.262	0.0142905
701.340	0.0143658
701.418	0.0143491
701.496	0.0142696
701.575	0.0142672
701.653	0.0142216
701.731	0.0142289
701.809	0.0142415
701.887	0.0142023
701.965	0.0143123
702.043	0.0141956
702.121	0.0143311
702.200	0.0142120
702.278	0.0143269
702.356	0.0142229
702.434	0.0142584
702.512	0.0143222
702.590	0.0142458
702.668	0.0141868
702.746	0.0142933
702.825	0.0142861
702.903	0.0143602
702.981	0.0142607
703.059	0.0143021
703.137	0.0142495
703.215	0.0141178
703.293	0.0142880
703.371	0.0142790
703.450	0.0142534
703.528	0.0142604
703.606	0.0144138
703.684	0.0143820
703.762	0.0143532
703.840	0.0142226
703.918	0.0141748
703.996	0.0141368
704.075	0.0140808
704.153	0.0142075
704.231	0.0142657
704.309	0.0141579
704.387	0.0143334
704.465	0.0142052
704.543	0.0141916
704.621	0.0140993
704.700	0.0142587
704.778	0.0143773
704.856	0.0143031
704.934	0.0142086
705.012	0.0142110
705.090	0.0144029
705.168	0.0143621
705.246	0.0141782
705.325	0.0142875
705.403	0.0141323
705.481	0.0142276
705.559	0.0143011
705.637	0.0143837
705.715	0.0143603
705.793	0.0143225
705.871	0.0142896
705.950	0.0143247
706.028	0.0142638
706.106	0.0141919
706.184	0.0143541
706.262	0.0142747
706.340	0.0142268
706.418	0.0142194
706.496	0.0143024
706.575	0.0142841
706.653	0.0141950
706.731	0.0142973
706.809	0.0143232
706.887	0.0143344
706.965	0.0141659
707.043	0.0143414
707.121	0.0141074
707.200	0.0142645
707.278	0.0141659
707.356	0.0144930
707.434	0.0143014
707.512	0.0142770
707.590	0.0143159
707.668	0.0141637
707.746	0.0142381
707.825	0.0143707
707.903	0.0141554
707.981	0.0142352
708.059	0.0143008
708.137	0.0143564
708.215	0.0142770
708.293	0.0142606
708.371	0.0143802
708.450	0.0142984
708.528	0.0141248
708.606	0.0142767
708.684	0.0141716
708.762	0.0142030
708.840	0.0143780
708.918	0.0143801
708.996	0.0142227
709.075	0.0142789
709.153	0.0143414
709.231	0.0142288
709.309	0.0142086
709.387	0.0142320
709.465	0.0141063
709.543	0.0141184
709.621	0.0142118
709.700	0.0142294
709.778	0.0141853
709.856	0.0142785
709.934	0.0142107
710.012	0.0142340
710.090	0.0141059
710.168	0.0140878
710.246	0.0141807
710.325	0.0143476
710.403	0.0143899
710.481	0.0144781
710.559	0.0146032
710.637	0.0146750
710.715	0.0145426
710.793	0.0145230
710.871	0.0142728
710.950	0.0141914
711.028	0.0140742
711.106	0.0138482
711.184	0.0138781
711.262	0.0140124
711.340	0.0139586
711.418	0.0142211
711.496	0.0143230
711.575	0.0143545
711.653	0.0144753
711.731	0.0144714
711.809	0.0143621
711.887	0.0143283
711.965	0.0142560
712.043	0.0143111
712.121	0.0141718
712.200	0.0142006
712.278	0.0142526
712.356	0.0141808
712.434	0.0143400
712.512	0.0144572
712.590	0.0146724
712.668	0.0145986
712.746	0.0146753
712.825	0.0146255
712.903	0.0145471
712.981	0.0147649
713.059	0.0145401
713.137	0.0144682
713.215	0.0143460
713.293	0.0141611
713.371	0.0140246
713.450	0.0140241
713.528	0.0140454
713.606	0.0141467
713.684	0.0141103
713.762	0.0141458
713.840	0.0141348
713.918	0.0143224
713.996	0.0143319
714.075	0.0142770
714.153	0.0144844
714.231	0.0143510
714.309	0.0145506
714.387	0.0147045
714.465	0.0148321
714.543	0.0148498
714.621	0.0147931
714.700	0.0147491
714.778	0.0145470
714.856	0.0143831
714.934	0.0139593
715.012	0.0136253
715.090	0.0133031
715.168	0.0130439
715.246	0.0127573
715.325	0.0125436
715.403	0.0125855
715.481	0.0128295
715.559	0.0129214
715.637	0.0133310
715.715	0.0137551
715.793	0.0141823
715.871	0.0144727
715.950	0.0149135
716.028	0.0151359
716.106	0.0151843
716.184	0.0150410
716.262	0.0151582
716.340	0.0150519
716.418	0.0146265
716.496	0.0144334
716.575	0.0141982
716.653	0.0140381
716.731	0.0138917
716.809	0.0140147
716.887	0.0139120
716.965	0.0138727
717.043	0.0138912
717.121	0.0141759
717.200	0.0144926
717.278	0.0147614
717.356	0.0149567
717.434	0.0150322
717.512	0.0152840
717.590	0.0154774
717.668	0.0155360
717.746	0.0154675
717.825	0.0152845
717.903	0.0152545
717.981	0.0150501
718.059	0.0146059
718.137	0.0142142
718.215	0.0136882
718.293	0.0135172
718.371	0.0132439
718.450	0.0128854
718.528	0.0127746
718.606	0.0128090
718.684	0.0130125
718.762	0.0134702
718.840	0.0139527
718.918	0.0142875
718.996	0.0146970
719.075	0.0150782
719.153	0.0153022
719.231	0.0155164
719.309	0.0153638
719.387	0.0153111
719.465	0.0150459
719.543	0.0146633
719.621	0.0143364
719.700	0.0139628
719.778	0.0136639
719.856	0.0135430
719.934	0.0133744
720.012	0.0133540
720.090	0.0133369
720.168	0.0137962
720.246	0.0139460
720.325	0.0142078
720.403	0.0142251
720.481	0.0145654
720.559	0.0147836
720.637	0.0148946
720.715	0.0148011
720.793	0.0147637
720.871	0.0147984
720.950	0.0145634
721.028	0.0142892
721.106	0.0140531
721.184	0.0138762
721.262	0.0136196
721.340	0.0131944
721.418	0.0130698
721.496	0.0127965
721.575	0.0126974
721.653	0.0128905
721.731	0.0131473
721.809	0.0134264
721.887	0.0139162
721.965	0.0142804
722.043	0.0147766
722.121	0.0150767
722.200	0.0155268
722.278	0.0158507
722.356	0.0158697
722.434	0.0157520
722.512	0.0157005
722.590	0.0155151
722.668	0.0152950
722.746	0.0152850
722.825	0.0148505
722.903	0.0145436
722.981	0.0142536
723.059	0.0139080
723.137	0.0137328
723.215	0.0134559
723.293	0.0133080
723.371	0.0130915
723.450	0.0130795
723.528	0.0132025
723.606	0.0133369
723.684	0.0133996
723.762	0.0138369
723.840	0.0141434
723.918	0.0145520
723.996	0.0149837
724.075	0.0152376
724.153	0.0154449
724.231	0.0155869
724.309	0.0156999
724.387	0.0156709
724.465	0.0155400
724.543	0.0152766
724.621	0.0150483
724.700	0.0145615
724.778	0.0143257
724.856	0.0140718
724.934	0.0137597
725.012	0.0136054
725.090	0.0132973
725.168	0.0131018
725.246	0.0130036
725.325	0.0128489
725.403	0.0130381
725.481	0.0131329
725.559	0.0132319
725.637	0.0136004
725.715	0.0140051
725.793	0.0143949
725.871	0.0145936
725.950	0.0147347
726.028	0.0149458
726.106	0.0151254
726.184	0.0152869
726.262	0.0152630
726.340	0.0152039
726.418	0.0149412
726.496	0.0149699
726.575	0.0148494
726.653	0.0144693
726.731	0.0140772
726.809	0.0137820
726.887	0.0135427
726.965	0.0133961
727.043	0.0130629
727.121	0.0131899
727.200	0.0132133
727.278	0.0131327
727.356	0.0135020
727.434	0.0136569
727.512	0.0138721
727.590	0.0140488
727.668	0.0143483
727.746	0.0145403
727.825	0.0147826
727.903	0.0149372
727.981	0.0149861
728.059	0.0152251
728.137	0.0150946
728.215	0.0151024
728.293	0.0151171
728.371	0.0150330
728.450	0.0148677
728.528	0.0145525
728.606	0.0144522
728.684	0.0141303
728.762	0.0139596
728.840	0.0139269
728.918	0.0136575
728.996	0.0135876
729.075	0.0136472
729.153	0.0135490
729.231	0.0136005
729.309	0.0138636
729.387	0.0138928
729.465	0.0139604
729.543	0.0141756
729.621	0.0141435
729.700	0.0143995
729.778	0.0142910
729.856	0.0144292
729.934	0.0144834
730.012	0.0145852
730.090	0.0143755
730.168	0.0145280
730.246	0.0145802
730.325	0.0146075
730.403	0.0143694
730.481	0.0145005
730.559	0.0145052
730.637	0.0143839
730.715	0.0143655
730.793	0.0144884
730.871	0.0145636
730.950	0.0143032
731.028	0.0141380
731.106	0.0141430
731.184	0.0139473
731.262	0.0138068
731.340	0.0137285
731.418	0.0137983
731.496	0.0136652
731.575	0.0137702
731.653	0.0137692
731.731	0.0139046
731.809	0.0139838
731.887	0.0140044
731.965	0.0140788
732.043	0.0143170
732.121	0.0143273
732.200	0.0144231
732.278	0.0145105
732.356	0.0145258
732.434	0.0144545
732.512	0.0145444
732.590	0.0145065
732.668	0.0144639
732.746	0.0142901
732.825	0.0139635
732.903	0.0140092
732.981	0.0137740
733.059	0.0136680
733.137	0.0136722
733.215	0.0138510
733.293	0.0136939
733.371	0.0135914
733.450	0.0136710
733.528	0.0139285
733.606	0.0139728
733.684	0.0141915
733.762	0.0141138
733.840	0.0142548
733.918	0.0145103
733.996	0.0145132
734.075	0.0146628
734.153	0.0146771
734.231	0.0146404
734.309	0.0146589
734.387	0.0145690
734.465	0.0146706
734.543	0.0146361
734.621	0.0145275
734.700	0.0143396
734.778	0.0144161
734.856	0.0144135
734.934	0.0141610
735.012	0.0142157
735.090	0.0141456
735.168	0.0141075
735.246	0.0140644
735.325	0.0139689
735.403	0.0137839
735.481	0.0137717
735.559	0.0138493
735.637	0.0137335
735.715	0.0139457
735.793	0.0140033
735.871	0.0140446
735.950	0.0140987
736.028	0.0141593
736.106	0.0143913
736.184	0.0145765
736.262	0.0146930
736.340	0.0147746
736.418	0.0149488
736.496	0.0150585
736.575	0.0150444
736.653	0.0150237
736.731	0.0150171
736.809	0.0148862
736.887	0.0147520
736.965	0.0144941
737.043	0.0144893
737.121	0.0143859
737.200	0.0143164
737.278	0.0141177
737.356	0.0138472
737.434	0.0138562
737.512	0.0139585
737.590	0.0138997
737.668	0.0139224
737.746	0.0139510
737.825	0.0139940
737.903	0.0142506
737.981	0.0142918
738.059	0.0143999
738.137	0.0144643
738.215	0.0146581
738.293	0.0145920
738.371	0.0145721
738.450	0.0145860
738.528	0.0145117
738.606	0.0146118
738.684	0.0145528
738.762	0.0144827
738.840	0.0144846
738.918	0.0143922
738.996	0.0141849
739.075	0.0141973
739.153	0.0141658
739.231	0.0140652
739.309	0.0140942
739.387	0.0139703
739.465	0.0138938
739.543	0.0139099
739.621	0.0138712
739.700	0.0136647
739.778	0.0137925
739.856	0.0137280
739.934	0.0135921
740.012	0.0136411
740.090	0.0135716
740.168	0.0135746
740.246	0.0137856
740.325	0.0136751
740.403	0.0141208
740.481	0.0142247
740.559	0.0144865
740.637	0.0147085
740.715	0.0148595
740.793	0.0149564
740.871	0.0151291
740.950	0.0150744
741.028	0.0150706
741.106	0.0150903
741.184	0.0150609
741.262	0.0148874
741.340	0.0147977
741.418	0.0147224
741.496	0.0143293
741.575	0.0140643
741.653	0.0138287
741.731	0.0136646
741.809	0.0135387
741.887	0.0135139
741.965	0.0135198
742.043	0.0135280
742.121	0.0136254
742.200	0.0135547
742.278	0.0138351
742.356	0.0138486
742.434	0.0138325
742.512	0.0141264
742.590	0.0143035
742.668	0.0143193
742.746	0.0144693
742.825	0.0145950
742.903	0.0147813
742.981	0.0147091
743.059	0.0147145
743.137	0.0147705
743.215	0.0147653
743.293	0.0148332
743.371	0.0147224
743.450	0.0146049
743.528	0.0145997
743.606	0.0145875
743.684	0.0145128
743.762	0.0144498
743.840	0.0142255
743.918	0.0140305
743.996	0.0139994
744.075	0.0138902
744.153	0.0137246
744.231	0.0138531
744.309	0.0137881
744.387	0.0137276
744.465	0.0137712
744.543	0.0137642
744.621	0.0139735
744.700	0.0142353
744.778	0.0142576
744.856	0.0143294
744.934	0.0143511
745.012	0.0146174
745.090	0.0148329
745.168	0.0147224
745.246	0.0147620
745.325	0.0147832
745.403	0.0147518
745.481	0.0146243
745.559	0.0145123
745.637	0.0144232
745.715	0.0143605
745.793	0.0142435
745.871	0.0142651
745.950	0.0139449
746.028	0.0140032
746.106	0.0139399
746.184	0.0139584
746.262	0.0139764
746.340	0.0139926
746.418	0.0140259
746.496	0.0141254
746.575	0.0141105
746.653	0.0141775
746.731	0.0143472
746.809	0.0145198
746.887	0.0145885
746.965	0.0146326
747.043	0.0145019
747.121	0.0144934
747.200	0.0143228
747.278	0.0144192
747.356	0.0145049
747.434	0.0142239
747.512	0.0142990
747.590	0.0142817
747.668	0.0137883
747.746	0.0140467
747.825	0.0141432
747.903	0.0140371
747.981	0.0142348
748.059	0.0140968
748.137	0.0141933
748.215	0.0141184
748.293	0.0142758
748.371	0.0145317
748.450	0.0145393
748.528	0.0147005
748.606	0.0146363
748.684	0.0146464
748.762	0.0148894
748.840	0.0146088
748.918	0.0145370
748.996	0.0146774
749.075	0.0143873
749.153	0.0143343
749.231	0.0141898
749.309	0.0141945
749.387	0.0139449
749.465	0.0139599
749.543	0.0137720
749.621	0.0138261
749.700	0.0138795
749.778	0.0140961
749.856	0.0138392
749.934	0.0138725
750.012	0.0140643
750.090	0.0141628
750.168	0.0141446
750.246	0.0143134
750.325	0.0144149
750.403	0.0145533
750.481	0.0146832
750.559	0.0145315
750.637	0.0144701
750.715	0.0145155
750.793	0.0146024
750.871	0.0144739
750.950	0.0145384
751.028	0.0144174
751.106	0.0145285
751.184	0.0145465
751.262	0.0142320
751.340	0.0141247
751.418	0.0141283
751.496	0.0141010
751.575	0.0140680
751.653	0.0141122
751.731	0.0140299
751.809	0.0138716
751.887	0.0139339
751.965	0.0137838
752.043	0.0138429
752.121	0.0141253
752.200	0.0140404
752.278	0.0138602
752.356	0.0141482
752.434	0.0142195
752.512	0.0143867
752.590	0.0145844
752.668	0.0146636
752.746	0.0145766
752.825	0.0146362
752.903	0.0147610
752.981	0.0147137
753.059	0.0146080
753.137	0.0147570
753.215	0.0146352
753.293	0.0146020
753.371	0.0144260
753.450	0.0143298
753.528	0.0141549
753.606	0.0141026
753.684	0.0139510
753.762	0.0139697
753.840	0.0139112
753.918	0.0138474
753.996	0.0139152
754.075	0.0138297
754.153	0.0138844
754.231	0.0139411
754.309	0.0141315
754.387	0.0142776
754.465	0.0143142
754.543	0.0142941
754.621	0.0144430
754.700	0.0144130
754.778	0.0144785
754.856	0.0145603
754.934	0.0143809
755.012	0.0144379
755.090	0.0143275
755.168	0.0143169
755.246	0.0143250
755.325	0.0142792
755.403	0.0142217
755.481	0.0141804
755.559	0.0142001
755.637	0.0142616
755.715	0.0141886
755.793	0.0141524
755.871	0.0141901
755.950	0.0141632
756.028	0.0142673
756.106	0.0141154
756.184	0.0141369
756.262	0.0141208
756.340	0.0139291
756.418	0.0140759
756.496	0.0140467
756.575	0.0142719
756.653	0.0141437
756.731	0.0140202
756.809	0.0142363
756.887	0.0141036
756.965	0.0141024
757.043	0.0141311
757.121	0.0142323
757.200	0.0141763
757.278	0.0142730
757.356	0.0140710
757.434	0.0141977
757.512	0.0143696
757.590	0.0142607
757.668	0.0143063
757.746	0.0144163
757.825	0.0142209
757.903	0.0142536
757.981	0.0143023
758.059	0.0142986
758.137	0.0141943
758.215	0.0142640
758.293	0.0141990
758.371	0.0141469
758.450	0.0141614
758.528	0.0140919
758.606	0.0142216
758.684	0.0141386
758.762	0.0141196
758.840	0.0141044
758.918	0.0141649
758.996	0.0142767
759.075	0.0143264
759.153	0.0143761
759.231	0.0142666
759.309	0.0142421
759.387	0.0141247
759.465	0.0142583
759.543	0.0142547
759.621	0.0142290
759.700	0.0142075
759.778	0.0141797
759.856	0.0141519
759.934	0.0141589
760.012	0.0141979
760.090	0.0142168
760.168	0.0142184
760.246	0.0141930
760.325	0.0143816
760.403	0.0142878
760.481	0.0143248
760.559	0.0143536
760.637	0.0144646
760.715	0.0145440
760.793	0.0145285
760.871	0.0144692
760.950	0.0145344
761.028	0.0143553
761.106	0.0143886
761.184	0.0145460
761.262	0.0143086
761.340	0.0142596
761.418	0.0142468
761.496	0.0141083
761.575	0.0141960
761.653	0.0142616
761.731	0.0142273
761.809	0.0141135
761.887	0.0141712
761.965	0.0142696
762.043	0.0143222
762.121	0.0142843
762.200	0.0142551
762.278	0.0142991
762.356	0.0143365
762.434	0.0144208
762.512	0.0144789
762.590	0.0143819
762.668	0.0144566
762.746	0.0143829
762.825	0.0144968
762.903	0.0146015
762.981	0.0144226
763.059	0.0143792
763.137	0.0143678
763.215	0.0143048
763.293	0.0143716
763.371	0.0142947
763.450	0.0142033
763.528	0.0142503
763.606	0.0141723
763.684	0.0142083
763.762	0.0141433
763.840	0.0140318
763.918	0.0141555
763.996	0.0141265
764.075	0.0140099
764.153	0.0141297
764.231	0.0142251
764.309	0.0141722
764.387	0.0141688
764.465	0.0142661
764.543	0.0141964
764.621	0.0143252
764.700	0.0143612
764.778	0.0143769
764.856	0.0143954
764.934	0.0143882
765.012	0.0144494
765.090	0.0145435
765.168	0.0143073
765.246	0.0142046
765.325	0.0143316
765.403	0.0143781
765.481	0.0142670
765.559	0.0142735
765.637	0.0140980
765.715	0.0141661
765.793	0.0140807
765.871	0.0141199
765.950	0.0140079
766.028	0.0138728
766.106	0.0140041
766.184	0.0140082
766.262	0.0141174
766.340	0.0141064
766.418	0.0142965
766.496	0.0142260
766.575	0.0141187
766.653	0.0143024
766.731	0.0145078
766.809	0.0144400
766.887	0.0144759
766.965	0.0144939
767.043	0.0144326
767.121	0.0144260
767.200	0.0143533
767.278	0.0144289
767.356	0.0141799
767.434	0.0142695
767.512	0.0142545
767.590	0.0142505
767.668	0.0141061
767.746	0.0142265
767.825	0.0141195
767.903	0.0141235
767.981	0.0140817
768.059	0.0141447
768.137	0.0142509
768.215	0.0141819
768.293	0.0142150
768.371	0.0144120
768.450	0.0143597
768.528	0.0144062
768.606	0.0143620
768.684	0.0143549
768.762	0.0143163
768.840	0.0142377
768.918	0.0144150
768.996	0.0143666
769.075	0.0143169
769.153	0.0142857
769.231	0.0142157
769.309	0.0143250
769.387	0.0143955
769.465	0.0143015
769.543	0.0143106
769.621	0.0142926
769.700	0.0142700
769.778	0.0142616
769.856	0.0142710
769.934	0.0143447
770.012	0.0144614
770.090	0.0143471
770.168	0.0143755
770.246	0.0143450
770.325	0.0144711
770.403	0.0143330
770.481	0.0142977
770.559	0.0142067
770.637	0.0142591
770.715	0.0142875
770.793	0.0142006
770.871	0.0143188
770.950	0.0142589
771.028	0.0141953
771.106	0.0142748
771.184	0.0142115
771.262	0.0142752
771.340	0.0143902
771.418	0.0143980
771.496	0.0143134
771.575	0.0143356
771.653	0.0142921
771.731	0.0143989
771.809	0.0141927
771.887	0.0143206
771.965	0.0144650
772.043	0.0143581
772.121	0.0143477
772.200	0.0143726
772.278	0.0142833
772.356	0.0143615
772.434	0.0144549
772.512	0.0143834
772.590	0.0142845
772.668	0.0144679
772.746	0.0143216
772.825	0.0143827
772.903	0.0144037
772.981	0.0143453
773.059	0.0142616
773.137	0.0143221
773.215	0.0142825
773.293	0.0144677
773.371	0.0143962
773.450	0.0142126
773.528	0.0144151
773.606	0.0143248
773.684	0.0142300
773.762	0.0143084
773.840	0.0143385
773.918	0.0143165
773.996	0.0142511
774.075	0.0142274
774.153	0.0142847
774.231	0.0142448
774.309	0.0143038
774.387	0.0141514
774.465	0.0142426
774.543	0.0143325
774.621	0.0143153
774.700	0.0143306
774.778	0.0144035
774.856	0.0143295
774.934	0.0143471
775.012	0.0144333
775.090	0.0143552
775.168	0.0144888
775.246	0.0143785
775.325	0.0141975
775.403	0.0142952
775.481	0.0142668
775.559	0.0143186
775.637	0.0142738
775.715	0.0142516
775.793	0.0143394
775.871	0.0141798
775.950	0.0142980
776.028	0.0142796
776.106	0.0143530
776.184	0.0140689
776.262	0.0142190
776.340	0.0143726
776.418	0.0143159
776.496	0.0142555
776.575	0.0143047
776.653	0.0143333
776.731	0.0143066
776.809	0.0142776
776.887	0.0143471
776.965	0.0143570
777.043	0.0144308
777.121	0.0143772
777.200	0.0143510
777.278	0.0145114
777.356	0.0144713
777.434	0.0142249
777.512	0.0143495
777.590	0.0143661
777.668	0.0142693
777.746	0.0144351
777.825	0.0143330
777.903	0.0142649
777.981	0.0141570
778.059	0.0142900
778.137	0.0142329
778.215	0.0141843
778.293	0.0141992
778.371	0.0142435
778.450	0.0142411
778.528	0.0141096
778.606	0.0141206
778.684	0.0143301
778.762	0.0142043
778.840	0.0142191
778.918	0.0143816
778.996	0.0142762
779.075	0.0143725
779.153	0.0144151
779.231	0.0143959
779.309	0.0144041
779.387	0.0143139
779.465	0.0143566
779.543	0.0143922
779.621	0.0144753
779.700	0.0142164
779.778	0.0141770
779.856	0.0142840
779.934	0.0143332
780.012	0.0142769
780.090	0.0142484
780.168	0.0142294
780.246	0.0141184
780.325	0.0141735
780.403	0.0141722
780.481	0.0141925
780.559	0.0142906
780.637	0.0142764
780.715	0.0142120
780.793	0.0141611
780.871	0.0143655
780.950	0.0141434
781.028	0.0142216
781.106	0.0143835
781.184	0.0144079
781.262	0.0142022
781.340	0.0143589
781.418	0.0144408
781.496	0.0143145
781.575	0.0142899
781.653	0.0142239
781.731	0.0141515
781.809	0.0142188
781.887	0.0140909
781.965	0.0141549
782.043	0.0142232
782.121	0.0143191
782.200	0.0143008
782.278	0.0141274
782.356	0.0142238
782.434	0.0142122
782.512	0.0142927
782.590	0.0141447
782.668	0.0142500
782.746	0.0142468
782.825	0.0143604
782.903	0.0142015
782.981	0.0144301
783.059	0.0143696
783.137	0.0142447
783.215	0.0143534
783.293	0.0143132
783.371	0.0142889
783.450	0.0143980
783.528	0.0142155
783.606	0.0142762
783.684	0.0141525
783.762	0.0143085
783.840	0.0143037
783.918	0.0142608
783.996	0.0143031
784.075	0.0144666
784.153	0.0142872
784.231	0.0142873
784.309	0.0143160
784.387	0.0142934
784.465	0.0142933
784.543	0.0142711
784.621	0.0142708
784.700	0.0142487
784.778	0.0142616
784.856	0.0142397
784.934	0.0142390
785.012	0.0142313
785.090	0.0140147
785.168	0.0142038
785.246	0.0142400
785.325	0.0142515
785.403	0.0141700
785.481	0.0142487
785.559	0.0142723
785.637	0.0142026
785.715	0.0141782
785.793	0.0141661
785.871	0.0142760
785.950	0.0141844
786.028	0.0141648
786.106	0.0143022
786.184	0.0140916
786.262	0.0142152
786.340	0.0140982
786.418	0.0142695
786.496	0.0142606
786.575	0.0142828
786.653	0.0143211
786.731	0.0142436
786.809	0.0140807
786.887	0.0141864
786.965	0.0142981
787.043	0.0141320
787.121	0.0141881
787.200	0.0143266
787.278	0.0144960
787.356	0.0142338
787.434	0.0142944
787.512	0.0143923
787.590	0.0141662
787.668	0.0142035
787.746	0.0142809
787.825	0.0143063
787.903	0.0142779
787.981	0.0141780
788.059	0.0142813
788.137	0.0142197
788.215	0.0141055
788.293	0.0141560
788.371	0.0142822
788.450	0.0141473
788.528	0.0140402
788.606	0.0141640
788.684	0.0141440
788.762	0.0142219
788.840	0.0142038
788.918	0.0142341
788.996	0.0142190
789.075	0.0142583
789.153	0.0142294
789.231	0.0142833
789.309	0.0141914
789.387	0.0141934
789.465	0.0143581
789.543	0.0142449
789.621	0.0142547
789.700	0.0142943
789.778	0.0143681
789.856	0.0142738
789.934	0.0142276
790.012	0.0142002
790.090	0.0142757
790.168	0.0142604
790.246	0.0142075
790.325	0.0142942
790.403	0.0142326
790.481	0.0141446
790.559	0.0142326
790.637	0.0142556
790.715	0.0142150
790.793	0.0141766
790.871	0.0141730
790.950	0.0142867
791.028	0.0141580
791.106	0.0142799
791.184	0.0141364
791.262	0.0140681
791.340	0.0142077
791.418	0.0141314
791.496	0.0142590
791.575	0.0143604
791.653	0.0141853
791.731	0.0141673
791.809	0.0143701
791.887	0.0144398
791.965	0.0142877
792.043	0.0142480
792.121	0.0141721
792.200	0.0141624
792.278	0.0141255
792.356	0.0142738
792.434	0.0142380
792.512	0.0142634
792.590	0.0142155
792.668	0.0141641
792.746	0.0142761
792.825	0.0141864
792.903	0.0142689
792.981	0.0141621
793.059	0.0142397
793.137	0.0142300
793.215	0.0142076
793.293	0.0142188
793.371	0.0141648
793.450	0.0142512
793.528	0.0143184
793.606	0.0142280
793.684	0.0142094
793.762	0.0143584
793.840	0.0143607
793.918	0.0143016
793.996	0.0142337
794.075	0.0142898
794.153	0.0141893
794.231	0.0142207
794.309	0.0142477
794.387	0.0141643
794.465	0.0142401
794.543	0.0143107
794.621	0.0143385
794.700	0.0141896
794.778	0.0142988
794.856	0.0143142
794.934	0.0143070
795.012	0.0142229
795.090	0.0143438
795.168	0.0142535
795.246	0.0141872
795.325	0.0143877
795.403	0.0141719
795.481	0.0143285
795.559	0.0143108
795.637	0.0142309
795.715	0.0141698
795.793	0.0142855
795.871	0.0143507
795.950	0.0141776
796.028	0.0141888
796.106	0.0141138
796.184	0.0143378
796.262	0.0141875
796.340	0.0142101
796.418	0.0142743
796.496	0.0142397
796.575	0.0142551
796.653	0.0142578
796.731	0.0143692
796.809	0.0143936
796.887	0.0144006
796.965	0.0142751
797.043	0.0143681
797.121	0.0143275
797.200	0.0142397
797.278	0.0142886
797.356	0.0143105
797.434	0.0142494
797.512	0.0142855
797.590	0.0143652
797.668	0.0142928
797.746	0.0143655
797.825	0.0143232
797.903	0.0143013
797.981	0.0143805
798.059	0.0143826
798.137	0.0142846
798.215	0.0143406
798.293	0.0143317
798.371	0.0142834
798.450	0.0144114
798.528	0.0143335
798.606	0.0142950
798.684	0.0142684
798.762	0.0142744
798.840	0.0143496
798.918	0.0143989
798.996	0.0142897
799.075	0.0141798
799.153	0.0143085
799.231	0.0141949
799.309	0.0141320
799.387	0.0142712
799.465	0.0143713
799.543	0.0143426
799.621	0.0142657
799.700	0.0143147
799.778	0.0142867
799.856	0.0142173
799.934	0.0143501
800.012	0.0142926
800.090	0.0142005
800.168	0.0143001
800.246	0.0142067
800.325	0.0142331
800.403	0.0142722
800.481	0.0143205
800.559	0.0143233
800.637	0.0141615
800.715	0.0141938
800.793	0.0142622
800.871	0.0142697
800.950	0.0142757
801.028	0.0142045
801.106	0.0142503
801.184	0.0143230
801.262	0.0142640
801.340	0.0142985
801.418	0.0143256
801.496	0.0143383
801.575	0.0143294
801.653	0.0141568
801.731	0.0142452
801.809	0.0142841
801.887	0.0142348
801.965	0.0142297
802.043	0.0142575
802.121	0.0142482
802.200	0.0142888
802.278	0.0141958
802.356	0.0141462
802.434	0.0142896
802.512	0.0143297
802.590	0.0143047
802.668	0.0143896
802.746	0.0141595
802.825	0.0142270
802.903	0.0142885
802.981	0.0143038
803.059	0.0143098
803.137	0.0143346
803.215	0.0143085
803.293	0.0143152
803.371	0.0142722
803.450	0.0141392
803.528	0.0142303
803.606	0.0141200
803.684	0.0142310
803.762	0.0143136
803.840	0.0142622
803.918	0.0141589
803.996	0.0142329
804.075	0.0142494
804.153	0.0143726
804.231	0.0142567
804.309	0.0142927
804.387	0.0141978
804.465	0.0143641
804.543	0.0142422
804.621	0.0141740
804.700	0.0143147
804.778	0.0143026
804.856	0.0142055
804.934	0.0141887
805.012	0.0142368
805.090	0.0142258
805.168	0.0141653
805.246	0.0141937
805.325	0.0141727
805.403	0.0140909
805.481	0.0141171
805.559	0.0141031
805.637	0.0143014
805.715	0.0142110
805.793	0.0142028
805.871	0.0140813
805.950	0.0141289
806.028	0.0139619
806.106	0.0140372
806.184	0.0142091
806.262	0.0142336
806.340	0.0142854
806.418	0.0142487
806.496	0.0141857
806.575	0.0141607
806.653	0.0142081
806.731	0.0142861
806.809	0.0143368
806.887	0.0144202
806.965	0.0143325
807.043	0.0142285
807.121	0.0142790
807.200	0.0141758
807.278	0.0142993
807.356	0.0142857
807.434	0.0141422
807.512	0.0141575
807.590	0.0141537
807.668	0.0141885
807.746	0.0142290
807.825	0.0141821
807.903	0.0142963
807.981	0.0142303
808.059	0.0143435
808.137	0.0142435
808.215	0.0140826
808.293	0.0141470
808.371	0.0142931
808.450	0.0142159
808.528	0.0142812
808.606	0.0142255
808.684	0.0142329
808.762	0.0142467
808.840	0.0142825
808.918	0.0142716
808.996	0.0142933
809.075	0.0142764
809.153	0.0143829
809.231	0.0142347
809.309	0.0142604
809.387	0.0144222
809.465	0.0144644
809.543	0.0142221
809.621	0.0141451
809.700	0.0142854
809.778	0.0144313
809.856	0.0142530
809.934	0.0143339
810.012	0.0141251
810.090	0.0143692
810.168	0.0143074
810.246	0.0141290
810.325	0.0143818
810.403	0.0143018
810.481	0.0144331
810.559	0.0141737
810.637	0.0143270
810.715	0.0142764
810.793	0.0142773
810.871	0.0143741
810.950	0.0142473
811.028	0.0141471
811.106	0.0141356
811.184	0.0142116
811.262	0.0142658
811.340	0.0142178
811.418	0.0141496
811.496	0.0140685
811.575	0.0142931
811.653	0.0142153
811.731	0.0141268
811.809	0.0141505
811.887	0.0141138
811.965	0.0142230
812.043	0.0140566
812.121	0.0141642
812.200	0.0141454
812.278	0.0142131
812.356	0.0143607
812.434	0.0143121
812.512	0.0141472
812.590	0.0142974
812.668	0.0142702
812.746	0.0143582
812.825	0.0143171
812.903	0.0144112
812.981	0.0143038
813.059	0.0143719
813.137	0.0142690
813.215	0.0141553
813.293	0.0142802
813.371	0.0142545
813.450	0.0142701
813.528	0.0142971
813.606	0.0143966
813.684	0.0144668
813.762	0.0141953
813.840	0.0142880
813.918	0.0142701
813.996	0.0141914
814.075	0.0141990
814.153	0.0140917
814.231	0.0141429
814.309	0.0142085
814.387	0.0142146
814.465	0.0140929
814.543	0.0141055
814.621	0.0141131
814.700	0.0141965
814.778	0.0140450
814.856	0.0140812
814.934	0.0141608
815.012	0.0142464
815.090	0.0143416
815.168	0.0144424
815.246	0.0144077
815.325	0.0141922
815.403	0.0141730
815.481	0.0142598
815.559	0.0143241
815.637	0.0142429
815.715	0.0142353
815.793	0.0141312
815.871	0.0142365
815.950	0.0142057
816.028	0.0141250
816.106	0.0141365
816.184	0.0143607
816.262	0.0142519
816.340	0.0141811
816.418	0.0142752
816.496	0.0143211
816.575	0.0142516
816.653	0.0142780
816.731	0.0143425
816.809	0.0143073
816.887	0.0142632
816.965	0.0141353
817.043	0.0141965
817.121	0.0142097
817.200	0.0141583
817.278	0.0140038
817.356	0.0141457
817.434	0.0142365
817.512	0.0142014
817.590	0.0140884
817.668	0.0141099
817.746	0.0142439
817.825	0.0142785
817.903	0.0141121
817.981	0.0141035
818.059	0.0142096
818.137	0.0142883
818.215	0.0143648
818.293	0.0142896
818.371	0.0143578
818.450	0.0144611
818.528	0.0142786
818.606	0.0143334
818.684	0.0141207
818.762	0.0142452
818.840	0.0141444
818.918	0.0140826
818.996	0.0142509
819.075	0.0141817
819.153	0.0142240
819.231	0.0141666
819.309	0.0142419
819.387	0.0141892
819.465	0.0142079
819.543	0.0140906
819.621	0.0141205
819.700	0.0142015
819.778	0.0142764
819.856	0.0142554
819.934	0.0142206
820.012	0.0142947
820.090	0.0144917
820.168	0.0144288
820.246	0.0143047
820.325	0.0143993
820.403	0.0145398
820.481	0.0143296
820.559	0.0143065
820.637	0.0142799
820.715	0.0142018
820.793	0.0142943
820.871	0.0142626
820.950	0.0142397
821.028	0.0141627
821.106	0.0142427
821.184	0.0143054
821.262	0.0143905
821.340	0.0142252
821.418	0.0142720
821.496	0.0141766
821.575	0.0143443
821.653	0.0143121
821.731	0.0144682
821.809	0.0142919
821.887	0.0142210
821.965	0.0141918
822.043	0.0142340
822.121	0.0143880
822.200	0.0143137
822.278	0.0143763
822.356	0.0142631
822.434	0.0142359
822.512	0.0143330
822.590	0.0143873
822.668	0.0143095
822.746	0.0143318
822.825	0.0141039
822.903	0.0142638
822.981	0.0143975
823.059	0.0142803
823.137	0.0140470
823.215	0.0141598
823.293	0.0142128
823.371	0.0142471
823.450	0.0142715
823.528	0.0141769
823.606	0.0142261
823.684	0.0142159
823.762	0.0141487
823.840	0.0142017
823.918	0.0141847
823.996	0.0142679
824.075	0.0142085
824.153	0.0142323
824.231	0.0142859
824.309	0.0140411
824.387	0.0141035
824.465	0.0142088
824.543	0.0142731
824.621	0.0144040
824.700	0.0142471
824.778	0.0143865
824.856	0.0142515
824.934	0.0142536
825.012	0.0142542
825.090	0.0142610
825.168	0.0142227
825.246	0.0142162
825.325	0.0143098
825.403	0.0142723
825.481	0.0142414
825.559	0.0141833
825.637	0.0143240
825.715	0.0144186
825.793	0.0142113
825.871	0.0142886
825.950	0.0143243
826.028	0.0142217
826.106	0.0142590
826.184	0.0142455
826.262	0.0142945
826.340	0.0142137
826.418	0.0142793
826.496	0.0143350
826.575	0.0142501
826.653	0.0142244
826.731	0.0143021
826.809	0.0142830
826.887	0.0143221
826.965	0.0143534
827.043	0.0142902
827.121	0.0143018
827.200	0.0142682
827.278	0.0143056
827.356	0.0142457
827.434	0.0142513
827.512	0.0142194
827.590	0.0143113
827.668	0.0143073
827.746	0.0141476
827.825	0.0142236
827.903	0.0141819
827.981	0.0141992
828.059	0.0144267
828.137	0.0143395
828.215	0.0142587
828.293	0.0142470
828.371	0.0143314
828.450	0.0141914
828.528	0.0142255
828.606	0.0142628
828.684	0.0142569
828.762	0.0143386
828.840	0.0141745
828.918	0.0142176
828.996	0.0141833
829.075	0.0141942
829.153	0.0141470
829.231	0.0140968
829.309	0.0141588
829.387	0.0141978
829.465	0.0141612
829.543	0.0142560
829.621	0.0143653
829.700	0.0141723
829.778	0.0142165
829.856	0.0141673
829.934	0.0142938
830.012	0.0143520
830.090	0.0143462
830.168	0.0142669
830.246	0.0142451
830.325	0.0142155
830.403	0.0142311
830.481	0.0142743
830.559	0.0143451
830.637	0.0142490
830.715	0.0142967
830.793	0.0143221
830.871	0.0143102
830.950	0.0143408
831.028	0.0142289
831.106	0.0142359
831.184	0.0143145
831.262	0.0142555
831.340	0.0143703
831.418	0.0143062
831.496	0.0142127
831.575	0.0142540
831.653	0.0142605
831.731	0.0141770
831.809	0.0142253
831.887	0.0143440
831.965	0.0142355
832.043	0.0142017
832.121	0.0143102
832.200	0.0141915
832.278	0.0141505
832.356	0.0142592
832.434	0.0142444
832.512	0.0143363
832.590	0.0144767
832.668	0.0142553
832.746	0.0142823
832.825	0.0142350
832.903	0.0143388
832.981	0.0143034
833.059	0.0142744
833.137	0.0144032
833.215	0.0142387
833.293	0.0141727
833.371	0.0143385
833.450	0.0142031
833.528	0.0142915
833.606	0.0143591
833.684	0.0142421
833.762	0.0141804
833.840	0.0143311
833.918	0.0141483
833.996	0.0141566
834.075	0.0142127
834.153	0.0140483
834.231	0.0140372
834.309	0.0143932
834.387	0.0142529
834.465	0.0143188
834.543	0.0141853
834.621	0.0142398
834.700	0.0142632
834.778	0.0142213
834.856	0.0142612
834.934	0.0144386
835.012	0.0143752
835.090	0.0142372
835.168	0.0142642
835.246	0.0143723
835.325	0.0144508
835.403	0.0143028
835.481	0.0143666
835.559	0.0142348
835.637	0.0141998
835.715	0.0142868
835.793	0.0142118
835.871	0.0141312
835.950	0.0143106
836.028	0.0141505
836.106	0.0142327
836.184	0.0144298
836.262	0.0142663
836.340	0.0140993
836.418	0.0142188
836.496	0.0141777
836.575	0.0142599
836.653	0.0142283
836.731	0.0142182
836.809	0.0142253
836.887	0.0143223
836.965	0.0143047
837.043	0.0142318
837.121	0.0143103
837.200	0.0142714
837.278	0.0142935
837.356	0.0142158
837.434	0.0141361
837.512	0.0141654
837.590	0.0142532
837.668	0.0142135
837.746	0.0142152
837.825	0.0143195
837.903	0.0142666
837.981	0.0141743
838.059	0.0143514
838.137	0.0142765
838.215	0.0143376
838.293	0.0143430
838.371	0.0142960
838.450	0.0143149
838.528	0.0143469
838.606	0.0143050
838.684	0.0143376
838.762	0.0142978
838.840	0.0144320
838.918	0.0143972
838.996	0.0140998
839.075	0.0143021
839.153	0.0142700
839.231	0.0142577
839.309	0.0143792
839.387	0.0141142
839.465	0.0140970
839.543	0.0142046
839.621	0.0141104
839.700	0.0142025
839.778	0.0142137
839.856	0.0144546
839.934	0.0143047
840.012	0.0143817
840.090	0.0142894
840.168	0.0142250
840.246	0.0143811
840.325	0.0143738
840.403	0.0141948
840.481	0.0140788
840.559	0.0143178
840.637	0.0142849
840.715	0.0142498
840.793	0.0143620
840.871	0.0144068
840.950	0.0143899
841.028	0.0142063
841.106	0.0143272
841.184	0.0143752
841.262	0.0143870
841.340	0.0142213
841.418	0.0142687
841.496	0.0143576
841.575	0.0145544
841.653	0.0144414
841.731	0.0144833
841.809	0.0145078
841.887	0.0143575
841.965	0.0144608
842.043	0.0143668
842.121	0.0142802
842.200	0.0143180
842.278	0.0142703
842.356	0.0142799
842.434	0.0141201
842.512	0.0142385
842.590	0.0141603
842.668	0.0140391
842.746	0.0141234
842.825	0.0143535
842.903	0.0141872
842.981	0.0143345
843.059	0.0141764
843.137	0.0142206
843.215	0.0143456
843.293	0.0143506
843.371	0.0143483
843.450	0.0145138
843.528	0.0144334
843.606	0.0144843
843.684	0.0145207
843.762	0.0142879
843.840	0.0145103
843.918	0.0143681
843.996	0.0143942
844.075	0.0142175
844.153	0.0142307
844.231	0.0142075
844.309	0.0140801
844.387	0.0142111
844.465	0.0142203
844.543	0.0142306
844.621	0.0140852
844.700	0.0140048
844.778	0.0141866
844.856	0.0143138
844.934	0.0143787
845.012	0.0144239
845.090	0.0142401
845.168	0.0143452
845.246	0.0145258
845.325	0.0145220
845.403	0.0143442
845.481	0.0143125
845.559	0.0144315
845.637	0.0142861
845.715	0.0142272
845.793	0.0143412
845.871	0.0143215
845.950	0.0140461
846.028	0.0142108
846.106	0.0142561
846.184	0.0142195
846.262	0.0141556
846.340	0.0143742
846.418	0.0142941
846.496	0.0141523
846.575	0.0142241
846.653	0.0142348
846.731	0.0142618
846.809	0.0142502
846.887	0.0142854
846.965	0.0143243
847.043	0.0143929
847.121	0.0143591
847.200	0.0143446
847.278	0.0141766
847.356	0.0143388
847.434	0.0144817
847.512	0.0143792
847.590	0.0144628
847.668	0.0143016
847.746	0.0142033
847.825	0.0143224
847.903	0.0143184
847.981	0.0142300
848.059	0.0142959
848.137	0.0141084
848.215	0.0141650
848.293	0.0143600
848.371	0.0143285
848.450	0.0142220
848.528	0.0143078
848.606	0.0141688
848.684	0.0144169
848.762	0.0143659
848.840	0.0142630
848.918	0.0143114
848.996	0.0143285
849.075	0.0143328
849.153	0.0143717
849.231	0.0144138
849.309	0.0143162
849.387	0.0143980
849.465	0.0143145
849.543	0.0143517
849.621	0.0145538
849.700	0.0143771
849.778	0.0143449
849.856	0.0142924
849.934	0.0142939
850.012	0.0142128
850.090	0.0143536
850.168	0.0143235
850.246	0.0142251
850.325	0.0141286
850.403	0.0141909
850.481	0.0141276
850.559	0.0141249
850.637	0.0142255
850.715	0.0142801
850.793	0.0142463
850.871	0.0143196
850.950	0.0142518
851.028	0.0142967
851.106	0.0143492
851.184	0.0143639
851.262	0.0144128
851.340	0.0142502
851.418	0.0142968
851.496	0.0142845
851.575	0.0143025
851.653	0.0141730
851.731	0.0142242
851.809	0.0141029
851.887	0.0143009
851.965	0.0141397
852.043	0.0141563
852.121	0.0142400
852.200	0.0142448
852.278	0.0141064
852.356	0.0140642
852.434	0.0141444
852.512	0.0143050
852.590	0.0142661
852.668	0.0143226
852.746	0.0142924
852.825	0.0142761
852.903	0.0142007
852.981	0.0142223
853.059	0.0142376
853.137	0.0142379
853.215	0.0143641
853.293	0.0142946
853.371	0.0142994
853.450	0.0144151
853.528	0.0144108
853.606	0.0143137
853.684	0.0142457
853.762	0.0142362
853.840	0.0141932
853.918	0.0143639
853.996	0.0142542
854.075	0.0144205
854.153	0.0142213
854.231	0.0140815
854.309	0.0142258
854.387	0.0142678
854.465	0.0141157
854.543	0.0142764
854.621	0.0142300
854.700	0.0142998
854.778	0.0143603
854.856	0.0142007
854.934	0.0142442
855.012	0.0143822
855.090	0.0144212
855.168	0.0143032
855.246	0.0144640
855.325	0.0143836
855.403	0.0144380
855.481	0.0143775
855.559	0.0142989
855.637	0.0143782
855.715	0.0143384
855.793	0.0143671
855.871	0.0143777
855.950	0.0142989
856.028	0.0143398
856.106	0.0142749
856.184	0.0142971
856.262	0.0143242
856.340	0.0142422
856.418	0.0141719
856.496	0.0142217
856.575	0.0141624
856.653	0.0142251
856.731	0.0143282
856.809	0.0142741
856.887	0.0142052
856.965	0.0143383
857.043	0.0142405
857.121	0.0143416
857.200	0.0143205
857.278	0.0142524
857.356	0.0142231
857.434	0.0142635
857.512	0.0143256
857.590	0.0142621
857.668	0.0142110
857.746	0.0143036
857.825	0.0143289
857.903	0.0144437
857.981	0.0142381
858.059	0.0142033
858.137	0.0143507
858.215	0.0142742
858.293	0.0142117
858.371	0.0142844
858.450	0.0143436
858.528	0.0142321
858.606	0.0142898
858.684	0.0143008
858.762	0.0142511
858.840	0.0142789
858.918	0.0142693
858.996	0.0143653
859.075	0.0142159
859.153	0.0142300
859.231	0.0142796
859.309	0.0142788
859.387	0.0143571
859.465	0.0142733
859.543	0.0143985
859.621	0.0144469
859.700	0.0143276
859.778	0.0143362
859.856	0.0143034
859.934	0.0142075
860.012	0.0142551
860.090	0.0143260
860.168	0.0142149
860.246	0.0143194
860.325	0.0142449
860.403	0.0140649
860.481	0.0142193
860.559	0.0141756
860.637	0.0140552
860.715	0.0141567
860.793	0.0142012
860.871	0.0141046
860.950	0.0143303
861.028	0.0142780
861.106	0.0142622
861.184	0.0142125
861.262	0.0142419
861.340	0.0144433
861.418	0.0142522
861.496	0.0141532
861.575	0.0142056
861.653	0.0142492
861.731	0.0143224
861.809	0.0142934
861.887	0.0143324
861.965	0.0144141
862.043	0.0143056
862.121	0.0143139
862.200	0.0143226
862.278	0.0142519
862.356	0.0142664
862.434	0.0143703
862.512	0.0141452
862.590	0.0142418
862.668	0.0143264
862.746	0.0141603
862.825	0.0143615
862.903	0.0143208
862.981	0.0141914
863.059	0.0142123
863.137	0.0142225
863.215	0.0142474
863.293	0.0142757
863.371	0.0141547
863.450	0.0141953
863.528	0.0142200
863.606	0.0142689
863.684	0.0141515
863.762	0.0142531
863.840	0.0143326
863.918	0.0141976
863.996	0.0142090
864.075	0.0142631
864.153	0.0142616
864.231	0.0142118
864.309	0.0141535
864.387	0.0142136
864.465	0.0143755
864.543	0.0142625
864.621	0.0142325
864.700	0.0143413
864.778	0.0143636
864.856	0.0142135
864.934	0.0142662
865.012	0.0142532
865.090	0.0143874
865.168	0.0143018
865.246	0.0143518
865.325	0.0143833
865.403	0.0142872
865.481	0.0142184
865.559	0.0142362
865.637	0.0141829
865.715	0.0142649
865.793	0.0142512
865.871	0.0142693
865.950	0.0142924
866.028	0.0145477
866.106	0.0142789
866.184	0.0142699
866.262	0.0144064
866.340	0.0143616
866.418	0.0143211
866.496	0.0142664
866.575	0.0142758
866.653	0.0143785
866.731	0.0141895
866.809	0.0141257
866.887	0.0143413
866.965	0.0143578
867.043	0.0143297
867.121	0.0144268
867.200	0.0141891
867.278	0.0142636
867.356	0.0143172
867.434	0.0142612
867.512	0.0141126
867.590	0.0141264
867.668	0.0143865
867.746	0.0143436
867.825	0.0143040
867.903	0.0143798
867.981	0.0142863
868.059	0.0142039
868.137	0.0142360
868.215	0.0143655
868.293	0.0143332
868.371	0.0143859
868.450	0.0143839
868.528	0.0142295
868.606	0.0142817
868.684	0.0143509
868.762	0.0143613
868.840	0.0141695
868.918	0.0142496
868.996	0.0142148
869.075	0.0143194
869.153	0.0142068
869.231	0.0143587
869.309	0.0142445
869.387	0.0141876
869.465	0.0141390
869.543	0.0142735
869.621	0.0144398
869.700	0.0143456
869.778	0.0143156
869.856	0.0142389
869.934	0.0142941
870.012	0.0142744
870.090	0.0143421
870.168	0.0142712
870.246	0.0141826
870.325	0.0142291
870.403	0.0142349
870.481	0.0142147
870.559	0.0141775
870.637	0.0143462
870.715	0.0143632
870.793	0.0142439
870.871	0.0143967
870.950	0.0143272
871.028	0.0143191
871.106	0.0142258
871.184	0.0142455
871.262	0.0143217
871.340	0.0141268
871.418	0.0143330
871.496	0.0144087
871.575	0.0144527
871.653	0.0143304
871.731	0.0143917
871.809	0.0144540
871.887	0.0144569
871.965	0.0141787
872.043	0.0142902
872.121	0.0141273
872.200	0.0143111
872.278	0.0143086
872.356	0.0142337
872.434	0.0142358
872.512	0.0142547
872.590	0.0142886
872.668	0.0143324
872.746	0.0142729
872.825	0.0141808
872.903	0.0141171
872.981	0.0143823
873.059	0.0143178
873.137	0.0142852
873.215	0.0143115
873.293	0.0142941
873.371	0.0141988
873.450	0.0143124
873.528	0.0142987
873.606	0.0143452
873.684	0.0142724
873.762	0.0144476
873.840	0.0143861
873.918	0.0142781
873.996	0.0141670
874.075	0.0141698
874.153	0.0141975
874.231	0.0142887
874.309	0.0142152
874.387	0.0141814
874.465	0.0141582
874.543	0.0141648
874.621	0.0142435
874.700	0.0143351
874.778	0.0142625
874.856	0.0143322
874.934	0.0143246
875.012	0.0141709
875.090	0.0143312
875.168	0.0143713
875.246	0.0142600
875.325	0.0141491
875.403	0.0143134
875.481	0.0143333
875.559	0.0143024
875.637	0.0143185
875.715	0.0143024
875.793	0.0141695
875.871	0.0142257
875.950	0.0141754
876.028	0.0143363
876.106	0.0142363
876.184	0.0142238
876.262	0.0143398
876.340	0.0141380
876.418	0.0143113
876.496	0.0143152
876.575	0.0142676
876.653	0.0142214
876.731	0.0142182
876.809	0.0143196
876.887	0.0143732
876.965	0.0143913
877.043	0.0142995
877.121	0.0142994
877.200	0.0143547
877.278	0.0142478
877.356	0.0142242
877.434	0.0141851
877.512	0.0143908
877.590	0.0144308
877.668	0.0142958
877.746	0.0142620
877.825	0.0143044
877.903	0.0143226
877.981	0.0141435
878.059	0.0141698
878.137	0.0142183
878.215	0.0142585
878.293	0.0142859
878.371	0.0141820
878.450	0.0141846
878.528	0.0143304
878.606	0.0142613
878.684	0.0141236
878.762	0.0141883
878.840	0.0141370
878.918	0.0142333
878.996	0.0142833
879.075	0.0141714
879.153	0.0143031
879.231	0.0144161
879.309	0.0142514
879.387	0.0143197
879.465	0.0141340
879.543	0.0142189
879.621	0.0143005
879.700	0.0142329
879.778	0.0143494
879.856	0.0143842
879.934	0.0143360
880.012	0.0141856
880.090	0.0143813
880.168	0.0143655
880.246	0.0142406
880.325	0.0142805
880.403	0.0142538
880.481	0.0142770
880.559	0.0141946
880.637	0.0141743
880.715	0.0142439
880.793	0.0141447
880.871	0.0142256
880.950	0.0141107
881.028	0.0142080
881.106	0.0141336
881.184	0.0141978
881.262	0.0143641
881.340	0.0142516
881.418	0.0142106
881.496	0.0143249
881.575	0.0142703
881.653	0.0143659
881.731	0.0143079
881.809	0.0142632
881.887	0.0142603
881.965	0.0142379
882.043	0.0143733
882.121	0.0143691
882.200	0.0143537
882.278	0.0144067
882.356	0.0142706
882.434	0.0141270
882.512	0.0143621
882.590	0.0141751
882.668	0.0142738
882.746	0.0141145
882.825	0.0143181
882.903	0.0141505
882.981	0.0142087
883.059	0.0142325
883.137	0.0142936
883.215	0.0141976
883.293	0.0143954
883.371	0.0142549
883.450	0.0141712
883.528	0.0142869
883.606	0.0142646
883.684	0.0143647
883.762	0.0143037
883.840	0.0143068
883.918	0.0143347
883.996	0.0142976
884.075	0.0142793
884.153	0.0143200
884.231	0.0143356
884.309	0.0143020
884.387	0.0142206
884.465	0.0141796
884.543	0.0141904
884.621	0.0141878
884.700	0.0141775
884.778	0.0143158
884.856	0.0142627
884.934	0.0141923
885.012	0.0143291
885.090	0.0142493
885.168	0.0142506
885.246	0.0143015
885.325	0.0142643
885.403	0.0143192
885.481	0.0142548
885.559	0.0143231
885.637	0.0142286
885.715	0.0143079
885.793	0.0144868
885.871	0.0143643
885.950	0.0141732
886.028	0.0142919
886.106	0.0144125
886.184	0.0142642
886.262	0.0142254
886.340	0.0141970
886.418	0.0142850
886.496	0.0142171
886.575	0.0142355
886.653	0.0141479
886.731	0.0142768
886.809	0.0141536
886.887	0.0140935
886.965	0.0141606
887.043	0.0142331
887.121	0.0142109
887.200	0.0142199
887.278	0.0141368
887.356	0.0140997
887.434	0.0142746
887.512	0.0141071
887.590	0.0141498
887.668	0.0143018
887.746	0.0143868
887.825	0.0142344
887.903	0.0142193
887.981	0.0142719
888.059	0.0141931
888.137	0.0142085
888.215	0.0143082
888.293	0.0143734
888.371	0.0141853
888.450	0.0141082
888.528	0.0141375
888.606	0.0141522
888.684	0.0141904
888.762	0.0142768
888.840	0.0141863
888.918	0.0141029
888.996	0.0142650
889.075	0.0141457
889.153	0.0142049
889.231	0.0142609
889.309	0.0143141
889.387	0.0141960
889.465	0.0143005
889.543	0.0142533
889.621	0.0143158
889.700	0.0143587
889.778	0.0143311
889.856	0.0142946
889.934	0.0144509
890.012	0.0144588
890.090	0.0143799
890.168	0.0142784
890.246	0.0143139
890.325	0.0142442
890.403	0.0143181
890.481	0.0142149
890.559	0.0141747
890.637	0.0142537
890.715	0.0142567
890.793	0.0143391
890.871	0.0142634
890.950	0.0143504
891.028	0.0142928
891.106	0.0142796
891.184	0.0142552
891.262	0.0143140
891.340	0.0142449
891.418	0.0143137
891.496	0.0142297
891.575	0.0142519
891.653	0.0141940
891.731	0.0142177
891.809	0.0143787
891.887	0.0143411
891.965	0.0142220
892.043	0.0142285
892.121	0.0143201
892.200	0.0144067
892.278	0.0142838
892.356	0.0142570
892.434	0.0142724
892.512	0.0142258
892.590	0.0143381
892.668	0.0143097
892.746	0.0143063
892.825	0.0142030
892.903	0.0144220
892.981	0.0143797
893.059	0.0144678
893.137	0.0143771
893.215	0.0143494
893.293	0.0143162
893.371	0.0142168
893.450	0.0142863
893.528	0.0143427
893.606	0.0142867
893.684	0.0143221
893.762	0.0143271
893.840	0.0143262
893.918	0.0143275
893.996	0.0143280
894.075	0.0142548
894.153	0.0143317
894.231	0.0142829
894.309	0.0144195
894.387	0.0143489
894.465	0.0144817
894.543	0.0144247
894.621	0.0142472
894.700	0.0142838
894.778	0.0144110
894.856	0.0141174
894.934	0.0140789
895.012	0.0141608
895.090	0.0142363
895.168	0.0142849
895.246	0.0141457
895.325	0.0141853
895.403	0.0142864
895.481	0.0140624
895.559	0.0142190
895.637	0.0142255
895.715	0.0141397
895.793	0.0141012
895.871	0.0143244
895.950	0.0141737
896.028	0.0142171
896.106	0.0141800
896.184	0.0142148
896.262	0.0142375
896.340	0.0142777
896.418	0.0143131
896.496	0.0142778
896.575	0.0141899
896.653	0.0140987
896.731	0.0141758
896.809	0.0142135
896.887	0.0140987
896.965	0.0141807
897.043	0.0142310
897.121	0.0141912
897.200	0.0140852
897.278	0.0142409
897.356	0.0141499
897.434	0.0140514
897.512	0.0141546
897.590	0.0141569
897.668	0.0142690
897.746	0.0141194
897.825	0.0142020
897.903	0.0141418
897.981	0.0142115
898.059	0.0141907
898.137	0.0141777
898.215	0.0141980
898.293	0.0143125
898.371	0.0142278
898.450	0.0141203
898.528	0.0142176
898.606	0.0142255
898.684	0.0143220
898.762	0.0142444
898.840	0.0141246
898.918	0.0141966
898.996	0.0141833
899.075	0.0141769
899.153	0.0141123
899.231	0.0143040
899.309	0.0143153
899.387	0.0141606
899.465	0.0141725
899.543	0.0143391
899.621	0.0143033
899.700	0.0141185
899.778	0.0141656
899.856	0.0141142
899.934	0.0140872
900.012	0.0142743
900.090	0.0143814
900.168	0.0142303
900.246	0.0141646
900.325	0.0143859
900.403	0.0143076
900.481	0.0141908
900.559	0.0142572
900.637	0.0142245
900.715	0.0142125
900.793	0.0141360
900.871	0.0141693
900.950	0.0141545
901.028	0.0141572
901.106	0.0142302
901.184	0.0141602
901.262	0.0139693
901.340	0.0141464
901.418	0.0142155
901.496	0.0141998
901.575	0.0141633
901.653	0.0142445
901.731	0.0143360
901.809	0.0142270
901.887	0.0142630
901.965	0.0143488
902.043	0.0142690
902.121	0.0143609
902.200	0.0143295
902.278	0.0143006
902.356	0.0143090
902.434	0.0143731
902.512	0.0143537
902.590	0.0142160
902.668	0.0141881
902.746	0.0143245
902.825	0.0144070
902.903	0.0143406
902.981	0.0141472
903.059	0.0140797
903.137	0.0142600
903.215	0.0142846
903.293	0.0141697
903.371	0.0144357
903.450	0.0143095
903.528	0.0143604
903.606	0.0142244
903.684	0.0142652
903.762	0.0143208
903.840	0.0142331
903.918	0.0142139
903.996	0.0142808
904.075	0.0143304
904.153	0.0142485
904.231	0.0142332
904.309	0.0143593
904.387	0.0143073
904.465	0.0143639
904.543	0.0143314
904.621	0.0144749
904.700	0.0144299
904.778	0.0144435
904.856	0.0143949
904.934	0.0143061
905.012	0.0141960
905.090	0.0143738
905.168	0.0143066
905.246	0.0142323
905.325	0.0143819
905.403	0.0142264
905.481	0.0142649
905.559	0.0142683
905.637	0.0142039
905.715	0.0142062
905.793	0.0142802
905.871	0.0142857
905.950	0.0142551
906.028	0.0142091
906.106	0.0143195
906.184	0.0143710
906.262	0.0143219
906.340	0.0143448
906.418	0.0142957
906.496	0.0144736
906.575	0.0145063
906.653	0.0143789
906.731	0.0142856
906.809	0.0142208
906.887	0.0141512
906.965	0.0140321
907.043	0.0141093
907.121	0.0141918
907.200	0.0140621
907.278	0.0141566
907.356	0.0141985
907.434	0.0142734
907.512	0.0143307
907.590	0.0143368
907.668	0.0143835
907.746	0.0143909
907.825	0.0144374
907.903	0.0143015
907.981	0.0143559
908.059	0.0143022
908.137	0.0142321
908.215	0.0144180
908.293	0.0143729
908.371	0.0142505
908.450	0.0141888
908.528	0.0142857
908.606	0.0141687
908.684	0.0142052
908.762	0.0141742
908.840	0.0142558
908.918	0.0141975
908.996	0.0141287
909.075	0.0141492
909.153	0.0143272
909.231	0.0142963
909.309	0.0141442
909.387	0.0141280
909.465	0.0141146
909.543	0.0140902
909.621	0.0142144
909.700	0.0141227
909.778	0.0141058
909.856	0.0140807
909.934	0.0141816
910.012	0.0142336
910.090	0.0141307
910.168	0.0141954
910.246	0.0141071
910.325	0.0141470
910.403	0.0142916
910.481	0.0141435
910.559	0.0141307
910.637	0.0142838
910.715	0.0143550
910.793	0.0142680
910.871	0.0143095
910.950	0.0143210
911.028	0.0144733
911.106	0.0142782
911.184	0.0142126
911.262	0.0142343
911.340	0.0142487
911.418	0.0141019
911.496	0.0141443
911.575	0.0142538
911.653	0.0141872
911.731	0.0141561
911.809	0.0141409
911.887	0.0142548
911.965	0.0142862
912.043	0.0143107
912.121	0.0143458
912.200	0.0143997
912.278	0.0143410
912.356	0.0142855
912.434	0.0143582
912.512	0.0142772
912.590	0.0143058
912.668	0.0142288
912.746	0.0142838
912.825	0.0143151
912.903	0.0142722
912.981	0.0141821
913.059	0.0142859
913.137	0.0141762
913.215	0.0142326
913.293	0.0142739
913.371	0.0141921
913.450	0.0142783
913.528	0.0141389
913.606	0.0142194
913.684	0.0142987
913.762	0.0143298
913.840	0.0142570
913.918	0.0143134
913.996	0.0144293
914.075	0.0144055
914.153	0.0144965
914.231	0.0144035
914.309	0.0145201
914.387	0.0144801
914.465	0.0144628
914.543	0.0142866
914.621	0.0141650
914.700	0.0143005
914.778	0.0141843
914.856	0.0142690
914.934	0.0141978
915.012	0.0141767
915.090	0.0140530
915.168	0.0142999
915.246	0.0142555
915.325	0.0141135
915.403	0.0141997
915.481	0.0143249
915.559	0.0141667
915.637	0.0142474
915.715	0.0144484
915.793	0.0144022
915.871	0.0142759
915.950	0.0144057
916.028	0.0145419
916.106	0.0144736
916.184	0.0144362
916.262	0.0144096
916.340	0.0143060
916.418	0.0144124
916.496	0.0142226
916.575	0.0142880
916.653	0.0141933
916.731	0.0142647
916.809	0.0141860
916.887	0.0142667
916.965	0.0141189
917.043	0.0142072
917.121	0.0142296
917.200	0.0143183
917.278	0.0141738
917.356	0.0141887
917.434	0.0141277
917.512	0.0142010
917.590	0.0142874
917.668	0.0143190
917.746	0.0143451
917.825	0.0144514
917.903	0.0144587
917.981	0.0142845
918.059	0.0144398
918.137	0.0144118
918.215	0.0144199
918.293	0.0143664
918.371	0.0144310
918.450	0.0142233
918.528	0.0142704
918.606	0.0142279
918.684	0.0141673
918.762	0.0141576
918.840	0.0142318
918.918	0.0141644
918.996	0.0140300
919.075	0.0141896
919.153	0.0142284
919.231	0.0141496
919.309	0.0142505
919.387	0.0141442
919.465	0.0141171
919.543	0.0143800
919.621	0.0142078
919.700	0.0143101
919.778	0.0142389
919.856	0.0142751
919.934	0.0143409
920.012	0.0143235
920.090	0.0142998
920.168	0.0143134
920.246	0.0142527
920.325	0.0143113
920.403	0.0142032
920.481	0.0142692
920.559	0.0140745
920.637	0.0142895
920.715	0.0141682
920.793	0.0140939
920.871	0.0142033
920.950	0.0142931
921.028	0.0142297
921.106	0.0141848
921.184	0.0142719
921.262	0.0142965
921.340	0.0142931
921.418	0.0144015
921.496	0.0144061
921.575	0.0143415
921.653	0.0144034
921.731	0.0143084
921.809	0.0143225
921.887	0.0143579
921.965	0.0143700
922.043	0.0144328
922.121	0.0143800
922.200	0.0140934
922.278	0.0142526
922.356	0.0141058
922.434	0.0141367
922.512	0.0142988
922.590	0.0142559
922.668	0.0142225
922.746	0.0142172
922.825	0.0142382
922.903	0.0141196
922.981	0.0142439
923.059	0.0141064
923.137	0.0141959
923.215	0.0141599
923.293	0.0141402
923.371	0.0143501
923.450	0.0141750
923.528	0.0143448
923.606	0.0142862
923.684	0.0144384
923.762	0.0143130
923.840	0.0142822
923.918	0.0142697
923.996	0.0142255
924.075	0.0143131
924.153	0.0143751
924.231	0.0143846
924.309	0.0141905
924.387	0.0142447
924.465	0.0142123
924.543	0.0140972
924.621	0.0142046
924.700	0.0142568
924.778	0.0141006
924.856	0.0142028
924.934	0.0141461
925.012	0.0141316
925.090	0.0143221
925.168	0.0142701
925.246	0.0142852
925.325	0.0143645
925.403	0.0144944
925.481	0.0143518
925.559	0.0144124
925.637	0.0144262
925.715	0.0142487
925.793	0.0144073
925.871	0.0142788
925.950	0.0143316
926.028	0.0143284
926.106	0.0142135
926.184	0.0143395
926.262	0.0144035
926.340	0.0141113
926.418	0.0143378
926.496	0.0145148
926.575	0.0142317
926.653	0.0143170
926.731	0.0141748
926.809	0.0142718
926.887	0.0142572
926.965	0.0141467
927.043	0.0140771
927.121	0.0143092
927.200	0.0142072
927.278	0.0141670
927.356	0.0143034
927.434	0.0142664
927.512	0.0142174
927.590	0.0142413
927.668	0.0142858
927.746	0.0141297
927.825	0.0143378
927.903	0.0142969
927.981	0.0141622
928.059	0.0143405
928.137	0.0142437
928.215	0.0142509
928.293	0.0143703
928.371	0.0143854
928.450	0.0142783
928.528	0.0143018
928.606	0.0142100
928.684	0.0143332
928.762	0.0142925
928.840	0.0142909
928.918	0.0141756
928.996	0.0140722
929.075	0.0142471
929.153	0.0142495
929.231	0.0142496
929.309	0.0143034
929.387	0.0142316
929.465	0.0142134
929.543	0.0142121
929.621	0.0142639
929.700	0.0142812
929.778	0.0143559
929.856	0.0144627
929.934	0.0144340
930.012	0.0144251
930.090	0.0143196
930.168	0.0142323
930.246	0.0142394
930.325	0.0144994
930.403	0.0144048
930.481	0.0142890
930.559	0.0143559
930.637	0.0144044
930.715	0.0143671
930.793	0.0143409
930.871	0.0142777
930.950	0.0142202
931.028	0.0141522
931.106	0.0141969
931.184	0.0142182
931.262	0.0141479
931.340	0.0141227
931.418	0.0141313
931.496	0.0140891
931.575	0.0143182
931.653	0.0143091
931.731	0.0142490
931.809	0.0142363
931.887	0.0142883
931.965	0.0141167
932.043	0.0142909
932.121	0.0141795
932.200	0.0142509
932.278	0.0143253
932.356	0.0144188
932.434	0.0143865
932.512	0.0144287
932.590	0.0143703
932.668	0.0143487
932.746	0.0143175
932.825	0.0142253
932.903	0.0143238
932.981	0.0143620
933.059	0.0143132
933.137	0.0141351
933.215	0.0141679
933.293	0.0142005
933.371	0.0141010
933.450	0.0142014
933.528	0.0141679
933.606	0.0140601
933.684	0.0142892
933.762	0.0140991
933.840	0.0142522
933.918	0.0141418
933.996	0.0141640
934.075	0.0143660
934.153	0.0144079
934.231	0.0143551
934.309	0.0143909
934.387	0.0144939
934.465	0.0144552
934.543	0.0142581
934.621	0.0144544
934.700	0.0144411
934.778	0.0143323
934.856	0.0144147
934.934	0.0144872
935.012	0.0144200
935.090	0.0142767
935.168	0.0143441
935.246	0.0144607
935.325	0.0143678
935.403	0.0143432
935.481	0.0144453
935.559	0.0143733
935.637	0.0142121
935.715	0.0143827
935.793	0.0143095
935.871	0.0143972
935.950	0.0143606
936.028	0.0142991
936.106	0.0144438
936.184	0.0144394
936.262	0.0143972
936.340	0.0142291
936.418	0.0142445
936.496	0.0144151
936.575	0.0144593
936.653	0.0144568
936.731	0.0143606
936.809	0.0143063
936.887	0.0144225
936.965	0.0145135
937.043	0.0144249
937.121	0.0144134
937.200	0.0143182
937.278	0.0144403
937.356	0.0143412
937.434	0.0143688
937.512	0.0143489
937.590	0.0143314
937.668	0.0145103
937.746	0.0142971
937.825	0.0142313
937.903	0.0141547
937.981	0.0142627
938.059	0.0143964
938.137	0.0143237
938.215	0.0143117
938.293	0.0142274
938.371	0.0143012
938.450	0.0143282
938.528	0.0144540
938.606	0.0143798
938.684	0.0143368
938.762	0.0143175
938.840	0.0143036
938.918	0.0142879
938.996	0.0143518
939.075	0.0143835
939.153	0.0143488
939.231	0.0143279
939.309	0.0143929
939.387	0.0143215
939.465	0.0142461
939.543	0.0143079
939.621	0.0142148
939.700	0.0144022
939.778	0.0144135
939.856	0.0142596
939.934	0.0143403
940.012	0.0143639
940.090	0.0143925
940.168	0.0144400
940.246	0.0144892
940.325	0.0141852
940.403	0.0143062
940.481	0.0144175
940.559	0.0144269
940.637	0.0144069
940.715	0.0142905
940.793	0.0142214
940.871	0.0142149
940.950	0.0142255
941.028	0.0143129
941.106	0.0141794
941.184	0.0142809
941.262	0.0141788
941.340	0.0143681
941.418	0.0142522
941.496	0.0141917
941.575	0.0142859
941.653	0.0142595
941.731	0.0142101
941.809	0.0144135
941.887	0.0143188
941.965	0.0143711
942.043	0.0143477
942.121	0.0144115
942.200	0.0144045
942.278	0.0144440
942.356	0.0143756
942.434	0.0144491
942.512	0.0143643
942.590	0.0143243
942.668	0.0143393
942.746	0.0143101
942.825	0.0141689
942.903	0.0143302
942.981	0.0141998
943.059	0.0141560
943.137	0.0143086
943.215	0.0140691
943.293	0.0142390
943.371	0.0143523
943.450	0.0142039
943.528	0.0141819
943.606	0.0141881
943.684	0.0142360
943.762	0.0143295
943.840	0.0142415
943.918	0.0142929
943.996	0.0143253
944.075	0.0142107
944.153	0.0141895
944.231	0.0143247
944.309	0.0144211
944.387	0.0143496
944.465	0.0143379
944.543	0.0142999
944.621	0.0142921
944.700	0.0142818
944.778	0.0144180
944.856	0.0142614
944.934	0.0142746
945.012	0.0141480
945.090	0.0142115
945.168	0.0142713
945.246	0.0142210
945.325	0.0141857
945.403	0.0141611
945.481	0.0141470
945.559	0.0142258
945.637	0.0142297
945.715	0.0142543
945.793	0.0142146
945.871	0.0143118
945.950	0.0142860
946.028	0.0142329
946.106	0.0142538
946.184	0.0142621
946.262	0.0143030
946.340	0.0143451
946.418	0.0143231
946.496	0.0143469
946.575	0.0144669
946.653	0.0143837
946.731	0.0141950
946.809	0.0143369
946.887	0.0143588
946.965	0.0144358
947.043	0.0142808
947.121	0.0142793
947.200	0.0142942
947.278	0.0143420
947.356	0.0141860
947.434	0.0142091
947.512	0.0142897
947.590	0.0144106
947.668	0.0143379
947.746	0.0142944
947.825	0.0144306
947.903	0.0142908
947.981	0.0145310
948.059	0.0145084
948.137	0.0141634
948.215	0.0142357
948.293	0.0143443
948.371	0.0141922
948.450	0.0142962
948.528	0.0142653
948.606	0.0143550
948.684	0.0143797
948.762	0.0143513
948.840	0.0142760
948.918	0.0144281
948.996	0.0143040
949.075	0.0144176
949.153	0.0143777
949.231	0.0143506
949.309	0.0142516
949.387	0.0143054
949.465	0.0142853
949.543	0.0143365
949.621	0.0143282
949.700	0.0145011
949.778	0.0142881
949.856	0.0142716
949.934	0.0142995
950.012	0.0144134
950.090	0.0142793
950.168	0.0142889
950.246	0.0141441
950.325	0.0144734
950.403	0.0144088
950.481	0.0142623
950.559	0.0142536
950.637	0.0144413
950.715	0.0143813
950.793	0.0143198
950.871	0.0144388
950.950	0.0143493
951.028	0.0143093
951.106	0.0143388
951.184	0.0142431
951.262	0.0142379
951.340	0.0144373
951.418	0.0143583
951.496	0.0144608
951.575	0.0142210
951.653	0.0143283
951.731	0.0143925
951.809	0.0143143
951.887	0.0143207
951.965	0.0143188
952.043	0.0142706
952.121	0.0143073
952.200	0.0141795
952.278	0.0142211
952.356	0.0142248
952.434	0.0143382
952.512	0.0141864
952.590	0.0142607
952.668	0.0142107
952.746	0.0142171
952.825	0.0142862
952.903	0.0143060
952.981	0.0142408
953.059	0.0142863
953.137	0.0141433
953.215	0.0140741
953.293	0.0141829
953.371	0.0142514
953.450	0.0142516
953.528	0.0142219
953.606	0.0143497
953.684	0.0143745
953.762	0.0143506
953.840	0.0143531
953.918	0.0143145
953.996	0.0142699
954.075	0.0142957
954.153	0.0141483
954.231	0.0142184
954.309	0.0143072
954.387	0.0140610
954.465	0.0142129
954.543	0.0142033
954.621	0.0143416
954.700	0.0142369
954.778	0.0142772
954.856	0.0141315
954.934	0.0142912
955.012	0.0142007
955.090	0.0143472
955.168	0.0141603
955.246	0.0140737
955.325	0.0141808
955.403	0.0144061
955.481	0.0143015
955.559	0.0142129
955.637	0.0141885
955.715	0.0142414
955.793	0.0143583
955.871	0.0142816
955.950	0.0141718
956.028	0.0144558
956.106	0.0141681
956.184	0.0141752
956.262	0.0142453
956.340	0.0141860
956.418	0.0141910
956.496	0.0142175
956.575	0.0142936
956.653	0.0141712
956.731	0.0142866
956.809	0.0142699
956.887	0.0141738
956.965	0.0141784
957.043	0.0143494
957.121	0.0144173
957.200	0.0144018
957.278	0.0144067
957.356	0.0144581
957.434	0.0144245
957.512	0.0143946
957.590	0.0143954
957.668	0.0144456
957.746	0.0142562
957.825	0.0144423
957.903	0.0143729
957.981	0.0143668
958.059	0.0142794
958.137	0.0143866
958.215	0.0143800
958.293	0.0141962
958.371	0.0141332
958.450	0.0142285
958.528	0.0142638
958.606	0.0141832
958.684	0.0141659
958.762	0.0141478
958.840	0.0142734
958.918	0.0143119
958.996	0.0142209
959.075	0.0142515
959.153	0.0142490
959.231	0.0141550
959.309	0.0142956
959.387	0.0142359
959.465	0.0143391
959.543	0.0144048
959.621	0.0142850
959.700	0.0143056
959.778	0.0143928
959.856	0.0144958
959.934	0.0142978
960.012	0.0143935
960.090	0.0141351
960.168	0.0143176
960.246	0.0144099
960.325	0.0142872
960.403	0.0143302
960.481	0.0142054
960.559	0.0142718
960.637	0.0141518
960.715	0.0142868
960.793	0.0144379
960.871	0.0143964
960.950	0.0142464
961.028	0.0143326
961.106	0.0142955
961.184	0.0142039
961.262	0.0143620
961.340	0.0143095
961.418	0.0143118
961.496	0.0143468
961.575	0.0143474
961.653	0.0143917
961.731	0.0142784
961.809	0.0144804
961.887	0.0143161
961.965	0.0143898
962.043	0.0144230
962.121	0.0143646
962.200	0.0142216
962.278	0.0143699
962.356	0.0143171
962.434	0.0142513
962.512	0.0142610
962.590	0.0143914
962.668	0.0142709
962.746	0.0141788
962.825	0.0141891
962.903	0.0142281
962.981	0.0141333
963.059	0.0142107
963.137	0.0141685
963.215	0.0141570
963.293	0.0141777
963.371	0.0140867
963.450	0.0141662
963.528	0.0143338
963.606	0.0142297
963.684	0.0143680
963.762	0.0143907
963.840	0.0142563
963.918	0.0144305
963.996	0.0144016
964.075	0.0142744
964.153	0.0143071
964.231	0.0143643
964.309	0.0143286
964.387	0.0142458
964.465	0.0141357
964.543	0.0142335
964.621	0.0143404
964.700	0.0142635
964.778	0.0140881
964.856	0.0140922
964.934	0.0140778
965.012	0.0142268
965.090	0.0141785
965.168	0.0141872
965.246	0.0142131
965.325	0.0142573
965.403	0.0141456
965.481	0.0141087
965.559	0.0140958
965.637	0.0143439
965.715	0.0141805
965.793	0.0141789
965.871	0.0142754
965.950	0.0143241
966.028	0.0143324
966.106	0.0142339
966.184	0.0142298
966.262	0.0142296
966.340	0.0142422
966.418	0.0142412
966.496	0.0142784
966.575	0.0142588
966.653	0.0142095
966.731	0.0142857
966.809	0.0142339
966.887	0.0141524
966.965	0.0141351
967.043	0.0141382
967.121	0.0141163
967.200	0.0141525
967.278	0.0142585
967.356	0.0142322
967.434	0.0142091
967.512	0.0143501
967.590	0.0144440
967.668	0.0142986
967.746	0.0142130
967.825	0.0142209
967.903	0.0142833
967.981	0.0143369
968.059	0.0142969
968.137	0.0142988
968.215	0.0142464
968.293	0.0141376
968.371	0.0141652
968.450	0.0142766
968.528	0.0141682
968.606	0.0140488
968.684	0.0141737
968.762	0.0142285
968.840	0.0141142
968.918	0.0142163
968.996	0.0142899
969.075	0.0141706
969.153	0.0142707
969.231	0.0142830
969.309	0.0141459
969.387	0.0142208
969.465	0.0143797
969.543	0.0142941
969.621	0.0142478
969.700	0.0143113
969.778	0.0143696
969.856	0.0142863
969.934	0.0142836
970.012	0.0141262
970.090	0.0143723
970.168	0.0143489
970.246	0.0142814
970.325	0.0142864
970.403	0.0142923
970.481	0.0143587
970.559	0.0142364
970.637	0.0142351
970.715	0.0143488
970.793	0.0144152
970.871	0.0142735
970.950	0.0144128
971.028	0.0142359
971.106	0.0142226
971.184	0.0142447
971.262	0.0141781
971.340	0.0142197
971.418	0.0143234
971.496	0.0142686
971.575	0.0141762
971.653	0.0142690
971.731	0.0141594
971.809	0.0141768
971.887	0.0143431
971.965	0.0142413
972.043	0.0143964
972.121	0.0143702
972.200	0.0144079
972.278	0.0142636
972.356	0.0143689
972.434	0.0144577
972.512	0.0143987
972.590	0.0142922
972.668	0.0142503
972.746	0.0142123
972.825	0.0143890
972.903	0.0143423
972.981	0.0142123
973.059	0.0142860
973.137	0.0140855
973.215	0.0140525
973.293	0.0141402
973.371	0.0141413
973.450	0.0141977
973.528	0.0141581
973.606	0.0142802
973.684	0.0141932
973.762	0.0143540
973.840	0.0142807
973.918	0.0142416
973.996	0.0144047
974.075	0.0142275
974.153	0.0143562
974.231	0.0143777
974.309	0.0142548
974.387	0.0143622
974.465	0.0142904
974.543	0.0142728
974.621	0.0143781
974.700	0.0142632
974.778	0.0143820
974.856	0.0143534
974.934	0.0143285
975.012	0.0141337
975.090	0.0142885
975.168	0.0142619
975.246	0.0142017
975.325	0.0140154
975.403	0.0140862
975.481	0.0143207
975.559	0.0143547
975.637	0.0141724
975.715	0.0141877
975.793	0.0141451
975.871	0.0142172
975.950	0.0143004
976.028	0.0142674
976.106	0.0143652
976.184	0.0143055
976.262	0.0142857
976.340	0.0142747
976.418	0.0143219
976.496	0.0144221
976.575	0.0144257
976.653	0.0143121
976.731	0.0143695
976.809	0.0143197
976.887	0.0143238
976.965	0.0142206
977.043	0.0143099
977.121	0.0141492
977.200	0.0141041
977.278	0.0141000
977.356	0.0140976
977.434	0.0140784
977.512	0.0141725
977.590	0.0141956
977.668	0.0141211
977.746	0.0140878
977.825	0.0140714
977.903	0.0142117
977.981	0.0142856
978.059	0.0143510
978.137	0.0141188
978.215	0.0144134
978.293	0.0144323
978.371	0.0143230
978.450	0.0143259
978.528	0.0144318
978.606	0.0143493
978.684	0.0143943
978.762	0.0143642
978.840	0.0143312
978.918	0.0142143
978.996	0.0144465
979.075	0.0142188
979.153	0.0142480
979.231	0.0142567
979.309	0.0141370
979.387	0.0140972
979.465	0.0141216
979.543	0.0141100
979.621	0.0140613
979.700	0.0141866
979.778	0.0142074
979.856	0.0141832
979.934	0.0142229
980.012	0.0143645
980.090	0.0142456
980.168	0.0142081
980.246	0.0142990
980.325	0.0143774
980.403	0.0144180
980.481	0.0143541
980.559	0.0142832
980.637	0.0142542
980.715	0.0142271
980.793	0.0142313
980.871	0.0143848
980.950	0.0142735
981.028	0.0142888
981.106	0.0142623
981.184	0.0142351
981.262	0.0142375
981.340	0.0143574
981.418	0.0141421
981.496	0.0142548
981.575	0.0141815
981.653	0.0141162
981.731	0.0141544
981.809	0.0142365
981.887	0.0143431
981.965	0.0142500
982.043	0.0142730
982.121	0.0141386
982.200	0.0140491
982.278	0.0142981
982.356	0.0142528
982.434	0.0143195
982.512	0.0142082
982.590	0.0143172
982.668	0.0143446
982.746	0.0142582
982.825	0.0143741
982.903	0.0143294
982.981	0.0141865
983.059	0.0142761
983.137	0.0142847
983.215	0.0142771
983.293	0.0143230
983.371	0.0142399
983.450	0.0142340
983.528	0.0142110
983.606	0.0140107
983.684	0.0141627
983.762	0.0142603
983.840	0.0142832
983.918	0.0142000
983.996	0.0141795
984.075	0.0140190
984.153	0.0142636
984.231	0.0142258
984.309	0.0142287
984.387	0.0141299
984.465	0.0141694
984.543	0.0143582
984.621	0.0144227
984.700	0.0142509
984.778	0.0142125
984.856	0.0142651
984.934	0.0142949
985.012	0.0142905
985.090	0.0143301
985.168	0.0140667
985.246	0.0142007
985.325	0.0141972
985.403	0.0143157
985.481	0.0141119
985.559	0.0141901
985.637	0.0142887
985.715	0.0142432
985.793	0.0143140
985.871	0.0142142
985.950	0.0141694
986.028	0.0142400
986.106	0.0141898
986.184	0.0141675
986.262	0.0142089
986.340	0.0143896
986.418	0.0142521
986.496	0.0141946
986.575	0.0141309
986.653	0.0141919
986.731	0.0142477
986.809	0.0143445
986.887	0.0143163
986.965	0.0142369
987.043	0.0142655
987.121	0.0143083
987.200	0.0143702
987.278	0.0143136
987.356	0.0142499
987.434	0.0142639
987.512	0.0141791
987.590	0.0140929
987.668	0.0141515
987.746	0.0142587
987.825	0.0141987
987.903	0.0143006
987.981	0.0142400
988.059	0.0142530
988.137	0.0141805
988.215	0.0141344
988.293	0.0142493
988.371	0.0143491
988.450	0.0143807
988.528	0.0141573
988.606	0.0141159
988.684	0.0141676
988.762	0.0142590
988.840	0.0141743
988.918	0.0142404
988.996	0.0142296
989.075	0.0142913
989.153	0.0142056
989.231	0.0141226
989.309	0.0141420
989.387	0.0141506
989.465	0.0142345
989.543	0.0141996
989.621	0.0140298
989.700	0.0141806
989.778	0.0140225
989.856	0.0141276
989.934	0.0142171
990.012	0.0141022
990.090	0.0141460
990.168	0.0140998
990.246	0.0141640
990.325	0.0141949
990.403	0.0141862
990.481	0.0141071
990.559	0.0140276
990.637	0.0140906
990.715	0.0143400
990.793	0.0142696
990.871	0.0142442
990.950	0.0141389
991.028	0.0142879
991.106	0.0143249
991.184	0.0142621
991.262	0.0140942
991.340	0.0143818
991.418	0.0141909
991.496	0.0141058
991.575	0.0142094
991.653	0.0142667
991.731	0.0141590
991.809	0.0141710
991.887	0.0141393
991.965	0.0142016
992.043	0.0141737
992.121	0.0142829
992.200	0.0140858
992.278	0.0141211
992.356	0.0142892
992.434	0.0141429
992.512	0.0141169
992.590	0.0142362
992.668	0.0142582
992.746	0.0142025
992.825	0.0141767
992.903	0.0141838
992.981	0.0142587
993.059	0.0141756
993.137	0.0141460
993.215	0.0142622
993.293	0.0142178
993.371	0.0140945
993.450	0.0141371
993.528	0.0142170
993.606	0.0142164
993.684	0.0141711
993.762	0.0141201
993.840	0.0141295
993.918	0.0140955
993.996	0.0141997
994.075	0.0140864
994.153	0.0142463
994.231	0.0143227
994.309	0.0142267
994.387	0.0142565
994.465	0.0142137
994.543	0.0142558
994.621	0.0142696
994.700	0.0140604
994.778	0.0143681
994.856	0.0142115
994.934	0.0141298
995.012	0.0142450
995.090	0.0142321
995.168	0.0142282
995.246	0.0142171
995.325	0.0140508
995.403	0.0141728
995.481	0.0140179
995.559	0.0141281
995.637	0.0141663
995.715	0.0141866
995.793	0.0142178
995.871	0.0142717
995.950	0.0142159
996.028	0.0142704
996.106	0.0142270
996.184	0.0140694
996.262	0.0141629
996.340	0.0142637
996.418	0.0142611
996.496	0.0141956
996.575	0.0142070
996.653	0.0144366
996.731	0.0143037
996.809	0.0143580
996.887	0.0141795
996.965	0.0142920
997.043	0.0143315
997.121	0.0142975
997.200	0.0142862
997.278	0.0142101
997.356	0.0144289
997.434	0.0142405
997.512	0.0142212
997.590	0.0142158
997.668	0.0142264
997.746	0.0141784
997.825	0.0142353
997.903	0.0143003
997.981	0.0141406
998.059	0.0142320
998.137	0.0141843
998.215	0.0142792
998.293	0.0142774
998.371	0.0142139
998.450	0.0141704
998.528	0.0142802
998.606	0.0140778
998.684	0.0142271
998.762	0.0143319
998.840	0.0141439
998.918	0.0141962
