05/04/2022	21:01:17	Ver.	4.1	UNKNOWN
Optical Delay	678.996401	Delta X		0.078125	Sweeps	1	Scan Rate	0/0
Coordinates	Axis 1	NaN	Axis 2	NaN	Axis 3	NaN	Axis 4	NaN	Axis 5	NaN	Axis 6	0.000000
TX Power	0.000000	RX Power	0.000000

678.996	0.0141564
679.075	0.0143154
679.153	0.0141077
679.231	0.0142101
679.309	0.0141886
679.387	0.0142741
679.465	0.0142360
679.543	0.0142427
679.621	0.0140923
679.700	0.0140998
679.778	0.0143282
679.856	0.0141049
679.934	0.0141571
680.012	0.0142027
680.090	0.0140598
680.168	0.0141483
680.246	0.0142985
680.325	0.0141190
680.403	0.0141701
680.481	0.0141322
680.559	0.0140810
680.637	0.0141772
680.715	0.0142932
680.793	0.0142513
680.871	0.0139774
680.950	0.0140215
681.028	0.0142368
681.106	0.0141563
681.184	0.0141042
681.262	0.0140434
681.340	0.0141617
681.418	0.0141546
681.496	0.0140595
681.575	0.0141940
681.653	0.0141743
681.731	0.0141021
681.809	0.0140896
681.887	0.0141007
681.965	0.0141265
682.043	0.0141714
682.121	0.0140623
682.200	0.0141873
682.278	0.0141022
682.356	0.0143098
682.434	0.0142050
682.512	0.0141866
682.590	0.0142339
682.668	0.0141536
682.746	0.0141213
682.825	0.0140777
682.903	0.0141394
682.981	0.0142206
683.059	0.0142789
683.137	0.0140648
683.215	0.0141427
683.293	0.0141933
683.371	0.0141941
683.450	0.0143085
683.528	0.0141024
683.606	0.0140208
683.684	0.0141161
683.762	0.0141022
683.840	0.0142252
683.918	0.0141301
683.996	0.0141374
684.075	0.0142480
684.153	0.0141832
684.231	0.0142375
684.309	0.0142493
684.387	0.0142282
684.465	0.0142715
684.543	0.0140424
684.621	0.0141886
684.700	0.0140995
684.778	0.0141666
684.856	0.0140897
684.934	0.0140013
685.012	0.0141409
685.090	0.0140472
685.168	0.0142746
685.246	0.0142141
685.325	0.0140598
685.403	0.0141187
685.481	0.0140800
685.559	0.0141814
685.637	0.0142600
685.715	0.0142106
685.793	0.0140197
685.871	0.0142370
685.950	0.0140571
686.028	0.0143096
686.106	0.0142364
686.184	0.0141644
686.262	0.0142445
686.340	0.0142145
686.418	0.0140085
686.496	0.0141704
686.575	0.0141459
686.653	0.0141914
686.731	0.0142301
686.809	0.0141429
686.887	0.0141592
686.965	0.0141193
687.043	0.0141860
687.121	0.0142282
687.200	0.0141297
687.278	0.0141138
687.356	0.0142715
687.434	0.0140930
687.512	0.0140333
687.590	0.0141330
687.668	0.0141711
687.746	0.0141425
687.825	0.0142289
687.903	0.0141458
687.981	0.0140630
688.059	0.0140435
688.137	0.0141835
688.215	0.0142277
688.293	0.0143102
688.371	0.0140073
688.450	0.0140744
688.528	0.0142368
688.606	0.0141335
688.684	0.0142019
688.762	0.0142895
688.840	0.0141277
688.918	0.0141189
688.996	0.0141444
689.075	0.0141822
689.153	0.0141904
689.231	0.0141043
689.309	0.0141280
689.387	0.0142924
689.465	0.0141698
689.543	0.0141748
689.621	0.0141925
689.700	0.0141918
689.778	0.0141395
689.856	0.0140800
689.934	0.0141657
690.012	0.0140722
690.090	0.0140025
690.168	0.0142274
690.246	0.0141235
690.325	0.0141483
690.403	0.0141530
690.481	0.0140446
690.559	0.0142094
690.637	0.0141726
690.715	0.0141448
690.793	0.0142126
690.871	0.0141855
690.950	0.0141089
691.028	0.0140556
691.106	0.0142776
691.184	0.0142119
691.262	0.0140965
691.340	0.0141312
691.418	0.0142144
691.496	0.0141003
691.575	0.0141981
691.653	0.0141141
691.731	0.0141116
691.809	0.0141402
691.887	0.0140479
691.965	0.0141843
692.043	0.0141481
692.121	0.0140383
692.200	0.0140602
692.278	0.0140369
692.356	0.0142144
692.434	0.0140594
692.512	0.0139929
692.590	0.0142201
692.668	0.0141136
692.746	0.0140959
692.825	0.0140501
692.903	0.0141589
692.981	0.0140842
693.059	0.0141155
693.137	0.0141859
693.215	0.0141392
693.293	0.0141502
693.371	0.0142117
693.450	0.0141397
693.528	0.0143494
693.606	0.0142425
693.684	0.0141615
693.762	0.0141279
693.840	0.0141932
693.918	0.0140909
693.996	0.0142624
694.075	0.0141756
694.153	0.0139773
694.231	0.0141149
694.309	0.0142049
694.387	0.0140506
694.465	0.0141339
694.543	0.0142340
694.621	0.0141899
694.700	0.0141506
694.778	0.0141788
694.856	0.0141746
694.934	0.0142545
695.012	0.0141654
695.090	0.0140422
695.168	0.0142172
695.246	0.0141107
695.325	0.0141590
695.403	0.0142045
695.481	0.0143062
695.559	0.0141497
695.637	0.0141455
695.715	0.0141263
695.793	0.0142343
695.871	0.0142333
695.950	0.0141058
696.028	0.0141775
696.106	0.0142632
696.184	0.0141549
696.262	0.0142049
696.340	0.0141748
696.418	0.0142891
696.496	0.0142517
696.575	0.0142333
696.653	0.0141152
696.731	0.0141682
696.809	0.0142456
696.887	0.0142542
696.965	0.0140852
697.043	0.0140644
697.121	0.0142092
697.200	0.0141397
697.278	0.0142550
697.356	0.0141814
697.434	0.0141150
697.512	0.0141058
697.590	0.0140916
697.668	0.0140797
697.746	0.0141563
697.825	0.0141055
697.903	0.0141137
697.981	0.0142045
698.059	0.0141024
698.137	0.0141521
698.215	0.0140695
698.293	0.0141695
698.371	0.0142874
698.450	0.0142019
698.528	0.0142410
698.606	0.0143336
698.684	0.0141095
698.762	0.0141956
698.840	0.0142716
698.918	0.0142558
698.996	0.0142654
699.075	0.0140772
699.153	0.0142538
699.231	0.0141015
699.309	0.0141674
699.387	0.0143829
699.465	0.0141751
699.543	0.0142212
699.621	0.0140868
699.700	0.0139710
699.778	0.0141612
699.856	0.0141273
699.934	0.0142253
700.012	0.0140723
700.090	0.0142947
700.168	0.0142512
700.246	0.0140698
700.325	0.0142876
700.403	0.0141309
700.481	0.0142168
700.559	0.0141573
700.637	0.0141436
700.715	0.0141921
700.793	0.0142416
700.871	0.0142949
700.950	0.0141512
701.028	0.0141025
701.106	0.0141450
701.184	0.0141058
701.262	0.0140511
701.340	0.0141787
701.418	0.0142532
701.496	0.0142272
701.575	0.0143434
701.653	0.0141529
701.731	0.0141219
701.809	0.0141543
701.887	0.0142396
701.965	0.0142462
702.043	0.0140732
702.121	0.0141431
702.200	0.0141850
702.278	0.0142364
702.356	0.0140605
702.434	0.0141788
702.512	0.0142121
702.590	0.0141453
702.668	0.0140235
702.746	0.0140378
702.825	0.0141817
702.903	0.0142677
702.981	0.0141640
703.059	0.0141491
703.137	0.0141819
703.215	0.0141667
703.293	0.0140560
703.371	0.0141736
703.450	0.0140724
703.528	0.0140932
703.606	0.0140957
703.684	0.0140471
703.762	0.0141438
703.840	0.0142428
703.918	0.0141721
703.996	0.0141064
704.075	0.0142075
704.153	0.0142274
704.231	0.0141608
704.309	0.0141821
704.387	0.0142091
704.465	0.0141206
704.543	0.0141916
704.621	0.0141872
704.700	0.0141324
704.778	0.0141148
704.856	0.0142482
704.934	0.0143093
705.012	0.0141611
705.090	0.0141344
705.168	0.0142244
705.246	0.0142564
705.325	0.0142735
705.403	0.0141527
705.481	0.0141404
705.559	0.0142136
705.637	0.0143460
705.715	0.0142329
705.793	0.0141647
705.871	0.0142472
705.950	0.0142113
706.028	0.0141998
706.106	0.0142566
706.184	0.0142611
706.262	0.0143102
706.340	0.0142689
706.418	0.0141745
706.496	0.0139963
706.575	0.0138950
706.653	0.0139237
706.731	0.0137509
706.809	0.0136411
706.887	0.0139011
706.965	0.0137650
707.043	0.0137948
707.121	0.0139276
707.200	0.0141576
707.278	0.0143987
707.356	0.0144633
707.434	0.0146075
707.512	0.0147439
707.590	0.0147835
707.668	0.0148797
707.746	0.0146288
707.825	0.0144398
707.903	0.0143851
707.981	0.0141399
708.059	0.0138272
708.137	0.0137027
708.215	0.0134475
708.293	0.0133273
708.371	0.0131236
708.450	0.0130836
708.528	0.0130206
708.606	0.0130758
708.684	0.0134899
708.762	0.0138605
708.840	0.0141909
708.918	0.0147173
708.996	0.0151356
709.075	0.0154951
709.153	0.0156846
709.231	0.0155955
709.309	0.0155931
709.387	0.0153530
709.465	0.0148853
709.543	0.0146120
709.621	0.0140826
709.700	0.0135976
709.778	0.0134960
709.856	0.0130070
709.934	0.0126023
710.012	0.0125457
710.090	0.0126246
710.168	0.0126907
710.246	0.0130865
710.325	0.0136049
710.403	0.0139132
710.481	0.0147448
710.559	0.0153994
710.637	0.0159177
710.715	0.0164204
710.793	0.0166913
710.871	0.0166199
710.950	0.0162154
711.028	0.0160128
711.106	0.0153190
711.184	0.0145071
711.262	0.0138124
711.340	0.0131132
711.418	0.0125542
711.496	0.0120731
711.575	0.0116867
711.653	0.0115502
711.731	0.0115595
711.809	0.0117752
711.887	0.0119665
711.965	0.0125996
712.043	0.0132269
712.121	0.0139817
712.200	0.0144292
712.278	0.0149382
712.356	0.0152744
712.434	0.0156345
712.512	0.0156969
712.590	0.0156721
712.668	0.0154208
712.746	0.0152119
712.825	0.0147723
712.903	0.0145082
712.981	0.0141306
713.059	0.0138223
713.137	0.0132824
713.215	0.0132983
713.293	0.0133431
713.371	0.0133411
713.450	0.0135705
713.528	0.0140826
713.606	0.0144098
713.684	0.0147614
713.762	0.0152293
713.840	0.0151301
713.918	0.0152050
713.996	0.0151231
714.075	0.0149013
714.153	0.0146895
714.231	0.0142820
714.309	0.0137445
714.387	0.0133598
714.465	0.0129426
714.543	0.0127054
714.621	0.0127407
714.700	0.0127379
714.778	0.0127119
714.856	0.0131336
714.934	0.0135771
715.012	0.0140812
715.090	0.0147044
715.168	0.0151418
715.246	0.0155922
715.325	0.0159499
715.403	0.0160833
715.481	0.0162045
715.559	0.0162000
715.637	0.0160805
715.715	0.0157209
715.793	0.0153043
715.871	0.0148148
715.950	0.0142435
716.028	0.0135504
716.106	0.0130470
716.184	0.0125604
716.262	0.0121828
716.340	0.0120307
716.418	0.0119289
716.496	0.0119508
716.575	0.0123534
716.653	0.0128516
716.731	0.0133598
716.809	0.0140115
716.887	0.0146286
716.965	0.0152710
717.043	0.0158038
717.121	0.0162255
717.200	0.0165636
717.278	0.0166804
717.356	0.0164191
717.434	0.0159665
717.512	0.0156267
717.590	0.0150458
717.668	0.0144549
717.746	0.0136041
717.825	0.0130922
717.903	0.0123035
717.981	0.0119222
718.059	0.0116192
718.137	0.0112299
718.215	0.0112457
718.293	0.0114532
718.371	0.0118457
718.450	0.0123595
718.528	0.0130337
718.606	0.0137865
718.684	0.0145182
718.762	0.0153294
718.840	0.0160262
718.918	0.0164619
718.996	0.0169034
719.075	0.0170495
719.153	0.0173898
719.231	0.0173960
719.309	0.0171044
719.387	0.0167458
719.465	0.0161702
719.543	0.0154403
719.621	0.0146410
719.700	0.0139593
719.778	0.0132545
719.856	0.0124397
719.934	0.0117815
720.012	0.0115533
720.090	0.0112022
720.168	0.0111768
720.246	0.0111508
720.325	0.0111930
720.403	0.0115564
720.481	0.0121300
720.559	0.0128080
720.637	0.0134074
720.715	0.0140949
720.793	0.0148402
720.871	0.0154796
720.950	0.0160234
721.028	0.0164081
721.106	0.0167022
721.184	0.0167657
721.262	0.0166942
721.340	0.0164098
721.418	0.0163258
721.496	0.0157790
721.575	0.0152364
721.653	0.0146275
721.731	0.0140067
721.809	0.0134502
721.887	0.0130762
721.965	0.0126982
722.043	0.0122914
722.121	0.0120041
722.200	0.0119537
722.278	0.0122318
722.356	0.0124153
722.434	0.0128230
722.512	0.0130367
722.590	0.0131736
722.668	0.0135764
722.746	0.0139543
722.825	0.0142413
722.903	0.0145706
722.981	0.0149397
723.059	0.0150260
723.137	0.0151322
723.215	0.0153457
723.293	0.0153072
723.371	0.0152886
723.450	0.0151461
723.528	0.0150494
723.606	0.0147723
723.684	0.0145982
723.762	0.0144293
723.840	0.0143857
723.918	0.0141995
723.996	0.0140488
724.075	0.0138801
724.153	0.0137165
724.231	0.0136596
724.309	0.0134025
724.387	0.0131584
724.465	0.0132462
724.543	0.0133192
724.621	0.0133472
724.700	0.0132841
724.778	0.0134186
724.856	0.0136600
724.934	0.0139386
725.012	0.0141077
725.090	0.0144385
725.168	0.0147142
725.246	0.0148678
725.325	0.0148711
725.403	0.0149991
725.481	0.0149998
725.559	0.0150598
725.637	0.0149049
725.715	0.0146520
725.793	0.0145036
725.871	0.0143724
725.950	0.0140423
726.028	0.0139027
726.106	0.0135696
726.184	0.0135643
726.262	0.0135705
726.340	0.0135221
726.418	0.0133827
726.496	0.0135512
726.575	0.0139080
726.653	0.0137820
726.731	0.0138753
726.809	0.0141200
726.887	0.0142014
726.965	0.0142863
727.043	0.0143559
727.121	0.0143704
727.200	0.0144696
727.278	0.0146912
727.356	0.0144522
727.434	0.0144051
727.512	0.0144293
727.590	0.0144979
727.668	0.0143867
727.746	0.0142236
727.825	0.0143311
727.903	0.0142007
727.981	0.0139105
728.059	0.0138889
728.137	0.0138124
728.215	0.0137508
728.293	0.0135145
728.371	0.0136523
728.450	0.0134827
728.528	0.0134776
728.606	0.0135909
728.684	0.0136191
728.762	0.0138580
728.840	0.0140498
728.918	0.0143767
728.996	0.0144901
729.075	0.0147102
729.153	0.0147818
729.231	0.0149277
729.309	0.0152431
729.387	0.0150009
729.465	0.0150917
729.543	0.0150597
729.621	0.0148817
729.700	0.0147118
729.778	0.0144283
729.856	0.0142356
729.934	0.0139575
730.012	0.0135917
730.090	0.0135098
730.168	0.0133043
730.246	0.0130770
730.325	0.0129583
730.403	0.0131104
730.481	0.0130422
730.559	0.0132108
730.637	0.0133285
730.715	0.0134618
730.793	0.0136272
730.871	0.0140997
730.950	0.0144487
731.028	0.0145449
731.106	0.0147601
731.184	0.0150711
731.262	0.0152650
731.340	0.0153340
731.418	0.0153519
731.496	0.0150626
731.575	0.0149583
731.653	0.0147948
731.731	0.0147059
731.809	0.0143998
731.887	0.0143185
731.965	0.0140241
732.043	0.0136209
732.121	0.0134641
732.200	0.0134557
732.278	0.0132965
732.356	0.0131242
732.434	0.0131023
732.512	0.0130930
732.590	0.0131208
732.668	0.0131095
732.746	0.0132614
732.825	0.0132607
732.903	0.0135930
732.981	0.0136737
733.059	0.0138004
733.137	0.0140060
733.215	0.0142126
733.293	0.0144587
733.371	0.0146040
733.450	0.0148823
733.528	0.0151679
733.606	0.0154683
733.684	0.0156274
733.762	0.0154755
733.840	0.0156210
733.918	0.0156759
733.996	0.0154263
734.075	0.0153157
734.153	0.0151101
734.231	0.0148911
734.309	0.0145452
734.387	0.0143469
734.465	0.0138320
734.543	0.0133618
734.621	0.0133509
734.700	0.0129151
734.778	0.0127068
734.856	0.0125577
734.934	0.0124374
735.012	0.0125843
735.090	0.0125043
735.168	0.0127489
735.246	0.0129591
735.325	0.0134936
735.403	0.0137672
735.481	0.0141354
735.559	0.0144274
735.637	0.0147795
735.715	0.0151050
735.793	0.0152854
735.871	0.0155388
735.950	0.0156555
736.028	0.0156417
736.106	0.0157014
736.184	0.0155206
736.262	0.0153877
736.340	0.0151749
736.418	0.0149108
736.496	0.0146677
736.575	0.0143661
736.653	0.0141464
736.731	0.0139137
736.809	0.0134727
736.887	0.0133949
736.965	0.0131494
737.043	0.0129239
737.121	0.0129088
737.200	0.0129749
737.278	0.0129289
737.356	0.0130728
737.434	0.0131857
737.512	0.0134457
737.590	0.0137204
737.668	0.0139890
737.746	0.0143202
737.825	0.0147294
737.903	0.0149776
737.981	0.0151746
738.059	0.0153664
738.137	0.0154792
738.215	0.0155118
738.293	0.0154852
738.371	0.0154049
738.450	0.0154132
738.528	0.0152367
738.606	0.0148324
738.684	0.0145852
738.762	0.0142490
738.840	0.0139188
738.918	0.0136369
738.996	0.0132498
739.075	0.0132258
739.153	0.0131225
739.231	0.0129757
739.309	0.0129182
739.387	0.0131200
739.465	0.0132434
739.543	0.0134104
739.621	0.0136681
739.700	0.0138938
739.778	0.0139724
739.856	0.0141170
739.934	0.0142036
740.012	0.0144236
740.090	0.0147618
740.168	0.0149174
740.246	0.0149258
740.325	0.0149353
740.403	0.0149751
740.481	0.0149415
740.559	0.0147925
740.637	0.0145168
740.715	0.0145615
740.793	0.0145154
740.871	0.0143481
740.950	0.0142109
741.028	0.0140707
741.106	0.0141418
741.184	0.0139415
741.262	0.0139628
741.340	0.0139613
741.418	0.0138959
741.496	0.0140694
741.575	0.0138934
741.653	0.0139909
741.731	0.0139487
741.809	0.0137878
741.887	0.0139369
741.965	0.0140721
742.043	0.0139613
742.121	0.0138796
742.200	0.0137087
742.278	0.0137145
742.356	0.0138687
742.434	0.0139088
742.512	0.0139465
742.590	0.0140516
742.668	0.0142529
742.746	0.0143385
742.825	0.0143549
742.903	0.0145300
742.981	0.0145429
743.059	0.0147826
743.137	0.0149760
743.215	0.0151186
743.293	0.0149319
743.371	0.0149544
743.450	0.0150416
743.528	0.0148611
743.606	0.0145902
743.684	0.0145467
743.762	0.0141177
743.840	0.0140126
743.918	0.0138100
743.996	0.0138349
744.075	0.0134696
744.153	0.0132593
744.231	0.0133463
744.309	0.0131653
744.387	0.0133066
744.465	0.0132761
744.543	0.0134509
744.621	0.0133775
744.700	0.0134878
744.778	0.0136556
744.856	0.0139484
744.934	0.0141502
745.012	0.0144052
745.090	0.0146477
745.168	0.0146976
745.246	0.0148540
745.325	0.0147501
745.403	0.0150317
745.481	0.0150621
745.559	0.0150751
745.637	0.0150894
745.715	0.0149821
745.793	0.0148463
745.871	0.0148190
745.950	0.0145891
746.028	0.0143412
746.106	0.0141539
746.184	0.0140009
746.262	0.0137114
746.340	0.0135398
746.418	0.0132166
746.496	0.0131699
746.575	0.0130534
746.653	0.0127876
746.731	0.0128805
746.809	0.0129168
746.887	0.0129501
746.965	0.0131618
747.043	0.0133716
747.121	0.0135951
747.200	0.0138923
747.278	0.0141680
747.356	0.0145590
747.434	0.0147933
747.512	0.0150401
747.590	0.0153226
747.668	0.0153636
747.746	0.0153875
747.825	0.0156027
747.903	0.0153078
747.981	0.0152003
748.059	0.0150714
748.137	0.0147363
748.215	0.0145124
748.293	0.0144930
748.371	0.0140611
748.450	0.0139170
748.528	0.0134422
748.606	0.0133085
748.684	0.0132971
748.762	0.0131058
748.840	0.0129901
748.918	0.0129686
748.996	0.0131963
749.075	0.0131590
749.153	0.0133604
749.231	0.0136278
749.309	0.0136446
749.387	0.0139266
749.465	0.0141864
749.543	0.0145022
749.621	0.0144550
749.700	0.0145648
749.778	0.0146952
749.856	0.0148896
749.934	0.0149807
750.012	0.0150361
750.090	0.0149887
750.168	0.0148817
750.246	0.0149004
750.325	0.0148713
750.403	0.0148154
750.481	0.0146592
750.559	0.0144540
750.637	0.0142953
750.715	0.0143145
750.793	0.0142134
750.871	0.0140073
750.950	0.0139517
751.028	0.0136939
751.106	0.0134953
751.184	0.0135011
751.262	0.0134072
751.340	0.0132610
751.418	0.0134121
751.496	0.0133516
751.575	0.0134431
751.653	0.0135378
751.731	0.0136296
751.809	0.0137359
751.887	0.0138813
751.965	0.0141056
752.043	0.0143604
752.121	0.0142718
752.200	0.0144535
752.278	0.0147378
752.356	0.0148417
752.434	0.0148714
752.512	0.0149570
752.590	0.0149265
752.668	0.0148366
752.746	0.0146678
752.825	0.0147028
752.903	0.0145989
752.981	0.0143938
753.059	0.0141442
753.137	0.0140382
753.215	0.0139752
753.293	0.0138586
753.371	0.0137725
753.450	0.0138472
753.528	0.0136892
753.606	0.0135500
753.684	0.0136827
753.762	0.0136537
753.840	0.0136961
753.918	0.0136883
753.996	0.0137111
754.075	0.0137669
754.153	0.0136442
754.231	0.0138666
754.309	0.0139555
754.387	0.0139545
754.465	0.0141109
754.543	0.0141370
754.621	0.0141326
754.700	0.0142690
754.778	0.0143820
754.856	0.0144544
754.934	0.0145758
755.012	0.0145368
755.090	0.0146125
755.168	0.0147073
755.246	0.0147840
755.325	0.0147253
755.403	0.0146660
755.481	0.0146759
755.559	0.0148293
755.637	0.0145905
755.715	0.0144090
755.793	0.0142976
755.871	0.0141127
755.950	0.0139392
756.028	0.0138186
756.106	0.0138898
756.184	0.0137076
756.262	0.0135091
756.340	0.0134745
756.418	0.0133894
756.496	0.0133636
756.575	0.0134051
756.653	0.0134121
756.731	0.0134901
756.809	0.0136522
756.887	0.0137933
756.965	0.0138873
757.043	0.0139397
757.121	0.0142513
757.200	0.0143911
757.278	0.0144400
757.356	0.0144193
757.434	0.0146630
757.512	0.0147984
757.590	0.0147449
757.668	0.0148688
757.746	0.0149594
757.825	0.0150091
757.903	0.0148613
757.981	0.0146860
758.059	0.0146722
758.137	0.0144753
758.215	0.0144508
758.293	0.0141771
758.371	0.0141161
758.450	0.0138297
758.528	0.0137726
758.606	0.0136366
758.684	0.0133063
758.762	0.0132662
758.840	0.0133260
758.918	0.0133774
758.996	0.0134454
759.075	0.0133847
759.153	0.0135401
759.231	0.0136574
759.309	0.0138422
759.387	0.0138851
759.465	0.0141782
759.543	0.0143017
759.621	0.0145681
759.700	0.0147726
759.778	0.0147459
759.856	0.0147028
759.934	0.0149575
760.012	0.0148029
760.090	0.0149690
760.168	0.0148824
760.246	0.0146965
760.325	0.0147297
760.403	0.0143906
760.481	0.0144282
760.559	0.0143328
760.637	0.0142955
760.715	0.0141465
760.793	0.0140207
760.871	0.0140128
760.950	0.0137602
761.028	0.0137589
761.106	0.0136517
761.184	0.0137251
761.262	0.0137216
761.340	0.0136930
761.418	0.0137346
761.496	0.0139311
761.575	0.0140731
761.653	0.0139906
761.731	0.0141222
761.809	0.0141636
761.887	0.0142304
761.965	0.0143003
762.043	0.0142921
762.121	0.0144250
762.200	0.0144988
762.278	0.0143346
762.356	0.0143886
762.434	0.0144720
762.512	0.0145025
762.590	0.0143343
762.668	0.0145091
762.746	0.0145001
762.825	0.0145963
762.903	0.0145039
762.981	0.0143235
763.059	0.0144791
763.137	0.0144331
763.215	0.0143160
763.293	0.0142651
763.371	0.0142168
763.450	0.0141397
763.528	0.0140372
763.606	0.0139018
763.684	0.0138931
763.762	0.0137778
763.840	0.0137733
763.918	0.0138632
763.996	0.0137744
764.075	0.0137714
764.153	0.0136987
764.231	0.0137360
764.309	0.0137666
764.387	0.0140259
764.465	0.0139758
764.543	0.0141437
764.621	0.0141843
764.700	0.0142738
764.778	0.0143437
764.856	0.0145395
764.934	0.0144765
765.012	0.0145950
765.090	0.0145930
765.168	0.0145708
765.246	0.0144419
765.325	0.0144495
765.403	0.0145068
765.481	0.0143607
765.559	0.0142719
765.637	0.0142142
765.715	0.0140310
765.793	0.0140217
765.871	0.0138777
765.950	0.0138842
766.028	0.0139937
766.106	0.0139574
766.184	0.0137880
766.262	0.0137936
766.340	0.0137419
766.418	0.0139459
766.496	0.0138909
766.575	0.0137487
766.653	0.0139556
766.731	0.0140446
766.809	0.0140188
766.887	0.0140862
766.965	0.0141711
767.043	0.0142234
767.121	0.0143018
767.200	0.0144827
767.278	0.0143410
767.356	0.0144109
767.434	0.0144583
767.512	0.0144729
767.590	0.0144854
767.668	0.0145277
767.746	0.0144769
767.825	0.0145129
767.903	0.0144891
767.981	0.0143518
768.059	0.0144292
768.137	0.0144080
768.215	0.0142320
768.293	0.0143200
768.371	0.0142654
768.450	0.0141831
768.528	0.0141233
768.606	0.0141106
768.684	0.0139598
768.762	0.0140006
768.840	0.0138157
768.918	0.0138811
768.996	0.0139912
769.075	0.0139670
769.153	0.0138430
769.231	0.0138856
769.309	0.0139759
769.387	0.0140120
769.465	0.0140677
769.543	0.0142210
769.621	0.0141623
769.700	0.0143188
769.778	0.0143353
769.856	0.0142955
769.934	0.0142313
770.012	0.0142569
770.090	0.0144575
770.168	0.0143851
770.246	0.0144749
770.325	0.0143504
770.403	0.0143783
770.481	0.0142851
770.559	0.0143250
770.637	0.0141561
770.715	0.0141890
770.793	0.0141609
770.871	0.0140394
770.950	0.0140534
771.028	0.0140845
771.106	0.0138375
771.184	0.0139255
771.262	0.0139294
771.340	0.0138802
771.418	0.0139210
771.496	0.0139587
771.575	0.0139194
771.653	0.0138591
771.731	0.0140054
771.809	0.0139689
771.887	0.0140343
771.965	0.0141925
772.043	0.0142212
772.121	0.0142490
772.200	0.0142430
772.278	0.0143236
772.356	0.0142815
772.434	0.0143388
772.512	0.0143005
772.590	0.0143855
772.668	0.0144163
772.746	0.0143477
772.825	0.0142369
772.903	0.0143269
772.981	0.0142648
773.059	0.0142030
773.137	0.0143248
773.215	0.0141230
773.293	0.0141367
773.371	0.0140611
773.450	0.0141551
773.528	0.0140374
773.606	0.0140082
773.684	0.0140027
773.762	0.0140096
773.840	0.0139565
773.918	0.0140112
773.996	0.0142357
774.075	0.0140467
774.153	0.0140585
774.231	0.0140260
774.309	0.0140998
774.387	0.0141580
774.465	0.0140626
774.543	0.0140829
774.621	0.0139804
774.700	0.0140841
774.778	0.0141224
774.856	0.0140687
774.934	0.0141953
775.012	0.0140915
775.090	0.0141730
775.168	0.0141842
775.246	0.0141612
775.325	0.0143712
775.403	0.0142738
775.481	0.0142491
775.559	0.0143408
775.637	0.0143530
775.715	0.0143461
775.793	0.0142918
775.871	0.0142466
775.950	0.0142172
776.028	0.0141909
776.106	0.0141832
776.184	0.0140240
776.262	0.0138636
776.340	0.0140384
776.418	0.0140343
776.496	0.0139259
776.575	0.0138889
776.653	0.0139823
776.731	0.0137383
776.809	0.0139043
776.887	0.0138319
776.965	0.0139407
777.043	0.0140393
777.121	0.0140320
777.200	0.0139180
777.278	0.0141060
777.356	0.0141758
777.434	0.0142204
777.512	0.0142670
777.590	0.0143105
777.668	0.0144353
777.746	0.0143715
777.825	0.0143423
777.903	0.0142894
777.981	0.0141546
778.059	0.0143536
778.137	0.0143890
778.215	0.0141649
778.293	0.0140652
778.371	0.0142900
778.450	0.0141148
778.528	0.0142356
778.606	0.0140939
778.684	0.0139747
778.762	0.0139159
778.840	0.0139582
778.918	0.0139891
778.996	0.0140200
779.075	0.0138954
779.153	0.0140037
779.231	0.0140847
779.309	0.0139291
779.387	0.0139430
779.465	0.0139663
779.543	0.0139393
779.621	0.0139034
779.700	0.0140160
779.778	0.0140256
779.856	0.0141368
779.934	0.0140777
780.012	0.0142599
780.090	0.0142570
780.168	0.0141498
780.246	0.0142744
780.325	0.0142151
780.403	0.0142809
780.481	0.0142864
780.559	0.0143713
780.637	0.0144284
780.715	0.0143011
780.793	0.0143806
780.871	0.0142997
780.950	0.0142838
781.028	0.0142131
781.106	0.0143458
781.184	0.0141002
781.262	0.0140293
781.340	0.0140613
781.418	0.0140054
781.496	0.0140572
781.575	0.0139931
781.653	0.0139539
781.731	0.0139208
781.809	0.0140128
781.887	0.0140666
781.965	0.0139493
782.043	0.0141504
782.121	0.0140144
782.200	0.0140708
782.278	0.0140791
782.356	0.0139539
782.434	0.0141681
782.512	0.0142625
782.590	0.0142803
782.668	0.0142676
782.746	0.0142818
782.825	0.0143678
782.903	0.0143434
782.981	0.0142786
783.059	0.0141683
783.137	0.0144180
783.215	0.0142914
783.293	0.0141422
783.371	0.0141771
783.450	0.0142361
783.528	0.0143068
783.606	0.0141199
783.684	0.0140442
783.762	0.0140503
783.840	0.0141228
783.918	0.0140298
783.996	0.0140079
784.075	0.0139761
784.153	0.0140650
784.231	0.0140157
784.309	0.0140569
784.387	0.0140977
784.465	0.0140654
784.543	0.0139779
784.621	0.0141124
784.700	0.0140825
784.778	0.0140427
784.856	0.0142744
784.934	0.0141610
785.012	0.0141908
785.090	0.0141560
785.168	0.0140868
785.246	0.0142418
785.325	0.0143021
785.403	0.0142796
785.481	0.0142608
785.559	0.0141367
785.637	0.0141164
785.715	0.0142212
785.793	0.0141863
785.871	0.0143327
785.950	0.0142271
786.028	0.0141537
786.106	0.0140343
786.184	0.0142298
786.262	0.0142047
786.340	0.0141229
786.418	0.0140305
786.496	0.0141292
786.575	0.0141542
786.653	0.0141435
786.731	0.0141870
786.809	0.0141015
786.887	0.0139273
786.965	0.0141069
787.043	0.0140071
787.121	0.0141028
787.200	0.0140043
787.278	0.0140518
787.356	0.0140995
787.434	0.0141075
787.512	0.0140582
787.590	0.0140974
787.668	0.0141515
787.746	0.0140644
787.825	0.0140356
787.903	0.0141345
787.981	0.0141737
788.059	0.0142393
788.137	0.0141559
788.215	0.0141853
788.293	0.0142137
788.371	0.0143496
788.450	0.0142528
788.528	0.0142118
788.606	0.0140884
788.684	0.0141429
788.762	0.0142762
788.840	0.0142580
788.918	0.0141584
788.996	0.0140320
789.075	0.0142288
789.153	0.0141038
789.231	0.0141593
789.309	0.0140804
789.387	0.0140738
789.465	0.0141730
789.543	0.0140346
789.621	0.0141673
789.700	0.0142962
789.778	0.0142544
789.856	0.0142916
789.934	0.0143638
790.012	0.0141401
790.090	0.0140459
790.168	0.0141326
790.246	0.0142582
790.325	0.0142261
790.403	0.0141018
790.481	0.0142884
790.559	0.0142276
790.637	0.0142216
790.715	0.0141489
790.793	0.0140983
790.871	0.0143066
790.950	0.0140557
791.028	0.0141065
791.106	0.0140886
791.184	0.0140117
791.262	0.0141511
791.340	0.0140422
791.418	0.0141301
791.496	0.0142506
791.575	0.0142245
791.653	0.0141627
791.731	0.0141251
791.809	0.0140473
791.887	0.0141422
791.965	0.0141952
792.043	0.0140253
792.121	0.0142136
792.200	0.0141294
792.278	0.0140271
792.356	0.0139973
792.434	0.0141968
792.512	0.0141589
792.590	0.0141672
792.668	0.0141358
792.746	0.0139931
792.825	0.0141973
792.903	0.0142526
792.981	0.0141891
793.059	0.0141303
793.137	0.0142333
793.215	0.0141968
793.293	0.0141421
793.371	0.0142078
793.450	0.0142508
793.528	0.0141746
793.606	0.0142216
793.684	0.0141996
793.762	0.0142676
793.840	0.0141250
793.918	0.0141535
793.996	0.0141987
794.075	0.0142584
794.153	0.0143156
794.231	0.0142627
794.309	0.0141930
794.387	0.0141523
794.465	0.0141394
794.543	0.0140855
794.621	0.0141965
794.700	0.0142366
794.778	0.0140810
794.856	0.0142684
794.934	0.0141647
795.012	0.0140810
795.090	0.0141166
795.168	0.0140625
795.246	0.0142374
795.325	0.0140663
795.403	0.0140564
795.481	0.0141042
795.559	0.0140134
795.637	0.0140833
795.715	0.0143069
795.793	0.0140862
795.871	0.0141037
795.950	0.0141515
796.028	0.0142508
796.106	0.0142326
796.184	0.0142045
796.262	0.0141566
796.340	0.0140839
796.418	0.0139880
796.496	0.0140534
796.575	0.0141668
796.653	0.0141759
796.731	0.0140814
796.809	0.0140933
796.887	0.0141755
796.965	0.0141155
797.043	0.0140649
797.121	0.0139526
797.200	0.0140392
797.278	0.0141093
797.356	0.0140956
797.434	0.0141124
797.512	0.0139590
797.590	0.0140847
797.668	0.0142642
797.746	0.0142395
797.825	0.0142085
797.903	0.0141162
797.981	0.0141428
798.059	0.0140625
798.137	0.0141814
798.215	0.0141416
798.293	0.0141147
798.371	0.0140588
798.450	0.0142715
798.528	0.0142385
798.606	0.0141309
798.684	0.0143473
798.762	0.0140765
798.840	0.0140871
798.918	0.0143412
798.996	0.0140781
799.075	0.0140772
799.153	0.0142168
799.231	0.0141298
799.309	0.0140698
799.387	0.0139131
799.465	0.0141919
799.543	0.0141090
799.621	0.0141431
799.700	0.0140699
799.778	0.0140870
799.856	0.0140674
799.934	0.0140592
800.012	0.0141469
800.090	0.0141505
800.168	0.0140336
800.246	0.0140688
800.325	0.0141370
800.403	0.0140942
800.481	0.0141069
800.559	0.0141799
800.637	0.0139941
800.715	0.0142673
800.793	0.0142082
800.871	0.0141681
800.950	0.0142487
801.028	0.0141634
801.106	0.0142125
801.184	0.0141882
801.262	0.0142407
801.340	0.0142878
801.418	0.0141360
801.496	0.0143098
801.575	0.0141171
801.653	0.0140603
801.731	0.0140505
801.809	0.0142076
801.887	0.0140968
801.965	0.0141908
802.043	0.0141082
802.121	0.0140739
802.200	0.0139572
802.278	0.0140718
802.356	0.0141691
802.434	0.0141804
802.512	0.0141217
802.590	0.0140576
802.668	0.0141288
802.746	0.0140260
802.825	0.0140778
802.903	0.0141495
802.981	0.0142541
803.059	0.0140772
803.137	0.0140813
803.215	0.0140916
803.293	0.0140948
803.371	0.0139631
803.450	0.0140774
803.528	0.0141134
803.606	0.0141232
803.684	0.0142993
803.762	0.0141949
803.840	0.0141547
803.918	0.0143330
803.996	0.0143419
804.075	0.0141650
804.153	0.0143288
804.231	0.0141696
804.309	0.0141402
804.387	0.0141673
804.465	0.0141053
804.543	0.0140046
804.621	0.0139322
804.700	0.0138813
804.778	0.0141483
804.856	0.0141734
804.934	0.0140995
805.012	0.0140626
805.090	0.0141059
805.168	0.0141845
805.246	0.0142080
805.325	0.0141882
805.403	0.0142559
805.481	0.0142000
805.559	0.0142110
805.637	0.0142816
805.715	0.0143278
805.793	0.0142261
805.871	0.0141464
805.950	0.0141795
806.028	0.0141537
806.106	0.0141070
806.184	0.0143149
806.262	0.0142680
806.340	0.0141471
806.418	0.0141823
806.496	0.0141183
806.575	0.0140111
806.653	0.0141965
806.731	0.0142702
806.809	0.0141637
806.887	0.0142545
806.965	0.0140947
807.043	0.0140852
807.121	0.0140553
807.200	0.0139816
807.278	0.0140731
807.356	0.0140745
807.434	0.0140946
807.512	0.0141056
807.590	0.0140032
807.668	0.0138782
807.746	0.0139791
807.825	0.0141016
807.903	0.0140984
807.981	0.0140341
808.059	0.0140435
808.137	0.0141629
808.215	0.0141806
808.293	0.0141644
808.371	0.0141813
808.450	0.0141293
808.528	0.0141824
808.606	0.0141855
808.684	0.0142400
808.762	0.0141248
808.840	0.0142765
808.918	0.0140413
808.996	0.0139040
809.075	0.0140394
809.153	0.0140279
809.231	0.0139307
809.309	0.0140610
809.387	0.0141074
809.465	0.0140912
809.543	0.0140160
809.621	0.0140324
809.700	0.0140980
809.778	0.0140564
809.856	0.0142052
809.934	0.0142107
810.012	0.0142850
810.090	0.0142496
810.168	0.0143698
810.246	0.0142747
810.325	0.0144480
810.403	0.0142938
810.481	0.0143614
810.559	0.0142499
810.637	0.0141859
810.715	0.0141370
810.793	0.0141682
810.871	0.0142278
810.950	0.0142687
811.028	0.0141271
811.106	0.0141727
811.184	0.0143101
811.262	0.0142263
811.340	0.0141142
811.418	0.0142056
811.496	0.0141788
811.575	0.0141915
811.653	0.0142858
811.731	0.0142714
811.809	0.0142690
811.887	0.0142685
811.965	0.0142353
812.043	0.0142638
812.121	0.0142300
812.200	0.0143794
812.278	0.0141825
812.356	0.0141094
812.434	0.0141677
812.512	0.0141443
812.590	0.0141123
812.668	0.0142181
812.746	0.0141351
812.825	0.0138773
812.903	0.0139852
812.981	0.0141562
813.059	0.0141512
813.137	0.0139828
813.215	0.0141099
813.293	0.0141357
813.371	0.0141093
813.450	0.0140998
813.528	0.0140594
813.606	0.0141314
813.684	0.0142057
813.762	0.0140597
813.840	0.0139438
813.918	0.0140059
813.996	0.0141916
814.075	0.0140867
814.153	0.0141615
814.231	0.0142523
814.309	0.0140411
814.387	0.0142497
814.465	0.0141740
814.543	0.0141620
814.621	0.0140017
814.700	0.0141632
814.778	0.0142400
814.856	0.0139248
814.934	0.0141428
815.012	0.0141436
815.090	0.0140822
815.168	0.0140569
815.246	0.0142066
815.325	0.0142136
815.403	0.0141911
815.481	0.0141518
815.559	0.0141142
815.637	0.0142220
815.715	0.0141754
815.793	0.0141558
815.871	0.0142133
815.950	0.0141265
816.028	0.0141440
816.106	0.0142452
816.184	0.0142005
816.262	0.0141283
816.340	0.0142390
816.418	0.0143125
816.496	0.0142218
816.575	0.0143401
816.653	0.0141983
816.731	0.0142959
816.809	0.0141691
816.887	0.0142586
816.965	0.0143336
817.043	0.0142537
817.121	0.0141817
817.200	0.0142571
817.278	0.0141820
817.356	0.0142466
817.434	0.0142588
817.512	0.0141865
817.590	0.0140429
817.668	0.0143014
817.746	0.0142984
817.825	0.0142687
817.903	0.0141206
817.981	0.0141620
818.059	0.0140968
818.137	0.0142994
818.215	0.0140739
818.293	0.0142458
818.371	0.0141515
818.450	0.0141783
818.528	0.0141508
818.606	0.0141722
818.684	0.0142001
818.762	0.0141417
818.840	0.0140771
818.918	0.0141995
818.996	0.0140720
819.075	0.0141228
819.153	0.0141813
819.231	0.0140815
819.309	0.0139816
819.387	0.0141200
819.465	0.0141913
819.543	0.0142257
819.621	0.0142371
819.700	0.0143382
819.778	0.0142188
819.856	0.0141601
819.934	0.0143063
820.012	0.0143073
820.090	0.0142993
820.168	0.0142796
820.246	0.0142457
820.325	0.0143237
820.403	0.0143439
820.481	0.0142947
820.559	0.0142081
820.637	0.0142065
820.715	0.0141509
820.793	0.0141418
820.871	0.0140101
820.950	0.0140336
821.028	0.0139748
821.106	0.0140363
821.184	0.0141585
821.262	0.0140774
821.340	0.0141274
821.418	0.0141070
821.496	0.0141000
821.575	0.0142390
821.653	0.0141450
821.731	0.0141346
821.809	0.0144540
821.887	0.0141801
821.965	0.0143782
822.043	0.0142905
822.121	0.0143320
822.200	0.0142546
822.278	0.0142743
822.356	0.0142568
822.434	0.0143524
822.512	0.0144718
822.590	0.0141920
822.668	0.0143410
822.746	0.0142583
822.825	0.0141894
822.903	0.0141524
822.981	0.0141907
823.059	0.0143184
823.137	0.0141289
823.215	0.0139974
823.293	0.0141734
823.371	0.0141879
823.450	0.0141866
823.528	0.0140230
823.606	0.0141492
823.684	0.0141634
823.762	0.0141278
823.840	0.0140980
823.918	0.0141375
823.996	0.0141440
824.075	0.0142928
824.153	0.0141790
824.231	0.0141485
824.309	0.0142623
824.387	0.0142764
824.465	0.0142976
824.543	0.0142849
824.621	0.0142574
824.700	0.0141887
824.778	0.0142562
824.856	0.0142036
824.934	0.0142461
825.012	0.0142849
825.090	0.0141197
825.168	0.0141292
825.246	0.0143127
825.325	0.0141493
825.403	0.0141177
825.481	0.0141113
825.559	0.0141563
825.637	0.0140325
825.715	0.0139697
825.793	0.0141016
825.871	0.0143446
825.950	0.0142303
826.028	0.0140660
826.106	0.0141231
826.184	0.0140677
826.262	0.0141466
826.340	0.0142248
826.418	0.0141505
826.496	0.0141566
826.575	0.0141432
826.653	0.0141162
826.731	0.0140754
826.809	0.0141020
826.887	0.0140561
826.965	0.0141605
827.043	0.0142931
827.121	0.0141208
827.200	0.0140611
827.278	0.0142960
827.356	0.0142494
827.434	0.0140379
827.512	0.0142324
827.590	0.0142535
827.668	0.0142522
827.746	0.0142189
827.825	0.0141415
827.903	0.0140922
827.981	0.0141216
828.059	0.0141076
828.137	0.0140378
828.215	0.0141522
828.293	0.0141148
828.371	0.0140099
828.450	0.0140944
828.528	0.0141571
828.606	0.0140424
828.684	0.0141821
828.762	0.0142487
828.840	0.0141766
828.918	0.0141337
828.996	0.0142361
829.075	0.0141400
829.153	0.0141472
829.231	0.0141959
829.309	0.0142718
829.387	0.0141257
829.465	0.0143762
829.543	0.0142665
829.621	0.0141288
829.700	0.0142441
829.778	0.0141941
829.856	0.0143161
829.934	0.0143313
830.012	0.0142446
830.090	0.0142536
830.168	0.0141341
830.246	0.0141167
830.325	0.0141447
830.403	0.0142222
830.481	0.0142543
830.559	0.0139732
830.637	0.0141120
830.715	0.0142477
830.793	0.0140041
830.871	0.0140178
830.950	0.0140524
831.028	0.0141863
831.106	0.0140332
831.184	0.0140574
831.262	0.0142447
831.340	0.0141779
831.418	0.0141222
831.496	0.0142100
831.575	0.0142024
831.653	0.0141339
831.731	0.0142773
831.809	0.0143549
831.887	0.0143596
831.965	0.0142384
832.043	0.0142484
832.121	0.0141535
832.200	0.0141927
832.278	0.0140726
832.356	0.0141452
832.434	0.0141524
832.512	0.0140871
832.590	0.0141550
832.668	0.0141380
832.746	0.0141058
832.825	0.0141376
832.903	0.0142334
832.981	0.0142476
833.059	0.0141077
833.137	0.0140930
833.215	0.0142560
833.293	0.0142357
833.371	0.0141483
833.450	0.0141926
833.528	0.0141137
833.606	0.0143879
833.684	0.0142688
833.762	0.0141963
833.840	0.0142024
833.918	0.0141741
833.996	0.0143123
834.075	0.0142873
834.153	0.0141358
834.231	0.0141656
834.309	0.0142779
834.387	0.0143365
834.465	0.0142332
834.543	0.0141772
834.621	0.0141721
834.700	0.0142976
834.778	0.0143848
834.856	0.0143166
834.934	0.0143257
835.012	0.0141911
835.090	0.0141498
835.168	0.0140696
835.246	0.0141647
835.325	0.0140804
835.403	0.0139088
835.481	0.0138897
835.559	0.0139632
835.637	0.0139101
835.715	0.0140062
835.793	0.0140806
835.871	0.0139089
835.950	0.0140776
836.028	0.0141853
836.106	0.0141992
836.184	0.0141515
836.262	0.0143085
836.340	0.0141925
836.418	0.0143951
836.496	0.0145241
836.575	0.0145303
836.653	0.0144279
836.731	0.0143828
836.809	0.0143950
836.887	0.0141585
836.965	0.0142255
837.043	0.0142113
837.121	0.0141759
837.200	0.0141761
837.278	0.0140314
837.356	0.0139474
837.434	0.0140011
837.512	0.0140028
837.590	0.0139607
837.668	0.0140585
837.746	0.0141521
837.825	0.0141833
837.903	0.0142211
837.981	0.0142667
838.059	0.0143122
838.137	0.0142918
838.215	0.0143333
838.293	0.0142979
838.371	0.0143679
838.450	0.0142952
838.528	0.0142775
838.606	0.0142614
838.684	0.0143342
838.762	0.0142714
838.840	0.0142184
838.918	0.0141537
838.996	0.0141638
839.075	0.0141278
839.153	0.0142287
839.231	0.0141982
839.309	0.0140530
839.387	0.0141238
839.465	0.0141523
839.543	0.0140473
839.621	0.0141507
839.700	0.0140812
839.778	0.0141408
839.856	0.0141951
839.934	0.0143240
840.012	0.0141406
840.090	0.0141172
840.168	0.0142261
840.246	0.0141354
840.325	0.0142247
840.403	0.0143041
840.481	0.0142072
840.559	0.0141543
840.637	0.0141586
840.715	0.0142114
840.793	0.0142419
840.871	0.0141855
840.950	0.0141625
841.028	0.0141483
841.106	0.0140481
841.184	0.0140976
841.262	0.0140792
841.340	0.0140373
841.418	0.0141811
841.496	0.0141439
841.575	0.0142135
841.653	0.0141213
841.731	0.0140779
841.809	0.0141963
841.887	0.0142579
841.965	0.0140901
842.043	0.0141244
842.121	0.0140596
842.200	0.0142558
842.278	0.0143382
842.356	0.0144054
842.434	0.0142561
842.512	0.0143311
842.590	0.0142133
842.668	0.0142118
842.746	0.0142253
842.825	0.0141803
842.903	0.0142651
842.981	0.0141963
843.059	0.0139416
843.137	0.0141846
843.215	0.0141605
843.293	0.0141740
843.371	0.0141743
843.450	0.0141494
843.528	0.0142315
843.606	0.0141798
843.684	0.0140915
843.762	0.0140686
843.840	0.0141940
843.918	0.0141984
843.996	0.0141885
844.075	0.0140920
844.153	0.0141514
844.231	0.0141880
844.309	0.0141187
844.387	0.0141760
844.465	0.0142535
844.543	0.0143452
844.621	0.0142752
844.700	0.0142339
844.778	0.0142860
844.856	0.0143926
844.934	0.0142937
845.012	0.0140691
845.090	0.0140900
845.168	0.0142812
845.246	0.0140023
845.325	0.0141172
845.403	0.0141508
845.481	0.0141499
845.559	0.0140232
845.637	0.0140298
845.715	0.0141541
845.793	0.0141335
845.871	0.0141826
845.950	0.0141314
846.028	0.0142422
846.106	0.0143462
846.184	0.0142481
846.262	0.0141402
846.340	0.0142885
846.418	0.0142577
846.496	0.0143111
846.575	0.0142442
846.653	0.0141892
846.731	0.0144074
846.809	0.0142868
846.887	0.0143061
846.965	0.0143075
847.043	0.0141709
847.121	0.0142374
847.200	0.0142007
847.278	0.0141737
847.356	0.0141967
847.434	0.0141802
847.512	0.0142094
847.590	0.0143340
847.668	0.0142085
847.746	0.0140369
847.825	0.0141481
847.903	0.0141891
847.981	0.0140254
848.059	0.0140683
848.137	0.0142281
848.215	0.0141423
848.293	0.0140272
848.371	0.0141282
848.450	0.0141573
848.528	0.0142057
848.606	0.0141276
848.684	0.0141967
848.762	0.0141249
848.840	0.0140605
848.918	0.0140942
848.996	0.0140809
849.075	0.0141923
849.153	0.0142302
849.231	0.0141371
849.309	0.0141177
849.387	0.0141480
849.465	0.0142043
849.543	0.0141911
849.621	0.0140661
849.700	0.0141647
849.778	0.0142817
849.856	0.0141521
849.934	0.0141386
850.012	0.0140681
850.090	0.0141380
850.168	0.0143161
850.246	0.0141521
850.325	0.0142574
850.403	0.0142484
850.481	0.0141449
850.559	0.0140778
850.637	0.0141351
850.715	0.0140877
850.793	0.0141005
850.871	0.0140894
850.950	0.0141020
851.028	0.0140365
851.106	0.0140723
851.184	0.0141568
851.262	0.0141041
851.340	0.0141606
851.418	0.0142959
851.496	0.0141183
851.575	0.0142006
851.653	0.0141555
851.731	0.0142080
851.809	0.0141454
851.887	0.0141743
851.965	0.0141161
852.043	0.0142952
852.121	0.0141085
852.200	0.0140400
852.278	0.0141327
852.356	0.0142158
852.434	0.0142931
852.512	0.0140381
852.590	0.0140763
852.668	0.0140086
852.746	0.0140850
852.825	0.0141541
852.903	0.0141476
852.981	0.0140639
853.059	0.0141713
853.137	0.0140992
853.215	0.0140566
853.293	0.0141531
853.371	0.0140906
853.450	0.0141463
853.528	0.0141988
853.606	0.0142563
853.684	0.0141872
853.762	0.0141756
853.840	0.0142152
853.918	0.0142009
853.996	0.0140788
854.075	0.0141838
854.153	0.0140804
854.231	0.0141328
854.309	0.0143051
854.387	0.0143587
854.465	0.0141748
854.543	0.0141640
854.621	0.0141761
854.700	0.0141771
854.778	0.0142834
854.856	0.0141819
854.934	0.0141912
855.012	0.0141994
855.090	0.0141965
855.168	0.0142967
855.246	0.0143192
855.325	0.0142803
855.403	0.0143081
855.481	0.0142034
855.559	0.0141953
855.637	0.0141964
855.715	0.0142066
855.793	0.0141428
855.871	0.0140814
855.950	0.0139857
856.028	0.0142827
856.106	0.0141837
856.184	0.0142767
856.262	0.0141745
856.340	0.0141261
856.418	0.0142196
856.496	0.0142767
856.575	0.0141026
856.653	0.0140421
856.731	0.0140466
856.809	0.0140949
856.887	0.0141992
856.965	0.0142458
857.043	0.0141936
857.121	0.0140530
857.200	0.0140790
857.278	0.0141065
857.356	0.0142474
857.434	0.0142068
857.512	0.0141911
857.590	0.0141237
857.668	0.0142002
857.746	0.0141610
857.825	0.0140934
857.903	0.0142368
857.981	0.0142997
858.059	0.0142233
858.137	0.0140955
858.215	0.0142319
858.293	0.0140572
858.371	0.0141372
858.450	0.0141600
858.528	0.0140814
858.606	0.0141492
858.684	0.0141895
858.762	0.0140068
858.840	0.0140820
858.918	0.0140942
858.996	0.0140819
859.075	0.0142656
859.153	0.0140408
859.231	0.0141127
859.309	0.0140147
859.387	0.0140995
859.465	0.0141857
859.543	0.0143179
859.621	0.0141817
859.700	0.0140989
859.778	0.0141974
859.856	0.0141001
859.934	0.0141554
860.012	0.0140578
860.090	0.0143045
860.168	0.0139433
860.246	0.0141051
860.325	0.0141613
860.403	0.0142030
860.481	0.0141792
860.559	0.0142233
860.637	0.0141261
860.715	0.0141824
860.793	0.0141715
860.871	0.0141417
860.950	0.0142424
861.028	0.0141293
861.106	0.0141452
861.184	0.0142385
861.262	0.0141926
861.340	0.0142165
861.418	0.0141803
861.496	0.0140556
861.575	0.0140128
861.653	0.0142417
861.731	0.0142380
861.809	0.0141839
861.887	0.0141600
861.965	0.0143533
862.043	0.0142233
862.121	0.0141603
862.200	0.0141234
862.278	0.0141792
862.356	0.0141417
862.434	0.0141930
862.512	0.0142802
862.590	0.0142535
862.668	0.0142192
862.746	0.0141468
862.825	0.0141539
862.903	0.0141167
862.981	0.0141394
863.059	0.0142394
863.137	0.0141253
863.215	0.0140533
863.293	0.0141166
863.371	0.0142595
863.450	0.0141949
863.528	0.0142107
863.606	0.0141588
863.684	0.0142307
863.762	0.0141838
863.840	0.0142625
863.918	0.0142223
863.996	0.0141453
864.075	0.0143287
864.153	0.0142101
864.231	0.0143303
864.309	0.0143315
864.387	0.0141380
864.465	0.0140581
864.543	0.0142262
864.621	0.0141599
864.700	0.0142659
864.778	0.0139998
864.856	0.0140330
864.934	0.0141458
865.012	0.0141956
865.090	0.0140374
865.168	0.0140955
865.246	0.0140630
865.325	0.0141325
865.403	0.0140524
865.481	0.0141061
865.559	0.0140811
865.637	0.0142368
865.715	0.0141060
865.793	0.0141821
865.871	0.0141413
865.950	0.0142555
866.028	0.0143399
866.106	0.0140678
866.184	0.0143274
866.262	0.0142435
866.340	0.0140767
866.418	0.0141236
866.496	0.0142333
866.575	0.0141642
866.653	0.0142719
866.731	0.0142287
866.809	0.0141181
866.887	0.0140859
866.965	0.0141373
867.043	0.0142300
867.121	0.0141211
867.200	0.0139792
867.278	0.0140363
867.356	0.0141136
867.434	0.0140715
867.512	0.0142451
867.590	0.0141579
867.668	0.0142440
867.746	0.0141171
867.825	0.0141244
867.903	0.0142455
867.981	0.0141594
868.059	0.0142162
868.137	0.0143538
868.215	0.0141155
868.293	0.0142342
868.371	0.0141616
868.450	0.0142438
868.528	0.0141003
868.606	0.0141826
868.684	0.0143313
868.762	0.0141856
868.840	0.0141920
868.918	0.0141489
868.996	0.0141162
869.075	0.0141586
869.153	0.0140421
869.231	0.0141033
869.309	0.0141288
869.387	0.0140287
869.465	0.0142115
869.543	0.0141480
869.621	0.0141228
869.700	0.0140711
869.778	0.0140341
869.856	0.0141843
869.934	0.0142411
870.012	0.0141455
870.090	0.0141271
870.168	0.0141042
870.246	0.0142403
870.325	0.0141766
870.403	0.0142237
870.481	0.0142353
870.559	0.0140821
870.637	0.0140771
870.715	0.0140397
870.793	0.0142186
870.871	0.0141341
870.950	0.0143087
871.028	0.0140625
871.106	0.0140527
871.184	0.0141798
871.262	0.0141740
871.340	0.0141332
871.418	0.0141501
871.496	0.0139748
871.575	0.0140096
871.653	0.0141991
871.731	0.0142533
871.809	0.0142010
871.887	0.0142290
871.965	0.0142245
872.043	0.0140858
872.121	0.0140035
872.200	0.0142368
872.278	0.0143066
872.356	0.0142028
872.434	0.0141366
872.512	0.0142188
872.590	0.0142113
872.668	0.0140250
872.746	0.0141279
872.825	0.0140347
872.903	0.0141655
872.981	0.0140766
873.059	0.0142072
873.137	0.0140060
873.215	0.0142158
873.293	0.0141342
873.371	0.0140959
873.450	0.0140540
873.528	0.0141684
873.606	0.0141807
873.684	0.0141982
873.762	0.0140855
873.840	0.0140069
873.918	0.0140878
873.996	0.0141425
874.075	0.0141347
874.153	0.0141487
874.231	0.0140968
874.309	0.0140743
874.387	0.0141199
874.465	0.0142669
874.543	0.0143404
874.621	0.0142692
874.700	0.0142651
874.778	0.0142122
874.856	0.0141306
874.934	0.0140353
875.012	0.0141122
875.090	0.0141045
875.168	0.0140691
875.246	0.0140223
875.325	0.0140188
875.403	0.0138109
875.481	0.0139655
875.559	0.0139203
875.637	0.0138073
875.715	0.0141341
875.793	0.0140443
875.871	0.0138554
875.950	0.0140820
876.028	0.0141112
876.106	0.0140944
876.184	0.0140614
876.262	0.0141662
876.340	0.0143443
876.418	0.0141173
876.496	0.0141522
876.575	0.0143113
876.653	0.0141348
876.731	0.0141618
876.809	0.0141716
876.887	0.0141512
876.965	0.0140779
877.043	0.0141918
877.121	0.0139808
877.200	0.0139088
877.278	0.0141060
877.356	0.0140958
877.434	0.0141019
877.512	0.0140878
877.590	0.0140928
877.668	0.0141761
877.746	0.0140356
877.825	0.0140453
877.903	0.0139207
877.981	0.0139692
878.059	0.0140483
878.137	0.0142084
878.215	0.0140756
878.293	0.0141162
878.371	0.0141510
878.450	0.0142060
878.528	0.0141833
878.606	0.0141479
878.684	0.0141258
878.762	0.0142352
878.840	0.0141573
878.918	0.0140388
878.996	0.0141551
879.075	0.0141741
879.153	0.0141563
879.231	0.0140609
879.309	0.0140752
879.387	0.0141262
879.465	0.0139620
879.543	0.0140845
879.621	0.0140891
879.700	0.0140808
879.778	0.0140651
879.856	0.0141116
879.934	0.0141179
880.012	0.0138811
880.090	0.0141386
880.168	0.0139680
880.246	0.0142336
880.325	0.0140104
880.403	0.0141017
880.481	0.0142542
880.559	0.0142039
880.637	0.0140508
880.715	0.0140751
880.793	0.0140818
880.871	0.0141298
880.950	0.0141185
881.028	0.0141808
881.106	0.0141653
881.184	0.0141553
881.262	0.0141074
881.340	0.0140703
881.418	0.0142866
881.496	0.0140991
881.575	0.0140772
881.653	0.0140862
881.731	0.0141895
881.809	0.0139997
881.887	0.0140090
881.965	0.0139508
882.043	0.0141064
882.121	0.0141371
882.200	0.0140766
882.278	0.0139622
882.356	0.0140682
882.434	0.0140672
882.512	0.0141528
882.590	0.0140325
882.668	0.0141267
882.746	0.0140395
882.825	0.0141682
882.903	0.0141101
882.981	0.0142348
883.059	0.0141093
883.137	0.0140769
883.215	0.0141064
883.293	0.0141296
883.371	0.0141938
883.450	0.0141739
883.528	0.0142128
883.606	0.0140813
883.684	0.0142293
883.762	0.0141782
883.840	0.0141123
883.918	0.0141598
883.996	0.0142209
884.075	0.0139995
884.153	0.0141637
884.231	0.0140969
884.309	0.0142248
884.387	0.0140902
884.465	0.0140063
884.543	0.0140827
884.621	0.0141269
884.700	0.0139803
884.778	0.0141976
884.856	0.0141829
884.934	0.0140496
885.012	0.0139883
885.090	0.0141113
885.168	0.0141393
885.246	0.0139894
885.325	0.0139444
885.403	0.0141420
885.481	0.0140359
885.559	0.0141582
885.637	0.0141407
885.715	0.0140318
885.793	0.0140636
885.871	0.0141521
885.950	0.0140759
886.028	0.0139516
886.106	0.0141618
886.184	0.0141469
886.262	0.0142452
886.340	0.0142033
886.418	0.0142375
886.496	0.0141410
886.575	0.0140047
886.653	0.0141582
886.731	0.0141779
886.809	0.0140952
886.887	0.0141041
886.965	0.0140524
887.043	0.0140298
887.121	0.0140466
887.200	0.0140192
887.278	0.0141862
887.356	0.0142493
887.434	0.0142430
887.512	0.0140385
887.590	0.0139546
887.668	0.0140541
887.746	0.0141946
887.825	0.0141917
887.903	0.0142193
887.981	0.0139758
888.059	0.0139474
888.137	0.0140298
888.215	0.0141383
888.293	0.0141543
888.371	0.0141081
888.450	0.0141374
888.528	0.0141634
888.606	0.0141808
888.684	0.0142339
888.762	0.0141599
888.840	0.0141805
888.918	0.0141518
888.996	0.0140981
889.075	0.0141534
889.153	0.0142187
889.231	0.0140259
889.309	0.0140855
889.387	0.0141823
889.465	0.0142425
889.543	0.0142073
889.621	0.0141399
889.700	0.0140839
889.778	0.0142114
889.856	0.0141381
889.934	0.0142088
890.012	0.0140157
890.090	0.0141002
890.168	0.0142352
890.246	0.0141371
890.325	0.0141771
890.403	0.0142178
890.481	0.0140778
890.559	0.0141135
890.637	0.0140797
890.715	0.0141212
890.793	0.0142313
890.871	0.0141797
890.950	0.0140862
891.028	0.0141969
891.106	0.0143233
891.184	0.0142233
891.262	0.0142678
891.340	0.0141919
891.418	0.0141753
891.496	0.0142772
891.575	0.0143493
891.653	0.0141467
891.731	0.0141528
891.809	0.0140655
891.887	0.0140382
891.965	0.0141794
892.043	0.0142596
892.121	0.0140823
892.200	0.0141991
892.278	0.0142849
892.356	0.0140383
892.434	0.0140919
892.512	0.0140520
892.590	0.0140576
892.668	0.0140553
892.746	0.0141441
892.825	0.0140643
892.903	0.0139895
892.981	0.0140838
893.059	0.0141000
893.137	0.0140754
893.215	0.0140020
893.293	0.0141761
893.371	0.0140714
893.450	0.0141325
893.528	0.0142425
893.606	0.0141667
893.684	0.0141793
893.762	0.0142149
893.840	0.0142143
893.918	0.0141375
893.996	0.0141336
894.075	0.0140845
894.153	0.0141972
894.231	0.0141228
894.309	0.0141640
894.387	0.0141165
894.465	0.0139693
894.543	0.0139716
894.621	0.0140675
894.700	0.0141071
894.778	0.0140814
894.856	0.0139899
894.934	0.0141025
895.012	0.0140948
895.090	0.0140998
895.168	0.0141087
895.246	0.0140972
895.325	0.0142847
895.403	0.0141732
895.481	0.0140527
895.559	0.0140317
895.637	0.0141615
895.715	0.0141536
895.793	0.0140514
895.871	0.0142280
895.950	0.0143204
896.028	0.0141862
896.106	0.0140688
896.184	0.0142216
896.262	0.0140822
896.340	0.0141859
896.418	0.0140597
896.496	0.0141547
896.575	0.0141863
896.653	0.0140650
896.731	0.0140394
896.809	0.0140203
896.887	0.0139606
896.965	0.0141219
897.043	0.0140334
897.121	0.0140097
897.200	0.0141489
897.278	0.0140849
897.356	0.0139281
897.434	0.0141137
897.512	0.0140160
897.590	0.0140964
897.668	0.0141573
897.746	0.0140554
897.825	0.0141354
897.903	0.0141853
897.981	0.0141607
898.059	0.0142001
898.137	0.0140875
898.215	0.0140540
898.293	0.0139843
898.371	0.0141772
898.450	0.0140347
898.528	0.0142124
898.606	0.0141941
898.684	0.0139575
898.762	0.0140910
898.840	0.0140903
898.918	0.0141191
898.996	0.0141749
899.075	0.0141226
899.153	0.0142380
899.231	0.0141796
899.309	0.0141735
899.387	0.0141089
899.465	0.0141563
899.543	0.0141367
899.621	0.0142323
899.700	0.0141335
899.778	0.0140297
899.856	0.0139719
899.934	0.0138921
900.012	0.0139828
900.090	0.0140846
900.168	0.0140163
900.246	0.0141207
900.325	0.0141261
900.403	0.0141671
900.481	0.0142248
900.559	0.0141788
900.637	0.0144153
900.715	0.0143896
900.793	0.0142099
900.871	0.0142837
900.950	0.0143595
901.028	0.0143259
901.106	0.0141619
901.184	0.0141577
901.262	0.0141595
901.340	0.0140401
901.418	0.0139001
901.496	0.0140010
901.575	0.0139109
901.653	0.0138725
901.731	0.0139273
901.809	0.0138857
901.887	0.0138554
901.965	0.0139777
902.043	0.0140985
902.121	0.0142441
902.200	0.0142405
902.278	0.0143311
902.356	0.0143937
902.434	0.0142171
902.512	0.0143762
902.590	0.0144393
902.668	0.0141377
902.746	0.0143916
902.825	0.0142591
902.903	0.0142076
902.981	0.0141318
903.059	0.0139323
903.137	0.0138493
903.215	0.0140096
903.293	0.0139164
903.371	0.0138770
903.450	0.0139373
903.528	0.0139021
903.606	0.0139101
903.684	0.0141267
903.762	0.0141895
903.840	0.0140807
903.918	0.0142052
903.996	0.0142986
904.075	0.0143007
904.153	0.0143574
904.231	0.0142559
904.309	0.0142697
904.387	0.0143038
904.465	0.0143501
904.543	0.0142910
904.621	0.0142822
904.700	0.0143080
904.778	0.0144088
904.856	0.0142249
904.934	0.0144617
905.012	0.0143565
905.090	0.0143143
905.168	0.0144394
905.246	0.0144841
905.325	0.0143771
905.403	0.0144846
905.481	0.0143195
905.559	0.0144457
905.637	0.0141646
905.715	0.0142408
905.793	0.0140990
905.871	0.0139956
905.950	0.0140019
906.028	0.0137901
906.106	0.0137712
906.184	0.0138026
906.262	0.0138583
906.340	0.0137856
906.418	0.0138364
906.496	0.0140476
906.575	0.0140623
906.653	0.0141888
906.731	0.0142181
906.809	0.0143531
906.887	0.0145930
906.965	0.0146095
907.043	0.0145925
907.121	0.0145068
907.200	0.0147092
907.278	0.0145569
907.356	0.0146178
907.434	0.0143797
907.512	0.0142396
907.590	0.0142085
907.668	0.0140897
907.746	0.0140562
907.825	0.0138358
907.903	0.0138410
907.981	0.0138711
908.059	0.0136819
908.137	0.0136963
908.215	0.0138046
908.293	0.0138019
908.371	0.0137933
908.450	0.0139548
908.528	0.0141055
908.606	0.0141556
908.684	0.0142745
908.762	0.0144622
908.840	0.0144706
908.918	0.0144727
908.996	0.0144341
909.075	0.0144932
909.153	0.0145036
909.231	0.0144146
909.309	0.0144631
909.387	0.0143586
909.465	0.0141917
909.543	0.0141272
909.621	0.0138908
909.700	0.0140144
909.778	0.0139066
909.856	0.0138269
909.934	0.0138779
910.012	0.0139730
910.090	0.0140602
910.168	0.0140783
910.246	0.0141343
910.325	0.0140548
910.403	0.0142719
910.481	0.0142722
910.559	0.0144814
910.637	0.0144697
910.715	0.0143008
910.793	0.0146356
910.871	0.0146626
910.950	0.0144117
911.028	0.0143127
911.106	0.0144251
911.184	0.0141213
911.262	0.0141123
911.340	0.0141351
911.418	0.0140531
911.496	0.0139468
911.575	0.0138393
911.653	0.0138061
911.731	0.0136986
911.809	0.0137959
911.887	0.0139534
911.965	0.0137569
912.043	0.0137767
912.121	0.0139568
912.200	0.0140391
912.278	0.0141402
912.356	0.0141826
912.434	0.0141486
912.512	0.0143193
912.590	0.0143161
912.668	0.0144323
912.746	0.0144106
912.825	0.0145829
912.903	0.0145798
912.981	0.0143906
913.059	0.0144116
913.137	0.0144756
913.215	0.0144439
913.293	0.0143044
913.371	0.0141948
913.450	0.0143298
913.528	0.0141730
913.606	0.0140016
913.684	0.0139895
913.762	0.0139132
913.840	0.0140224
913.918	0.0138294
913.996	0.0138259
914.075	0.0138097
914.153	0.0138803
914.231	0.0140335
914.309	0.0139337
914.387	0.0140388
914.465	0.0140421
914.543	0.0142073
914.621	0.0143015
914.700	0.0142404
914.778	0.0142905
914.856	0.0143964
914.934	0.0144510
915.012	0.0145561
915.090	0.0144244
915.168	0.0144473
915.246	0.0144113
915.325	0.0145832
915.403	0.0144259
915.481	0.0143340
915.559	0.0140934
915.637	0.0142694
915.715	0.0141190
915.793	0.0141079
915.871	0.0139500
915.950	0.0139404
916.028	0.0139382
916.106	0.0139564
916.184	0.0139137
916.262	0.0138145
916.340	0.0139792
916.418	0.0140997
916.496	0.0138431
916.575	0.0140587
916.653	0.0143133
916.731	0.0142455
916.809	0.0143140
916.887	0.0144353
916.965	0.0142315
917.043	0.0143320
917.121	0.0141776
917.200	0.0141853
917.278	0.0143248
917.356	0.0142477
917.434	0.0141628
917.512	0.0141434
917.590	0.0141344
917.668	0.0141252
917.746	0.0141808
917.825	0.0139244
917.903	0.0140621
917.981	0.0141048
918.059	0.0141553
918.137	0.0140546
918.215	0.0140804
918.293	0.0141686
918.371	0.0142173
918.450	0.0143732
918.528	0.0144234
918.606	0.0143561
918.684	0.0142766
918.762	0.0142830
918.840	0.0143171
918.918	0.0143131
918.996	0.0144047
919.075	0.0142509
919.153	0.0141195
919.231	0.0142541
919.309	0.0140894
919.387	0.0141572
919.465	0.0141734
919.543	0.0140489
919.621	0.0140167
919.700	0.0141718
919.778	0.0140422
919.856	0.0138329
919.934	0.0139837
920.012	0.0139384
920.090	0.0139767
920.168	0.0141451
920.246	0.0141157
920.325	0.0140363
920.403	0.0141053
920.481	0.0140007
920.559	0.0141805
920.637	0.0142110
920.715	0.0141492
920.793	0.0142223
920.871	0.0141693
920.950	0.0143779
921.028	0.0143183
921.106	0.0143449
921.184	0.0143106
921.262	0.0143966
921.340	0.0143295
921.418	0.0144269
921.496	0.0143591
921.575	0.0142953
921.653	0.0142994
921.731	0.0142179
921.809	0.0140286
921.887	0.0140392
921.965	0.0141037
922.043	0.0139472
922.121	0.0140730
922.200	0.0139208
922.278	0.0139684
922.356	0.0140517
922.434	0.0139885
922.512	0.0139720
922.590	0.0139368
922.668	0.0140076
922.746	0.0141232
922.825	0.0141187
922.903	0.0141991
922.981	0.0141824
923.059	0.0142802
923.137	0.0141331
923.215	0.0142429
923.293	0.0142210
923.371	0.0142785
923.450	0.0143171
923.528	0.0141158
923.606	0.0143464
923.684	0.0143285
923.762	0.0143393
923.840	0.0142453
923.918	0.0142157
923.996	0.0141735
924.075	0.0141526
924.153	0.0141154
924.231	0.0143140
924.309	0.0142114
924.387	0.0141160
924.465	0.0140516
924.543	0.0141470
924.621	0.0139646
924.700	0.0139301
924.778	0.0140698
924.856	0.0141104
924.934	0.0141571
925.012	0.0140391
925.090	0.0142448
925.168	0.0140807
925.246	0.0143047
925.325	0.0142569
925.403	0.0143002
925.481	0.0143160
925.559	0.0140848
925.637	0.0143182
925.715	0.0143526
925.793	0.0144356
925.871	0.0144049
925.950	0.0144401
926.028	0.0143275
926.106	0.0142655
926.184	0.0142699
926.262	0.0141518
926.340	0.0141222
926.418	0.0141463
926.496	0.0141514
926.575	0.0140813
926.653	0.0140067
926.731	0.0139838
926.809	0.0140639
926.887	0.0141206
926.965	0.0140965
927.043	0.0141571
927.121	0.0142044
927.200	0.0140667
927.278	0.0142278
927.356	0.0141776
927.434	0.0143391
927.512	0.0142936
927.590	0.0144383
927.668	0.0143468
927.746	0.0143241
927.825	0.0141779
927.903	0.0143596
927.981	0.0143743
928.059	0.0143054
928.137	0.0143414
928.215	0.0142914
928.293	0.0142954
928.371	0.0143212
928.450	0.0142125
928.528	0.0142008
928.606	0.0142060
928.684	0.0141496
928.762	0.0141357
928.840	0.0140495
928.918	0.0140244
928.996	0.0142027
929.075	0.0140427
929.153	0.0139745
929.231	0.0140837
929.309	0.0141452
929.387	0.0141386
929.465	0.0140715
929.543	0.0142558
929.621	0.0142324
929.700	0.0141942
929.778	0.0142596
929.856	0.0142337
929.934	0.0142950
930.012	0.0141724
930.090	0.0142481
930.168	0.0142880
930.246	0.0141753
930.325	0.0141323
930.403	0.0142881
930.481	0.0141972
930.559	0.0142471
930.637	0.0143228
930.715	0.0142144
930.793	0.0142419
930.871	0.0141151
930.950	0.0140779
931.028	0.0141833
931.106	0.0141778
931.184	0.0140464
931.262	0.0142490
931.340	0.0142017
931.418	0.0142444
931.496	0.0141452
931.575	0.0142964
931.653	0.0142442
931.731	0.0143353
931.809	0.0142685
931.887	0.0141273
931.965	0.0141957
932.043	0.0140929
932.121	0.0140691
932.200	0.0141281
932.278	0.0141619
932.356	0.0142538
932.434	0.0142382
932.512	0.0142287
932.590	0.0141437
932.668	0.0141883
932.746	0.0142577
932.825	0.0142344
932.903	0.0141632
932.981	0.0141853
933.059	0.0144823
933.137	0.0143578
933.215	0.0142684
933.293	0.0143167
933.371	0.0144395
933.450	0.0142393
933.528	0.0142601
933.606	0.0142775
933.684	0.0142355
933.762	0.0141325
933.840	0.0142438
933.918	0.0141029
933.996	0.0141837
934.075	0.0141068
934.153	0.0141296
934.231	0.0140996
934.309	0.0140169
934.387	0.0141600
934.465	0.0141737
934.543	0.0141396
934.621	0.0141432
934.700	0.0140968
934.778	0.0141379
934.856	0.0142896
934.934	0.0143277
935.012	0.0141824
935.090	0.0142209
935.168	0.0143198
935.246	0.0143701
935.325	0.0144072
935.403	0.0142856
935.481	0.0143256
935.559	0.0141405
935.637	0.0141648
935.715	0.0140660
935.793	0.0140048
935.871	0.0140878
935.950	0.0140940
936.028	0.0139872
936.106	0.0140805
936.184	0.0140974
936.262	0.0141409
936.340	0.0141344
936.418	0.0140363
936.496	0.0141621
936.575	0.0141107
936.653	0.0140685
936.731	0.0140684
936.809	0.0142110
936.887	0.0141976
936.965	0.0141994
937.043	0.0142573
937.121	0.0143024
937.200	0.0142852
937.278	0.0142139
937.356	0.0141821
937.434	0.0142174
937.512	0.0142126
937.590	0.0141795
937.668	0.0142016
937.746	0.0142190
937.825	0.0141800
937.903	0.0139984
937.981	0.0141235
938.059	0.0141294
938.137	0.0139931
938.215	0.0139879
938.293	0.0140415
938.371	0.0139996
938.450	0.0139111
938.528	0.0140163
938.606	0.0139353
938.684	0.0140713
938.762	0.0141415
938.840	0.0141837
938.918	0.0142170
938.996	0.0143646
939.075	0.0142905
939.153	0.0143311
939.231	0.0142352
939.309	0.0143419
939.387	0.0143773
939.465	0.0142398
939.543	0.0142326
939.621	0.0143151
939.700	0.0141434
939.778	0.0142002
939.856	0.0142690
939.934	0.0142188
940.012	0.0141924
940.090	0.0142008
940.168	0.0140528
940.246	0.0139794
940.325	0.0139831
940.403	0.0140382
940.481	0.0142032
940.559	0.0140727
940.637	0.0141098
940.715	0.0139907
940.793	0.0140619
940.871	0.0141712
940.950	0.0139981
941.028	0.0141634
941.106	0.0142592
941.184	0.0141761
941.262	0.0141357
941.340	0.0141875
941.418	0.0141486
941.496	0.0141151
941.575	0.0140990
941.653	0.0141893
941.731	0.0141462
941.809	0.0142507
941.887	0.0143256
941.965	0.0140498
942.043	0.0140441
942.121	0.0141408
942.200	0.0140820
942.278	0.0141258
942.356	0.0141382
942.434	0.0142008
942.512	0.0142172
942.590	0.0142442
942.668	0.0141908
942.746	0.0141048
942.825	0.0141181
942.903	0.0140081
942.981	0.0140910
943.059	0.0141026
943.137	0.0139909
943.215	0.0140379
943.293	0.0140067
943.371	0.0139528
943.450	0.0140971
943.528	0.0142201
943.606	0.0141185
943.684	0.0140380
943.762	0.0141194
943.840	0.0141317
943.918	0.0142173
943.996	0.0140627
944.075	0.0140465
944.153	0.0142151
944.231	0.0142492
944.309	0.0141005
944.387	0.0141978
944.465	0.0139830
944.543	0.0140965
944.621	0.0141063
944.700	0.0140148
944.778	0.0142124
944.856	0.0140743
944.934	0.0140086
945.012	0.0140546
945.090	0.0141299
945.168	0.0141868
945.246	0.0141293
945.325	0.0141901
945.403	0.0141944
945.481	0.0140235
945.559	0.0141615
945.637	0.0141115
945.715	0.0140443
945.793	0.0142589
945.871	0.0142547
945.950	0.0141212
946.028	0.0140487
946.106	0.0142213
946.184	0.0141743
946.262	0.0141447
946.340	0.0140955
946.418	0.0141267
946.496	0.0141026
946.575	0.0140630
946.653	0.0141307
946.731	0.0140800
946.809	0.0141404
946.887	0.0141895
946.965	0.0142087
947.043	0.0142176
947.121	0.0142491
947.200	0.0140459
947.278	0.0141219
947.356	0.0141685
947.434	0.0141708
947.512	0.0143328
947.590	0.0141295
947.668	0.0142142
947.746	0.0141704
947.825	0.0141679
947.903	0.0143897
947.981	0.0142123
948.059	0.0141891
948.137	0.0142781
948.215	0.0141751
948.293	0.0142557
948.371	0.0141655
948.450	0.0142155
948.528	0.0141042
948.606	0.0141100
948.684	0.0141235
948.762	0.0140253
948.840	0.0141010
948.918	0.0140633
948.996	0.0141916
949.075	0.0142371
949.153	0.0142702
949.231	0.0141713
949.309	0.0141877
949.387	0.0141847
949.465	0.0142688
949.543	0.0143312
949.621	0.0142706
949.700	0.0141030
949.778	0.0141264
949.856	0.0143074
949.934	0.0142223
950.012	0.0142751
950.090	0.0141397
950.168	0.0142827
950.246	0.0143027
950.325	0.0141145
950.403	0.0139646
950.481	0.0141007
950.559	0.0140990
950.637	0.0141779
950.715	0.0141550
950.793	0.0142416
950.871	0.0142240
950.950	0.0141236
951.028	0.0140804
951.106	0.0140739
951.184	0.0142307
951.262	0.0141084
951.340	0.0141342
951.418	0.0141326
951.496	0.0142010
951.575	0.0140466
951.653	0.0141839
951.731	0.0141697
951.809	0.0143437
951.887	0.0142655
951.965	0.0142696
952.043	0.0143289
952.121	0.0142409
952.200	0.0140803
952.278	0.0142137
952.356	0.0140944
952.434	0.0141331
952.512	0.0142271
952.590	0.0142889
952.668	0.0140371
952.746	0.0141582
952.825	0.0140480
952.903	0.0140636
952.981	0.0141823
953.059	0.0140812
953.137	0.0141041
953.215	0.0140277
953.293	0.0140163
953.371	0.0140501
953.450	0.0141148
953.528	0.0141515
953.606	0.0141303
953.684	0.0141898
953.762	0.0141138
953.840	0.0141496
953.918	0.0142008
953.996	0.0143514
954.075	0.0140502
954.153	0.0141441
954.231	0.0142756
954.309	0.0142545
954.387	0.0142919
954.465	0.0142314
954.543	0.0141357
954.621	0.0143353
954.700	0.0142617
954.778	0.0141488
954.856	0.0143008
954.934	0.0141938
955.012	0.0140588
955.090	0.0141191
955.168	0.0141354
955.246	0.0139801
955.325	0.0140920
955.403	0.0141125
955.481	0.0140414
955.559	0.0139495
955.637	0.0139598
955.715	0.0140170
955.793	0.0140842
955.871	0.0140475
955.950	0.0140544
956.028	0.0141133
956.106	0.0141681
956.184	0.0140459
956.262	0.0141578
956.340	0.0141357
956.418	0.0142127
956.496	0.0142471
956.575	0.0141315
956.653	0.0142165
956.731	0.0141810
956.809	0.0142413
956.887	0.0143162
956.965	0.0142396
957.043	0.0142396
957.121	0.0142101
957.200	0.0142180
957.278	0.0141407
957.356	0.0142897
957.434	0.0142623
957.512	0.0141217
957.590	0.0141719
957.668	0.0142746
957.746	0.0141686
957.825	0.0141965
957.903	0.0140922
957.981	0.0139929
958.059	0.0141895
958.137	0.0142632
958.215	0.0141902
958.293	0.0142369
958.371	0.0141518
958.450	0.0141763
958.528	0.0139892
958.606	0.0141130
958.684	0.0142135
958.762	0.0141264
958.840	0.0141149
958.918	0.0141992
958.996	0.0141264
959.075	0.0141708
959.153	0.0141743
959.231	0.0141179
959.309	0.0142284
959.387	0.0142115
959.465	0.0142462
959.543	0.0142039
959.621	0.0141685
959.700	0.0140475
959.778	0.0140158
959.856	0.0142533
959.934	0.0142282
960.012	0.0141169
960.090	0.0141285
960.168	0.0142095
960.246	0.0141656
960.325	0.0142236
960.403	0.0139944
960.481	0.0140359
960.559	0.0140580
960.637	0.0140970
960.715	0.0141502
960.793	0.0141492
960.871	0.0141621
960.950	0.0140756
961.028	0.0139941
961.106	0.0141286
961.184	0.0142029
961.262	0.0141521
961.340	0.0141898
961.418	0.0141169
961.496	0.0140707
961.575	0.0140643
961.653	0.0141082
961.731	0.0139764
961.809	0.0139156
961.887	0.0139754
961.965	0.0141335
962.043	0.0140829
962.121	0.0140782
962.200	0.0140589
962.278	0.0140114
962.356	0.0141569
962.434	0.0141357
962.512	0.0142017
962.590	0.0140420
962.668	0.0142762
962.746	0.0142400
962.825	0.0141734
962.903	0.0142062
962.981	0.0142650
963.059	0.0141008
963.137	0.0141280
963.215	0.0140407
963.293	0.0140859
963.371	0.0140563
963.450	0.0140903
963.528	0.0141722
963.606	0.0140049
963.684	0.0140006
963.762	0.0140465
963.840	0.0141846
963.918	0.0141084
963.996	0.0141015
964.075	0.0141280
964.153	0.0142445
964.231	0.0142490
964.309	0.0143677
964.387	0.0143152
964.465	0.0143328
964.543	0.0142265
964.621	0.0141507
964.700	0.0143670
964.778	0.0143045
964.856	0.0141989
964.934	0.0142305
965.012	0.0141371
965.090	0.0142008
965.168	0.0142249
965.246	0.0141973
965.325	0.0141010
965.403	0.0142175
965.481	0.0141459
965.559	0.0141631
965.637	0.0140400
965.715	0.0141491
965.793	0.0139731
965.871	0.0141686
965.950	0.0140928
966.028	0.0141869
966.106	0.0142185
966.184	0.0142610
966.262	0.0141227
966.340	0.0142446
966.418	0.0142744
966.496	0.0141362
966.575	0.0141911
966.653	0.0143141
966.731	0.0140693
966.809	0.0141558
966.887	0.0140830
966.965	0.0140464
967.043	0.0141007
967.121	0.0141412
967.200	0.0141104
967.278	0.0140710
967.356	0.0142423
967.434	0.0142136
967.512	0.0141642
967.590	0.0141194
967.668	0.0141627
967.746	0.0142249
967.825	0.0140871
967.903	0.0140694
967.981	0.0140536
968.059	0.0141792
968.137	0.0141516
968.215	0.0141616
968.293	0.0142324
968.371	0.0141611
968.450	0.0140273
968.528	0.0141855
968.606	0.0141688
968.684	0.0141962
968.762	0.0141766
968.840	0.0141331
968.918	0.0141916
968.996	0.0140832
969.075	0.0141876
969.153	0.0142259
969.231	0.0140999
969.309	0.0140381
969.387	0.0142323
969.465	0.0142779
969.543	0.0142799
969.621	0.0141644
969.700	0.0142782
969.778	0.0142234
969.856	0.0142770
969.934	0.0142258
970.012	0.0142046
970.090	0.0142034
970.168	0.0141090
970.246	0.0141850
970.325	0.0141283
970.403	0.0140991
970.481	0.0141457
970.559	0.0142620
970.637	0.0142500
970.715	0.0140896
970.793	0.0141473
970.871	0.0142149
970.950	0.0141678
971.028	0.0140255
971.106	0.0141271
971.184	0.0141723
971.262	0.0142138
971.340	0.0140872
971.418	0.0141373
971.496	0.0140816
971.575	0.0140747
971.653	0.0140287
971.731	0.0140081
971.809	0.0141434
971.887	0.0141936
971.965	0.0141804
972.043	0.0141880
972.121	0.0141187
972.200	0.0141552
972.278	0.0142016
972.356	0.0141418
972.434	0.0142272
972.512	0.0142921
972.590	0.0141644
972.668	0.0142606
972.746	0.0144028
972.825	0.0142938
972.903	0.0141856
972.981	0.0142258
973.059	0.0141209
973.137	0.0141552
973.215	0.0142874
973.293	0.0142569
973.371	0.0141317
973.450	0.0141882
973.528	0.0141596
973.606	0.0140914
973.684	0.0139586
973.762	0.0140813
973.840	0.0139220
973.918	0.0141427
973.996	0.0142247
974.075	0.0141191
974.153	0.0141563
974.231	0.0140743
974.309	0.0141463
974.387	0.0141685
974.465	0.0141075
974.543	0.0142203
974.621	0.0142088
974.700	0.0142466
974.778	0.0142345
974.856	0.0140850
974.934	0.0141554
975.012	0.0141393
975.090	0.0141830
975.168	0.0141801
975.246	0.0142178
975.325	0.0142227
975.403	0.0141438
975.481	0.0141547
975.559	0.0141676
975.637	0.0141387
975.715	0.0140893
975.793	0.0141644
975.871	0.0140784
975.950	0.0140298
976.028	0.0140993
976.106	0.0141642
976.184	0.0141058
976.262	0.0141069
976.340	0.0141737
976.418	0.0141570
976.496	0.0140127
976.575	0.0141164
976.653	0.0141929
976.731	0.0142140
976.809	0.0141678
976.887	0.0142184
976.965	0.0141439
977.043	0.0141136
977.121	0.0141819
977.200	0.0141505
977.278	0.0141548
977.356	0.0141813
977.434	0.0141776
977.512	0.0139760
977.590	0.0141939
977.668	0.0142555
977.746	0.0141261
977.825	0.0142078
977.903	0.0141798
977.981	0.0142374
978.059	0.0141272
978.137	0.0142316
978.215	0.0142266
978.293	0.0140984
978.371	0.0140867
978.450	0.0141633
978.528	0.0141884
978.606	0.0142816
978.684	0.0141942
978.762	0.0139898
978.840	0.0141768
978.918	0.0141299
978.996	0.0141496
979.075	0.0141485
979.153	0.0141140
979.231	0.0140125
979.309	0.0140574
979.387	0.0142847
979.465	0.0140332
979.543	0.0141763
979.621	0.0141653
979.700	0.0141765
979.778	0.0142448
979.856	0.0142922
979.934	0.0142377
980.012	0.0141890
980.090	0.0141810
980.168	0.0143076
980.246	0.0142001
980.325	0.0142390
980.403	0.0143393
980.481	0.0142071
980.559	0.0140301
980.637	0.0141050
980.715	0.0140935
980.793	0.0141190
980.871	0.0140568
980.950	0.0143132
981.028	0.0140706
981.106	0.0139980
981.184	0.0141573
981.262	0.0139883
981.340	0.0139927
981.418	0.0141178
981.496	0.0140488
981.575	0.0141469
981.653	0.0141383
981.731	0.0141548
981.809	0.0142166
981.887	0.0141817
981.965	0.0140672
982.043	0.0141093
982.121	0.0142757
982.200	0.0141786
982.278	0.0142183
982.356	0.0141484
982.434	0.0141049
982.512	0.0142303
982.590	0.0140649
982.668	0.0140939
982.746	0.0142313
982.825	0.0141921
982.903	0.0140385
982.981	0.0140768
983.059	0.0140430
983.137	0.0140969
983.215	0.0141010
983.293	0.0140469
983.371	0.0141133
983.450	0.0142563
983.528	0.0142024
983.606	0.0141550
983.684	0.0140434
983.762	0.0141541
983.840	0.0141879
983.918	0.0141129
983.996	0.0141093
984.075	0.0141882
984.153	0.0141441
984.231	0.0141021
984.309	0.0141737
984.387	0.0141284
984.465	0.0140999
984.543	0.0140984
984.621	0.0142771
984.700	0.0141235
984.778	0.0139683
984.856	0.0140625
984.934	0.0141201
985.012	0.0141792
985.090	0.0140471
985.168	0.0141148
985.246	0.0141099
985.325	0.0140166
985.403	0.0141592
985.481	0.0142654
985.559	0.0140759
985.637	0.0141579
985.715	0.0141804
985.793	0.0141554
985.871	0.0140662
985.950	0.0141843
986.028	0.0141026
986.106	0.0143279
986.184	0.0141802
986.262	0.0143027
986.340	0.0140254
986.418	0.0139689
986.496	0.0141241
986.575	0.0142432
986.653	0.0142896
986.731	0.0142194
986.809	0.0140791
986.887	0.0141219
986.965	0.0141360
987.043	0.0141740
987.121	0.0141485
987.200	0.0142162
987.278	0.0141396
987.356	0.0140688
987.434	0.0142581
987.512	0.0141373
987.590	0.0141119
987.668	0.0139963
987.746	0.0141775
987.825	0.0141615
987.903	0.0141206
987.981	0.0140221
988.059	0.0141309
988.137	0.0141747
988.215	0.0139778
988.293	0.0141773
988.371	0.0141042
988.450	0.0141425
988.528	0.0141129
988.606	0.0142139
988.684	0.0141431
988.762	0.0141115
988.840	0.0141311
988.918	0.0142111
988.996	0.0142354
989.075	0.0140396
989.153	0.0141651
989.231	0.0141422
989.309	0.0141341
989.387	0.0141737
989.465	0.0141147
989.543	0.0141586
989.621	0.0141109
989.700	0.0140972
989.778	0.0141518
989.856	0.0141185
989.934	0.0141820
990.012	0.0142837
990.090	0.0141814
990.168	0.0141798
990.246	0.0141298
990.325	0.0142106
990.403	0.0140794
990.481	0.0140269
990.559	0.0140440
990.637	0.0141244
990.715	0.0141691
990.793	0.0141585
990.871	0.0140969
990.950	0.0140670
991.028	0.0140942
991.106	0.0143021
991.184	0.0143485
991.262	0.0141204
991.340	0.0141599
991.418	0.0142290
991.496	0.0142653
991.575	0.0141274
991.653	0.0142692
991.731	0.0140473
991.809	0.0142439
991.887	0.0142065
991.965	0.0142641
992.043	0.0141929
992.121	0.0142105
992.200	0.0142310
992.278	0.0141123
992.356	0.0141186
992.434	0.0141395
992.512	0.0141031
992.590	0.0142164
992.668	0.0141550
992.746	0.0141792
992.825	0.0140453
992.903	0.0141611
992.981	0.0140132
993.059	0.0140706
993.137	0.0141792
993.215	0.0140634
993.293	0.0141711
993.371	0.0141959
993.450	0.0140773
993.528	0.0141958
993.606	0.0141017
993.684	0.0141631
993.762	0.0141954
993.840	0.0141699
993.918	0.0141669
993.996	0.0140941
994.075	0.0141677
994.153	0.0142242
994.231	0.0141676
994.309	0.0141919
994.387	0.0141134
994.465	0.0141898
994.543	0.0142216
994.621	0.0141156
994.700	0.0141016
994.778	0.0141014
994.856	0.0140680
994.934	0.0140800
995.012	0.0140603
995.090	0.0141699
995.168	0.0142035
995.246	0.0141518
995.325	0.0140992
995.403	0.0140946
995.481	0.0140394
995.559	0.0140912
995.637	0.0142023
995.715	0.0140995
995.793	0.0139979
995.871	0.0140506
995.950	0.0140712
996.028	0.0141286
996.106	0.0142075
996.184	0.0142246
996.262	0.0142487
996.340	0.0141962
996.418	0.0141513
996.496	0.0141099
996.575	0.0140997
996.653	0.0142738
996.731	0.0142585
996.809	0.0142466
996.887	0.0141630
996.965	0.0141123
997.043	0.0142030
997.121	0.0142096
997.200	0.0141745
997.278	0.0141508
997.356	0.0141590
997.434	0.0143184
997.512	0.0141728
997.590	0.0141932
997.668	0.0141561
997.746	0.0140848
997.825	0.0140098
997.903	0.0139690
997.981	0.0142391
998.059	0.0141876
998.137	0.0141521
998.215	0.0140236
998.293	0.0141290
998.371	0.0142048
998.450	0.0143037
998.528	0.0141499
998.606	0.0142847
998.684	0.0141945
998.762	0.0142094
998.840	0.0142590
998.918	0.0144104
