05/04/2022	21:01:57	Ver.	4.1	UNKNOWN
Optical Delay	678.996401	Delta X		0.078125	Sweeps	1	Scan Rate	0/0
Coordinates	Axis 1	NaN	Axis 2	NaN	Axis 3	NaN	Axis 4	NaN	Axis 5	NaN	Axis 6	0.000000
TX Power	0.000000	RX Power	0.000000

678.996	0.0143513
679.075	0.0144594
679.153	0.0143298
679.231	0.0143610
679.309	0.0143211
679.387	0.0144403
679.465	0.0145313
679.543	0.0144249
679.621	0.0143945
679.700	0.0143357
679.778	0.0144056
679.856	0.0143314
679.934	0.0143222
680.012	0.0143822
680.090	0.0144425
680.168	0.0144496
680.246	0.0144365
680.325	0.0142937
680.403	0.0142588
680.481	0.0144618
680.559	0.0144145
680.637	0.0144125
680.715	0.0143645
680.793	0.0143312
680.871	0.0144211
680.950	0.0144431
681.028	0.0144064
681.106	0.0143925
681.184	0.0143671
681.262	0.0143685
681.340	0.0143296
681.418	0.0144202
681.496	0.0143620
681.575	0.0144368
681.653	0.0143493
681.731	0.0143106
681.809	0.0143803
681.887	0.0143522
681.965	0.0142696
682.043	0.0144508
682.121	0.0143032
682.200	0.0145899
682.278	0.0143978
682.356	0.0143530
682.434	0.0143783
682.512	0.0143967
682.590	0.0143312
682.668	0.0143477
682.746	0.0142934
682.825	0.0143887
682.903	0.0143520
682.981	0.0143303
683.059	0.0144134
683.137	0.0144685
683.215	0.0143822
683.293	0.0143589
683.371	0.0142921
683.450	0.0142500
683.528	0.0143100
683.606	0.0144167
683.684	0.0143591
683.762	0.0142380
683.840	0.0142347
683.918	0.0144740
683.996	0.0143530
684.075	0.0144350
684.153	0.0143469
684.231	0.0142381
684.309	0.0144128
684.387	0.0143050
684.465	0.0143819
684.543	0.0142544
684.621	0.0143457
684.700	0.0143219
684.778	0.0143693
684.856	0.0143409
684.934	0.0143509
685.012	0.0144384
685.090	0.0143391
685.168	0.0142847
685.246	0.0141276
685.325	0.0143601
685.403	0.0143631
685.481	0.0145085
685.559	0.0143969
685.637	0.0143537
685.715	0.0143053
685.793	0.0143475
685.871	0.0144109
685.950	0.0145216
686.028	0.0144122
686.106	0.0143770
686.184	0.0143571
686.262	0.0145132
686.340	0.0143703
686.418	0.0142973
686.496	0.0144138
686.575	0.0144940
686.653	0.0144717
686.731	0.0143902
686.809	0.0143127
686.887	0.0143558
686.965	0.0142831
687.043	0.0145424
687.121	0.0143420
687.200	0.0142875
687.278	0.0145087
687.356	0.0141467
687.434	0.0142517
687.512	0.0143774
687.590	0.0145356
687.668	0.0143612
687.746	0.0143562
687.825	0.0143918
687.903	0.0142767
687.981	0.0143849
688.059	0.0144072
688.137	0.0143978
688.215	0.0143694
688.293	0.0144554
688.371	0.0142966
688.450	0.0142927
688.528	0.0142714
688.606	0.0143566
688.684	0.0144043
688.762	0.0142839
688.840	0.0142617
688.918	0.0144483
688.996	0.0143343
689.075	0.0143830
689.153	0.0143996
689.231	0.0144689
689.309	0.0143813
689.387	0.0144518
689.465	0.0142976
689.543	0.0144121
689.621	0.0143947
689.700	0.0142900
689.778	0.0144312
689.856	0.0143993
689.934	0.0142862
690.012	0.0144198
690.090	0.0144960
690.168	0.0143920
690.246	0.0142646
690.325	0.0143415
690.403	0.0144028
690.481	0.0143419
690.559	0.0143319
690.637	0.0143298
690.715	0.0143162
690.793	0.0143314
690.871	0.0143844
690.950	0.0144038
691.028	0.0142973
691.106	0.0143806
691.184	0.0143666
691.262	0.0143356
691.340	0.0142727
691.418	0.0143081
691.496	0.0143510
691.575	0.0144849
691.653	0.0142241
691.731	0.0142663
691.809	0.0143568
691.887	0.0144190
691.965	0.0142827
692.043	0.0142881
692.121	0.0143943
692.200	0.0143150
692.278	0.0143280
692.356	0.0143266
692.434	0.0144151
692.512	0.0144711
692.590	0.0144724
692.668	0.0143536
692.746	0.0144737
692.825	0.0144794
692.903	0.0144866
692.981	0.0143155
693.059	0.0143514
693.137	0.0143592
693.215	0.0144552
693.293	0.0144257
693.371	0.0144690
693.450	0.0143641
693.528	0.0143332
693.606	0.0143626
693.684	0.0142628
693.762	0.0142419
693.840	0.0143101
693.918	0.0143663
693.996	0.0144563
694.075	0.0142545
694.153	0.0143246
694.231	0.0143667
694.309	0.0144411
694.387	0.0144855
694.465	0.0143085
694.543	0.0143050
694.621	0.0144104
694.700	0.0142647
694.778	0.0142555
694.856	0.0143687
694.934	0.0142688
695.012	0.0143019
695.090	0.0142363
695.168	0.0143838
695.246	0.0143549
695.325	0.0142693
695.403	0.0143374
695.481	0.0144424
695.559	0.0143496
695.637	0.0143368
695.715	0.0144312
695.793	0.0143469
695.871	0.0143655
695.950	0.0143027
696.028	0.0143433
696.106	0.0144167
696.184	0.0143832
696.262	0.0144608
696.340	0.0144449
696.418	0.0142460
696.496	0.0143430
696.575	0.0143842
696.653	0.0144176
696.731	0.0144180
696.809	0.0142965
696.887	0.0143240
696.965	0.0143745
697.043	0.0144804
697.121	0.0144013
697.200	0.0142564
697.278	0.0143326
697.356	0.0143257
697.434	0.0143261
697.512	0.0144126
697.590	0.0143784
697.668	0.0142624
697.746	0.0143816
697.825	0.0143877
697.903	0.0143663
697.981	0.0141887
698.059	0.0143304
698.137	0.0143559
698.215	0.0143335
698.293	0.0142970
698.371	0.0143592
698.450	0.0144595
698.528	0.0142469
698.606	0.0142696
698.684	0.0143737
698.762	0.0143042
698.840	0.0143439
698.918	0.0144321
698.996	0.0143075
699.075	0.0143147
699.153	0.0143187
699.231	0.0143213
699.309	0.0142254
699.387	0.0143015
699.465	0.0143301
699.543	0.0143813
699.621	0.0143560
699.700	0.0144442
699.778	0.0142256
699.856	0.0144447
699.934	0.0143642
700.012	0.0144733
700.090	0.0144063
700.168	0.0143221
700.246	0.0144416
700.325	0.0143398
700.403	0.0143621
700.481	0.0144327
700.559	0.0143945
700.637	0.0142902
700.715	0.0144320
700.793	0.0144261
700.871	0.0144882
700.950	0.0142502
701.028	0.0142091
701.106	0.0141937
701.184	0.0144379
701.262	0.0143446
701.340	0.0143945
701.418	0.0144212
701.496	0.0143015
701.575	0.0143288
701.653	0.0143636
701.731	0.0144784
701.809	0.0143832
701.887	0.0143755
701.965	0.0142739
702.043	0.0143687
702.121	0.0144058
702.200	0.0143684
702.278	0.0142168
702.356	0.0144128
702.434	0.0143353
702.512	0.0142611
702.590	0.0142432
702.668	0.0142328
702.746	0.0143382
702.825	0.0143036
702.903	0.0143352
702.981	0.0143099
703.059	0.0143486
703.137	0.0142992
703.215	0.0143398
703.293	0.0143369
703.371	0.0143928
703.450	0.0145093
703.528	0.0142271
703.606	0.0142161
703.684	0.0142423
703.762	0.0145001
703.840	0.0144581
703.918	0.0143813
703.996	0.0144458
704.075	0.0143233
704.153	0.0144839
704.231	0.0144042
704.309	0.0144458
704.387	0.0145046
704.465	0.0142438
704.543	0.0143305
704.621	0.0145138
704.700	0.0143605
704.778	0.0143927
704.856	0.0144231
704.934	0.0143459
705.012	0.0142934
705.090	0.0143829
705.168	0.0142966
705.246	0.0143037
705.325	0.0143059
705.403	0.0144581
705.481	0.0144555
705.559	0.0144308
705.637	0.0144184
705.715	0.0144272
705.793	0.0144814
705.871	0.0144172
705.950	0.0144185
706.028	0.0143027
706.106	0.0141985
706.184	0.0140636
706.262	0.0141489
706.340	0.0141603
706.418	0.0141467
706.496	0.0141336
706.575	0.0139889
706.653	0.0141872
706.731	0.0142558
706.809	0.0142027
706.887	0.0142949
706.965	0.0145980
707.043	0.0148630
707.121	0.0150180
707.200	0.0149847
707.278	0.0148819
707.356	0.0149361
707.434	0.0147234
707.512	0.0146754
707.590	0.0144418
707.668	0.0142673
707.746	0.0139289
707.825	0.0136608
707.903	0.0136008
707.981	0.0133279
708.059	0.0134357
708.137	0.0133044
708.215	0.0133382
708.293	0.0132883
708.371	0.0134755
708.450	0.0138396
708.528	0.0142054
708.606	0.0148041
708.684	0.0152479
708.762	0.0157187
708.840	0.0160027
708.918	0.0160642
708.996	0.0159811
709.075	0.0157019
709.153	0.0154380
709.231	0.0150982
709.309	0.0145471
709.387	0.0141227
709.465	0.0137044
709.543	0.0134219
709.621	0.0130804
709.700	0.0129420
709.778	0.0129076
709.856	0.0128069
709.934	0.0129834
710.012	0.0133144
710.090	0.0138435
710.168	0.0143576
710.246	0.0149278
710.325	0.0155827
710.403	0.0161504
710.481	0.0165762
710.559	0.0166927
710.637	0.0166770
710.715	0.0163646
710.793	0.0159968
710.871	0.0152885
710.950	0.0147501
711.028	0.0139611
711.106	0.0133669
711.184	0.0128075
711.262	0.0123955
711.340	0.0119849
711.418	0.0117406
711.496	0.0117081
711.575	0.0120438
711.653	0.0124893
711.731	0.0129317
711.809	0.0135863
711.887	0.0140899
711.965	0.0146753
712.043	0.0151122
712.121	0.0153851
712.200	0.0155828
712.278	0.0155913
712.356	0.0156743
712.434	0.0155186
712.512	0.0152248
712.590	0.0150298
712.668	0.0148926
712.746	0.0146382
712.825	0.0143716
712.903	0.0140795
712.981	0.0137797
713.059	0.0135838
713.137	0.0137790
713.215	0.0139757
713.293	0.0141869
713.371	0.0144083
713.450	0.0147997
713.528	0.0150035
713.606	0.0150816
713.684	0.0149200
713.762	0.0148019
713.840	0.0144407
713.918	0.0143203
713.996	0.0137705
714.075	0.0134809
714.153	0.0131569
714.231	0.0130086
714.309	0.0128038
714.387	0.0128199
714.465	0.0128503
714.543	0.0132200
714.621	0.0137546
714.700	0.0142908
714.778	0.0148895
714.856	0.0155202
714.934	0.0160332
715.012	0.0164770
715.090	0.0168873
715.168	0.0170012
715.246	0.0169335
715.325	0.0166947
715.403	0.0164507
715.481	0.0159286
715.559	0.0154853
715.637	0.0147516
715.715	0.0139934
715.793	0.0133453
715.871	0.0126940
715.950	0.0120920
716.028	0.0118916
716.106	0.0114505
716.184	0.0112994
716.262	0.0116172
716.340	0.0119267
716.418	0.0124853
716.496	0.0132294
716.575	0.0140905
716.653	0.0147703
716.731	0.0156030
716.809	0.0163409
716.887	0.0168830
716.965	0.0171954
717.043	0.0172939
717.121	0.0172402
717.200	0.0168905
717.278	0.0165019
717.356	0.0157588
717.434	0.0151574
717.512	0.0143982
717.590	0.0135578
717.668	0.0128629
717.746	0.0124253
717.825	0.0118518
717.903	0.0114852
717.981	0.0113488
718.059	0.0112757
718.137	0.0115138
718.215	0.0120273
718.293	0.0125440
718.371	0.0133009
718.450	0.0140739
718.528	0.0148954
718.606	0.0156268
718.684	0.0163321
718.762	0.0168540
718.840	0.0170275
718.918	0.0172637
718.996	0.0172236
719.075	0.0172002
719.153	0.0169607
719.231	0.0165759
719.309	0.0161797
719.387	0.0154044
719.465	0.0146584
719.543	0.0140885
719.621	0.0133973
719.700	0.0127266
719.778	0.0120290
719.856	0.0117757
719.934	0.0115364
720.012	0.0115263
720.090	0.0116011
720.168	0.0117377
720.246	0.0122270
720.325	0.0127206
720.403	0.0132095
720.481	0.0139140
720.559	0.0144588
720.637	0.0151459
720.715	0.0156657
720.793	0.0162691
720.871	0.0166375
720.950	0.0168318
721.028	0.0168045
721.106	0.0167506
721.184	0.0164227
721.262	0.0161863
721.340	0.0157572
721.418	0.0151017
721.496	0.0147470
721.575	0.0143026
721.653	0.0137698
721.731	0.0132442
721.809	0.0129642
721.887	0.0127983
721.965	0.0125087
722.043	0.0124093
722.121	0.0125419
722.200	0.0126046
722.278	0.0128991
722.356	0.0132479
722.434	0.0134456
722.512	0.0137275
722.590	0.0141155
722.668	0.0144678
722.746	0.0145649
722.825	0.0147936
722.903	0.0151595
722.981	0.0151958
723.059	0.0152825
723.137	0.0152146
723.215	0.0153270
723.293	0.0152507
723.371	0.0149171
723.450	0.0147652
723.528	0.0148026
723.606	0.0147038
723.684	0.0146182
723.762	0.0144888
723.840	0.0143867
723.918	0.0141823
723.996	0.0139621
724.075	0.0139771
724.153	0.0137489
724.231	0.0136171
724.309	0.0135071
724.387	0.0134352
724.465	0.0133841
724.543	0.0134916
724.621	0.0136443
724.700	0.0138778
724.778	0.0140237
724.856	0.0142879
724.934	0.0143610
725.012	0.0147644
725.090	0.0149537
725.168	0.0149094
725.246	0.0150625
725.325	0.0151614
725.403	0.0151244
725.481	0.0149097
725.559	0.0146552
725.637	0.0143008
725.715	0.0143983
725.793	0.0141236
725.871	0.0139414
725.950	0.0137708
726.028	0.0135983
726.106	0.0137943
726.184	0.0138526
726.262	0.0139086
726.340	0.0141451
726.418	0.0143573
726.496	0.0144558
726.575	0.0146272
726.653	0.0147720
726.731	0.0148325
726.809	0.0149093
726.887	0.0150970
726.965	0.0149438
727.043	0.0148120
727.121	0.0148503
727.200	0.0146674
727.278	0.0144780
727.356	0.0144289
727.434	0.0143845
727.512	0.0143834
727.590	0.0143301
727.668	0.0142036
727.746	0.0139915
727.825	0.0139653
727.903	0.0138705
727.981	0.0137055
728.059	0.0137078
728.137	0.0135201
728.215	0.0135981
728.293	0.0136109
728.371	0.0135082
728.450	0.0137042
728.528	0.0137706
728.606	0.0140193
728.684	0.0141889
728.762	0.0145233
728.840	0.0148378
728.918	0.0151675
728.996	0.0154552
729.075	0.0156777
729.153	0.0157721
729.231	0.0158605
729.309	0.0157337
729.387	0.0156001
729.465	0.0153329
729.543	0.0151431
729.621	0.0148338
729.700	0.0144286
729.778	0.0140620
729.856	0.0135701
729.934	0.0131806
730.012	0.0128952
730.090	0.0126813
730.168	0.0125325
730.246	0.0126355
730.325	0.0127328
730.403	0.0128154
730.481	0.0132334
730.559	0.0133539
730.637	0.0137931
730.715	0.0143054
730.793	0.0143635
730.871	0.0148618
730.950	0.0151597
731.028	0.0152774
731.106	0.0154272
731.184	0.0154105
731.262	0.0155496
731.340	0.0154890
731.418	0.0154633
731.496	0.0151360
731.575	0.0151466
731.653	0.0149244
731.731	0.0146806
731.809	0.0145424
731.887	0.0142732
731.965	0.0140281
732.043	0.0138177
732.121	0.0137173
732.200	0.0136951
732.278	0.0135060
732.356	0.0133892
732.434	0.0132801
732.512	0.0130967
732.590	0.0131561
732.668	0.0131867
732.746	0.0132392
732.825	0.0133583
732.903	0.0134129
732.981	0.0136574
733.059	0.0140087
733.137	0.0143011
733.215	0.0147853
733.293	0.0150663
733.371	0.0155793
733.450	0.0157681
733.528	0.0160822
733.606	0.0163634
733.684	0.0163316
733.762	0.0164225
733.840	0.0163603
733.918	0.0161549
733.996	0.0158328
734.075	0.0155339
734.153	0.0150025
734.231	0.0145268
734.309	0.0139978
734.387	0.0136646
734.465	0.0131754
734.543	0.0128680
734.621	0.0125572
734.700	0.0122790
734.778	0.0122297
734.856	0.0124734
734.934	0.0124343
735.012	0.0127058
735.090	0.0131033
735.168	0.0134595
735.246	0.0138171
735.325	0.0142912
735.403	0.0144867
735.481	0.0149614
735.559	0.0152225
735.637	0.0155987
735.715	0.0157734
735.793	0.0158282
735.871	0.0162039
735.950	0.0161584
736.028	0.0159630
736.106	0.0158026
736.184	0.0157359
736.262	0.0153362
736.340	0.0152523
736.418	0.0149059
736.496	0.0147860
736.575	0.0142710
736.653	0.0139694
736.731	0.0134965
736.809	0.0133445
736.887	0.0131451
736.965	0.0129884
737.043	0.0128042
737.121	0.0127370
737.200	0.0127989
737.278	0.0130818
737.356	0.0131675
737.434	0.0134759
737.512	0.0136683
737.590	0.0140510
737.668	0.0146327
737.746	0.0149012
737.825	0.0152290
737.903	0.0155768
737.981	0.0156972
738.059	0.0158037
738.137	0.0159206
738.215	0.0159403
738.293	0.0157118
738.371	0.0156285
738.450	0.0153032
738.528	0.0149792
738.606	0.0147826
738.684	0.0144461
738.762	0.0140531
738.840	0.0139635
738.918	0.0136423
738.996	0.0132842
739.075	0.0132354
739.153	0.0132594
739.231	0.0133512
739.309	0.0134467
739.387	0.0134221
739.465	0.0136498
739.543	0.0138524
739.621	0.0140643
739.700	0.0140516
739.778	0.0141933
739.856	0.0143815
739.934	0.0145068
740.012	0.0146448
740.090	0.0146314
740.168	0.0147821
740.246	0.0148721
740.325	0.0148486
740.403	0.0148746
740.481	0.0148266
740.559	0.0147965
740.637	0.0146835
740.715	0.0147947
740.793	0.0147415
740.871	0.0146278
740.950	0.0146844
741.028	0.0147618
741.106	0.0147406
741.184	0.0145763
741.262	0.0145390
741.340	0.0147217
741.418	0.0144319
741.496	0.0142526
741.575	0.0142606
741.653	0.0141502
741.731	0.0140813
741.809	0.0138510
741.887	0.0136057
741.965	0.0136626
742.043	0.0135391
742.121	0.0136207
742.200	0.0136156
742.278	0.0137183
742.356	0.0136741
742.434	0.0137822
742.512	0.0141669
742.590	0.0141797
742.668	0.0144556
742.746	0.0145438
742.825	0.0149046
742.903	0.0150253
742.981	0.0153818
743.059	0.0152087
743.137	0.0154282
743.215	0.0155037
743.293	0.0154124
743.371	0.0152291
743.450	0.0150485
743.528	0.0149449
743.606	0.0146501
743.684	0.0145263
743.762	0.0142513
743.840	0.0140142
743.918	0.0139049
743.996	0.0137132
744.075	0.0134605
744.153	0.0135004
744.231	0.0134956
744.309	0.0132836
744.387	0.0134292
744.465	0.0132800
744.543	0.0134905
744.621	0.0137431
744.700	0.0137921
744.778	0.0139869
744.856	0.0142303
744.934	0.0143526
745.012	0.0145782
745.090	0.0147714
745.168	0.0149097
745.246	0.0150784
745.325	0.0151843
745.403	0.0152941
745.481	0.0154350
745.559	0.0152505
745.637	0.0154226
745.715	0.0153786
745.793	0.0152056
745.871	0.0148653
745.950	0.0147055
746.028	0.0143530
746.106	0.0141676
746.184	0.0138720
746.262	0.0136464
746.340	0.0133817
746.418	0.0132708
746.496	0.0131345
746.575	0.0129792
746.653	0.0130146
746.731	0.0129757
746.809	0.0131625
746.887	0.0133720
746.965	0.0135732
747.043	0.0137263
747.121	0.0142263
747.200	0.0146521
747.278	0.0147942
747.356	0.0151167
747.434	0.0153539
747.512	0.0153862
747.590	0.0154224
747.668	0.0154807
747.746	0.0156812
747.825	0.0153909
747.903	0.0153242
747.981	0.0150331
748.059	0.0150183
748.137	0.0147548
748.215	0.0143494
748.293	0.0143407
748.371	0.0141379
748.450	0.0138123
748.528	0.0135412
748.606	0.0136800
748.684	0.0135052
748.762	0.0135051
748.840	0.0134184
748.918	0.0135941
748.996	0.0135517
749.075	0.0135575
749.153	0.0137894
749.231	0.0139886
749.309	0.0139880
749.387	0.0142735
749.465	0.0143559
749.543	0.0146249
749.621	0.0145078
749.700	0.0148120
749.778	0.0147113
749.856	0.0149500
749.934	0.0149889
750.012	0.0151527
750.090	0.0151064
750.168	0.0151778
750.246	0.0151388
750.325	0.0150940
750.403	0.0150803
750.481	0.0149480
750.559	0.0146891
750.637	0.0146516
750.715	0.0143736
750.793	0.0142760
750.871	0.0141776
750.950	0.0140840
751.028	0.0137851
751.106	0.0135558
751.184	0.0136376
751.262	0.0135255
751.340	0.0134418
751.418	0.0135535
751.496	0.0133650
751.575	0.0135797
751.653	0.0136179
751.731	0.0137099
751.809	0.0138281
751.887	0.0140889
751.965	0.0143533
752.043	0.0144459
752.121	0.0144720
752.200	0.0145100
752.278	0.0147635
752.356	0.0148506
752.434	0.0148205
752.512	0.0149409
752.590	0.0149706
752.668	0.0148728
752.746	0.0149201
752.825	0.0149030
752.903	0.0147728
752.981	0.0145729
753.059	0.0144937
753.137	0.0144061
753.215	0.0144222
753.293	0.0143869
753.371	0.0143758
753.450	0.0141798
753.528	0.0141042
753.606	0.0141001
753.684	0.0139595
753.762	0.0138752
753.840	0.0139975
753.918	0.0138611
753.996	0.0137973
754.075	0.0137962
754.153	0.0138535
754.231	0.0138715
754.309	0.0138093
754.387	0.0137995
754.465	0.0139683
754.543	0.0138762
754.621	0.0141327
754.700	0.0144006
754.778	0.0143857
754.856	0.0146739
754.934	0.0147521
755.012	0.0147942
755.090	0.0149731
755.168	0.0149862
755.246	0.0151556
755.325	0.0150881
755.403	0.0150920
755.481	0.0151229
755.559	0.0150179
755.637	0.0147007
755.715	0.0148057
755.793	0.0145987
755.871	0.0143205
755.950	0.0140575
756.028	0.0140134
756.106	0.0139758
756.184	0.0138507
756.262	0.0137341
756.340	0.0135731
756.418	0.0136520
756.496	0.0135161
756.575	0.0135153
756.653	0.0135417
756.731	0.0137025
756.809	0.0137491
756.887	0.0138573
756.965	0.0140897
757.043	0.0143437
757.121	0.0144917
757.200	0.0145360
757.278	0.0147375
757.356	0.0148885
757.434	0.0148399
757.512	0.0149928
757.590	0.0150082
757.668	0.0150214
757.746	0.0150842
757.825	0.0150698
757.903	0.0150270
757.981	0.0148675
758.059	0.0147902
758.137	0.0146545
758.215	0.0143896
758.293	0.0143084
758.371	0.0140714
758.450	0.0140136
758.528	0.0138736
758.606	0.0137565
758.684	0.0138340
758.762	0.0137457
758.840	0.0134953
758.918	0.0134998
758.996	0.0136414
759.075	0.0137263
759.153	0.0139993
759.231	0.0140562
759.309	0.0142173
759.387	0.0143237
759.465	0.0143284
759.543	0.0146237
759.621	0.0148355
759.700	0.0148463
759.778	0.0148150
759.856	0.0148605
759.934	0.0149731
760.012	0.0149254
760.090	0.0150283
760.168	0.0149788
760.246	0.0147864
760.325	0.0147569
760.403	0.0145873
760.481	0.0145272
760.559	0.0145148
760.637	0.0143548
760.715	0.0141958
760.793	0.0140703
760.871	0.0141637
760.950	0.0140125
761.028	0.0140710
761.106	0.0140783
761.184	0.0140480
761.262	0.0141014
761.340	0.0140651
761.418	0.0140308
761.496	0.0141733
761.575	0.0141716
761.653	0.0142277
761.731	0.0141385
761.809	0.0142585
761.887	0.0144180
761.965	0.0142858
762.043	0.0142906
762.121	0.0143910
762.200	0.0144082
762.278	0.0144511
762.356	0.0145299
762.434	0.0147492
762.512	0.0147299
762.590	0.0146317
762.668	0.0148962
762.746	0.0147629
762.825	0.0147923
762.903	0.0148407
762.981	0.0147507
763.059	0.0147378
763.137	0.0145583
763.215	0.0144212
763.293	0.0144386
763.371	0.0142419
763.450	0.0142507
763.528	0.0141531
763.606	0.0141398
763.684	0.0138604
763.762	0.0139608
763.840	0.0139928
763.918	0.0138219
763.996	0.0138598
764.075	0.0138410
764.153	0.0138672
764.231	0.0140079
764.309	0.0141587
764.387	0.0140760
764.465	0.0144588
764.543	0.0143848
764.621	0.0143186
764.700	0.0144964
764.778	0.0146150
764.856	0.0148371
764.934	0.0147337
765.012	0.0147708
765.090	0.0145836
765.168	0.0144579
765.246	0.0146796
765.325	0.0147240
765.403	0.0145485
765.481	0.0144959
765.559	0.0145013
765.637	0.0143964
765.715	0.0143272
765.793	0.0142349
765.871	0.0141467
765.950	0.0141517
766.028	0.0140230
766.106	0.0140485
766.184	0.0140236
766.262	0.0140685
766.340	0.0139848
766.418	0.0138902
766.496	0.0138637
766.575	0.0140049
766.653	0.0141655
766.731	0.0141077
766.809	0.0142437
766.887	0.0141747
766.965	0.0142932
767.043	0.0144159
767.121	0.0143899
767.200	0.0145388
767.278	0.0145757
767.356	0.0145816
767.434	0.0145768
767.512	0.0145748
767.590	0.0146198
767.668	0.0145871
767.746	0.0145301
767.825	0.0146303
767.903	0.0146968
767.981	0.0146159
768.059	0.0145076
768.137	0.0144688
768.215	0.0143893
768.293	0.0144997
768.371	0.0144860
768.450	0.0142635
768.528	0.0142245
768.606	0.0141593
768.684	0.0139870
768.762	0.0140753
768.840	0.0139703
768.918	0.0139252
768.996	0.0140128
769.075	0.0139199
769.153	0.0139383
769.231	0.0141586
769.309	0.0140497
769.387	0.0140485
769.465	0.0143198
769.543	0.0144386
769.621	0.0143710
769.700	0.0144594
769.778	0.0145528
769.856	0.0145461
769.934	0.0145242
770.012	0.0145620
770.090	0.0146323
770.168	0.0146435
770.246	0.0146275
770.325	0.0146014
770.403	0.0144568
770.481	0.0146441
770.559	0.0145845
770.637	0.0144708
770.715	0.0143196
770.793	0.0142315
770.871	0.0142169
770.950	0.0142619
771.028	0.0141710
771.106	0.0140266
771.184	0.0140343
771.262	0.0140546
771.340	0.0139628
771.418	0.0140783
771.496	0.0141139
771.575	0.0141283
771.653	0.0141712
771.731	0.0142397
771.809	0.0142296
771.887	0.0143372
771.965	0.0142142
772.043	0.0144005
772.121	0.0143668
772.200	0.0144077
772.278	0.0144719
772.356	0.0145142
772.434	0.0145200
772.512	0.0143790
772.590	0.0145275
772.668	0.0145903
772.746	0.0144276
772.825	0.0145111
772.903	0.0144029
772.981	0.0143810
773.059	0.0143982
773.137	0.0143021
773.215	0.0142935
773.293	0.0142710
773.371	0.0142486
773.450	0.0142825
773.528	0.0143040
773.606	0.0143245
773.684	0.0142181
773.762	0.0142524
773.840	0.0140936
773.918	0.0141349
773.996	0.0141875
774.075	0.0140865
774.153	0.0140813
774.231	0.0140077
774.309	0.0141071
774.387	0.0140144
774.465	0.0142523
774.543	0.0142362
774.621	0.0141401
774.700	0.0142693
774.778	0.0142589
774.856	0.0142017
774.934	0.0143646
775.012	0.0144199
775.090	0.0144941
775.168	0.0144297
775.246	0.0145532
775.325	0.0145624
775.403	0.0146021
775.481	0.0146552
775.559	0.0145187
775.637	0.0144918
775.715	0.0146015
775.793	0.0144910
775.871	0.0144271
775.950	0.0145482
776.028	0.0143867
776.106	0.0142795
776.184	0.0141528
776.262	0.0140839
776.340	0.0139828
776.418	0.0140595
776.496	0.0139930
776.575	0.0141416
776.653	0.0140383
776.731	0.0140730
776.809	0.0140540
776.887	0.0141324
776.965	0.0142284
777.043	0.0143533
777.121	0.0142724
777.200	0.0143695
777.278	0.0143645
777.356	0.0144088
777.434	0.0144063
777.512	0.0145079
777.590	0.0144884
777.668	0.0144897
777.746	0.0146295
777.825	0.0145370
777.903	0.0144940
777.981	0.0145152
778.059	0.0143792
778.137	0.0143889
778.215	0.0143258
778.293	0.0142639
778.371	0.0143477
778.450	0.0143063
778.528	0.0142025
778.606	0.0141373
778.684	0.0141175
778.762	0.0140871
778.840	0.0140907
778.918	0.0140888
778.996	0.0140915
779.075	0.0142329
779.153	0.0141305
779.231	0.0141118
779.309	0.0141959
779.387	0.0140664
779.465	0.0141378
779.543	0.0142041
779.621	0.0141410
779.700	0.0141431
779.778	0.0141651
779.856	0.0142990
779.934	0.0143607
780.012	0.0143976
780.090	0.0143835
780.168	0.0144902
780.246	0.0145411
780.325	0.0146651
780.403	0.0145527
780.481	0.0145744
780.559	0.0144241
780.637	0.0144918
780.715	0.0145894
780.793	0.0144780
780.871	0.0144178
780.950	0.0143503
781.028	0.0144283
781.106	0.0143923
781.184	0.0142651
781.262	0.0143484
781.340	0.0142304
781.418	0.0143047
781.496	0.0141856
781.575	0.0142014
781.653	0.0141198
781.731	0.0141051
781.809	0.0142030
781.887	0.0141467
781.965	0.0142890
782.043	0.0143222
782.121	0.0142171
782.200	0.0142753
782.278	0.0143193
782.356	0.0144293
782.434	0.0144148
782.512	0.0142744
782.590	0.0144321
782.668	0.0146352
782.746	0.0144067
782.825	0.0144703
782.903	0.0145026
782.981	0.0144847
783.059	0.0145614
783.137	0.0145988
783.215	0.0144541
783.293	0.0144321
783.371	0.0143853
783.450	0.0142957
783.528	0.0143628
783.606	0.0144153
783.684	0.0142071
783.762	0.0142193
783.840	0.0142357
783.918	0.0142500
783.996	0.0142141
784.075	0.0142531
784.153	0.0143217
784.231	0.0142896
784.309	0.0141920
784.387	0.0141925
784.465	0.0142010
784.543	0.0143307
784.621	0.0142396
784.700	0.0142206
784.778	0.0143861
784.856	0.0143552
784.934	0.0142665
785.012	0.0144009
785.090	0.0143804
785.168	0.0142112
785.246	0.0144169
785.325	0.0143358
785.403	0.0144016
785.481	0.0144572
785.559	0.0144355
785.637	0.0143847
785.715	0.0143933
785.793	0.0144186
785.871	0.0145548
785.950	0.0143375
786.028	0.0143131
786.106	0.0142751
786.184	0.0142513
786.262	0.0142073
786.340	0.0142184
786.418	0.0143249
786.496	0.0142160
786.575	0.0142339
786.653	0.0142281
786.731	0.0142434
786.809	0.0142469
786.887	0.0142785
786.965	0.0142005
787.043	0.0142189
787.121	0.0142780
787.200	0.0142867
787.278	0.0142517
787.356	0.0142586
787.434	0.0142139
787.512	0.0142838
787.590	0.0142785
787.668	0.0142966
787.746	0.0142867
787.825	0.0143259
787.903	0.0144637
787.981	0.0142950
788.059	0.0144320
788.137	0.0143758
788.215	0.0143536
788.293	0.0144946
788.371	0.0143954
788.450	0.0143468
788.528	0.0144897
788.606	0.0142807
788.684	0.0142118
788.762	0.0143727
788.840	0.0143273
788.918	0.0142975
788.996	0.0143177
789.075	0.0142580
789.153	0.0142883
789.231	0.0142828
789.309	0.0142018
789.387	0.0142333
789.465	0.0144395
789.543	0.0143034
789.621	0.0144526
789.700	0.0143496
789.778	0.0143668
789.856	0.0144915
789.934	0.0143615
790.012	0.0144756
790.090	0.0144225
790.168	0.0143517
790.246	0.0144564
790.325	0.0143732
790.403	0.0143876
790.481	0.0143478
790.559	0.0142339
790.637	0.0142007
790.715	0.0143536
790.793	0.0143447
790.871	0.0143813
790.950	0.0143526
791.028	0.0143052
791.106	0.0144014
791.184	0.0142252
791.262	0.0143107
791.340	0.0143026
791.418	0.0144331
791.496	0.0144727
791.575	0.0143390
791.653	0.0142519
791.731	0.0143665
791.809	0.0142079
791.887	0.0142669
791.965	0.0142963
792.043	0.0142756
792.121	0.0141966
792.200	0.0140559
792.278	0.0142369
792.356	0.0142325
792.434	0.0143075
792.512	0.0142424
792.590	0.0143227
792.668	0.0143749
792.746	0.0143909
792.825	0.0142931
792.903	0.0142981
792.981	0.0144800
793.059	0.0143618
793.137	0.0144750
793.215	0.0144032
793.293	0.0143756
793.371	0.0143428
793.450	0.0144394
793.528	0.0144154
793.606	0.0145043
793.684	0.0145576
793.762	0.0143854
793.840	0.0143941
793.918	0.0144111
793.996	0.0142835
794.075	0.0144366
794.153	0.0143575
794.231	0.0142522
794.309	0.0144101
794.387	0.0143877
794.465	0.0142640
794.543	0.0142470
794.621	0.0144096
794.700	0.0141811
794.778	0.0142867
794.856	0.0144212
794.934	0.0142719
795.012	0.0141637
795.090	0.0142285
795.168	0.0142841
795.246	0.0141919
795.325	0.0143810
795.403	0.0143140
795.481	0.0143192
795.559	0.0142821
795.637	0.0143961
795.715	0.0143361
795.793	0.0143398
795.871	0.0143301
795.950	0.0142134
796.028	0.0143465
796.106	0.0143867
796.184	0.0144341
796.262	0.0142109
796.340	0.0143102
796.418	0.0143018
796.496	0.0142421
796.575	0.0142703
796.653	0.0143581
796.731	0.0141979
796.809	0.0141068
796.887	0.0142374
796.965	0.0142416
797.043	0.0142905
797.121	0.0143173
797.200	0.0142741
797.278	0.0142291
797.356	0.0143258
797.434	0.0145476
797.512	0.0144148
797.590	0.0143499
797.668	0.0143664
797.746	0.0144564
797.825	0.0144312
797.903	0.0143272
797.981	0.0142605
798.059	0.0143119
798.137	0.0141956
798.215	0.0143119
798.293	0.0143413
798.371	0.0144157
798.450	0.0143272
798.528	0.0143058
798.606	0.0142983
798.684	0.0142953
798.762	0.0142737
798.840	0.0143051
798.918	0.0143576
798.996	0.0143262
799.075	0.0143330
799.153	0.0143467
799.231	0.0143185
799.309	0.0144155
799.387	0.0143126
799.465	0.0143279
799.543	0.0143605
799.621	0.0142532
799.700	0.0143097
799.778	0.0142625
799.856	0.0144610
799.934	0.0143779
800.012	0.0142854
800.090	0.0144236
800.168	0.0144109
800.246	0.0142771
800.325	0.0143865
800.403	0.0144190
800.481	0.0144279
800.559	0.0143648
800.637	0.0144379
800.715	0.0144068
800.793	0.0142770
800.871	0.0144359
800.950	0.0144064
801.028	0.0142507
801.106	0.0143853
801.184	0.0142276
801.262	0.0143361
801.340	0.0143757
801.418	0.0141399
801.496	0.0143543
801.575	0.0143144
801.653	0.0141969
801.731	0.0141846
801.809	0.0143679
801.887	0.0143406
801.965	0.0142934
802.043	0.0143967
802.121	0.0142931
802.200	0.0142221
802.278	0.0143413
802.356	0.0143536
802.434	0.0142567
802.512	0.0142701
802.590	0.0143877
802.668	0.0142686
802.746	0.0143024
802.825	0.0144756
802.903	0.0144183
802.981	0.0143077
803.059	0.0142493
803.137	0.0143597
803.215	0.0143298
803.293	0.0144555
803.371	0.0143394
803.450	0.0143559
803.528	0.0142889
803.606	0.0143654
803.684	0.0143502
803.762	0.0142922
803.840	0.0144176
803.918	0.0141843
803.996	0.0142329
804.075	0.0142770
804.153	0.0142174
804.231	0.0142398
804.309	0.0141373
804.387	0.0141872
804.465	0.0143882
804.543	0.0142416
804.621	0.0142681
804.700	0.0142470
804.778	0.0143730
804.856	0.0141521
804.934	0.0142508
805.012	0.0143570
805.090	0.0144286
805.168	0.0145274
805.246	0.0143119
805.325	0.0143471
805.403	0.0144210
805.481	0.0142831
805.559	0.0142985
805.637	0.0143011
805.715	0.0144778
805.793	0.0143279
805.871	0.0142667
805.950	0.0143436
806.028	0.0143381
806.106	0.0143168
806.184	0.0143095
806.262	0.0143485
806.340	0.0143452
806.418	0.0143839
806.496	0.0141317
806.575	0.0142444
806.653	0.0143457
806.731	0.0143707
806.809	0.0143813
806.887	0.0143523
806.965	0.0142567
807.043	0.0143297
807.121	0.0143502
807.200	0.0143252
807.278	0.0143492
807.356	0.0142792
807.434	0.0143164
807.512	0.0144475
807.590	0.0143260
807.668	0.0143039
807.746	0.0144027
807.825	0.0143436
807.903	0.0144577
807.981	0.0142731
808.059	0.0143331
808.137	0.0143020
808.215	0.0142205
808.293	0.0142744
808.371	0.0142453
808.450	0.0142456
808.528	0.0140997
808.606	0.0141572
808.684	0.0141586
808.762	0.0141688
808.840	0.0142850
808.918	0.0142735
808.996	0.0142637
809.075	0.0141490
809.153	0.0142352
809.231	0.0143184
809.309	0.0143813
809.387	0.0144142
809.465	0.0144587
809.543	0.0145500
809.621	0.0146366
809.700	0.0146111
809.778	0.0144987
809.856	0.0144724
809.934	0.0146365
810.012	0.0144441
810.090	0.0145060
810.168	0.0144956
810.246	0.0143932
810.325	0.0143093
810.403	0.0143083
810.481	0.0143359
810.559	0.0143106
810.637	0.0141722
810.715	0.0141601
810.793	0.0142400
810.871	0.0142052
810.950	0.0142076
811.028	0.0142735
811.106	0.0143565
811.184	0.0143188
811.262	0.0144508
811.340	0.0143365
811.418	0.0145242
811.496	0.0147214
811.575	0.0144887
811.653	0.0144639
811.731	0.0145231
811.809	0.0144599
811.887	0.0145456
811.965	0.0147264
812.043	0.0144449
812.121	0.0143500
812.200	0.0144650
812.278	0.0143684
812.356	0.0143548
812.434	0.0143987
812.512	0.0143406
812.590	0.0142561
812.668	0.0143357
812.746	0.0140935
812.825	0.0141201
812.903	0.0142201
812.981	0.0142261
813.059	0.0143258
813.137	0.0144016
813.215	0.0142585
813.293	0.0143493
813.371	0.0143072
813.450	0.0142810
813.528	0.0141359
813.606	0.0142477
813.684	0.0142509
813.762	0.0142358
813.840	0.0143502
813.918	0.0141967
813.996	0.0141671
814.075	0.0142086
814.153	0.0141402
814.231	0.0143067
814.309	0.0142083
814.387	0.0143094
814.465	0.0145061
814.543	0.0142467
814.621	0.0142815
814.700	0.0143719
814.778	0.0144292
814.856	0.0144283
814.934	0.0145004
815.012	0.0145117
815.090	0.0145224
815.168	0.0144933
815.246	0.0144176
815.325	0.0145116
815.403	0.0145230
815.481	0.0145451
815.559	0.0144077
815.637	0.0145546
815.715	0.0143648
815.793	0.0144485
815.871	0.0144096
815.950	0.0143597
816.028	0.0142099
816.106	0.0145090
816.184	0.0143221
816.262	0.0144028
816.340	0.0143692
816.418	0.0143779
816.496	0.0142612
816.575	0.0142658
816.653	0.0143192
816.731	0.0143727
816.809	0.0144477
816.887	0.0143457
816.965	0.0143420
817.043	0.0145325
817.121	0.0144485
817.200	0.0145614
817.278	0.0145535
817.356	0.0145626
817.434	0.0144092
817.512	0.0143541
817.590	0.0144471
817.668	0.0143848
817.746	0.0143690
817.825	0.0144649
817.903	0.0143657
817.981	0.0143286
818.059	0.0143630
818.137	0.0142677
818.215	0.0143410
818.293	0.0143619
818.371	0.0143783
818.450	0.0142542
818.528	0.0142708
818.606	0.0141452
818.684	0.0142767
818.762	0.0142233
818.840	0.0143440
818.918	0.0142588
818.996	0.0143671
819.075	0.0141869
819.153	0.0142859
819.231	0.0143611
819.309	0.0143077
819.387	0.0143233
819.465	0.0143103
819.543	0.0144505
819.621	0.0144595
819.700	0.0144855
819.778	0.0145417
819.856	0.0145953
819.934	0.0143768
820.012	0.0143599
820.090	0.0143848
820.168	0.0143501
820.246	0.0142963
820.325	0.0142747
820.403	0.0143353
820.481	0.0142780
820.559	0.0144038
820.637	0.0142448
820.715	0.0143141
820.793	0.0143006
820.871	0.0143285
820.950	0.0142792
821.028	0.0142462
821.106	0.0142943
821.184	0.0143605
821.262	0.0143061
821.340	0.0142801
821.418	0.0143584
821.496	0.0144505
821.575	0.0145342
821.653	0.0145203
821.731	0.0144387
821.809	0.0143916
821.887	0.0145097
821.965	0.0143501
822.043	0.0144439
822.121	0.0144842
822.200	0.0144128
822.278	0.0145151
822.356	0.0144324
822.434	0.0142523
822.512	0.0143333
822.590	0.0144479
822.668	0.0142409
822.746	0.0142481
822.825	0.0142152
822.903	0.0143006
822.981	0.0142675
823.059	0.0142366
823.137	0.0143552
823.215	0.0142307
823.293	0.0143591
823.371	0.0143452
823.450	0.0142612
823.528	0.0143264
823.606	0.0143262
823.684	0.0144427
823.762	0.0144995
823.840	0.0143672
823.918	0.0145108
823.996	0.0144365
824.075	0.0144002
824.153	0.0143669
824.231	0.0144300
824.309	0.0144196
824.387	0.0143903
824.465	0.0144628
824.543	0.0144723
824.621	0.0144685
824.700	0.0144648
824.778	0.0143932
824.856	0.0142989
824.934	0.0142778
825.012	0.0143633
825.090	0.0143431
825.168	0.0142121
825.246	0.0141977
825.325	0.0142097
825.403	0.0143452
825.481	0.0143678
825.559	0.0144195
825.637	0.0142803
825.715	0.0142958
825.793	0.0144863
825.871	0.0144260
825.950	0.0143610
826.028	0.0146555
826.106	0.0142773
826.184	0.0143390
826.262	0.0144917
826.340	0.0144378
826.418	0.0144545
826.496	0.0143409
826.575	0.0145098
826.653	0.0144113
826.731	0.0142802
826.809	0.0143684
826.887	0.0144229
826.965	0.0143078
827.043	0.0143105
827.121	0.0142884
827.200	0.0142643
827.278	0.0142503
827.356	0.0142709
827.434	0.0141836
827.512	0.0143112
827.590	0.0143830
827.668	0.0143050
827.746	0.0143288
827.825	0.0143649
827.903	0.0143802
827.981	0.0143748
828.059	0.0145995
828.137	0.0144247
828.215	0.0145210
828.293	0.0143340
828.371	0.0143755
828.450	0.0145023
828.528	0.0143605
828.606	0.0143968
828.684	0.0142957
828.762	0.0144730
828.840	0.0145033
828.918	0.0142599
828.996	0.0142488
829.075	0.0143600
829.153	0.0143030
829.231	0.0143036
829.309	0.0144539
829.387	0.0144917
829.465	0.0144202
829.543	0.0145226
829.621	0.0143226
829.700	0.0144440
829.778	0.0143565
829.856	0.0143652
829.934	0.0143302
830.012	0.0144272
830.090	0.0143468
830.168	0.0143867
830.246	0.0144040
830.325	0.0142886
830.403	0.0142999
830.481	0.0142678
830.559	0.0142670
830.637	0.0143030
830.715	0.0143058
830.793	0.0142846
830.871	0.0142573
830.950	0.0143176
831.028	0.0144558
831.106	0.0144025
831.184	0.0144520
831.262	0.0144723
831.340	0.0145447
831.418	0.0145040
831.496	0.0143328
831.575	0.0144796
831.653	0.0143954
831.731	0.0145785
831.809	0.0143353
831.887	0.0143089
831.965	0.0143436
832.043	0.0144209
832.121	0.0143904
832.200	0.0142743
832.278	0.0142523
832.356	0.0142578
832.434	0.0142262
832.512	0.0143669
832.590	0.0143531
832.668	0.0142937
832.746	0.0143284
832.825	0.0145178
832.903	0.0144318
832.981	0.0143674
833.059	0.0143407
833.137	0.0145854
833.215	0.0145353
833.293	0.0142218
833.371	0.0144206
833.450	0.0144975
833.528	0.0143511
833.606	0.0143993
833.684	0.0143761
833.762	0.0142863
833.840	0.0143661
833.918	0.0143996
833.996	0.0144881
834.075	0.0143791
834.153	0.0144481
834.231	0.0144739
834.309	0.0145572
834.387	0.0146405
834.465	0.0146184
834.543	0.0143883
834.621	0.0144418
834.700	0.0143475
834.778	0.0146094
834.856	0.0144043
834.934	0.0142120
835.012	0.0143809
835.090	0.0142235
835.168	0.0143397
835.246	0.0141679
835.325	0.0142108
835.403	0.0141543
835.481	0.0141496
835.559	0.0142284
835.637	0.0143300
835.715	0.0143172
835.793	0.0143243
835.871	0.0146397
835.950	0.0144160
836.028	0.0145377
836.106	0.0145529
836.184	0.0145937
836.262	0.0147298
836.340	0.0146976
836.418	0.0146281
836.496	0.0147050
836.575	0.0146317
836.653	0.0145144
836.731	0.0144359
836.809	0.0144892
836.887	0.0143178
836.965	0.0142450
837.043	0.0143300
837.121	0.0142973
837.200	0.0143333
837.278	0.0141792
837.356	0.0142266
837.434	0.0142432
837.512	0.0143102
837.590	0.0142368
837.668	0.0143253
837.746	0.0143935
837.825	0.0145110
837.903	0.0144128
837.981	0.0144929
838.059	0.0145036
838.137	0.0144903
838.215	0.0144834
838.293	0.0146017
838.371	0.0145168
838.450	0.0144968
838.528	0.0145152
838.606	0.0143859
838.684	0.0143543
838.762	0.0143650
838.840	0.0143498
838.918	0.0144239
838.996	0.0144138
839.075	0.0142970
839.153	0.0143597
839.231	0.0144164
839.309	0.0142405
839.387	0.0143240
839.465	0.0142554
839.543	0.0142978
839.621	0.0142311
839.700	0.0142595
839.778	0.0144178
839.856	0.0142440
839.934	0.0143152
840.012	0.0143984
840.090	0.0143682
840.168	0.0142990
840.246	0.0143295
840.325	0.0143845
840.403	0.0143874
840.481	0.0144485
840.559	0.0143788
840.637	0.0144657
840.715	0.0143465
840.793	0.0144704
840.871	0.0144234
840.950	0.0144368
841.028	0.0143933
841.106	0.0142483
841.184	0.0143715
841.262	0.0143884
841.340	0.0143583
841.418	0.0144005
841.496	0.0144409
841.575	0.0144554
841.653	0.0143805
841.731	0.0143017
841.809	0.0144614
841.887	0.0143760
841.965	0.0143980
842.043	0.0144292
842.121	0.0144734
842.200	0.0144053
842.278	0.0145628
842.356	0.0143835
842.434	0.0144685
842.512	0.0143745
842.590	0.0142121
842.668	0.0143005
842.746	0.0142351
842.825	0.0143279
842.903	0.0143772
842.981	0.0143996
843.059	0.0143388
843.137	0.0144146
843.215	0.0142856
843.293	0.0143060
843.371	0.0145029
843.450	0.0144071
843.528	0.0143707
843.606	0.0142941
843.684	0.0144408
843.762	0.0145432
843.840	0.0144430
843.918	0.0143703
843.996	0.0144653
844.075	0.0143961
844.153	0.0143845
844.231	0.0144914
844.309	0.0144244
844.387	0.0143132
844.465	0.0144283
844.543	0.0143321
844.621	0.0143768
844.700	0.0144601
844.778	0.0143461
844.856	0.0142515
844.934	0.0144566
845.012	0.0144502
845.090	0.0143375
845.168	0.0143004
845.246	0.0143277
845.325	0.0143276
845.403	0.0143998
845.481	0.0144189
845.559	0.0143663
845.637	0.0145263
845.715	0.0143769
845.793	0.0144427
845.871	0.0143649
845.950	0.0144871
846.028	0.0144257
846.106	0.0143502
846.184	0.0144761
846.262	0.0144637
846.340	0.0144949
846.418	0.0143781
846.496	0.0143736
846.575	0.0144873
846.653	0.0144371
846.731	0.0143740
846.809	0.0144493
846.887	0.0143628
846.965	0.0143961
847.043	0.0144058
847.121	0.0143446
847.200	0.0143668
847.278	0.0143581
847.356	0.0143696
847.434	0.0144119
847.512	0.0142130
847.590	0.0141962
847.668	0.0142148
847.746	0.0143334
847.825	0.0143610
847.903	0.0143055
847.981	0.0143085
848.059	0.0144707
848.137	0.0143121
848.215	0.0142934
848.293	0.0142501
848.371	0.0143789
848.450	0.0142850
848.528	0.0145036
848.606	0.0142490
848.684	0.0142548
848.762	0.0143013
848.840	0.0142349
848.918	0.0142815
848.996	0.0143272
849.075	0.0143544
849.153	0.0142779
849.231	0.0141670
849.309	0.0142641
849.387	0.0142693
849.465	0.0142552
849.543	0.0142717
849.621	0.0143604
849.700	0.0142780
849.778	0.0144393
849.856	0.0143108
849.934	0.0143726
850.012	0.0144785
850.090	0.0142999
850.168	0.0143596
850.246	0.0143697
850.325	0.0143282
850.403	0.0143275
850.481	0.0143324
850.559	0.0143274
850.637	0.0142519
850.715	0.0144290
850.793	0.0144632
850.871	0.0143455
850.950	0.0144199
851.028	0.0145473
851.106	0.0143851
851.184	0.0144389
851.262	0.0143150
851.340	0.0143533
851.418	0.0144543
851.496	0.0145066
851.575	0.0143497
851.653	0.0145561
851.731	0.0143790
851.809	0.0143118
851.887	0.0144023
851.965	0.0144516
852.043	0.0143463
852.121	0.0143678
852.200	0.0143101
852.278	0.0143740
852.356	0.0143873
852.434	0.0142184
852.512	0.0143190
852.590	0.0142555
852.668	0.0143167
852.746	0.0143894
852.825	0.0143533
852.903	0.0144289
852.981	0.0144161
853.059	0.0144229
853.137	0.0143726
853.215	0.0144792
853.293	0.0143668
853.371	0.0146023
853.450	0.0143557
853.528	0.0143649
853.606	0.0144039
853.684	0.0141740
853.762	0.0144432
853.840	0.0143648
853.918	0.0142638
853.996	0.0143744
854.075	0.0143423
854.153	0.0142599
854.231	0.0142767
854.309	0.0142236
854.387	0.0142360
854.465	0.0143143
854.543	0.0143498
854.621	0.0142931
854.700	0.0143674
854.778	0.0144674
854.856	0.0143368
854.934	0.0144292
855.012	0.0143652
855.090	0.0143743
855.168	0.0142908
855.246	0.0143753
855.325	0.0143117
855.403	0.0143226
855.481	0.0145190
855.559	0.0143681
855.637	0.0144679
855.715	0.0144359
855.793	0.0143769
855.871	0.0143354
855.950	0.0142873
856.028	0.0142222
856.106	0.0144561
856.184	0.0142446
856.262	0.0143555
856.340	0.0144243
856.418	0.0141960
856.496	0.0143037
856.575	0.0142891
856.653	0.0142982
856.731	0.0142516
856.809	0.0143314
856.887	0.0142672
856.965	0.0142136
857.043	0.0141931
857.121	0.0144246
857.200	0.0142484
857.278	0.0143407
857.356	0.0144118
857.434	0.0143866
857.512	0.0143282
857.590	0.0143459
857.668	0.0144233
857.746	0.0144398
857.825	0.0142695
857.903	0.0143452
857.981	0.0143643
858.059	0.0144781
858.137	0.0144012
858.215	0.0143802
858.293	0.0143600
858.371	0.0143444
858.450	0.0144170
858.528	0.0143095
858.606	0.0141693
858.684	0.0143091
858.762	0.0143227
858.840	0.0142657
858.918	0.0142017
858.996	0.0142828
859.075	0.0143218
859.153	0.0142607
859.231	0.0142510
859.309	0.0144194
859.387	0.0144875
859.465	0.0143707
859.543	0.0144043
859.621	0.0143948
859.700	0.0144366
859.778	0.0144903
859.856	0.0143398
859.934	0.0143842
860.012	0.0143127
860.090	0.0142073
860.168	0.0143993
860.246	0.0143960
860.325	0.0144273
860.403	0.0143498
860.481	0.0142941
860.559	0.0143676
860.637	0.0142813
860.715	0.0142712
860.793	0.0144347
860.871	0.0144631
860.950	0.0143441
861.028	0.0142820
861.106	0.0142344
861.184	0.0143465
861.262	0.0144546
861.340	0.0144521
861.418	0.0143265
861.496	0.0142282
861.575	0.0143166
861.653	0.0143219
861.731	0.0144028
861.809	0.0142984
861.887	0.0143894
861.965	0.0143636
862.043	0.0142320
862.121	0.0142007
862.200	0.0143475
862.278	0.0143201
862.356	0.0141523
862.434	0.0142984
862.512	0.0144474
862.590	0.0143717
862.668	0.0144281
862.746	0.0145187
862.825	0.0144396
862.903	0.0144085
862.981	0.0143004
863.059	0.0144860
863.137	0.0142725
863.215	0.0142835
863.293	0.0144798
863.371	0.0144059
863.450	0.0142348
863.528	0.0142739
863.606	0.0145398
863.684	0.0142117
863.762	0.0143178
863.840	0.0143449
863.918	0.0144211
863.996	0.0144394
864.075	0.0142930
864.153	0.0143305
864.231	0.0143814
864.309	0.0144656
864.387	0.0143021
864.465	0.0143364
864.543	0.0144776
864.621	0.0143127
864.700	0.0143462
864.778	0.0143320
864.856	0.0142499
864.934	0.0143231
865.012	0.0142933
865.090	0.0143495
865.168	0.0142596
865.246	0.0143321
865.325	0.0143256
865.403	0.0142595
865.481	0.0142520
865.559	0.0143056
865.637	0.0143617
865.715	0.0143271
865.793	0.0142337
865.871	0.0143291
865.950	0.0142986
866.028	0.0143913
866.106	0.0143687
866.184	0.0144696
866.262	0.0142770
866.340	0.0143925
866.418	0.0143333
866.496	0.0142495
866.575	0.0142802
866.653	0.0144456
866.731	0.0143095
866.809	0.0142378
866.887	0.0143812
866.965	0.0143577
867.043	0.0143562
867.121	0.0142079
867.200	0.0143893
867.278	0.0144405
867.356	0.0144352
867.434	0.0144611
867.512	0.0143131
867.590	0.0144923
867.668	0.0144329
867.746	0.0144117
867.825	0.0145279
867.903	0.0144062
867.981	0.0143829
868.059	0.0143595
868.137	0.0144716
868.215	0.0143725
868.293	0.0143925
868.371	0.0143413
868.450	0.0143781
868.528	0.0143489
868.606	0.0143010
868.684	0.0143642
868.762	0.0143600
868.840	0.0144563
868.918	0.0142721
868.996	0.0142521
869.075	0.0142234
869.153	0.0142953
869.231	0.0142942
869.309	0.0143501
869.387	0.0144744
869.465	0.0143719
869.543	0.0142709
869.621	0.0143805
869.700	0.0144933
869.778	0.0143664
869.856	0.0143077
869.934	0.0145626
870.012	0.0145341
870.090	0.0144769
870.168	0.0143077
870.246	0.0144251
870.325	0.0143726
870.403	0.0142954
870.481	0.0143832
870.559	0.0144160
870.637	0.0143728
870.715	0.0142566
870.793	0.0143297
870.871	0.0144319
870.950	0.0144277
871.028	0.0143917
871.106	0.0143471
871.184	0.0143631
871.262	0.0142570
871.340	0.0143349
871.418	0.0144869
871.496	0.0143388
871.575	0.0143767
871.653	0.0144482
871.731	0.0143370
871.809	0.0144187
871.887	0.0143984
871.965	0.0144289
872.043	0.0143936
872.121	0.0143337
872.200	0.0144096
872.278	0.0144390
872.356	0.0145123
872.434	0.0145914
872.512	0.0142465
872.590	0.0143174
872.668	0.0143009
872.746	0.0142883
872.825	0.0143183
872.903	0.0143382
872.981	0.0144645
873.059	0.0143351
873.137	0.0144463
873.215	0.0142930
873.293	0.0141832
873.371	0.0142291
873.450	0.0143013
873.528	0.0143040
873.606	0.0141932
873.684	0.0141975
873.762	0.0143488
873.840	0.0142257
873.918	0.0143795
873.996	0.0141817
874.075	0.0141950
874.153	0.0143696
874.231	0.0144114
874.309	0.0142838
874.387	0.0143751
874.465	0.0143189
874.543	0.0142713
874.621	0.0143169
874.700	0.0144063
874.778	0.0143580
874.856	0.0143142
874.934	0.0143643
875.012	0.0141989
875.090	0.0143546
875.168	0.0142158
875.246	0.0142475
875.325	0.0142931
875.403	0.0142546
875.481	0.0142986
875.559	0.0142914
875.637	0.0142249
875.715	0.0141322
875.793	0.0142548
875.871	0.0142716
875.950	0.0144814
876.028	0.0143835
876.106	0.0143687
876.184	0.0143954
876.262	0.0144005
876.340	0.0143385
876.418	0.0144068
876.496	0.0144545
876.575	0.0143105
876.653	0.0144437
876.731	0.0143802
876.809	0.0143095
876.887	0.0143452
876.965	0.0143156
877.043	0.0143134
877.121	0.0142059
877.200	0.0142966
877.278	0.0143787
877.356	0.0144421
877.434	0.0143326
877.512	0.0142673
877.590	0.0143806
877.668	0.0142621
877.746	0.0142044
877.825	0.0142619
877.903	0.0144312
877.981	0.0143326
878.059	0.0142877
878.137	0.0144086
878.215	0.0144265
878.293	0.0143735
878.371	0.0144782
878.450	0.0144283
878.528	0.0143421
878.606	0.0144270
878.684	0.0144578
878.762	0.0144970
878.840	0.0143439
878.918	0.0143237
878.996	0.0143483
879.075	0.0143838
879.153	0.0142269
879.231	0.0143880
879.309	0.0143513
879.387	0.0143190
879.465	0.0143542
879.543	0.0141518
879.621	0.0141714
879.700	0.0142879
879.778	0.0142477
879.856	0.0142237
879.934	0.0143045
880.012	0.0143146
880.090	0.0142696
880.168	0.0143237
880.246	0.0142110
880.325	0.0144018
880.403	0.0144273
880.481	0.0143574
880.559	0.0143602
880.637	0.0144631
880.715	0.0144643
880.793	0.0143782
880.871	0.0144650
880.950	0.0142673
881.028	0.0143351
881.106	0.0144159
881.184	0.0144816
881.262	0.0143196
881.340	0.0142364
881.418	0.0143044
881.496	0.0142656
881.575	0.0143298
881.653	0.0142358
881.731	0.0143130
881.809	0.0144309
881.887	0.0144270
881.965	0.0144752
882.043	0.0142871
882.121	0.0142830
882.200	0.0144839
882.278	0.0142973
882.356	0.0142766
882.434	0.0143903
882.512	0.0142028
882.590	0.0142561
882.668	0.0143491
882.746	0.0143538
882.825	0.0144846
882.903	0.0143410
882.981	0.0144269
883.059	0.0143385
883.137	0.0143814
883.215	0.0143077
883.293	0.0144409
883.371	0.0142918
883.450	0.0144393
883.528	0.0144239
883.606	0.0142715
883.684	0.0143240
883.762	0.0143579
883.840	0.0143859
883.918	0.0142779
883.996	0.0143707
884.075	0.0143575
884.153	0.0143440
884.231	0.0143433
884.309	0.0142479
884.387	0.0143447
884.465	0.0145589
884.543	0.0144192
884.621	0.0142474
884.700	0.0144758
884.778	0.0143121
884.856	0.0142574
884.934	0.0143575
885.012	0.0143272
885.090	0.0142857
885.168	0.0142530
885.246	0.0143136
885.325	0.0143398
885.403	0.0142071
885.481	0.0143721
885.559	0.0143162
885.637	0.0143478
885.715	0.0143337
885.793	0.0144145
885.871	0.0145188
885.950	0.0144416
886.028	0.0143230
886.106	0.0143282
886.184	0.0145254
886.262	0.0144833
886.340	0.0144106
886.418	0.0142702
886.496	0.0143445
886.575	0.0143955
886.653	0.0143653
886.731	0.0141540
886.809	0.0141730
886.887	0.0142655
886.965	0.0142677
887.043	0.0142113
887.121	0.0142429
887.200	0.0142829
887.278	0.0143874
887.356	0.0143423
887.434	0.0143178
887.512	0.0142300
887.590	0.0143827
887.668	0.0143744
887.746	0.0144085
887.825	0.0142877
887.903	0.0144480
887.981	0.0143801
888.059	0.0143017
888.137	0.0143372
888.215	0.0143339
888.293	0.0144196
888.371	0.0143340
888.450	0.0144442
888.528	0.0144137
888.606	0.0143928
888.684	0.0143690
888.762	0.0143276
888.840	0.0143154
888.918	0.0143612
888.996	0.0143247
889.075	0.0143519
889.153	0.0144344
889.231	0.0142873
889.309	0.0142662
889.387	0.0143727
889.465	0.0141518
889.543	0.0143179
889.621	0.0142567
889.700	0.0143694
889.778	0.0145872
889.856	0.0144589
889.934	0.0143396
890.012	0.0142592
890.090	0.0142578
890.168	0.0142902
890.246	0.0144467
890.325	0.0142575
890.403	0.0143236
890.481	0.0143007
890.559	0.0143186
890.637	0.0144301
890.715	0.0143661
890.793	0.0143664
890.871	0.0143428
890.950	0.0143223
891.028	0.0145055
891.106	0.0145107
891.184	0.0144522
891.262	0.0143691
891.340	0.0144534
891.418	0.0144675
891.496	0.0143840
891.575	0.0143195
891.653	0.0143231
891.731	0.0143189
891.809	0.0142580
891.887	0.0142842
891.965	0.0140939
892.043	0.0142989
892.121	0.0143074
892.200	0.0142953
892.278	0.0142812
892.356	0.0143735
892.434	0.0143109
892.512	0.0142673
892.590	0.0143928
892.668	0.0143024
892.746	0.0143349
892.825	0.0143370
892.903	0.0143336
892.981	0.0143952
893.059	0.0143825
893.137	0.0143672
893.215	0.0143900
893.293	0.0144562
893.371	0.0144548
893.450	0.0143790
893.528	0.0142666
893.606	0.0144517
893.684	0.0144791
893.762	0.0144846
893.840	0.0143863
893.918	0.0143468
893.996	0.0142559
894.075	0.0143835
894.153	0.0143037
894.231	0.0143449
894.309	0.0143884
894.387	0.0144462
894.465	0.0143572
894.543	0.0142256
894.621	0.0142611
894.700	0.0143361
894.778	0.0143604
894.856	0.0142460
894.934	0.0141855
895.012	0.0143370
895.090	0.0144324
895.168	0.0143257
895.246	0.0142710
895.325	0.0144309
895.403	0.0143734
895.481	0.0142792
895.559	0.0144080
895.637	0.0144212
895.715	0.0144883
895.793	0.0142768
895.871	0.0141682
895.950	0.0143152
896.028	0.0144292
896.106	0.0143951
896.184	0.0142012
896.262	0.0143475
896.340	0.0144561
896.418	0.0142754
896.496	0.0143688
896.575	0.0144248
896.653	0.0144058
896.731	0.0143840
896.809	0.0142439
896.887	0.0143947
896.965	0.0143410
897.043	0.0143858
897.121	0.0143404
897.200	0.0143929
897.278	0.0142945
897.356	0.0142603
897.434	0.0144211
897.512	0.0143982
897.590	0.0142961
897.668	0.0144322
897.746	0.0143712
897.825	0.0143466
897.903	0.0144112
897.981	0.0143026
898.059	0.0144142
898.137	0.0143285
898.215	0.0142902
898.293	0.0143018
898.371	0.0143404
898.450	0.0142760
898.528	0.0143594
898.606	0.0143839
898.684	0.0146948
898.762	0.0144662
898.840	0.0142770
898.918	0.0143970
898.996	0.0144395
899.075	0.0142978
899.153	0.0142751
899.231	0.0144491
899.309	0.0143301
899.387	0.0142510
899.465	0.0143889
899.543	0.0141019
899.621	0.0142098
899.700	0.0142722
899.778	0.0142374
899.856	0.0142683
899.934	0.0142383
900.012	0.0142776
900.090	0.0143069
900.168	0.0143762
900.246	0.0145860
900.325	0.0145388
900.403	0.0144347
900.481	0.0145258
900.559	0.0145415
900.637	0.0145975
900.715	0.0144992
900.793	0.0145064
900.871	0.0145360
900.950	0.0144284
901.028	0.0142807
901.106	0.0140338
901.184	0.0142966
901.262	0.0142680
901.340	0.0139864
901.418	0.0141032
901.496	0.0142461
901.575	0.0142166
901.653	0.0141767
901.731	0.0143127
901.809	0.0144477
901.887	0.0144780
901.965	0.0144285
902.043	0.0146667
902.121	0.0146705
902.200	0.0145209
902.278	0.0145121
902.356	0.0145533
902.434	0.0144749
902.512	0.0144839
902.590	0.0144507
902.668	0.0144357
902.746	0.0143885
902.825	0.0142558
902.903	0.0143710
902.981	0.0143291
903.059	0.0143571
903.137	0.0142770
903.215	0.0141605
903.293	0.0142982
903.371	0.0143844
903.450	0.0145340
903.528	0.0145181
903.606	0.0143431
903.684	0.0143594
903.762	0.0146407
903.840	0.0145255
903.918	0.0145499
903.996	0.0145186
904.075	0.0143768
904.153	0.0144309
904.231	0.0146079
904.309	0.0144107
904.387	0.0142938
904.465	0.0144365
904.543	0.0144999
904.621	0.0144382
904.700	0.0144574
904.778	0.0145554
904.856	0.0146229
904.934	0.0146781
905.012	0.0145692
905.090	0.0145620
905.168	0.0145397
905.246	0.0144872
905.325	0.0145186
905.403	0.0146745
905.481	0.0144021
905.559	0.0142993
905.637	0.0143274
905.715	0.0143227
905.793	0.0140969
905.871	0.0141877
905.950	0.0140847
906.028	0.0141933
906.106	0.0141316
906.184	0.0142385
906.262	0.0141814
906.340	0.0143703
906.418	0.0145020
906.496	0.0143895
906.575	0.0146186
906.653	0.0146803
906.731	0.0147601
906.809	0.0147181
906.887	0.0147812
906.965	0.0145254
907.043	0.0145584
907.121	0.0145770
907.200	0.0143751
907.278	0.0143964
907.356	0.0142414
907.434	0.0141903
907.512	0.0140621
907.590	0.0139818
907.668	0.0139391
907.746	0.0139269
907.825	0.0139247
907.903	0.0139394
907.981	0.0139745
908.059	0.0140577
908.137	0.0141129
908.215	0.0142767
908.293	0.0143996
908.371	0.0145460
908.450	0.0147164
908.528	0.0146290
908.606	0.0145529
908.684	0.0147285
908.762	0.0148655
908.840	0.0148479
908.918	0.0145878
908.996	0.0145997
909.075	0.0145582
909.153	0.0146298
909.231	0.0143404
909.309	0.0142867
909.387	0.0140977
909.465	0.0139894
909.543	0.0141135
909.621	0.0140286
909.700	0.0140663
909.778	0.0140176
909.856	0.0140356
909.934	0.0141424
910.012	0.0141884
910.090	0.0142816
910.168	0.0141598
910.246	0.0143736
910.325	0.0145369
910.403	0.0146066
910.481	0.0144617
910.559	0.0148067
910.637	0.0147806
910.715	0.0146760
910.793	0.0147050
910.871	0.0146379
910.950	0.0145316
911.028	0.0145731
911.106	0.0143394
911.184	0.0143107
911.262	0.0142612
911.340	0.0140726
911.418	0.0139240
911.496	0.0140453
911.575	0.0140744
911.653	0.0140588
911.731	0.0139751
911.809	0.0139246
911.887	0.0140380
911.965	0.0140788
912.043	0.0142221
912.121	0.0142332
912.200	0.0143717
912.278	0.0145554
912.356	0.0144444
912.434	0.0144493
912.512	0.0145355
912.590	0.0146712
912.668	0.0146679
912.746	0.0146579
912.825	0.0147683
912.903	0.0146364
912.981	0.0145460
913.059	0.0144878
913.137	0.0144176
913.215	0.0144676
913.293	0.0144191
913.371	0.0143386
913.450	0.0141763
913.528	0.0141742
913.606	0.0140853
913.684	0.0140434
913.762	0.0141063
913.840	0.0140872
913.918	0.0140628
913.996	0.0141514
914.075	0.0140446
914.153	0.0139505
914.231	0.0144153
914.309	0.0141831
914.387	0.0142575
914.465	0.0143629
914.543	0.0145590
914.621	0.0145844
914.700	0.0145946
914.778	0.0146486
914.856	0.0146152
914.934	0.0146677
915.012	0.0146176
915.090	0.0146129
915.168	0.0146518
915.246	0.0145942
915.325	0.0145565
915.403	0.0144154
915.481	0.0143768
915.559	0.0143723
915.637	0.0143046
915.715	0.0141369
915.793	0.0141537
915.871	0.0141956
915.950	0.0141324
916.028	0.0140627
916.106	0.0140871
916.184	0.0142674
916.262	0.0142973
916.340	0.0141879
916.418	0.0141485
916.496	0.0143752
916.575	0.0143193
916.653	0.0145741
916.731	0.0146297
916.809	0.0144764
916.887	0.0144703
916.965	0.0144804
917.043	0.0146449
917.121	0.0144948
917.200	0.0144099
917.278	0.0143839
917.356	0.0143874
917.434	0.0143038
917.512	0.0141948
917.590	0.0142489
917.668	0.0141630
917.746	0.0142792
917.825	0.0142411
917.903	0.0142671
917.981	0.0143922
918.059	0.0144166
918.137	0.0144070
918.215	0.0144217
918.293	0.0144013
918.371	0.0145381
918.450	0.0145042
918.528	0.0144334
918.606	0.0145395
918.684	0.0145068
918.762	0.0143726
918.840	0.0143072
918.918	0.0143356
918.996	0.0144405
919.075	0.0142874
919.153	0.0143880
919.231	0.0142462
919.309	0.0143010
919.387	0.0142830
919.465	0.0141950
919.543	0.0141837
919.621	0.0142403
919.700	0.0141609
919.778	0.0141769
919.856	0.0142790
919.934	0.0143116
920.012	0.0141623
920.090	0.0143215
920.168	0.0142931
920.246	0.0143750
920.325	0.0142008
920.403	0.0143649
920.481	0.0144465
920.559	0.0144630
920.637	0.0145054
920.715	0.0144502
920.793	0.0145595
920.871	0.0147046
920.950	0.0146165
921.028	0.0143947
921.106	0.0143932
921.184	0.0144834
921.262	0.0145318
921.340	0.0143687
921.418	0.0143079
921.496	0.0143651
921.575	0.0141022
921.653	0.0141945
921.731	0.0140575
921.809	0.0140981
921.887	0.0139791
921.965	0.0141099
922.043	0.0141423
922.121	0.0142110
922.200	0.0141102
922.278	0.0141419
922.356	0.0142873
922.434	0.0142408
922.512	0.0143573
922.590	0.0145461
922.668	0.0143282
922.746	0.0143658
922.825	0.0144562
922.903	0.0144680
922.981	0.0145443
923.059	0.0144898
923.137	0.0145481
923.215	0.0145688
923.293	0.0144950
923.371	0.0144769
923.450	0.0144151
923.528	0.0145069
923.606	0.0144759
923.684	0.0145280
923.762	0.0146251
923.840	0.0143875
923.918	0.0143319
923.996	0.0143386
924.075	0.0142731
924.153	0.0142461
924.231	0.0142437
924.309	0.0140280
924.387	0.0141888
924.465	0.0141853
924.543	0.0140992
924.621	0.0142585
924.700	0.0142315
924.778	0.0144158
924.856	0.0143468
924.934	0.0142828
925.012	0.0144128
925.090	0.0145766
925.168	0.0144255
925.246	0.0146159
925.325	0.0145695
925.403	0.0146021
925.481	0.0146020
925.559	0.0145637
925.637	0.0146424
925.715	0.0146375
925.793	0.0144942
925.871	0.0146138
925.950	0.0144607
926.028	0.0143577
926.106	0.0143261
926.184	0.0142744
926.262	0.0144530
926.340	0.0143084
926.418	0.0142192
926.496	0.0142268
926.575	0.0142078
926.653	0.0142344
926.731	0.0141132
926.809	0.0143423
926.887	0.0142563
926.965	0.0143201
927.043	0.0144313
927.121	0.0144044
927.200	0.0144939
927.278	0.0144318
927.356	0.0143217
927.434	0.0144550
927.512	0.0145502
927.590	0.0144131
927.668	0.0144530
927.746	0.0146565
927.825	0.0145846
927.903	0.0144206
927.981	0.0143204
928.059	0.0144724
928.137	0.0143902
928.215	0.0143910
928.293	0.0144086
928.371	0.0143482
928.450	0.0143459
928.528	0.0143842
928.606	0.0142323
928.684	0.0142460
928.762	0.0143126
928.840	0.0142730
928.918	0.0143645
928.996	0.0142333
929.075	0.0144328
929.153	0.0144642
929.231	0.0142619
929.309	0.0144224
929.387	0.0143851
929.465	0.0144746
929.543	0.0143775
929.621	0.0145051
929.700	0.0145334
929.778	0.0145334
929.856	0.0145741
929.934	0.0144979
930.012	0.0143832
930.090	0.0143292
930.168	0.0144769
930.246	0.0143947
930.325	0.0144770
930.403	0.0143084
930.481	0.0143833
930.559	0.0142966
930.637	0.0142098
930.715	0.0142491
930.793	0.0143732
930.871	0.0144173
930.950	0.0143697
931.028	0.0142385
931.106	0.0144258
931.184	0.0144115
931.262	0.0142779
931.340	0.0143018
931.418	0.0144530
931.496	0.0144483
931.575	0.0144305
931.653	0.0144335
931.731	0.0144492
931.809	0.0144581
931.887	0.0143507
931.965	0.0144206
932.043	0.0144109
932.121	0.0144357
932.200	0.0144254
932.278	0.0144315
932.356	0.0144121
932.434	0.0144687
932.512	0.0144218
932.590	0.0144379
932.668	0.0144974
932.746	0.0144556
932.825	0.0145438
932.903	0.0145177
932.981	0.0145312
933.059	0.0144148
933.137	0.0146066
933.215	0.0144632
933.293	0.0144480
933.371	0.0143758
933.450	0.0145995
933.528	0.0144385
933.606	0.0142262
933.684	0.0141956
933.762	0.0143221
933.840	0.0142611
933.918	0.0142729
933.996	0.0142566
934.075	0.0142380
934.153	0.0143123
934.231	0.0143993
934.309	0.0141528
934.387	0.0143204
934.465	0.0143636
934.543	0.0143523
934.621	0.0143961
934.700	0.0143452
934.778	0.0144146
934.856	0.0144951
934.934	0.0144684
935.012	0.0145296
935.090	0.0144913
935.168	0.0145464
935.246	0.0145111
935.325	0.0144588
935.403	0.0143717
935.481	0.0143621
935.559	0.0143809
935.637	0.0142277
935.715	0.0142525
935.793	0.0142309
935.871	0.0143540
935.950	0.0141074
936.028	0.0141095
936.106	0.0141854
936.184	0.0142704
936.262	0.0141036
936.340	0.0141335
936.418	0.0141886
936.496	0.0142194
936.575	0.0142848
936.653	0.0141817
936.731	0.0143104
936.809	0.0142873
936.887	0.0145189
936.965	0.0145396
937.043	0.0145334
937.121	0.0146598
937.200	0.0145200
937.278	0.0144992
937.356	0.0145685
937.434	0.0146372
937.512	0.0145068
937.590	0.0145213
937.668	0.0144791
937.746	0.0142439
937.825	0.0142674
937.903	0.0142901
937.981	0.0143108
938.059	0.0142590
938.137	0.0141879
938.215	0.0142833
938.293	0.0142374
938.371	0.0142043
938.450	0.0141991
938.528	0.0142751
938.606	0.0143127
938.684	0.0143503
938.762	0.0145220
938.840	0.0143761
938.918	0.0144158
938.996	0.0144200
939.075	0.0144998
939.153	0.0144106
939.231	0.0143639
939.309	0.0143802
939.387	0.0144789
939.465	0.0144398
939.543	0.0144714
939.621	0.0144172
939.700	0.0144592
939.778	0.0144818
939.856	0.0144033
939.934	0.0143317
940.012	0.0143299
940.090	0.0142892
940.168	0.0142914
940.246	0.0142463
940.325	0.0143577
940.403	0.0144069
940.481	0.0141714
940.559	0.0142211
940.637	0.0142265
940.715	0.0142799
940.793	0.0142668
940.871	0.0142950
940.950	0.0143807
941.028	0.0143594
941.106	0.0143890
941.184	0.0142987
941.262	0.0142884
941.340	0.0143668
941.418	0.0143243
941.496	0.0142825
941.575	0.0142838
941.653	0.0143736
941.731	0.0143995
941.809	0.0144453
941.887	0.0144736
941.965	0.0145447
942.043	0.0144729
942.121	0.0144624
942.200	0.0143622
942.278	0.0143201
942.356	0.0144395
942.434	0.0143808
942.512	0.0144365
942.590	0.0143298
942.668	0.0143793
942.746	0.0142436
942.825	0.0142744
942.903	0.0143081
942.981	0.0142059
943.059	0.0142454
943.137	0.0142123
943.215	0.0142783
943.293	0.0142234
943.371	0.0142830
943.450	0.0142005
943.528	0.0142950
943.606	0.0143585
943.684	0.0143319
943.762	0.0142683
943.840	0.0143628
943.918	0.0144102
943.996	0.0143413
944.075	0.0143445
944.153	0.0144440
944.231	0.0144319
944.309	0.0142772
944.387	0.0143717
944.465	0.0144436
944.543	0.0145168
944.621	0.0144653
944.700	0.0143157
944.778	0.0144736
944.856	0.0144905
944.934	0.0144251
945.012	0.0144427
945.090	0.0143716
945.168	0.0143224
945.246	0.0143622
945.325	0.0143896
945.403	0.0143538
945.481	0.0143838
945.559	0.0143111
945.637	0.0142057
945.715	0.0143549
945.793	0.0141654
945.871	0.0143082
945.950	0.0142896
946.028	0.0142779
946.106	0.0141467
946.184	0.0142101
946.262	0.0143559
946.340	0.0143206
946.418	0.0142996
946.496	0.0144289
946.575	0.0144167
946.653	0.0144450
946.731	0.0143860
946.809	0.0144029
946.887	0.0142905
946.965	0.0145107
947.043	0.0144713
947.121	0.0145216
947.200	0.0145462
947.278	0.0146629
947.356	0.0145422
947.434	0.0144353
947.512	0.0145699
947.590	0.0143938
947.668	0.0144131
947.746	0.0143524
947.825	0.0143700
947.903	0.0143959
947.981	0.0143759
948.059	0.0143530
948.137	0.0143073
948.215	0.0142619
948.293	0.0142309
948.371	0.0142680
948.450	0.0142198
948.528	0.0143081
948.606	0.0142948
948.684	0.0144112
948.762	0.0142725
948.840	0.0143270
948.918	0.0144042
948.996	0.0143167
949.075	0.0144552
949.153	0.0143873
949.231	0.0143850
949.309	0.0146030
949.387	0.0144347
949.465	0.0143864
949.543	0.0143316
949.621	0.0143606
949.700	0.0143645
949.778	0.0144400
949.856	0.0144543
949.934	0.0144238
950.012	0.0143301
950.090	0.0143885
950.168	0.0142721
950.246	0.0141407
950.325	0.0143819
950.403	0.0142818
950.481	0.0143185
950.559	0.0142545
950.637	0.0142130
950.715	0.0142237
950.793	0.0141882
950.871	0.0142165
950.950	0.0142558
951.028	0.0142830
951.106	0.0142097
951.184	0.0143633
951.262	0.0143671
951.340	0.0141628
951.418	0.0143888
951.496	0.0142931
951.575	0.0144083
951.653	0.0144926
951.731	0.0144868
951.809	0.0145096
951.887	0.0144730
951.965	0.0144479
952.043	0.0144502
952.121	0.0143666
952.200	0.0144582
952.278	0.0144151
952.356	0.0144168
952.434	0.0143655
952.512	0.0143029
952.590	0.0143657
952.668	0.0142784
952.746	0.0142134
952.825	0.0142207
952.903	0.0142562
952.981	0.0141965
953.059	0.0142567
953.137	0.0142903
953.215	0.0141910
953.293	0.0139970
953.371	0.0141244
953.450	0.0142464
953.528	0.0142732
953.606	0.0140499
953.684	0.0143161
953.762	0.0143440
953.840	0.0143053
953.918	0.0143154
953.996	0.0144574
954.075	0.0144033
954.153	0.0143044
954.231	0.0143335
954.309	0.0144827
954.387	0.0145253
954.465	0.0144993
954.543	0.0143800
954.621	0.0144957
954.700	0.0143810
954.778	0.0143220
954.856	0.0143348
954.934	0.0142976
955.012	0.0143944
955.090	0.0142343
955.168	0.0142126
955.246	0.0143575
955.325	0.0141299
955.403	0.0142136
955.481	0.0142580
955.559	0.0142558
955.637	0.0141574
955.715	0.0141454
955.793	0.0141451
955.871	0.0142276
955.950	0.0142831
956.028	0.0143005
956.106	0.0142885
956.184	0.0144396
956.262	0.0143750
956.340	0.0143857
956.418	0.0142803
956.496	0.0144480
956.575	0.0144652
956.653	0.0144184
956.731	0.0143532
956.809	0.0142589
956.887	0.0143124
956.965	0.0145229
957.043	0.0143513
957.121	0.0143152
957.200	0.0142168
957.278	0.0143766
957.356	0.0145068
957.434	0.0143176
957.512	0.0142679
957.590	0.0142635
957.668	0.0142921
957.746	0.0144212
957.825	0.0144431
957.903	0.0143832
957.981	0.0145311
958.059	0.0143374
958.137	0.0143214
958.215	0.0143790
958.293	0.0144429
958.371	0.0142207
958.450	0.0144379
958.528	0.0143639
958.606	0.0143546
958.684	0.0143948
958.762	0.0143765
958.840	0.0142874
958.918	0.0143061
958.996	0.0142769
959.075	0.0142662
959.153	0.0143680
959.231	0.0142712
959.309	0.0143943
959.387	0.0144019
959.465	0.0144387
959.543	0.0143038
959.621	0.0144609
959.700	0.0144643
959.778	0.0143703
959.856	0.0144656
959.934	0.0144020
960.012	0.0144079
960.090	0.0142950
960.168	0.0143953
960.246	0.0144540
960.325	0.0144379
960.403	0.0144296
960.481	0.0143731
960.559	0.0141615
960.637	0.0142836
960.715	0.0142424
960.793	0.0144621
960.871	0.0144257
960.950	0.0142908
961.028	0.0142211
961.106	0.0142480
961.184	0.0142761
961.262	0.0144257
961.340	0.0142828
961.418	0.0142982
961.496	0.0141346
961.575	0.0142281
961.653	0.0143188
961.731	0.0142343
961.809	0.0141932
961.887	0.0142913
961.965	0.0143304
962.043	0.0143961
962.121	0.0144032
962.200	0.0143800
962.278	0.0144110
962.356	0.0143904
962.434	0.0143494
962.512	0.0144978
962.590	0.0144204
962.668	0.0145106
962.746	0.0144937
962.825	0.0143876
962.903	0.0142708
962.981	0.0143285
963.059	0.0143579
963.137	0.0142371
963.215	0.0142123
963.293	0.0142147
963.371	0.0142707
963.450	0.0142255
963.528	0.0143333
963.606	0.0141711
963.684	0.0142410
963.762	0.0142142
963.840	0.0142290
963.918	0.0143441
963.996	0.0145226
964.075	0.0143459
964.153	0.0144360
964.231	0.0145228
964.309	0.0143386
964.387	0.0143731
964.465	0.0143914
964.543	0.0143117
964.621	0.0144071
964.700	0.0144377
964.778	0.0144278
964.856	0.0143149
964.934	0.0142772
965.012	0.0143141
965.090	0.0143079
965.168	0.0142210
965.246	0.0142269
965.325	0.0143179
965.403	0.0143639
965.481	0.0142918
965.559	0.0142853
965.637	0.0143997
965.715	0.0143600
965.793	0.0143400
965.871	0.0142245
965.950	0.0143942
966.028	0.0144269
966.106	0.0145316
966.184	0.0144623
966.262	0.0144008
966.340	0.0143780
966.418	0.0143972
966.496	0.0142917
966.575	0.0144170
966.653	0.0143818
966.731	0.0143566
966.809	0.0144292
966.887	0.0142494
966.965	0.0141267
967.043	0.0142896
967.121	0.0143003
967.200	0.0141960
967.278	0.0143298
967.356	0.0143729
967.434	0.0142599
967.512	0.0142408
967.590	0.0143329
967.668	0.0143811
967.746	0.0142639
967.825	0.0143062
967.903	0.0144855
967.981	0.0143588
968.059	0.0144300
968.137	0.0143642
968.215	0.0144584
968.293	0.0143758
968.371	0.0144456
968.450	0.0142536
968.528	0.0143481
968.606	0.0144674
968.684	0.0144535
968.762	0.0142953
968.840	0.0142609
968.918	0.0143890
968.996	0.0144061
969.075	0.0142289
969.153	0.0142725
969.231	0.0141916
969.309	0.0143450
969.387	0.0142326
969.465	0.0142568
969.543	0.0142982
969.621	0.0143798
969.700	0.0142474
969.778	0.0143777
969.856	0.0142555
969.934	0.0143373
970.012	0.0143903
970.090	0.0142625
970.168	0.0142638
970.246	0.0143654
970.325	0.0142676
970.403	0.0143189
970.481	0.0143563
970.559	0.0142710
970.637	0.0143722
970.715	0.0143635
970.793	0.0144012
970.871	0.0144111
970.950	0.0141764
971.028	0.0142657
971.106	0.0143824
971.184	0.0143274
971.262	0.0143132
971.340	0.0144290
971.418	0.0144422
971.496	0.0142837
971.575	0.0143568
971.653	0.0142916
971.731	0.0141933
971.809	0.0143256
971.887	0.0143149
971.965	0.0143340
972.043	0.0143980
972.121	0.0143748
972.200	0.0144502
972.278	0.0143112
972.356	0.0144009
972.434	0.0142271
972.512	0.0143404
972.590	0.0143581
972.668	0.0144353
972.746	0.0142633
972.825	0.0143976
972.903	0.0142627
972.981	0.0142834
973.059	0.0142809
973.137	0.0142358
973.215	0.0143771
973.293	0.0142706
973.371	0.0142073
973.450	0.0142056
973.528	0.0141445
973.606	0.0143369
973.684	0.0143073
973.762	0.0142248
973.840	0.0142690
973.918	0.0142135
973.996	0.0143569
974.075	0.0144608
974.153	0.0142222
974.231	0.0142358
974.309	0.0142307
974.387	0.0143617
974.465	0.0143397
974.543	0.0143191
974.621	0.0144141
974.700	0.0142738
974.778	0.0143118
974.856	0.0143628
974.934	0.0143736
975.012	0.0141830
975.090	0.0142366
975.168	0.0143113
975.246	0.0143168
975.325	0.0141174
975.403	0.0141614
975.481	0.0142746
975.559	0.0143897
975.637	0.0142126
975.715	0.0143497
975.793	0.0143999
975.871	0.0144151
975.950	0.0143061
976.028	0.0142527
976.106	0.0144572
976.184	0.0143754
976.262	0.0143112
976.340	0.0142746
976.418	0.0143665
976.496	0.0144240
976.575	0.0144788
976.653	0.0143340
976.731	0.0143242
976.809	0.0145203
976.887	0.0144908
976.965	0.0145095
977.043	0.0143032
977.121	0.0143507
977.200	0.0143090
977.278	0.0143522
977.356	0.0141952
977.434	0.0142487
977.512	0.0144733
977.590	0.0144283
977.668	0.0142294
977.746	0.0143696
977.825	0.0142295
977.903	0.0143282
977.981	0.0143499
978.059	0.0143548
978.137	0.0144260
978.215	0.0143810
978.293	0.0142358
978.371	0.0142486
978.450	0.0143548
978.528	0.0142027
978.606	0.0142190
978.684	0.0144639
978.762	0.0142463
978.840	0.0142627
978.918	0.0143635
978.996	0.0142570
979.075	0.0144077
979.153	0.0143330
979.231	0.0142178
979.309	0.0143614
979.387	0.0143821
979.465	0.0142924
979.543	0.0144147
979.621	0.0143018
979.700	0.0143378
979.778	0.0143707
979.856	0.0143759
979.934	0.0144353
980.012	0.0142815
980.090	0.0142245
980.168	0.0143298
980.246	0.0141523
980.325	0.0142596
980.403	0.0143443
980.481	0.0142346
980.559	0.0143855
980.637	0.0144039
980.715	0.0143105
980.793	0.0142021
980.871	0.0143160
980.950	0.0142947
981.028	0.0142819
981.106	0.0143333
981.184	0.0143178
981.262	0.0142951
981.340	0.0142551
981.418	0.0142192
981.496	0.0143351
981.575	0.0142603
981.653	0.0143537
981.731	0.0144837
981.809	0.0143845
981.887	0.0142620
981.965	0.0142863
982.043	0.0142522
982.121	0.0142107
982.200	0.0142993
982.278	0.0142991
982.356	0.0141589
982.434	0.0143098
982.512	0.0143957
982.590	0.0141605
982.668	0.0143006
982.746	0.0143513
982.825	0.0141874
982.903	0.0142678
982.981	0.0142850
983.059	0.0142406
983.137	0.0142606
983.215	0.0143147
983.293	0.0142943
983.371	0.0143011
983.450	0.0143098
983.528	0.0142679
983.606	0.0142910
983.684	0.0142577
983.762	0.0143001
983.840	0.0142346
983.918	0.0142236
983.996	0.0143639
984.075	0.0143229
984.153	0.0142622
984.231	0.0143710
984.309	0.0143651
984.387	0.0142973
984.465	0.0144302
984.543	0.0143318
984.621	0.0142680
984.700	0.0142371
984.778	0.0143887
984.856	0.0142890
984.934	0.0143571
985.012	0.0143374
985.090	0.0143225
985.168	0.0142717
985.246	0.0143314
985.325	0.0142907
985.403	0.0142747
985.481	0.0143385
985.559	0.0141292
985.637	0.0142176
985.715	0.0142839
985.793	0.0142144
985.871	0.0142922
985.950	0.0142368
986.028	0.0142297
986.106	0.0143174
986.184	0.0143172
986.262	0.0142597
986.340	0.0143185
986.418	0.0143778
986.496	0.0142634
986.575	0.0141647
986.653	0.0143064
986.731	0.0144057
986.809	0.0144263
986.887	0.0143010
986.965	0.0143778
987.043	0.0143034
987.121	0.0142892
987.200	0.0143631
987.278	0.0143752
987.356	0.0142177
987.434	0.0142607
987.512	0.0144273
987.590	0.0143558
987.668	0.0142690
987.746	0.0142867
987.825	0.0143176
987.903	0.0143701
987.981	0.0141942
988.059	0.0141982
988.137	0.0142358
988.215	0.0142455
988.293	0.0143762
988.371	0.0143611
988.450	0.0141117
988.528	0.0141954
988.606	0.0142936
988.684	0.0142825
988.762	0.0143076
988.840	0.0143060
988.918	0.0143711
988.996	0.0143955
989.075	0.0144257
989.153	0.0143472
989.231	0.0142645
989.309	0.0143071
989.387	0.0142817
989.465	0.0143492
989.543	0.0142294
989.621	0.0143080
989.700	0.0143644
989.778	0.0143001
989.856	0.0142818
989.934	0.0143133
990.012	0.0143141
990.090	0.0142152
990.168	0.0142963
990.246	0.0142525
990.325	0.0144235
990.403	0.0142771
990.481	0.0142637
990.559	0.0143919
990.637	0.0143385
990.715	0.0142587
990.793	0.0142937
990.871	0.0143691
990.950	0.0144173
991.028	0.0143843
991.106	0.0143839
991.184	0.0143098
991.262	0.0143131
991.340	0.0143382
991.418	0.0143366
991.496	0.0143756
991.575	0.0142570
991.653	0.0142710
991.731	0.0142677
991.809	0.0142417
991.887	0.0143938
991.965	0.0143119
992.043	0.0142296
992.121	0.0142906
992.200	0.0142331
992.278	0.0142276
992.356	0.0143642
992.434	0.0142872
992.512	0.0142889
992.590	0.0142575
992.668	0.0142746
992.746	0.0142950
992.825	0.0143066
992.903	0.0141908
992.981	0.0142751
993.059	0.0144535
993.137	0.0143327
993.215	0.0144784
993.293	0.0144217
993.371	0.0143781
993.450	0.0145399
993.528	0.0143140
993.606	0.0143633
993.684	0.0144983
993.762	0.0143584
993.840	0.0143031
993.918	0.0143991
993.996	0.0143456
994.075	0.0143094
994.153	0.0143089
994.231	0.0142795
994.309	0.0144160
994.387	0.0142728
994.465	0.0143977
994.543	0.0145330
994.621	0.0143423
994.700	0.0142821
994.778	0.0142413
994.856	0.0143019
994.934	0.0142896
995.012	0.0143781
995.090	0.0141581
995.168	0.0144041
995.246	0.0142686
995.325	0.0142587
995.403	0.0142372
995.481	0.0143376
995.559	0.0142937
995.637	0.0144448
995.715	0.0142535
995.793	0.0142403
995.871	0.0143834
995.950	0.0143187
996.028	0.0143204
996.106	0.0142647
996.184	0.0143763
996.262	0.0144289
996.340	0.0143813
996.418	0.0144025
996.496	0.0143849
996.575	0.0144979
996.653	0.0144254
996.731	0.0142708
996.809	0.0143779
996.887	0.0143673
996.965	0.0143378
997.043	0.0142804
997.121	0.0143764
997.200	0.0144437
997.278	0.0143710
997.356	0.0141125
997.434	0.0142428
997.512	0.0142461
997.590	0.0143304
997.668	0.0142864
997.746	0.0143497
997.825	0.0142925
997.903	0.0142574
997.981	0.0144301
998.059	0.0143334
998.137	0.0142672
998.215	0.0144440
998.293	0.0144613
998.371	0.0144077
998.450	0.0144661
998.528	0.0144418
998.606	0.0145310
998.684	0.0146238
998.762	0.0146179
998.840	0.0144526
998.918	0.0146095
