05/04/2022	21:03:02	Ver.	4.1	UNKNOWN
Optical Delay	678.996401	Delta X		0.078125	Sweeps	1	Scan Rate	0/0
Coordinates	Axis 1	NaN	Axis 2	NaN	Axis 3	NaN	Axis 4	NaN	Axis 5	NaN	Axis 6	0.000000
TX Power	0.000000	RX Power	0.000000

678.996	0.0144484
679.075	0.0145038
679.153	0.0143884
679.231	0.0142690
679.309	0.0145098
679.387	0.0144208
679.465	0.0144016
679.543	0.0142293
679.621	0.0144743
679.700	0.0145874
679.778	0.0144502
679.856	0.0143533
679.934	0.0143803
680.012	0.0145169
680.090	0.0144717
680.168	0.0145595
680.246	0.0144386
680.325	0.0145065
680.403	0.0144582
680.481	0.0144911
680.559	0.0142950
680.637	0.0143605
680.715	0.0145203
680.793	0.0144546
680.871	0.0143272
680.950	0.0143506
681.028	0.0145658
681.106	0.0144530
681.184	0.0142641
681.262	0.0144299
681.340	0.0145142
681.418	0.0145212
681.496	0.0144246
681.575	0.0143443
681.653	0.0144437
681.731	0.0143194
681.809	0.0144960
681.887	0.0144969
681.965	0.0144239
682.043	0.0144881
682.121	0.0145883
682.200	0.0144698
682.278	0.0144947
682.356	0.0145079
682.434	0.0144593
682.512	0.0143825
682.590	0.0144724
682.668	0.0144553
682.746	0.0143616
682.825	0.0144592
682.903	0.0145010
682.981	0.0144041
683.059	0.0144035
683.137	0.0145300
683.215	0.0144080
683.293	0.0145531
683.371	0.0144715
683.450	0.0145051
683.528	0.0144522
683.606	0.0144830
683.684	0.0144302
683.762	0.0144048
683.840	0.0143551
683.918	0.0144224
683.996	0.0143471
684.075	0.0144934
684.153	0.0145190
684.231	0.0144557
684.309	0.0144317
684.387	0.0143652
684.465	0.0144036
684.543	0.0143754
684.621	0.0144537
684.700	0.0144711
684.778	0.0145011
684.856	0.0144601
684.934	0.0144202
685.012	0.0144455
685.090	0.0143602
685.168	0.0145161
685.246	0.0144487
685.325	0.0143703
685.403	0.0145415
685.481	0.0144272
685.559	0.0143422
685.637	0.0145145
685.715	0.0144425
685.793	0.0144910
685.871	0.0144652
685.950	0.0145803
686.028	0.0144897
686.106	0.0144415
686.184	0.0143887
686.262	0.0144037
686.340	0.0145106
686.418	0.0145806
686.496	0.0143581
686.575	0.0145016
686.653	0.0144801
686.731	0.0145123
686.809	0.0145746
686.887	0.0145623
686.965	0.0144566
687.043	0.0145024
687.121	0.0144066
687.200	0.0144907
687.278	0.0144326
687.356	0.0143851
687.434	0.0143581
687.512	0.0145386
687.590	0.0144495
687.668	0.0144605
687.746	0.0145985
687.825	0.0144889
687.903	0.0145067
687.981	0.0146105
688.059	0.0144495
688.137	0.0144268
688.215	0.0143391
688.293	0.0143137
688.371	0.0143400
688.450	0.0145959
688.528	0.0145542
688.606	0.0145288
688.684	0.0144998
688.762	0.0144835
688.840	0.0144464
688.918	0.0144852
688.996	0.0144692
689.075	0.0144154
689.153	0.0144153
689.231	0.0145129
689.309	0.0144895
689.387	0.0144234
689.465	0.0145129
689.543	0.0144105
689.621	0.0143507
689.700	0.0144550
689.778	0.0144929
689.856	0.0144175
689.934	0.0145188
690.012	0.0146028
690.090	0.0145301
690.168	0.0144871
690.246	0.0144449
690.325	0.0144890
690.403	0.0144630
690.481	0.0144392
690.559	0.0145675
690.637	0.0144546
690.715	0.0142843
690.793	0.0143701
690.871	0.0144743
690.950	0.0145428
691.028	0.0145102
691.106	0.0144801
691.184	0.0144796
691.262	0.0143565
691.340	0.0144270
691.418	0.0144974
691.496	0.0143771
691.575	0.0142980
691.653	0.0145178
691.731	0.0145667
691.809	0.0144927
691.887	0.0144141
691.965	0.0141837
692.043	0.0142469
692.121	0.0144682
692.200	0.0145284
692.278	0.0143327
692.356	0.0145069
692.434	0.0144241
692.512	0.0146212
692.590	0.0145985
692.668	0.0144370
692.746	0.0144655
692.825	0.0144241
692.903	0.0143921
692.981	0.0145014
693.059	0.0144550
693.137	0.0144885
693.215	0.0145551
693.293	0.0144096
693.371	0.0143349
693.450	0.0143665
693.528	0.0144794
693.606	0.0144539
693.684	0.0145036
693.762	0.0143150
693.840	0.0144083
693.918	0.0146110
693.996	0.0144241
694.075	0.0145249
694.153	0.0143914
694.231	0.0145002
694.309	0.0144397
694.387	0.0143345
694.465	0.0144785
694.543	0.0144550
694.621	0.0145114
694.700	0.0144151
694.778	0.0145229
694.856	0.0144656
694.934	0.0143369
695.012	0.0144218
695.090	0.0143645
695.168	0.0144998
695.246	0.0144559
695.325	0.0144718
695.403	0.0144170
695.481	0.0144203
695.559	0.0145010
695.637	0.0143539
695.715	0.0144347
695.793	0.0144038
695.871	0.0145080
695.950	0.0144151
696.028	0.0144111
696.106	0.0144794
696.184	0.0145487
696.262	0.0143751
696.340	0.0142645
696.418	0.0144457
696.496	0.0144726
696.575	0.0144809
696.653	0.0144012
696.731	0.0144776
696.809	0.0145077
696.887	0.0143917
696.965	0.0143807
697.043	0.0143591
697.121	0.0144680
697.200	0.0146041
697.278	0.0143743
697.356	0.0145317
697.434	0.0144759
697.512	0.0144060
697.590	0.0146004
697.668	0.0145414
697.746	0.0144206
697.825	0.0144509
697.903	0.0144021
697.981	0.0144710
698.059	0.0144456
698.137	0.0145267
698.215	0.0145953
698.293	0.0145195
698.371	0.0144423
698.450	0.0144169
698.528	0.0144914
698.606	0.0145249
698.684	0.0145196
698.762	0.0144863
698.840	0.0144334
698.918	0.0144338
698.996	0.0144158
699.075	0.0144373
699.153	0.0144522
699.231	0.0145374
699.309	0.0143851
699.387	0.0144014
699.465	0.0144045
699.543	0.0143827
699.621	0.0144822
699.700	0.0144170
699.778	0.0144311
699.856	0.0144933
699.934	0.0145766
700.012	0.0144987
700.090	0.0145053
700.168	0.0143609
700.246	0.0143180
700.325	0.0144402
700.403	0.0144508
700.481	0.0144659
700.559	0.0143751
700.637	0.0145010
700.715	0.0144228
700.793	0.0144320
700.871	0.0144025
700.950	0.0144006
701.028	0.0144465
701.106	0.0144438
701.184	0.0144102
701.262	0.0145107
701.340	0.0144068
701.418	0.0143959
701.496	0.0144503
701.575	0.0142628
701.653	0.0144487
701.731	0.0144405
701.809	0.0143011
701.887	0.0145475
701.965	0.0144973
702.043	0.0144910
702.121	0.0143745
702.200	0.0145018
702.278	0.0145612
702.356	0.0145211
702.434	0.0145640
702.512	0.0145987
702.590	0.0144477
702.668	0.0144210
702.746	0.0144537
702.825	0.0144487
702.903	0.0144977
702.981	0.0144817
703.059	0.0145190
703.137	0.0145020
703.215	0.0143700
703.293	0.0144332
703.371	0.0143943
703.450	0.0145135
703.528	0.0143951
703.606	0.0144508
703.684	0.0144569
703.762	0.0144535
703.840	0.0145557
703.918	0.0145331
703.996	0.0145037
704.075	0.0145662
704.153	0.0145640
704.231	0.0146570
704.309	0.0144704
704.387	0.0146117
704.465	0.0146210
704.543	0.0145776
704.621	0.0145835
704.700	0.0144260
704.778	0.0144540
704.856	0.0144465
704.934	0.0143228
705.012	0.0144479
705.090	0.0142973
705.168	0.0142300
705.246	0.0143553
705.325	0.0142484
705.403	0.0144013
705.481	0.0145266
705.559	0.0145222
705.637	0.0145309
705.715	0.0146409
705.793	0.0149741
705.871	0.0150159
705.950	0.0149007
706.028	0.0149203
706.106	0.0147436
706.184	0.0145219
706.262	0.0144646
706.340	0.0143003
706.418	0.0141908
706.496	0.0139195
706.575	0.0139941
706.653	0.0137646
706.731	0.0137343
706.809	0.0137739
706.887	0.0137811
706.965	0.0136342
707.043	0.0138423
707.121	0.0140203
707.200	0.0143117
707.278	0.0145488
707.356	0.0149732
707.434	0.0153781
707.512	0.0157198
707.590	0.0158792
707.668	0.0160188
707.746	0.0160178
707.825	0.0156973
707.903	0.0154517
707.981	0.0149979
708.059	0.0144051
708.137	0.0140858
708.215	0.0135957
708.293	0.0132446
708.371	0.0130597
708.450	0.0128935
708.528	0.0128471
708.606	0.0129957
708.684	0.0129470
708.762	0.0133056
708.840	0.0135635
708.918	0.0138962
708.996	0.0141968
709.075	0.0147318
709.153	0.0153214
709.231	0.0156932
709.309	0.0161980
709.387	0.0165559
709.465	0.0166940
709.543	0.0165824
709.621	0.0164082
709.700	0.0162135
709.778	0.0158296
709.856	0.0152657
709.934	0.0146216
710.012	0.0141214
710.090	0.0134805
710.168	0.0131353
710.246	0.0128521
710.325	0.0127057
710.403	0.0125502
710.481	0.0126450
710.559	0.0129944
710.637	0.0129974
710.715	0.0131261
710.793	0.0132471
710.871	0.0135066
710.950	0.0135677
711.028	0.0138958
711.106	0.0137969
711.184	0.0141224
711.262	0.0146279
711.340	0.0147179
711.418	0.0150954
711.496	0.0154257
711.575	0.0155447
711.653	0.0158795
711.731	0.0159159
711.809	0.0160976
711.887	0.0161900
711.965	0.0162353
712.043	0.0162358
712.121	0.0159813
712.200	0.0157746
712.278	0.0156005
712.356	0.0154472
712.434	0.0151458
712.512	0.0147771
712.590	0.0143085
712.668	0.0137389
712.746	0.0131444
712.825	0.0125949
712.903	0.0120046
712.981	0.0115668
713.059	0.0114465
713.137	0.0113837
713.215	0.0116261
713.293	0.0120747
713.371	0.0127007
713.450	0.0133559
713.528	0.0141145
713.606	0.0148972
713.684	0.0158144
713.762	0.0165598
713.840	0.0172826
713.918	0.0177335
713.996	0.0180965
714.075	0.0183047
714.153	0.0183191
714.231	0.0179351
714.309	0.0173780
714.387	0.0166210
714.465	0.0159164
714.543	0.0149683
714.621	0.0140993
714.700	0.0132744
714.778	0.0124861
714.856	0.0118256
714.934	0.0112859
715.012	0.0107363
715.090	0.0106048
715.168	0.0104322
715.246	0.0107578
715.325	0.0114202
715.403	0.0121789
715.481	0.0130754
715.559	0.0139468
715.637	0.0149005
715.715	0.0158283
715.793	0.0165565
715.871	0.0165234
715.950	0.0170954
716.028	0.0174931
716.106	0.0174043
716.184	0.0173435
716.262	0.0171349
716.340	0.0168526
716.418	0.0162128
716.496	0.0155963
716.575	0.0149379
716.653	0.0139989
716.731	0.0135571
716.809	0.0130608
716.887	0.0123501
716.965	0.0123254
717.043	0.0119826
717.121	0.0121029
717.200	0.0120806
717.278	0.0123508
717.356	0.0127191
717.434	0.0130308
717.512	0.0133536
717.590	0.0140626
717.668	0.0146461
717.746	0.0152145
717.825	0.0158442
717.903	0.0163015
717.981	0.0166399
718.059	0.0168930
718.137	0.0168964
718.215	0.0166682
718.293	0.0164708
718.371	0.0161929
718.450	0.0156457
718.528	0.0150615
718.606	0.0147783
718.684	0.0142182
718.762	0.0139109
718.840	0.0136855
718.918	0.0132343
718.996	0.0128793
719.075	0.0127389
719.153	0.0127802
719.231	0.0126460
719.309	0.0129016
719.387	0.0130989
719.465	0.0134615
719.543	0.0137676
719.621	0.0140737
719.700	0.0144350
719.778	0.0147726
719.856	0.0150005
719.934	0.0151874
720.012	0.0152107
720.090	0.0152749
720.168	0.0152556
720.246	0.0151498
720.325	0.0151810
720.403	0.0150871
720.481	0.0148152
720.559	0.0146527
720.637	0.0145789
720.715	0.0144440
720.793	0.0142245
720.871	0.0142174
720.950	0.0140984
721.028	0.0141769
721.106	0.0140329
721.184	0.0141326
721.262	0.0141603
721.340	0.0142268
721.418	0.0140372
721.496	0.0140591
721.575	0.0142989
721.653	0.0144183
721.731	0.0145360
721.809	0.0147742
721.887	0.0146584
721.965	0.0147701
722.043	0.0147575
722.121	0.0145831
722.200	0.0146279
722.278	0.0145178
722.356	0.0143843
722.434	0.0142751
722.512	0.0140105
722.590	0.0140111
722.668	0.0139980
722.746	0.0137552
722.825	0.0136764
722.903	0.0136523
722.981	0.0137208
723.059	0.0137198
723.137	0.0138255
723.215	0.0139694
723.293	0.0142586
723.371	0.0145136
723.450	0.0147889
723.528	0.0150548
723.606	0.0152499
723.684	0.0154298
723.762	0.0154640
723.840	0.0156319
723.918	0.0155396
723.996	0.0155735
724.075	0.0152969
724.153	0.0151073
724.231	0.0149963
724.309	0.0149253
724.387	0.0147247
724.465	0.0144579
724.543	0.0142410
724.621	0.0138705
724.700	0.0136928
724.778	0.0135812
724.856	0.0131690
724.934	0.0130788
725.012	0.0130429
725.090	0.0129359
725.168	0.0130064
725.246	0.0131145
725.325	0.0133019
725.403	0.0135158
725.481	0.0137643
725.559	0.0141196
725.637	0.0147089
725.715	0.0150525
725.793	0.0153828
725.871	0.0156779
725.950	0.0161575
726.028	0.0164746
726.106	0.0163940
726.184	0.0165315
726.262	0.0165129
726.340	0.0162930
726.418	0.0160011
726.496	0.0155743
726.575	0.0150178
726.653	0.0143480
726.731	0.0139481
726.809	0.0133977
726.887	0.0130659
726.965	0.0124751
727.043	0.0122393
727.121	0.0120932
727.200	0.0119678
727.278	0.0120834
727.356	0.0122157
727.434	0.0126307
727.512	0.0129458
727.590	0.0132928
727.668	0.0140553
727.746	0.0145377
727.825	0.0149596
727.903	0.0154973
727.981	0.0157667
728.059	0.0162090
728.137	0.0165524
728.215	0.0168973
728.293	0.0167908
728.371	0.0168089
728.450	0.0167939
728.528	0.0164207
728.606	0.0162355
728.684	0.0159291
728.762	0.0155529
728.840	0.0150448
728.918	0.0145395
728.996	0.0141023
729.075	0.0136107
729.153	0.0130158
729.231	0.0126200
729.309	0.0125018
729.387	0.0120864
729.465	0.0119988
729.543	0.0119455
729.621	0.0118429
729.700	0.0120901
729.778	0.0123688
729.856	0.0125251
729.934	0.0130886
730.012	0.0135075
730.090	0.0140061
730.168	0.0145746
730.246	0.0152137
730.325	0.0157394
730.403	0.0163106
730.481	0.0166825
730.559	0.0170505
730.637	0.0172425
730.715	0.0172587
730.793	0.0170535
730.871	0.0170813
730.950	0.0165938
731.028	0.0159750
731.106	0.0155264
731.184	0.0149721
731.262	0.0144640
731.340	0.0139465
731.418	0.0132825
731.496	0.0129402
731.575	0.0125288
731.653	0.0122561
731.731	0.0121375
731.809	0.0120232
731.887	0.0121317
731.965	0.0124049
732.043	0.0125601
732.121	0.0130356
732.200	0.0134960
732.278	0.0140305
732.356	0.0147140
732.434	0.0150724
732.512	0.0153655
732.590	0.0157346
732.668	0.0162062
732.746	0.0164727
732.825	0.0165461
732.903	0.0167186
732.981	0.0165183
733.059	0.0163453
733.137	0.0161835
733.215	0.0159972
733.293	0.0156748
733.371	0.0153262
733.450	0.0148259
733.528	0.0143747
733.606	0.0140160
733.684	0.0137059
733.762	0.0130228
733.840	0.0127094
733.918	0.0125150
733.996	0.0122989
734.075	0.0122449
734.153	0.0122335
734.231	0.0123014
734.309	0.0125254
734.387	0.0127218
734.465	0.0130650
734.543	0.0136118
734.621	0.0142059
734.700	0.0148807
734.778	0.0151458
734.856	0.0157938
734.934	0.0162045
735.012	0.0164828
735.090	0.0166172
735.168	0.0168159
735.246	0.0166692
735.325	0.0164839
735.403	0.0164780
735.481	0.0160446
735.559	0.0156653
735.637	0.0151679
735.715	0.0147596
735.793	0.0143867
735.871	0.0140610
735.950	0.0135860
736.028	0.0134071
736.106	0.0132030
736.184	0.0129937
736.262	0.0129049
736.340	0.0129644
736.418	0.0131810
736.496	0.0130965
736.575	0.0134364
736.653	0.0136054
736.731	0.0139145
736.809	0.0140017
736.887	0.0141912
736.965	0.0145055
737.043	0.0148825
737.121	0.0148721
737.200	0.0149677
737.278	0.0151099
737.356	0.0152744
737.434	0.0153391
737.512	0.0153023
737.590	0.0153133
737.668	0.0153667
737.746	0.0153605
737.825	0.0153713
737.903	0.0151951
737.981	0.0152322
738.059	0.0151015
738.137	0.0150243
738.215	0.0147865
738.293	0.0147800
738.371	0.0145153
738.450	0.0144269
738.528	0.0142747
738.606	0.0139418
738.684	0.0139025
738.762	0.0136033
738.840	0.0135221
738.918	0.0134011
738.996	0.0132917
739.075	0.0131651
739.153	0.0133844
739.231	0.0132565
739.309	0.0135181
739.387	0.0135931
739.465	0.0138345
739.543	0.0139655
739.621	0.0145416
739.700	0.0146953
739.778	0.0149067
739.856	0.0151376
739.934	0.0154806
740.012	0.0156532
740.090	0.0158107
740.168	0.0157875
740.246	0.0158115
740.325	0.0158292
740.403	0.0156647
740.481	0.0154742
740.559	0.0153181
740.637	0.0150455
740.715	0.0148134
740.793	0.0146684
740.871	0.0142871
740.950	0.0140052
741.028	0.0136137
741.106	0.0134203
741.184	0.0133974
741.262	0.0132165
741.340	0.0131851
741.418	0.0131590
741.496	0.0131286
741.575	0.0132581
741.653	0.0135180
741.731	0.0136443
741.809	0.0136829
741.887	0.0140759
741.965	0.0142550
742.043	0.0145770
742.121	0.0148129
742.200	0.0151052
742.278	0.0153346
742.356	0.0155870
742.434	0.0155090
742.512	0.0157153
742.590	0.0158406
742.668	0.0157673
742.746	0.0157001
742.825	0.0155305
742.903	0.0153909
742.981	0.0150140
743.059	0.0147511
743.137	0.0144736
743.215	0.0141410
743.293	0.0139650
743.371	0.0136552
743.450	0.0133181
743.528	0.0131773
743.606	0.0130904
743.684	0.0128748
743.762	0.0128091
743.840	0.0129334
743.918	0.0130122
743.996	0.0132694
744.075	0.0135793
744.153	0.0140343
744.231	0.0143326
744.309	0.0146468
744.387	0.0150390
744.465	0.0152547
744.543	0.0154795
744.621	0.0156448
744.700	0.0156583
744.778	0.0157536
744.856	0.0159222
744.934	0.0157391
745.012	0.0156646
745.090	0.0155544
745.168	0.0150587
745.246	0.0148530
745.325	0.0148132
745.403	0.0144845
745.481	0.0142696
745.559	0.0140636
745.637	0.0136884
745.715	0.0133884
745.793	0.0133688
745.871	0.0132519
745.950	0.0132358
746.028	0.0131277
746.106	0.0132198
746.184	0.0132745
746.262	0.0132679
746.340	0.0136216
746.418	0.0137081
746.496	0.0139222
746.575	0.0140916
746.653	0.0143895
746.731	0.0146524
746.809	0.0148513
746.887	0.0150190
746.965	0.0151725
747.043	0.0152791
747.121	0.0154414
747.200	0.0154667
747.278	0.0155125
747.356	0.0155287
747.434	0.0155275
747.512	0.0154578
747.590	0.0154071
747.668	0.0152048
747.746	0.0148574
747.825	0.0147048
747.903	0.0144820
747.981	0.0141953
748.059	0.0140365
748.137	0.0138595
748.215	0.0137089
748.293	0.0136330
748.371	0.0133755
748.450	0.0134921
748.528	0.0133785
748.606	0.0133346
748.684	0.0133490
748.762	0.0135660
748.840	0.0136810
748.918	0.0137588
748.996	0.0140820
749.075	0.0141920
749.153	0.0143817
749.231	0.0147112
749.309	0.0148155
749.387	0.0150641
749.465	0.0152151
749.543	0.0153496
749.621	0.0153564
749.700	0.0153625
749.778	0.0154904
749.856	0.0153667
749.934	0.0154322
750.012	0.0152787
750.090	0.0150252
750.168	0.0149068
750.246	0.0147894
750.325	0.0146839
750.403	0.0145547
750.481	0.0142274
750.559	0.0142247
750.637	0.0138980
750.715	0.0138020
750.793	0.0138198
750.871	0.0135735
750.950	0.0135709
751.028	0.0136140
751.106	0.0134076
751.184	0.0134830
751.262	0.0134795
751.340	0.0135271
751.418	0.0138350
751.496	0.0137820
751.575	0.0139923
751.653	0.0142682
751.731	0.0143600
751.809	0.0145902
751.887	0.0148083
751.965	0.0150771
752.043	0.0151028
752.121	0.0151350
752.200	0.0154372
752.278	0.0155707
752.356	0.0154327
752.434	0.0154037
752.512	0.0154043
752.590	0.0152890
752.668	0.0152856
752.746	0.0150495
752.825	0.0149570
752.903	0.0147021
752.981	0.0145020
753.059	0.0143458
753.137	0.0140022
753.215	0.0137411
753.293	0.0137009
753.371	0.0134462
753.450	0.0135424
753.528	0.0134773
753.606	0.0133875
753.684	0.0134976
753.762	0.0136149
753.840	0.0137120
753.918	0.0137605
753.996	0.0139215
754.075	0.0141631
754.153	0.0143189
754.231	0.0146225
754.309	0.0148766
754.387	0.0151619
754.465	0.0150679
754.543	0.0151997
754.621	0.0153094
754.700	0.0154903
754.778	0.0154456
754.856	0.0154287
754.934	0.0152396
755.012	0.0153436
755.090	0.0150639
755.168	0.0150495
755.246	0.0149025
755.325	0.0145331
755.403	0.0144633
755.481	0.0142970
755.559	0.0139378
755.637	0.0138849
755.715	0.0137115
755.793	0.0136401
755.871	0.0137262
755.950	0.0136919
756.028	0.0135307
756.106	0.0135459
756.184	0.0136786
756.262	0.0137178
756.340	0.0138514
756.418	0.0141637
756.496	0.0142232
756.575	0.0144496
756.653	0.0146577
756.731	0.0145625
756.809	0.0148700
756.887	0.0149042
756.965	0.0150858
757.043	0.0150580
757.121	0.0151165
757.200	0.0151407
757.278	0.0151141
757.356	0.0149514
757.434	0.0149960
757.512	0.0149176
757.590	0.0147677
757.668	0.0148251
757.746	0.0146284
757.825	0.0145003
757.903	0.0142152
757.981	0.0141894
758.059	0.0142598
758.137	0.0141522
758.215	0.0139989
758.293	0.0140145
758.371	0.0138552
758.450	0.0140902
758.528	0.0139424
758.606	0.0139579
758.684	0.0139952
758.762	0.0140144
758.840	0.0140560
758.918	0.0142002
758.996	0.0141183
759.075	0.0142936
759.153	0.0143946
759.231	0.0145177
759.309	0.0146702
759.387	0.0146201
759.465	0.0148257
759.543	0.0147546
759.621	0.0147048
759.700	0.0149949
759.778	0.0149825
759.856	0.0150838
759.934	0.0151671
760.012	0.0150264
760.090	0.0148996
760.168	0.0148143
760.246	0.0147257
760.325	0.0146096
760.403	0.0144241
760.481	0.0144196
760.559	0.0144586
760.637	0.0143365
760.715	0.0141592
760.793	0.0139787
760.871	0.0136311
760.950	0.0137624
761.028	0.0139405
761.106	0.0138318
761.184	0.0139659
761.262	0.0138894
761.340	0.0140247
761.418	0.0141116
761.496	0.0143482
761.575	0.0143845
761.653	0.0145929
761.731	0.0146175
761.809	0.0147707
761.887	0.0147822
761.965	0.0148817
762.043	0.0150245
762.121	0.0149364
762.200	0.0150024
762.278	0.0150272
762.356	0.0150705
762.434	0.0148854
762.512	0.0148540
762.590	0.0148874
762.668	0.0147559
762.746	0.0146222
762.825	0.0146046
762.903	0.0144028
762.981	0.0142530
763.059	0.0142078
763.137	0.0140882
763.215	0.0140647
763.293	0.0139427
763.371	0.0137844
763.450	0.0138637
763.528	0.0139089
763.606	0.0139023
763.684	0.0140295
763.762	0.0141212
763.840	0.0141576
763.918	0.0142133
763.996	0.0141724
764.075	0.0144508
764.153	0.0143556
764.231	0.0146517
764.309	0.0147155
764.387	0.0147030
764.465	0.0148708
764.543	0.0149614
764.621	0.0148866
764.700	0.0149312
764.778	0.0149649
764.856	0.0148631
764.934	0.0148930
765.012	0.0149043
765.090	0.0146963
765.168	0.0145384
765.246	0.0145479
765.325	0.0144384
765.403	0.0143989
765.481	0.0144061
765.559	0.0142500
765.637	0.0142044
765.715	0.0142290
765.793	0.0140379
765.871	0.0138957
765.950	0.0140688
766.028	0.0139700
766.106	0.0140163
766.184	0.0139415
766.262	0.0138818
766.340	0.0141283
766.418	0.0141924
766.496	0.0142976
766.575	0.0145007
766.653	0.0145306
766.731	0.0144539
766.809	0.0146518
766.887	0.0148151
766.965	0.0148377
767.043	0.0148545
767.121	0.0147711
767.200	0.0149046
767.278	0.0148794
767.356	0.0147112
767.434	0.0147430
767.512	0.0147127
767.590	0.0146406
767.668	0.0146494
767.746	0.0145892
767.825	0.0145992
767.903	0.0144949
767.981	0.0144048
768.059	0.0143800
768.137	0.0142679
768.215	0.0140591
768.293	0.0139478
768.371	0.0140886
768.450	0.0141830
768.528	0.0140002
768.606	0.0140158
768.684	0.0140439
768.762	0.0140533
768.840	0.0142067
768.918	0.0143254
768.996	0.0142951
769.075	0.0143481
769.153	0.0141418
769.231	0.0142912
769.309	0.0145903
769.387	0.0146418
769.465	0.0144417
769.543	0.0146515
769.621	0.0146407
769.700	0.0146886
769.778	0.0146561
769.856	0.0146609
769.934	0.0146372
770.012	0.0145169
770.090	0.0146489
770.168	0.0145654
770.246	0.0144646
770.325	0.0144465
770.403	0.0145375
770.481	0.0144566
770.559	0.0142973
770.637	0.0143087
770.715	0.0142798
770.793	0.0143893
770.871	0.0143011
770.950	0.0141493
771.028	0.0142356
771.106	0.0142706
771.184	0.0140407
771.262	0.0141193
771.340	0.0142286
771.418	0.0141555
771.496	0.0141693
771.575	0.0143223
771.653	0.0142062
771.731	0.0142422
771.809	0.0142830
771.887	0.0144362
771.965	0.0145216
772.043	0.0144629
772.121	0.0145190
772.200	0.0146050
772.278	0.0147401
772.356	0.0146637
772.434	0.0145973
772.512	0.0145300
772.590	0.0146610
772.668	0.0147795
772.746	0.0145732
772.825	0.0147015
772.903	0.0147133
772.981	0.0145066
773.059	0.0143813
773.137	0.0144089
773.215	0.0143113
773.293	0.0143025
773.371	0.0142083
773.450	0.0140424
773.528	0.0141911
773.606	0.0141122
773.684	0.0140677
773.762	0.0139803
773.840	0.0141125
773.918	0.0141615
773.996	0.0141119
774.075	0.0143472
774.153	0.0142366
774.231	0.0142659
774.309	0.0142760
774.387	0.0143916
774.465	0.0144549
774.543	0.0145567
774.621	0.0145080
774.700	0.0146555
774.778	0.0146564
774.856	0.0145688
774.934	0.0144832
775.012	0.0146153
775.090	0.0146850
775.168	0.0145285
775.246	0.0145955
775.325	0.0145665
775.403	0.0145089
775.481	0.0145158
775.559	0.0145595
775.637	0.0143936
775.715	0.0143717
775.793	0.0143744
775.871	0.0143349
775.950	0.0142792
776.028	0.0144069
776.106	0.0142793
776.184	0.0142860
776.262	0.0143321
776.340	0.0141779
776.418	0.0141731
776.496	0.0141776
776.575	0.0142346
776.653	0.0143408
776.731	0.0142942
776.809	0.0143640
776.887	0.0143311
776.965	0.0144270
777.043	0.0143892
777.121	0.0144357
777.200	0.0145058
777.278	0.0144299
777.356	0.0144768
777.434	0.0145297
777.512	0.0145762
777.590	0.0145251
777.668	0.0145291
777.746	0.0145209
777.825	0.0145481
777.903	0.0147480
777.981	0.0143085
778.059	0.0144352
778.137	0.0145609
778.215	0.0143724
778.293	0.0144352
778.371	0.0141586
778.450	0.0142232
778.528	0.0142805
778.606	0.0141946
778.684	0.0142937
778.762	0.0142518
778.840	0.0141579
778.918	0.0141486
778.996	0.0142659
779.075	0.0143034
779.153	0.0142452
779.231	0.0143908
779.309	0.0143963
779.387	0.0143690
779.465	0.0144612
779.543	0.0144583
779.621	0.0146770
779.700	0.0145684
779.778	0.0146478
779.856	0.0146230
779.934	0.0145019
780.012	0.0145041
780.090	0.0146600
780.168	0.0146634
780.246	0.0144946
780.325	0.0145625
780.403	0.0145179
780.481	0.0145535
780.559	0.0145255
780.637	0.0144811
780.715	0.0144678
780.793	0.0145448
780.871	0.0143249
780.950	0.0144588
781.028	0.0143677
781.106	0.0143415
781.184	0.0142993
781.262	0.0143320
781.340	0.0143491
781.418	0.0143410
781.496	0.0143020
781.575	0.0144312
781.653	0.0143945
781.731	0.0143087
781.809	0.0143826
781.887	0.0143195
781.965	0.0143858
782.043	0.0144683
782.121	0.0144221
782.200	0.0143519
782.278	0.0144713
782.356	0.0145184
782.434	0.0145539
782.512	0.0145368
782.590	0.0142644
782.668	0.0145511
782.746	0.0145224
782.825	0.0145843
782.903	0.0145696
782.981	0.0145270
783.059	0.0146355
783.137	0.0145484
783.215	0.0143969
783.293	0.0145347
783.371	0.0144962
783.450	0.0143271
783.528	0.0143835
783.606	0.0143732
783.684	0.0143681
783.762	0.0143400
783.840	0.0144037
783.918	0.0142887
783.996	0.0143532
784.075	0.0143742
784.153	0.0143197
784.231	0.0144259
784.309	0.0143156
784.387	0.0142556
784.465	0.0142950
784.543	0.0143814
784.621	0.0144150
784.700	0.0145120
784.778	0.0143513
784.856	0.0145734
784.934	0.0144230
785.012	0.0143893
785.090	0.0145720
785.168	0.0146902
785.246	0.0145490
785.325	0.0145802
785.403	0.0145097
785.481	0.0144538
785.559	0.0145608
785.637	0.0146395
785.715	0.0144347
785.793	0.0144511
785.871	0.0144424
785.950	0.0143388
786.028	0.0144660
786.106	0.0143299
786.184	0.0142947
786.262	0.0143118
786.340	0.0142075
786.418	0.0142371
786.496	0.0142678
786.575	0.0144305
786.653	0.0142697
786.731	0.0142056
786.809	0.0141748
786.887	0.0143776
786.965	0.0143838
787.043	0.0143128
787.121	0.0143233
787.200	0.0144279
787.278	0.0144439
787.356	0.0143271
787.434	0.0142915
787.512	0.0145019
787.590	0.0146254
787.668	0.0144626
787.746	0.0145193
787.825	0.0143494
787.903	0.0144214
787.981	0.0145640
788.059	0.0145620
788.137	0.0145094
788.215	0.0145456
788.293	0.0145995
788.371	0.0145634
788.450	0.0144058
788.528	0.0143735
788.606	0.0143717
788.684	0.0143489
788.762	0.0144505
788.840	0.0143967
788.918	0.0144114
788.996	0.0143562
789.075	0.0143380
789.153	0.0143088
789.231	0.0141776
789.309	0.0141553
789.387	0.0143559
789.465	0.0142370
789.543	0.0143044
789.621	0.0143473
789.700	0.0142813
789.778	0.0144138
789.856	0.0142487
789.934	0.0144538
790.012	0.0144126
790.090	0.0144076
790.168	0.0144331
790.246	0.0145205
790.325	0.0144859
790.403	0.0146105
790.481	0.0145374
790.559	0.0144734
790.637	0.0145507
790.715	0.0145467
790.793	0.0144719
790.871	0.0144478
790.950	0.0143706
791.028	0.0145531
791.106	0.0145042
791.184	0.0143525
791.262	0.0144604
791.340	0.0144019
791.418	0.0142673
791.496	0.0142859
791.575	0.0143023
791.653	0.0143496
791.731	0.0143076
791.809	0.0142422
791.887	0.0143661
791.965	0.0144363
792.043	0.0144162
792.121	0.0143524
792.200	0.0144131
792.278	0.0144306
792.356	0.0144619
792.434	0.0143794
792.512	0.0144650
792.590	0.0145284
792.668	0.0145673
792.746	0.0145750
792.825	0.0146365
792.903	0.0146228
792.981	0.0146160
793.059	0.0144088
793.137	0.0144865
793.215	0.0145024
793.293	0.0145268
793.371	0.0145806
793.450	0.0144795
793.528	0.0144837
793.606	0.0144563
793.684	0.0145480
793.762	0.0144212
793.840	0.0144788
793.918	0.0144226
793.996	0.0143964
794.075	0.0143356
794.153	0.0143473
794.231	0.0145230
794.309	0.0142525
794.387	0.0143140
794.465	0.0144376
794.543	0.0142916
794.621	0.0144257
794.700	0.0144408
794.778	0.0143522
794.856	0.0143050
794.934	0.0143894
795.012	0.0144698
795.090	0.0145948
795.168	0.0144409
795.246	0.0144283
795.325	0.0145028
795.403	0.0144468
795.481	0.0144565
795.559	0.0143572
795.637	0.0143405
795.715	0.0144304
795.793	0.0143305
795.871	0.0143884
795.950	0.0143726
796.028	0.0144656
796.106	0.0145193
796.184	0.0145164
796.262	0.0144508
796.340	0.0143910
796.418	0.0144989
796.496	0.0144751
796.575	0.0144995
796.653	0.0143802
796.731	0.0142844
796.809	0.0143137
796.887	0.0142634
796.965	0.0144141
797.043	0.0144141
797.121	0.0143648
797.200	0.0143311
797.278	0.0143264
797.356	0.0143244
797.434	0.0143867
797.512	0.0142860
797.590	0.0141981
797.668	0.0143568
797.746	0.0143763
797.825	0.0143448
797.903	0.0143430
797.981	0.0143880
798.059	0.0144145
798.137	0.0143456
798.215	0.0144960
798.293	0.0144598
798.371	0.0145560
798.450	0.0144086
798.528	0.0144341
798.606	0.0144035
798.684	0.0145560
798.762	0.0144685
798.840	0.0143481
798.918	0.0145564
798.996	0.0145760
799.075	0.0145319
799.153	0.0145615
799.231	0.0143970
799.309	0.0144617
799.387	0.0144463
799.465	0.0142823
799.543	0.0144469
799.621	0.0144069
799.700	0.0142426
799.778	0.0143564
799.856	0.0144552
799.934	0.0144421
800.012	0.0143622
800.090	0.0143808
800.168	0.0144874
800.246	0.0143820
800.325	0.0142941
800.403	0.0143102
800.481	0.0143676
800.559	0.0143710
800.637	0.0144104
800.715	0.0144218
800.793	0.0144167
800.871	0.0144226
800.950	0.0144199
801.028	0.0144505
801.106	0.0143081
801.184	0.0143265
801.262	0.0144524
801.340	0.0144685
801.418	0.0145363
801.496	0.0143665
801.575	0.0145268
801.653	0.0144181
801.731	0.0143307
801.809	0.0144592
801.887	0.0143668
801.965	0.0144884
802.043	0.0143197
802.121	0.0143761
802.200	0.0143259
802.278	0.0142598
802.356	0.0144330
802.434	0.0143176
802.512	0.0144246
802.590	0.0144545
802.668	0.0143925
802.746	0.0143027
802.825	0.0144189
802.903	0.0142798
802.981	0.0142892
803.059	0.0143878
803.137	0.0144258
803.215	0.0143854
803.293	0.0143906
803.371	0.0144086
803.450	0.0144851
803.528	0.0145215
803.606	0.0144263
803.684	0.0144939
803.762	0.0146678
803.840	0.0145575
803.918	0.0145599
803.996	0.0144606
804.075	0.0145019
804.153	0.0145702
804.231	0.0144600
804.309	0.0143605
804.387	0.0143922
804.465	0.0142976
804.543	0.0142718
804.621	0.0144681
804.700	0.0144472
804.778	0.0143189
804.856	0.0143108
804.934	0.0143501
805.012	0.0144411
805.090	0.0143111
805.168	0.0142231
805.246	0.0144503
805.325	0.0143452
805.403	0.0143751
805.481	0.0144063
805.559	0.0145018
805.637	0.0145518
805.715	0.0145572
805.793	0.0145268
805.871	0.0145219
805.950	0.0144019
806.028	0.0145171
806.106	0.0145740
806.184	0.0145007
806.262	0.0146665
806.340	0.0145718
806.418	0.0145432
806.496	0.0143681
806.575	0.0145838
806.653	0.0146413
806.731	0.0143687
806.809	0.0143295
806.887	0.0145546
806.965	0.0143425
807.043	0.0142788
807.121	0.0142659
807.200	0.0142207
807.278	0.0143433
807.356	0.0142845
807.434	0.0142303
807.512	0.0141164
807.590	0.0141273
807.668	0.0142569
807.746	0.0142338
807.825	0.0143216
807.903	0.0143275
807.981	0.0144681
808.059	0.0144469
808.137	0.0144857
808.215	0.0145912
808.293	0.0146219
808.371	0.0146287
808.450	0.0145564
808.528	0.0145985
808.606	0.0145207
808.684	0.0148000
808.762	0.0146667
808.840	0.0145924
808.918	0.0144396
808.996	0.0143699
809.075	0.0144646
809.153	0.0143492
809.231	0.0142582
809.309	0.0144029
809.387	0.0144628
809.465	0.0142736
809.543	0.0144128
809.621	0.0144153
809.700	0.0143182
809.778	0.0142753
809.856	0.0142931
809.934	0.0144335
810.012	0.0145182
810.090	0.0147005
810.168	0.0145840
810.246	0.0146999
810.325	0.0145419
810.403	0.0145579
810.481	0.0145954
810.559	0.0145540
810.637	0.0145602
810.715	0.0143767
810.793	0.0144075
810.871	0.0145557
810.950	0.0144694
811.028	0.0142748
811.106	0.0144176
811.184	0.0144498
811.262	0.0144149
811.340	0.0143740
811.418	0.0145260
811.496	0.0145760
811.575	0.0146004
811.653	0.0145038
811.731	0.0144821
811.809	0.0145261
811.887	0.0144193
811.965	0.0145010
812.043	0.0145051
812.121	0.0145305
812.200	0.0144689
812.278	0.0143814
812.356	0.0143139
812.434	0.0144012
812.512	0.0143920
812.590	0.0142758
812.668	0.0143410
812.746	0.0143403
812.825	0.0143178
812.903	0.0144284
812.981	0.0143011
813.059	0.0144695
813.137	0.0143877
813.215	0.0143345
813.293	0.0142970
813.371	0.0144143
813.450	0.0144222
813.528	0.0144537
813.606	0.0145363
813.684	0.0145111
813.762	0.0145861
813.840	0.0144600
813.918	0.0145912
813.996	0.0145224
814.075	0.0144559
814.153	0.0144179
814.231	0.0143319
814.309	0.0143503
814.387	0.0144886
814.465	0.0145649
814.543	0.0144221
814.621	0.0144519
814.700	0.0144175
814.778	0.0145183
814.856	0.0143855
814.934	0.0143353
815.012	0.0144250
815.090	0.0145325
815.168	0.0142510
815.246	0.0143934
815.325	0.0144133
815.403	0.0144146
815.481	0.0144019
815.559	0.0144013
815.637	0.0143513
815.715	0.0143491
815.793	0.0145981
815.871	0.0145764
815.950	0.0145217
816.028	0.0144870
816.106	0.0144614
816.184	0.0145634
816.262	0.0143672
816.340	0.0143916
816.418	0.0144852
816.496	0.0144250
816.575	0.0144152
816.653	0.0144006
816.731	0.0144259
816.809	0.0145410
816.887	0.0144497
816.965	0.0143817
817.043	0.0142324
817.121	0.0144492
817.200	0.0144552
817.278	0.0144441
817.356	0.0144389
817.434	0.0143606
817.512	0.0143487
817.590	0.0143357
817.668	0.0143533
817.746	0.0144280
817.825	0.0143301
817.903	0.0142780
817.981	0.0143706
818.059	0.0142941
818.137	0.0144074
818.215	0.0144247
818.293	0.0144601
818.371	0.0143214
818.450	0.0145044
818.528	0.0144067
818.606	0.0144726
818.684	0.0143086
818.762	0.0143233
818.840	0.0143593
818.918	0.0143517
818.996	0.0143961
819.075	0.0144263
819.153	0.0144085
819.231	0.0142769
819.309	0.0143484
819.387	0.0144759
819.465	0.0144721
819.543	0.0143389
819.621	0.0142982
819.700	0.0143459
819.778	0.0145493
819.856	0.0144452
819.934	0.0144784
820.012	0.0143989
820.090	0.0143439
820.168	0.0144775
820.246	0.0144302
820.325	0.0144261
820.403	0.0143510
820.481	0.0145350
820.559	0.0145208
820.637	0.0144592
820.715	0.0144009
820.793	0.0144484
820.871	0.0145000
820.950	0.0144840
821.028	0.0144109
821.106	0.0143244
821.184	0.0145846
821.262	0.0144740
821.340	0.0143278
821.418	0.0144619
821.496	0.0145478
821.575	0.0144476
821.653	0.0144870
821.731	0.0145072
821.809	0.0146212
821.887	0.0144950
821.965	0.0145097
822.043	0.0144558
822.121	0.0142789
822.200	0.0145077
822.278	0.0144843
822.356	0.0144908
822.434	0.0143979
822.512	0.0146229
822.590	0.0146161
822.668	0.0144095
822.746	0.0144860
822.825	0.0144866
822.903	0.0143266
822.981	0.0143921
823.059	0.0144577
823.137	0.0142822
823.215	0.0143324
823.293	0.0144506
823.371	0.0144762
823.450	0.0144106
823.528	0.0143279
823.606	0.0143221
823.684	0.0143550
823.762	0.0145486
823.840	0.0143716
823.918	0.0144248
823.996	0.0143804
824.075	0.0144240
824.153	0.0145145
824.231	0.0144490
824.309	0.0142599
824.387	0.0144972
824.465	0.0144410
824.543	0.0146382
824.621	0.0144872
824.700	0.0144604
824.778	0.0144616
824.856	0.0144499
824.934	0.0145675
825.012	0.0144869
825.090	0.0144707
825.168	0.0145971
825.246	0.0144284
825.325	0.0145651
825.403	0.0144833
825.481	0.0144757
825.559	0.0144878
825.637	0.0144743
825.715	0.0144141
825.793	0.0143249
825.871	0.0144221
825.950	0.0143702
826.028	0.0143929
826.106	0.0143625
826.184	0.0143743
826.262	0.0143702
826.340	0.0143600
826.418	0.0144178
826.496	0.0143898
826.575	0.0142689
826.653	0.0144640
826.731	0.0143698
826.809	0.0145591
826.887	0.0145491
826.965	0.0144492
827.043	0.0145762
827.121	0.0144746
827.200	0.0145190
827.278	0.0145234
827.356	0.0144755
827.434	0.0145180
827.512	0.0145394
827.590	0.0145223
827.668	0.0146084
827.746	0.0145654
827.825	0.0144395
827.903	0.0145386
827.981	0.0144883
828.059	0.0144623
828.137	0.0144020
828.215	0.0145253
828.293	0.0144971
828.371	0.0145490
828.450	0.0143915
828.528	0.0142608
828.606	0.0145370
828.684	0.0144640
828.762	0.0143637
828.840	0.0143222
828.918	0.0142779
828.996	0.0143719
829.075	0.0143034
829.153	0.0142550
829.231	0.0143273
829.309	0.0144787
829.387	0.0143218
829.465	0.0144188
829.543	0.0144955
829.621	0.0144851
829.700	0.0144147
829.778	0.0143340
829.856	0.0144521
829.934	0.0144070
830.012	0.0144063
830.090	0.0143750
830.168	0.0144798
830.246	0.0145603
830.325	0.0144874
830.403	0.0144108
830.481	0.0144833
830.559	0.0145321
830.637	0.0144395
830.715	0.0146201
830.793	0.0144250
830.871	0.0144818
830.950	0.0145171
831.028	0.0143982
831.106	0.0145457
831.184	0.0144900
831.262	0.0143276
831.340	0.0144491
831.418	0.0145094
831.496	0.0144891
831.575	0.0144458
831.653	0.0143508
831.731	0.0143938
831.809	0.0143103
831.887	0.0144504
831.965	0.0144327
832.043	0.0143198
832.121	0.0143340
832.200	0.0144418
832.278	0.0143919
832.356	0.0143512
832.434	0.0144418
832.512	0.0145210
832.590	0.0145630
832.668	0.0146068
832.746	0.0144923
832.825	0.0145518
832.903	0.0145484
832.981	0.0144878
833.059	0.0145351
833.137	0.0145129
833.215	0.0145168
833.293	0.0145371
833.371	0.0145249
833.450	0.0144765
833.528	0.0145113
833.606	0.0143710
833.684	0.0144968
833.762	0.0144496
833.840	0.0142950
833.918	0.0144352
833.996	0.0143211
834.075	0.0142811
834.153	0.0142489
834.231	0.0142377
834.309	0.0143165
834.387	0.0143525
834.465	0.0142918
834.543	0.0142709
834.621	0.0144115
834.700	0.0143909
834.778	0.0144231
834.856	0.0143938
834.934	0.0144788
835.012	0.0144958
835.090	0.0145509
835.168	0.0145953
835.246	0.0146419
835.325	0.0145843
835.403	0.0145783
835.481	0.0145748
835.559	0.0146352
835.637	0.0144862
835.715	0.0145764
835.793	0.0145296
835.871	0.0144403
835.950	0.0144451
836.028	0.0145576
836.106	0.0144588
836.184	0.0143200
836.262	0.0143025
836.340	0.0143513
836.418	0.0143943
836.496	0.0143618
836.575	0.0144289
836.653	0.0144155
836.731	0.0145099
836.809	0.0145145
836.887	0.0144785
836.965	0.0145688
837.043	0.0144637
837.121	0.0144675
837.200	0.0145590
837.278	0.0144698
837.356	0.0144648
837.434	0.0144781
837.512	0.0144850
837.590	0.0146436
837.668	0.0144083
837.746	0.0143896
837.825	0.0144788
837.903	0.0143766
837.981	0.0144496
838.059	0.0144590
838.137	0.0144824
838.215	0.0144668
838.293	0.0144144
838.371	0.0144671
838.450	0.0145030
838.528	0.0145323
838.606	0.0145088
838.684	0.0145888
838.762	0.0145035
838.840	0.0145860
838.918	0.0146263
838.996	0.0145846
839.075	0.0145265
839.153	0.0143756
839.231	0.0146115
839.309	0.0144341
839.387	0.0143120
839.465	0.0143637
839.543	0.0144294
839.621	0.0144241
839.700	0.0143446
839.778	0.0143614
839.856	0.0144708
839.934	0.0143739
840.012	0.0142738
840.090	0.0143132
840.168	0.0144615
840.246	0.0144119
840.325	0.0144699
840.403	0.0145374
840.481	0.0144683
840.559	0.0144940
840.637	0.0145363
840.715	0.0146313
840.793	0.0145879
840.871	0.0147167
840.950	0.0145640
841.028	0.0146545
841.106	0.0145269
841.184	0.0145370
841.262	0.0146175
841.340	0.0144485
841.418	0.0142841
841.496	0.0143840
841.575	0.0144726
841.653	0.0144470
841.731	0.0142348
841.809	0.0142031
841.887	0.0142281
841.965	0.0144057
842.043	0.0142047
842.121	0.0142958
842.200	0.0143453
842.278	0.0143454
842.356	0.0144102
842.434	0.0146131
842.512	0.0145063
842.590	0.0145571
842.668	0.0145586
842.746	0.0145782
842.825	0.0145441
842.903	0.0146716
842.981	0.0147088
843.059	0.0146058
843.137	0.0146797
843.215	0.0144083
843.293	0.0143703
843.371	0.0145025
843.450	0.0144174
843.528	0.0144991
843.606	0.0142608
843.684	0.0141381
843.762	0.0143837
843.840	0.0142770
843.918	0.0142178
843.996	0.0143796
844.075	0.0145404
844.153	0.0142085
844.231	0.0142136
844.309	0.0145120
844.387	0.0144638
844.465	0.0146254
844.543	0.0145101
844.621	0.0144669
844.700	0.0144971
844.778	0.0145714
844.856	0.0145448
844.934	0.0144234
845.012	0.0145599
845.090	0.0147131
845.168	0.0146664
845.246	0.0145827
845.325	0.0145700
845.403	0.0144108
845.481	0.0144199
845.559	0.0145135
845.637	0.0144434
845.715	0.0143850
845.793	0.0143233
845.871	0.0143387
845.950	0.0143841
846.028	0.0145748
846.106	0.0143825
846.184	0.0143787
846.262	0.0145862
846.340	0.0142961
846.418	0.0144920
846.496	0.0146228
846.575	0.0144827
846.653	0.0144022
846.731	0.0144511
846.809	0.0147174
846.887	0.0144065
846.965	0.0144082
847.043	0.0144007
847.121	0.0143961
847.200	0.0144986
847.278	0.0145061
847.356	0.0143848
847.434	0.0145295
847.512	0.0143906
847.590	0.0145142
847.668	0.0143613
847.746	0.0143657
847.825	0.0143307
847.903	0.0143311
847.981	0.0144468
848.059	0.0143484
848.137	0.0142384
848.215	0.0143971
848.293	0.0145092
848.371	0.0143399
848.450	0.0145246
848.528	0.0144002
848.606	0.0144563
848.684	0.0144398
848.762	0.0143622
848.840	0.0144759
848.918	0.0144024
848.996	0.0144936
849.075	0.0144537
849.153	0.0145351
849.231	0.0143642
849.309	0.0144676
849.387	0.0145545
849.465	0.0144595
849.543	0.0144897
849.621	0.0145232
849.700	0.0144485
849.778	0.0144933
849.856	0.0145786
849.934	0.0145145
850.012	0.0145810
850.090	0.0145238
850.168	0.0145457
850.246	0.0145883
850.325	0.0144572
850.403	0.0143922
850.481	0.0145684
850.559	0.0144622
850.637	0.0144953
850.715	0.0144308
850.793	0.0144533
850.871	0.0143829
850.950	0.0145370
851.028	0.0144489
851.106	0.0142711
851.184	0.0143779
851.262	0.0143852
851.340	0.0143705
851.418	0.0143646
851.496	0.0144073
851.575	0.0143996
851.653	0.0143982
851.731	0.0143083
851.809	0.0143220
851.887	0.0144398
851.965	0.0146002
852.043	0.0144546
852.121	0.0143787
852.200	0.0145258
852.278	0.0145213
852.356	0.0144570
852.434	0.0145232
852.512	0.0144061
852.590	0.0144761
852.668	0.0145158
852.746	0.0144482
852.825	0.0144079
852.903	0.0143400
852.981	0.0143532
853.059	0.0144541
853.137	0.0144078
853.215	0.0144351
853.293	0.0143491
853.371	0.0143499
853.450	0.0142484
853.528	0.0142252
853.606	0.0143713
853.684	0.0143697
853.762	0.0145394
853.840	0.0145131
853.918	0.0144457
853.996	0.0144185
854.075	0.0144295
854.153	0.0144829
854.231	0.0145512
854.309	0.0145136
854.387	0.0145521
854.465	0.0145706
854.543	0.0145100
854.621	0.0145087
854.700	0.0144338
854.778	0.0145232
854.856	0.0144595
854.934	0.0145036
855.012	0.0145570
855.090	0.0144558
855.168	0.0143363
855.246	0.0143723
855.325	0.0143742
855.403	0.0143186
855.481	0.0143272
855.559	0.0144171
855.637	0.0142319
855.715	0.0142215
855.793	0.0143054
855.871	0.0144694
855.950	0.0143696
856.028	0.0144284
856.106	0.0142791
856.184	0.0142692
856.262	0.0144255
856.340	0.0144141
856.418	0.0144397
856.496	0.0143976
856.575	0.0143876
856.653	0.0143851
856.731	0.0145125
856.809	0.0144493
856.887	0.0145374
856.965	0.0146626
857.043	0.0146156
857.121	0.0143867
857.200	0.0144300
857.278	0.0144963
857.356	0.0144197
857.434	0.0144117
857.512	0.0144678
857.590	0.0143702
857.668	0.0143234
857.746	0.0144469
857.825	0.0143853
857.903	0.0143320
857.981	0.0143482
858.059	0.0143261
858.137	0.0143431
858.215	0.0142377
858.293	0.0144073
858.371	0.0143505
858.450	0.0143231
858.528	0.0143786
858.606	0.0144607
858.684	0.0144567
858.762	0.0144015
858.840	0.0144138
858.918	0.0144113
858.996	0.0146124
859.075	0.0144505
859.153	0.0143958
859.231	0.0145706
859.309	0.0144870
859.387	0.0144259
859.465	0.0144708
859.543	0.0143959
859.621	0.0143694
859.700	0.0144914
859.778	0.0143945
859.856	0.0143226
859.934	0.0144367
860.012	0.0142682
860.090	0.0144556
860.168	0.0143388
860.246	0.0143564
860.325	0.0143542
860.403	0.0143647
860.481	0.0143400
860.559	0.0143243
860.637	0.0143866
860.715	0.0144388
860.793	0.0144762
860.871	0.0143333
860.950	0.0143758
861.028	0.0142840
861.106	0.0144371
861.184	0.0143412
861.262	0.0142782
861.340	0.0145145
861.418	0.0144638
861.496	0.0145142
861.575	0.0143536
861.653	0.0144452
861.731	0.0143388
861.809	0.0143577
861.887	0.0144716
861.965	0.0144711
862.043	0.0144631
862.121	0.0143748
862.200	0.0143938
862.278	0.0144341
862.356	0.0144051
862.434	0.0144407
862.512	0.0145016
862.590	0.0143714
862.668	0.0144511
862.746	0.0143165
862.825	0.0145856
862.903	0.0143993
862.981	0.0143398
863.059	0.0143218
863.137	0.0143833
863.215	0.0144305
863.293	0.0144470
863.371	0.0144115
863.450	0.0143251
863.528	0.0144209
863.606	0.0144125
863.684	0.0144231
863.762	0.0144463
863.840	0.0143723
863.918	0.0143349
863.996	0.0143959
864.075	0.0144806
864.153	0.0144044
864.231	0.0143972
864.309	0.0144804
864.387	0.0144488
864.465	0.0145332
864.543	0.0143877
864.621	0.0143100
864.700	0.0144624
864.778	0.0145352
864.856	0.0145307
864.934	0.0146186
865.012	0.0144701
865.090	0.0145415
865.168	0.0144443
865.246	0.0143835
865.325	0.0142780
865.403	0.0143477
865.481	0.0143783
865.559	0.0144173
865.637	0.0143863
865.715	0.0143111
865.793	0.0143967
865.871	0.0143663
865.950	0.0143710
866.028	0.0143285
866.106	0.0144241
866.184	0.0142761
866.262	0.0144598
866.340	0.0143378
866.418	0.0144607
866.496	0.0144422
866.575	0.0146350
866.653	0.0145177
866.731	0.0145213
866.809	0.0146989
866.887	0.0146611
866.965	0.0145187
867.043	0.0145493
867.121	0.0145430
867.200	0.0145490
867.278	0.0145250
867.356	0.0144883
867.434	0.0143488
867.512	0.0143779
867.590	0.0144553
867.668	0.0143338
867.746	0.0143602
867.825	0.0144611
867.903	0.0143851
867.981	0.0145187
868.059	0.0143192
868.137	0.0143528
868.215	0.0142805
868.293	0.0142433
868.371	0.0143869
868.450	0.0144385
868.528	0.0144518
868.606	0.0143685
868.684	0.0143757
868.762	0.0144619
868.840	0.0144377
868.918	0.0145313
868.996	0.0143995
869.075	0.0143568
869.153	0.0145697
869.231	0.0146337
869.309	0.0143935
869.387	0.0143953
869.465	0.0144592
869.543	0.0143632
869.621	0.0144155
869.700	0.0143652
869.778	0.0144370
869.856	0.0144047
869.934	0.0142345
870.012	0.0143238
870.090	0.0144479
870.168	0.0143333
870.246	0.0143753
870.325	0.0143633
870.403	0.0143761
870.481	0.0142543
870.559	0.0141376
870.637	0.0142865
870.715	0.0143250
870.793	0.0142432
870.871	0.0143671
870.950	0.0143709
871.028	0.0143613
871.106	0.0145075
871.184	0.0144260
871.262	0.0143381
871.340	0.0143746
871.418	0.0145653
871.496	0.0145211
871.575	0.0144466
871.653	0.0144492
871.731	0.0144269
871.809	0.0145015
871.887	0.0145100
871.965	0.0144273
872.043	0.0144445
872.121	0.0143495
872.200	0.0144479
872.278	0.0144682
872.356	0.0142506
872.434	0.0143926
872.512	0.0142466
872.590	0.0143094
872.668	0.0142609
872.746	0.0143642
872.825	0.0143913
872.903	0.0143616
872.981	0.0143597
873.059	0.0144235
873.137	0.0143330
873.215	0.0144534
873.293	0.0143529
873.371	0.0144177
873.450	0.0144549
873.528	0.0145168
873.606	0.0143972
873.684	0.0144530
873.762	0.0145068
873.840	0.0143191
873.918	0.0144254
873.996	0.0144753
874.075	0.0143423
874.153	0.0143763
874.231	0.0142299
874.309	0.0143528
874.387	0.0144730
874.465	0.0143265
874.543	0.0142443
874.621	0.0143997
874.700	0.0143648
874.778	0.0145448
874.856	0.0143568
874.934	0.0145462
875.012	0.0144788
875.090	0.0143243
875.168	0.0144267
875.246	0.0144023
875.325	0.0143909
875.403	0.0145442
875.481	0.0143388
875.559	0.0144025
875.637	0.0144225
875.715	0.0143064
875.793	0.0143299
875.871	0.0142329
875.950	0.0143018
876.028	0.0144587
876.106	0.0143368
876.184	0.0143193
876.262	0.0144830
876.340	0.0142616
876.418	0.0143175
876.496	0.0144026
876.575	0.0144708
876.653	0.0144193
876.731	0.0144734
876.809	0.0144434
876.887	0.0145132
876.965	0.0144363
877.043	0.0144303
877.121	0.0145010
877.200	0.0145289
877.278	0.0145625
877.356	0.0144460
877.434	0.0143724
877.512	0.0143172
877.590	0.0144363
877.668	0.0144472
877.746	0.0145058
877.825	0.0145289
877.903	0.0144122
877.981	0.0145486
878.059	0.0143861
878.137	0.0143768
878.215	0.0144513
878.293	0.0143591
878.371	0.0144025
878.450	0.0143857
878.528	0.0143642
878.606	0.0142692
878.684	0.0143554
878.762	0.0144049
878.840	0.0143687
878.918	0.0142771
878.996	0.0143555
879.075	0.0143181
879.153	0.0143935
879.231	0.0143456
879.309	0.0143089
879.387	0.0143988
879.465	0.0143300
879.543	0.0144392
879.621	0.0143173
879.700	0.0143810
879.778	0.0144177
879.856	0.0144940
879.934	0.0143523
880.012	0.0144064
880.090	0.0144730
880.168	0.0145141
880.246	0.0145483
880.325	0.0143875
880.403	0.0143353
880.481	0.0144057
880.559	0.0143974
880.637	0.0143541
880.715	0.0143985
880.793	0.0144386
880.871	0.0144943
880.950	0.0143857
881.028	0.0143425
881.106	0.0143900
881.184	0.0143230
881.262	0.0142902
881.340	0.0143853
881.418	0.0143824
881.496	0.0143835
881.575	0.0143972
881.653	0.0144999
881.731	0.0144794
881.809	0.0145163
881.887	0.0144308
881.965	0.0145194
882.043	0.0145187
882.121	0.0143781
882.200	0.0143492
882.278	0.0144022
882.356	0.0144894
882.434	0.0144088
882.512	0.0143713
882.590	0.0144900
882.668	0.0143748
882.746	0.0143351
882.825	0.0146373
882.903	0.0143607
882.981	0.0144096
883.059	0.0144755
883.137	0.0143623
883.215	0.0144605
883.293	0.0144429
883.371	0.0144416
883.450	0.0143861
883.528	0.0144559
883.606	0.0142860
883.684	0.0142179
883.762	0.0142770
883.840	0.0144532
883.918	0.0143442
883.996	0.0142537
884.075	0.0143704
884.153	0.0143182
884.231	0.0143686
884.309	0.0143626
884.387	0.0143209
884.465	0.0142432
884.543	0.0144755
884.621	0.0145506
884.700	0.0144440
884.778	0.0143902
884.856	0.0144853
884.934	0.0144518
885.012	0.0145253
885.090	0.0146059
885.168	0.0145294
885.246	0.0144924
885.325	0.0144569
885.403	0.0144771
885.481	0.0145708
885.559	0.0145227
885.637	0.0143459
885.715	0.0144145
885.793	0.0145049
885.871	0.0144382
885.950	0.0144453
886.028	0.0144778
886.106	0.0143523
886.184	0.0144485
886.262	0.0144392
886.340	0.0143388
886.418	0.0143266
886.496	0.0143983
886.575	0.0144054
886.653	0.0143038
886.731	0.0142750
886.809	0.0144875
886.887	0.0143046
886.965	0.0143657
887.043	0.0144878
887.121	0.0145356
887.200	0.0145300
887.278	0.0145523
887.356	0.0145937
887.434	0.0143196
887.512	0.0143419
887.590	0.0144589
887.668	0.0145894
887.746	0.0144502
887.825	0.0145121
887.903	0.0145261
887.981	0.0146989
888.059	0.0144936
888.137	0.0144775
888.215	0.0145300
888.293	0.0144999
888.371	0.0145423
888.450	0.0145691
888.528	0.0145238
888.606	0.0145058
888.684	0.0143450
888.762	0.0143807
888.840	0.0144067
888.918	0.0143890
888.996	0.0144016
889.075	0.0143628
889.153	0.0144523
889.231	0.0144472
889.309	0.0144157
889.387	0.0144543
889.465	0.0145219
889.543	0.0144762
889.621	0.0145076
889.700	0.0145412
889.778	0.0145996
889.856	0.0145895
889.934	0.0145448
890.012	0.0145278
890.090	0.0146350
890.168	0.0146117
890.246	0.0144607
890.325	0.0144823
890.403	0.0145554
890.481	0.0144936
890.559	0.0143592
890.637	0.0142883
890.715	0.0143222
890.793	0.0145157
890.871	0.0143944
890.950	0.0144387
891.028	0.0142392
891.106	0.0142244
891.184	0.0144217
891.262	0.0143519
891.340	0.0143710
891.418	0.0143979
891.496	0.0144394
891.575	0.0143579
891.653	0.0143455
891.731	0.0144720
891.809	0.0144678
891.887	0.0145272
891.965	0.0144020
892.043	0.0142883
892.121	0.0143224
892.200	0.0143903
892.278	0.0143277
892.356	0.0143802
892.434	0.0143208
892.512	0.0145541
892.590	0.0143157
892.668	0.0142872
892.746	0.0143611
892.825	0.0144440
892.903	0.0143102
892.981	0.0143059
893.059	0.0142912
893.137	0.0143237
893.215	0.0143922
893.293	0.0143172
893.371	0.0143433
893.450	0.0143087
893.528	0.0144369
893.606	0.0144873
893.684	0.0143535
893.762	0.0143797
893.840	0.0143417
893.918	0.0144648
893.996	0.0144746
894.075	0.0145389
894.153	0.0144160
894.231	0.0144740
894.309	0.0143924
894.387	0.0144842
894.465	0.0144589
894.543	0.0142982
894.621	0.0143958
894.700	0.0144826
894.778	0.0144456
894.856	0.0145072
894.934	0.0144186
895.012	0.0143159
895.090	0.0143039
895.168	0.0143302
895.246	0.0145105
895.325	0.0144577
895.403	0.0144020
895.481	0.0143985
895.559	0.0144239
895.637	0.0143523
895.715	0.0143455
895.793	0.0145043
895.871	0.0143980
895.950	0.0143525
896.028	0.0144440
896.106	0.0145187
896.184	0.0143991
896.262	0.0143986
896.340	0.0145058
896.418	0.0144537
896.496	0.0143849
896.575	0.0142683
896.653	0.0142784
896.731	0.0143042
896.809	0.0143785
896.887	0.0143851
896.965	0.0144678
897.043	0.0145139
897.121	0.0144164
897.200	0.0145382
897.278	0.0144380
897.356	0.0144383
897.434	0.0145609
897.512	0.0144933
897.590	0.0144502
897.668	0.0143945
897.746	0.0144554
897.825	0.0145430
897.903	0.0144118
897.981	0.0144750
898.059	0.0143613
898.137	0.0142725
898.215	0.0143519
898.293	0.0142963
898.371	0.0142707
898.450	0.0142542
898.528	0.0144661
898.606	0.0143491
898.684	0.0143043
898.762	0.0143947
898.840	0.0144725
898.918	0.0144740
898.996	0.0144358
899.075	0.0145421
899.153	0.0145004
899.231	0.0145874
899.309	0.0146638
899.387	0.0146515
899.465	0.0144483
899.543	0.0145892
899.621	0.0145355
899.700	0.0144397
899.778	0.0142892
899.856	0.0143846
899.934	0.0143671
900.012	0.0143014
900.090	0.0143128
900.168	0.0142305
900.246	0.0143219
900.325	0.0145326
900.403	0.0143724
900.481	0.0143917
900.559	0.0144956
900.637	0.0145438
900.715	0.0145292
900.793	0.0145525
900.871	0.0144467
900.950	0.0145528
901.028	0.0145277
901.106	0.0145695
901.184	0.0144859
901.262	0.0143964
901.340	0.0144043
901.418	0.0145216
901.496	0.0145779
901.575	0.0143068
901.653	0.0142556
901.731	0.0142377
901.809	0.0142285
901.887	0.0143250
901.965	0.0143044
902.043	0.0143083
902.121	0.0142856
902.200	0.0143549
902.278	0.0143844
902.356	0.0145773
902.434	0.0145031
902.512	0.0144865
902.590	0.0145440
902.668	0.0145596
902.746	0.0145412
902.825	0.0144724
902.903	0.0145667
902.981	0.0145652
903.059	0.0144290
903.137	0.0147233
903.215	0.0146301
903.293	0.0146511
903.371	0.0146309
903.450	0.0148547
903.528	0.0145963
903.606	0.0146073
903.684	0.0147100
903.762	0.0146446
903.840	0.0146239
903.918	0.0146543
903.996	0.0144112
904.075	0.0143193
904.153	0.0143162
904.231	0.0143454
904.309	0.0141715
904.387	0.0140813
904.465	0.0140907
904.543	0.0140804
904.621	0.0140675
904.700	0.0141171
904.778	0.0140780
904.856	0.0141125
904.934	0.0142546
905.012	0.0143885
905.090	0.0143790
905.168	0.0144366
905.246	0.0145573
905.325	0.0146525
905.403	0.0147077
905.481	0.0148101
905.559	0.0150719
905.637	0.0149720
905.715	0.0148380
905.793	0.0149102
905.871	0.0149277
905.950	0.0146693
906.028	0.0146059
906.106	0.0145336
906.184	0.0142424
906.262	0.0142882
906.340	0.0141986
906.418	0.0139944
906.496	0.0139603
906.575	0.0139599
906.653	0.0137768
906.731	0.0139150
906.809	0.0137581
906.887	0.0136511
906.965	0.0140020
907.043	0.0140990
907.121	0.0141576
907.200	0.0141857
907.278	0.0143761
907.356	0.0145919
907.434	0.0146318
907.512	0.0146748
907.590	0.0148874
907.668	0.0149680
907.746	0.0149595
907.825	0.0148613
907.903	0.0147813
907.981	0.0147304
908.059	0.0146529
908.137	0.0146267
908.215	0.0146030
908.293	0.0144426
908.371	0.0143040
908.450	0.0142849
908.528	0.0142176
908.606	0.0140493
908.684	0.0141599
908.762	0.0140858
908.840	0.0141516
908.918	0.0142404
908.996	0.0142384
909.075	0.0142497
909.153	0.0142561
909.231	0.0143514
909.309	0.0144537
909.387	0.0143661
909.465	0.0145855
909.543	0.0145964
909.621	0.0146867
909.700	0.0146398
909.778	0.0146580
909.856	0.0147036
909.934	0.0147445
910.012	0.0147508
910.090	0.0145777
910.168	0.0147549
910.246	0.0145159
910.325	0.0143681
910.403	0.0144223
910.481	0.0143108
910.559	0.0144306
910.637	0.0144131
910.715	0.0142702
910.793	0.0142223
910.871	0.0142072
910.950	0.0142690
911.028	0.0142163
911.106	0.0141686
911.184	0.0143941
911.262	0.0143499
911.340	0.0142974
911.418	0.0143649
911.496	0.0144339
911.575	0.0145348
911.653	0.0144620
911.731	0.0145876
911.809	0.0145574
911.887	0.0147358
911.965	0.0147647
912.043	0.0146923
912.121	0.0146348
912.200	0.0145368
912.278	0.0145295
912.356	0.0145816
912.434	0.0144073
912.512	0.0144111
912.590	0.0143343
912.668	0.0143611
912.746	0.0144215
912.825	0.0141284
912.903	0.0142038
912.981	0.0143746
913.059	0.0143246
913.137	0.0143562
913.215	0.0143281
913.293	0.0143801
913.371	0.0142568
913.450	0.0144161
913.528	0.0145550
913.606	0.0144610
913.684	0.0146606
913.762	0.0145894
913.840	0.0146033
913.918	0.0146814
913.996	0.0146930
914.075	0.0145946
914.153	0.0145345
914.231	0.0145538
914.309	0.0145377
914.387	0.0144651
914.465	0.0144164
914.543	0.0144364
914.621	0.0144389
914.700	0.0143102
914.778	0.0143454
914.856	0.0143969
914.934	0.0143551
915.012	0.0144012
915.090	0.0143890
915.168	0.0144357
915.246	0.0146783
915.325	0.0144032
915.403	0.0146474
915.481	0.0146230
915.559	0.0144975
915.637	0.0145173
915.715	0.0145800
915.793	0.0144666
915.871	0.0143391
915.950	0.0145544
916.028	0.0145922
916.106	0.0143839
916.184	0.0142763
916.262	0.0142436
916.340	0.0143140
916.418	0.0143553
916.496	0.0143069
916.575	0.0142393
916.653	0.0141637
916.731	0.0141267
916.809	0.0140807
916.887	0.0142931
916.965	0.0143256
917.043	0.0143855
917.121	0.0143647
917.200	0.0142643
917.278	0.0145150
917.356	0.0145641
917.434	0.0145789
917.512	0.0145889
917.590	0.0146191
917.668	0.0146722
917.746	0.0147047
917.825	0.0147231
917.903	0.0146453
917.981	0.0146401
918.059	0.0146476
918.137	0.0146614
918.215	0.0144754
918.293	0.0144890
918.371	0.0143719
918.450	0.0142235
918.528	0.0143378
918.606	0.0141129
918.684	0.0141389
918.762	0.0141491
918.840	0.0139994
918.918	0.0141275
918.996	0.0141438
919.075	0.0141835
919.153	0.0141915
919.231	0.0142158
919.309	0.0143166
919.387	0.0144106
919.465	0.0145147
919.543	0.0143371
919.621	0.0146046
919.700	0.0147511
919.778	0.0145935
919.856	0.0146716
919.934	0.0146959
920.012	0.0147028
920.090	0.0147421
920.168	0.0147058
920.246	0.0148418
920.325	0.0145595
920.403	0.0146046
920.481	0.0145808
920.559	0.0146212
920.637	0.0144360
920.715	0.0145355
920.793	0.0144391
920.871	0.0143535
920.950	0.0143121
921.028	0.0142001
921.106	0.0141167
921.184	0.0140452
921.262	0.0141747
921.340	0.0141948
921.418	0.0140060
921.496	0.0141944
921.575	0.0141116
921.653	0.0143610
921.731	0.0144631
921.809	0.0143636
921.887	0.0145475
921.965	0.0145187
922.043	0.0146496
922.121	0.0147081
922.200	0.0146937
922.278	0.0148812
922.356	0.0148107
922.434	0.0147536
922.512	0.0148967
922.590	0.0147417
922.668	0.0146207
922.746	0.0146060
922.825	0.0146529
922.903	0.0143977
922.981	0.0144404
923.059	0.0144176
923.137	0.0142914
923.215	0.0142241
923.293	0.0141774
923.371	0.0141833
923.450	0.0142126
923.528	0.0141496
923.606	0.0141679
923.684	0.0142217
923.762	0.0143961
923.840	0.0143214
923.918	0.0143103
923.996	0.0144151
924.075	0.0144563
924.153	0.0146439
924.231	0.0146000
924.309	0.0146130
924.387	0.0144514
924.465	0.0145470
924.543	0.0145830
924.621	0.0144898
924.700	0.0145276
924.778	0.0144814
924.856	0.0145277
924.934	0.0144311
925.012	0.0143501
925.090	0.0144305
925.168	0.0144254
925.246	0.0144548
925.325	0.0144470
925.403	0.0142685
925.481	0.0143375
925.559	0.0143246
925.637	0.0143771
925.715	0.0143133
925.793	0.0144360
925.871	0.0142878
925.950	0.0143423
926.028	0.0143817
926.106	0.0145048
926.184	0.0145194
926.262	0.0144906
926.340	0.0144034
926.418	0.0146259
926.496	0.0146395
926.575	0.0146517
926.653	0.0146810
926.731	0.0146873
926.809	0.0147356
926.887	0.0145591
926.965	0.0145173
927.043	0.0144910
927.121	0.0144788
927.200	0.0144379
927.278	0.0145029
927.356	0.0144354
927.434	0.0146053
927.512	0.0144115
927.590	0.0143430
927.668	0.0143435
927.746	0.0143298
927.825	0.0144312
927.903	0.0143873
927.981	0.0144547
928.059	0.0143761
928.137	0.0144765
928.215	0.0143877
928.293	0.0144109
928.371	0.0145892
928.450	0.0146084
928.528	0.0144099
928.606	0.0144424
928.684	0.0145187
928.762	0.0145544
928.840	0.0144739
928.918	0.0144846
928.996	0.0143620
929.075	0.0145206
929.153	0.0145461
929.231	0.0146290
929.309	0.0145077
929.387	0.0145809
929.465	0.0145383
929.543	0.0144664
929.621	0.0145473
929.700	0.0144401
929.778	0.0143594
929.856	0.0145286
929.934	0.0145451
930.012	0.0143653
930.090	0.0145101
930.168	0.0143368
930.246	0.0143295
930.325	0.0143110
930.403	0.0144367
930.481	0.0143572
930.559	0.0143119
930.637	0.0144212
930.715	0.0142541
930.793	0.0142587
930.871	0.0143097
930.950	0.0143395
931.028	0.0143974
931.106	0.0142599
931.184	0.0142783
931.262	0.0145475
931.340	0.0144620
931.418	0.0145979
931.496	0.0145524
931.575	0.0144688
931.653	0.0145953
931.731	0.0146133
931.809	0.0146214
931.887	0.0145631
931.965	0.0146997
932.043	0.0146088
932.121	0.0147169
932.200	0.0147372
932.278	0.0146177
932.356	0.0146115
932.434	0.0144603
932.512	0.0144589
932.590	0.0143427
932.668	0.0143900
932.746	0.0142725
932.825	0.0142221
932.903	0.0143542
932.981	0.0143099
933.059	0.0142827
933.137	0.0141898
933.215	0.0142251
933.293	0.0142091
933.371	0.0142288
933.450	0.0141698
933.528	0.0142765
933.606	0.0142727
933.684	0.0143687
933.762	0.0143636
933.840	0.0144634
933.918	0.0145507
933.996	0.0144907
934.075	0.0144691
934.153	0.0144985
934.231	0.0144450
934.309	0.0145499
934.387	0.0146262
934.465	0.0145684
934.543	0.0145025
934.621	0.0144563
934.700	0.0144521
934.778	0.0145266
934.856	0.0142899
934.934	0.0142090
935.012	0.0142140
935.090	0.0142742
935.168	0.0142562
935.246	0.0141324
935.325	0.0141252
935.403	0.0141869
935.481	0.0142325
935.559	0.0143089
935.637	0.0144076
935.715	0.0144068
935.793	0.0143180
935.871	0.0143594
935.950	0.0143000
936.028	0.0144167
936.106	0.0144986
936.184	0.0145609
936.262	0.0144629
936.340	0.0145388
936.418	0.0145087
936.496	0.0144782
936.575	0.0146038
936.653	0.0145119
936.731	0.0145676
936.809	0.0145294
936.887	0.0143115
936.965	0.0144242
937.043	0.0144183
937.121	0.0143739
937.200	0.0143344
937.278	0.0143554
937.356	0.0143433
937.434	0.0143259
937.512	0.0142881
937.590	0.0142543
937.668	0.0144306
937.746	0.0143068
937.825	0.0143204
937.903	0.0142477
937.981	0.0143260
938.059	0.0143459
938.137	0.0142918
938.215	0.0143921
938.293	0.0144557
938.371	0.0144399
938.450	0.0143220
938.528	0.0143664
938.606	0.0145529
938.684	0.0144624
938.762	0.0145973
938.840	0.0145010
938.918	0.0145493
938.996	0.0145957
939.075	0.0144305
939.153	0.0146297
939.231	0.0145525
939.309	0.0145100
939.387	0.0145183
939.465	0.0145065
939.543	0.0145291
939.621	0.0145208
939.700	0.0144537
939.778	0.0143822
939.856	0.0144267
939.934	0.0144899
940.012	0.0143151
940.090	0.0143558
940.168	0.0143084
940.246	0.0143764
940.325	0.0144186
940.403	0.0143294
940.481	0.0142662
940.559	0.0143088
940.637	0.0144949
940.715	0.0144455
940.793	0.0144225
940.871	0.0143986
940.950	0.0144234
941.028	0.0145447
941.106	0.0145634
941.184	0.0144605
941.262	0.0144487
941.340	0.0144852
941.418	0.0145975
941.496	0.0145959
941.575	0.0146391
941.653	0.0145702
941.731	0.0145056
941.809	0.0145715
941.887	0.0145268
941.965	0.0143769
942.043	0.0145024
942.121	0.0144497
942.200	0.0143783
942.278	0.0143335
942.356	0.0143133
942.434	0.0143374
942.512	0.0142294
942.590	0.0143002
942.668	0.0142867
942.746	0.0142489
942.825	0.0142365
942.903	0.0144233
942.981	0.0143919
943.059	0.0142691
943.137	0.0144167
943.215	0.0142862
943.293	0.0143742
943.371	0.0143726
943.450	0.0146038
943.528	0.0146394
943.606	0.0146375
943.684	0.0145835
943.762	0.0145531
943.840	0.0146803
943.918	0.0145994
943.996	0.0146011
944.075	0.0146495
944.153	0.0145763
944.231	0.0145943
944.309	0.0145940
944.387	0.0144642
944.465	0.0145338
944.543	0.0144196
944.621	0.0143426
944.700	0.0143458
944.778	0.0143481
944.856	0.0142931
944.934	0.0142980
945.012	0.0143412
945.090	0.0142102
945.168	0.0142187
945.246	0.0142744
945.325	0.0142887
945.403	0.0143392
945.481	0.0142178
945.559	0.0143259
945.637	0.0143558
945.715	0.0143785
945.793	0.0145771
945.871	0.0144744
945.950	0.0146143
946.028	0.0147121
946.106	0.0146597
946.184	0.0144528
946.262	0.0144875
946.340	0.0144622
946.418	0.0147880
946.496	0.0147186
946.575	0.0147591
946.653	0.0147066
946.731	0.0146872
946.809	0.0146581
946.887	0.0145033
946.965	0.0145011
947.043	0.0143931
947.121	0.0144507
947.200	0.0144510
947.278	0.0144155
947.356	0.0143398
947.434	0.0141803
947.512	0.0141210
947.590	0.0143430
947.668	0.0141961
947.746	0.0141225
947.825	0.0142479
947.903	0.0142131
947.981	0.0142651
948.059	0.0142940
948.137	0.0142459
948.215	0.0143995
948.293	0.0144540
948.371	0.0143635
948.450	0.0145356
948.528	0.0145199
948.606	0.0144221
948.684	0.0144703
948.762	0.0144732
948.840	0.0145287
948.918	0.0145924
948.996	0.0145341
949.075	0.0145319
949.153	0.0145544
949.231	0.0145848
949.309	0.0145058
949.387	0.0144255
949.465	0.0145403
949.543	0.0143494
949.621	0.0143635
949.700	0.0143858
949.778	0.0144110
949.856	0.0143481
949.934	0.0142844
950.012	0.0142738
950.090	0.0142958
950.168	0.0143078
950.246	0.0142264
950.325	0.0142017
950.403	0.0143574
950.481	0.0143181
950.559	0.0142249
950.637	0.0143504
950.715	0.0144839
950.793	0.0143410
950.871	0.0143012
950.950	0.0143988
951.028	0.0144481
951.106	0.0145280
951.184	0.0144365
951.262	0.0143494
951.340	0.0146062
951.418	0.0145559
951.496	0.0145733
951.575	0.0144545
951.653	0.0145429
951.731	0.0144045
951.809	0.0145164
951.887	0.0144569
951.965	0.0144164
952.043	0.0144541
952.121	0.0143726
952.200	0.0144656
952.278	0.0143687
952.356	0.0143819
952.434	0.0143012
952.512	0.0143501
952.590	0.0143545
952.668	0.0142612
952.746	0.0144185
952.825	0.0142711
952.903	0.0142587
952.981	0.0143368
953.059	0.0143882
953.137	0.0143552
953.215	0.0144054
953.293	0.0144527
953.371	0.0143317
953.450	0.0143876
953.528	0.0144546
953.606	0.0143842
953.684	0.0144264
953.762	0.0144960
953.840	0.0145204
953.918	0.0143916
953.996	0.0144965
954.075	0.0143716
954.153	0.0143275
954.231	0.0143938
954.309	0.0144188
954.387	0.0142403
954.465	0.0143998
954.543	0.0144550
954.621	0.0143272
954.700	0.0142522
954.778	0.0143316
954.856	0.0142411
954.934	0.0143069
955.012	0.0142779
955.090	0.0143055
955.168	0.0144172
955.246	0.0143500
955.325	0.0142006
955.403	0.0142183
955.481	0.0143600
955.559	0.0143858
955.637	0.0144675
955.715	0.0144763
955.793	0.0143927
955.871	0.0144648
955.950	0.0144679
956.028	0.0144941
956.106	0.0143027
956.184	0.0144234
956.262	0.0145280
956.340	0.0142575
956.418	0.0143410
956.496	0.0144674
956.575	0.0144928
956.653	0.0142999
956.731	0.0143726
956.809	0.0144769
956.887	0.0143676
956.965	0.0145231
957.043	0.0144820
957.121	0.0146398
957.200	0.0145495
957.278	0.0146021
957.356	0.0144147
957.434	0.0143758
957.512	0.0144155
957.590	0.0144647
957.668	0.0143996
957.746	0.0143594
957.825	0.0143729
957.903	0.0144370
957.981	0.0143845
958.059	0.0144187
958.137	0.0143826
958.215	0.0142915
958.293	0.0143329
958.371	0.0143226
958.450	0.0143298
958.528	0.0144209
958.606	0.0143415
958.684	0.0143217
958.762	0.0144329
958.840	0.0144092
958.918	0.0143643
958.996	0.0144381
959.075	0.0144917
959.153	0.0145433
959.231	0.0144702
959.309	0.0144130
959.387	0.0143497
959.465	0.0144923
959.543	0.0143755
959.621	0.0144151
959.700	0.0142500
959.778	0.0143440
959.856	0.0143131
959.934	0.0143694
960.012	0.0143630
960.090	0.0142478
960.168	0.0142521
960.246	0.0143366
960.325	0.0143839
960.403	0.0142690
960.481	0.0142372
960.559	0.0143262
960.637	0.0143240
960.715	0.0143358
960.793	0.0144553
960.871	0.0144198
960.950	0.0144425
961.028	0.0143327
961.106	0.0144585
961.184	0.0143923
961.262	0.0144441
961.340	0.0143938
961.418	0.0145235
961.496	0.0145186
961.575	0.0143977
961.653	0.0144923
961.731	0.0143948
961.809	0.0143434
961.887	0.0144673
961.965	0.0144988
962.043	0.0144041
962.121	0.0144158
962.200	0.0143976
962.278	0.0143925
962.356	0.0143571
962.434	0.0143081
962.512	0.0143994
962.590	0.0144540
962.668	0.0144372
962.746	0.0144040
962.825	0.0144118
962.903	0.0143955
962.981	0.0144030
963.059	0.0144027
963.137	0.0143578
963.215	0.0144076
963.293	0.0144714
963.371	0.0143745
963.450	0.0145202
963.528	0.0144889
963.606	0.0144260
963.684	0.0144859
963.762	0.0145737
963.840	0.0144498
963.918	0.0146271
963.996	0.0144760
964.075	0.0143148
964.153	0.0144169
964.231	0.0144371
964.309	0.0144289
964.387	0.0143353
964.465	0.0144656
964.543	0.0142764
964.621	0.0143369
964.700	0.0142544
964.778	0.0142150
964.856	0.0143571
964.934	0.0144537
965.012	0.0144789
965.090	0.0143928
965.168	0.0143648
965.246	0.0145712
965.325	0.0144139
965.403	0.0145329
965.481	0.0146306
965.559	0.0146018
965.637	0.0145419
965.715	0.0145009
965.793	0.0144680
965.871	0.0144827
965.950	0.0144659
966.028	0.0143919
966.106	0.0142915
966.184	0.0143846
966.262	0.0144011
966.340	0.0142834
966.418	0.0143411
966.496	0.0144762
966.575	0.0143575
966.653	0.0143576
966.731	0.0143218
966.809	0.0144717
966.887	0.0144039
966.965	0.0145010
967.043	0.0144415
967.121	0.0143314
967.200	0.0144379
967.278	0.0144696
967.356	0.0143970
967.434	0.0145504
967.512	0.0145486
967.590	0.0143698
967.668	0.0143931
967.746	0.0144279
967.825	0.0144255
967.903	0.0143871
967.981	0.0143546
968.059	0.0144202
968.137	0.0145293
968.215	0.0144166
968.293	0.0144196
968.371	0.0143153
968.450	0.0142699
968.528	0.0144402
968.606	0.0144314
968.684	0.0143525
968.762	0.0144765
968.840	0.0145625
968.918	0.0143945
968.996	0.0144147
969.075	0.0143738
969.153	0.0144396
969.231	0.0143967
969.309	0.0144630
969.387	0.0144434
969.465	0.0145185
969.543	0.0144711
969.621	0.0144659
969.700	0.0145457
969.778	0.0144592
969.856	0.0143895
969.934	0.0143329
970.012	0.0144520
970.090	0.0144273
970.168	0.0144475
970.246	0.0142896
970.325	0.0143984
970.403	0.0143862
970.481	0.0141767
970.559	0.0143116
970.637	0.0143435
970.715	0.0142711
970.793	0.0142182
970.871	0.0143793
970.950	0.0143018
971.028	0.0142842
971.106	0.0145016
971.184	0.0144106
971.262	0.0144379
971.340	0.0143092
971.418	0.0144662
971.496	0.0145556
971.575	0.0143607
971.653	0.0143990
971.731	0.0146000
971.809	0.0145564
971.887	0.0144505
971.965	0.0144067
972.043	0.0144378
972.121	0.0143270
972.200	0.0141831
972.278	0.0144392
972.356	0.0143980
972.434	0.0142273
972.512	0.0142870
972.590	0.0143710
972.668	0.0144070
972.746	0.0143383
972.825	0.0142345
972.903	0.0143372
972.981	0.0145203
973.059	0.0144860
973.137	0.0143831
973.215	0.0143841
973.293	0.0143906
973.371	0.0145129
973.450	0.0144713
973.528	0.0145164
973.606	0.0144687
973.684	0.0144794
973.762	0.0145234
973.840	0.0145038
973.918	0.0144250
973.996	0.0143565
974.075	0.0142403
974.153	0.0144324
974.231	0.0144736
974.309	0.0142224
974.387	0.0142766
974.465	0.0142788
974.543	0.0142281
974.621	0.0144050
974.700	0.0144757
974.778	0.0144134
974.856	0.0143584
974.934	0.0143777
975.012	0.0143900
975.090	0.0144389
975.168	0.0144250
975.246	0.0143966
975.325	0.0143571
975.403	0.0144595
975.481	0.0143946
975.559	0.0144009
975.637	0.0143404
975.715	0.0144102
975.793	0.0143481
975.871	0.0143910
975.950	0.0142323
976.028	0.0145625
976.106	0.0143997
976.184	0.0143174
976.262	0.0142760
976.340	0.0142747
976.418	0.0144897
976.496	0.0143507
976.575	0.0143459
976.653	0.0143716
976.731	0.0143102
976.809	0.0143470
976.887	0.0143739
976.965	0.0144666
977.043	0.0144234
977.121	0.0143343
977.200	0.0143593
977.278	0.0142609
977.356	0.0143732
977.434	0.0143991
977.512	0.0143661
977.590	0.0143967
977.668	0.0144050
977.746	0.0145051
977.825	0.0145149
977.903	0.0144031
977.981	0.0143579
978.059	0.0144298
978.137	0.0144492
978.215	0.0143414
978.293	0.0143475
978.371	0.0144015
978.450	0.0144769
978.528	0.0143479
978.606	0.0143304
978.684	0.0143934
978.762	0.0143855
978.840	0.0143085
978.918	0.0142477
978.996	0.0143655
979.075	0.0144802
979.153	0.0142458
979.231	0.0142417
979.309	0.0143962
979.387	0.0144837
979.465	0.0142709
979.543	0.0142858
979.621	0.0142733
979.700	0.0144205
979.778	0.0143748
979.856	0.0143432
979.934	0.0143742
980.012	0.0143053
980.090	0.0144604
980.168	0.0144127
980.246	0.0143803
980.325	0.0143243
980.403	0.0143066
980.481	0.0144099
980.559	0.0143113
980.637	0.0143949
980.715	0.0143152
980.793	0.0142031
980.871	0.0143875
980.950	0.0144817
981.028	0.0143045
981.106	0.0143423
981.184	0.0144623
981.262	0.0144362
981.340	0.0145641
981.418	0.0143461
981.496	0.0143610
981.575	0.0145052
981.653	0.0143299
981.731	0.0143121
981.809	0.0143582
981.887	0.0144157
981.965	0.0144274
982.043	0.0144986
982.121	0.0144804
982.200	0.0144637
982.278	0.0143300
982.356	0.0143684
982.434	0.0143438
982.512	0.0143772
982.590	0.0141595
982.668	0.0141196
982.746	0.0144466
982.825	0.0143911
982.903	0.0143982
982.981	0.0143485
983.059	0.0142004
983.137	0.0142647
983.215	0.0142543
983.293	0.0143671
983.371	0.0143337
983.450	0.0143430
983.528	0.0143533
983.606	0.0143674
983.684	0.0144505
983.762	0.0144772
983.840	0.0143616
983.918	0.0142926
983.996	0.0144762
984.075	0.0143811
984.153	0.0143410
984.231	0.0144307
984.309	0.0144404
984.387	0.0144544
984.465	0.0143144
984.543	0.0144132
984.621	0.0144189
984.700	0.0145293
984.778	0.0144273
984.856	0.0143339
984.934	0.0143192
985.012	0.0143722
985.090	0.0142530
985.168	0.0143336
985.246	0.0143394
985.325	0.0143692
985.403	0.0144046
985.481	0.0143135
985.559	0.0142725
985.637	0.0144004
985.715	0.0143864
985.793	0.0142931
985.871	0.0144128
985.950	0.0144972
986.028	0.0144169
986.106	0.0143965
986.184	0.0144464
986.262	0.0145226
986.340	0.0143930
986.418	0.0144579
986.496	0.0145006
986.575	0.0144022
986.653	0.0142202
986.731	0.0142596
986.809	0.0142524
986.887	0.0143380
986.965	0.0144213
987.043	0.0143833
987.121	0.0143709
987.200	0.0142738
987.278	0.0144349
987.356	0.0143166
987.434	0.0142418
987.512	0.0144033
987.590	0.0144132
987.668	0.0144150
987.746	0.0144795
987.825	0.0144482
987.903	0.0143851
987.981	0.0144113
988.059	0.0145110
988.137	0.0143570
988.215	0.0144540
988.293	0.0144532
988.371	0.0143900
988.450	0.0144213
988.528	0.0144944
988.606	0.0144218
988.684	0.0144494
988.762	0.0144141
988.840	0.0142831
988.918	0.0142828
988.996	0.0144405
989.075	0.0143526
989.153	0.0144924
989.231	0.0144345
989.309	0.0143159
989.387	0.0143972
989.465	0.0143666
989.543	0.0143862
989.621	0.0143618
989.700	0.0143844
989.778	0.0144558
989.856	0.0144503
989.934	0.0144929
990.012	0.0144276
990.090	0.0144791
990.168	0.0144682
990.246	0.0145251
990.325	0.0144901
990.403	0.0143447
990.481	0.0144831
990.559	0.0143088
990.637	0.0143263
990.715	0.0143562
990.793	0.0143559
990.871	0.0142781
990.950	0.0142417
991.028	0.0142706
991.106	0.0142859
991.184	0.0141828
991.262	0.0143405
991.340	0.0142803
991.418	0.0144386
991.496	0.0142599
991.575	0.0143111
991.653	0.0144369
991.731	0.0144064
991.809	0.0143891
991.887	0.0145193
991.965	0.0144682
992.043	0.0144765
992.121	0.0143850
992.200	0.0145120
992.278	0.0145607
992.356	0.0144633
992.434	0.0144343
992.512	0.0143529
992.590	0.0143822
992.668	0.0144012
992.746	0.0144548
992.825	0.0144035
992.903	0.0144444
992.981	0.0143470
993.059	0.0143734
993.137	0.0144189
993.215	0.0143903
993.293	0.0143159
993.371	0.0144609
993.450	0.0144566
993.528	0.0143123
993.606	0.0143187
993.684	0.0143665
993.762	0.0144398
993.840	0.0144613
993.918	0.0144298
993.996	0.0143967
994.075	0.0143797
994.153	0.0144199
994.231	0.0143774
994.309	0.0145123
994.387	0.0144356
994.465	0.0143734
994.543	0.0144096
994.621	0.0143916
994.700	0.0143669
994.778	0.0143303
994.856	0.0143908
994.934	0.0144573
995.012	0.0144778
995.090	0.0143372
995.168	0.0143079
995.246	0.0143525
995.325	0.0144202
995.403	0.0144186
995.481	0.0143295
995.559	0.0144898
995.637	0.0144014
995.715	0.0143824
995.793	0.0143951
995.871	0.0144610
995.950	0.0143892
996.028	0.0143373
996.106	0.0144572
996.184	0.0144123
996.262	0.0143356
996.340	0.0145348
996.418	0.0142852
996.496	0.0143520
996.575	0.0142023
996.653	0.0143504
996.731	0.0143400
996.809	0.0142289
996.887	0.0144066
996.965	0.0145416
997.043	0.0145309
997.121	0.0144591
997.200	0.0145119
997.278	0.0143517
997.356	0.0144210
997.434	0.0144765
997.512	0.0144674
997.590	0.0144244
997.668	0.0144253
997.746	0.0145563
997.825	0.0143920
997.903	0.0144116
997.981	0.0144756
998.059	0.0145166
998.137	0.0143504
998.215	0.0143031
998.293	0.0144351
998.371	0.0143711
998.450	0.0142318
998.528	0.0143283
998.606	0.0143058
998.684	0.0142763
998.762	0.0142919
998.840	0.0142162
998.918	0.0143560
