05/04/2022	21:03:27	Ver.	4.1	UNKNOWN
Optical Delay	678.996401	Delta X		0.078125	Sweeps	1	Scan Rate	0/0
Coordinates	Axis 1	NaN	Axis 2	NaN	Axis 3	NaN	Axis 4	NaN	Axis 5	NaN	Axis 6	0.000000
TX Power	0.000000	RX Power	0.000000

678.996	0.0144831
679.075	0.0144758
679.153	0.0144459
679.231	0.0145445
679.309	0.0145080
679.387	0.0144559
679.465	0.0144398
679.543	0.0144606
679.621	0.0145129
679.700	0.0145380
679.778	0.0145277
679.856	0.0145970
679.934	0.0144115
680.012	0.0145125
680.090	0.0145042
680.168	0.0145760
680.246	0.0145929
680.325	0.0145695
680.403	0.0145203
680.481	0.0143903
680.559	0.0145599
680.637	0.0144772
680.715	0.0145621
680.793	0.0144813
680.871	0.0144691
680.950	0.0145365
681.028	0.0144770
681.106	0.0145490
681.184	0.0145202
681.262	0.0144303
681.340	0.0145197
681.418	0.0146234
681.496	0.0146034
681.575	0.0145466
681.653	0.0144137
681.731	0.0145705
681.809	0.0145145
681.887	0.0144847
681.965	0.0144172
682.043	0.0145371
682.121	0.0145832
682.200	0.0144376
682.278	0.0145191
682.356	0.0144724
682.434	0.0145223
682.512	0.0144650
682.590	0.0143752
682.668	0.0144211
682.746	0.0145831
682.825	0.0145982
682.903	0.0144746
682.981	0.0143198
683.059	0.0144404
683.137	0.0145136
683.215	0.0144170
683.293	0.0144686
683.371	0.0145107
683.450	0.0144108
683.528	0.0143809
683.606	0.0144429
683.684	0.0144559
683.762	0.0144169
683.840	0.0145347
683.918	0.0144067
683.996	0.0144598
684.075	0.0144766
684.153	0.0146114
684.231	0.0144681
684.309	0.0144330
684.387	0.0145423
684.465	0.0145683
684.543	0.0145527
684.621	0.0145159
684.700	0.0144534
684.778	0.0145210
684.856	0.0145229
684.934	0.0145141
685.012	0.0145959
685.090	0.0144469
685.168	0.0145707
685.246	0.0144793
685.325	0.0145011
685.403	0.0146203
685.481	0.0144890
685.559	0.0144653
685.637	0.0144817
685.715	0.0144550
685.793	0.0145262
685.871	0.0144653
685.950	0.0145751
686.028	0.0145135
686.106	0.0144282
686.184	0.0146259
686.262	0.0144527
686.340	0.0144564
686.418	0.0145689
686.496	0.0144737
686.575	0.0144890
686.653	0.0144615
686.731	0.0144980
686.809	0.0144907
686.887	0.0146958
686.965	0.0145095
687.043	0.0146766
687.121	0.0145316
687.200	0.0145280
687.278	0.0144707
687.356	0.0145491
687.434	0.0145872
687.512	0.0145064
687.590	0.0144950
687.668	0.0144425
687.746	0.0145325
687.825	0.0144926
687.903	0.0146226
687.981	0.0144930
688.059	0.0143672
688.137	0.0145102
688.215	0.0145702
688.293	0.0145760
688.371	0.0145966
688.450	0.0145975
688.528	0.0143372
688.606	0.0145818
688.684	0.0146277
688.762	0.0144572
688.840	0.0144919
688.918	0.0143826
688.996	0.0145872
689.075	0.0145217
689.153	0.0145288
689.231	0.0145020
689.309	0.0145081
689.387	0.0145849
689.465	0.0145257
689.543	0.0144943
689.621	0.0144529
689.700	0.0146104
689.778	0.0145536
689.856	0.0144858
689.934	0.0145821
690.012	0.0144937
690.090	0.0144885
690.168	0.0145850
690.246	0.0144591
690.325	0.0145834
690.403	0.0145220
690.481	0.0145245
690.559	0.0146172
690.637	0.0144005
690.715	0.0144568
690.793	0.0145135
690.871	0.0145497
690.950	0.0145955
691.028	0.0146240
691.106	0.0144570
691.184	0.0144280
691.262	0.0144159
691.340	0.0145586
691.418	0.0143800
691.496	0.0144457
691.575	0.0145654
691.653	0.0144350
691.731	0.0144175
691.809	0.0145650
691.887	0.0144377
691.965	0.0145045
692.043	0.0145636
692.121	0.0143419
692.200	0.0145179
692.278	0.0145081
692.356	0.0144783
692.434	0.0145536
692.512	0.0145621
692.590	0.0145638
692.668	0.0145244
692.746	0.0146692
692.825	0.0145593
692.903	0.0145766
692.981	0.0144948
693.059	0.0145022
693.137	0.0145295
693.215	0.0144589
693.293	0.0144817
693.371	0.0145589
693.450	0.0144913
693.528	0.0144814
693.606	0.0144989
693.684	0.0144621
693.762	0.0143670
693.840	0.0143939
693.918	0.0145113
693.996	0.0144964
694.075	0.0145405
694.153	0.0144469
694.231	0.0144315
694.309	0.0145193
694.387	0.0144805
694.465	0.0144285
694.543	0.0144685
694.621	0.0145927
694.700	0.0144421
694.778	0.0144860
694.856	0.0145134
694.934	0.0146833
695.012	0.0144665
695.090	0.0145168
695.168	0.0144682
695.246	0.0145452
695.325	0.0145481
695.403	0.0144978
695.481	0.0144635
695.559	0.0144568
695.637	0.0145316
695.715	0.0145448
695.793	0.0144303
695.871	0.0145773
695.950	0.0144741
696.028	0.0144200
696.106	0.0145033
696.184	0.0145973
696.262	0.0145177
696.340	0.0144492
696.418	0.0145910
696.496	0.0144476
696.575	0.0143974
696.653	0.0145209
696.731	0.0145263
696.809	0.0144827
696.887	0.0145806
696.965	0.0144970
697.043	0.0145073
697.121	0.0143300
697.200	0.0146710
697.278	0.0145240
697.356	0.0143951
697.434	0.0144978
697.512	0.0145435
697.590	0.0144051
697.668	0.0144463
697.746	0.0144355
697.825	0.0144856
697.903	0.0144896
697.981	0.0144665
698.059	0.0144746
698.137	0.0144692
698.215	0.0145163
698.293	0.0144041
698.371	0.0143999
698.450	0.0144680
698.528	0.0146582
698.606	0.0145434
698.684	0.0144420
698.762	0.0145218
698.840	0.0144693
698.918	0.0145049
698.996	0.0144822
699.075	0.0145465
699.153	0.0144684
699.231	0.0145114
699.309	0.0145553
699.387	0.0144629
699.465	0.0145526
699.543	0.0145263
699.621	0.0144746
699.700	0.0144144
699.778	0.0143526
699.856	0.0143867
699.934	0.0142656
700.012	0.0146041
700.090	0.0146331
700.168	0.0144889
700.246	0.0144415
700.325	0.0146893
700.403	0.0144814
700.481	0.0143574
700.559	0.0145659
700.637	0.0144640
700.715	0.0144666
700.793	0.0144562
700.871	0.0145277
700.950	0.0144865
701.028	0.0144580
701.106	0.0144838
701.184	0.0145916
701.262	0.0145619
701.340	0.0145255
701.418	0.0145699
701.496	0.0144404
701.575	0.0145572
701.653	0.0146264
701.731	0.0145657
701.809	0.0144955
701.887	0.0144546
701.965	0.0144549
702.043	0.0144749
702.121	0.0144993
702.200	0.0145690
702.278	0.0145189
702.356	0.0145457
702.434	0.0143695
702.512	0.0146714
702.590	0.0146103
702.668	0.0144386
702.746	0.0144709
702.825	0.0145200
702.903	0.0145035
702.981	0.0145056
703.059	0.0145491
703.137	0.0145654
703.215	0.0145234
703.293	0.0146217
703.371	0.0146809
703.450	0.0145254
703.528	0.0145776
703.606	0.0146460
703.684	0.0145675
703.762	0.0146084
703.840	0.0145216
703.918	0.0144082
703.996	0.0144624
704.075	0.0145828
704.153	0.0144880
704.231	0.0144971
704.309	0.0143873
704.387	0.0142736
704.465	0.0143656
704.543	0.0143956
704.621	0.0142384
704.700	0.0143251
704.778	0.0143240
704.856	0.0142151
704.934	0.0143818
705.012	0.0144084
705.090	0.0144175
705.168	0.0145045
705.246	0.0146318
705.325	0.0146935
705.403	0.0149004
705.481	0.0149200
705.559	0.0150684
705.637	0.0150993
705.715	0.0148649
705.793	0.0147534
705.871	0.0145452
705.950	0.0145084
706.028	0.0142445
706.106	0.0142506
706.184	0.0140541
706.262	0.0139177
706.340	0.0138109
706.418	0.0136297
706.496	0.0137493
706.575	0.0136307
706.653	0.0137743
706.731	0.0138470
706.809	0.0140527
706.887	0.0142403
706.965	0.0145992
707.043	0.0149319
707.121	0.0152236
707.200	0.0155948
707.278	0.0160278
707.356	0.0160059
707.434	0.0159148
707.512	0.0156930
707.590	0.0153288
707.668	0.0149574
707.746	0.0145358
707.825	0.0141486
707.903	0.0138708
707.981	0.0135207
708.059	0.0134019
708.137	0.0133724
708.215	0.0132405
708.293	0.0132594
708.371	0.0132269
708.450	0.0133558
708.528	0.0135761
708.606	0.0137968
708.684	0.0142339
708.762	0.0147443
708.840	0.0149398
708.918	0.0153608
708.996	0.0157798
709.075	0.0160251
709.153	0.0161153
709.231	0.0162138
709.309	0.0161930
709.387	0.0161160
709.465	0.0156619
709.543	0.0155049
709.621	0.0151623
709.700	0.0147581
709.778	0.0142694
709.856	0.0136607
709.934	0.0135146
710.012	0.0131261
710.090	0.0128854
710.168	0.0129827
710.246	0.0131117
710.325	0.0131281
710.403	0.0130761
710.481	0.0131230
710.559	0.0131634
710.637	0.0131928
710.715	0.0133950
710.793	0.0135202
710.871	0.0138342
710.950	0.0139281
711.028	0.0143451
711.106	0.0146293
711.184	0.0151312
711.262	0.0155884
711.340	0.0157401
711.418	0.0163239
711.496	0.0166219
711.575	0.0167441
711.653	0.0168239
711.731	0.0168756
711.809	0.0166627
711.887	0.0163130
711.965	0.0160443
712.043	0.0156277
712.121	0.0150558
712.200	0.0143672
712.278	0.0138503
712.356	0.0132935
712.434	0.0128061
712.512	0.0122401
712.590	0.0119230
712.668	0.0114338
712.746	0.0110963
712.825	0.0111022
712.903	0.0112305
712.981	0.0116735
713.059	0.0121483
713.137	0.0129664
713.215	0.0137373
713.293	0.0146030
713.371	0.0155569
713.450	0.0164128
713.528	0.0170992
713.606	0.0177704
713.684	0.0183036
713.762	0.0187066
713.840	0.0187671
713.918	0.0184756
713.996	0.0182970
714.075	0.0178278
714.153	0.0169295
714.231	0.0158749
714.309	0.0150104
714.387	0.0140852
714.465	0.0131074
714.543	0.0124389
714.621	0.0116562
714.700	0.0112813
714.778	0.0109654
714.856	0.0106310
714.934	0.0105041
715.012	0.0107263
715.090	0.0112273
715.168	0.0117624
715.246	0.0124963
715.325	0.0133849
715.403	0.0143864
715.481	0.0151962
715.559	0.0161475
715.637	0.0166214
715.715	0.0170296
715.793	0.0171848
715.871	0.0173703
715.950	0.0172717
716.028	0.0172720
716.106	0.0169041
716.184	0.0165111
716.262	0.0160435
716.340	0.0155119
716.418	0.0148580
716.496	0.0140848
716.575	0.0136343
716.653	0.0131089
716.731	0.0127823
716.809	0.0125690
716.887	0.0125607
716.965	0.0126606
717.043	0.0125700
717.121	0.0127491
717.200	0.0130640
717.278	0.0134285
717.356	0.0137591
717.434	0.0140367
717.512	0.0145011
717.590	0.0147768
717.668	0.0153548
717.746	0.0156718
717.825	0.0159502
717.903	0.0160416
717.981	0.0160653
718.059	0.0159850
718.137	0.0156387
718.215	0.0154787
718.293	0.0152284
718.371	0.0148401
718.450	0.0145448
718.528	0.0142910
718.606	0.0141013
718.684	0.0138754
718.762	0.0138008
718.840	0.0135976
718.918	0.0134122
718.996	0.0134329
719.075	0.0135818
719.153	0.0137775
719.231	0.0137688
719.309	0.0140365
719.387	0.0142101
719.465	0.0144472
719.543	0.0147245
719.621	0.0149837
719.700	0.0149687
719.778	0.0149496
719.856	0.0148286
719.934	0.0150082
720.012	0.0148741
720.090	0.0146321
720.168	0.0144093
720.246	0.0143821
720.325	0.0143158
720.403	0.0140063
720.481	0.0140077
720.559	0.0141088
720.637	0.0141545
720.715	0.0142482
720.793	0.0141508
720.871	0.0144464
720.950	0.0145789
721.028	0.0147083
721.106	0.0146854
721.184	0.0149488
721.262	0.0150697
721.340	0.0152076
721.418	0.0151789
721.496	0.0150298
721.575	0.0150385
721.653	0.0148505
721.731	0.0148220
721.809	0.0145586
721.887	0.0144067
721.965	0.0144157
722.043	0.0144681
722.121	0.0143172
722.200	0.0141777
722.278	0.0138480
722.356	0.0140266
722.434	0.0137322
722.512	0.0135521
722.590	0.0134335
722.668	0.0132218
722.746	0.0131171
722.825	0.0132644
722.903	0.0133224
722.981	0.0135770
723.059	0.0138679
723.137	0.0141376
723.215	0.0146775
723.293	0.0149628
723.371	0.0154314
723.450	0.0158291
723.528	0.0160726
723.606	0.0162241
723.684	0.0162908
723.762	0.0162241
723.840	0.0162215
723.918	0.0161066
723.996	0.0158466
724.075	0.0155457
724.153	0.0151176
724.231	0.0145724
724.309	0.0142290
724.387	0.0137479
724.465	0.0133366
724.543	0.0128895
724.621	0.0127985
724.700	0.0126536
724.778	0.0126960
724.856	0.0127330
724.934	0.0126715
725.012	0.0128383
725.090	0.0131091
725.168	0.0132993
725.246	0.0137318
725.325	0.0139886
725.403	0.0143913
725.481	0.0148651
725.559	0.0152513
725.637	0.0155323
725.715	0.0160326
725.793	0.0160902
725.871	0.0165015
725.950	0.0165668
726.028	0.0165059
726.106	0.0164382
726.184	0.0163445
726.262	0.0161671
726.340	0.0156556
726.418	0.0153856
726.496	0.0148581
726.575	0.0141200
726.653	0.0136694
726.731	0.0130923
726.809	0.0126075
726.887	0.0122209
726.965	0.0120350
727.043	0.0118160
727.121	0.0119668
727.200	0.0122549
727.278	0.0123850
727.356	0.0128780
727.434	0.0133026
727.512	0.0137587
727.590	0.0143429
727.668	0.0148840
727.746	0.0154043
727.825	0.0159872
727.903	0.0162963
727.981	0.0166326
728.059	0.0168453
728.137	0.0169217
728.215	0.0169966
728.293	0.0169392
728.371	0.0166847
728.450	0.0162666
728.528	0.0158106
728.606	0.0154417
728.684	0.0148874
728.762	0.0143533
728.840	0.0136729
728.918	0.0133579
728.996	0.0130556
729.075	0.0126302
729.153	0.0125145
729.231	0.0122072
729.309	0.0122437
729.387	0.0122247
729.465	0.0122485
729.543	0.0124313
729.621	0.0124115
729.700	0.0127130
729.778	0.0130121
729.856	0.0135188
729.934	0.0139708
730.012	0.0146080
730.090	0.0149648
730.168	0.0155043
730.246	0.0159418
730.325	0.0165009
730.403	0.0166811
730.481	0.0170264
730.559	0.0170650
730.637	0.0170387
730.715	0.0170663
730.793	0.0167010
730.871	0.0162469
730.950	0.0158685
731.028	0.0153027
731.106	0.0147914
731.184	0.0141324
731.262	0.0136095
731.340	0.0130785
731.418	0.0127291
731.496	0.0122585
731.575	0.0118636
731.653	0.0118578
731.731	0.0121126
731.809	0.0121919
731.887	0.0126678
731.965	0.0130933
732.043	0.0136868
732.121	0.0142588
732.200	0.0148370
732.278	0.0152496
732.356	0.0157454
732.434	0.0161285
732.512	0.0163601
732.590	0.0167055
732.668	0.0167094
732.746	0.0165330
732.825	0.0165308
732.903	0.0163202
732.981	0.0159068
733.059	0.0155795
733.137	0.0153158
733.215	0.0150379
733.293	0.0145341
733.371	0.0140871
733.450	0.0138265
733.528	0.0133739
733.606	0.0131548
733.684	0.0130829
733.762	0.0127175
733.840	0.0126168
733.918	0.0127155
733.996	0.0127116
734.075	0.0129140
734.153	0.0128825
734.231	0.0131948
734.309	0.0135809
734.387	0.0137833
734.465	0.0142687
734.543	0.0145441
734.621	0.0151679
734.700	0.0155706
734.778	0.0158504
734.856	0.0161411
734.934	0.0163461
735.012	0.0163441
735.090	0.0164763
735.168	0.0163441
735.246	0.0161523
735.325	0.0158877
735.403	0.0159290
735.481	0.0153838
735.559	0.0150631
735.637	0.0146038
735.715	0.0142417
735.793	0.0139278
735.871	0.0134856
735.950	0.0133768
736.028	0.0129884
736.106	0.0129096
736.184	0.0129330
736.262	0.0128728
736.340	0.0130062
736.418	0.0130643
736.496	0.0131314
736.575	0.0134845
736.653	0.0137840
736.731	0.0139021
736.809	0.0142408
736.887	0.0146542
736.965	0.0146198
737.043	0.0148173
737.121	0.0151121
737.200	0.0152260
737.278	0.0153129
737.356	0.0154873
737.434	0.0155482
737.512	0.0155102
737.590	0.0154404
737.668	0.0155849
737.746	0.0155226
737.825	0.0154588
737.903	0.0152660
737.981	0.0151775
738.059	0.0151287
738.137	0.0148983
738.215	0.0147018
738.293	0.0144382
738.371	0.0144341
738.450	0.0142237
738.528	0.0138993
738.606	0.0136080
738.684	0.0135693
738.762	0.0133886
738.840	0.0132828
738.918	0.0131665
738.996	0.0130776
739.075	0.0132407
739.153	0.0131853
739.231	0.0133302
739.309	0.0137142
739.387	0.0138013
739.465	0.0142170
739.543	0.0147103
739.621	0.0148544
739.700	0.0151665
739.778	0.0154671
739.856	0.0157523
739.934	0.0160609
740.012	0.0160320
740.090	0.0160599
740.168	0.0160529
740.246	0.0159971
740.325	0.0156763
740.403	0.0154330
740.481	0.0152180
740.559	0.0149220
740.637	0.0145294
740.715	0.0141808
740.793	0.0139449
740.871	0.0135213
740.950	0.0132758
741.028	0.0130575
741.106	0.0129140
741.184	0.0129308
741.262	0.0129936
741.340	0.0131143
741.418	0.0133315
741.496	0.0133292
741.575	0.0136273
741.653	0.0138844
741.731	0.0142033
741.809	0.0145411
741.887	0.0148881
741.965	0.0150967
742.043	0.0152773
742.121	0.0155029
742.200	0.0156756
742.278	0.0156447
742.356	0.0157489
742.434	0.0158284
742.512	0.0157315
742.590	0.0156130
742.668	0.0153745
742.746	0.0153539
742.825	0.0150064
742.903	0.0148236
742.981	0.0147028
743.059	0.0143240
743.137	0.0139919
743.215	0.0136864
743.293	0.0135278
743.371	0.0134132
743.450	0.0132667
743.528	0.0131300
743.606	0.0130615
743.684	0.0130766
743.762	0.0132058
743.840	0.0132270
743.918	0.0135990
743.996	0.0138322
744.075	0.0140728
744.153	0.0144300
744.231	0.0146359
744.309	0.0150459
744.387	0.0151869
744.465	0.0154243
744.543	0.0155963
744.621	0.0157468
744.700	0.0159035
744.778	0.0157913
744.856	0.0158311
744.934	0.0156930
745.012	0.0155798
745.090	0.0153262
745.168	0.0152540
745.246	0.0150279
745.325	0.0145811
745.403	0.0143125
745.481	0.0140358
745.559	0.0137962
745.637	0.0134443
745.715	0.0133859
745.793	0.0132561
745.871	0.0130587
745.950	0.0130080
746.028	0.0130456
746.106	0.0130978
746.184	0.0132876
746.262	0.0134704
746.340	0.0136386
746.418	0.0138181
746.496	0.0140839
746.575	0.0142506
746.653	0.0144936
746.731	0.0147252
746.809	0.0150340
746.887	0.0151081
746.965	0.0154547
747.043	0.0155725
747.121	0.0156664
747.200	0.0155425
747.278	0.0156152
747.356	0.0156891
747.434	0.0153606
747.512	0.0153081
747.590	0.0151614
747.668	0.0150062
747.746	0.0147169
747.825	0.0146641
747.903	0.0144846
747.981	0.0141782
748.059	0.0141232
748.137	0.0137949
748.215	0.0135560
748.293	0.0137220
748.371	0.0134213
748.450	0.0133583
748.528	0.0133137
748.606	0.0132529
748.684	0.0133285
748.762	0.0134753
748.840	0.0135210
748.918	0.0137535
748.996	0.0139847
749.075	0.0140754
749.153	0.0145097
749.231	0.0148456
749.309	0.0148633
749.387	0.0150292
749.465	0.0152132
749.543	0.0152490
749.621	0.0153251
749.700	0.0154090
749.778	0.0155744
749.856	0.0155875
749.934	0.0153808
750.012	0.0153938
750.090	0.0151823
750.168	0.0149780
750.246	0.0149554
750.325	0.0146430
750.403	0.0144331
750.481	0.0142207
750.559	0.0141550
750.637	0.0139310
750.715	0.0137687
750.793	0.0135590
750.871	0.0134435
750.950	0.0133908
751.028	0.0131728
751.106	0.0132377
751.184	0.0133840
751.262	0.0133609
751.340	0.0136034
751.418	0.0136566
751.496	0.0137468
751.575	0.0141409
751.653	0.0143341
751.731	0.0146096
751.809	0.0148459
751.887	0.0151073
751.965	0.0153075
752.043	0.0154952
752.121	0.0155587
752.200	0.0155370
752.278	0.0154990
752.356	0.0157720
752.434	0.0156144
752.512	0.0154523
752.590	0.0153895
752.668	0.0153248
752.746	0.0151035
752.825	0.0148107
752.903	0.0144020
752.981	0.0144036
753.059	0.0140855
753.137	0.0139204
753.215	0.0136527
753.293	0.0136593
753.371	0.0134199
753.450	0.0134602
753.528	0.0133825
753.606	0.0135080
753.684	0.0134744
753.762	0.0136652
753.840	0.0136558
753.918	0.0138702
753.996	0.0142093
754.075	0.0143415
754.153	0.0144506
754.231	0.0147236
754.309	0.0148508
754.387	0.0149582
754.465	0.0152302
754.543	0.0152280
754.621	0.0153596
754.700	0.0154722
754.778	0.0155753
754.856	0.0155284
754.934	0.0152888
755.012	0.0152622
755.090	0.0150384
755.168	0.0149884
755.246	0.0147750
755.325	0.0145351
755.403	0.0144968
755.481	0.0142395
755.559	0.0140023
755.637	0.0139536
755.715	0.0138322
755.793	0.0137173
755.871	0.0136450
755.950	0.0136000
756.028	0.0138077
756.106	0.0137505
756.184	0.0137410
756.262	0.0140518
756.340	0.0141460
756.418	0.0140583
756.496	0.0141682
756.575	0.0142382
756.653	0.0144550
756.731	0.0146462
756.809	0.0147998
756.887	0.0147534
756.965	0.0148534
757.043	0.0149899
757.121	0.0148409
757.200	0.0149288
757.278	0.0150835
757.356	0.0150001
757.434	0.0151826
757.512	0.0150755
757.590	0.0148999
757.668	0.0148093
757.746	0.0146422
757.825	0.0145930
757.903	0.0144828
757.981	0.0144312
758.059	0.0143104
758.137	0.0143674
758.215	0.0140718
758.293	0.0141733
758.371	0.0142165
758.450	0.0139242
758.528	0.0139869
758.606	0.0139485
758.684	0.0140013
758.762	0.0139665
758.840	0.0139122
758.918	0.0141704
758.996	0.0141563
759.075	0.0141135
759.153	0.0144889
759.231	0.0143870
759.309	0.0144263
759.387	0.0147157
759.465	0.0148335
759.543	0.0148618
759.621	0.0150635
759.700	0.0150966
759.778	0.0151083
759.856	0.0150949
759.934	0.0151408
760.012	0.0152700
760.090	0.0149474
760.168	0.0149843
760.246	0.0148029
760.325	0.0146236
760.403	0.0145538
760.481	0.0144074
760.559	0.0143263
760.637	0.0144135
760.715	0.0142177
760.793	0.0140186
760.871	0.0140459
760.950	0.0138830
761.028	0.0137740
761.106	0.0138541
761.184	0.0139027
761.262	0.0139516
761.340	0.0140237
761.418	0.0140298
761.496	0.0141557
761.575	0.0144485
761.653	0.0146439
761.731	0.0146671
761.809	0.0146351
761.887	0.0147323
761.965	0.0148950
762.043	0.0150442
762.121	0.0150088
762.200	0.0150691
762.278	0.0149638
762.356	0.0149789
762.434	0.0150281
762.512	0.0149841
762.590	0.0149337
762.668	0.0147964
762.746	0.0145982
762.825	0.0144965
762.903	0.0144469
762.981	0.0143376
763.059	0.0144735
763.137	0.0142526
763.215	0.0140627
763.293	0.0140871
763.371	0.0140376
763.450	0.0138698
763.528	0.0139472
763.606	0.0139638
763.684	0.0140607
763.762	0.0139680
763.840	0.0138818
763.918	0.0142356
763.996	0.0141669
764.075	0.0142325
764.153	0.0144009
764.231	0.0145914
764.309	0.0146317
764.387	0.0146543
764.465	0.0148920
764.543	0.0149088
764.621	0.0148718
764.700	0.0150034
764.778	0.0149689
764.856	0.0149283
764.934	0.0148393
765.012	0.0149064
765.090	0.0148050
765.168	0.0146308
765.246	0.0145934
765.325	0.0145528
765.403	0.0144684
765.481	0.0145667
765.559	0.0142593
765.637	0.0142624
765.715	0.0143362
765.793	0.0141748
765.871	0.0140767
765.950	0.0140638
766.028	0.0142118
766.106	0.0142331
766.184	0.0140355
766.262	0.0143688
766.340	0.0143216
766.418	0.0142882
766.496	0.0145158
766.575	0.0146771
766.653	0.0146010
766.731	0.0146021
766.809	0.0145962
766.887	0.0147405
766.965	0.0146932
767.043	0.0147974
767.121	0.0148376
767.200	0.0148655
767.278	0.0147977
767.356	0.0149688
767.434	0.0148962
767.512	0.0147374
767.590	0.0147038
767.668	0.0145954
767.746	0.0146523
767.825	0.0146745
767.903	0.0146539
767.981	0.0145339
768.059	0.0143126
768.137	0.0143263
768.215	0.0143243
768.293	0.0142239
768.371	0.0142159
768.450	0.0141390
768.528	0.0142405
768.606	0.0143647
768.684	0.0141198
768.762	0.0143456
768.840	0.0143222
768.918	0.0143719
768.996	0.0143861
769.075	0.0143416
769.153	0.0143109
769.231	0.0144026
769.309	0.0143536
769.387	0.0144344
769.465	0.0146355
769.543	0.0145735
769.621	0.0146243
769.700	0.0146874
769.778	0.0148141
769.856	0.0146056
769.934	0.0146210
770.012	0.0146858
770.090	0.0146715
770.168	0.0147118
770.246	0.0147798
770.325	0.0145316
770.403	0.0146762
770.481	0.0145951
770.559	0.0145724
770.637	0.0145067
770.715	0.0143475
770.793	0.0144707
770.871	0.0142827
770.950	0.0142043
771.028	0.0142723
771.106	0.0142464
771.184	0.0141801
771.262	0.0141195
771.340	0.0140472
771.418	0.0142442
771.496	0.0141037
771.575	0.0141600
771.653	0.0142289
771.731	0.0143253
771.809	0.0142534
771.887	0.0143801
771.965	0.0144886
772.043	0.0145370
772.121	0.0145289
772.200	0.0146431
772.278	0.0147098
772.356	0.0146995
772.434	0.0148344
772.512	0.0147408
772.590	0.0147300
772.668	0.0145992
772.746	0.0147733
772.825	0.0146455
772.903	0.0145569
772.981	0.0145966
773.059	0.0144203
773.137	0.0144563
773.215	0.0145045
773.293	0.0142449
773.371	0.0141208
773.450	0.0140976
773.528	0.0142978
773.606	0.0142982
773.684	0.0141365
773.762	0.0141925
773.840	0.0140407
773.918	0.0141935
773.996	0.0141055
774.075	0.0143005
774.153	0.0143569
774.231	0.0144660
774.309	0.0142961
774.387	0.0144971
774.465	0.0143862
774.543	0.0144385
774.621	0.0144885
774.700	0.0144565
774.778	0.0145438
774.856	0.0145314
774.934	0.0146544
775.012	0.0146838
775.090	0.0146661
775.168	0.0145834
775.246	0.0146843
775.325	0.0145881
775.403	0.0147135
775.481	0.0147285
775.559	0.0145199
775.637	0.0146018
775.715	0.0145934
775.793	0.0144624
775.871	0.0143560
775.950	0.0144910
776.028	0.0144087
776.106	0.0143416
776.184	0.0144051
776.262	0.0142815
776.340	0.0142050
776.418	0.0142932
776.496	0.0142090
776.575	0.0143261
776.653	0.0142528
776.731	0.0142510
776.809	0.0143269
776.887	0.0143597
776.965	0.0144873
777.043	0.0144874
777.121	0.0143859
777.200	0.0144920
777.278	0.0144923
777.356	0.0144714
777.434	0.0144424
777.512	0.0147113
777.590	0.0146482
777.668	0.0146489
777.746	0.0146696
777.825	0.0146119
777.903	0.0145301
777.981	0.0146246
778.059	0.0146545
778.137	0.0144288
778.215	0.0143525
778.293	0.0144100
778.371	0.0144581
778.450	0.0143823
778.528	0.0142560
778.606	0.0143938
778.684	0.0143509
778.762	0.0142859
778.840	0.0143544
778.918	0.0143288
778.996	0.0143159
779.075	0.0143282
779.153	0.0144008
779.231	0.0142751
779.309	0.0143661
779.387	0.0143835
779.465	0.0144540
779.543	0.0144679
779.621	0.0144917
779.700	0.0144543
779.778	0.0145528
779.856	0.0146516
779.934	0.0145625
780.012	0.0145325
780.090	0.0146454
780.168	0.0145267
780.246	0.0147009
780.325	0.0145335
780.403	0.0145990
780.481	0.0146066
780.559	0.0146078
780.637	0.0144851
780.715	0.0144672
780.793	0.0146044
780.871	0.0145142
780.950	0.0144490
781.028	0.0143169
781.106	0.0145477
781.184	0.0142145
781.262	0.0143632
781.340	0.0144183
781.418	0.0143391
781.496	0.0144610
781.575	0.0144650
781.653	0.0143781
781.731	0.0145113
781.809	0.0145569
781.887	0.0143787
781.965	0.0143282
782.043	0.0143664
782.121	0.0145439
782.200	0.0144233
782.278	0.0144218
782.356	0.0144727
782.434	0.0143756
782.512	0.0145509
782.590	0.0146317
782.668	0.0145013
782.746	0.0145798
782.825	0.0144765
782.903	0.0145782
782.981	0.0145193
783.059	0.0145910
783.137	0.0145482
783.215	0.0145717
783.293	0.0144884
783.371	0.0146302
783.450	0.0145358
783.528	0.0144112
783.606	0.0145065
783.684	0.0143307
783.762	0.0144833
783.840	0.0142590
783.918	0.0142432
783.996	0.0143839
784.075	0.0143632
784.153	0.0143761
784.231	0.0143602
784.309	0.0142084
784.387	0.0143771
784.465	0.0143771
784.543	0.0143262
784.621	0.0142450
784.700	0.0143783
784.778	0.0144059
784.856	0.0144529
784.934	0.0145581
785.012	0.0146109
785.090	0.0144978
785.168	0.0144218
785.246	0.0144851
785.325	0.0144637
785.403	0.0145513
785.481	0.0145842
785.559	0.0144230
785.637	0.0146210
785.715	0.0145065
785.793	0.0143964
785.871	0.0145547
785.950	0.0145523
786.028	0.0144370
786.106	0.0145238
786.184	0.0145041
786.262	0.0143805
786.340	0.0142309
786.418	0.0144378
786.496	0.0144518
786.575	0.0144080
786.653	0.0144100
786.731	0.0143387
786.809	0.0143571
786.887	0.0142851
786.965	0.0143023
787.043	0.0144153
787.121	0.0144643
787.200	0.0145240
787.278	0.0144251
787.356	0.0145240
787.434	0.0145338
787.512	0.0145193
787.590	0.0146307
787.668	0.0145766
787.746	0.0145010
787.825	0.0145295
787.903	0.0145069
787.981	0.0145956
788.059	0.0144984
788.137	0.0144254
788.215	0.0145633
788.293	0.0145922
788.371	0.0144858
788.450	0.0144804
788.528	0.0143264
788.606	0.0144931
788.684	0.0143574
788.762	0.0143048
788.840	0.0142754
788.918	0.0143179
788.996	0.0142520
789.075	0.0143338
789.153	0.0143407
789.231	0.0143115
789.309	0.0143826
789.387	0.0143355
789.465	0.0142722
789.543	0.0144349
789.621	0.0142385
789.700	0.0142648
789.778	0.0144650
789.856	0.0144717
789.934	0.0142850
790.012	0.0143664
790.090	0.0144953
790.168	0.0145681
790.246	0.0144941
790.325	0.0145425
790.403	0.0143256
790.481	0.0143771
790.559	0.0144217
790.637	0.0145736
790.715	0.0145480
790.793	0.0144487
790.871	0.0144824
790.950	0.0145275
791.028	0.0145277
791.106	0.0145165
791.184	0.0145189
791.262	0.0144933
791.340	0.0143636
791.418	0.0143555
791.496	0.0144811
791.575	0.0145080
791.653	0.0144614
791.731	0.0143296
791.809	0.0143031
791.887	0.0143602
791.965	0.0143205
792.043	0.0144327
792.121	0.0143809
792.200	0.0143997
792.278	0.0143443
792.356	0.0144613
792.434	0.0143687
792.512	0.0144125
792.590	0.0145649
792.668	0.0144471
792.746	0.0144709
792.825	0.0144602
792.903	0.0145309
792.981	0.0146347
793.059	0.0145606
793.137	0.0145477
793.215	0.0145776
793.293	0.0145720
793.371	0.0145328
793.450	0.0144540
793.528	0.0144188
793.606	0.0145049
793.684	0.0145319
793.762	0.0145554
793.840	0.0144716
793.918	0.0144662
793.996	0.0144213
794.075	0.0144658
794.153	0.0143990
794.231	0.0143607
794.309	0.0143938
794.387	0.0143266
794.465	0.0144524
794.543	0.0143436
794.621	0.0142542
794.700	0.0143365
794.778	0.0143896
794.856	0.0144352
794.934	0.0144538
795.012	0.0144865
795.090	0.0143195
795.168	0.0144366
795.246	0.0142982
795.325	0.0143465
795.403	0.0143569
795.481	0.0145451
795.559	0.0147460
795.637	0.0145353
795.715	0.0144380
795.793	0.0143914
795.871	0.0145583
795.950	0.0145887
796.028	0.0146953
796.106	0.0145584
796.184	0.0145473
796.262	0.0145710
796.340	0.0145155
796.418	0.0145375
796.496	0.0145113
796.575	0.0144466
796.653	0.0144152
796.731	0.0143163
796.809	0.0144142
796.887	0.0144705
796.965	0.0143331
797.043	0.0143865
797.121	0.0143906
797.200	0.0144270
797.278	0.0144578
797.356	0.0144423
797.434	0.0143556
797.512	0.0143468
797.590	0.0144590
797.668	0.0143858
797.746	0.0144308
797.825	0.0144894
797.903	0.0145235
797.981	0.0144979
798.059	0.0144612
798.137	0.0145370
798.215	0.0144491
798.293	0.0144887
798.371	0.0146482
798.450	0.0146542
798.528	0.0144444
798.606	0.0146545
798.684	0.0146645
798.762	0.0146101
798.840	0.0146225
798.918	0.0145770
798.996	0.0146250
799.075	0.0145128
799.153	0.0144221
799.231	0.0144685
799.309	0.0144070
799.387	0.0143968
799.465	0.0143765
799.543	0.0144158
799.621	0.0144016
799.700	0.0143452
799.778	0.0143553
799.856	0.0144313
799.934	0.0144158
800.012	0.0144296
800.090	0.0144071
800.168	0.0144286
800.246	0.0143745
800.325	0.0143327
800.403	0.0142602
800.481	0.0142022
800.559	0.0145801
800.637	0.0145854
800.715	0.0144656
800.793	0.0144605
800.871	0.0144184
800.950	0.0145557
801.028	0.0146991
801.106	0.0145195
801.184	0.0144869
801.262	0.0145847
801.340	0.0145853
801.418	0.0146374
801.496	0.0144735
801.575	0.0144724
801.653	0.0144921
801.731	0.0145721
801.809	0.0142777
801.887	0.0142576
801.965	0.0143431
802.043	0.0143393
802.121	0.0143941
802.200	0.0143337
802.278	0.0144272
802.356	0.0142976
802.434	0.0143966
802.512	0.0145136
802.590	0.0143234
802.668	0.0143095
802.746	0.0143873
802.825	0.0143541
802.903	0.0145349
802.981	0.0145828
803.059	0.0147479
803.137	0.0144229
803.215	0.0146594
803.293	0.0147861
803.371	0.0146197
803.450	0.0146706
803.528	0.0146783
803.606	0.0146340
803.684	0.0146218
803.762	0.0146970
803.840	0.0145044
803.918	0.0145264
803.996	0.0144806
804.075	0.0143700
804.153	0.0145264
804.231	0.0142607
804.309	0.0142366
804.387	0.0143345
804.465	0.0144039
804.543	0.0142594
804.621	0.0142834
804.700	0.0143671
804.778	0.0143937
804.856	0.0144153
804.934	0.0145161
805.012	0.0144354
805.090	0.0145596
805.168	0.0145625
805.246	0.0147631
805.325	0.0147901
805.403	0.0146724
805.481	0.0146439
805.559	0.0147656
805.637	0.0146801
805.715	0.0146333
805.793	0.0145570
805.871	0.0145795
805.950	0.0145244
806.028	0.0146529
806.106	0.0144321
806.184	0.0144334
806.262	0.0144141
806.340	0.0144048
806.418	0.0143094
806.496	0.0143262
806.575	0.0144539
806.653	0.0142385
806.731	0.0141628
806.809	0.0142706
806.887	0.0142490
806.965	0.0141216
807.043	0.0142296
807.121	0.0144113
807.200	0.0143161
807.278	0.0143994
807.356	0.0143829
807.434	0.0144384
807.512	0.0144007
807.590	0.0145724
807.668	0.0144820
807.746	0.0144540
807.825	0.0146078
807.903	0.0146436
807.981	0.0146017
808.059	0.0145467
808.137	0.0145403
808.215	0.0146194
808.293	0.0145499
808.371	0.0146871
808.450	0.0146604
808.528	0.0144751
808.606	0.0144621
808.684	0.0145216
808.762	0.0144073
808.840	0.0143935
808.918	0.0143787
808.996	0.0143816
809.075	0.0144542
809.153	0.0143452
809.231	0.0142704
809.309	0.0144213
809.387	0.0144194
809.465	0.0142544
809.543	0.0143742
809.621	0.0142776
809.700	0.0143641
809.778	0.0143736
809.856	0.0145242
809.934	0.0144698
810.012	0.0143295
810.090	0.0144501
810.168	0.0144521
810.246	0.0144672
810.325	0.0144547
810.403	0.0146602
810.481	0.0145971
810.559	0.0146376
810.637	0.0145098
810.715	0.0145530
810.793	0.0144831
810.871	0.0145588
810.950	0.0144663
811.028	0.0147145
811.106	0.0143781
811.184	0.0144234
811.262	0.0144596
811.340	0.0144427
811.418	0.0143478
811.496	0.0145525
811.575	0.0143603
811.653	0.0145087
811.731	0.0144750
811.809	0.0145068
811.887	0.0145291
811.965	0.0144491
812.043	0.0143742
812.121	0.0143703
812.200	0.0143259
812.278	0.0142502
812.356	0.0142184
812.434	0.0144627
812.512	0.0142848
812.590	0.0143735
812.668	0.0143787
812.746	0.0143738
812.825	0.0143964
812.903	0.0143439
812.981	0.0144607
813.059	0.0145889
813.137	0.0146240
813.215	0.0145668
813.293	0.0145737
813.371	0.0145219
813.450	0.0145405
813.528	0.0145354
813.606	0.0144067
813.684	0.0144296
813.762	0.0143699
813.840	0.0145901
813.918	0.0146166
813.996	0.0143862
814.075	0.0144058
814.153	0.0144321
814.231	0.0145187
814.309	0.0144515
814.387	0.0145173
814.465	0.0145494
814.543	0.0144820
814.621	0.0145231
814.700	0.0144992
814.778	0.0146936
814.856	0.0145429
814.934	0.0144801
815.012	0.0145786
815.090	0.0145149
815.168	0.0147025
815.246	0.0144935
815.325	0.0145262
815.403	0.0144247
815.481	0.0143904
815.559	0.0142825
815.637	0.0144894
815.715	0.0143291
815.793	0.0144001
815.871	0.0145242
815.950	0.0142880
816.028	0.0143243
816.106	0.0143443
816.184	0.0144131
816.262	0.0143433
816.340	0.0143890
816.418	0.0144303
816.496	0.0144514
816.575	0.0145825
816.653	0.0146288
816.731	0.0145282
816.809	0.0146413
816.887	0.0145494
816.965	0.0146291
817.043	0.0145493
817.121	0.0145676
817.200	0.0146449
817.278	0.0145816
817.356	0.0146030
817.434	0.0145267
817.512	0.0144878
817.590	0.0145478
817.668	0.0144096
817.746	0.0144874
817.825	0.0144216
817.903	0.0144250
817.981	0.0143861
818.059	0.0142210
818.137	0.0143791
818.215	0.0142159
818.293	0.0142358
818.371	0.0142350
818.450	0.0141809
818.528	0.0143125
818.606	0.0143121
818.684	0.0143111
818.762	0.0142606
818.840	0.0144254
818.918	0.0144830
818.996	0.0144382
819.075	0.0143687
819.153	0.0145232
819.231	0.0145894
819.309	0.0144659
819.387	0.0147047
819.465	0.0145660
819.543	0.0146232
819.621	0.0145773
819.700	0.0146096
819.778	0.0145303
819.856	0.0144524
819.934	0.0144607
820.012	0.0145673
820.090	0.0145700
820.168	0.0144131
820.246	0.0144714
820.325	0.0144520
820.403	0.0143684
820.481	0.0144328
820.559	0.0144501
820.637	0.0143299
820.715	0.0143426
820.793	0.0143853
820.871	0.0142242
820.950	0.0143353
821.028	0.0143187
821.106	0.0143154
821.184	0.0142432
821.262	0.0142767
821.340	0.0143137
821.418	0.0142757
821.496	0.0144832
821.575	0.0144878
821.653	0.0146525
821.731	0.0145800
821.809	0.0145174
821.887	0.0146474
821.965	0.0146318
822.043	0.0145884
822.121	0.0147301
822.200	0.0145383
822.278	0.0147343
822.356	0.0146331
822.434	0.0145418
822.512	0.0145170
822.590	0.0145121
822.668	0.0145330
822.746	0.0144842
822.825	0.0144777
822.903	0.0145025
822.981	0.0143803
823.059	0.0143681
823.137	0.0143230
823.215	0.0143475
823.293	0.0142899
823.371	0.0145074
823.450	0.0143842
823.528	0.0142455
823.606	0.0143043
823.684	0.0145548
823.762	0.0143104
823.840	0.0144838
823.918	0.0145266
823.996	0.0145716
824.075	0.0145264
824.153	0.0146500
824.231	0.0145389
824.309	0.0146033
824.387	0.0145219
824.465	0.0145831
824.543	0.0146649
824.621	0.0147087
824.700	0.0146395
824.778	0.0147416
824.856	0.0145152
824.934	0.0145881
825.012	0.0144365
825.090	0.0145610
825.168	0.0144807
825.246	0.0144414
825.325	0.0143606
825.403	0.0144346
825.481	0.0144476
825.559	0.0143484
825.637	0.0144490
825.715	0.0145142
825.793	0.0143413
825.871	0.0144147
825.950	0.0143617
826.028	0.0145144
826.106	0.0144595
826.184	0.0143794
826.262	0.0144545
826.340	0.0145963
826.418	0.0145315
826.496	0.0145293
826.575	0.0145235
826.653	0.0146859
826.731	0.0146938
826.809	0.0146023
826.887	0.0146012
826.965	0.0146442
827.043	0.0145879
827.121	0.0144936
827.200	0.0145255
827.278	0.0145633
827.356	0.0144724
827.434	0.0145728
827.512	0.0145065
827.590	0.0145583
827.668	0.0144537
827.746	0.0144104
827.825	0.0144816
827.903	0.0144605
827.981	0.0145767
828.059	0.0146583
828.137	0.0144209
828.215	0.0145037
828.293	0.0145507
828.371	0.0144363
828.450	0.0143982
828.528	0.0144392
828.606	0.0144478
828.684	0.0144600
828.762	0.0145519
828.840	0.0145248
828.918	0.0144482
828.996	0.0143414
829.075	0.0144817
829.153	0.0144862
829.231	0.0142055
829.309	0.0144746
829.387	0.0143690
829.465	0.0144952
829.543	0.0143529
829.621	0.0143935
829.700	0.0143871
829.778	0.0145171
829.856	0.0144515
829.934	0.0144298
830.012	0.0144962
830.090	0.0144207
830.168	0.0145143
830.246	0.0147804
830.325	0.0147339
830.403	0.0144250
830.481	0.0145426
830.559	0.0145673
830.637	0.0145869
830.715	0.0146242
830.793	0.0146562
830.871	0.0145127
830.950	0.0145116
831.028	0.0145724
831.106	0.0144379
831.184	0.0145807
831.262	0.0145781
831.340	0.0144607
831.418	0.0145702
831.496	0.0145553
831.575	0.0145988
831.653	0.0145544
831.731	0.0144777
831.809	0.0143470
831.887	0.0144123
831.965	0.0145077
832.043	0.0145317
832.121	0.0145833
832.200	0.0144798
832.278	0.0145083
832.356	0.0144440
832.434	0.0144524
832.512	0.0143773
832.590	0.0145218
832.668	0.0144949
832.746	0.0145126
832.825	0.0145570
832.903	0.0145246
832.981	0.0143845
833.059	0.0145316
833.137	0.0145113
833.215	0.0143449
833.293	0.0145441
833.371	0.0144936
833.450	0.0143810
833.528	0.0143274
833.606	0.0143118
833.684	0.0143726
833.762	0.0143127
833.840	0.0143155
833.918	0.0142736
833.996	0.0142383
834.075	0.0143716
834.153	0.0144070
834.231	0.0144946
834.309	0.0143446
834.387	0.0144512
834.465	0.0144537
834.543	0.0144700
834.621	0.0145131
834.700	0.0146126
834.778	0.0146664
834.856	0.0145900
834.934	0.0145766
835.012	0.0145938
835.090	0.0145563
835.168	0.0144100
835.246	0.0144855
835.325	0.0145950
835.403	0.0143682
835.481	0.0145197
835.559	0.0145288
835.637	0.0143941
835.715	0.0143930
835.793	0.0143826
835.871	0.0144490
835.950	0.0144726
836.028	0.0144221
836.106	0.0145230
836.184	0.0145644
836.262	0.0145530
836.340	0.0144133
836.418	0.0145097
836.496	0.0145653
836.575	0.0144971
836.653	0.0146096
836.731	0.0146923
836.809	0.0145739
836.887	0.0144758
836.965	0.0145372
837.043	0.0145107
837.121	0.0142881
837.200	0.0143716
837.278	0.0145171
837.356	0.0143420
837.434	0.0143872
837.512	0.0144142
837.590	0.0143382
837.668	0.0143494
837.746	0.0143029
837.825	0.0143480
837.903	0.0142886
837.981	0.0143851
838.059	0.0143430
838.137	0.0144327
838.215	0.0144271
838.293	0.0145886
838.371	0.0144736
838.450	0.0145414
838.528	0.0146177
838.606	0.0145800
838.684	0.0144877
838.762	0.0146534
838.840	0.0146556
838.918	0.0146697
838.996	0.0145847
839.075	0.0145135
839.153	0.0145422
839.231	0.0145198
839.309	0.0144099
839.387	0.0144130
839.465	0.0143147
839.543	0.0141889
839.621	0.0144138
839.700	0.0143329
839.778	0.0143456
839.856	0.0143604
839.934	0.0142889
840.012	0.0142574
840.090	0.0144366
840.168	0.0143169
840.246	0.0143927
840.325	0.0145254
840.403	0.0145134
840.481	0.0146078
840.559	0.0146677
840.637	0.0147716
840.715	0.0145644
840.793	0.0146667
840.871	0.0145695
840.950	0.0147289
841.028	0.0144924
841.106	0.0144947
841.184	0.0144901
841.262	0.0146044
841.340	0.0144024
841.418	0.0143913
841.496	0.0144023
841.575	0.0144278
841.653	0.0143770
841.731	0.0143460
841.809	0.0142982
841.887	0.0143650
841.965	0.0143340
842.043	0.0142840
842.121	0.0142407
842.200	0.0143193
842.278	0.0143871
842.356	0.0145081
842.434	0.0144706
842.512	0.0146649
842.590	0.0146317
842.668	0.0143764
842.746	0.0146500
842.825	0.0146159
842.903	0.0147398
842.981	0.0146101
843.059	0.0143712
843.137	0.0145619
843.215	0.0145053
843.293	0.0143613
843.371	0.0144157
843.450	0.0144316
843.528	0.0144096
843.606	0.0145480
843.684	0.0144144
843.762	0.0144932
843.840	0.0144684
843.918	0.0144471
843.996	0.0143575
844.075	0.0144257
844.153	0.0145090
844.231	0.0145449
844.309	0.0145611
844.387	0.0145086
844.465	0.0145069
844.543	0.0145907
844.621	0.0146453
844.700	0.0145730
844.778	0.0143193
844.856	0.0145303
844.934	0.0145876
845.012	0.0145128
845.090	0.0145160
845.168	0.0143220
845.246	0.0145849
845.325	0.0144288
845.403	0.0144055
845.481	0.0142740
845.559	0.0143557
845.637	0.0144440
845.715	0.0142934
845.793	0.0144007
845.871	0.0143568
845.950	0.0143113
846.028	0.0144487
846.106	0.0145699
846.184	0.0144327
846.262	0.0144878
846.340	0.0145435
846.418	0.0144180
846.496	0.0145737
846.575	0.0145537
846.653	0.0146150
846.731	0.0145192
846.809	0.0145881
846.887	0.0146621
846.965	0.0144921
847.043	0.0145734
847.121	0.0146146
847.200	0.0145431
847.278	0.0144096
847.356	0.0144621
847.434	0.0144363
847.512	0.0143491
847.590	0.0143694
847.668	0.0143129
847.746	0.0143865
847.825	0.0144080
847.903	0.0142367
847.981	0.0143470
848.059	0.0144198
848.137	0.0142085
848.215	0.0143993
848.293	0.0144452
848.371	0.0143841
848.450	0.0145025
848.528	0.0143864
848.606	0.0144933
848.684	0.0145174
848.762	0.0146403
848.840	0.0145779
848.918	0.0145382
848.996	0.0145576
849.075	0.0145695
849.153	0.0146279
849.231	0.0146379
849.309	0.0145660
849.387	0.0145836
849.465	0.0146021
849.543	0.0145766
849.621	0.0146452
849.700	0.0145768
849.778	0.0146464
849.856	0.0144767
849.934	0.0146051
850.012	0.0146204
850.090	0.0144041
850.168	0.0145734
850.246	0.0145742
850.325	0.0143677
850.403	0.0144975
850.481	0.0144283
850.559	0.0143940
850.637	0.0143805
850.715	0.0144171
850.793	0.0144762
850.871	0.0144203
850.950	0.0144628
851.028	0.0145496
851.106	0.0144308
851.184	0.0144405
851.262	0.0144690
851.340	0.0145330
851.418	0.0144117
851.496	0.0143258
851.575	0.0144079
851.653	0.0146146
851.731	0.0145875
851.809	0.0145209
851.887	0.0145786
851.965	0.0143159
852.043	0.0144330
852.121	0.0144846
852.200	0.0144842
852.278	0.0145454
852.356	0.0143839
852.434	0.0142378
852.512	0.0143687
852.590	0.0144680
852.668	0.0143535
852.746	0.0143679
852.825	0.0143844
852.903	0.0143793
852.981	0.0144723
853.059	0.0144194
853.137	0.0145255
853.215	0.0144776
853.293	0.0143061
853.371	0.0144527
853.450	0.0144073
853.528	0.0143414
853.606	0.0144206
853.684	0.0145181
853.762	0.0145224
853.840	0.0145099
853.918	0.0144633
853.996	0.0144617
854.075	0.0145586
854.153	0.0143867
854.231	0.0145455
854.309	0.0144101
854.387	0.0144782
854.465	0.0145937
854.543	0.0144234
854.621	0.0144271
854.700	0.0144257
854.778	0.0144883
854.856	0.0144083
854.934	0.0145295
855.012	0.0143079
855.090	0.0142664
855.168	0.0145221
855.246	0.0143842
855.325	0.0144115
855.403	0.0144455
855.481	0.0144530
855.559	0.0143932
855.637	0.0143388
855.715	0.0143530
855.793	0.0142509
855.871	0.0143960
855.950	0.0144881
856.028	0.0143613
856.106	0.0144971
856.184	0.0145469
856.262	0.0145617
856.340	0.0143791
856.418	0.0144048
856.496	0.0145991
856.575	0.0143700
856.653	0.0145262
856.731	0.0145072
856.809	0.0145544
856.887	0.0145573
856.965	0.0145040
857.043	0.0144434
857.121	0.0143996
857.200	0.0144195
857.278	0.0145724
857.356	0.0144093
857.434	0.0145184
857.512	0.0144461
857.590	0.0144747
857.668	0.0144828
857.746	0.0145625
857.825	0.0143014
857.903	0.0145502
857.981	0.0144180
858.059	0.0144923
858.137	0.0143241
858.215	0.0143316
858.293	0.0144546
858.371	0.0143507
858.450	0.0144410
858.528	0.0144804
858.606	0.0146303
858.684	0.0143604
858.762	0.0144650
858.840	0.0144689
858.918	0.0144648
858.996	0.0145415
859.075	0.0145599
859.153	0.0144530
859.231	0.0144772
859.309	0.0145415
859.387	0.0144417
859.465	0.0145676
859.543	0.0145232
859.621	0.0145113
859.700	0.0143545
859.778	0.0145040
859.856	0.0143830
859.934	0.0144080
860.012	0.0144144
860.090	0.0145299
860.168	0.0145583
860.246	0.0145841
860.325	0.0144929
860.403	0.0145015
860.481	0.0143980
860.559	0.0144363
860.637	0.0144614
860.715	0.0144571
860.793	0.0143623
860.871	0.0144270
860.950	0.0143917
861.028	0.0144782
861.106	0.0143784
861.184	0.0142160
861.262	0.0144097
861.340	0.0144183
861.418	0.0143722
861.496	0.0144099
861.575	0.0144546
861.653	0.0144705
861.731	0.0144789
861.809	0.0144561
861.887	0.0144542
861.965	0.0145537
862.043	0.0145203
862.121	0.0145139
862.200	0.0145848
862.278	0.0146589
862.356	0.0145744
862.434	0.0146136
862.512	0.0145267
862.590	0.0145020
862.668	0.0144837
862.746	0.0147086
862.825	0.0145732
862.903	0.0145255
862.981	0.0144855
863.059	0.0144690
863.137	0.0144300
863.215	0.0143960
863.293	0.0143658
863.371	0.0144726
863.450	0.0143347
863.528	0.0143528
863.606	0.0145269
863.684	0.0144013
863.762	0.0143151
863.840	0.0143333
863.918	0.0143925
863.996	0.0144415
864.075	0.0142680
864.153	0.0144828
864.231	0.0143990
864.309	0.0144785
864.387	0.0145086
864.465	0.0143993
864.543	0.0145434
864.621	0.0144060
864.700	0.0144295
864.778	0.0144559
864.856	0.0143719
864.934	0.0145402
865.012	0.0144544
865.090	0.0144169
865.168	0.0144679
865.246	0.0145988
865.325	0.0145540
865.403	0.0144598
865.481	0.0145679
865.559	0.0146031
865.637	0.0145667
865.715	0.0144305
865.793	0.0145203
865.871	0.0146461
865.950	0.0144735
866.028	0.0145280
866.106	0.0144434
866.184	0.0145013
866.262	0.0144207
866.340	0.0144788
866.418	0.0144082
866.496	0.0143833
866.575	0.0145065
866.653	0.0143793
866.731	0.0144459
866.809	0.0145064
866.887	0.0144717
866.965	0.0144974
867.043	0.0145644
867.121	0.0145264
867.200	0.0144165
867.278	0.0143202
867.356	0.0144563
867.434	0.0145820
867.512	0.0145390
867.590	0.0144073
867.668	0.0143226
867.746	0.0145450
867.825	0.0145305
867.903	0.0146684
867.981	0.0144708
868.059	0.0143353
868.137	0.0143763
868.215	0.0143343
868.293	0.0145615
868.371	0.0145020
868.450	0.0145057
868.528	0.0145917
868.606	0.0145338
868.684	0.0144989
868.762	0.0145470
868.840	0.0145519
868.918	0.0143951
868.996	0.0145564
869.075	0.0146095
869.153	0.0145845
869.231	0.0144341
869.309	0.0144364
869.387	0.0144095
869.465	0.0143787
869.543	0.0144728
869.621	0.0145045
869.700	0.0143961
869.778	0.0143830
869.856	0.0143710
869.934	0.0143941
870.012	0.0144132
870.090	0.0145260
870.168	0.0144709
870.246	0.0144370
870.325	0.0144382
870.403	0.0144181
870.481	0.0144440
870.559	0.0144939
870.637	0.0145304
870.715	0.0144639
870.793	0.0146222
870.871	0.0145908
870.950	0.0144881
871.028	0.0145775
871.106	0.0144900
871.184	0.0144872
871.262	0.0145269
871.340	0.0144643
871.418	0.0142657
871.496	0.0145199
871.575	0.0145802
871.653	0.0143314
871.731	0.0143227
871.809	0.0145705
871.887	0.0143415
871.965	0.0142909
872.043	0.0145389
872.121	0.0144778
872.200	0.0143830
872.278	0.0144272
872.356	0.0144225
872.434	0.0144897
872.512	0.0144683
872.590	0.0144555
872.668	0.0144866
872.746	0.0145657
872.825	0.0144971
872.903	0.0145162
872.981	0.0145790
873.059	0.0145332
873.137	0.0144763
873.215	0.0144398
873.293	0.0144704
873.371	0.0145792
873.450	0.0145178
873.528	0.0145403
873.606	0.0144758
873.684	0.0143977
873.762	0.0142724
873.840	0.0143608
873.918	0.0144809
873.996	0.0142226
874.075	0.0144137
874.153	0.0143755
874.231	0.0143458
874.309	0.0143272
874.387	0.0144196
874.465	0.0143981
874.543	0.0144517
874.621	0.0144981
874.700	0.0145118
874.778	0.0145264
874.856	0.0145002
874.934	0.0145674
875.012	0.0145667
875.090	0.0144988
875.168	0.0144333
875.246	0.0145421
875.325	0.0145268
875.403	0.0144067
875.481	0.0144252
875.559	0.0145048
875.637	0.0144682
875.715	0.0144741
875.793	0.0143437
875.871	0.0144459
875.950	0.0143339
876.028	0.0144287
876.106	0.0144093
876.184	0.0143646
876.262	0.0144828
876.340	0.0144689
876.418	0.0143832
876.496	0.0144975
876.575	0.0144991
876.653	0.0144767
876.731	0.0144267
876.809	0.0144648
876.887	0.0144356
876.965	0.0145363
877.043	0.0146250
877.121	0.0146018
877.200	0.0144229
877.278	0.0145482
877.356	0.0146021
877.434	0.0145467
877.512	0.0145942
877.590	0.0144082
877.668	0.0145491
877.746	0.0145130
877.825	0.0144863
877.903	0.0144834
877.981	0.0145555
878.059	0.0144260
878.137	0.0144339
878.215	0.0144453
878.293	0.0144674
878.371	0.0143741
878.450	0.0142819
878.528	0.0144198
878.606	0.0144140
878.684	0.0143906
878.762	0.0143739
878.840	0.0144112
878.918	0.0144258
878.996	0.0143394
879.075	0.0145116
879.153	0.0143849
879.231	0.0144463
879.309	0.0144646
879.387	0.0144049
879.465	0.0144875
879.543	0.0145071
879.621	0.0145673
879.700	0.0144960
879.778	0.0146744
879.856	0.0144556
879.934	0.0145132
880.012	0.0144626
880.090	0.0143459
880.168	0.0145422
880.246	0.0145502
880.325	0.0143877
880.403	0.0145617
880.481	0.0144878
880.559	0.0146221
880.637	0.0144995
880.715	0.0144898
880.793	0.0144142
880.871	0.0144949
880.950	0.0146151
881.028	0.0144309
881.106	0.0145825
881.184	0.0143158
881.262	0.0144056
881.340	0.0144875
881.418	0.0145457
881.496	0.0143418
881.575	0.0143556
881.653	0.0144556
881.731	0.0145483
881.809	0.0143385
881.887	0.0144084
881.965	0.0145417
882.043	0.0144803
882.121	0.0145499
882.200	0.0144962
882.278	0.0145008
882.356	0.0143914
882.434	0.0143927
882.512	0.0144500
882.590	0.0143803
882.668	0.0144869
882.746	0.0145371
882.825	0.0143728
882.903	0.0144661
882.981	0.0145708
883.059	0.0145222
883.137	0.0143790
883.215	0.0143207
883.293	0.0143974
883.371	0.0144118
883.450	0.0144801
883.528	0.0144890
883.606	0.0144963
883.684	0.0144781
883.762	0.0145159
883.840	0.0143902
883.918	0.0144365
883.996	0.0143101
884.075	0.0143176
884.153	0.0144230
884.231	0.0144963
884.309	0.0145220
884.387	0.0143735
884.465	0.0144176
884.543	0.0144815
884.621	0.0143531
884.700	0.0144724
884.778	0.0144399
884.856	0.0144695
884.934	0.0145402
885.012	0.0145809
885.090	0.0145538
885.168	0.0145093
885.246	0.0145046
885.325	0.0144227
885.403	0.0145255
885.481	0.0145145
885.559	0.0144315
885.637	0.0145741
885.715	0.0145006
885.793	0.0144906
885.871	0.0145286
885.950	0.0145399
886.028	0.0144248
886.106	0.0144427
886.184	0.0144416
886.262	0.0144018
886.340	0.0144453
886.418	0.0144696
886.496	0.0144629
886.575	0.0144771
886.653	0.0143877
886.731	0.0143316
886.809	0.0144645
886.887	0.0144865
886.965	0.0144516
887.043	0.0144569
887.121	0.0145220
887.200	0.0144602
887.278	0.0146492
887.356	0.0145256
887.434	0.0145732
887.512	0.0145358
887.590	0.0146441
887.668	0.0145135
887.746	0.0146890
887.825	0.0145223
887.903	0.0144767
887.981	0.0147252
888.059	0.0143307
888.137	0.0143703
888.215	0.0143611
888.293	0.0145216
888.371	0.0144127
888.450	0.0143976
888.528	0.0144536
888.606	0.0143754
888.684	0.0143314
888.762	0.0144247
888.840	0.0144019
888.918	0.0143305
888.996	0.0145208
889.075	0.0143880
889.153	0.0143847
889.231	0.0145815
889.309	0.0145367
889.387	0.0146350
889.465	0.0145545
889.543	0.0145012
889.621	0.0144044
889.700	0.0146242
889.778	0.0145770
889.856	0.0145879
889.934	0.0146185
890.012	0.0145164
890.090	0.0145892
890.168	0.0144556
890.246	0.0144878
890.325	0.0144772
890.403	0.0144395
890.481	0.0144563
890.559	0.0144303
890.637	0.0144074
890.715	0.0144016
890.793	0.0143919
890.871	0.0144503
890.950	0.0145255
891.028	0.0145230
891.106	0.0143541
891.184	0.0144411
891.262	0.0143998
891.340	0.0144964
891.418	0.0145137
891.496	0.0144934
891.575	0.0143006
891.653	0.0145100
891.731	0.0145801
891.809	0.0144827
891.887	0.0144738
891.965	0.0144593
892.043	0.0145471
892.121	0.0142927
892.200	0.0143914
892.278	0.0143861
892.356	0.0144693
892.434	0.0144142
892.512	0.0143916
892.590	0.0143151
892.668	0.0144251
892.746	0.0144356
892.825	0.0144949
892.903	0.0144184
892.981	0.0144113
893.059	0.0144724
893.137	0.0145854
893.215	0.0143895
893.293	0.0145161
893.371	0.0144614
893.450	0.0144685
893.528	0.0145011
893.606	0.0144147
893.684	0.0145291
893.762	0.0143945
893.840	0.0144593
893.918	0.0143574
893.996	0.0143605
894.075	0.0142889
894.153	0.0144234
894.231	0.0144895
894.309	0.0144477
894.387	0.0144656
894.465	0.0144291
894.543	0.0144468
894.621	0.0144019
894.700	0.0144023
894.778	0.0144104
894.856	0.0144492
894.934	0.0144889
895.012	0.0145022
895.090	0.0145078
895.168	0.0144651
895.246	0.0144568
895.325	0.0143350
895.403	0.0144202
895.481	0.0146655
895.559	0.0145335
895.637	0.0144738
895.715	0.0144926
895.793	0.0144379
895.871	0.0145285
895.950	0.0144859
896.028	0.0145084
896.106	0.0145595
896.184	0.0144102
896.262	0.0144199
896.340	0.0144603
896.418	0.0145074
896.496	0.0144679
896.575	0.0144733
896.653	0.0145102
896.731	0.0143911
896.809	0.0146693
896.887	0.0145245
896.965	0.0143997
897.043	0.0143781
897.121	0.0145292
897.200	0.0145394
897.278	0.0148054
897.356	0.0146205
897.434	0.0143906
897.512	0.0144787
897.590	0.0145057
897.668	0.0144907
897.746	0.0143153
897.825	0.0143248
897.903	0.0144360
897.981	0.0144521
898.059	0.0143874
898.137	0.0144781
898.215	0.0143696
898.293	0.0144801
898.371	0.0145249
898.450	0.0144363
898.528	0.0143493
898.606	0.0144968
898.684	0.0146447
898.762	0.0145164
898.840	0.0145958
898.918	0.0147820
898.996	0.0147888
899.075	0.0147588
899.153	0.0147604
899.231	0.0146514
899.309	0.0148026
899.387	0.0144654
899.465	0.0145841
899.543	0.0145490
899.621	0.0143836
899.700	0.0144888
899.778	0.0143629
899.856	0.0143454
899.934	0.0141846
900.012	0.0143569
900.090	0.0144511
900.168	0.0144999
900.246	0.0144080
900.325	0.0144629
900.403	0.0144058
900.481	0.0144325
900.559	0.0144915
900.637	0.0143880
900.715	0.0145577
900.793	0.0144523
900.871	0.0145187
900.950	0.0146678
901.028	0.0145567
901.106	0.0145892
901.184	0.0146006
901.262	0.0146046
901.340	0.0145171
901.418	0.0145267
901.496	0.0146521
901.575	0.0145611
901.653	0.0144434
901.731	0.0144942
901.809	0.0146046
901.887	0.0144779
901.965	0.0142696
902.043	0.0143275
902.121	0.0145005
902.200	0.0142628
902.278	0.0143450
902.356	0.0144533
902.434	0.0144043
902.512	0.0142577
902.590	0.0143813
902.668	0.0144035
902.746	0.0144814
902.825	0.0143737
902.903	0.0144851
902.981	0.0145408
903.059	0.0146803
903.137	0.0146459
903.215	0.0146979
903.293	0.0148720
903.371	0.0148559
903.450	0.0147624
903.528	0.0148307
903.606	0.0147575
903.684	0.0147598
903.762	0.0145863
903.840	0.0146077
903.918	0.0144495
903.996	0.0142484
904.075	0.0141615
904.153	0.0142757
904.231	0.0142896
904.309	0.0140639
904.387	0.0141515
904.465	0.0141553
904.543	0.0142662
904.621	0.0141923
904.700	0.0141756
904.778	0.0142834
904.856	0.0143993
904.934	0.0143057
905.012	0.0145908
905.090	0.0145702
905.168	0.0149110
905.246	0.0148992
905.325	0.0149963
905.403	0.0151254
905.481	0.0149438
905.559	0.0148696
905.637	0.0148650
905.715	0.0147643
905.793	0.0147805
905.871	0.0145147
905.950	0.0143495
906.028	0.0143369
906.106	0.0141632
906.184	0.0140588
906.262	0.0141241
906.340	0.0139941
906.418	0.0139247
906.496	0.0139446
906.575	0.0140758
906.653	0.0141541
906.731	0.0142171
906.809	0.0142368
906.887	0.0144131
906.965	0.0146274
907.043	0.0146539
907.121	0.0147752
907.200	0.0147982
907.278	0.0148071
907.356	0.0150428
907.434	0.0151133
907.512	0.0151128
907.590	0.0149048
907.668	0.0147649
907.746	0.0148800
907.825	0.0146181
907.903	0.0146935
907.981	0.0144554
908.059	0.0144855
908.137	0.0144709
908.215	0.0142499
908.293	0.0142559
908.371	0.0142544
908.450	0.0141897
908.528	0.0143242
908.606	0.0142192
908.684	0.0142564
908.762	0.0143127
908.840	0.0142995
908.918	0.0144422
908.996	0.0143566
909.075	0.0144764
909.153	0.0145279
909.231	0.0145255
909.309	0.0145647
909.387	0.0146645
909.465	0.0146956
909.543	0.0148001
909.621	0.0148098
909.700	0.0147426
909.778	0.0148019
909.856	0.0148986
909.934	0.0146577
910.012	0.0146979
910.090	0.0145731
910.168	0.0146789
910.246	0.0144255
910.325	0.0144143
910.403	0.0143496
910.481	0.0143243
910.559	0.0144862
910.637	0.0142138
910.715	0.0143320
910.793	0.0144051
910.871	0.0143623
910.950	0.0145156
911.028	0.0144898
911.106	0.0144978
911.184	0.0146294
911.262	0.0145092
911.340	0.0145772
911.418	0.0145138
911.496	0.0146295
911.575	0.0146290
911.653	0.0146203
911.731	0.0146609
911.809	0.0145873
911.887	0.0145204
911.965	0.0145475
912.043	0.0144614
912.121	0.0145052
912.200	0.0144495
912.278	0.0144167
912.356	0.0143498
912.434	0.0144358
912.512	0.0144623
912.590	0.0143620
912.668	0.0144360
912.746	0.0145661
912.825	0.0145030
912.903	0.0145968
912.981	0.0145628
913.059	0.0146124
913.137	0.0145746
913.215	0.0145351
913.293	0.0146250
913.371	0.0146690
913.450	0.0145785
913.528	0.0145933
913.606	0.0145037
913.684	0.0144323
913.762	0.0144964
913.840	0.0146114
913.918	0.0144797
913.996	0.0143526
914.075	0.0144036
914.153	0.0143591
914.231	0.0144520
914.309	0.0143074
914.387	0.0143825
914.465	0.0143636
914.543	0.0144268
914.621	0.0143951
914.700	0.0144090
914.778	0.0144183
914.856	0.0143821
914.934	0.0146931
915.012	0.0146399
915.090	0.0146228
915.168	0.0147635
915.246	0.0147887
915.325	0.0148173
915.403	0.0148612
915.481	0.0147055
915.559	0.0148158
915.637	0.0147009
915.715	0.0146687
915.793	0.0146864
915.871	0.0144760
915.950	0.0143383
916.028	0.0144763
916.106	0.0143595
916.184	0.0142483
916.262	0.0142120
916.340	0.0141448
916.418	0.0141875
916.496	0.0141933
916.575	0.0141566
916.653	0.0141309
916.731	0.0142995
916.809	0.0143909
916.887	0.0143774
916.965	0.0143218
917.043	0.0143540
917.121	0.0144862
917.200	0.0145480
917.278	0.0145389
917.356	0.0145924
917.434	0.0146648
917.512	0.0147724
917.590	0.0147158
917.668	0.0148163
917.746	0.0146883
917.825	0.0146801
917.903	0.0145747
917.981	0.0145979
918.059	0.0145474
918.137	0.0143992
918.215	0.0145647
918.293	0.0143517
918.371	0.0144138
918.450	0.0144159
918.528	0.0142276
918.606	0.0143045
918.684	0.0141068
918.762	0.0141200
918.840	0.0141086
918.918	0.0140860
918.996	0.0142545
919.075	0.0142091
919.153	0.0142268
919.231	0.0144593
919.309	0.0144579
919.387	0.0146449
919.465	0.0146086
919.543	0.0145692
919.621	0.0147134
919.700	0.0146283
919.778	0.0146759
919.856	0.0147684
919.934	0.0148284
920.012	0.0147647
920.090	0.0147195
920.168	0.0147906
920.246	0.0146623
920.325	0.0145428
920.403	0.0145877
920.481	0.0145233
920.559	0.0143537
920.637	0.0143511
920.715	0.0143793
920.793	0.0142677
920.871	0.0142339
920.950	0.0142926
921.028	0.0143640
921.106	0.0141173
921.184	0.0141285
921.262	0.0143375
921.340	0.0142525
921.418	0.0142971
921.496	0.0141470
921.575	0.0142696
921.653	0.0144636
921.731	0.0143820
921.809	0.0144997
921.887	0.0145782
921.965	0.0147354
922.043	0.0148148
922.121	0.0147781
922.200	0.0147373
922.278	0.0149931
922.356	0.0149373
922.434	0.0148674
922.512	0.0146935
922.590	0.0148221
922.668	0.0147359
922.746	0.0145588
922.825	0.0145216
922.903	0.0145352
922.981	0.0143586
923.059	0.0143089
923.137	0.0142027
923.215	0.0143197
923.293	0.0141438
923.371	0.0142554
923.450	0.0143394
923.528	0.0141542
923.606	0.0142343
923.684	0.0142851
923.762	0.0143359
923.840	0.0143681
923.918	0.0145540
923.996	0.0144432
924.075	0.0145143
924.153	0.0146548
924.231	0.0146815
924.309	0.0145354
924.387	0.0147135
924.465	0.0146500
924.543	0.0144579
924.621	0.0147178
924.700	0.0146397
924.778	0.0146238
924.856	0.0144838
924.934	0.0146079
925.012	0.0146708
925.090	0.0143891
925.168	0.0143761
925.246	0.0146322
925.325	0.0144418
925.403	0.0145232
925.481	0.0144571
925.559	0.0146237
925.637	0.0146899
925.715	0.0144872
925.793	0.0144745
925.871	0.0145466
925.950	0.0145840
926.028	0.0145292
926.106	0.0144926
926.184	0.0145209
926.262	0.0145415
926.340	0.0145891
926.418	0.0144593
926.496	0.0144273
926.575	0.0146009
926.653	0.0144939
926.731	0.0145876
926.809	0.0145280
926.887	0.0145383
926.965	0.0146008
927.043	0.0147161
927.121	0.0144830
927.200	0.0144055
927.278	0.0144711
927.356	0.0143201
927.434	0.0145499
927.512	0.0146489
927.590	0.0146388
927.668	0.0145341
927.746	0.0145261
927.825	0.0145899
927.903	0.0144386
927.981	0.0143703
928.059	0.0145660
928.137	0.0144896
928.215	0.0144852
928.293	0.0144572
928.371	0.0145263
928.450	0.0145722
928.528	0.0144183
928.606	0.0143658
928.684	0.0144924
928.762	0.0146668
928.840	0.0143155
928.918	0.0145831
928.996	0.0144379
929.075	0.0144955
929.153	0.0144213
929.231	0.0145197
929.309	0.0144726
929.387	0.0145157
929.465	0.0145690
929.543	0.0144115
929.621	0.0145672
929.700	0.0146157
929.778	0.0144821
929.856	0.0146257
929.934	0.0144730
930.012	0.0145836
930.090	0.0144485
930.168	0.0144817
930.246	0.0145486
930.325	0.0145776
930.403	0.0145425
930.481	0.0142079
930.559	0.0144048
930.637	0.0144250
930.715	0.0144328
930.793	0.0145016
930.871	0.0145248
930.950	0.0143275
931.028	0.0143845
931.106	0.0145107
931.184	0.0145617
931.262	0.0145747
931.340	0.0145304
931.418	0.0145448
931.496	0.0146022
931.575	0.0147313
931.653	0.0147012
931.731	0.0146272
931.809	0.0146288
931.887	0.0146326
931.965	0.0147583
932.043	0.0145972
932.121	0.0146517
932.200	0.0146323
932.278	0.0144102
932.356	0.0144880
932.434	0.0144374
932.512	0.0144181
932.590	0.0142935
932.668	0.0143625
932.746	0.0144509
932.825	0.0144617
932.903	0.0143688
932.981	0.0142748
933.059	0.0143454
933.137	0.0144492
933.215	0.0145126
933.293	0.0142892
933.371	0.0144793
933.450	0.0146719
933.528	0.0145274
933.606	0.0145636
933.684	0.0146310
933.762	0.0146889
933.840	0.0146484
933.918	0.0145972
933.996	0.0145088
934.075	0.0145356
934.153	0.0145623
934.231	0.0147087
934.309	0.0145536
934.387	0.0144550
934.465	0.0145121
934.543	0.0144814
934.621	0.0145653
934.700	0.0143615
934.778	0.0144827
934.856	0.0143583
934.934	0.0145145
935.012	0.0144971
935.090	0.0143433
935.168	0.0144559
935.246	0.0144933
935.325	0.0143665
935.403	0.0143353
935.481	0.0143372
935.559	0.0145296
935.637	0.0144888
935.715	0.0145072
935.793	0.0145258
935.871	0.0145441
935.950	0.0143888
936.028	0.0145262
936.106	0.0145921
936.184	0.0146616
936.262	0.0144422
936.340	0.0146861
936.418	0.0145830
936.496	0.0145613
936.575	0.0144350
936.653	0.0145095
936.731	0.0145010
936.809	0.0146076
936.887	0.0145576
936.965	0.0146386
937.043	0.0144723
937.121	0.0144091
937.200	0.0143905
937.278	0.0144862
937.356	0.0144566
937.434	0.0144560
937.512	0.0144681
937.590	0.0145035
937.668	0.0144764
937.746	0.0143477
937.825	0.0143578
937.903	0.0144437
937.981	0.0144298
938.059	0.0143590
938.137	0.0145573
938.215	0.0144819
938.293	0.0145457
938.371	0.0144778
938.450	0.0144521
938.528	0.0144468
938.606	0.0144651
938.684	0.0146012
938.762	0.0146062
938.840	0.0146152
938.918	0.0146064
938.996	0.0145890
939.075	0.0146603
939.153	0.0145026
939.231	0.0145527
939.309	0.0145439
939.387	0.0145283
939.465	0.0145634
939.543	0.0144936
939.621	0.0144667
939.700	0.0143575
939.778	0.0143616
939.856	0.0142794
939.934	0.0142932
940.012	0.0143242
940.090	0.0143350
940.168	0.0143201
940.246	0.0144191
940.325	0.0143855
940.403	0.0143626
940.481	0.0143767
940.559	0.0144212
940.637	0.0144590
940.715	0.0144006
940.793	0.0144255
940.871	0.0144843
940.950	0.0144976
941.028	0.0145345
941.106	0.0146661
941.184	0.0146325
941.262	0.0146554
941.340	0.0145741
941.418	0.0145576
941.496	0.0146296
941.575	0.0145895
941.653	0.0145714
941.731	0.0144476
941.809	0.0146662
941.887	0.0145602
941.965	0.0145218
942.043	0.0143672
942.121	0.0143716
942.200	0.0144637
942.278	0.0143600
942.356	0.0144206
942.434	0.0144117
942.512	0.0143089
942.590	0.0143758
942.668	0.0143658
942.746	0.0144689
942.825	0.0144053
942.903	0.0144218
942.981	0.0145494
943.059	0.0145054
943.137	0.0144293
943.215	0.0145482
943.293	0.0145737
943.371	0.0145743
943.450	0.0146307
943.528	0.0144939
943.606	0.0145959
943.684	0.0146083
943.762	0.0146803
943.840	0.0146426
943.918	0.0145744
943.996	0.0145906
944.075	0.0145493
944.153	0.0146123
944.231	0.0146192
944.309	0.0144779
944.387	0.0146998
944.465	0.0146254
944.543	0.0144296
944.621	0.0144917
944.700	0.0144612
944.778	0.0144975
944.856	0.0144866
944.934	0.0143853
945.012	0.0143533
945.090	0.0144877
945.168	0.0144175
945.246	0.0144094
945.325	0.0143983
945.403	0.0144189
945.481	0.0143075
945.559	0.0143322
945.637	0.0144526
945.715	0.0144500
945.793	0.0144863
945.871	0.0145830
945.950	0.0145165
946.028	0.0144957
946.106	0.0145817
946.184	0.0147171
946.262	0.0146453
946.340	0.0145749
946.418	0.0144823
946.496	0.0146175
946.575	0.0145633
946.653	0.0146223
946.731	0.0146413
946.809	0.0144952
946.887	0.0144919
946.965	0.0145358
947.043	0.0143356
947.121	0.0144083
947.200	0.0145336
947.278	0.0144800
947.356	0.0143005
947.434	0.0142891
947.512	0.0144601
947.590	0.0144352
947.668	0.0144796
947.746	0.0143808
947.825	0.0143998
947.903	0.0145209
947.981	0.0143823
948.059	0.0145142
948.137	0.0144667
948.215	0.0144511
948.293	0.0144087
948.371	0.0144654
948.450	0.0143220
948.528	0.0143494
948.606	0.0145493
948.684	0.0145172
948.762	0.0145885
948.840	0.0144299
948.918	0.0145992
948.996	0.0144940
949.075	0.0145822
949.153	0.0145889
949.231	0.0144545
949.309	0.0146344
949.387	0.0146243
949.465	0.0143832
949.543	0.0144044
949.621	0.0144519
949.700	0.0143952
949.778	0.0143787
949.856	0.0143637
949.934	0.0142023
950.012	0.0143735
950.090	0.0142971
950.168	0.0143623
950.246	0.0143343
950.325	0.0143736
950.403	0.0142308
950.481	0.0142714
950.559	0.0144746
950.637	0.0143436
950.715	0.0143419
950.793	0.0144102
950.871	0.0144366
950.950	0.0143627
951.028	0.0145467
951.106	0.0144884
951.184	0.0145115
951.262	0.0145378
951.340	0.0145905
951.418	0.0144113
951.496	0.0145197
951.575	0.0143546
951.653	0.0145486
951.731	0.0146174
951.809	0.0145340
951.887	0.0143872
951.965	0.0143803
952.043	0.0144099
952.121	0.0144041
952.200	0.0144042
952.278	0.0145003
952.356	0.0144102
952.434	0.0144633
952.512	0.0145126
952.590	0.0145220
952.668	0.0144105
952.746	0.0144918
952.825	0.0144379
952.903	0.0144614
952.981	0.0145303
953.059	0.0143874
953.137	0.0142992
953.215	0.0144815
953.293	0.0143790
953.371	0.0144943
953.450	0.0145172
953.528	0.0145165
953.606	0.0145262
953.684	0.0144667
953.762	0.0143511
953.840	0.0144463
953.918	0.0144341
953.996	0.0144267
954.075	0.0142851
954.153	0.0144962
954.231	0.0144872
954.309	0.0144669
954.387	0.0144740
954.465	0.0144416
954.543	0.0144518
954.621	0.0145337
954.700	0.0145465
954.778	0.0144305
954.856	0.0143276
954.934	0.0144379
955.012	0.0145056
955.090	0.0144176
955.168	0.0144030
955.246	0.0143714
955.325	0.0143555
955.403	0.0144456
955.481	0.0143831
955.559	0.0143859
955.637	0.0143829
955.715	0.0144268
955.793	0.0144750
955.871	0.0145770
955.950	0.0144440
956.028	0.0145628
956.106	0.0145045
956.184	0.0145600
956.262	0.0146201
956.340	0.0146100
956.418	0.0144808
956.496	0.0144366
956.575	0.0147106
956.653	0.0145855
956.731	0.0144746
956.809	0.0145621
956.887	0.0144762
956.965	0.0144670
957.043	0.0143881
957.121	0.0146339
957.200	0.0143951
957.278	0.0144321
957.356	0.0146718
957.434	0.0145524
957.512	0.0144695
957.590	0.0146282
957.668	0.0145026
957.746	0.0143967
957.825	0.0144308
957.903	0.0144805
957.981	0.0143736
958.059	0.0144379
958.137	0.0144375
958.215	0.0143838
958.293	0.0143222
958.371	0.0143821
958.450	0.0144102
958.528	0.0145813
958.606	0.0145555
958.684	0.0145513
958.762	0.0145261
958.840	0.0146097
958.918	0.0145071
958.996	0.0145770
959.075	0.0146325
959.153	0.0146432
959.231	0.0147143
959.309	0.0146484
959.387	0.0145310
959.465	0.0145292
959.543	0.0144724
959.621	0.0146159
959.700	0.0146465
959.778	0.0143613
959.856	0.0144096
959.934	0.0144199
960.012	0.0143987
960.090	0.0143086
960.168	0.0142751
960.246	0.0142615
960.325	0.0144209
960.403	0.0143227
960.481	0.0144849
960.559	0.0143661
960.637	0.0142272
960.715	0.0144907
960.793	0.0145316
960.871	0.0145020
960.950	0.0145715
961.028	0.0145032
961.106	0.0145528
961.184	0.0145339
961.262	0.0146331
961.340	0.0146680
961.418	0.0144427
961.496	0.0144895
961.575	0.0146563
961.653	0.0145670
961.731	0.0146761
961.809	0.0145498
961.887	0.0144447
961.965	0.0145662
962.043	0.0145506
962.121	0.0145600
962.200	0.0144280
962.278	0.0144553
962.356	0.0145300
962.434	0.0144308
962.512	0.0144551
962.590	0.0144233
962.668	0.0144034
962.746	0.0144862
962.825	0.0143983
962.903	0.0143546
962.981	0.0144308
963.059	0.0146009
963.137	0.0145098
963.215	0.0143847
963.293	0.0144170
963.371	0.0144083
963.450	0.0144919
963.528	0.0145547
963.606	0.0145040
963.684	0.0144344
963.762	0.0145094
963.840	0.0145689
963.918	0.0146494
963.996	0.0145786
964.075	0.0146091
964.153	0.0145256
964.231	0.0144612
964.309	0.0146263
964.387	0.0145084
964.465	0.0143986
964.543	0.0145982
964.621	0.0144843
964.700	0.0144529
964.778	0.0144646
964.856	0.0144061
964.934	0.0143636
965.012	0.0144958
965.090	0.0144208
965.168	0.0145840
965.246	0.0144671
965.325	0.0145205
965.403	0.0145368
965.481	0.0143167
965.559	0.0144580
965.637	0.0145692
965.715	0.0146156
965.793	0.0144738
965.871	0.0144724
965.950	0.0144033
966.028	0.0143909
966.106	0.0143813
966.184	0.0144176
966.262	0.0145165
966.340	0.0144934
966.418	0.0145103
966.496	0.0144321
966.575	0.0146242
966.653	0.0145178
966.731	0.0146008
966.809	0.0144867
966.887	0.0144554
966.965	0.0145570
967.043	0.0145181
967.121	0.0145460
967.200	0.0145322
967.278	0.0145790
967.356	0.0144650
967.434	0.0145248
967.512	0.0144867
967.590	0.0145993
967.668	0.0144439
967.746	0.0144067
967.825	0.0144794
967.903	0.0145039
967.981	0.0146001
968.059	0.0144198
968.137	0.0143341
968.215	0.0145573
968.293	0.0144081
968.371	0.0144439
968.450	0.0144599
968.528	0.0144368
968.606	0.0143111
968.684	0.0145882
968.762	0.0146148
968.840	0.0144006
968.918	0.0145316
968.996	0.0145797
969.075	0.0146287
969.153	0.0146584
969.231	0.0144788
969.309	0.0146301
969.387	0.0145274
969.465	0.0146455
969.543	0.0144817
969.621	0.0145420
969.700	0.0145796
969.778	0.0143886
969.856	0.0145335
969.934	0.0145069
970.012	0.0143853
970.090	0.0144318
970.168	0.0144296
970.246	0.0144489
970.325	0.0143884
970.403	0.0145045
970.481	0.0144419
970.559	0.0144645
970.637	0.0144434
970.715	0.0144955
970.793	0.0144128
970.871	0.0144592
970.950	0.0145494
971.028	0.0144957
971.106	0.0144989
971.184	0.0145915
971.262	0.0146893
971.340	0.0145544
971.418	0.0145477
971.496	0.0146509
971.575	0.0146233
971.653	0.0145509
971.731	0.0145689
971.809	0.0145245
971.887	0.0145766
971.965	0.0144183
972.043	0.0144125
972.121	0.0145885
972.200	0.0144813
972.278	0.0143198
972.356	0.0144766
972.434	0.0144904
972.512	0.0144656
972.590	0.0143797
972.668	0.0144934
972.746	0.0143903
972.825	0.0143304
972.903	0.0146177
972.981	0.0145039
973.059	0.0145530
973.137	0.0145324
973.215	0.0144204
973.293	0.0144843
973.371	0.0146205
973.450	0.0146483
973.528	0.0145885
973.606	0.0145143
973.684	0.0145396
973.762	0.0145721
973.840	0.0144814
973.918	0.0146002
973.996	0.0146622
974.075	0.0145245
974.153	0.0145090
974.231	0.0145407
974.309	0.0144656
974.387	0.0144547
974.465	0.0145523
974.543	0.0145307
974.621	0.0145142
974.700	0.0144044
974.778	0.0143974
974.856	0.0144347
974.934	0.0144085
975.012	0.0144765
975.090	0.0144375
975.168	0.0143938
975.246	0.0144408
975.325	0.0143889
975.403	0.0144280
975.481	0.0145211
975.559	0.0144442
975.637	0.0143492
975.715	0.0144501
975.793	0.0145415
975.871	0.0144714
975.950	0.0145152
976.028	0.0145171
976.106	0.0145806
976.184	0.0145906
976.262	0.0145203
976.340	0.0144263
976.418	0.0145390
976.496	0.0145912
976.575	0.0144527
976.653	0.0145604
976.731	0.0144498
976.809	0.0143451
976.887	0.0146281
976.965	0.0145573
977.043	0.0144770
977.121	0.0143607
977.200	0.0145214
977.278	0.0145185
977.356	0.0145528
977.434	0.0144131
977.512	0.0144521
977.590	0.0145378
977.668	0.0145882
977.746	0.0144885
977.825	0.0145448
977.903	0.0145495
977.981	0.0144521
978.059	0.0145216
978.137	0.0146095
978.215	0.0144902
978.293	0.0144569
978.371	0.0144318
978.450	0.0145078
978.528	0.0145619
978.606	0.0145601
978.684	0.0144115
978.762	0.0142753
978.840	0.0144452
978.918	0.0143253
978.996	0.0144543
979.075	0.0145105
979.153	0.0144672
979.231	0.0143770
979.309	0.0142863
979.387	0.0145840
979.465	0.0144269
979.543	0.0144585
979.621	0.0146237
979.700	0.0145117
979.778	0.0144413
979.856	0.0145122
979.934	0.0144866
980.012	0.0145599
980.090	0.0144659
980.168	0.0144969
980.246	0.0144972
980.325	0.0145038
980.403	0.0144691
980.481	0.0145682
980.559	0.0144316
980.637	0.0143765
980.715	0.0145872
980.793	0.0145023
980.871	0.0144559
980.950	0.0144741
981.028	0.0144713
981.106	0.0144532
981.184	0.0144441
981.262	0.0144232
981.340	0.0145679
981.418	0.0145569
981.496	0.0145521
981.575	0.0145545
981.653	0.0144464
981.731	0.0145054
981.809	0.0145202
981.887	0.0144181
981.965	0.0145339
982.043	0.0145409
982.121	0.0146827
982.200	0.0144834
982.278	0.0144482
982.356	0.0145513
982.434	0.0144972
982.512	0.0145972
982.590	0.0144946
982.668	0.0143905
982.746	0.0143739
982.825	0.0144721
982.903	0.0145480
982.981	0.0144303
983.059	0.0144112
983.137	0.0144703
983.215	0.0145945
983.293	0.0145406
983.371	0.0143940
983.450	0.0145403
983.528	0.0145587
983.606	0.0145162
983.684	0.0144920
983.762	0.0145254
983.840	0.0146944
983.918	0.0144775
983.996	0.0144800
984.075	0.0145435
984.153	0.0143884
984.231	0.0144785
984.309	0.0145766
984.387	0.0146127
984.465	0.0146561
984.543	0.0145539
984.621	0.0144994
984.700	0.0146835
984.778	0.0145746
984.856	0.0144830
984.934	0.0145046
985.012	0.0145520
985.090	0.0145785
985.168	0.0144918
985.246	0.0144880
985.325	0.0145205
985.403	0.0146054
985.481	0.0145181
985.559	0.0145555
985.637	0.0146233
985.715	0.0145569
985.793	0.0145193
985.871	0.0145228
985.950	0.0144138
986.028	0.0144898
986.106	0.0146112
986.184	0.0144223
986.262	0.0144253
986.340	0.0145888
986.418	0.0144923
986.496	0.0145016
986.575	0.0144862
986.653	0.0144379
986.731	0.0144491
986.809	0.0145697
986.887	0.0144698
986.965	0.0143999
987.043	0.0145121
987.121	0.0144173
987.200	0.0145438
987.278	0.0143819
987.356	0.0143146
987.434	0.0145326
987.512	0.0144671
987.590	0.0144254
987.668	0.0144808
987.746	0.0144543
987.825	0.0144283
987.903	0.0145515
987.981	0.0144998
988.059	0.0145203
988.137	0.0146121
988.215	0.0145232
988.293	0.0145934
988.371	0.0143687
988.450	0.0146058
988.528	0.0145218
988.606	0.0145457
988.684	0.0145326
988.762	0.0144077
988.840	0.0144537
988.918	0.0143564
988.996	0.0144186
989.075	0.0145638
989.153	0.0144595
989.231	0.0145251
989.309	0.0143752
989.387	0.0144520
989.465	0.0144394
989.543	0.0144109
989.621	0.0144056
989.700	0.0145568
989.778	0.0145336
989.856	0.0144505
989.934	0.0144513
990.012	0.0144687
990.090	0.0146414
990.168	0.0145446
990.246	0.0145738
990.325	0.0145481
990.403	0.0144821
990.481	0.0145463
990.559	0.0145693
990.637	0.0144222
990.715	0.0144002
990.793	0.0145206
990.871	0.0143563
990.950	0.0144508
991.028	0.0145270
991.106	0.0144701
991.184	0.0145336
991.262	0.0144790
991.340	0.0144179
991.418	0.0144779
991.496	0.0145208
991.575	0.0146262
991.653	0.0145451
991.731	0.0144874
991.809	0.0145046
991.887	0.0144775
991.965	0.0145011
992.043	0.0144023
992.121	0.0143983
992.200	0.0144920
992.278	0.0145272
992.356	0.0144645
992.434	0.0143963
992.512	0.0146198
992.590	0.0144225
992.668	0.0144968
992.746	0.0144860
992.825	0.0143967
992.903	0.0144254
992.981	0.0144788
993.059	0.0143330
993.137	0.0143534
993.215	0.0144390
993.293	0.0144311
993.371	0.0144365
993.450	0.0143581
993.528	0.0143366
993.606	0.0144194
993.684	0.0144494
993.762	0.0144678
993.840	0.0143432
993.918	0.0145347
993.996	0.0145480
994.075	0.0146672
994.153	0.0145952
994.231	0.0145572
994.309	0.0145129
994.387	0.0145522
994.465	0.0146394
994.543	0.0145438
994.621	0.0144710
994.700	0.0145251
994.778	0.0146173
994.856	0.0145049
994.934	0.0143941
995.012	0.0144927
995.090	0.0144518
995.168	0.0143275
995.246	0.0143540
995.325	0.0145433
995.403	0.0144537
995.481	0.0144231
995.559	0.0144098
995.637	0.0144659
995.715	0.0144353
995.793	0.0144425
995.871	0.0142895
995.950	0.0145731
996.028	0.0143707
996.106	0.0145304
996.184	0.0145880
996.262	0.0145891
996.340	0.0144641
996.418	0.0144624
996.496	0.0145891
996.575	0.0146555
996.653	0.0145454
996.731	0.0145249
996.809	0.0145717
996.887	0.0145304
996.965	0.0145273
997.043	0.0145055
997.121	0.0144138
997.200	0.0145352
997.278	0.0144672
997.356	0.0144968
997.434	0.0145682
997.512	0.0144666
997.590	0.0144498
997.668	0.0143977
997.746	0.0144656
997.825	0.0145388
997.903	0.0145133
997.981	0.0143459
998.059	0.0144058
998.137	0.0143710
998.215	0.0144490
998.293	0.0143899
998.371	0.0144974
998.450	0.0145516
998.528	0.0145027
998.606	0.0145123
998.684	0.0144601
998.762	0.0143925
998.840	0.0146482
998.918	0.0145827
