05/04/2022	21:03:52	Ver.	4.1	UNKNOWN
Optical Delay	678.996401	Delta X		0.078125	Sweeps	1	Scan Rate	0/0
Coordinates	Axis 1	NaN	Axis 2	NaN	Axis 3	NaN	Axis 4	NaN	Axis 5	NaN	Axis 6	0.000000
TX Power	0.000000	RX Power	0.000000

678.996	0.0141692
679.075	0.0140013
679.153	0.0141430
679.231	0.0141675
679.309	0.0143348
679.387	0.0142260
679.465	0.0141004
679.543	0.0141975
679.621	0.0142422
679.700	0.0141447
679.778	0.0141106
679.856	0.0140388
679.934	0.0140946
680.012	0.0142390
680.090	0.0142029
680.168	0.0141827
680.246	0.0140847
680.325	0.0141103
680.403	0.0140832
680.481	0.0142282
680.559	0.0141168
680.637	0.0141994
680.715	0.0141657
680.793	0.0143549
680.871	0.0140945
680.950	0.0142528
681.028	0.0141500
681.106	0.0141914
681.184	0.0142894
681.262	0.0140524
681.340	0.0141581
681.418	0.0141673
681.496	0.0142285
681.575	0.0140608
681.653	0.0142972
681.731	0.0142867
681.809	0.0141554
681.887	0.0142249
681.965	0.0142007
682.043	0.0141184
682.121	0.0141103
682.200	0.0141855
682.278	0.0142037
682.356	0.0141569
682.434	0.0141510
682.512	0.0141288
682.590	0.0141530
682.668	0.0142080
682.746	0.0141885
682.825	0.0141908
682.903	0.0142166
682.981	0.0142276
683.059	0.0140926
683.137	0.0140832
683.215	0.0142667
683.293	0.0142539
683.371	0.0141293
683.450	0.0142431
683.528	0.0143163
683.606	0.0141463
683.684	0.0141383
683.762	0.0140578
683.840	0.0142107
683.918	0.0141923
683.996	0.0141393
684.075	0.0141967
684.153	0.0141029
684.231	0.0142219
684.309	0.0142319
684.387	0.0141912
684.465	0.0142545
684.543	0.0142167
684.621	0.0142643
684.700	0.0141356
684.778	0.0140568
684.856	0.0142138
684.934	0.0141909
685.012	0.0142648
685.090	0.0141873
685.168	0.0142620
685.246	0.0141186
685.325	0.0142380
685.403	0.0142454
685.481	0.0142406
685.559	0.0140839
685.637	0.0140163
685.715	0.0142754
685.793	0.0140874
685.871	0.0141961
685.950	0.0140263
686.028	0.0140934
686.106	0.0142931
686.184	0.0142542
686.262	0.0141686
686.340	0.0140768
686.418	0.0141771
686.496	0.0143523
686.575	0.0139935
686.653	0.0141879
686.731	0.0141716
686.809	0.0143839
686.887	0.0141458
686.965	0.0142187
687.043	0.0141876
687.121	0.0141092
687.200	0.0141063
687.278	0.0141763
687.356	0.0140484
687.434	0.0140736
687.512	0.0142211
687.590	0.0141969
687.668	0.0142447
687.746	0.0142786
687.825	0.0140840
687.903	0.0142552
687.981	0.0141808
688.059	0.0143816
688.137	0.0141699
688.215	0.0141984
688.293	0.0143563
688.371	0.0142178
688.450	0.0142468
688.528	0.0142422
688.606	0.0140372
688.684	0.0142057
688.762	0.0142059
688.840	0.0141692
688.918	0.0141522
688.996	0.0141109
689.075	0.0143008
689.153	0.0141828
689.231	0.0143517
689.309	0.0140350
689.387	0.0140409
689.465	0.0141261
689.543	0.0142626
689.621	0.0142629
689.700	0.0141831
689.778	0.0142905
689.856	0.0140917
689.934	0.0140735
690.012	0.0140059
690.090	0.0142177
690.168	0.0142509
690.246	0.0141135
690.325	0.0142113
690.403	0.0141044
690.481	0.0140651
690.559	0.0141133
690.637	0.0141840
690.715	0.0140975
690.793	0.0141148
690.871	0.0141177
690.950	0.0141027
691.028	0.0140907
691.106	0.0141725
691.184	0.0139967
691.262	0.0140976
691.340	0.0141061
691.418	0.0141616
691.496	0.0141279
691.575	0.0142291
691.653	0.0141676
691.731	0.0141458
691.809	0.0140887
691.887	0.0140925
691.965	0.0141534
692.043	0.0142435
692.121	0.0140802
692.200	0.0142520
692.278	0.0142220
692.356	0.0140452
692.434	0.0142588
692.512	0.0141523
692.590	0.0141484
692.668	0.0142643
692.746	0.0141483
692.825	0.0140561
692.903	0.0142265
692.981	0.0142387
693.059	0.0141405
693.137	0.0142742
693.215	0.0142828
693.293	0.0141360
693.371	0.0141977
693.450	0.0142094
693.528	0.0142866
693.606	0.0141763
693.684	0.0141059
693.762	0.0142604
693.840	0.0142313
693.918	0.0141661
693.996	0.0142041
694.075	0.0141135
694.153	0.0141710
694.231	0.0141772
694.309	0.0140057
694.387	0.0140385
694.465	0.0140799
694.543	0.0142111
694.621	0.0142596
694.700	0.0142198
694.778	0.0140601
694.856	0.0141310
694.934	0.0141512
695.012	0.0140792
695.090	0.0142663
695.168	0.0141843
695.246	0.0140799
695.325	0.0141492
695.403	0.0142563
695.481	0.0142049
695.559	0.0141068
695.637	0.0141164
695.715	0.0141512
695.793	0.0141296
695.871	0.0142763
695.950	0.0142498
696.028	0.0140235
696.106	0.0139793
696.184	0.0141862
696.262	0.0142014
696.340	0.0141016
696.418	0.0141929
696.496	0.0142679
696.575	0.0142922
696.653	0.0141263
696.731	0.0141222
696.809	0.0141259
696.887	0.0141044
696.965	0.0140205
697.043	0.0142303
697.121	0.0142471
697.200	0.0141975
697.278	0.0141547
697.356	0.0141164
697.434	0.0142073
697.512	0.0142046
697.590	0.0139786
697.668	0.0142148
697.746	0.0140726
697.825	0.0141402
697.903	0.0142352
697.981	0.0141947
698.059	0.0140644
698.137	0.0139828
698.215	0.0141804
698.293	0.0141046
698.371	0.0141667
698.450	0.0141988
698.528	0.0143597
698.606	0.0142392
698.684	0.0140388
698.762	0.0140440
698.840	0.0140807
698.918	0.0141488
698.996	0.0142869
699.075	0.0141819
699.153	0.0141741
699.231	0.0141201
699.309	0.0141624
699.387	0.0142241
699.465	0.0140836
699.543	0.0140483
699.621	0.0141946
699.700	0.0141894
699.778	0.0141840
699.856	0.0142234
699.934	0.0143031
700.012	0.0140997
700.090	0.0141427
700.168	0.0141959
700.246	0.0141172
700.325	0.0142535
700.403	0.0142307
700.481	0.0140612
700.559	0.0141121
700.637	0.0142070
700.715	0.0141802
700.793	0.0141049
700.871	0.0140913
700.950	0.0142126
701.028	0.0141921
701.106	0.0141154
701.184	0.0140582
701.262	0.0140731
701.340	0.0141345
701.418	0.0141079
701.496	0.0141397
701.575	0.0141132
701.653	0.0141059
701.731	0.0141119
701.809	0.0143174
701.887	0.0140816
701.965	0.0141545
702.043	0.0141811
702.121	0.0141453
702.200	0.0141202
702.278	0.0141610
702.356	0.0141819
702.434	0.0141884
702.512	0.0142842
702.590	0.0142218
702.668	0.0141306
702.746	0.0141282
702.825	0.0141534
702.903	0.0140942
702.981	0.0141146
703.059	0.0141187
703.137	0.0139934
703.215	0.0140147
703.293	0.0140517
703.371	0.0139484
703.450	0.0140835
703.528	0.0139384
703.606	0.0140985
703.684	0.0140305
703.762	0.0140849
703.840	0.0139611
703.918	0.0140260
703.996	0.0142281
704.075	0.0142007
704.153	0.0141421
704.231	0.0141937
704.309	0.0141150
704.387	0.0141390
704.465	0.0145020
704.543	0.0144064
704.621	0.0143602
704.700	0.0145667
704.778	0.0146938
704.856	0.0144911
704.934	0.0145197
705.012	0.0143884
705.090	0.0143340
705.168	0.0140646
705.246	0.0139296
705.325	0.0137810
705.403	0.0136337
705.481	0.0135135
705.559	0.0134114
705.637	0.0134776
705.715	0.0133489
705.793	0.0133465
705.871	0.0134258
705.950	0.0135240
706.028	0.0136162
706.106	0.0137938
706.184	0.0140493
706.262	0.0141906
706.340	0.0144415
706.418	0.0149061
706.496	0.0152029
706.575	0.0153955
706.653	0.0155460
706.731	0.0157299
706.809	0.0158215
706.887	0.0156042
706.965	0.0152772
707.043	0.0146168
707.121	0.0143618
707.200	0.0138222
707.278	0.0135789
707.356	0.0133412
707.434	0.0130483
707.512	0.0129525
707.590	0.0126346
707.668	0.0128062
707.746	0.0128973
707.825	0.0128967
707.903	0.0129826
707.981	0.0133271
708.059	0.0136150
708.137	0.0138280
708.215	0.0141632
708.293	0.0144707
708.371	0.0149189
708.450	0.0153999
708.528	0.0156184
708.606	0.0157220
708.684	0.0159167
708.762	0.0160987
708.840	0.0162479
708.918	0.0160635
708.996	0.0157052
709.075	0.0153545
709.153	0.0149844
709.231	0.0144456
709.309	0.0140314
709.387	0.0135089
709.465	0.0130218
709.543	0.0126588
709.621	0.0126588
709.700	0.0125155
709.778	0.0124944
709.856	0.0123461
709.934	0.0123498
710.012	0.0123158
710.090	0.0122153
710.168	0.0123711
710.246	0.0123115
710.325	0.0126532
710.403	0.0130640
710.481	0.0134789
710.559	0.0139650
710.637	0.0146763
710.715	0.0151035
710.793	0.0157643
710.871	0.0162730
710.950	0.0165600
711.028	0.0168958
711.106	0.0171288
711.184	0.0169822
711.262	0.0170158
711.340	0.0167835
711.418	0.0162758
711.496	0.0156502
711.575	0.0150483
711.653	0.0145116
711.731	0.0137704
711.809	0.0131364
711.887	0.0125549
711.965	0.0120632
712.043	0.0116251
712.121	0.0113242
712.200	0.0109851
712.278	0.0107687
712.356	0.0108854
712.434	0.0111113
712.512	0.0114149
712.590	0.0121148
712.668	0.0130791
712.746	0.0139860
712.825	0.0149025
712.903	0.0158528
712.981	0.0166666
713.059	0.0171487
713.137	0.0174368
713.215	0.0177580
713.293	0.0179012
713.371	0.0178573
713.450	0.0176099
713.528	0.0172915
713.606	0.0167428
713.684	0.0160659
713.762	0.0152983
713.840	0.0145647
713.918	0.0138357
713.996	0.0130824
714.075	0.0124500
714.153	0.0119867
714.231	0.0117268
714.309	0.0115699
714.387	0.0113543
714.465	0.0111565
714.543	0.0112429
714.621	0.0114902
714.700	0.0116907
714.778	0.0120066
714.856	0.0125439
714.934	0.0131660
715.012	0.0138500
715.090	0.0144279
715.168	0.0150269
715.246	0.0154430
715.325	0.0159334
715.403	0.0160991
715.481	0.0160896
715.559	0.0160408
715.637	0.0161078
715.715	0.0158463
715.793	0.0158839
715.871	0.0157185
715.950	0.0153230
716.028	0.0151294
716.106	0.0148590
716.184	0.0145325
716.262	0.0140536
716.340	0.0138849
716.418	0.0134740
716.496	0.0131860
716.575	0.0130614
716.653	0.0129802
716.731	0.0131293
716.809	0.0131721
716.887	0.0134245
716.965	0.0134296
717.043	0.0137369
717.121	0.0138883
717.200	0.0138413
717.278	0.0140939
717.356	0.0142291
717.434	0.0142137
717.512	0.0143690
717.590	0.0143668
717.668	0.0143675
717.746	0.0142828
717.825	0.0143409
717.903	0.0143905
717.981	0.0142681
718.059	0.0143560
718.137	0.0143838
718.215	0.0144550
718.293	0.0145390
718.371	0.0144666
718.450	0.0146764
718.528	0.0145550
718.606	0.0144357
718.684	0.0144983
718.762	0.0145222
718.840	0.0146145
718.918	0.0145498
718.996	0.0144402
719.075	0.0145808
719.153	0.0144334
719.231	0.0145040
719.309	0.0143176
719.387	0.0141437
719.465	0.0140081
719.543	0.0137550
719.621	0.0136022
719.700	0.0133841
719.778	0.0130772
719.856	0.0129318
719.934	0.0127007
720.012	0.0126295
720.090	0.0128091
720.168	0.0129338
720.246	0.0131886
720.325	0.0134200
720.403	0.0137784
720.481	0.0144096
720.559	0.0149038
720.637	0.0151313
720.715	0.0154232
720.793	0.0158072
720.871	0.0159415
720.950	0.0159615
721.028	0.0157720
721.106	0.0155518
721.184	0.0153126
721.262	0.0150602
721.340	0.0145520
721.418	0.0140478
721.496	0.0139209
721.575	0.0136314
721.653	0.0135104
721.731	0.0131409
721.809	0.0129476
721.887	0.0128402
721.965	0.0125092
722.043	0.0124833
722.121	0.0123586
722.200	0.0123172
722.278	0.0124407
722.356	0.0126813
722.434	0.0127993
722.512	0.0130629
722.590	0.0134368
722.668	0.0138667
722.746	0.0140981
722.825	0.0145253
722.903	0.0150230
722.981	0.0154346
723.059	0.0158285
723.137	0.0161486
723.215	0.0164965
723.293	0.0166251
723.371	0.0167632
723.450	0.0166355
723.528	0.0164198
723.606	0.0159919
723.684	0.0154832
723.762	0.0150292
723.840	0.0143011
723.918	0.0138622
723.996	0.0131845
724.075	0.0127023
724.153	0.0123284
724.231	0.0121101
724.309	0.0118845
724.387	0.0117028
724.465	0.0116473
724.543	0.0118468
724.621	0.0122340
724.700	0.0125880
724.778	0.0128532
724.856	0.0134756
724.934	0.0140075
725.012	0.0144614
725.090	0.0151373
725.168	0.0152101
725.246	0.0156898
725.325	0.0162298
725.403	0.0162358
725.481	0.0163018
725.559	0.0164038
725.637	0.0163135
725.715	0.0159622
725.793	0.0155127
725.871	0.0152387
725.950	0.0148179
726.028	0.0141858
726.106	0.0138604
726.184	0.0133517
726.262	0.0129734
726.340	0.0125725
726.418	0.0123396
726.496	0.0121347
726.575	0.0120950
726.653	0.0120862
726.731	0.0121178
726.809	0.0124533
726.887	0.0126612
726.965	0.0129468
727.043	0.0132859
727.121	0.0137708
727.200	0.0141029
727.278	0.0146117
727.356	0.0149922
727.434	0.0154517
727.512	0.0158656
727.590	0.0163954
727.668	0.0166709
727.746	0.0166191
727.825	0.0167416
727.903	0.0166484
727.981	0.0163122
728.059	0.0159293
728.137	0.0155418
728.215	0.0148523
728.293	0.0143384
728.371	0.0136568
728.450	0.0131988
728.528	0.0127255
728.606	0.0123174
728.684	0.0118578
728.762	0.0115813
728.840	0.0113785
728.918	0.0113241
728.996	0.0114511
729.075	0.0116491
729.153	0.0121132
729.231	0.0126237
729.309	0.0130656
729.387	0.0135307
729.465	0.0140385
729.543	0.0147239
729.621	0.0151497
729.700	0.0154548
729.778	0.0158813
729.856	0.0161317
729.934	0.0163555
730.012	0.0163791
730.090	0.0164639
730.168	0.0162689
730.246	0.0161428
730.325	0.0159355
730.403	0.0156745
730.481	0.0153197
730.559	0.0148210
730.637	0.0144547
730.715	0.0141522
730.793	0.0135642
730.871	0.0132417
730.950	0.0129680
731.028	0.0124902
731.106	0.0123991
731.184	0.0122659
731.262	0.0121909
731.340	0.0121512
731.418	0.0123136
731.496	0.0125960
731.575	0.0129512
731.653	0.0131049
731.731	0.0135586
731.809	0.0140092
731.887	0.0144202
731.965	0.0150127
732.043	0.0155861
732.121	0.0158012
732.200	0.0159487
732.278	0.0162537
732.356	0.0164569
732.434	0.0163268
732.512	0.0160678
732.590	0.0159521
732.668	0.0155959
732.746	0.0151289
732.825	0.0148151
732.903	0.0145901
732.981	0.0139535
733.059	0.0136363
733.137	0.0131151
733.215	0.0127216
733.293	0.0124963
733.371	0.0123865
733.450	0.0122231
733.528	0.0121252
733.606	0.0123779
733.684	0.0127006
733.762	0.0128627
733.840	0.0130706
733.918	0.0134811
733.996	0.0137418
734.075	0.0141050
734.153	0.0142722
734.231	0.0146651
734.309	0.0149862
734.387	0.0151302
734.465	0.0155109
734.543	0.0156128
734.621	0.0155756
734.700	0.0157371
734.778	0.0156688
734.856	0.0155124
734.934	0.0156274
735.012	0.0155466
735.090	0.0153234
735.168	0.0149447
735.246	0.0147009
735.325	0.0146355
735.403	0.0143959
735.481	0.0140927
735.559	0.0139539
735.637	0.0137786
735.715	0.0134916
735.793	0.0131483
735.871	0.0131741
735.950	0.0129945
736.028	0.0128811
736.106	0.0127614
736.184	0.0127625
736.262	0.0129028
736.340	0.0130618
736.418	0.0130614
736.496	0.0133012
736.575	0.0136547
736.653	0.0137950
736.731	0.0141532
736.809	0.0144141
736.887	0.0147933
736.965	0.0149371
737.043	0.0153854
737.121	0.0155296
737.200	0.0157473
737.278	0.0158418
737.356	0.0157011
737.434	0.0158422
737.512	0.0156545
737.590	0.0154260
737.668	0.0151395
737.746	0.0149982
737.825	0.0146186
737.903	0.0143133
737.981	0.0139968
738.059	0.0138046
738.137	0.0135310
738.215	0.0132818
738.293	0.0130027
738.371	0.0128291
738.450	0.0128640
738.528	0.0128058
738.606	0.0128782
738.684	0.0130885
738.762	0.0132115
738.840	0.0134223
738.918	0.0136902
738.996	0.0138251
739.075	0.0140171
739.153	0.0143286
739.231	0.0145676
739.309	0.0148598
739.387	0.0151715
739.465	0.0151877
739.543	0.0153999
739.621	0.0154806
739.700	0.0156149
739.778	0.0156183
739.856	0.0154140
739.934	0.0151919
740.012	0.0151334
740.090	0.0149245
740.168	0.0147708
740.246	0.0143428
740.325	0.0141080
740.403	0.0138476
740.481	0.0135966
740.559	0.0133947
740.637	0.0130972
740.715	0.0128962
740.793	0.0127406
740.871	0.0126125
740.950	0.0127439
741.028	0.0128453
741.106	0.0130194
741.184	0.0130604
741.262	0.0133397
741.340	0.0137664
741.418	0.0141052
741.496	0.0144813
741.575	0.0146464
741.653	0.0151182
741.731	0.0153844
741.809	0.0155988
741.887	0.0157016
741.965	0.0157883
742.043	0.0157108
742.121	0.0157758
742.200	0.0155479
742.278	0.0152168
742.356	0.0149834
742.434	0.0147481
742.512	0.0146450
742.590	0.0142924
742.668	0.0139608
742.746	0.0136198
742.825	0.0134229
742.903	0.0131730
742.981	0.0129564
743.059	0.0128583
743.137	0.0127845
743.215	0.0127012
743.293	0.0128483
743.371	0.0130410
743.450	0.0132195
743.528	0.0132954
743.606	0.0134865
743.684	0.0138022
743.762	0.0140051
743.840	0.0142506
743.918	0.0145100
743.996	0.0146589
744.075	0.0149096
744.153	0.0149853
744.231	0.0151644
744.309	0.0153643
744.387	0.0152515
744.465	0.0152566
744.543	0.0152244
744.621	0.0152385
744.700	0.0152007
744.778	0.0150790
744.856	0.0149368
744.934	0.0147318
745.012	0.0145753
745.090	0.0142886
745.168	0.0140659
745.246	0.0137936
745.325	0.0135424
745.403	0.0133003
745.481	0.0132794
745.559	0.0130795
745.637	0.0128307
745.715	0.0128545
745.793	0.0129183
745.871	0.0128931
745.950	0.0129480
746.028	0.0130221
746.106	0.0131358
746.184	0.0134219
746.262	0.0136425
746.340	0.0139507
746.418	0.0141177
746.496	0.0144130
746.575	0.0147593
746.653	0.0149079
746.731	0.0152515
746.809	0.0151831
746.887	0.0154868
746.965	0.0153670
747.043	0.0154141
747.121	0.0153745
747.200	0.0152418
747.278	0.0151018
747.356	0.0150239
747.434	0.0148122
747.512	0.0147330
747.590	0.0144426
747.668	0.0142849
747.746	0.0141781
747.825	0.0139256
747.903	0.0136227
747.981	0.0136572
748.059	0.0134494
748.137	0.0131909
748.215	0.0132686
748.293	0.0133522
748.371	0.0132872
748.450	0.0132145
748.528	0.0133215
748.606	0.0134541
748.684	0.0134985
748.762	0.0135865
748.840	0.0138593
748.918	0.0139763
748.996	0.0141267
749.075	0.0144048
749.153	0.0145827
749.231	0.0148180
749.309	0.0148931
749.387	0.0150536
749.465	0.0151490
749.543	0.0152471
749.621	0.0152380
749.700	0.0151829
749.778	0.0150287
749.856	0.0148997
749.934	0.0147524
750.012	0.0146088
750.090	0.0144772
750.168	0.0142935
750.246	0.0140195
750.325	0.0138332
750.403	0.0136053
750.481	0.0135279
750.559	0.0132774
750.637	0.0133428
750.715	0.0132098
750.793	0.0131673
750.871	0.0131316
750.950	0.0132542
751.028	0.0133701
751.106	0.0133800
751.184	0.0136835
751.262	0.0139059
751.340	0.0140908
751.418	0.0143555
751.496	0.0145356
751.575	0.0146640
751.653	0.0147776
751.731	0.0149644
751.809	0.0151025
751.887	0.0150237
751.965	0.0151860
752.043	0.0151802
752.121	0.0150138
752.200	0.0150275
752.278	0.0151505
752.356	0.0149257
752.434	0.0146588
752.512	0.0144572
752.590	0.0142122
752.668	0.0141460
752.746	0.0139435
752.825	0.0137432
752.903	0.0137373
752.981	0.0135740
753.059	0.0134158
753.137	0.0134028
753.215	0.0134595
753.293	0.0134136
753.371	0.0134485
753.450	0.0133587
753.528	0.0136165
753.606	0.0136733
753.684	0.0139269
753.762	0.0138421
753.840	0.0140249
753.918	0.0142565
753.996	0.0143777
754.075	0.0144070
754.153	0.0146725
754.231	0.0147915
754.309	0.0148296
754.387	0.0149464
754.465	0.0148037
754.543	0.0149051
754.621	0.0148698
754.700	0.0148022
754.778	0.0147389
754.856	0.0147023
754.934	0.0145935
755.012	0.0144818
755.090	0.0143209
755.168	0.0140683
755.246	0.0138573
755.325	0.0138944
755.403	0.0138035
755.481	0.0137968
755.559	0.0135732
755.637	0.0136330
755.715	0.0136922
755.793	0.0134875
755.871	0.0135753
755.950	0.0136337
756.028	0.0137981
756.106	0.0138056
756.184	0.0138185
756.262	0.0139607
756.340	0.0139687
756.418	0.0141167
756.496	0.0141367
756.575	0.0142306
756.653	0.0144038
756.731	0.0144982
756.809	0.0145362
756.887	0.0146770
756.965	0.0147749
757.043	0.0148273
757.121	0.0147060
757.200	0.0146365
757.278	0.0147972
757.356	0.0146767
757.434	0.0144884
757.512	0.0143549
757.590	0.0142639
757.668	0.0143369
757.746	0.0141226
757.825	0.0139978
757.903	0.0139423
757.981	0.0138635
758.059	0.0138411
758.137	0.0137481
758.215	0.0136400
758.293	0.0134650
758.371	0.0135313
758.450	0.0135598
758.528	0.0137659
758.606	0.0136935
758.684	0.0138130
758.762	0.0139794
758.840	0.0141537
758.918	0.0141890
758.996	0.0143307
759.075	0.0144195
759.153	0.0145732
759.231	0.0146816
759.309	0.0147036
759.387	0.0145901
759.465	0.0147525
759.543	0.0149208
759.621	0.0146809
759.700	0.0146954
759.778	0.0147990
759.856	0.0146784
759.934	0.0143894
760.012	0.0144536
760.090	0.0144349
760.168	0.0142316
760.246	0.0141975
760.325	0.0139832
760.403	0.0139705
760.481	0.0138189
760.559	0.0137489
760.637	0.0136414
760.715	0.0135955
760.793	0.0136594
760.871	0.0137540
760.950	0.0136063
761.028	0.0137669
761.106	0.0138542
761.184	0.0140312
761.262	0.0140588
761.340	0.0140553
761.418	0.0141787
761.496	0.0144268
761.575	0.0144550
761.653	0.0146358
761.731	0.0145820
761.809	0.0146518
761.887	0.0146035
761.965	0.0147951
762.043	0.0149001
762.121	0.0147630
762.200	0.0146407
762.278	0.0148127
762.356	0.0147073
762.434	0.0143960
762.512	0.0143761
762.590	0.0143436
762.668	0.0142580
762.746	0.0141312
762.825	0.0140450
762.903	0.0141501
762.981	0.0138577
763.059	0.0138303
763.137	0.0137929
763.215	0.0136961
763.293	0.0136538
763.371	0.0137305
763.450	0.0138943
763.528	0.0138356
763.606	0.0138227
763.684	0.0138744
763.762	0.0140214
763.840	0.0141093
763.918	0.0141085
763.996	0.0143282
764.075	0.0143819
764.153	0.0143666
764.231	0.0143716
764.309	0.0145360
764.387	0.0146199
764.465	0.0144369
764.543	0.0146246
764.621	0.0146130
764.700	0.0146308
764.778	0.0145431
764.856	0.0144386
764.934	0.0146270
765.012	0.0143647
765.090	0.0142861
765.168	0.0143040
765.246	0.0141890
765.325	0.0140800
765.403	0.0140598
765.481	0.0140359
765.559	0.0140602
765.637	0.0138472
765.715	0.0138294
765.793	0.0139306
765.871	0.0138963
765.950	0.0138445
766.028	0.0139529
766.106	0.0139161
766.184	0.0140615
766.262	0.0141273
766.340	0.0140524
766.418	0.0140415
766.496	0.0141691
766.575	0.0142648
766.653	0.0143739
766.731	0.0143337
766.809	0.0143082
766.887	0.0144062
766.965	0.0145688
767.043	0.0144061
767.121	0.0145207
767.200	0.0145503
767.278	0.0144832
767.356	0.0144476
767.434	0.0143354
767.512	0.0143293
767.590	0.0144070
767.668	0.0143538
767.746	0.0143537
767.825	0.0143317
767.903	0.0141454
767.981	0.0141568
768.059	0.0139925
768.137	0.0139232
768.215	0.0141538
768.293	0.0139543
768.371	0.0139135
768.450	0.0139808
768.528	0.0139957
768.606	0.0138696
768.684	0.0138818
768.762	0.0140371
768.840	0.0139770
768.918	0.0139707
768.996	0.0139906
769.075	0.0141932
769.153	0.0140627
769.231	0.0142619
769.309	0.0143053
769.387	0.0145275
769.465	0.0144437
769.543	0.0142610
769.621	0.0144617
769.700	0.0144817
769.778	0.0143665
769.856	0.0145810
769.934	0.0145918
770.012	0.0145557
770.090	0.0143818
770.168	0.0143113
770.246	0.0142704
770.325	0.0142550
770.403	0.0141297
770.481	0.0141451
770.559	0.0139901
770.637	0.0140570
770.715	0.0139304
770.793	0.0139816
770.871	0.0138434
770.950	0.0137943
771.028	0.0137379
771.106	0.0138335
771.184	0.0139123
771.262	0.0139317
771.340	0.0138820
771.418	0.0139803
771.496	0.0140102
771.575	0.0140444
771.653	0.0141712
771.731	0.0142590
771.809	0.0143392
771.887	0.0144522
771.965	0.0143204
772.043	0.0142863
772.121	0.0143857
772.200	0.0144333
772.278	0.0143217
772.356	0.0142795
772.434	0.0142580
772.512	0.0143746
772.590	0.0142722
772.668	0.0142296
772.746	0.0142951
772.825	0.0141686
772.903	0.0141837
772.981	0.0142154
773.059	0.0140888
773.137	0.0139093
773.215	0.0140765
773.293	0.0140923
773.371	0.0139870
773.450	0.0139671
773.528	0.0139211
773.606	0.0141064
773.684	0.0139773
773.762	0.0138837
773.840	0.0138763
773.918	0.0140537
773.996	0.0141785
774.075	0.0142332
774.153	0.0140625
774.231	0.0141560
774.309	0.0143232
774.387	0.0141899
774.465	0.0141044
774.543	0.0143663
774.621	0.0143549
774.700	0.0142644
774.778	0.0143796
774.856	0.0143695
774.934	0.0143918
775.012	0.0145438
775.090	0.0143222
775.168	0.0143423
775.246	0.0142180
775.325	0.0142817
775.403	0.0142050
775.481	0.0141266
775.559	0.0141430
775.637	0.0141319
775.715	0.0142336
775.793	0.0141914
775.871	0.0141002
775.950	0.0139741
776.028	0.0140980
776.106	0.0140601
776.184	0.0140500
776.262	0.0140523
776.340	0.0141703
776.418	0.0140829
776.496	0.0141195
776.575	0.0140691
776.653	0.0140697
776.731	0.0142258
776.809	0.0141122
776.887	0.0142725
776.965	0.0141571
777.043	0.0143504
777.121	0.0141599
777.200	0.0142068
777.278	0.0141934
777.356	0.0142529
777.434	0.0142064
777.512	0.0141397
777.590	0.0143567
777.668	0.0143231
777.746	0.0142733
777.825	0.0143395
777.903	0.0141577
777.981	0.0142541
778.059	0.0142171
778.137	0.0141087
778.215	0.0141109
778.293	0.0142139
778.371	0.0141708
778.450	0.0140565
778.528	0.0142135
778.606	0.0142009
778.684	0.0140314
778.762	0.0140440
778.840	0.0141434
778.918	0.0140373
778.996	0.0140605
779.075	0.0141899
779.153	0.0141615
779.231	0.0141755
779.309	0.0141555
779.387	0.0144269
779.465	0.0143185
779.543	0.0142627
779.621	0.0141902
779.700	0.0142514
779.778	0.0144278
779.856	0.0143716
779.934	0.0144299
780.012	0.0143555
780.090	0.0143768
780.168	0.0142892
780.246	0.0143111
780.325	0.0143252
780.403	0.0142283
780.481	0.0143261
780.559	0.0141795
780.637	0.0142173
780.715	0.0141255
780.793	0.0142050
780.871	0.0140932
780.950	0.0140867
781.028	0.0140860
781.106	0.0141889
781.184	0.0139477
781.262	0.0141196
781.340	0.0141418
781.418	0.0140860
781.496	0.0140778
781.575	0.0141392
781.653	0.0140669
781.731	0.0140953
781.809	0.0141986
781.887	0.0142183
781.965	0.0141557
782.043	0.0141951
782.121	0.0141911
782.200	0.0142101
782.278	0.0143127
782.356	0.0143688
782.434	0.0142526
782.512	0.0143272
782.590	0.0142471
782.668	0.0143719
782.746	0.0143372
782.825	0.0143971
782.903	0.0142707
782.981	0.0143110
783.059	0.0142577
783.137	0.0142631
783.215	0.0142319
783.293	0.0142767
783.371	0.0142265
783.450	0.0140015
783.528	0.0139874
783.606	0.0140035
783.684	0.0140816
783.762	0.0140292
783.840	0.0140218
783.918	0.0140282
783.996	0.0140669
784.075	0.0142159
784.153	0.0141460
784.231	0.0141401
784.309	0.0142493
784.387	0.0141096
784.465	0.0140737
784.543	0.0141447
784.621	0.0141776
784.700	0.0142391
784.778	0.0143414
784.856	0.0142371
784.934	0.0141773
785.012	0.0142575
785.090	0.0143248
785.168	0.0142764
785.246	0.0143561
785.325	0.0143327
785.403	0.0141929
785.481	0.0142468
785.559	0.0141451
785.637	0.0142182
785.715	0.0140641
785.793	0.0141047
785.871	0.0142621
785.950	0.0142440
786.028	0.0140323
786.106	0.0141741
786.184	0.0142271
786.262	0.0140964
786.340	0.0140807
786.418	0.0140008
786.496	0.0141000
786.575	0.0141347
786.653	0.0142244
786.731	0.0141731
786.809	0.0140329
786.887	0.0142320
786.965	0.0140480
787.043	0.0141310
787.121	0.0142082
787.200	0.0143298
787.278	0.0142846
787.356	0.0142840
787.434	0.0142110
787.512	0.0144389
787.590	0.0143033
787.668	0.0143105
787.746	0.0143333
787.825	0.0142664
787.903	0.0143707
787.981	0.0142134
788.059	0.0142873
788.137	0.0143112
788.215	0.0142824
788.293	0.0142099
788.371	0.0141447
788.450	0.0141461
788.528	0.0140459
788.606	0.0140207
788.684	0.0140614
788.762	0.0140230
788.840	0.0139816
788.918	0.0140507
788.996	0.0140366
789.075	0.0141337
789.153	0.0141530
789.231	0.0140257
789.309	0.0140805
789.387	0.0143079
789.465	0.0141216
789.543	0.0142269
789.621	0.0141882
789.700	0.0142028
789.778	0.0142480
789.856	0.0141725
789.934	0.0142540
790.012	0.0141490
790.090	0.0143121
790.168	0.0143078
790.246	0.0144662
790.325	0.0142944
790.403	0.0142395
790.481	0.0141904
790.559	0.0143614
790.637	0.0142858
790.715	0.0141676
790.793	0.0141882
790.871	0.0142348
790.950	0.0141348
791.028	0.0141199
791.106	0.0141882
791.184	0.0140636
791.262	0.0142143
791.340	0.0140766
791.418	0.0141241
791.496	0.0140919
791.575	0.0139597
791.653	0.0140359
791.731	0.0141091
791.809	0.0141999
791.887	0.0141201
791.965	0.0141028
792.043	0.0140324
792.121	0.0141571
792.200	0.0141608
792.278	0.0142393
792.356	0.0142115
792.434	0.0142333
792.512	0.0142824
792.590	0.0143103
792.668	0.0141030
792.746	0.0141353
792.825	0.0142362
792.903	0.0141866
792.981	0.0140943
793.059	0.0142448
793.137	0.0143858
793.215	0.0142008
793.293	0.0142014
793.371	0.0141984
793.450	0.0141273
793.528	0.0141068
793.606	0.0142857
793.684	0.0141824
793.762	0.0141396
793.840	0.0141566
793.918	0.0140940
793.996	0.0142053
794.075	0.0141614
794.153	0.0142399
794.231	0.0141547
794.309	0.0141090
794.387	0.0141508
794.465	0.0140627
794.543	0.0140558
794.621	0.0143371
794.700	0.0141556
794.778	0.0142822
794.856	0.0140840
794.934	0.0141732
795.012	0.0141943
795.090	0.0141312
795.168	0.0142158
795.246	0.0142740
795.325	0.0142301
795.403	0.0143549
795.481	0.0142405
795.559	0.0142388
795.637	0.0142214
795.715	0.0142882
795.793	0.0143307
795.871	0.0142103
795.950	0.0142239
796.028	0.0142962
796.106	0.0141013
796.184	0.0142817
796.262	0.0141868
796.340	0.0141206
796.418	0.0142104
796.496	0.0142089
796.575	0.0140912
796.653	0.0141763
796.731	0.0141723
796.809	0.0140871
796.887	0.0140211
796.965	0.0139680
797.043	0.0140672
797.121	0.0141500
797.200	0.0141358
797.278	0.0141681
797.356	0.0142607
797.434	0.0141911
797.512	0.0140669
797.590	0.0140160
797.668	0.0140964
797.746	0.0141806
797.825	0.0140835
797.903	0.0142379
797.981	0.0141290
798.059	0.0141503
798.137	0.0142798
798.215	0.0144267
798.293	0.0143866
798.371	0.0143044
798.450	0.0142677
798.528	0.0143019
798.606	0.0143996
798.684	0.0142451
798.762	0.0141654
798.840	0.0142849
798.918	0.0141885
798.996	0.0143635
799.075	0.0142918
799.153	0.0140553
799.231	0.0142304
799.309	0.0142108
799.387	0.0142709
799.465	0.0141741
799.543	0.0141848
799.621	0.0141741
799.700	0.0142410
799.778	0.0143388
799.856	0.0142698
799.934	0.0142665
800.012	0.0142969
800.090	0.0143026
800.168	0.0142159
800.246	0.0142232
800.325	0.0140656
800.403	0.0142134
800.481	0.0141965
800.559	0.0142199
800.637	0.0142387
800.715	0.0142722
800.793	0.0142010
800.871	0.0141889
800.950	0.0142058
801.028	0.0141196
801.106	0.0142579
801.184	0.0142432
801.262	0.0142461
801.340	0.0141676
801.418	0.0143307
801.496	0.0142947
801.575	0.0141617
801.653	0.0141821
801.731	0.0141593
801.809	0.0142215
801.887	0.0140786
801.965	0.0141036
802.043	0.0140353
802.121	0.0140642
802.200	0.0142638
802.278	0.0141015
802.356	0.0141104
802.434	0.0142372
802.512	0.0141212
802.590	0.0140449
802.668	0.0141859
802.746	0.0142918
802.825	0.0140927
802.903	0.0143505
802.981	0.0143419
803.059	0.0142167
803.137	0.0142597
803.215	0.0143004
803.293	0.0141952
803.371	0.0142818
803.450	0.0141461
803.528	0.0143268
803.606	0.0142774
803.684	0.0142117
803.762	0.0144012
803.840	0.0142175
803.918	0.0140903
803.996	0.0142755
804.075	0.0143409
804.153	0.0142034
804.231	0.0142093
804.309	0.0142428
804.387	0.0141379
804.465	0.0143582
804.543	0.0143019
804.621	0.0142580
804.700	0.0143372
804.778	0.0143203
804.856	0.0143003
804.934	0.0141552
805.012	0.0142813
805.090	0.0141466
805.168	0.0141341
805.246	0.0142532
805.325	0.0141444
805.403	0.0140423
805.481	0.0139565
805.559	0.0141497
805.637	0.0142742
805.715	0.0141562
805.793	0.0141410
805.871	0.0141402
805.950	0.0140965
806.028	0.0141176
806.106	0.0140889
806.184	0.0140067
806.262	0.0141693
806.340	0.0141293
806.418	0.0141622
806.496	0.0140907
806.575	0.0141479
806.653	0.0141344
806.731	0.0141560
806.809	0.0142308
806.887	0.0142104
806.965	0.0142196
807.043	0.0142989
807.121	0.0142758
807.200	0.0143617
807.278	0.0142657
807.356	0.0142154
807.434	0.0143790
807.512	0.0143344
807.590	0.0142110
807.668	0.0143355
807.746	0.0142810
807.825	0.0141154
807.903	0.0141805
807.981	0.0140855
808.059	0.0140670
808.137	0.0139563
808.215	0.0140771
808.293	0.0140263
808.371	0.0140464
808.450	0.0140343
808.528	0.0142100
808.606	0.0140752
808.684	0.0140213
808.762	0.0140287
808.840	0.0141664
808.918	0.0142072
808.996	0.0141486
809.075	0.0140651
809.153	0.0141965
809.231	0.0141856
809.309	0.0143333
809.387	0.0143410
809.465	0.0142168
809.543	0.0142505
809.621	0.0143477
809.700	0.0143864
809.778	0.0143777
809.856	0.0144545
809.934	0.0143161
810.012	0.0141221
810.090	0.0141949
810.168	0.0140678
810.246	0.0139909
810.325	0.0142366
810.403	0.0141887
810.481	0.0140410
810.559	0.0141581
810.637	0.0141537
810.715	0.0140460
810.793	0.0141330
810.871	0.0141292
810.950	0.0140878
811.028	0.0140821
811.106	0.0140860
811.184	0.0142251
811.262	0.0141443
811.340	0.0141215
811.418	0.0141709
811.496	0.0142551
811.575	0.0141146
811.653	0.0142727
811.731	0.0142135
811.809	0.0142483
811.887	0.0142799
811.965	0.0142850
812.043	0.0140924
812.121	0.0142947
812.200	0.0143230
812.278	0.0142700
812.356	0.0143116
812.434	0.0141021
812.512	0.0141994
812.590	0.0142284
812.668	0.0142367
812.746	0.0141800
812.825	0.0142090
812.903	0.0142027
812.981	0.0141026
813.059	0.0141086
813.137	0.0141277
813.215	0.0142706
813.293	0.0142561
813.371	0.0141409
813.450	0.0140646
813.528	0.0141607
813.606	0.0142890
813.684	0.0142271
813.762	0.0141612
813.840	0.0142850
813.918	0.0143418
813.996	0.0142929
814.075	0.0143855
814.153	0.0142719
814.231	0.0142551
814.309	0.0144225
814.387	0.0144994
814.465	0.0142968
814.543	0.0142477
814.621	0.0141998
814.700	0.0143679
814.778	0.0143413
814.856	0.0143103
814.934	0.0143824
815.012	0.0142255
815.090	0.0142625
815.168	0.0142427
815.246	0.0142458
815.325	0.0140702
815.403	0.0141208
815.481	0.0139820
815.559	0.0140218
815.637	0.0142233
815.715	0.0140656
815.793	0.0142118
815.871	0.0143169
815.950	0.0142775
816.028	0.0142232
816.106	0.0140585
816.184	0.0142809
816.262	0.0142575
816.340	0.0142668
816.418	0.0142191
816.496	0.0143288
816.575	0.0142181
816.653	0.0141786
816.731	0.0141167
816.809	0.0142140
816.887	0.0143105
816.965	0.0141890
817.043	0.0141628
817.121	0.0142838
817.200	0.0142396
817.278	0.0141122
817.356	0.0141237
817.434	0.0141809
817.512	0.0142145
817.590	0.0142151
817.668	0.0141976
817.746	0.0140943
817.825	0.0140699
817.903	0.0141969
817.981	0.0141208
818.059	0.0141262
818.137	0.0140009
818.215	0.0141088
818.293	0.0141194
818.371	0.0140516
818.450	0.0141176
818.528	0.0140205
818.606	0.0141849
818.684	0.0142448
818.762	0.0141458
818.840	0.0141816
818.918	0.0141862
818.996	0.0142937
819.075	0.0141918
819.153	0.0143767
819.231	0.0143564
819.309	0.0143395
819.387	0.0143959
819.465	0.0142692
819.543	0.0142300
819.621	0.0143770
819.700	0.0143173
819.778	0.0140714
819.856	0.0143012
819.934	0.0143971
820.012	0.0142331
820.090	0.0140421
820.168	0.0142498
820.246	0.0140800
820.325	0.0140948
820.403	0.0141327
820.481	0.0141026
820.559	0.0140415
820.637	0.0140574
820.715	0.0141054
820.793	0.0140752
820.871	0.0141056
820.950	0.0140414
821.028	0.0141774
821.106	0.0141692
821.184	0.0142049
821.262	0.0142157
821.340	0.0142673
821.418	0.0141479
821.496	0.0141750
821.575	0.0142756
821.653	0.0142288
821.731	0.0142866
821.809	0.0143488
821.887	0.0142561
821.965	0.0142451
822.043	0.0141510
822.121	0.0141669
822.200	0.0142847
822.278	0.0143547
822.356	0.0142084
822.434	0.0142149
822.512	0.0142052
822.590	0.0142107
822.668	0.0141892
822.746	0.0141444
822.825	0.0142664
822.903	0.0140890
822.981	0.0141784
823.059	0.0142390
823.137	0.0139426
823.215	0.0139985
823.293	0.0141546
823.371	0.0141584
823.450	0.0142698
823.528	0.0142480
823.606	0.0142478
823.684	0.0143729
823.762	0.0142625
823.840	0.0142751
823.918	0.0141856
823.996	0.0142595
824.075	0.0142980
824.153	0.0143293
824.231	0.0142817
824.309	0.0142159
824.387	0.0142185
824.465	0.0142209
824.543	0.0143019
824.621	0.0141769
824.700	0.0141869
824.778	0.0140955
824.856	0.0140485
824.934	0.0142513
825.012	0.0140940
825.090	0.0140971
825.168	0.0142445
825.246	0.0142107
825.325	0.0140746
825.403	0.0141476
825.481	0.0141624
825.559	0.0140919
825.637	0.0141470
825.715	0.0140668
825.793	0.0142391
825.871	0.0142829
825.950	0.0141406
826.028	0.0142255
826.106	0.0142347
826.184	0.0141295
826.262	0.0141533
826.340	0.0141629
826.418	0.0140769
826.496	0.0142539
826.575	0.0140973
826.653	0.0142027
826.731	0.0141391
826.809	0.0141809
826.887	0.0140244
826.965	0.0140863
827.043	0.0142371
827.121	0.0141825
827.200	0.0143165
827.278	0.0141603
827.356	0.0140329
827.434	0.0140803
827.512	0.0142779
827.590	0.0142860
827.668	0.0141290
827.746	0.0142796
827.825	0.0143284
827.903	0.0142303
827.981	0.0142282
828.059	0.0142575
828.137	0.0142521
828.215	0.0142104
828.293	0.0142725
828.371	0.0141451
828.450	0.0141521
828.528	0.0141700
828.606	0.0141423
828.684	0.0141657
828.762	0.0141435
828.840	0.0141512
828.918	0.0141282
828.996	0.0140479
829.075	0.0140540
829.153	0.0140987
829.231	0.0141115
829.309	0.0142148
829.387	0.0140785
829.465	0.0141561
829.543	0.0142615
829.621	0.0140320
829.700	0.0142799
829.778	0.0143176
829.856	0.0142720
829.934	0.0141793
830.012	0.0141786
830.090	0.0141833
830.168	0.0142760
830.246	0.0143513
830.325	0.0143067
830.403	0.0142374
830.481	0.0143636
830.559	0.0142879
830.637	0.0142117
830.715	0.0142293
830.793	0.0142611
830.871	0.0142921
830.950	0.0140410
831.028	0.0143179
831.106	0.0142346
831.184	0.0142559
831.262	0.0142890
831.340	0.0141744
831.418	0.0141841
831.496	0.0140826
831.575	0.0142186
831.653	0.0142616
831.731	0.0141308
831.809	0.0141576
831.887	0.0143056
831.965	0.0143246
832.043	0.0142829
832.121	0.0142529
832.200	0.0142275
832.278	0.0141793
832.356	0.0142127
832.434	0.0142335
832.512	0.0140655
832.590	0.0143176
832.668	0.0142893
832.746	0.0142284
832.825	0.0141922
832.903	0.0141023
832.981	0.0142202
833.059	0.0143457
833.137	0.0140599
833.215	0.0142078
833.293	0.0142137
833.371	0.0141188
833.450	0.0140765
833.528	0.0141639
833.606	0.0142805
833.684	0.0141386
833.762	0.0141086
833.840	0.0141833
833.918	0.0142165
833.996	0.0141637
834.075	0.0141376
834.153	0.0141611
834.231	0.0142705
834.309	0.0142392
834.387	0.0142597
834.465	0.0142699
834.543	0.0142735
834.621	0.0142119
834.700	0.0142341
834.778	0.0142472
834.856	0.0143021
834.934	0.0143364
835.012	0.0140453
835.090	0.0141588
835.168	0.0142245
835.246	0.0142012
835.325	0.0141593
835.403	0.0142015
835.481	0.0142249
835.559	0.0142831
835.637	0.0143130
835.715	0.0143122
835.793	0.0142499
835.871	0.0141349
835.950	0.0142252
836.028	0.0143316
836.106	0.0141431
836.184	0.0142255
836.262	0.0143082
836.340	0.0142343
836.418	0.0142316
836.496	0.0143395
836.575	0.0141922
836.653	0.0140732
836.731	0.0141219
836.809	0.0140809
836.887	0.0140780
836.965	0.0141679
837.043	0.0140023
837.121	0.0141716
837.200	0.0141515
837.278	0.0140318
837.356	0.0140531
837.434	0.0140226
837.512	0.0141512
837.590	0.0141235
837.668	0.0142113
837.746	0.0141993
837.825	0.0143488
837.903	0.0142805
837.981	0.0143745
838.059	0.0144252
838.137	0.0144273
838.215	0.0143827
838.293	0.0143350
838.371	0.0143431
838.450	0.0143020
838.528	0.0142896
838.606	0.0142712
838.684	0.0141823
838.762	0.0141304
838.840	0.0142168
838.918	0.0141244
838.996	0.0140948
839.075	0.0140485
839.153	0.0140760
839.231	0.0140194
839.309	0.0141103
839.387	0.0139182
839.465	0.0141725
839.543	0.0140573
839.621	0.0141195
839.700	0.0142724
839.778	0.0140044
839.856	0.0141517
839.934	0.0141842
840.012	0.0142775
840.090	0.0142487
840.168	0.0142997
840.246	0.0143510
840.325	0.0143904
840.403	0.0143665
840.481	0.0142542
840.559	0.0143493
840.637	0.0143522
840.715	0.0142588
840.793	0.0143108
840.871	0.0142725
840.950	0.0142339
841.028	0.0142857
841.106	0.0142164
841.184	0.0142150
841.262	0.0142050
841.340	0.0143580
841.418	0.0141233
841.496	0.0140813
841.575	0.0140629
841.653	0.0141248
841.731	0.0141283
841.809	0.0140750
841.887	0.0141915
841.965	0.0141109
842.043	0.0140302
842.121	0.0141515
842.200	0.0142740
842.278	0.0143056
842.356	0.0143324
842.434	0.0143206
842.512	0.0142417
842.590	0.0141623
842.668	0.0142192
842.746	0.0141592
842.825	0.0142826
842.903	0.0142332
842.981	0.0142617
843.059	0.0141006
843.137	0.0142219
843.215	0.0142092
843.293	0.0141010
843.371	0.0142351
843.450	0.0141721
843.528	0.0141543
843.606	0.0142636
843.684	0.0141462
843.762	0.0142245
843.840	0.0141022
843.918	0.0142745
843.996	0.0141435
844.075	0.0141505
844.153	0.0142441
844.231	0.0142350
844.309	0.0142989
844.387	0.0141677
844.465	0.0141749
844.543	0.0141761
844.621	0.0141216
844.700	0.0141632
844.778	0.0141110
844.856	0.0140997
844.934	0.0139933
845.012	0.0142290
845.090	0.0142058
845.168	0.0140141
845.246	0.0140151
845.325	0.0141022
845.403	0.0142163
845.481	0.0140818
845.559	0.0141687
845.637	0.0140619
845.715	0.0141129
845.793	0.0143192
845.871	0.0142064
845.950	0.0142161
846.028	0.0141428
846.106	0.0142043
846.184	0.0143266
846.262	0.0142426
846.340	0.0141673
846.418	0.0141833
846.496	0.0143451
846.575	0.0142182
846.653	0.0141119
846.731	0.0141211
846.809	0.0141943
846.887	0.0141296
846.965	0.0141574
847.043	0.0142401
847.121	0.0141999
847.200	0.0140714
847.278	0.0141354
847.356	0.0141944
847.434	0.0140082
847.512	0.0140377
847.590	0.0140035
847.668	0.0140442
847.746	0.0140082
847.825	0.0140287
847.903	0.0143181
847.981	0.0141066
848.059	0.0141483
848.137	0.0141676
848.215	0.0142063
848.293	0.0142822
848.371	0.0142146
848.450	0.0141319
848.528	0.0141763
848.606	0.0141580
848.684	0.0143516
848.762	0.0143510
848.840	0.0142587
848.918	0.0143275
848.996	0.0143573
849.075	0.0142373
849.153	0.0142757
849.231	0.0141696
849.309	0.0141574
849.387	0.0141280
849.465	0.0141290
849.543	0.0141435
849.621	0.0141495
849.700	0.0141014
849.778	0.0139880
849.856	0.0140783
849.934	0.0140643
850.012	0.0140573
850.090	0.0141077
850.168	0.0139901
850.246	0.0140706
850.325	0.0140790
850.403	0.0141261
850.481	0.0141031
850.559	0.0140690
850.637	0.0140402
850.715	0.0142310
850.793	0.0141003
850.871	0.0140379
850.950	0.0141313
851.028	0.0142091
851.106	0.0142458
851.184	0.0143723
851.262	0.0141918
851.340	0.0143793
851.418	0.0141809
851.496	0.0142674
851.575	0.0141930
851.653	0.0142400
851.731	0.0142704
851.809	0.0141833
851.887	0.0142881
851.965	0.0141131
852.043	0.0139912
852.121	0.0140963
852.200	0.0140076
852.278	0.0140638
852.356	0.0140547
852.434	0.0139648
852.512	0.0140195
852.590	0.0141190
852.668	0.0140875
852.746	0.0142384
852.825	0.0142494
852.903	0.0142873
852.981	0.0142612
853.059	0.0142525
853.137	0.0141999
853.215	0.0142214
853.293	0.0143015
853.371	0.0142577
853.450	0.0142312
853.528	0.0141895
853.606	0.0142160
853.684	0.0142795
853.762	0.0142272
853.840	0.0141077
853.918	0.0141759
853.996	0.0143866
854.075	0.0141719
854.153	0.0140474
854.231	0.0141121
854.309	0.0142017
854.387	0.0140092
854.465	0.0140526
854.543	0.0141096
854.621	0.0141806
854.700	0.0141348
854.778	0.0140420
854.856	0.0141706
854.934	0.0140517
855.012	0.0141305
855.090	0.0141345
855.168	0.0139961
855.246	0.0141529
855.325	0.0141173
855.403	0.0142100
855.481	0.0141359
855.559	0.0141662
855.637	0.0141709
855.715	0.0141737
855.793	0.0141965
855.871	0.0142472
855.950	0.0143054
856.028	0.0141817
856.106	0.0140813
856.184	0.0142909
856.262	0.0142044
856.340	0.0140629
856.418	0.0141418
856.496	0.0142202
856.575	0.0142214
856.653	0.0142477
856.731	0.0142068
856.809	0.0141099
856.887	0.0140649
856.965	0.0140165
857.043	0.0140288
857.121	0.0140481
857.200	0.0141673
857.278	0.0141174
857.356	0.0141273
857.434	0.0140852
857.512	0.0140435
857.590	0.0141833
857.668	0.0142011
857.746	0.0141279
857.825	0.0141441
857.903	0.0141492
857.981	0.0142709
858.059	0.0142345
858.137	0.0140833
858.215	0.0141656
858.293	0.0142197
858.371	0.0142048
858.450	0.0141589
858.528	0.0141393
858.606	0.0142464
858.684	0.0141416
858.762	0.0141789
858.840	0.0142323
858.918	0.0141332
858.996	0.0142886
859.075	0.0143925
859.153	0.0142107
859.231	0.0140929
859.309	0.0143217
859.387	0.0142081
859.465	0.0141351
859.543	0.0141872
859.621	0.0142700
859.700	0.0142652
859.778	0.0142200
859.856	0.0140111
859.934	0.0141767
860.012	0.0141700
860.090	0.0141876
860.168	0.0140831
860.246	0.0141028
860.325	0.0140778
860.403	0.0141087
860.481	0.0141147
860.559	0.0141041
860.637	0.0142027
860.715	0.0142009
860.793	0.0142273
860.871	0.0140771
860.950	0.0141331
861.028	0.0140695
861.106	0.0141289
861.184	0.0142142
861.262	0.0143376
861.340	0.0143232
861.418	0.0140724
861.496	0.0141030
861.575	0.0142719
861.653	0.0142411
861.731	0.0140544
861.809	0.0141257
861.887	0.0142828
861.965	0.0141091
862.043	0.0141708
862.121	0.0141707
862.200	0.0142205
862.278	0.0141528
862.356	0.0141965
862.434	0.0141775
862.512	0.0142093
862.590	0.0141376
862.668	0.0141604
862.746	0.0141779
862.825	0.0141366
862.903	0.0141817
862.981	0.0140801
863.059	0.0142625
863.137	0.0141386
863.215	0.0141894
863.293	0.0141573
863.371	0.0140382
863.450	0.0141041
863.528	0.0142895
863.606	0.0141714
863.684	0.0140749
863.762	0.0140524
863.840	0.0142006
863.918	0.0140879
863.996	0.0141902
864.075	0.0141876
864.153	0.0141165
864.231	0.0140759
864.309	0.0142398
864.387	0.0141457
864.465	0.0142048
864.543	0.0141543
864.621	0.0141467
864.700	0.0140672
864.778	0.0140063
864.856	0.0141794
864.934	0.0141151
865.012	0.0141613
865.090	0.0141787
865.168	0.0142023
865.246	0.0142287
865.325	0.0142207
865.403	0.0141986
865.481	0.0142553
865.559	0.0143024
865.637	0.0142464
865.715	0.0141693
865.793	0.0142467
865.871	0.0142946
865.950	0.0142387
866.028	0.0141985
866.106	0.0143097
866.184	0.0143600
866.262	0.0140867
866.340	0.0141628
866.418	0.0141948
866.496	0.0142056
866.575	0.0142238
866.653	0.0142028
866.731	0.0141785
866.809	0.0142431
866.887	0.0142170
866.965	0.0141674
867.043	0.0141416
867.121	0.0142366
867.200	0.0142886
867.278	0.0144158
867.356	0.0143597
867.434	0.0142067
867.512	0.0142166
867.590	0.0143253
867.668	0.0141193
867.746	0.0142180
867.825	0.0142729
867.903	0.0141901
867.981	0.0143196
868.059	0.0141812
868.137	0.0141911
868.215	0.0142451
868.293	0.0141522
868.371	0.0141590
868.450	0.0141930
868.528	0.0143684
868.606	0.0141229
868.684	0.0141093
868.762	0.0141286
868.840	0.0142178
868.918	0.0141238
868.996	0.0139523
869.075	0.0141327
869.153	0.0141808
869.231	0.0141506
869.309	0.0141815
869.387	0.0142976
869.465	0.0141104
869.543	0.0140939
869.621	0.0141808
869.700	0.0143321
869.778	0.0142424
869.856	0.0141929
869.934	0.0141946
870.012	0.0142934
870.090	0.0142427
870.168	0.0141389
870.246	0.0143029
870.325	0.0141894
870.403	0.0142918
870.481	0.0142480
870.559	0.0141195
870.637	0.0142563
870.715	0.0142868
870.793	0.0142751
870.871	0.0142602
870.950	0.0142103
871.028	0.0141203
871.106	0.0140669
871.184	0.0139116
871.262	0.0140376
871.340	0.0140504
871.418	0.0140612
871.496	0.0141566
871.575	0.0139814
871.653	0.0140859
871.731	0.0142077
871.809	0.0141966
871.887	0.0140772
871.965	0.0141990
872.043	0.0141642
872.121	0.0141478
872.200	0.0142324
872.278	0.0141972
872.356	0.0141422
872.434	0.0142824
872.512	0.0142810
872.590	0.0143333
872.668	0.0143168
872.746	0.0141841
872.825	0.0142005
872.903	0.0143903
872.981	0.0142145
873.059	0.0141472
873.137	0.0140470
873.215	0.0143194
873.293	0.0141447
873.371	0.0141640
873.450	0.0141505
873.528	0.0139980
873.606	0.0141233
873.684	0.0140713
873.762	0.0141790
873.840	0.0140564
873.918	0.0141614
873.996	0.0140799
874.075	0.0141312
874.153	0.0141285
874.231	0.0142233
874.309	0.0140930
874.387	0.0142200
874.465	0.0141132
874.543	0.0141122
874.621	0.0141355
874.700	0.0141605
874.778	0.0141559
874.856	0.0141834
874.934	0.0140900
875.012	0.0141711
875.090	0.0142359
875.168	0.0142213
875.246	0.0140614
875.325	0.0140489
875.403	0.0141242
875.481	0.0141141
875.559	0.0141656
875.637	0.0142674
875.715	0.0142027
875.793	0.0141852
875.871	0.0140984
875.950	0.0140862
876.028	0.0141150
876.106	0.0141553
876.184	0.0140524
876.262	0.0141696
876.340	0.0140636
876.418	0.0141614
876.496	0.0141563
876.575	0.0141695
876.653	0.0141966
876.731	0.0140748
876.809	0.0141454
876.887	0.0141343
876.965	0.0141857
877.043	0.0141708
877.121	0.0142693
877.200	0.0142181
877.278	0.0141634
877.356	0.0142417
877.434	0.0142846
877.512	0.0142241
877.590	0.0140544
877.668	0.0141916
877.746	0.0142472
877.825	0.0140320
877.903	0.0142186
877.981	0.0141216
878.059	0.0141124
878.137	0.0141061
878.215	0.0141691
878.293	0.0141552
878.371	0.0141383
878.450	0.0141088
878.528	0.0141359
878.606	0.0140264
878.684	0.0141022
878.762	0.0141422
878.840	0.0141687
878.918	0.0140824
878.996	0.0141109
879.075	0.0141724
879.153	0.0141720
879.231	0.0141415
879.309	0.0142509
879.387	0.0142684
879.465	0.0141998
879.543	0.0142544
879.621	0.0141216
879.700	0.0142412
879.778	0.0142067
879.856	0.0141045
879.934	0.0140421
880.012	0.0142741
880.090	0.0141780
880.168	0.0141555
880.246	0.0141256
880.325	0.0140533
880.403	0.0141458
880.481	0.0141249
880.559	0.0140974
880.637	0.0141656
880.715	0.0142458
880.793	0.0141120
880.871	0.0140783
880.950	0.0141199
881.028	0.0142194
881.106	0.0142239
881.184	0.0141857
881.262	0.0142400
881.340	0.0141257
881.418	0.0141440
881.496	0.0141994
881.575	0.0142635
881.653	0.0140788
881.731	0.0141147
881.809	0.0141167
881.887	0.0142188
881.965	0.0142692
882.043	0.0143264
882.121	0.0142410
882.200	0.0142126
882.278	0.0141470
882.356	0.0141586
882.434	0.0142386
882.512	0.0142764
882.590	0.0141507
882.668	0.0141752
882.746	0.0140635
882.825	0.0141077
882.903	0.0141059
882.981	0.0140817
883.059	0.0141028
883.137	0.0140897
883.215	0.0140195
883.293	0.0140839
883.371	0.0140066
883.450	0.0140943
883.528	0.0141624
883.606	0.0140710
883.684	0.0141612
883.762	0.0140566
883.840	0.0141500
883.918	0.0141873
883.996	0.0141065
884.075	0.0142621
884.153	0.0142158
884.231	0.0141241
884.309	0.0142697
884.387	0.0143252
884.465	0.0143261
884.543	0.0141751
884.621	0.0142637
884.700	0.0142217
884.778	0.0142609
884.856	0.0141904
884.934	0.0143548
885.012	0.0142451
885.090	0.0140770
885.168	0.0141822
885.246	0.0143626
885.325	0.0141527
885.403	0.0140777
885.481	0.0142601
885.559	0.0142764
885.637	0.0142393
885.715	0.0141196
885.793	0.0140259
885.871	0.0140419
885.950	0.0140345
886.028	0.0141335
886.106	0.0140771
886.184	0.0141414
886.262	0.0140204
886.340	0.0140330
886.418	0.0141270
886.496	0.0141587
886.575	0.0140147
886.653	0.0142218
886.731	0.0141504
886.809	0.0140225
886.887	0.0142338
886.965	0.0142586
887.043	0.0142294
887.121	0.0141949
887.200	0.0143046
887.278	0.0143135
887.356	0.0142751
887.434	0.0142142
887.512	0.0143404
887.590	0.0142418
887.668	0.0141067
887.746	0.0143286
887.825	0.0142579
887.903	0.0141981
887.981	0.0141692
888.059	0.0142537
888.137	0.0140452
888.215	0.0140678
888.293	0.0141348
888.371	0.0140077
888.450	0.0140991
888.528	0.0141129
888.606	0.0141846
888.684	0.0140767
888.762	0.0141715
888.840	0.0142059
888.918	0.0142243
888.996	0.0141183
889.075	0.0142021
889.153	0.0143898
889.231	0.0142277
889.309	0.0142619
889.387	0.0142920
889.465	0.0142457
889.543	0.0141151
889.621	0.0141746
889.700	0.0142320
889.778	0.0143427
889.856	0.0141311
889.934	0.0141128
890.012	0.0141241
890.090	0.0142719
890.168	0.0142219
890.246	0.0142292
890.325	0.0142250
890.403	0.0140073
890.481	0.0141731
890.559	0.0141875
890.637	0.0142377
890.715	0.0143222
890.793	0.0142214
890.871	0.0141946
890.950	0.0141323
891.028	0.0142161
891.106	0.0142797
891.184	0.0142100
891.262	0.0141772
891.340	0.0142170
891.418	0.0141389
891.496	0.0142013
891.575	0.0141405
891.653	0.0141407
891.731	0.0141811
891.809	0.0142405
891.887	0.0141667
891.965	0.0141790
892.043	0.0141270
892.121	0.0140615
892.200	0.0142359
892.278	0.0140697
892.356	0.0140813
892.434	0.0139773
892.512	0.0140879
892.590	0.0141569
892.668	0.0140837
892.746	0.0142269
892.825	0.0141096
892.903	0.0139744
892.981	0.0141240
893.059	0.0143291
893.137	0.0142702
893.215	0.0141396
893.293	0.0141396
893.371	0.0142194
893.450	0.0142352
893.528	0.0141311
893.606	0.0141823
893.684	0.0142223
893.762	0.0141865
893.840	0.0141224
893.918	0.0143166
893.996	0.0141776
894.075	0.0142770
894.153	0.0141334
894.231	0.0141592
894.309	0.0142933
894.387	0.0141170
894.465	0.0141206
894.543	0.0141947
894.621	0.0140803
894.700	0.0142223
894.778	0.0140519
894.856	0.0142317
894.934	0.0140977
895.012	0.0141531
895.090	0.0142486
895.168	0.0143665
895.246	0.0142506
895.325	0.0141401
895.403	0.0142027
895.481	0.0142832
895.559	0.0143082
895.637	0.0142880
895.715	0.0142397
895.793	0.0141936
895.871	0.0142904
895.950	0.0143023
896.028	0.0142151
896.106	0.0141760
896.184	0.0142171
896.262	0.0142348
896.340	0.0142173
896.418	0.0141870
896.496	0.0140887
896.575	0.0142467
896.653	0.0142599
896.731	0.0142635
896.809	0.0140962
896.887	0.0141837
896.965	0.0141887
897.043	0.0141397
897.121	0.0141796
897.200	0.0141929
897.278	0.0142728
897.356	0.0141460
897.434	0.0141631
897.512	0.0141296
897.590	0.0141482
897.668	0.0142804
897.746	0.0142630
897.825	0.0143642
897.903	0.0143048
897.981	0.0143335
898.059	0.0143553
898.137	0.0144138
898.215	0.0142545
898.293	0.0142487
898.371	0.0143045
898.450	0.0142160
898.528	0.0141756
898.606	0.0142371
898.684	0.0139972
898.762	0.0140679
898.840	0.0142266
898.918	0.0138937
898.996	0.0139814
899.075	0.0139913
899.153	0.0141037
899.231	0.0139912
899.309	0.0139615
899.387	0.0140960
899.465	0.0142772
899.543	0.0143497
899.621	0.0142149
899.700	0.0142765
899.778	0.0144413
899.856	0.0143310
899.934	0.0143897
900.012	0.0144978
900.090	0.0144759
900.168	0.0144400
900.246	0.0143700
900.325	0.0144804
900.403	0.0143517
900.481	0.0143696
900.559	0.0144289
900.637	0.0143613
900.715	0.0140320
900.793	0.0140014
900.871	0.0141114
900.950	0.0141485
901.028	0.0140790
901.106	0.0140849
901.184	0.0138345
901.262	0.0138860
901.340	0.0140138
901.418	0.0139891
901.496	0.0139639
901.575	0.0139336
901.653	0.0139253
901.731	0.0142107
901.809	0.0140334
901.887	0.0141472
901.965	0.0141769
902.043	0.0142425
902.121	0.0143851
902.200	0.0144074
902.278	0.0144695
902.356	0.0144466
902.434	0.0144154
902.512	0.0145373
902.590	0.0146677
902.668	0.0147855
902.746	0.0145783
902.825	0.0146955
902.903	0.0147271
902.981	0.0144904
903.059	0.0144069
903.137	0.0142124
903.215	0.0142046
903.293	0.0140907
903.371	0.0139962
903.450	0.0138493
903.528	0.0138810
903.606	0.0138629
903.684	0.0138065
903.762	0.0139258
903.840	0.0138637
903.918	0.0138387
903.996	0.0138750
904.075	0.0139781
904.153	0.0138914
904.231	0.0139072
904.309	0.0140490
904.387	0.0142368
904.465	0.0143163
904.543	0.0144340
904.621	0.0143916
904.700	0.0145636
904.778	0.0146983
904.856	0.0146581
904.934	0.0147723
905.012	0.0147112
905.090	0.0146204
905.168	0.0145899
905.246	0.0145837
905.325	0.0144159
905.403	0.0142943
905.481	0.0142225
905.559	0.0142540
905.637	0.0139878
905.715	0.0139449
905.793	0.0138949
905.871	0.0138176
905.950	0.0138032
906.028	0.0138098
906.106	0.0138599
906.184	0.0137566
906.262	0.0137935
906.340	0.0140562
906.418	0.0139509
906.496	0.0140246
906.575	0.0141834
906.653	0.0142245
906.731	0.0144342
906.809	0.0144543
906.887	0.0144161
906.965	0.0144014
907.043	0.0144328
907.121	0.0145684
907.200	0.0144788
907.278	0.0145328
907.356	0.0145004
907.434	0.0144055
907.512	0.0143901
907.590	0.0144318
907.668	0.0142229
907.746	0.0142916
907.825	0.0143499
907.903	0.0142409
907.981	0.0142388
908.059	0.0142316
908.137	0.0141277
908.215	0.0141044
908.293	0.0141101
908.371	0.0140705
908.450	0.0140947
908.528	0.0139146
908.606	0.0140819
908.684	0.0140996
908.762	0.0139148
908.840	0.0141702
908.918	0.0141659
908.996	0.0142728
909.075	0.0141593
909.153	0.0141794
909.231	0.0142154
909.309	0.0143912
909.387	0.0143201
909.465	0.0143678
909.543	0.0145036
909.621	0.0143863
909.700	0.0144074
909.778	0.0143053
909.856	0.0143764
909.934	0.0141904
910.012	0.0142281
910.090	0.0141348
910.168	0.0141305
910.246	0.0141288
910.325	0.0143152
910.403	0.0142047
910.481	0.0140254
910.559	0.0140903
910.637	0.0142616
910.715	0.0142384
910.793	0.0142684
910.871	0.0141196
910.950	0.0141858
911.028	0.0142591
911.106	0.0142738
911.184	0.0142613
911.262	0.0142018
911.340	0.0142372
911.418	0.0143594
911.496	0.0142636
911.575	0.0141409
911.653	0.0141451
911.731	0.0142507
911.809	0.0143179
911.887	0.0142015
911.965	0.0141831
912.043	0.0143196
912.121	0.0143927
912.200	0.0143192
912.278	0.0144333
912.356	0.0143478
912.434	0.0144283
912.512	0.0144093
912.590	0.0142854
912.668	0.0143969
912.746	0.0144182
912.825	0.0143063
912.903	0.0143507
912.981	0.0142335
913.059	0.0140504
913.137	0.0140992
913.215	0.0141304
913.293	0.0140944
913.371	0.0139073
913.450	0.0139569
913.528	0.0138425
913.606	0.0139004
913.684	0.0140384
913.762	0.0139253
913.840	0.0140495
913.918	0.0141180
913.996	0.0140947
914.075	0.0141743
914.153	0.0143719
914.231	0.0141521
914.309	0.0143683
914.387	0.0144250
914.465	0.0143819
914.543	0.0143922
914.621	0.0144508
914.700	0.0145000
914.778	0.0144910
914.856	0.0144566
914.934	0.0145297
915.012	0.0145985
915.090	0.0144491
915.168	0.0143043
915.246	0.0143393
915.325	0.0142770
915.403	0.0141154
915.481	0.0141134
915.559	0.0140363
915.637	0.0140842
915.715	0.0138805
915.793	0.0139668
915.871	0.0137834
915.950	0.0139067
916.028	0.0138296
916.106	0.0138651
916.184	0.0138857
916.262	0.0139891
916.340	0.0140067
916.418	0.0141704
916.496	0.0142065
916.575	0.0142194
916.653	0.0142889
916.731	0.0144313
916.809	0.0145769
916.887	0.0144369
916.965	0.0145453
917.043	0.0144936
917.121	0.0145417
917.200	0.0145756
917.278	0.0144760
917.356	0.0144382
917.434	0.0143464
917.512	0.0143831
917.590	0.0142951
917.668	0.0142643
917.746	0.0141441
917.825	0.0141785
917.903	0.0140438
917.981	0.0139504
918.059	0.0140359
918.137	0.0139417
918.215	0.0139590
918.293	0.0139907
918.371	0.0140045
918.450	0.0140783
918.528	0.0141707
918.606	0.0140787
918.684	0.0140762
918.762	0.0142094
918.840	0.0141857
918.918	0.0143527
918.996	0.0141952
919.075	0.0143339
919.153	0.0142871
919.231	0.0143681
919.309	0.0143484
919.387	0.0142466
919.465	0.0144288
919.543	0.0144397
919.621	0.0144160
919.700	0.0144346
919.778	0.0143172
919.856	0.0142290
919.934	0.0142946
920.012	0.0141123
920.090	0.0142694
920.168	0.0141299
920.246	0.0140523
920.325	0.0140343
920.403	0.0140897
920.481	0.0140276
920.559	0.0140616
920.637	0.0140394
920.715	0.0139942
920.793	0.0138988
920.871	0.0140907
920.950	0.0140842
921.028	0.0141851
921.106	0.0143163
921.184	0.0141234
921.262	0.0141633
921.340	0.0144585
921.418	0.0143562
921.496	0.0144881
921.575	0.0144398
921.653	0.0144102
921.731	0.0144144
921.809	0.0142564
921.887	0.0142233
921.965	0.0141689
922.043	0.0142258
922.121	0.0142639
922.200	0.0142937
922.278	0.0141337
922.356	0.0141615
922.434	0.0140879
922.512	0.0140824
922.590	0.0140472
922.668	0.0140872
922.746	0.0141035
922.825	0.0142079
922.903	0.0139741
922.981	0.0140912
923.059	0.0142839
923.137	0.0141909
923.215	0.0143182
923.293	0.0142276
923.371	0.0142193
923.450	0.0144176
923.528	0.0143364
923.606	0.0142010
923.684	0.0143093
923.762	0.0144566
923.840	0.0143831
923.918	0.0143006
923.996	0.0143221
924.075	0.0143721
924.153	0.0142538
924.231	0.0144167
924.309	0.0143296
924.387	0.0142278
924.465	0.0142262
924.543	0.0142307
924.621	0.0142091
924.700	0.0142062
924.778	0.0140794
924.856	0.0140720
924.934	0.0141207
925.012	0.0141042
925.090	0.0141974
925.168	0.0141638
925.246	0.0141966
925.325	0.0140524
925.403	0.0142168
925.481	0.0141202
925.559	0.0142786
925.637	0.0142652
925.715	0.0143281
925.793	0.0142947
925.871	0.0143859
925.950	0.0143547
926.028	0.0142480
926.106	0.0142904
926.184	0.0143851
926.262	0.0143512
926.340	0.0143456
926.418	0.0144591
926.496	0.0142997
926.575	0.0142687
926.653	0.0142585
926.731	0.0141953
926.809	0.0141975
926.887	0.0142571
926.965	0.0142467
927.043	0.0141515
927.121	0.0141796
927.200	0.0142616
927.278	0.0140675
927.356	0.0140939
927.434	0.0140682
927.512	0.0139589
927.590	0.0140238
927.668	0.0139577
927.746	0.0141817
927.825	0.0140008
927.903	0.0139291
927.981	0.0140267
928.059	0.0139863
928.137	0.0141360
928.215	0.0141706
928.293	0.0142182
928.371	0.0142539
928.450	0.0142568
928.528	0.0143253
928.606	0.0143182
928.684	0.0143462
928.762	0.0144122
928.840	0.0145114
928.918	0.0145380
928.996	0.0144318
929.075	0.0144611
929.153	0.0145195
929.231	0.0144948
929.309	0.0144346
929.387	0.0143468
929.465	0.0143009
929.543	0.0142220
929.621	0.0141734
929.700	0.0142793
929.778	0.0140508
929.856	0.0140709
929.934	0.0140030
930.012	0.0140346
930.090	0.0140298
930.168	0.0140470
930.246	0.0140092
930.325	0.0140017
930.403	0.0141580
930.481	0.0140866
930.559	0.0139533
930.637	0.0141397
930.715	0.0141991
930.793	0.0141988
930.871	0.0143428
930.950	0.0143853
931.028	0.0142972
931.106	0.0144435
931.184	0.0144337
931.262	0.0143073
931.340	0.0144411
931.418	0.0143521
931.496	0.0143967
931.575	0.0143902
931.653	0.0144006
931.731	0.0143439
931.809	0.0143770
931.887	0.0144736
931.965	0.0141428
932.043	0.0142463
932.121	0.0142258
932.200	0.0140878
932.278	0.0140484
932.356	0.0140530
932.434	0.0139337
932.512	0.0141075
932.590	0.0141273
932.668	0.0140795
932.746	0.0140415
932.825	0.0140284
932.903	0.0141450
932.981	0.0141359
933.059	0.0141136
933.137	0.0141210
933.215	0.0141830
933.293	0.0143275
933.371	0.0142757
933.450	0.0144392
933.528	0.0143274
933.606	0.0143555
933.684	0.0143813
933.762	0.0143317
933.840	0.0143102
933.918	0.0143304
933.996	0.0142307
934.075	0.0142404
934.153	0.0142646
934.231	0.0143340
934.309	0.0141792
934.387	0.0141628
934.465	0.0142935
934.543	0.0140570
934.621	0.0140064
934.700	0.0142454
934.778	0.0140973
934.856	0.0142873
934.934	0.0140876
935.012	0.0139990
935.090	0.0141173
935.168	0.0141622
935.246	0.0141571
935.325	0.0141615
935.403	0.0142203
935.481	0.0141933
935.559	0.0142649
935.637	0.0140936
935.715	0.0141764
935.793	0.0141730
935.871	0.0141930
935.950	0.0143642
936.028	0.0141717
936.106	0.0143390
936.184	0.0143105
936.262	0.0142725
936.340	0.0140701
936.418	0.0142269
936.496	0.0143688
936.575	0.0141009
936.653	0.0143195
936.731	0.0142828
936.809	0.0142243
936.887	0.0142365
936.965	0.0140849
937.043	0.0141556
937.121	0.0141241
937.200	0.0140794
937.278	0.0140986
937.356	0.0141918
937.434	0.0140647
937.512	0.0140170
937.590	0.0140897
937.668	0.0141694
937.746	0.0140918
937.825	0.0140971
937.903	0.0140442
937.981	0.0142756
938.059	0.0142078
938.137	0.0141626
938.215	0.0142679
938.293	0.0142193
938.371	0.0143803
938.450	0.0143629
938.528	0.0144407
938.606	0.0144219
938.684	0.0142986
938.762	0.0143590
938.840	0.0144199
938.918	0.0144441
938.996	0.0142572
939.075	0.0142810
939.153	0.0142630
939.231	0.0142618
939.309	0.0141490
939.387	0.0141232
939.465	0.0141328
939.543	0.0142073
939.621	0.0141283
939.700	0.0140589
939.778	0.0141911
939.856	0.0141022
939.934	0.0140772
940.012	0.0141582
940.090	0.0141243
940.168	0.0141147
940.246	0.0140324
940.325	0.0140774
940.403	0.0140754
940.481	0.0142100
940.559	0.0143073
940.637	0.0141972
940.715	0.0143047
940.793	0.0142418
940.871	0.0143214
940.950	0.0145007
941.028	0.0143650
941.106	0.0145065
941.184	0.0143722
941.262	0.0144471
941.340	0.0143410
941.418	0.0143312
941.496	0.0143147
941.575	0.0142138
941.653	0.0141711
941.731	0.0141803
941.809	0.0140987
941.887	0.0141142
941.965	0.0140248
942.043	0.0139344
942.121	0.0140380
942.200	0.0140398
942.278	0.0140551
942.356	0.0140942
942.434	0.0141035
942.512	0.0140535
942.590	0.0141740
942.668	0.0142529
942.746	0.0141624
942.825	0.0140045
942.903	0.0142984
942.981	0.0144243
943.059	0.0143432
943.137	0.0143427
943.215	0.0144308
943.293	0.0141885
943.371	0.0143322
943.450	0.0143444
943.528	0.0144075
943.606	0.0143862
943.684	0.0143008
943.762	0.0143476
943.840	0.0143633
943.918	0.0142502
943.996	0.0141187
944.075	0.0142885
944.153	0.0143203
944.231	0.0142595
944.309	0.0142503
944.387	0.0140836
944.465	0.0140813
944.543	0.0139946
944.621	0.0140167
944.700	0.0141780
944.778	0.0141178
944.856	0.0141911
944.934	0.0140819
945.012	0.0140801
945.090	0.0141190
945.168	0.0141687
945.246	0.0141287
945.325	0.0140875
945.403	0.0143227
945.481	0.0141801
945.559	0.0141930
945.637	0.0140933
945.715	0.0142335
945.793	0.0140894
945.871	0.0142346
945.950	0.0143240
946.028	0.0142978
946.106	0.0143818
946.184	0.0143473
946.262	0.0140805
946.340	0.0142576
946.418	0.0142789
946.496	0.0142129
946.575	0.0142733
946.653	0.0141765
946.731	0.0141087
946.809	0.0141312
946.887	0.0140809
946.965	0.0141206
947.043	0.0140417
947.121	0.0139653
947.200	0.0139169
947.278	0.0141959
947.356	0.0141280
947.434	0.0140788
947.512	0.0141040
947.590	0.0140927
947.668	0.0140993
947.746	0.0139620
947.825	0.0140768
947.903	0.0141805
947.981	0.0141519
948.059	0.0141260
948.137	0.0141844
948.215	0.0142587
948.293	0.0141788
948.371	0.0141975
948.450	0.0141428
948.528	0.0141969
948.606	0.0142783
948.684	0.0143013
948.762	0.0141739
948.840	0.0141615
948.918	0.0141612
948.996	0.0142334
949.075	0.0142423
949.153	0.0140965
949.231	0.0141636
949.309	0.0141552
949.387	0.0141283
949.465	0.0141511
949.543	0.0141045
949.621	0.0141143
949.700	0.0139750
949.778	0.0139298
949.856	0.0139151
949.934	0.0140321
950.012	0.0141029
950.090	0.0140588
950.168	0.0140886
950.246	0.0140810
950.325	0.0140053
950.403	0.0140170
950.481	0.0141324
950.559	0.0142326
950.637	0.0142594
950.715	0.0142146
950.793	0.0141817
950.871	0.0140876
950.950	0.0141507
951.028	0.0142197
951.106	0.0142504
951.184	0.0143836
951.262	0.0141731
951.340	0.0142011
951.418	0.0141090
951.496	0.0143278
951.575	0.0140485
951.653	0.0142064
951.731	0.0141867
951.809	0.0141401
951.887	0.0142802
951.965	0.0142844
952.043	0.0141962
952.121	0.0142373
952.200	0.0140927
952.278	0.0141280
952.356	0.0140858
952.434	0.0141904
952.512	0.0141483
952.590	0.0141900
952.668	0.0139732
952.746	0.0140771
952.825	0.0141145
952.903	0.0140178
952.981	0.0141140
953.059	0.0140596
953.137	0.0142029
953.215	0.0141196
953.293	0.0142619
953.371	0.0140198
953.450	0.0140487
953.528	0.0141640
953.606	0.0140478
953.684	0.0140770
953.762	0.0140813
953.840	0.0142304
953.918	0.0141001
953.996	0.0141528
954.075	0.0141560
954.153	0.0141363
954.231	0.0141370
954.309	0.0141879
954.387	0.0142857
954.465	0.0141545
954.543	0.0142704
954.621	0.0142813
954.700	0.0142226
954.778	0.0142452
954.856	0.0141612
954.934	0.0140255
955.012	0.0141583
955.090	0.0141983
955.168	0.0140778
955.246	0.0141412
955.325	0.0141908
955.403	0.0140964
955.481	0.0141937
955.559	0.0141028
955.637	0.0140161
955.715	0.0140687
955.793	0.0139983
955.871	0.0140815
955.950	0.0141176
956.028	0.0139113
956.106	0.0142138
956.184	0.0141052
956.262	0.0142600
956.340	0.0141766
956.418	0.0141292
956.496	0.0141113
956.575	0.0142788
956.653	0.0141180
956.731	0.0142917
956.809	0.0141939
956.887	0.0141867
956.965	0.0142818
957.043	0.0142369
957.121	0.0142178
957.200	0.0143154
957.278	0.0141820
957.356	0.0142838
957.434	0.0141819
957.512	0.0141779
957.590	0.0141607
957.668	0.0142801
957.746	0.0142348
957.825	0.0141599
957.903	0.0141051
957.981	0.0142609
958.059	0.0143332
958.137	0.0142308
958.215	0.0142604
958.293	0.0142398
958.371	0.0142755
958.450	0.0142905
958.528	0.0141909
958.606	0.0143651
958.684	0.0142451
958.762	0.0141978
958.840	0.0141767
958.918	0.0140381
958.996	0.0140082
959.075	0.0139649
959.153	0.0140074
959.231	0.0142149
959.309	0.0141061
959.387	0.0141069
959.465	0.0141843
959.543	0.0139676
959.621	0.0140885
959.700	0.0140908
959.778	0.0140469
959.856	0.0140697
959.934	0.0140063
960.012	0.0141047
960.090	0.0142755
960.168	0.0141943
960.246	0.0143629
960.325	0.0141251
960.403	0.0142654
960.481	0.0142749
960.559	0.0141238
960.637	0.0141171
960.715	0.0142156
960.793	0.0141879
960.871	0.0143473
960.950	0.0141818
961.028	0.0139565
961.106	0.0141615
961.184	0.0141896
961.262	0.0140154
961.340	0.0139898
961.418	0.0141108
961.496	0.0140366
961.575	0.0139889
961.653	0.0139467
961.731	0.0140499
961.809	0.0140781
961.887	0.0142012
961.965	0.0141114
962.043	0.0142570
962.121	0.0141907
962.200	0.0141243
962.278	0.0142063
962.356	0.0143048
962.434	0.0142252
962.512	0.0142336
962.590	0.0143324
962.668	0.0143141
962.746	0.0142831
962.825	0.0142091
962.903	0.0142438
962.981	0.0142546
963.059	0.0141930
963.137	0.0140654
963.215	0.0140605
963.293	0.0142648
963.371	0.0140788
963.450	0.0141360
963.528	0.0141302
963.606	0.0141302
963.684	0.0140297
963.762	0.0140381
963.840	0.0139570
963.918	0.0140772
963.996	0.0140381
964.075	0.0141288
964.153	0.0140574
964.231	0.0141378
964.309	0.0140750
964.387	0.0140991
964.465	0.0142417
964.543	0.0141953
964.621	0.0139639
964.700	0.0141850
964.778	0.0141567
964.856	0.0140488
964.934	0.0141969
965.012	0.0141228
965.090	0.0141619
965.168	0.0141462
965.246	0.0141065
965.325	0.0140474
965.403	0.0140872
965.481	0.0141566
965.559	0.0142575
965.637	0.0142517
965.715	0.0142092
965.793	0.0141216
965.871	0.0142429
965.950	0.0141454
966.028	0.0141528
966.106	0.0141355
966.184	0.0142052
966.262	0.0142499
966.340	0.0141592
966.418	0.0140579
966.496	0.0142088
966.575	0.0143176
966.653	0.0141349
966.731	0.0140783
966.809	0.0142728
966.887	0.0140994
966.965	0.0141357
967.043	0.0141171
967.121	0.0141367
967.200	0.0142312
967.278	0.0142212
967.356	0.0142097
967.434	0.0142085
967.512	0.0141223
967.590	0.0141959
967.668	0.0141363
967.746	0.0140414
967.825	0.0142853
967.903	0.0141639
967.981	0.0142284
968.059	0.0141628
968.137	0.0140399
968.215	0.0139757
968.293	0.0141247
968.371	0.0141039
968.450	0.0141447
968.528	0.0141714
968.606	0.0142000
968.684	0.0142188
968.762	0.0141981
968.840	0.0141372
968.918	0.0141645
968.996	0.0141619
969.075	0.0142500
969.153	0.0141794
969.231	0.0141737
969.309	0.0142772
969.387	0.0141447
969.465	0.0140466
969.543	0.0141933
969.621	0.0141409
969.700	0.0140934
969.778	0.0139736
969.856	0.0140904
969.934	0.0140010
970.012	0.0141402
970.090	0.0142200
970.168	0.0140842
970.246	0.0140765
970.325	0.0139911
970.403	0.0140720
970.481	0.0141689
970.559	0.0142075
970.637	0.0140821
970.715	0.0141029
970.793	0.0142395
970.871	0.0142137
970.950	0.0142622
971.028	0.0142424
971.106	0.0141238
971.184	0.0141895
971.262	0.0141884
971.340	0.0140932
971.418	0.0140874
971.496	0.0140442
971.575	0.0141973
971.653	0.0140145
971.731	0.0140431
971.809	0.0142266
971.887	0.0140979
971.965	0.0140813
972.043	0.0139826
972.121	0.0141557
972.200	0.0142619
972.278	0.0143120
972.356	0.0141296
972.434	0.0141175
972.512	0.0140712
972.590	0.0142521
972.668	0.0142432
972.746	0.0142013
972.825	0.0142389
972.903	0.0141932
972.981	0.0140472
973.059	0.0142523
973.137	0.0142005
973.215	0.0141497
973.293	0.0141298
973.371	0.0141383
973.450	0.0141577
973.528	0.0141689
973.606	0.0141669
973.684	0.0141084
973.762	0.0141582
973.840	0.0141435
973.918	0.0140357
973.996	0.0141771
974.075	0.0141724
974.153	0.0141225
974.231	0.0140469
974.309	0.0141088
974.387	0.0141125
974.465	0.0140936
974.543	0.0140804
974.621	0.0141569
974.700	0.0140445
974.778	0.0140670
974.856	0.0141133
974.934	0.0139906
975.012	0.0141776
975.090	0.0142841
975.168	0.0141948
975.246	0.0142574
975.325	0.0141881
975.403	0.0141705
975.481	0.0143552
975.559	0.0143464
975.637	0.0141045
975.715	0.0140919
975.793	0.0142875
975.871	0.0141629
975.950	0.0143129
976.028	0.0141166
976.106	0.0140530
976.184	0.0141521
976.262	0.0141077
976.340	0.0141319
976.418	0.0141453
976.496	0.0140593
976.575	0.0140427
976.653	0.0142185
976.731	0.0141291
976.809	0.0141275
976.887	0.0142081
976.965	0.0140703
977.043	0.0140873
977.121	0.0141975
977.200	0.0141080
977.278	0.0139750
977.356	0.0141499
977.434	0.0142971
977.512	0.0141933
977.590	0.0141038
977.668	0.0141602
977.746	0.0141920
977.825	0.0142798
977.903	0.0143315
977.981	0.0142289
978.059	0.0141469
978.137	0.0141692
978.215	0.0141328
978.293	0.0141740
978.371	0.0140627
978.450	0.0140369
978.528	0.0141363
978.606	0.0140401
978.684	0.0141871
978.762	0.0140131
978.840	0.0141243
978.918	0.0141083
978.996	0.0141977
979.075	0.0141302
979.153	0.0140432
979.231	0.0142031
979.309	0.0141528
979.387	0.0140929
979.465	0.0141814
979.543	0.0143420
979.621	0.0142760
979.700	0.0141542
979.778	0.0141586
979.856	0.0141619
979.934	0.0139764
980.012	0.0139732
980.090	0.0142021
980.168	0.0141264
980.246	0.0141253
980.325	0.0141427
980.403	0.0139952
980.481	0.0140562
980.559	0.0142230
980.637	0.0139676
980.715	0.0142039
980.793	0.0142146
980.871	0.0141151
980.950	0.0142878
981.028	0.0141772
981.106	0.0141373
981.184	0.0141496
981.262	0.0140905
981.340	0.0141745
981.418	0.0142656
981.496	0.0143323
981.575	0.0143578
981.653	0.0142535
981.731	0.0141615
981.809	0.0141958
981.887	0.0142364
981.965	0.0141982
982.043	0.0143494
982.121	0.0142536
982.200	0.0141888
982.278	0.0140740
982.356	0.0142677
982.434	0.0142944
982.512	0.0142278
982.590	0.0141138
982.668	0.0141520
982.746	0.0140467
982.825	0.0142041
982.903	0.0142570
982.981	0.0141090
983.059	0.0141592
983.137	0.0141962
983.215	0.0141162
983.293	0.0140079
983.371	0.0141200
983.450	0.0143368
983.528	0.0141570
983.606	0.0142793
983.684	0.0143011
983.762	0.0141472
983.840	0.0141370
983.918	0.0142225
983.996	0.0143562
984.075	0.0142336
984.153	0.0141363
984.231	0.0142474
984.309	0.0143195
984.387	0.0140505
984.465	0.0140306
984.543	0.0141197
984.621	0.0142327
984.700	0.0141259
984.778	0.0141882
984.856	0.0140528
984.934	0.0141135
985.012	0.0140465
985.090	0.0141314
985.168	0.0141097
985.246	0.0140760
985.325	0.0142191
985.403	0.0141348
985.481	0.0142130
985.559	0.0142210
985.637	0.0141807
985.715	0.0142303
985.793	0.0141833
985.871	0.0141653
985.950	0.0141826
986.028	0.0141821
986.106	0.0142902
986.184	0.0143264
986.262	0.0141768
986.340	0.0140868
986.418	0.0141503
986.496	0.0141808
986.575	0.0141254
986.653	0.0141499
986.731	0.0141114
986.809	0.0141512
986.887	0.0141805
986.965	0.0141174
987.043	0.0140771
987.121	0.0142125
987.200	0.0141882
987.278	0.0142086
987.356	0.0140341
987.434	0.0141242
987.512	0.0140990
987.590	0.0141076
987.668	0.0141367
987.746	0.0143089
987.825	0.0140174
987.903	0.0140961
987.981	0.0141562
988.059	0.0140953
988.137	0.0141492
988.215	0.0142362
988.293	0.0141967
988.371	0.0143270
988.450	0.0140421
988.528	0.0142869
988.606	0.0142020
988.684	0.0143105
988.762	0.0143018
988.840	0.0141467
988.918	0.0141174
988.996	0.0142958
989.075	0.0141872
989.153	0.0141007
989.231	0.0142545
989.309	0.0142989
989.387	0.0143770
989.465	0.0142507
989.543	0.0141818
989.621	0.0142258
989.700	0.0142905
989.778	0.0142459
989.856	0.0142668
989.934	0.0140494
990.012	0.0142326
990.090	0.0142244
990.168	0.0142331
990.246	0.0141679
990.325	0.0142044
990.403	0.0141500
990.481	0.0140640
990.559	0.0141370
990.637	0.0141618
990.715	0.0141150
990.793	0.0141894
990.871	0.0142506
990.950	0.0142702
991.028	0.0140898
991.106	0.0141622
991.184	0.0141213
991.262	0.0141934
991.340	0.0143080
991.418	0.0142414
991.496	0.0142494
991.575	0.0142312
991.653	0.0142076
991.731	0.0141289
991.809	0.0142216
991.887	0.0141943
991.965	0.0142822
992.043	0.0141911
992.121	0.0141897
992.200	0.0141408
992.278	0.0142284
992.356	0.0143077
992.434	0.0141360
992.512	0.0142654
992.590	0.0141981
992.668	0.0141085
992.746	0.0142407
992.825	0.0140533
992.903	0.0141867
992.981	0.0142548
993.059	0.0140819
993.137	0.0142020
993.215	0.0142113
993.293	0.0142627
993.371	0.0141937
993.450	0.0142163
993.528	0.0141500
993.606	0.0142467
993.684	0.0141964
993.762	0.0141959
993.840	0.0141542
993.918	0.0141129
993.996	0.0142683
994.075	0.0143878
994.153	0.0143227
994.231	0.0140413
994.309	0.0140512
994.387	0.0142033
994.465	0.0141259
994.543	0.0141467
994.621	0.0141786
994.700	0.0142696
994.778	0.0142404
994.856	0.0141053
994.934	0.0142300
995.012	0.0141247
995.090	0.0142828
995.168	0.0141130
995.246	0.0141628
995.325	0.0141092
995.403	0.0141402
995.481	0.0142131
995.559	0.0141211
995.637	0.0143136
995.715	0.0142138
995.793	0.0142080
995.871	0.0141489
995.950	0.0141326
996.028	0.0140816
996.106	0.0141859
996.184	0.0141121
996.262	0.0142867
996.340	0.0141866
996.418	0.0141277
996.496	0.0142936
996.575	0.0140353
996.653	0.0140531
996.731	0.0141815
996.809	0.0140962
996.887	0.0141341
996.965	0.0142325
997.043	0.0141527
997.121	0.0143361
997.200	0.0142634
997.278	0.0140829
997.356	0.0141401
997.434	0.0141384
997.512	0.0141264
997.590	0.0141940
997.668	0.0141802
997.746	0.0140543
997.825	0.0142151
997.903	0.0142749
997.981	0.0142117
998.059	0.0141795
998.137	0.0142221
998.215	0.0143201
998.293	0.0144026
998.371	0.0142233
998.450	0.0141621
998.528	0.0140843
998.606	0.0142625
998.684	0.0142029
998.762	0.0142764
998.840	0.0142236
998.918	0.0142763
