05/04/2022	21:04:22	Ver.	4.1	UNKNOWN
Optical Delay	678.996401	Delta X		0.078125	Sweeps	1	Scan Rate	0/0
Coordinates	Axis 1	NaN	Axis 2	NaN	Axis 3	NaN	Axis 4	NaN	Axis 5	NaN	Axis 6	0.000000
TX Power	0.000000	RX Power	0.000000

678.996	0.0141852
679.075	0.0141470
679.153	0.0142077
679.231	0.0141920
679.309	0.0141691
679.387	0.0142573
679.465	0.0143292
679.543	0.0142063
679.621	0.0142075
679.700	0.0141674
679.778	0.0142658
679.856	0.0141759
679.934	0.0141286
680.012	0.0140034
680.090	0.0140096
680.168	0.0141021
680.246	0.0141212
680.325	0.0141097
680.403	0.0142850
680.481	0.0142808
680.559	0.0140691
680.637	0.0142194
680.715	0.0142023
680.793	0.0140850
680.871	0.0143310
680.950	0.0141064
681.028	0.0142496
681.106	0.0141784
681.184	0.0142021
681.262	0.0141875
681.340	0.0143085
681.418	0.0142059
681.496	0.0141341
681.575	0.0142003
681.653	0.0143019
681.731	0.0142469
681.809	0.0141032
681.887	0.0141035
681.965	0.0142625
682.043	0.0142770
682.121	0.0142323
682.200	0.0141478
682.278	0.0142639
682.356	0.0141964
682.434	0.0141564
682.512	0.0141833
682.590	0.0142455
682.668	0.0142189
682.746	0.0142485
682.825	0.0142030
682.903	0.0141545
682.981	0.0142706
683.059	0.0143359
683.137	0.0142508
683.215	0.0143420
683.293	0.0142743
683.371	0.0143570
683.450	0.0142788
683.528	0.0141785
683.606	0.0143516
683.684	0.0143829
683.762	0.0142079
683.840	0.0141468
683.918	0.0143060
683.996	0.0142884
684.075	0.0141475
684.153	0.0141000
684.231	0.0143187
684.309	0.0143629
684.387	0.0142474
684.465	0.0143207
684.543	0.0142365
684.621	0.0142365
684.700	0.0141166
684.778	0.0142810
684.856	0.0142007
684.934	0.0143301
685.012	0.0143073
685.090	0.0142449
685.168	0.0141463
685.246	0.0142759
685.325	0.0142593
685.403	0.0141477
685.481	0.0142524
685.559	0.0143610
685.637	0.0143254
685.715	0.0141952
685.793	0.0142236
685.871	0.0141224
685.950	0.0142039
686.028	0.0142087
686.106	0.0142098
686.184	0.0142368
686.262	0.0143537
686.340	0.0142907
686.418	0.0142986
686.496	0.0141786
686.575	0.0142108
686.653	0.0141319
686.731	0.0141613
686.809	0.0143053
686.887	0.0140861
686.965	0.0141388
687.043	0.0142165
687.121	0.0141209
687.200	0.0141413
687.278	0.0143391
687.356	0.0143550
687.434	0.0141262
687.512	0.0142518
687.590	0.0141638
687.668	0.0143423
687.746	0.0141728
687.825	0.0141463
687.903	0.0142061
687.981	0.0141340
688.059	0.0141844
688.137	0.0141634
688.215	0.0141313
688.293	0.0142824
688.371	0.0143325
688.450	0.0142216
688.528	0.0141372
688.606	0.0141117
688.684	0.0141501
688.762	0.0141644
688.840	0.0141537
688.918	0.0142628
688.996	0.0141332
689.075	0.0142345
689.153	0.0143366
689.231	0.0142690
689.309	0.0141624
689.387	0.0142363
689.465	0.0142408
689.543	0.0141474
689.621	0.0142167
689.700	0.0141911
689.778	0.0141102
689.856	0.0142156
689.934	0.0141656
690.012	0.0141358
690.090	0.0142973
690.168	0.0142520
690.246	0.0141234
690.325	0.0142149
690.403	0.0141883
690.481	0.0142306
690.559	0.0141769
690.637	0.0142182
690.715	0.0142101
690.793	0.0140079
690.871	0.0141214
690.950	0.0142338
691.028	0.0142730
691.106	0.0141394
691.184	0.0141246
691.262	0.0143053
691.340	0.0142800
691.418	0.0142059
691.496	0.0142390
691.575	0.0142659
691.653	0.0143127
691.731	0.0141781
691.809	0.0143261
691.887	0.0141076
691.965	0.0143426
692.043	0.0142344
692.121	0.0141406
692.200	0.0141629
692.278	0.0141655
692.356	0.0141896
692.434	0.0141807
692.512	0.0142542
692.590	0.0142404
692.668	0.0142265
692.746	0.0142157
692.825	0.0141331
692.903	0.0140202
692.981	0.0140820
693.059	0.0140617
693.137	0.0141193
693.215	0.0141665
693.293	0.0141094
693.371	0.0142135
693.450	0.0142789
693.528	0.0143591
693.606	0.0142998
693.684	0.0142523
693.762	0.0140449
693.840	0.0141941
693.918	0.0142733
693.996	0.0141882
694.075	0.0142181
694.153	0.0142838
694.231	0.0141444
694.309	0.0143032
694.387	0.0143717
694.465	0.0142316
694.543	0.0141611
694.621	0.0143092
694.700	0.0143469
694.778	0.0142178
694.856	0.0142561
694.934	0.0141557
695.012	0.0142516
695.090	0.0141805
695.168	0.0141943
695.246	0.0142059
695.325	0.0141946
695.403	0.0143253
695.481	0.0142957
695.559	0.0140781
695.637	0.0141675
695.715	0.0142550
695.793	0.0141547
695.871	0.0142427
695.950	0.0143239
696.028	0.0141797
696.106	0.0142664
696.184	0.0141508
696.262	0.0143322
696.340	0.0142226
696.418	0.0141417
696.496	0.0143350
696.575	0.0142199
696.653	0.0143253
696.731	0.0142962
696.809	0.0141975
696.887	0.0141315
696.965	0.0142896
697.043	0.0142110
697.121	0.0142090
697.200	0.0142215
697.278	0.0141865
697.356	0.0142574
697.434	0.0143559
697.512	0.0142572
697.590	0.0142546
697.668	0.0142310
697.746	0.0141916
697.825	0.0142598
697.903	0.0142944
697.981	0.0143932
698.059	0.0141029
698.137	0.0142024
698.215	0.0141577
698.293	0.0141748
698.371	0.0141346
698.450	0.0143250
698.528	0.0144106
698.606	0.0141656
698.684	0.0141111
698.762	0.0141946
698.840	0.0142252
698.918	0.0142769
698.996	0.0142839
699.075	0.0141985
699.153	0.0142079
699.231	0.0142519
699.309	0.0141679
699.387	0.0143163
699.465	0.0142158
699.543	0.0143232
699.621	0.0142448
699.700	0.0143291
699.778	0.0141720
699.856	0.0142371
699.934	0.0140442
700.012	0.0141865
700.090	0.0141821
700.168	0.0142590
700.246	0.0141361
700.325	0.0140798
700.403	0.0142069
700.481	0.0141507
700.559	0.0142666
700.637	0.0141276
700.715	0.0141767
700.793	0.0141880
700.871	0.0142044
700.950	0.0140968
701.028	0.0141816
701.106	0.0142712
701.184	0.0141516
701.262	0.0142389
701.340	0.0142737
701.418	0.0143076
701.496	0.0142610
701.575	0.0142001
701.653	0.0141507
701.731	0.0141607
701.809	0.0141585
701.887	0.0142017
701.965	0.0141482
702.043	0.0141600
702.121	0.0142452
702.200	0.0142333
702.278	0.0141288
702.356	0.0142296
702.434	0.0141572
702.512	0.0141860
702.590	0.0141524
702.668	0.0141918
702.746	0.0140697
702.825	0.0140202
702.903	0.0140643
702.981	0.0142077
703.059	0.0141164
703.137	0.0142975
703.215	0.0142463
703.293	0.0141873
703.371	0.0141920
703.450	0.0141885
703.528	0.0143278
703.606	0.0142130
703.684	0.0143595
703.762	0.0143492
703.840	0.0141965
703.918	0.0143036
703.996	0.0144428
704.075	0.0144423
704.153	0.0144427
704.231	0.0145692
704.309	0.0142928
704.387	0.0145103
704.465	0.0144341
704.543	0.0143432
704.621	0.0142632
704.700	0.0140971
704.778	0.0138779
704.856	0.0137524
704.934	0.0137364
705.012	0.0137010
705.090	0.0137391
705.168	0.0135490
705.246	0.0136215
705.325	0.0135719
705.403	0.0135958
705.481	0.0136575
705.559	0.0137031
705.637	0.0137704
705.715	0.0139455
705.793	0.0142574
705.871	0.0143745
705.950	0.0147431
706.028	0.0149456
706.106	0.0151578
706.184	0.0154786
706.262	0.0156519
706.340	0.0156934
706.418	0.0156941
706.496	0.0153316
706.575	0.0150346
706.653	0.0144171
706.731	0.0141049
706.809	0.0136755
706.887	0.0133872
706.965	0.0130807
707.043	0.0129815
707.121	0.0129015
707.200	0.0128732
707.278	0.0126978
707.356	0.0127612
707.434	0.0130493
707.512	0.0132282
707.590	0.0133737
707.668	0.0136180
707.746	0.0138541
707.825	0.0142008
707.903	0.0146320
707.981	0.0151829
708.059	0.0155421
708.137	0.0158891
708.215	0.0161548
708.293	0.0161029
708.371	0.0161532
708.450	0.0159942
708.528	0.0157667
708.606	0.0154488
708.684	0.0150860
708.762	0.0146775
708.840	0.0141689
708.918	0.0137849
708.996	0.0135332
709.075	0.0131390
709.153	0.0128395
709.231	0.0126877
709.309	0.0126295
709.387	0.0123772
709.465	0.0122119
709.543	0.0122721
709.621	0.0122648
709.700	0.0120925
709.778	0.0120116
709.856	0.0123808
709.934	0.0127954
710.012	0.0129582
710.090	0.0135812
710.168	0.0144056
710.246	0.0147913
710.325	0.0153606
710.403	0.0158165
710.481	0.0161711
710.559	0.0167250
710.637	0.0169083
710.715	0.0169275
710.793	0.0171488
710.871	0.0171179
710.950	0.0169865
711.028	0.0164610
711.106	0.0158731
711.184	0.0152600
711.262	0.0144994
711.340	0.0138406
711.418	0.0130161
711.496	0.0123858
711.575	0.0118620
711.653	0.0114486
711.731	0.0109483
711.809	0.0107913
711.887	0.0106344
711.965	0.0107504
712.043	0.0110352
712.121	0.0116127
712.200	0.0122682
712.278	0.0130370
712.356	0.0140344
712.434	0.0149486
712.512	0.0157561
712.590	0.0163824
712.668	0.0170644
712.746	0.0173090
712.825	0.0175565
712.903	0.0177698
712.981	0.0177493
713.059	0.0175813
713.137	0.0173029
713.215	0.0169101
713.293	0.0161607
713.371	0.0155535
713.450	0.0147628
713.528	0.0140850
713.606	0.0130404
713.684	0.0125798
713.762	0.0121810
713.840	0.0119184
713.918	0.0116953
713.996	0.0114485
714.075	0.0114388
714.153	0.0114907
714.231	0.0115411
714.309	0.0117783
714.387	0.0120762
714.465	0.0122562
714.543	0.0128963
714.621	0.0135031
714.700	0.0139874
714.778	0.0144735
714.856	0.0149253
714.934	0.0154011
715.012	0.0157731
715.090	0.0159660
715.168	0.0160929
715.246	0.0161243
715.325	0.0160529
715.403	0.0159103
715.481	0.0157013
715.559	0.0156712
715.637	0.0153889
715.715	0.0150709
715.793	0.0147099
715.871	0.0143439
715.950	0.0139558
716.028	0.0137444
716.106	0.0136215
716.184	0.0134999
716.262	0.0133795
716.340	0.0135683
716.418	0.0133907
716.496	0.0134789
716.575	0.0134705
716.653	0.0135785
716.731	0.0138194
716.809	0.0138033
716.887	0.0138842
716.965	0.0138409
717.043	0.0139983
717.121	0.0138058
717.200	0.0138110
717.278	0.0140863
717.356	0.0140649
717.434	0.0141323
717.512	0.0142835
717.590	0.0142433
717.668	0.0145169
717.746	0.0145420
717.825	0.0147675
717.903	0.0148841
717.981	0.0148697
718.059	0.0148349
718.137	0.0148407
718.215	0.0147652
718.293	0.0147246
718.371	0.0147282
718.450	0.0147546
718.528	0.0146502
718.606	0.0146857
718.684	0.0143512
718.762	0.0144449
718.840	0.0144225
718.918	0.0142233
718.996	0.0139265
719.075	0.0138831
719.153	0.0135593
719.231	0.0133469
719.309	0.0130858
719.387	0.0130555
719.465	0.0129793
719.543	0.0128889
719.621	0.0127123
719.700	0.0128024
719.778	0.0128602
719.856	0.0131768
719.934	0.0135440
720.012	0.0137962
720.090	0.0141612
720.168	0.0144984
720.246	0.0151438
720.325	0.0155479
720.403	0.0158721
720.481	0.0159990
720.559	0.0160806
720.637	0.0159609
720.715	0.0159371
720.793	0.0156573
720.871	0.0151382
720.950	0.0148072
721.028	0.0144293
721.106	0.0139810
721.184	0.0137340
721.262	0.0133798
721.340	0.0129340
721.418	0.0128352
721.496	0.0125768
721.575	0.0123031
721.653	0.0124005
721.731	0.0123016
721.809	0.0123180
721.887	0.0123750
721.965	0.0125737
722.043	0.0127524
722.121	0.0133007
722.200	0.0133293
722.278	0.0138419
722.356	0.0142117
722.434	0.0147195
722.512	0.0150151
722.590	0.0154659
722.668	0.0159186
722.746	0.0161286
722.825	0.0162395
722.903	0.0164462
722.981	0.0167496
723.059	0.0166367
723.137	0.0164037
723.215	0.0160466
723.293	0.0156001
723.371	0.0151254
723.450	0.0146132
723.528	0.0139861
723.606	0.0136301
723.684	0.0129193
723.762	0.0124239
723.840	0.0120827
723.918	0.0118671
723.996	0.0117781
724.075	0.0117272
724.153	0.0117481
724.231	0.0121220
724.309	0.0124530
724.387	0.0127878
724.465	0.0133405
724.543	0.0139213
724.621	0.0146085
724.700	0.0151428
724.778	0.0154720
724.856	0.0159605
724.934	0.0162151
725.012	0.0164394
725.090	0.0164153
725.168	0.0163818
725.246	0.0161721
725.325	0.0158911
725.403	0.0155642
725.481	0.0150087
725.559	0.0145904
725.637	0.0142322
725.715	0.0136739
725.793	0.0133128
725.871	0.0128954
725.950	0.0125629
726.028	0.0122789
726.106	0.0122590
726.184	0.0122149
726.262	0.0121897
726.340	0.0123302
726.418	0.0126938
726.496	0.0129613
726.575	0.0132114
726.653	0.0135499
726.731	0.0140272
726.809	0.0142532
726.887	0.0146674
726.965	0.0151443
727.043	0.0153847
727.121	0.0158387
727.200	0.0161374
727.278	0.0162549
727.356	0.0164014
727.434	0.0165487
727.512	0.0164901
727.590	0.0162368
727.668	0.0160207
727.746	0.0156002
727.825	0.0150941
727.903	0.0145766
727.981	0.0140210
728.059	0.0134002
728.137	0.0128523
728.215	0.0124173
728.293	0.0118871
728.371	0.0116398
728.450	0.0114067
728.528	0.0112605
728.606	0.0112197
728.684	0.0116699
728.762	0.0120129
728.840	0.0123373
728.918	0.0129343
728.996	0.0137179
729.075	0.0140273
729.153	0.0146755
729.231	0.0152843
729.309	0.0158980
729.387	0.0160837
729.465	0.0163560
729.543	0.0166046
729.621	0.0166955
729.700	0.0166096
729.778	0.0164281
729.856	0.0162329
729.934	0.0159691
730.012	0.0157182
730.090	0.0151276
730.168	0.0146148
730.246	0.0144128
730.325	0.0137036
730.403	0.0134437
730.481	0.0130770
730.559	0.0128159
730.637	0.0126498
730.715	0.0124534
730.793	0.0123940
730.871	0.0123592
730.950	0.0123763
731.028	0.0125787
731.106	0.0126339
731.184	0.0128058
731.262	0.0131629
731.340	0.0135702
731.418	0.0139407
731.496	0.0143627
731.575	0.0147533
731.653	0.0152171
731.731	0.0156242
731.809	0.0157683
731.887	0.0160394
731.965	0.0161175
732.043	0.0160413
732.121	0.0160920
732.200	0.0158144
732.278	0.0157561
732.356	0.0153829
732.434	0.0150575
732.512	0.0147083
732.590	0.0143324
732.668	0.0138562
732.746	0.0134885
732.825	0.0129386
732.903	0.0127848
732.981	0.0123888
733.059	0.0122169
733.137	0.0121252
733.215	0.0122002
733.293	0.0125586
733.371	0.0126287
733.450	0.0127695
733.528	0.0132719
733.606	0.0135880
733.684	0.0138341
733.762	0.0143465
733.840	0.0145403
733.918	0.0148609
733.996	0.0151721
734.075	0.0153792
734.153	0.0154070
734.231	0.0156017
734.309	0.0157853
734.387	0.0155734
734.465	0.0156973
734.543	0.0155128
734.621	0.0154910
734.700	0.0152404
734.778	0.0149895
734.856	0.0146429
734.934	0.0146231
735.012	0.0143365
735.090	0.0142030
735.168	0.0139771
735.246	0.0137296
735.325	0.0135429
735.403	0.0134497
735.481	0.0132626
735.559	0.0130903
735.637	0.0129906
735.715	0.0130048
735.793	0.0127206
735.871	0.0126592
735.950	0.0127721
736.028	0.0130485
736.106	0.0131146
736.184	0.0131496
736.262	0.0136569
736.340	0.0138523
736.418	0.0142111
736.496	0.0145623
736.575	0.0146818
736.653	0.0150700
736.731	0.0153518
736.809	0.0157666
736.887	0.0157832
736.965	0.0158119
737.043	0.0159112
737.121	0.0158807
737.200	0.0156886
737.278	0.0155029
737.356	0.0151100
737.434	0.0147752
737.512	0.0142724
737.590	0.0140436
737.668	0.0137490
737.746	0.0134283
737.825	0.0128832
737.903	0.0129140
737.981	0.0129269
738.059	0.0126418
738.137	0.0126528
738.215	0.0127966
738.293	0.0128049
738.371	0.0130457
738.450	0.0132390
738.528	0.0135358
738.606	0.0138510
738.684	0.0140856
738.762	0.0142563
738.840	0.0146581
738.918	0.0149166
738.996	0.0149275
739.075	0.0151218
739.153	0.0154424
739.231	0.0154407
739.309	0.0153506
739.387	0.0154656
739.465	0.0152715
739.543	0.0151123
739.621	0.0150033
739.700	0.0148243
739.778	0.0145892
739.856	0.0142419
739.934	0.0141936
740.012	0.0138395
740.090	0.0135764
740.168	0.0132643
740.246	0.0130207
740.325	0.0129871
740.403	0.0128540
740.481	0.0127423
740.559	0.0127649
740.637	0.0127056
740.715	0.0128500
740.793	0.0130500
740.871	0.0133297
740.950	0.0136142
741.028	0.0140076
741.106	0.0143240
741.184	0.0146716
741.262	0.0148795
741.340	0.0150929
741.418	0.0155943
741.496	0.0156124
741.575	0.0157098
741.653	0.0157364
741.731	0.0157485
741.809	0.0155482
741.887	0.0155958
741.965	0.0154105
742.043	0.0149427
742.121	0.0148943
742.200	0.0144871
742.278	0.0141932
742.356	0.0137046
742.434	0.0135995
742.512	0.0133899
742.590	0.0130167
742.668	0.0128410
742.746	0.0128691
742.825	0.0127843
742.903	0.0126864
742.981	0.0126677
743.059	0.0129578
743.137	0.0131472
743.215	0.0133172
743.293	0.0135697
743.371	0.0138894
743.450	0.0140995
743.528	0.0142408
743.606	0.0145731
743.684	0.0146938
743.762	0.0149171
743.840	0.0149814
743.918	0.0151557
743.996	0.0151981
744.075	0.0152985
744.153	0.0152527
744.231	0.0152833
744.309	0.0152361
744.387	0.0151959
744.465	0.0150520
744.543	0.0147929
744.621	0.0147559
744.700	0.0145058
744.778	0.0141749
744.856	0.0140729
744.934	0.0137433
745.012	0.0134247
745.090	0.0132352
745.168	0.0130379
745.246	0.0131042
745.325	0.0130385
745.403	0.0128172
745.481	0.0130224
745.559	0.0128677
745.637	0.0129664
745.715	0.0129817
745.793	0.0133463
745.871	0.0134288
745.950	0.0136623
746.028	0.0139207
746.106	0.0142360
746.184	0.0144507
746.262	0.0146350
746.340	0.0150042
746.418	0.0150828
746.496	0.0152706
746.575	0.0153678
746.653	0.0154028
746.731	0.0154718
746.809	0.0153817
746.887	0.0153281
746.965	0.0151495
747.043	0.0149067
747.121	0.0147087
747.200	0.0146297
747.278	0.0143032
747.356	0.0141565
747.434	0.0137859
747.512	0.0136528
747.590	0.0135397
747.668	0.0134946
747.746	0.0132980
747.825	0.0132820
747.903	0.0132516
747.981	0.0131353
748.059	0.0131271
748.137	0.0129695
748.215	0.0131976
748.293	0.0133869
748.371	0.0135818
748.450	0.0138164
748.528	0.0138935
748.606	0.0140549
748.684	0.0142982
748.762	0.0144137
748.840	0.0146170
748.918	0.0148305
748.996	0.0148166
749.075	0.0151017
749.153	0.0150478
749.231	0.0152563
749.309	0.0150346
749.387	0.0149861
749.465	0.0149728
749.543	0.0147747
749.621	0.0146588
749.700	0.0145154
749.778	0.0144192
749.856	0.0142256
749.934	0.0140496
750.012	0.0137879
750.090	0.0136146
750.168	0.0135828
750.246	0.0134190
750.325	0.0131828
750.403	0.0132432
750.481	0.0130048
750.559	0.0133081
750.637	0.0134024
750.715	0.0133487
750.793	0.0136463
750.871	0.0138676
750.950	0.0139690
751.028	0.0142052
751.106	0.0142910
751.184	0.0144741
751.262	0.0146868
751.340	0.0147421
751.418	0.0149619
751.496	0.0150603
751.575	0.0150959
751.653	0.0149181
751.731	0.0151034
751.809	0.0151326
751.887	0.0150031
751.965	0.0147557
752.043	0.0148372
752.121	0.0147916
752.200	0.0144781
752.278	0.0143438
752.356	0.0141586
752.434	0.0140884
752.512	0.0139198
752.590	0.0137367
752.668	0.0135106
752.746	0.0135662
752.825	0.0133759
752.903	0.0134252
752.981	0.0134842
753.059	0.0134270
753.137	0.0134214
753.215	0.0136076
753.293	0.0137177
753.371	0.0139602
753.450	0.0140197
753.528	0.0141363
753.606	0.0142696
753.684	0.0143505
753.762	0.0145817
753.840	0.0145309
753.918	0.0147076
753.996	0.0148200
754.075	0.0148151
754.153	0.0149236
754.231	0.0148372
754.309	0.0147304
754.387	0.0148707
754.465	0.0147842
754.543	0.0145323
754.621	0.0145823
754.700	0.0144404
754.778	0.0142639
754.856	0.0142797
754.934	0.0141528
755.012	0.0139080
755.090	0.0139342
755.168	0.0137654
755.246	0.0137772
755.325	0.0136401
755.403	0.0135503
755.481	0.0135882
755.559	0.0137598
755.637	0.0138615
755.715	0.0137541
755.793	0.0138293
755.871	0.0139315
755.950	0.0139035
756.028	0.0140488
756.106	0.0141536
756.184	0.0143137
756.262	0.0144360
756.340	0.0144392
756.418	0.0144017
756.496	0.0146284
756.575	0.0146785
756.653	0.0146106
756.731	0.0146827
756.809	0.0146500
756.887	0.0147449
756.965	0.0146595
757.043	0.0145998
757.121	0.0145860
757.200	0.0144922
757.278	0.0143922
757.356	0.0142108
757.434	0.0142027
757.512	0.0140447
757.590	0.0137640
757.668	0.0137128
757.746	0.0136841
757.825	0.0135126
757.903	0.0135271
757.981	0.0136918
758.059	0.0135928
758.137	0.0137019
758.215	0.0137390
758.293	0.0137466
758.371	0.0138832
758.450	0.0141862
758.528	0.0141434
758.606	0.0142403
758.684	0.0142688
758.762	0.0144672
758.840	0.0144696
758.918	0.0145655
758.996	0.0147224
759.075	0.0146525
759.153	0.0147123
759.231	0.0146673
759.309	0.0146937
759.387	0.0146726
759.465	0.0146696
759.543	0.0144788
759.621	0.0145245
759.700	0.0142770
759.778	0.0142297
759.856	0.0141171
759.934	0.0139970
760.012	0.0140160
760.090	0.0140125
760.168	0.0139771
760.246	0.0137117
760.325	0.0137432
760.403	0.0136061
760.481	0.0136684
760.559	0.0137912
760.637	0.0137029
760.715	0.0137534
760.793	0.0139401
760.871	0.0140092
760.950	0.0140277
761.028	0.0141570
761.106	0.0143374
761.184	0.0143969
761.262	0.0144775
761.340	0.0145619
761.418	0.0144991
761.496	0.0145893
761.575	0.0146908
761.653	0.0149163
761.731	0.0147919
761.809	0.0147321
761.887	0.0146544
761.965	0.0145214
762.043	0.0145698
762.121	0.0145181
762.200	0.0144479
762.278	0.0142245
762.356	0.0141512
762.434	0.0139099
762.512	0.0140742
762.590	0.0140185
762.668	0.0138041
762.746	0.0136895
762.825	0.0138364
762.903	0.0137204
762.981	0.0137167
763.059	0.0137520
763.137	0.0136981
763.215	0.0137626
763.293	0.0139049
763.371	0.0139229
763.450	0.0139757
763.528	0.0140462
763.606	0.0143157
763.684	0.0142683
763.762	0.0142265
763.840	0.0143327
763.918	0.0144456
763.996	0.0145965
764.075	0.0145118
764.153	0.0145006
764.231	0.0145625
764.309	0.0144662
764.387	0.0146182
764.465	0.0145919
764.543	0.0144750
764.621	0.0145953
764.700	0.0143999
764.778	0.0142968
764.856	0.0142047
764.934	0.0141922
765.012	0.0142360
765.090	0.0141651
765.168	0.0141578
765.246	0.0139527
765.325	0.0138914
765.403	0.0139021
765.481	0.0139731
765.559	0.0138934
765.637	0.0140400
765.715	0.0139731
765.793	0.0138660
765.871	0.0140531
765.950	0.0141114
766.028	0.0140234
766.106	0.0141926
766.184	0.0143597
766.262	0.0142322
766.340	0.0143668
766.418	0.0144632
766.496	0.0145435
766.575	0.0144453
766.653	0.0144941
766.731	0.0145049
766.809	0.0144688
766.887	0.0144466
766.965	0.0144073
767.043	0.0144443
767.121	0.0144462
767.200	0.0144560
767.278	0.0144564
767.356	0.0145417
767.434	0.0143229
767.512	0.0141909
767.590	0.0141779
767.668	0.0140936
767.746	0.0140593
767.825	0.0139865
767.903	0.0141351
767.981	0.0139718
768.059	0.0139993
768.137	0.0137958
768.215	0.0138710
768.293	0.0139400
768.371	0.0139292
768.450	0.0139743
768.528	0.0138618
768.606	0.0140142
768.684	0.0140124
768.762	0.0140828
768.840	0.0140792
768.918	0.0143659
768.996	0.0142893
769.075	0.0143204
769.153	0.0144025
769.231	0.0144534
769.309	0.0143934
769.387	0.0144759
769.465	0.0144159
769.543	0.0143690
769.621	0.0143311
769.700	0.0145229
769.778	0.0144959
769.856	0.0143687
769.934	0.0143548
770.012	0.0143208
770.090	0.0141915
770.168	0.0140438
770.246	0.0140222
770.325	0.0138414
770.403	0.0139684
770.481	0.0138589
770.559	0.0138219
770.637	0.0137862
770.715	0.0137856
770.793	0.0138219
770.871	0.0139490
770.950	0.0138431
771.028	0.0138510
771.106	0.0140383
771.184	0.0139969
771.262	0.0140730
771.340	0.0140957
771.418	0.0142094
771.496	0.0142480
771.575	0.0141891
771.653	0.0143528
771.731	0.0144401
771.809	0.0143038
771.887	0.0142805
771.965	0.0143652
772.043	0.0145231
772.121	0.0143059
772.200	0.0144090
772.278	0.0142776
772.356	0.0143377
772.434	0.0142809
772.512	0.0142198
772.590	0.0141523
772.668	0.0140361
772.746	0.0141757
772.825	0.0141528
772.903	0.0140741
772.981	0.0140618
773.059	0.0139293
773.137	0.0139563
773.215	0.0138521
773.293	0.0141064
773.371	0.0141819
773.450	0.0140199
773.528	0.0138514
773.606	0.0140359
773.684	0.0141697
773.762	0.0141447
773.840	0.0142776
773.918	0.0142465
773.996	0.0141845
774.075	0.0141656
774.153	0.0143084
774.231	0.0142240
774.309	0.0143226
774.387	0.0143153
774.465	0.0141879
774.543	0.0143221
774.621	0.0143509
774.700	0.0144582
774.778	0.0143120
774.856	0.0143924
774.934	0.0143217
775.012	0.0143056
775.090	0.0142021
775.168	0.0142223
775.246	0.0142725
775.325	0.0143108
775.403	0.0141248
775.481	0.0140332
775.559	0.0141019
775.637	0.0140729
775.715	0.0140481
775.793	0.0141583
775.871	0.0140631
775.950	0.0141161
776.028	0.0141701
776.106	0.0141676
776.184	0.0139024
776.262	0.0139677
776.340	0.0142646
776.418	0.0141687
776.496	0.0143329
776.575	0.0143756
776.653	0.0143262
776.731	0.0141367
776.809	0.0142084
776.887	0.0142970
776.965	0.0142994
777.043	0.0141708
777.121	0.0141850
777.200	0.0141837
777.278	0.0143335
777.356	0.0143635
777.434	0.0142625
777.512	0.0141730
777.590	0.0142268
777.668	0.0142126
777.746	0.0142384
777.825	0.0141335
777.903	0.0141750
777.981	0.0141635
778.059	0.0140581
778.137	0.0140726
778.215	0.0140720
778.293	0.0140065
778.371	0.0140853
778.450	0.0142123
778.528	0.0141617
778.606	0.0142357
778.684	0.0140794
778.762	0.0140258
778.840	0.0141221
778.918	0.0141984
778.996	0.0140792
779.075	0.0141594
779.153	0.0141656
779.231	0.0141166
779.309	0.0142670
779.387	0.0143537
779.465	0.0143371
779.543	0.0142184
779.621	0.0144575
779.700	0.0143264
779.778	0.0144097
779.856	0.0144917
779.934	0.0142715
780.012	0.0141847
780.090	0.0142564
780.168	0.0142550
780.246	0.0141714
780.325	0.0142189
780.403	0.0141470
780.481	0.0141330
780.559	0.0141500
780.637	0.0140904
780.715	0.0141221
780.793	0.0141370
780.871	0.0139824
780.950	0.0140144
781.028	0.0140805
781.106	0.0142429
781.184	0.0141219
781.262	0.0139661
781.340	0.0140450
781.418	0.0140400
781.496	0.0141401
781.575	0.0141778
781.653	0.0140434
781.731	0.0141388
781.809	0.0143726
781.887	0.0142679
781.965	0.0142527
782.043	0.0142992
782.121	0.0141663
782.200	0.0142764
782.278	0.0141949
782.356	0.0143665
782.434	0.0142709
782.512	0.0143227
782.590	0.0143425
782.668	0.0142828
782.746	0.0141611
782.825	0.0142435
782.903	0.0142567
782.981	0.0140379
783.059	0.0141289
783.137	0.0141229
783.215	0.0139732
783.293	0.0140947
783.371	0.0141283
783.450	0.0141389
783.528	0.0140024
783.606	0.0139529
783.684	0.0141331
783.762	0.0140314
783.840	0.0139467
783.918	0.0141476
783.996	0.0141561
784.075	0.0140609
784.153	0.0141525
784.231	0.0142670
784.309	0.0141806
784.387	0.0142333
784.465	0.0141202
784.543	0.0142175
784.621	0.0141267
784.700	0.0143288
784.778	0.0142701
784.856	0.0143459
784.934	0.0142509
785.012	0.0143710
785.090	0.0141545
785.168	0.0142788
785.246	0.0143236
785.325	0.0141827
785.403	0.0141135
785.481	0.0141638
785.559	0.0141607
785.637	0.0141174
785.715	0.0141355
785.793	0.0141037
785.871	0.0139276
785.950	0.0141340
786.028	0.0140274
786.106	0.0141680
786.184	0.0140579
786.262	0.0140543
786.340	0.0142482
786.418	0.0141444
786.496	0.0139860
786.575	0.0139369
786.653	0.0142796
786.731	0.0141571
786.809	0.0141011
786.887	0.0142397
786.965	0.0143011
787.043	0.0143274
787.121	0.0144687
787.200	0.0142882
787.278	0.0141896
787.356	0.0143344
787.434	0.0142931
787.512	0.0142706
787.590	0.0142827
787.668	0.0142974
787.746	0.0143519
787.825	0.0142912
787.903	0.0140617
787.981	0.0140318
788.059	0.0140629
788.137	0.0140449
788.215	0.0139587
788.293	0.0139519
788.371	0.0140525
788.450	0.0141960
788.528	0.0139725
788.606	0.0139891
788.684	0.0139792
788.762	0.0140399
788.840	0.0140518
788.918	0.0141021
788.996	0.0140078
789.075	0.0141743
789.153	0.0140833
789.231	0.0141537
789.309	0.0141890
789.387	0.0141563
789.465	0.0141389
789.543	0.0142193
789.621	0.0142715
789.700	0.0140139
789.778	0.0143544
789.856	0.0142580
789.934	0.0142453
790.012	0.0142218
790.090	0.0141629
790.168	0.0142653
790.246	0.0142850
790.325	0.0142863
790.403	0.0142363
790.481	0.0140640
790.559	0.0142195
790.637	0.0141880
790.715	0.0141096
790.793	0.0141822
790.871	0.0141653
790.950	0.0140691
791.028	0.0141081
791.106	0.0140480
791.184	0.0140717
791.262	0.0141138
791.340	0.0141511
791.418	0.0139863
791.496	0.0141354
791.575	0.0141036
791.653	0.0142289
791.731	0.0142223
791.809	0.0140396
791.887	0.0141283
791.965	0.0140219
792.043	0.0142696
792.121	0.0142333
792.200	0.0140395
792.278	0.0140884
792.356	0.0143033
792.434	0.0142450
792.512	0.0142648
792.590	0.0142839
792.668	0.0142480
792.746	0.0141212
792.825	0.0141650
792.903	0.0142090
792.981	0.0142641
793.059	0.0141351
793.137	0.0142405
793.215	0.0141998
793.293	0.0142514
793.371	0.0141874
793.450	0.0141605
793.528	0.0140848
793.606	0.0142085
793.684	0.0140717
793.762	0.0141413
793.840	0.0140387
793.918	0.0141921
793.996	0.0140644
794.075	0.0141383
794.153	0.0140691
794.231	0.0141434
794.309	0.0141417
794.387	0.0140868
794.465	0.0142361
794.543	0.0141628
794.621	0.0141579
794.700	0.0141674
794.778	0.0141680
794.856	0.0141540
794.934	0.0142558
795.012	0.0142583
795.090	0.0140864
795.168	0.0143005
795.246	0.0141940
795.325	0.0142343
795.403	0.0140565
795.481	0.0143058
795.559	0.0142628
795.637	0.0141656
795.715	0.0142286
795.793	0.0142097
795.871	0.0141935
795.950	0.0141614
796.028	0.0142377
796.106	0.0142094
796.184	0.0141208
796.262	0.0141354
796.340	0.0139819
796.418	0.0141237
796.496	0.0140791
796.575	0.0141726
796.653	0.0141964
796.731	0.0140211
796.809	0.0139872
796.887	0.0140643
796.965	0.0140617
797.043	0.0142132
797.121	0.0141305
797.200	0.0141884
797.278	0.0142829
797.356	0.0140966
797.434	0.0142335
797.512	0.0142814
797.590	0.0142657
797.668	0.0140626
797.746	0.0141969
797.825	0.0141737
797.903	0.0142588
797.981	0.0142709
798.059	0.0144405
798.137	0.0141776
798.215	0.0141840
798.293	0.0143756
798.371	0.0141381
798.450	0.0142660
798.528	0.0142216
798.606	0.0142245
798.684	0.0142528
798.762	0.0142732
798.840	0.0142265
798.918	0.0141386
798.996	0.0142294
799.075	0.0141444
799.153	0.0141560
799.231	0.0141561
799.309	0.0141980
799.387	0.0143298
799.465	0.0140949
799.543	0.0140928
799.621	0.0142245
799.700	0.0141531
799.778	0.0141444
799.856	0.0142911
799.934	0.0142438
800.012	0.0142181
800.090	0.0142065
800.168	0.0142105
800.246	0.0142381
800.325	0.0142019
800.403	0.0141639
800.481	0.0140979
800.559	0.0143456
800.637	0.0143140
800.715	0.0142083
800.793	0.0142445
800.871	0.0142237
800.950	0.0142092
801.028	0.0142844
801.106	0.0141210
801.184	0.0140350
801.262	0.0141621
801.340	0.0141901
801.418	0.0142319
801.496	0.0141222
801.575	0.0141092
801.653	0.0141061
801.731	0.0141878
801.809	0.0141239
801.887	0.0141177
801.965	0.0141313
802.043	0.0141548
802.121	0.0142222
802.200	0.0141700
802.278	0.0142033
802.356	0.0143091
802.434	0.0142942
802.512	0.0142396
802.590	0.0143302
802.668	0.0142006
802.746	0.0142966
802.825	0.0140762
802.903	0.0142216
802.981	0.0143401
803.059	0.0142945
803.137	0.0140911
803.215	0.0142596
803.293	0.0141000
803.371	0.0142212
803.450	0.0143115
803.528	0.0142424
803.606	0.0141876
803.684	0.0142107
803.762	0.0143030
803.840	0.0142542
803.918	0.0142181
803.996	0.0142445
804.075	0.0143218
804.153	0.0143448
804.231	0.0143211
804.309	0.0142307
804.387	0.0141132
804.465	0.0141694
804.543	0.0142081
804.621	0.0141965
804.700	0.0141553
804.778	0.0141077
804.856	0.0140161
804.934	0.0142712
805.012	0.0142024
805.090	0.0141431
805.168	0.0142475
805.246	0.0142802
805.325	0.0142048
805.403	0.0142049
805.481	0.0140456
805.559	0.0142128
805.637	0.0141859
805.715	0.0140321
805.793	0.0140692
805.871	0.0140298
805.950	0.0142155
806.028	0.0140854
806.106	0.0140888
806.184	0.0141479
806.262	0.0142274
806.340	0.0141808
806.418	0.0141386
806.496	0.0142713
806.575	0.0143428
806.653	0.0142958
806.731	0.0142591
806.809	0.0143291
806.887	0.0143865
806.965	0.0142568
807.043	0.0142342
807.121	0.0143513
807.200	0.0142400
807.278	0.0144525
807.356	0.0141187
807.434	0.0140719
807.512	0.0141850
807.590	0.0141603
807.668	0.0140057
807.746	0.0141714
807.825	0.0142504
807.903	0.0140290
807.981	0.0139948
808.059	0.0140443
808.137	0.0142088
808.215	0.0141698
808.293	0.0141069
808.371	0.0141109
808.450	0.0141808
808.528	0.0141696
808.606	0.0142187
808.684	0.0142795
808.762	0.0142476
808.840	0.0142603
808.918	0.0143501
808.996	0.0142512
809.075	0.0142659
809.153	0.0144187
809.231	0.0143087
809.309	0.0143340
809.387	0.0143065
809.465	0.0141676
809.543	0.0143043
809.621	0.0141660
809.700	0.0142307
809.778	0.0141888
809.856	0.0141023
809.934	0.0141624
810.012	0.0140926
810.090	0.0141168
810.168	0.0140652
810.246	0.0141080
810.325	0.0141840
810.403	0.0140723
810.481	0.0141590
810.559	0.0139519
810.637	0.0141767
810.715	0.0141317
810.793	0.0142437
810.871	0.0141402
810.950	0.0142844
811.028	0.0142129
811.106	0.0141432
811.184	0.0141563
811.262	0.0141261
811.340	0.0142477
811.418	0.0142484
811.496	0.0142510
811.575	0.0142062
811.653	0.0140692
811.731	0.0141634
811.809	0.0142526
811.887	0.0141778
811.965	0.0143413
812.043	0.0143163
812.121	0.0141802
812.200	0.0141771
812.278	0.0141872
812.356	0.0141620
812.434	0.0140802
812.512	0.0141480
812.590	0.0141324
812.668	0.0141243
812.746	0.0141804
812.825	0.0140852
812.903	0.0141644
812.981	0.0141605
813.059	0.0140510
813.137	0.0141877
813.215	0.0142451
813.293	0.0142041
813.371	0.0141531
813.450	0.0143330
813.528	0.0141483
813.606	0.0141359
813.684	0.0142609
813.762	0.0143283
813.840	0.0142771
813.918	0.0142117
813.996	0.0143906
814.075	0.0143474
814.153	0.0142267
814.231	0.0142834
814.309	0.0142323
814.387	0.0143849
814.465	0.0142403
814.543	0.0140679
814.621	0.0140823
814.700	0.0143689
814.778	0.0141281
814.856	0.0142383
814.934	0.0140909
815.012	0.0140685
815.090	0.0140905
815.168	0.0141082
815.246	0.0139712
815.325	0.0140192
815.403	0.0140965
815.481	0.0140114
815.559	0.0142197
815.637	0.0140777
815.715	0.0140528
815.793	0.0140978
815.871	0.0142912
815.950	0.0140892
816.028	0.0141148
816.106	0.0142417
816.184	0.0142066
816.262	0.0143240
816.340	0.0142941
816.418	0.0143063
816.496	0.0141955
816.575	0.0142432
816.653	0.0142668
816.731	0.0142965
816.809	0.0142542
816.887	0.0141795
816.965	0.0141269
817.043	0.0143404
817.121	0.0141264
817.200	0.0141592
817.278	0.0142091
817.356	0.0141077
817.434	0.0141377
817.512	0.0140948
817.590	0.0141151
817.668	0.0140519
817.746	0.0139944
817.825	0.0140097
817.903	0.0140519
817.981	0.0140492
818.059	0.0140622
818.137	0.0141049
818.215	0.0140419
818.293	0.0142095
818.371	0.0142130
818.450	0.0142203
818.528	0.0142824
818.606	0.0142032
818.684	0.0141991
818.762	0.0142557
818.840	0.0143002
818.918	0.0144986
818.996	0.0144924
819.075	0.0143256
819.153	0.0142761
819.231	0.0144028
819.309	0.0144776
819.387	0.0143394
819.465	0.0144087
819.543	0.0142161
819.621	0.0143188
819.700	0.0141295
819.778	0.0140943
819.856	0.0141734
819.934	0.0142054
820.012	0.0140756
820.090	0.0139233
820.168	0.0141145
820.246	0.0141548
820.325	0.0141427
820.403	0.0140698
820.481	0.0140878
820.559	0.0141262
820.637	0.0140384
820.715	0.0141605
820.793	0.0141921
820.871	0.0141155
820.950	0.0142531
821.028	0.0142006
821.106	0.0142771
821.184	0.0142890
821.262	0.0142318
821.340	0.0143858
821.418	0.0143649
821.496	0.0145010
821.575	0.0143711
821.653	0.0141865
821.731	0.0142344
821.809	0.0143718
821.887	0.0143019
821.965	0.0142878
822.043	0.0142354
822.121	0.0141682
822.200	0.0141506
822.278	0.0140735
822.356	0.0142281
822.434	0.0141840
822.512	0.0141038
822.590	0.0142680
822.668	0.0141096
822.746	0.0140351
822.825	0.0142384
822.903	0.0141502
822.981	0.0141835
823.059	0.0143259
823.137	0.0143922
823.215	0.0142346
823.293	0.0142878
823.371	0.0144144
823.450	0.0142731
823.528	0.0142826
823.606	0.0143517
823.684	0.0143335
823.762	0.0143021
823.840	0.0143568
823.918	0.0144975
823.996	0.0142588
824.075	0.0144012
824.153	0.0143867
824.231	0.0141761
824.309	0.0141550
824.387	0.0141557
824.465	0.0143301
824.543	0.0141474
824.621	0.0141132
824.700	0.0141467
824.778	0.0142229
824.856	0.0141446
824.934	0.0140701
825.012	0.0141095
825.090	0.0140211
825.168	0.0142430
825.246	0.0141323
825.325	0.0141390
825.403	0.0141870
825.481	0.0142495
825.559	0.0140246
825.637	0.0141813
825.715	0.0142961
825.793	0.0143035
825.871	0.0141977
825.950	0.0141461
826.028	0.0142125
826.106	0.0142680
826.184	0.0141925
826.262	0.0142245
826.340	0.0142154
826.418	0.0141437
826.496	0.0141525
826.575	0.0143459
826.653	0.0141904
826.731	0.0141702
826.809	0.0141928
826.887	0.0143128
826.965	0.0142899
827.043	0.0141600
827.121	0.0141429
827.200	0.0142223
827.278	0.0141938
827.356	0.0143305
827.434	0.0143439
827.512	0.0142318
827.590	0.0142753
827.668	0.0143169
827.746	0.0142984
827.825	0.0142868
827.903	0.0143125
827.981	0.0142133
828.059	0.0142371
828.137	0.0141692
828.215	0.0142447
828.293	0.0142326
828.371	0.0141582
828.450	0.0142020
828.528	0.0141129
828.606	0.0141164
828.684	0.0140961
828.762	0.0140313
828.840	0.0140701
828.918	0.0142387
828.996	0.0141312
829.075	0.0141592
829.153	0.0142540
829.231	0.0142171
829.309	0.0141924
829.387	0.0143266
829.465	0.0142666
829.543	0.0143066
829.621	0.0144285
829.700	0.0143490
829.778	0.0141054
829.856	0.0142669
829.934	0.0142740
830.012	0.0143489
830.090	0.0142464
830.168	0.0142791
830.246	0.0143119
830.325	0.0143461
830.403	0.0142885
830.481	0.0142337
830.559	0.0142476
830.637	0.0141556
830.715	0.0141521
830.793	0.0140714
830.871	0.0141260
830.950	0.0141631
831.028	0.0141789
831.106	0.0142220
831.184	0.0141472
831.262	0.0141821
831.340	0.0143468
831.418	0.0142141
831.496	0.0142041
831.575	0.0141956
831.653	0.0141047
831.731	0.0142130
831.809	0.0142870
831.887	0.0141535
831.965	0.0141351
832.043	0.0142757
832.121	0.0142654
832.200	0.0142798
832.278	0.0142606
832.356	0.0141781
832.434	0.0142606
832.512	0.0143172
832.590	0.0141448
832.668	0.0142599
832.746	0.0141131
832.825	0.0140869
832.903	0.0141138
832.981	0.0142147
833.059	0.0142239
833.137	0.0141429
833.215	0.0140398
833.293	0.0139436
833.371	0.0142419
833.450	0.0142529
833.528	0.0141415
833.606	0.0141229
833.684	0.0142180
833.762	0.0141598
833.840	0.0142424
833.918	0.0143030
833.996	0.0141796
834.075	0.0142187
834.153	0.0142303
834.231	0.0140926
834.309	0.0143123
834.387	0.0143056
834.465	0.0142079
834.543	0.0142692
834.621	0.0142853
834.700	0.0142741
834.778	0.0142181
834.856	0.0141592
834.934	0.0141742
835.012	0.0143084
835.090	0.0141892
835.168	0.0142079
835.246	0.0141410
835.325	0.0142518
835.403	0.0142803
835.481	0.0141965
835.559	0.0142494
835.637	0.0142747
835.715	0.0140983
835.793	0.0142681
835.871	0.0143283
835.950	0.0142689
836.028	0.0142664
836.106	0.0142818
836.184	0.0142009
836.262	0.0141658
836.340	0.0142051
836.418	0.0142079
836.496	0.0140508
836.575	0.0142496
836.653	0.0141663
836.731	0.0140691
836.809	0.0141167
836.887	0.0139234
836.965	0.0140122
837.043	0.0141411
837.121	0.0140648
837.200	0.0141000
837.278	0.0141581
837.356	0.0142197
837.434	0.0143695
837.512	0.0142443
837.590	0.0141737
837.668	0.0143999
837.746	0.0143353
837.825	0.0144054
837.903	0.0144013
837.981	0.0143429
838.059	0.0142960
838.137	0.0143665
838.215	0.0144418
838.293	0.0142202
838.371	0.0141378
838.450	0.0141596
838.528	0.0140096
838.606	0.0141468
838.684	0.0140668
838.762	0.0142054
838.840	0.0141061
838.918	0.0139819
838.996	0.0140349
839.075	0.0140609
839.153	0.0139856
839.231	0.0141973
839.309	0.0140604
839.387	0.0141949
839.465	0.0141364
839.543	0.0141365
839.621	0.0142977
839.700	0.0142153
839.778	0.0143838
839.856	0.0142492
839.934	0.0144096
840.012	0.0142716
840.090	0.0141737
840.168	0.0141479
840.246	0.0143395
840.325	0.0143137
840.403	0.0144277
840.481	0.0143025
840.559	0.0142081
840.637	0.0142439
840.715	0.0142242
840.793	0.0142046
840.871	0.0142767
840.950	0.0141822
841.028	0.0142220
841.106	0.0142413
841.184	0.0141340
841.262	0.0140672
841.340	0.0140311
841.418	0.0141404
841.496	0.0141391
841.575	0.0141725
841.653	0.0142616
841.731	0.0142098
841.809	0.0141674
841.887	0.0141455
841.965	0.0141968
842.043	0.0142857
842.121	0.0141871
842.200	0.0142973
842.278	0.0141928
842.356	0.0141990
842.434	0.0141422
842.512	0.0141696
842.590	0.0142544
842.668	0.0141066
842.746	0.0142585
842.825	0.0140504
842.903	0.0142062
842.981	0.0143574
843.059	0.0142151
843.137	0.0142570
843.215	0.0141701
843.293	0.0143517
843.371	0.0141511
843.450	0.0143619
843.528	0.0143343
843.606	0.0142454
843.684	0.0143147
843.762	0.0140991
843.840	0.0141033
843.918	0.0141946
843.996	0.0142356
844.075	0.0140971
844.153	0.0142376
844.231	0.0142598
844.309	0.0141223
844.387	0.0140916
844.465	0.0140414
844.543	0.0140752
844.621	0.0141229
844.700	0.0140296
844.778	0.0140448
844.856	0.0140880
844.934	0.0140958
845.012	0.0140261
845.090	0.0141572
845.168	0.0141975
845.246	0.0140438
845.325	0.0141400
845.403	0.0142310
845.481	0.0142243
845.559	0.0142910
845.637	0.0143898
845.715	0.0143014
845.793	0.0142441
845.871	0.0142560
845.950	0.0141831
846.028	0.0142046
846.106	0.0142249
846.184	0.0141147
846.262	0.0142662
846.340	0.0142444
846.418	0.0141931
846.496	0.0142246
846.575	0.0142365
846.653	0.0141988
846.731	0.0141419
846.809	0.0140855
846.887	0.0140392
846.965	0.0140546
847.043	0.0140991
847.121	0.0140278
847.200	0.0140982
847.278	0.0140792
847.356	0.0140311
847.434	0.0140788
847.512	0.0139603
847.590	0.0141991
847.668	0.0141581
847.746	0.0141600
847.825	0.0142351
847.903	0.0141158
847.981	0.0142323
848.059	0.0143391
848.137	0.0142139
848.215	0.0142247
848.293	0.0142046
848.371	0.0142824
848.450	0.0144011
848.528	0.0142445
848.606	0.0143021
848.684	0.0143340
848.762	0.0143991
848.840	0.0142979
848.918	0.0143495
848.996	0.0142699
849.075	0.0141718
849.153	0.0142399
849.231	0.0141451
849.309	0.0141389
849.387	0.0141018
849.465	0.0141866
849.543	0.0140488
849.621	0.0139195
849.700	0.0140572
849.778	0.0140405
849.856	0.0140274
849.934	0.0141932
850.012	0.0142870
850.090	0.0141779
850.168	0.0141499
850.246	0.0141747
850.325	0.0141576
850.403	0.0143261
850.481	0.0143636
850.559	0.0142450
850.637	0.0142301
850.715	0.0141119
850.793	0.0142339
850.871	0.0143531
850.950	0.0142120
851.028	0.0143926
851.106	0.0142287
851.184	0.0141284
851.262	0.0142682
851.340	0.0140508
851.418	0.0141330
851.496	0.0140840
851.575	0.0140744
851.653	0.0141493
851.731	0.0140903
851.809	0.0142121
851.887	0.0140534
851.965	0.0139881
852.043	0.0140430
852.121	0.0141018
852.200	0.0140164
852.278	0.0140829
852.356	0.0141292
852.434	0.0141105
852.512	0.0142286
852.590	0.0140884
852.668	0.0141576
852.746	0.0142083
852.825	0.0141898
852.903	0.0142458
852.981	0.0142488
853.059	0.0143743
853.137	0.0143877
853.215	0.0142944
853.293	0.0143062
853.371	0.0143372
853.450	0.0142795
853.528	0.0142155
853.606	0.0141179
853.684	0.0142193
853.762	0.0141692
853.840	0.0140366
853.918	0.0140587
853.996	0.0140714
854.075	0.0141839
854.153	0.0139991
854.231	0.0141717
854.309	0.0140374
854.387	0.0139800
854.465	0.0142162
854.543	0.0143173
854.621	0.0142065
854.700	0.0142364
854.778	0.0141888
854.856	0.0141190
854.934	0.0141251
855.012	0.0141893
855.090	0.0142995
855.168	0.0142887
855.246	0.0143389
855.325	0.0142850
855.403	0.0142374
855.481	0.0142094
855.559	0.0141560
855.637	0.0141202
855.715	0.0143403
855.793	0.0142426
855.871	0.0142959
855.950	0.0142333
856.028	0.0142014
856.106	0.0143110
856.184	0.0140798
856.262	0.0141458
856.340	0.0141080
856.418	0.0141374
856.496	0.0140060
856.575	0.0141198
856.653	0.0141878
856.731	0.0142255
856.809	0.0140905
856.887	0.0141259
856.965	0.0140672
857.043	0.0141482
857.121	0.0141855
857.200	0.0142583
857.278	0.0142020
857.356	0.0141133
857.434	0.0143183
857.512	0.0141641
857.590	0.0141632
857.668	0.0141924
857.746	0.0142675
857.825	0.0142936
857.903	0.0142330
857.981	0.0141754
858.059	0.0142166
858.137	0.0142044
858.215	0.0141826
858.293	0.0143076
858.371	0.0140834
858.450	0.0141244
858.528	0.0142047
858.606	0.0142841
858.684	0.0140689
858.762	0.0142199
858.840	0.0142257
858.918	0.0142758
858.996	0.0141213
859.075	0.0141434
859.153	0.0141682
859.231	0.0142268
859.309	0.0141644
859.387	0.0141046
859.465	0.0143073
859.543	0.0142647
859.621	0.0141849
859.700	0.0140484
859.778	0.0141078
859.856	0.0142597
859.934	0.0140922
860.012	0.0142049
860.090	0.0142492
860.168	0.0142126
860.246	0.0141589
860.325	0.0141613
860.403	0.0141283
860.481	0.0141400
860.559	0.0142995
860.637	0.0142570
860.715	0.0141617
860.793	0.0141583
860.871	0.0140218
860.950	0.0141724
861.028	0.0141734
861.106	0.0141602
861.184	0.0142204
861.262	0.0141644
861.340	0.0142334
861.418	0.0140694
861.496	0.0141640
861.575	0.0143365
861.653	0.0143044
861.731	0.0140942
861.809	0.0140935
861.887	0.0142442
861.965	0.0141776
862.043	0.0142840
862.121	0.0142359
862.200	0.0140923
862.278	0.0141903
862.356	0.0141842
862.434	0.0141189
862.512	0.0142159
862.590	0.0142181
862.668	0.0143063
862.746	0.0142342
862.825	0.0140969
862.903	0.0143005
862.981	0.0141928
863.059	0.0140811
863.137	0.0141698
863.215	0.0140158
863.293	0.0141204
863.371	0.0141387
863.450	0.0140584
863.528	0.0141250
863.606	0.0141290
863.684	0.0140182
863.762	0.0142416
863.840	0.0143230
863.918	0.0140702
863.996	0.0141727
864.075	0.0142464
864.153	0.0139900
864.231	0.0141273
864.309	0.0141944
864.387	0.0141333
864.465	0.0142000
864.543	0.0142316
864.621	0.0142457
864.700	0.0141769
864.778	0.0142811
864.856	0.0142209
864.934	0.0141316
865.012	0.0141814
865.090	0.0142292
865.168	0.0143445
865.246	0.0143162
865.325	0.0142390
865.403	0.0142428
865.481	0.0142362
865.559	0.0142815
865.637	0.0142498
865.715	0.0141302
865.793	0.0142403
865.871	0.0141850
865.950	0.0142046
866.028	0.0141517
866.106	0.0142054
866.184	0.0141899
866.262	0.0141370
866.340	0.0142391
866.418	0.0141512
866.496	0.0141587
866.575	0.0141788
866.653	0.0141743
866.731	0.0143466
866.809	0.0141980
866.887	0.0142860
866.965	0.0142838
867.043	0.0141711
867.121	0.0141091
867.200	0.0142044
867.278	0.0142450
867.356	0.0141587
867.434	0.0141920
867.512	0.0142879
867.590	0.0142462
867.668	0.0142382
867.746	0.0142330
867.825	0.0140204
867.903	0.0141510
867.981	0.0142302
868.059	0.0141484
868.137	0.0140851
868.215	0.0141091
868.293	0.0140674
868.371	0.0141474
868.450	0.0141367
868.528	0.0141734
868.606	0.0142200
868.684	0.0141822
868.762	0.0142083
868.840	0.0142024
868.918	0.0143388
868.996	0.0141625
869.075	0.0140821
869.153	0.0142726
869.231	0.0141840
869.309	0.0142316
869.387	0.0143491
869.465	0.0143040
869.543	0.0143516
869.621	0.0143270
869.700	0.0142678
869.778	0.0142841
869.856	0.0142754
869.934	0.0142318
870.012	0.0142589
870.090	0.0141770
870.168	0.0142469
870.246	0.0143018
870.325	0.0142238
870.403	0.0142829
870.481	0.0141688
870.559	0.0141518
870.637	0.0140771
870.715	0.0141153
870.793	0.0140511
870.871	0.0139912
870.950	0.0141228
871.028	0.0140689
871.106	0.0139587
871.184	0.0141967
871.262	0.0141147
871.340	0.0140746
871.418	0.0141769
871.496	0.0141608
871.575	0.0141920
871.653	0.0141738
871.731	0.0140850
871.809	0.0143664
871.887	0.0142722
871.965	0.0143354
872.043	0.0143860
872.121	0.0142683
872.200	0.0143250
872.278	0.0143497
872.356	0.0142548
872.434	0.0142134
872.512	0.0143084
872.590	0.0142916
872.668	0.0142838
872.746	0.0142241
872.825	0.0142007
872.903	0.0141330
872.981	0.0140941
873.059	0.0141483
873.137	0.0141451
873.215	0.0141711
873.293	0.0140933
873.371	0.0141299
873.450	0.0141256
873.528	0.0140204
873.606	0.0140591
873.684	0.0141476
873.762	0.0141679
873.840	0.0141507
873.918	0.0141962
873.996	0.0142344
874.075	0.0142364
874.153	0.0142780
874.231	0.0142860
874.309	0.0141521
874.387	0.0143106
874.465	0.0142423
874.543	0.0142283
874.621	0.0142263
874.700	0.0141112
874.778	0.0143483
874.856	0.0142371
874.934	0.0143669
875.012	0.0142805
875.090	0.0142212
875.168	0.0140660
875.246	0.0141450
875.325	0.0142487
875.403	0.0141223
875.481	0.0142249
875.559	0.0141254
875.637	0.0141754
875.715	0.0142067
875.793	0.0142889
875.871	0.0142590
875.950	0.0142414
876.028	0.0142029
876.106	0.0142088
876.184	0.0142522
876.262	0.0141720
876.340	0.0143161
876.418	0.0142903
876.496	0.0143771
876.575	0.0142844
876.653	0.0141399
876.731	0.0142406
876.809	0.0142794
876.887	0.0142625
876.965	0.0142300
877.043	0.0142133
877.121	0.0142568
877.200	0.0142015
877.278	0.0141714
877.356	0.0141489
877.434	0.0142890
877.512	0.0141837
877.590	0.0142723
877.668	0.0141809
877.746	0.0141441
877.825	0.0141138
877.903	0.0141644
877.981	0.0140782
878.059	0.0141415
878.137	0.0142238
878.215	0.0140902
878.293	0.0142109
878.371	0.0142277
878.450	0.0141238
878.528	0.0141013
878.606	0.0141763
878.684	0.0141762
878.762	0.0143250
878.840	0.0142091
878.918	0.0142419
878.996	0.0142013
879.075	0.0142253
879.153	0.0142635
879.231	0.0143383
879.309	0.0142371
879.387	0.0142447
879.465	0.0141722
879.543	0.0140799
879.621	0.0140971
879.700	0.0141814
879.778	0.0141431
879.856	0.0141122
879.934	0.0142280
880.012	0.0141192
880.090	0.0141240
880.168	0.0143027
880.246	0.0141374
880.325	0.0141051
880.403	0.0142333
880.481	0.0142257
880.559	0.0142108
880.637	0.0141423
880.715	0.0141270
880.793	0.0141858
880.871	0.0142474
880.950	0.0141948
881.028	0.0142641
881.106	0.0142297
881.184	0.0141545
881.262	0.0143040
881.340	0.0142028
881.418	0.0141564
881.496	0.0142420
881.575	0.0142322
881.653	0.0143077
881.731	0.0141647
881.809	0.0142159
881.887	0.0142007
881.965	0.0142711
882.043	0.0142220
882.121	0.0141053
882.200	0.0141890
882.278	0.0143228
882.356	0.0142786
882.434	0.0141695
882.512	0.0141383
882.590	0.0142768
882.668	0.0142350
882.746	0.0142404
882.825	0.0140597
882.903	0.0140984
882.981	0.0141586
883.059	0.0140996
883.137	0.0140796
883.215	0.0140427
883.293	0.0141176
883.371	0.0141398
883.450	0.0141048
883.528	0.0142334
883.606	0.0141924
883.684	0.0141975
883.762	0.0141968
883.840	0.0142561
883.918	0.0142094
883.996	0.0142367
884.075	0.0143470
884.153	0.0143013
884.231	0.0142194
884.309	0.0142909
884.387	0.0142904
884.465	0.0142912
884.543	0.0143726
884.621	0.0143131
884.700	0.0141409
884.778	0.0141785
884.856	0.0141858
884.934	0.0142451
885.012	0.0141727
885.090	0.0142255
885.168	0.0141605
885.246	0.0141005
885.325	0.0141965
885.403	0.0142924
885.481	0.0142676
885.559	0.0142627
885.637	0.0142724
885.715	0.0142451
885.793	0.0142075
885.871	0.0140978
885.950	0.0142277
886.028	0.0141862
886.106	0.0141423
886.184	0.0141945
886.262	0.0141311
886.340	0.0142204
886.418	0.0142751
886.496	0.0141350
886.575	0.0142591
886.653	0.0141653
886.731	0.0143387
886.809	0.0143808
886.887	0.0142126
886.965	0.0142395
887.043	0.0143286
887.121	0.0143317
887.200	0.0143526
887.278	0.0141818
887.356	0.0142165
887.434	0.0141877
887.512	0.0141281
887.590	0.0141595
887.668	0.0141415
887.746	0.0141038
887.825	0.0142822
887.903	0.0141647
887.981	0.0141225
888.059	0.0141152
888.137	0.0141745
888.215	0.0141227
888.293	0.0140968
888.371	0.0142302
888.450	0.0141604
888.528	0.0142372
888.606	0.0141654
888.684	0.0142525
888.762	0.0142417
888.840	0.0141805
888.918	0.0142007
888.996	0.0143507
889.075	0.0142935
889.153	0.0142816
889.231	0.0142516
889.309	0.0142435
889.387	0.0141943
889.465	0.0142273
889.543	0.0142139
889.621	0.0142295
889.700	0.0141760
889.778	0.0142535
889.856	0.0142857
889.934	0.0142781
890.012	0.0141841
890.090	0.0141762
890.168	0.0142166
890.246	0.0141374
890.325	0.0141942
890.403	0.0141290
890.481	0.0142628
890.559	0.0142722
890.637	0.0140821
890.715	0.0140291
890.793	0.0141529
890.871	0.0141702
890.950	0.0141093
891.028	0.0141685
891.106	0.0140556
891.184	0.0141267
891.262	0.0142150
891.340	0.0141987
891.418	0.0141156
891.496	0.0141504
891.575	0.0141823
891.653	0.0140394
891.731	0.0140507
891.809	0.0141494
891.887	0.0142643
891.965	0.0141879
892.043	0.0140578
892.121	0.0141576
892.200	0.0142464
892.278	0.0141202
892.356	0.0141604
892.434	0.0141888
892.512	0.0141174
892.590	0.0141859
892.668	0.0141338
892.746	0.0141753
892.825	0.0141437
892.903	0.0141158
892.981	0.0142498
893.059	0.0141748
893.137	0.0141073
893.215	0.0142229
893.293	0.0142303
893.371	0.0142001
893.450	0.0141671
893.528	0.0141257
893.606	0.0141447
893.684	0.0141064
893.762	0.0141861
893.840	0.0141619
893.918	0.0141449
893.996	0.0142157
894.075	0.0141376
894.153	0.0141847
894.231	0.0142118
894.309	0.0140907
894.387	0.0141197
894.465	0.0141889
894.543	0.0142646
894.621	0.0140859
894.700	0.0140333
894.778	0.0140829
894.856	0.0143930
894.934	0.0142365
895.012	0.0143025
895.090	0.0142580
895.168	0.0141685
895.246	0.0141669
895.325	0.0142270
895.403	0.0142060
895.481	0.0142481
895.559	0.0141566
895.637	0.0142044
895.715	0.0140907
895.793	0.0143007
895.871	0.0142817
895.950	0.0141715
896.028	0.0143193
896.106	0.0141819
896.184	0.0141380
896.262	0.0141508
896.340	0.0142530
896.418	0.0142289
896.496	0.0142947
896.575	0.0143253
896.653	0.0142735
896.731	0.0142319
896.809	0.0143071
896.887	0.0142462
896.965	0.0144517
897.043	0.0143176
897.121	0.0142191
897.200	0.0142290
897.278	0.0143474
897.356	0.0141422
897.434	0.0143105
897.512	0.0141385
897.590	0.0142694
897.668	0.0142075
897.746	0.0142354
897.825	0.0143348
897.903	0.0141729
897.981	0.0141771
898.059	0.0142422
898.137	0.0141408
898.215	0.0140176
898.293	0.0139417
898.371	0.0141539
898.450	0.0141388
898.528	0.0139915
898.606	0.0140632
898.684	0.0141329
898.762	0.0141830
898.840	0.0141861
898.918	0.0141511
898.996	0.0141063
899.075	0.0142933
899.153	0.0141944
899.231	0.0141764
899.309	0.0144778
899.387	0.0142711
899.465	0.0143619
899.543	0.0143818
899.621	0.0144122
899.700	0.0143429
899.778	0.0143002
899.856	0.0143624
899.934	0.0143267
900.012	0.0143074
900.090	0.0141576
900.168	0.0141689
900.246	0.0142120
900.325	0.0142743
900.403	0.0140118
900.481	0.0140015
900.559	0.0139740
900.637	0.0138965
900.715	0.0140788
900.793	0.0141150
900.871	0.0139714
900.950	0.0139360
901.028	0.0138836
901.106	0.0139979
901.184	0.0139988
901.262	0.0141235
901.340	0.0141328
901.418	0.0141635
901.496	0.0141573
901.575	0.0142328
901.653	0.0142695
901.731	0.0142936
901.809	0.0143835
901.887	0.0144650
901.965	0.0144939
902.043	0.0146136
902.121	0.0144905
902.200	0.0145885
902.278	0.0145545
902.356	0.0146225
902.434	0.0144868
902.512	0.0143625
902.590	0.0144148
902.668	0.0143131
902.746	0.0142950
902.825	0.0141281
902.903	0.0140139
902.981	0.0140176
903.059	0.0139299
903.137	0.0138749
903.215	0.0139411
903.293	0.0137665
903.371	0.0138927
903.450	0.0139596
903.528	0.0137862
903.606	0.0137881
903.684	0.0139748
903.762	0.0140759
903.840	0.0139445
903.918	0.0139683
903.996	0.0142146
904.075	0.0142783
904.153	0.0144547
904.231	0.0144868
904.309	0.0145435
904.387	0.0145282
904.465	0.0147143
904.543	0.0146941
904.621	0.0147913
904.700	0.0147350
904.778	0.0145654
904.856	0.0145969
904.934	0.0142413
905.012	0.0142142
905.090	0.0141349
905.168	0.0140702
905.246	0.0139850
905.325	0.0138918
905.403	0.0138462
905.481	0.0137812
905.559	0.0137106
905.637	0.0138093
905.715	0.0137995
905.793	0.0138518
905.871	0.0137585
905.950	0.0139085
906.028	0.0140349
906.106	0.0142127
906.184	0.0140576
906.262	0.0143343
906.340	0.0142862
906.418	0.0145036
906.496	0.0144372
906.575	0.0142889
906.653	0.0144023
906.731	0.0145524
906.809	0.0145280
906.887	0.0144932
906.965	0.0145913
907.043	0.0144021
907.121	0.0144000
907.200	0.0143792
907.278	0.0144110
907.356	0.0142280
907.434	0.0142778
907.512	0.0141428
907.590	0.0142274
907.668	0.0140617
907.746	0.0141039
907.825	0.0141257
907.903	0.0138917
907.981	0.0140715
908.059	0.0141727
908.137	0.0139095
908.215	0.0139665
908.293	0.0139897
908.371	0.0139855
908.450	0.0141010
908.528	0.0141474
908.606	0.0140905
908.684	0.0143093
908.762	0.0142452
908.840	0.0143832
908.918	0.0143050
908.996	0.0143223
909.075	0.0143493
909.153	0.0141961
909.231	0.0142645
909.309	0.0143746
909.387	0.0142031
909.465	0.0142918
909.543	0.0142252
909.621	0.0141580
909.700	0.0143448
909.778	0.0143003
909.856	0.0141645
909.934	0.0141154
910.012	0.0142153
910.090	0.0140427
910.168	0.0142195
910.246	0.0142641
910.325	0.0142808
910.403	0.0141750
910.481	0.0142885
910.559	0.0142371
910.637	0.0142946
910.715	0.0142468
910.793	0.0142943
910.871	0.0144098
910.950	0.0141722
911.028	0.0142994
911.106	0.0142152
911.184	0.0142651
911.262	0.0141795
911.340	0.0141681
911.418	0.0143523
911.496	0.0141965
911.575	0.0142242
911.653	0.0142730
911.731	0.0142006
911.809	0.0142957
911.887	0.0142962
911.965	0.0144919
912.043	0.0144118
912.121	0.0144853
912.200	0.0144536
912.278	0.0144141
912.356	0.0143837
912.434	0.0143777
912.512	0.0142375
912.590	0.0141270
912.668	0.0143082
912.746	0.0141966
912.825	0.0140704
912.903	0.0139672
912.981	0.0140755
913.059	0.0141076
913.137	0.0140619
913.215	0.0138441
913.293	0.0140075
913.371	0.0139760
913.450	0.0139561
913.528	0.0140971
913.606	0.0141029
913.684	0.0140904
913.762	0.0142061
913.840	0.0142962
913.918	0.0143801
913.996	0.0142552
914.075	0.0142068
914.153	0.0143303
914.231	0.0143962
914.309	0.0143884
914.387	0.0143635
914.465	0.0145109
914.543	0.0144388
914.621	0.0143488
914.700	0.0144177
914.778	0.0143706
914.856	0.0142970
914.934	0.0142941
915.012	0.0141504
915.090	0.0141611
915.168	0.0141550
915.246	0.0139256
915.325	0.0139170
915.403	0.0139124
915.481	0.0139832
915.559	0.0140253
915.637	0.0139252
915.715	0.0139235
915.793	0.0139713
915.871	0.0139982
915.950	0.0140332
916.028	0.0141496
916.106	0.0141402
916.184	0.0141077
916.262	0.0142785
916.340	0.0143669
916.418	0.0143348
916.496	0.0144836
916.575	0.0145187
916.653	0.0144568
916.731	0.0144450
916.809	0.0145239
916.887	0.0146132
916.965	0.0143840
917.043	0.0143327
917.121	0.0142053
917.200	0.0142182
917.278	0.0143134
917.356	0.0141807
917.434	0.0139949
917.512	0.0141090
917.590	0.0140432
917.668	0.0141230
917.746	0.0139858
917.825	0.0141018
917.903	0.0140430
917.981	0.0140572
918.059	0.0140927
918.137	0.0140154
918.215	0.0140850
918.293	0.0142657
918.371	0.0141205
918.450	0.0140530
918.528	0.0142129
918.606	0.0141650
918.684	0.0142570
918.762	0.0143549
918.840	0.0142840
918.918	0.0143811
918.996	0.0142451
919.075	0.0142050
919.153	0.0143378
919.231	0.0142416
919.309	0.0144046
919.387	0.0143232
919.465	0.0143431
919.543	0.0141302
919.621	0.0141550
919.700	0.0142088
919.778	0.0141222
919.856	0.0140513
919.934	0.0141293
920.012	0.0140631
920.090	0.0140209
920.168	0.0140395
920.246	0.0138752
920.325	0.0139886
920.403	0.0141778
920.481	0.0140563
920.559	0.0140288
920.637	0.0141396
920.715	0.0142090
920.793	0.0141534
920.871	0.0142624
920.950	0.0143660
921.028	0.0143255
921.106	0.0144746
921.184	0.0144776
921.262	0.0143447
921.340	0.0143010
921.418	0.0143082
921.496	0.0142563
921.575	0.0142278
921.653	0.0140958
921.731	0.0141282
921.809	0.0141461
921.887	0.0140514
921.965	0.0141231
922.043	0.0141235
922.121	0.0142326
922.200	0.0141623
922.278	0.0140861
922.356	0.0140832
922.434	0.0141447
922.512	0.0142467
922.590	0.0140935
922.668	0.0142590
922.746	0.0142247
922.825	0.0142542
922.903	0.0142615
922.981	0.0142944
923.059	0.0142838
923.137	0.0142836
923.215	0.0143941
923.293	0.0143533
923.371	0.0142963
923.450	0.0143148
923.528	0.0143102
923.606	0.0142096
923.684	0.0143475
923.762	0.0142487
923.840	0.0142210
923.918	0.0141659
923.996	0.0142400
924.075	0.0142781
924.153	0.0141466
924.231	0.0140497
924.309	0.0140793
924.387	0.0140305
924.465	0.0138940
924.543	0.0141501
924.621	0.0141171
924.700	0.0138783
924.778	0.0140140
924.856	0.0142441
924.934	0.0141975
925.012	0.0142075
925.090	0.0141986
925.168	0.0141785
925.246	0.0144422
925.325	0.0143345
925.403	0.0142870
925.481	0.0143429
925.559	0.0142686
925.637	0.0143298
925.715	0.0144604
925.793	0.0144131
925.871	0.0142487
925.950	0.0142643
926.028	0.0144449
926.106	0.0143227
926.184	0.0143114
926.262	0.0142321
926.340	0.0142787
926.418	0.0142542
926.496	0.0142774
926.575	0.0142957
926.653	0.0141355
926.731	0.0140669
926.809	0.0140516
926.887	0.0141088
926.965	0.0142068
927.043	0.0141187
927.121	0.0140662
927.200	0.0139963
927.278	0.0140580
927.356	0.0140132
927.434	0.0140821
927.512	0.0142026
927.590	0.0141057
927.668	0.0140732
927.746	0.0141087
927.825	0.0140943
927.903	0.0142712
927.981	0.0144037
928.059	0.0144118
928.137	0.0143293
928.215	0.0144269
928.293	0.0145106
928.371	0.0145358
928.450	0.0145387
928.528	0.0145097
928.606	0.0145218
928.684	0.0144272
928.762	0.0143877
928.840	0.0144518
928.918	0.0144324
928.996	0.0143404
929.075	0.0142861
929.153	0.0142437
929.231	0.0142641
929.309	0.0141039
929.387	0.0140096
929.465	0.0140343
929.543	0.0140891
929.621	0.0140087
929.700	0.0138438
929.778	0.0140229
929.856	0.0140600
929.934	0.0139268
930.012	0.0139590
930.090	0.0140466
930.168	0.0140702
930.246	0.0140968
930.325	0.0142918
930.403	0.0143774
930.481	0.0144328
930.559	0.0143713
930.637	0.0143035
930.715	0.0144223
930.793	0.0144554
930.871	0.0144334
930.950	0.0144779
931.028	0.0143482
931.106	0.0144665
931.184	0.0143154
931.262	0.0143011
931.340	0.0144151
931.418	0.0142596
931.496	0.0143414
931.575	0.0143143
931.653	0.0142371
931.731	0.0139875
931.809	0.0140276
931.887	0.0141194
931.965	0.0138805
932.043	0.0139573
932.121	0.0140065
932.200	0.0140529
932.278	0.0139732
932.356	0.0139436
932.434	0.0141293
932.512	0.0141009
932.590	0.0140400
932.668	0.0141631
932.746	0.0141088
932.825	0.0142174
932.903	0.0142559
932.981	0.0144305
933.059	0.0144147
933.137	0.0143095
933.215	0.0142557
933.293	0.0143756
933.371	0.0143341
933.450	0.0143915
933.528	0.0143246
933.606	0.0142422
933.684	0.0142722
933.762	0.0142495
933.840	0.0143111
933.918	0.0142068
933.996	0.0141914
934.075	0.0141689
934.153	0.0142202
934.231	0.0142184
934.309	0.0140820
934.387	0.0142259
934.465	0.0140484
934.543	0.0140354
934.621	0.0140806
934.700	0.0142100
934.778	0.0140461
934.856	0.0140571
934.934	0.0140793
935.012	0.0141404
935.090	0.0140671
935.168	0.0141846
935.246	0.0140989
935.325	0.0141674
935.403	0.0141627
935.481	0.0142418
935.559	0.0141786
935.637	0.0141532
935.715	0.0143012
935.793	0.0141537
935.871	0.0142802
935.950	0.0142262
936.028	0.0143933
936.106	0.0143782
936.184	0.0141518
936.262	0.0142165
936.340	0.0142674
936.418	0.0143204
936.496	0.0143499
936.575	0.0141967
936.653	0.0141352
936.731	0.0141159
936.809	0.0140144
936.887	0.0140986
936.965	0.0141237
937.043	0.0141998
937.121	0.0140340
937.200	0.0140605
937.278	0.0141404
937.356	0.0140030
937.434	0.0139532
937.512	0.0142175
937.590	0.0142332
937.668	0.0141683
937.746	0.0143080
937.825	0.0141217
937.903	0.0142475
937.981	0.0141843
938.059	0.0143466
938.137	0.0143354
938.215	0.0144256
938.293	0.0144118
938.371	0.0145296
938.450	0.0143245
938.528	0.0142836
938.606	0.0142406
938.684	0.0143151
938.762	0.0142025
938.840	0.0142336
938.918	0.0142294
938.996	0.0141183
939.075	0.0140663
939.153	0.0141552
939.231	0.0141003
939.309	0.0139381
939.387	0.0140540
939.465	0.0139944
939.543	0.0139591
939.621	0.0140179
939.700	0.0140453
939.778	0.0140974
939.856	0.0141075
939.934	0.0141654
940.012	0.0142142
940.090	0.0141850
940.168	0.0140369
940.246	0.0142327
940.325	0.0144061
940.403	0.0142831
940.481	0.0142635
940.559	0.0144173
940.637	0.0143436
940.715	0.0142500
940.793	0.0141544
940.871	0.0142254
940.950	0.0144215
941.028	0.0143088
941.106	0.0141660
941.184	0.0142446
941.262	0.0141612
941.340	0.0140891
941.418	0.0141074
941.496	0.0142245
941.575	0.0141315
941.653	0.0141273
941.731	0.0141708
941.809	0.0139999
941.887	0.0139301
941.965	0.0139642
942.043	0.0140701
942.121	0.0140823
942.200	0.0140831
942.278	0.0141003
942.356	0.0139872
942.434	0.0141151
942.512	0.0143072
942.590	0.0142690
942.668	0.0144196
942.746	0.0142207
942.825	0.0142377
942.903	0.0142699
942.981	0.0144138
943.059	0.0142593
943.137	0.0143363
943.215	0.0143761
943.293	0.0143077
943.371	0.0141666
943.450	0.0142351
943.528	0.0142797
943.606	0.0142348
943.684	0.0140897
943.762	0.0141070
943.840	0.0142039
943.918	0.0141614
943.996	0.0142138
944.075	0.0142591
944.153	0.0140009
944.231	0.0141515
944.309	0.0141288
944.387	0.0140478
944.465	0.0139832
944.543	0.0139737
944.621	0.0139458
944.700	0.0141016
944.778	0.0141129
944.856	0.0141270
944.934	0.0141201
945.012	0.0140066
945.090	0.0142147
945.168	0.0142487
945.246	0.0141328
945.325	0.0141798
945.403	0.0141880
945.481	0.0141879
945.559	0.0141443
945.637	0.0142197
945.715	0.0144382
945.793	0.0144004
945.871	0.0142513
945.950	0.0142199
946.028	0.0143060
946.106	0.0141494
946.184	0.0142213
946.262	0.0142192
946.340	0.0141741
946.418	0.0142572
946.496	0.0140841
946.575	0.0140880
946.653	0.0141610
946.731	0.0139536
946.809	0.0141214
946.887	0.0142735
946.965	0.0140327
947.043	0.0140023
947.121	0.0140013
947.200	0.0140517
947.278	0.0141464
947.356	0.0140449
947.434	0.0140588
947.512	0.0141329
947.590	0.0140948
947.668	0.0141000
947.746	0.0140400
947.825	0.0141371
947.903	0.0141447
947.981	0.0141244
948.059	0.0141334
948.137	0.0142527
948.215	0.0141605
948.293	0.0141605
948.371	0.0140869
948.450	0.0140967
948.528	0.0140961
948.606	0.0141539
948.684	0.0141999
948.762	0.0141000
948.840	0.0141644
948.918	0.0140813
948.996	0.0142245
949.075	0.0139983
949.153	0.0140135
949.231	0.0141438
949.309	0.0139990
949.387	0.0139314
949.465	0.0140621
949.543	0.0140464
949.621	0.0140669
949.700	0.0142280
949.778	0.0141114
949.856	0.0140776
949.934	0.0140276
950.012	0.0142716
950.090	0.0142276
950.168	0.0141015
950.246	0.0141993
950.325	0.0141371
950.403	0.0140240
950.481	0.0140558
950.559	0.0140147
950.637	0.0142626
950.715	0.0141945
950.793	0.0140511
950.871	0.0141936
950.950	0.0142257
951.028	0.0141479
951.106	0.0140948
951.184	0.0141696
951.262	0.0142872
951.340	0.0140209
951.418	0.0141398
951.496	0.0142116
951.575	0.0143144
951.653	0.0142554
951.731	0.0142346
951.809	0.0143333
951.887	0.0142264
951.965	0.0142030
952.043	0.0140868
952.121	0.0141772
952.200	0.0142239
952.278	0.0142596
952.356	0.0141228
952.434	0.0140629
952.512	0.0140477
952.590	0.0140791
952.668	0.0141376
952.746	0.0140887
952.825	0.0140045
952.903	0.0140293
952.981	0.0141524
953.059	0.0141861
953.137	0.0140913
953.215	0.0141071
953.293	0.0142052
953.371	0.0142091
953.450	0.0140739
953.528	0.0142270
953.606	0.0140924
953.684	0.0141718
953.762	0.0142998
953.840	0.0142827
953.918	0.0142516
953.996	0.0142725
954.075	0.0143230
954.153	0.0142656
954.231	0.0141736
954.309	0.0141679
954.387	0.0142432
954.465	0.0141442
954.543	0.0141440
954.621	0.0142167
954.700	0.0142170
954.778	0.0142230
954.856	0.0141154
954.934	0.0142017
955.012	0.0141785
955.090	0.0140621
955.168	0.0140540
955.246	0.0141064
955.325	0.0140877
955.403	0.0141103
955.481	0.0139835
955.559	0.0141441
955.637	0.0139727
955.715	0.0141163
955.793	0.0140836
955.871	0.0141122
955.950	0.0140617
956.028	0.0142719
956.106	0.0142542
956.184	0.0141193
956.262	0.0142106
956.340	0.0143024
956.418	0.0142530
956.496	0.0142224
956.575	0.0143246
956.653	0.0143810
956.731	0.0144368
956.809	0.0142413
956.887	0.0142849
956.965	0.0143863
957.043	0.0142738
957.121	0.0143626
957.200	0.0142551
957.278	0.0141805
957.356	0.0142319
957.434	0.0142565
957.512	0.0141228
957.590	0.0140733
957.668	0.0141904
957.746	0.0142426
957.825	0.0141718
957.903	0.0141116
957.981	0.0143034
958.059	0.0142311
958.137	0.0142065
958.215	0.0141740
958.293	0.0140404
958.371	0.0141132
958.450	0.0140593
958.528	0.0141484
958.606	0.0141777
958.684	0.0140115
958.762	0.0139885
958.840	0.0140049
958.918	0.0141591
958.996	0.0141237
959.075	0.0141520
959.153	0.0141644
959.231	0.0141527
959.309	0.0140169
959.387	0.0142737
959.465	0.0142638
959.543	0.0142760
959.621	0.0142809
959.700	0.0142046
959.778	0.0142494
959.856	0.0142019
959.934	0.0142293
960.012	0.0143222
960.090	0.0142200
960.168	0.0142580
960.246	0.0142448
960.325	0.0141741
960.403	0.0142023
960.481	0.0141355
960.559	0.0141344
960.637	0.0139004
960.715	0.0140103
960.793	0.0139606
960.871	0.0139421
960.950	0.0140278
961.028	0.0141463
961.106	0.0138615
961.184	0.0140717
961.262	0.0140331
961.340	0.0141070
961.418	0.0139885
961.496	0.0140555
961.575	0.0140206
961.653	0.0142617
961.731	0.0141430
961.809	0.0142207
961.887	0.0141364
961.965	0.0141560
962.043	0.0142709
962.121	0.0143559
962.200	0.0141228
962.278	0.0143085
962.356	0.0142154
962.434	0.0142535
962.512	0.0142361
962.590	0.0142645
962.668	0.0141167
962.746	0.0141280
962.825	0.0141384
962.903	0.0141570
962.981	0.0140978
963.059	0.0141912
963.137	0.0141339
963.215	0.0141805
963.293	0.0141047
963.371	0.0139069
963.450	0.0141932
963.528	0.0140965
963.606	0.0141827
963.684	0.0141552
963.762	0.0140969
963.840	0.0142112
963.918	0.0141970
963.996	0.0141140
964.075	0.0141327
964.153	0.0143568
964.231	0.0141413
964.309	0.0142404
964.387	0.0139752
964.465	0.0140453
964.543	0.0142610
964.621	0.0142454
964.700	0.0143021
964.778	0.0142188
964.856	0.0142049
964.934	0.0141656
965.012	0.0140376
965.090	0.0139277
965.168	0.0141204
965.246	0.0142124
965.325	0.0141354
965.403	0.0142200
965.481	0.0141287
965.559	0.0141853
965.637	0.0141173
965.715	0.0141723
965.793	0.0141986
965.871	0.0141847
965.950	0.0141892
966.028	0.0142043
966.106	0.0142529
966.184	0.0142407
966.262	0.0142365
966.340	0.0141969
966.418	0.0141470
966.496	0.0143249
966.575	0.0141908
966.653	0.0141454
966.731	0.0142163
966.809	0.0141564
966.887	0.0142594
966.965	0.0142211
967.043	0.0143019
967.121	0.0141273
967.200	0.0140780
967.278	0.0141466
967.356	0.0141083
967.434	0.0141514
967.512	0.0142020
967.590	0.0141877
967.668	0.0141491
967.746	0.0141216
967.825	0.0139939
967.903	0.0140538
967.981	0.0140827
968.059	0.0140783
968.137	0.0142918
968.215	0.0141364
968.293	0.0142134
968.371	0.0142774
968.450	0.0141996
968.528	0.0141676
968.606	0.0141196
968.684	0.0141542
968.762	0.0141617
968.840	0.0142310
968.918	0.0141251
968.996	0.0142247
969.075	0.0142544
969.153	0.0142510
969.231	0.0141492
969.309	0.0142878
969.387	0.0141527
969.465	0.0141229
969.543	0.0141777
969.621	0.0140836
969.700	0.0140857
969.778	0.0140140
969.856	0.0141084
969.934	0.0141808
970.012	0.0141763
970.090	0.0140562
970.168	0.0143036
970.246	0.0141752
970.325	0.0142206
970.403	0.0141779
970.481	0.0144498
970.559	0.0142372
970.637	0.0142465
970.715	0.0142333
970.793	0.0141118
970.871	0.0140263
970.950	0.0141368
971.028	0.0141157
971.106	0.0139930
971.184	0.0141525
971.262	0.0140154
971.340	0.0141010
971.418	0.0142262
971.496	0.0141885
971.575	0.0141264
971.653	0.0141952
971.731	0.0141204
971.809	0.0142087
971.887	0.0141051
971.965	0.0141331
972.043	0.0142892
972.121	0.0142098
972.200	0.0141442
972.278	0.0141924
972.356	0.0141073
972.434	0.0141637
972.512	0.0141435
972.590	0.0141697
972.668	0.0141421
972.746	0.0142107
972.825	0.0142048
972.903	0.0142220
972.981	0.0142874
973.059	0.0141020
973.137	0.0141609
973.215	0.0142132
973.293	0.0142469
973.371	0.0139719
973.450	0.0141811
973.528	0.0143199
973.606	0.0142914
973.684	0.0141209
973.762	0.0142020
973.840	0.0140214
973.918	0.0142942
973.996	0.0142669
974.075	0.0140625
974.153	0.0141280
974.231	0.0142378
974.309	0.0141058
974.387	0.0140768
974.465	0.0140602
974.543	0.0141100
974.621	0.0141357
974.700	0.0141176
974.778	0.0141400
974.856	0.0141182
974.934	0.0140958
975.012	0.0141405
975.090	0.0141466
975.168	0.0141547
975.246	0.0142935
975.325	0.0142854
975.403	0.0141654
975.481	0.0142413
975.559	0.0142284
975.637	0.0141409
975.715	0.0140363
975.793	0.0141759
975.871	0.0141010
975.950	0.0142017
976.028	0.0140665
976.106	0.0141509
976.184	0.0142059
976.262	0.0141566
976.340	0.0141129
976.418	0.0141590
976.496	0.0142208
976.575	0.0141903
976.653	0.0141521
976.731	0.0141141
976.809	0.0141775
976.887	0.0141696
976.965	0.0141718
977.043	0.0140804
977.121	0.0140681
977.200	0.0140718
977.278	0.0141669
977.356	0.0141625
977.434	0.0142361
977.512	0.0142215
977.590	0.0142069
977.668	0.0141017
977.746	0.0142619
977.825	0.0141223
977.903	0.0141534
977.981	0.0142281
978.059	0.0141165
978.137	0.0140654
978.215	0.0140436
978.293	0.0141342
978.371	0.0140522
978.450	0.0141422
978.528	0.0142286
978.606	0.0141394
978.684	0.0140988
978.762	0.0140343
978.840	0.0140826
978.918	0.0143040
978.996	0.0141999
979.075	0.0142682
979.153	0.0141647
979.231	0.0141173
979.309	0.0141354
979.387	0.0141372
979.465	0.0140604
979.543	0.0141691
979.621	0.0142735
979.700	0.0141370
979.778	0.0140877
979.856	0.0141200
979.934	0.0142051
980.012	0.0141747
980.090	0.0141462
980.168	0.0141691
980.246	0.0141988
980.325	0.0142944
980.403	0.0141858
980.481	0.0141723
980.559	0.0142234
980.637	0.0142199
980.715	0.0141354
980.793	0.0140122
980.871	0.0141836
980.950	0.0142117
981.028	0.0142670
981.106	0.0142944
981.184	0.0142915
981.262	0.0143023
981.340	0.0143478
981.418	0.0142081
981.496	0.0142461
981.575	0.0141763
981.653	0.0141395
981.731	0.0141604
981.809	0.0141216
981.887	0.0140974
981.965	0.0141457
982.043	0.0141611
982.121	0.0142611
982.200	0.0142129
982.278	0.0142269
982.356	0.0141748
982.434	0.0140445
982.512	0.0141080
982.590	0.0142674
982.668	0.0141367
982.746	0.0141560
982.825	0.0142028
982.903	0.0142798
982.981	0.0141644
983.059	0.0141689
983.137	0.0143349
983.215	0.0143176
983.293	0.0142891
983.371	0.0141109
983.450	0.0141936
983.528	0.0142239
983.606	0.0142551
983.684	0.0141798
983.762	0.0142858
983.840	0.0141287
983.918	0.0141261
983.996	0.0141010
984.075	0.0140808
984.153	0.0142006
984.231	0.0142651
984.309	0.0141117
984.387	0.0140417
984.465	0.0139839
984.543	0.0141074
984.621	0.0140407
984.700	0.0140695
984.778	0.0141128
984.856	0.0141676
984.934	0.0141840
985.012	0.0141909
985.090	0.0142287
985.168	0.0142286
985.246	0.0142380
985.325	0.0140410
985.403	0.0141727
985.481	0.0142585
985.559	0.0142356
985.637	0.0142175
985.715	0.0141615
985.793	0.0141417
985.871	0.0142620
985.950	0.0140898
986.028	0.0142920
986.106	0.0141091
986.184	0.0141099
986.262	0.0141244
986.340	0.0142462
986.418	0.0142640
986.496	0.0140951
986.575	0.0140192
986.653	0.0140936
986.731	0.0139753
986.809	0.0141396
986.887	0.0141608
986.965	0.0142715
987.043	0.0141127
987.121	0.0141160
987.200	0.0141779
987.278	0.0140672
987.356	0.0141169
987.434	0.0140503
987.512	0.0139526
987.590	0.0140530
987.668	0.0141591
987.746	0.0140477
987.825	0.0142336
987.903	0.0140125
987.981	0.0140424
988.059	0.0142389
988.137	0.0141248
988.215	0.0142412
988.293	0.0142188
988.371	0.0141692
988.450	0.0142558
988.528	0.0141911
988.606	0.0141142
988.684	0.0142001
988.762	0.0143151
988.840	0.0140867
988.918	0.0143398
988.996	0.0142789
989.075	0.0142719
989.153	0.0142388
989.231	0.0141942
989.309	0.0141482
989.387	0.0142516
989.465	0.0141858
989.543	0.0141090
989.621	0.0142982
989.700	0.0140752
989.778	0.0142469
989.856	0.0140675
989.934	0.0140803
990.012	0.0141579
990.090	0.0142023
990.168	0.0140770
990.246	0.0142498
990.325	0.0143166
990.403	0.0141240
990.481	0.0140969
990.559	0.0141792
990.637	0.0141830
990.715	0.0141455
990.793	0.0141078
990.871	0.0141010
990.950	0.0141198
991.028	0.0142918
991.106	0.0143240
991.184	0.0141676
991.262	0.0141941
991.340	0.0142495
991.418	0.0141959
991.496	0.0142864
991.575	0.0142247
991.653	0.0141629
991.731	0.0142363
991.809	0.0142504
991.887	0.0142045
991.965	0.0141362
992.043	0.0140909
992.121	0.0141994
992.200	0.0142543
992.278	0.0142455
992.356	0.0141132
992.434	0.0142762
992.512	0.0142783
992.590	0.0142371
992.668	0.0141743
992.746	0.0143024
992.825	0.0141302
992.903	0.0141305
992.981	0.0139934
993.059	0.0141868
993.137	0.0142560
993.215	0.0142506
993.293	0.0142972
993.371	0.0142902
993.450	0.0142542
993.528	0.0141428
993.606	0.0141376
993.684	0.0141084
993.762	0.0142754
993.840	0.0141956
993.918	0.0142345
993.996	0.0142924
994.075	0.0140839
994.153	0.0142368
994.231	0.0141380
994.309	0.0141653
994.387	0.0140184
994.465	0.0142081
994.543	0.0142014
994.621	0.0141208
994.700	0.0142051
994.778	0.0141824
994.856	0.0141283
994.934	0.0141928
995.012	0.0142518
995.090	0.0141832
995.168	0.0142577
995.246	0.0142308
995.325	0.0140948
995.403	0.0142089
995.481	0.0141737
995.559	0.0141460
995.637	0.0140710
995.715	0.0141090
995.793	0.0140544
995.871	0.0140368
995.950	0.0141261
996.028	0.0140718
996.106	0.0141795
996.184	0.0142911
996.262	0.0142579
996.340	0.0142317
996.418	0.0142410
996.496	0.0142333
996.575	0.0141592
996.653	0.0140506
996.731	0.0142043
996.809	0.0142680
996.887	0.0141469
996.965	0.0144274
997.043	0.0142421
997.121	0.0140755
997.200	0.0140408
997.278	0.0143358
997.356	0.0142680
997.434	0.0140948
997.512	0.0141134
997.590	0.0142312
997.668	0.0141675
997.746	0.0142442
997.825	0.0140997
997.903	0.0142259
997.981	0.0141416
998.059	0.0141459
998.137	0.0140974
998.215	0.0141832
998.293	0.0142867
998.371	0.0142529
998.450	0.0142046
998.528	0.0142119
998.606	0.0141264
998.684	0.0141675
998.762	0.0141405
998.840	0.0142229
998.918	0.0142618
