05/04/2022	21:05:02	Ver.	4.1	UNKNOWN
Optical Delay	678.996401	Delta X		0.078125	Sweeps	1	Scan Rate	0/0
Coordinates	Axis 1	NaN	Axis 2	NaN	Axis 3	NaN	Axis 4	NaN	Axis 5	NaN	Axis 6	0.000000
TX Power	0.000000	RX Power	0.000000

678.996	0.0146304
679.075	0.0146146
679.153	0.0145634
679.231	0.0146970
679.309	0.0145810
679.387	0.0145559
679.465	0.0147292
679.543	0.0145906
679.621	0.0145168
679.700	0.0146630
679.778	0.0146797
679.856	0.0145909
679.934	0.0146400
680.012	0.0147964
680.090	0.0146654
680.168	0.0146214
680.246	0.0145711
680.325	0.0146346
680.403	0.0146184
680.481	0.0145465
680.559	0.0147240
680.637	0.0146525
680.715	0.0145886
680.793	0.0145927
680.871	0.0146952
680.950	0.0146370
681.028	0.0145699
681.106	0.0146984
681.184	0.0145945
681.262	0.0145480
681.340	0.0145998
681.418	0.0145637
681.496	0.0146362
681.575	0.0146949
681.653	0.0145200
681.731	0.0146524
681.809	0.0145778
681.887	0.0146449
681.965	0.0146317
682.043	0.0146434
682.121	0.0146009
682.200	0.0147080
682.278	0.0146513
682.356	0.0144720
682.434	0.0146421
682.512	0.0146378
682.590	0.0146323
682.668	0.0147630
682.746	0.0145768
682.825	0.0146972
682.903	0.0145090
682.981	0.0145645
683.059	0.0145895
683.137	0.0145733
683.215	0.0146538
683.293	0.0145390
683.371	0.0146042
683.450	0.0145608
683.528	0.0146930
683.606	0.0145248
683.684	0.0145905
683.762	0.0145805
683.840	0.0145298
683.918	0.0145844
683.996	0.0146430
684.075	0.0145543
684.153	0.0147363
684.231	0.0146026
684.309	0.0145322
684.387	0.0145653
684.465	0.0148112
684.543	0.0145537
684.621	0.0144981
684.700	0.0145931
684.778	0.0147240
684.856	0.0146214
684.934	0.0147128
685.012	0.0147379
685.090	0.0145712
685.168	0.0145891
685.246	0.0146288
685.325	0.0145756
685.403	0.0145290
685.481	0.0145860
685.559	0.0145287
685.637	0.0147277
685.715	0.0147502
685.793	0.0146155
685.871	0.0146162
685.950	0.0145077
686.028	0.0144839
686.106	0.0145952
686.184	0.0145783
686.262	0.0146796
686.340	0.0147331
686.418	0.0147701
686.496	0.0146384
686.575	0.0145988
686.653	0.0146349
686.731	0.0145712
686.809	0.0147810
686.887	0.0149014
686.965	0.0146087
687.043	0.0146651
687.121	0.0147264
687.200	0.0146727
687.278	0.0145964
687.356	0.0147547
687.434	0.0145245
687.512	0.0145149
687.590	0.0146867
687.668	0.0146397
687.746	0.0144786
687.825	0.0145866
687.903	0.0146418
687.981	0.0145359
688.059	0.0146554
688.137	0.0147150
688.215	0.0146204
688.293	0.0144830
688.371	0.0145763
688.450	0.0146053
688.528	0.0146870
688.606	0.0146674
688.684	0.0145493
688.762	0.0145387
688.840	0.0145868
688.918	0.0146118
688.996	0.0146025
689.075	0.0146423
689.153	0.0145014
689.231	0.0146140
689.309	0.0146755
689.387	0.0146442
689.465	0.0146738
689.543	0.0145339
689.621	0.0144792
689.700	0.0145976
689.778	0.0145956
689.856	0.0145309
689.934	0.0145847
690.012	0.0146748
690.090	0.0145520
690.168	0.0146057
690.246	0.0146423
690.325	0.0147107
690.403	0.0146494
690.481	0.0146586
690.559	0.0145608
690.637	0.0145092
690.715	0.0146523
690.793	0.0144996
690.871	0.0144778
690.950	0.0144836
691.028	0.0146649
691.106	0.0146136
691.184	0.0146087
691.262	0.0145212
691.340	0.0146450
691.418	0.0145889
691.496	0.0145132
691.575	0.0146992
691.653	0.0145919
691.731	0.0143994
691.809	0.0145733
691.887	0.0146218
691.965	0.0146607
692.043	0.0145953
692.121	0.0145071
692.200	0.0146452
692.278	0.0146214
692.356	0.0146436
692.434	0.0145492
692.512	0.0145712
692.590	0.0145025
692.668	0.0145827
692.746	0.0146123
692.825	0.0146017
692.903	0.0144833
692.981	0.0147328
693.059	0.0144370
693.137	0.0145739
693.215	0.0146528
693.293	0.0145360
693.371	0.0146458
693.450	0.0146013
693.528	0.0145510
693.606	0.0145730
693.684	0.0146272
693.762	0.0146100
693.840	0.0145877
693.918	0.0145575
693.996	0.0146083
694.075	0.0145236
694.153	0.0146249
694.231	0.0146318
694.309	0.0146189
694.387	0.0145312
694.465	0.0146157
694.543	0.0146306
694.621	0.0144645
694.700	0.0145528
694.778	0.0146792
694.856	0.0146127
694.934	0.0144832
695.012	0.0146267
695.090	0.0146566
695.168	0.0144905
695.246	0.0146825
695.325	0.0145395
695.403	0.0146084
695.481	0.0146011
695.559	0.0146381
695.637	0.0146529
695.715	0.0146927
695.793	0.0146833
695.871	0.0144841
695.950	0.0145995
696.028	0.0145242
696.106	0.0145346
696.184	0.0145626
696.262	0.0146085
696.340	0.0146477
696.418	0.0144903
696.496	0.0144942
696.575	0.0146965
696.653	0.0146759
696.731	0.0145156
696.809	0.0144924
696.887	0.0145884
696.965	0.0147834
697.043	0.0147453
697.121	0.0144842
697.200	0.0145836
697.278	0.0145584
697.356	0.0146228
697.434	0.0146630
697.512	0.0146645
697.590	0.0145908
697.668	0.0146224
697.746	0.0145391
697.825	0.0146280
697.903	0.0147359
697.981	0.0146240
698.059	0.0145522
698.137	0.0145567
698.215	0.0146574
698.293	0.0145278
698.371	0.0145581
698.450	0.0145111
698.528	0.0145320
698.606	0.0144641
698.684	0.0146385
698.762	0.0146465
698.840	0.0145660
698.918	0.0146145
698.996	0.0145164
699.075	0.0146576
699.153	0.0144969
699.231	0.0145103
699.309	0.0146077
699.387	0.0146824
699.465	0.0145509
699.543	0.0145720
699.621	0.0144996
699.700	0.0146022
699.778	0.0146079
699.856	0.0145287
699.934	0.0146573
700.012	0.0147385
700.090	0.0147176
700.168	0.0145796
700.246	0.0145724
700.325	0.0144796
700.403	0.0146503
700.481	0.0146456
700.559	0.0146236
700.637	0.0146343
700.715	0.0145176
700.793	0.0146355
700.871	0.0144769
700.950	0.0145923
701.028	0.0145351
701.106	0.0145770
701.184	0.0146597
701.262	0.0144944
701.340	0.0146024
701.418	0.0145339
701.496	0.0146336
701.575	0.0146362
701.653	0.0145720
701.731	0.0145497
701.809	0.0145588
701.887	0.0145766
701.965	0.0145599
702.043	0.0146951
702.121	0.0146639
702.200	0.0146934
702.278	0.0147801
702.356	0.0147124
702.434	0.0145555
702.512	0.0146931
702.590	0.0147534
702.668	0.0146812
702.746	0.0148349
702.825	0.0146885
702.903	0.0147961
702.981	0.0147419
703.059	0.0147353
703.137	0.0147654
703.215	0.0145391
703.293	0.0146403
703.371	0.0146449
703.450	0.0147401
703.528	0.0145165
703.606	0.0145158
703.684	0.0148766
703.762	0.0147787
703.840	0.0146886
703.918	0.0147572
703.996	0.0147349
704.075	0.0147078
704.153	0.0145750
704.231	0.0147093
704.309	0.0145028
704.387	0.0144694
704.465	0.0144204
704.543	0.0144891
704.621	0.0144647
704.700	0.0145175
704.778	0.0143671
704.856	0.0143341
704.934	0.0143771
705.012	0.0144741
705.090	0.0145369
705.168	0.0145556
705.246	0.0145826
705.325	0.0147729
705.403	0.0148019
705.481	0.0147905
705.559	0.0151481
705.637	0.0151347
705.715	0.0153432
705.793	0.0153970
705.871	0.0155634
705.950	0.0154649
706.028	0.0153588
706.106	0.0151015
706.184	0.0148051
706.262	0.0144601
706.340	0.0141319
706.418	0.0139306
706.496	0.0136108
706.575	0.0133765
706.653	0.0132531
706.731	0.0133760
706.809	0.0135126
706.887	0.0133978
706.965	0.0136985
707.043	0.0140176
707.121	0.0142907
707.200	0.0141504
707.278	0.0145156
707.356	0.0149767
707.434	0.0148817
707.512	0.0151697
707.590	0.0154551
707.668	0.0158007
707.746	0.0159824
707.825	0.0160233
707.903	0.0162902
707.981	0.0164520
708.059	0.0164128
708.137	0.0162483
708.215	0.0160527
708.293	0.0155923
708.371	0.0150945
708.450	0.0145618
708.528	0.0138945
708.606	0.0136520
708.684	0.0133420
708.762	0.0131146
708.840	0.0131867
708.918	0.0131541
708.996	0.0130753
709.075	0.0131381
709.153	0.0131315
709.231	0.0129118
709.309	0.0129315
709.387	0.0127547
709.465	0.0128862
709.543	0.0131788
709.621	0.0138349
709.700	0.0143465
709.778	0.0148202
709.856	0.0154766
709.934	0.0159962
710.012	0.0165038
710.090	0.0168579
710.168	0.0170889
710.246	0.0172459
710.325	0.0173172
710.403	0.0171435
710.481	0.0170708
710.559	0.0168128
710.637	0.0165582
710.715	0.0158714
710.793	0.0152455
710.871	0.0146712
710.950	0.0140720
711.028	0.0133280
711.106	0.0130589
711.184	0.0123837
711.262	0.0121043
711.340	0.0116865
711.418	0.0115910
711.496	0.0114591
711.575	0.0113638
711.653	0.0114759
711.731	0.0119363
711.809	0.0125049
711.887	0.0132449
711.965	0.0142065
712.043	0.0150372
712.121	0.0160654
712.200	0.0168446
712.278	0.0171211
712.356	0.0176601
712.434	0.0176206
712.512	0.0177198
712.590	0.0175988
712.668	0.0173140
712.746	0.0170031
712.825	0.0168076
712.903	0.0165742
712.981	0.0161591
713.059	0.0157437
713.137	0.0151630
713.215	0.0146238
713.293	0.0140285
713.371	0.0135823
713.450	0.0130140
713.528	0.0128006
713.606	0.0125604
713.684	0.0123773
713.762	0.0124179
713.840	0.0123222
713.918	0.0122089
713.996	0.0121938
714.075	0.0124748
714.153	0.0127425
714.231	0.0131725
714.309	0.0135282
714.387	0.0139631
714.465	0.0145754
714.543	0.0148622
714.621	0.0154578
714.700	0.0156483
714.778	0.0159584
714.856	0.0161333
714.934	0.0162444
715.012	0.0165218
715.090	0.0165112
715.168	0.0166772
715.246	0.0166131
715.325	0.0163914
715.403	0.0161912
715.481	0.0159657
715.559	0.0154846
715.637	0.0149652
715.715	0.0147086
715.793	0.0143365
715.871	0.0141815
715.950	0.0138612
716.028	0.0137746
716.106	0.0138654
716.184	0.0137690
716.262	0.0137916
716.340	0.0137598
716.418	0.0137122
716.496	0.0136739
716.575	0.0137731
716.653	0.0134946
716.731	0.0135738
716.809	0.0136173
716.887	0.0134385
716.965	0.0135122
717.043	0.0135458
717.121	0.0137692
717.200	0.0141599
717.278	0.0144821
717.356	0.0148418
717.434	0.0153734
717.512	0.0156343
717.590	0.0158425
717.668	0.0161070
717.746	0.0159798
717.825	0.0160434
717.903	0.0160129
717.981	0.0157597
718.059	0.0155913
718.137	0.0153915
718.215	0.0150575
718.293	0.0149117
718.371	0.0149314
718.450	0.0145162
718.528	0.0145702
718.606	0.0143414
718.684	0.0141677
718.762	0.0141192
718.840	0.0138352
718.918	0.0137006
718.996	0.0133945
719.075	0.0133526
719.153	0.0133815
719.231	0.0132786
719.309	0.0131703
719.387	0.0134532
719.465	0.0135808
719.543	0.0137196
719.621	0.0141597
719.700	0.0143346
719.778	0.0148048
719.856	0.0151986
719.934	0.0154227
720.012	0.0155408
720.090	0.0158802
720.168	0.0162083
720.246	0.0162315
720.325	0.0162355
720.403	0.0159149
720.481	0.0159050
720.559	0.0155851
720.637	0.0153025
720.715	0.0150180
720.793	0.0147521
720.871	0.0142564
720.950	0.0139547
721.028	0.0135173
721.106	0.0133855
721.184	0.0131570
721.262	0.0130527
721.340	0.0130276
721.418	0.0130260
721.496	0.0130219
721.575	0.0132221
721.653	0.0132262
721.731	0.0134962
721.809	0.0136607
721.887	0.0139537
721.965	0.0142968
722.043	0.0147441
722.121	0.0151984
722.200	0.0154532
722.278	0.0156897
722.356	0.0159518
722.434	0.0159715
722.512	0.0161586
722.590	0.0161222
722.668	0.0161510
722.746	0.0160493
722.825	0.0160897
722.903	0.0159167
722.981	0.0155917
723.059	0.0152870
723.137	0.0150866
723.215	0.0146768
723.293	0.0144104
723.371	0.0140971
723.450	0.0137373
723.528	0.0135222
723.606	0.0132726
723.684	0.0131111
723.762	0.0128394
723.840	0.0128523
723.918	0.0130247
723.996	0.0132323
724.075	0.0134869
724.153	0.0137922
724.231	0.0140310
724.309	0.0143840
724.387	0.0150666
724.465	0.0152807
724.543	0.0155475
724.621	0.0158092
724.700	0.0162057
724.778	0.0162930
724.856	0.0162566
724.934	0.0161276
725.012	0.0158764
725.090	0.0155901
725.168	0.0152965
725.246	0.0147796
725.325	0.0144306
725.403	0.0139789
725.481	0.0136284
725.559	0.0132769
725.637	0.0131145
725.715	0.0130614
725.793	0.0130231
725.871	0.0132674
725.950	0.0134492
726.028	0.0136633
726.106	0.0138780
726.184	0.0143848
726.262	0.0145937
726.340	0.0148509
726.418	0.0152134
726.496	0.0154681
726.575	0.0156256
726.653	0.0157938
726.731	0.0158429
726.809	0.0160210
726.887	0.0159658
726.965	0.0159264
727.043	0.0159818
727.121	0.0159506
727.200	0.0158397
727.278	0.0155912
727.356	0.0153835
727.434	0.0151247
727.512	0.0148738
727.590	0.0145578
727.668	0.0141304
727.746	0.0136864
727.825	0.0134800
727.903	0.0130132
727.981	0.0128001
728.059	0.0125536
728.137	0.0122882
728.215	0.0124770
728.293	0.0124664
728.371	0.0124615
728.450	0.0127343
728.528	0.0131046
728.606	0.0135968
728.684	0.0141679
728.762	0.0147148
728.840	0.0152805
728.918	0.0157962
728.996	0.0163198
729.075	0.0167149
729.153	0.0171368
729.231	0.0173174
729.309	0.0172534
729.387	0.0170039
729.465	0.0169845
729.543	0.0166785
729.621	0.0161863
729.700	0.0156676
729.778	0.0153398
729.856	0.0148949
729.934	0.0143289
730.012	0.0139802
730.090	0.0136429
730.168	0.0132780
730.246	0.0130067
730.325	0.0127688
730.403	0.0126705
730.481	0.0128419
730.559	0.0130009
730.637	0.0130569
730.715	0.0134113
730.793	0.0135603
730.871	0.0137831
730.950	0.0141433
731.028	0.0145112
731.106	0.0145110
731.184	0.0147694
731.262	0.0152181
731.340	0.0155989
731.418	0.0157465
731.496	0.0159329
731.575	0.0160561
731.653	0.0159361
731.731	0.0161002
731.809	0.0161782
731.887	0.0159474
731.965	0.0157556
732.043	0.0155810
732.121	0.0154687
732.200	0.0152539
732.278	0.0148900
732.356	0.0146095
732.434	0.0143266
732.512	0.0140712
732.590	0.0138139
732.668	0.0137547
732.746	0.0133880
732.825	0.0132126
732.903	0.0131642
732.981	0.0132238
733.059	0.0131722
733.137	0.0131969
733.215	0.0133133
733.293	0.0137511
733.371	0.0139247
733.450	0.0142780
733.528	0.0145494
733.606	0.0149229
733.684	0.0152629
733.762	0.0156224
733.840	0.0158893
733.918	0.0160459
733.996	0.0161306
734.075	0.0161123
734.153	0.0161313
734.231	0.0160098
734.309	0.0158616
734.387	0.0156875
734.465	0.0152653
734.543	0.0150697
734.621	0.0149362
734.700	0.0145998
734.778	0.0142430
734.856	0.0141334
734.934	0.0139024
735.012	0.0137743
735.090	0.0135208
735.168	0.0135332
735.246	0.0135661
735.325	0.0134653
735.403	0.0135844
735.481	0.0136517
735.559	0.0137035
735.637	0.0137182
735.715	0.0139333
735.793	0.0140881
735.871	0.0141090
735.950	0.0142616
736.028	0.0145650
736.106	0.0148190
736.184	0.0149767
736.262	0.0151418
736.340	0.0152942
736.418	0.0154533
736.496	0.0154904
736.575	0.0156224
736.653	0.0158423
736.731	0.0156949
736.809	0.0158674
736.887	0.0157068
736.965	0.0155663
737.043	0.0153676
737.121	0.0151353
737.200	0.0148292
737.278	0.0144795
737.356	0.0141613
737.434	0.0138872
737.512	0.0136680
737.590	0.0133683
737.668	0.0133265
737.746	0.0132014
737.825	0.0132510
737.903	0.0133550
737.981	0.0133920
738.059	0.0135761
738.137	0.0138631
738.215	0.0141346
738.293	0.0145213
738.371	0.0148233
738.450	0.0148897
738.528	0.0152801
738.606	0.0155890
738.684	0.0157263
738.762	0.0158585
738.840	0.0159677
738.918	0.0158949
738.996	0.0159052
739.075	0.0158682
739.153	0.0156262
739.231	0.0154299
739.309	0.0151748
739.387	0.0150340
739.465	0.0147766
739.543	0.0144077
739.621	0.0142999
739.700	0.0140036
739.778	0.0137378
739.856	0.0135130
739.934	0.0134879
740.012	0.0133843
740.090	0.0134801
740.168	0.0133961
740.246	0.0133803
740.325	0.0135506
740.403	0.0136649
740.481	0.0137061
740.559	0.0140043
740.637	0.0142277
740.715	0.0144614
740.793	0.0147761
740.871	0.0148895
740.950	0.0151262
741.028	0.0154037
741.106	0.0157802
741.184	0.0158921
741.262	0.0158699
741.340	0.0160354
741.418	0.0159312
741.496	0.0159490
741.575	0.0158751
741.653	0.0156641
741.731	0.0156543
741.809	0.0154556
741.887	0.0150636
741.965	0.0149976
742.043	0.0146132
742.121	0.0143073
742.200	0.0140833
742.278	0.0138096
742.356	0.0135709
742.434	0.0134070
742.512	0.0132694
742.590	0.0131927
742.668	0.0131773
742.746	0.0131364
742.825	0.0133603
742.903	0.0133422
742.981	0.0136337
743.059	0.0137936
743.137	0.0140491
743.215	0.0143285
743.293	0.0146658
743.371	0.0150381
743.450	0.0152083
743.528	0.0153336
743.606	0.0155218
743.684	0.0157097
743.762	0.0157645
743.840	0.0158102
743.918	0.0158279
743.996	0.0159457
744.075	0.0156933
744.153	0.0155434
744.231	0.0156134
744.309	0.0152795
744.387	0.0149583
744.465	0.0147754
744.543	0.0144617
744.621	0.0143526
744.700	0.0141296
744.778	0.0139030
744.856	0.0139060
744.934	0.0136298
745.012	0.0136176
745.090	0.0134167
745.168	0.0134441
745.246	0.0134795
745.325	0.0135197
745.403	0.0135720
745.481	0.0137993
745.559	0.0139940
745.637	0.0140035
745.715	0.0143986
745.793	0.0145038
745.871	0.0148727
745.950	0.0150724
746.028	0.0153024
746.106	0.0154123
746.184	0.0154283
746.262	0.0156133
746.340	0.0157853
746.418	0.0156539
746.496	0.0156639
746.575	0.0156182
746.653	0.0156593
746.731	0.0154870
746.809	0.0153408
746.887	0.0152528
746.965	0.0150797
747.043	0.0146597
747.121	0.0145518
747.200	0.0143799
747.278	0.0141202
747.356	0.0139932
747.434	0.0139933
747.512	0.0138924
747.590	0.0136977
747.668	0.0136486
747.746	0.0137450
747.825	0.0136711
747.903	0.0137849
747.981	0.0138570
748.059	0.0141833
748.137	0.0141920
748.215	0.0143550
748.293	0.0146616
748.371	0.0147634
748.450	0.0148521
748.528	0.0149928
748.606	0.0151707
748.684	0.0153056
748.762	0.0152705
748.840	0.0152068
748.918	0.0153825
748.996	0.0153748
749.075	0.0153606
749.153	0.0153188
749.231	0.0152463
749.309	0.0150121
749.387	0.0150674
749.465	0.0148472
749.543	0.0146149
749.621	0.0144557
749.700	0.0142326
749.778	0.0142192
749.856	0.0139798
749.934	0.0137416
750.012	0.0139494
750.090	0.0138065
750.168	0.0138458
750.246	0.0138157
750.325	0.0138606
750.403	0.0139708
750.481	0.0140490
750.559	0.0141862
750.637	0.0144946
750.715	0.0146803
750.793	0.0147023
750.871	0.0149415
750.950	0.0149694
751.028	0.0149635
751.106	0.0151955
751.184	0.0152847
751.262	0.0152924
751.340	0.0154770
751.418	0.0154105
751.496	0.0156147
751.575	0.0153792
751.653	0.0152556
751.731	0.0152437
751.809	0.0150538
751.887	0.0150279
751.965	0.0149053
752.043	0.0147253
752.121	0.0145023
752.200	0.0144789
752.278	0.0143284
752.356	0.0142671
752.434	0.0140168
752.512	0.0140147
752.590	0.0139484
752.668	0.0139160
752.746	0.0138992
752.825	0.0139436
752.903	0.0140383
752.981	0.0141400
753.059	0.0140903
753.137	0.0142695
753.215	0.0144822
753.293	0.0146178
753.371	0.0146870
753.450	0.0146998
753.528	0.0149889
753.606	0.0149260
753.684	0.0150760
753.762	0.0151659
753.840	0.0152187
753.918	0.0153319
753.996	0.0152594
754.075	0.0151339
754.153	0.0151781
754.231	0.0151737
754.309	0.0149597
754.387	0.0149559
754.465	0.0148032
754.543	0.0147491
754.621	0.0147039
754.700	0.0145287
754.778	0.0143202
754.856	0.0142162
754.934	0.0141467
755.012	0.0141990
755.090	0.0139861
755.168	0.0141222
755.246	0.0140105
755.325	0.0141205
755.403	0.0140259
755.481	0.0140411
755.559	0.0142026
755.637	0.0142554
755.715	0.0144716
755.793	0.0146505
755.871	0.0146690
755.950	0.0147329
756.028	0.0149310
756.106	0.0150233
756.184	0.0150247
756.262	0.0150852
756.340	0.0151463
756.418	0.0151186
756.496	0.0149866
756.575	0.0151778
756.653	0.0150375
756.731	0.0149637
756.809	0.0149905
756.887	0.0147746
756.965	0.0146156
757.043	0.0145850
757.121	0.0144267
757.200	0.0144427
757.278	0.0142880
757.356	0.0143100
757.434	0.0141801
757.512	0.0140697
757.590	0.0141057
757.668	0.0140926
757.746	0.0140322
757.825	0.0139761
757.903	0.0141788
757.981	0.0142142
758.059	0.0142993
758.137	0.0145007
758.215	0.0144753
758.293	0.0146318
758.371	0.0145921
758.450	0.0146369
758.528	0.0148160
758.606	0.0149286
758.684	0.0148572
758.762	0.0149885
758.840	0.0150121
758.918	0.0149973
758.996	0.0150529
759.075	0.0150382
759.153	0.0149960
759.231	0.0149467
759.309	0.0148344
759.387	0.0148683
759.465	0.0147948
759.543	0.0146880
759.621	0.0148047
759.700	0.0146546
759.778	0.0144740
759.856	0.0144681
759.934	0.0143496
760.012	0.0144069
760.090	0.0143372
760.168	0.0142946
760.246	0.0141883
760.325	0.0143427
760.403	0.0142708
760.481	0.0142560
760.559	0.0143223
760.637	0.0143295
760.715	0.0143523
760.793	0.0144596
760.871	0.0146524
760.950	0.0146024
761.028	0.0147361
761.106	0.0149451
761.184	0.0148509
761.262	0.0149744
761.340	0.0150057
761.418	0.0150642
761.496	0.0151072
761.575	0.0149070
761.653	0.0148365
761.731	0.0148373
761.809	0.0148547
761.887	0.0146832
761.965	0.0146570
762.043	0.0146512
762.121	0.0145654
762.200	0.0145701
762.278	0.0143983
762.356	0.0144541
762.434	0.0144019
762.512	0.0144375
762.590	0.0143772
762.668	0.0143108
762.746	0.0141434
762.825	0.0141349
762.903	0.0143520
762.981	0.0143155
763.059	0.0143716
763.137	0.0142733
763.215	0.0146393
763.293	0.0144695
763.371	0.0144833
763.450	0.0146260
763.528	0.0146064
763.606	0.0146951
763.684	0.0146912
763.762	0.0149029
763.840	0.0149282
763.918	0.0147543
763.996	0.0148528
764.075	0.0149303
764.153	0.0149083
764.231	0.0149931
764.309	0.0148763
764.387	0.0147671
764.465	0.0148514
764.543	0.0148037
764.621	0.0147491
764.700	0.0146659
764.778	0.0146010
764.856	0.0147630
764.934	0.0145547
765.012	0.0144553
765.090	0.0143577
765.168	0.0144297
765.246	0.0143195
765.325	0.0144272
765.403	0.0142717
765.481	0.0141843
765.559	0.0143710
765.637	0.0143103
765.715	0.0143298
765.793	0.0144827
765.871	0.0143711
765.950	0.0145403
766.028	0.0146332
766.106	0.0146637
766.184	0.0148258
766.262	0.0149267
766.340	0.0149931
766.418	0.0149112
766.496	0.0149385
766.575	0.0149760
766.653	0.0148764
766.731	0.0148155
766.809	0.0149304
766.887	0.0149352
766.965	0.0148436
767.043	0.0148737
767.121	0.0147557
767.200	0.0147497
767.278	0.0145760
767.356	0.0145892
767.434	0.0144833
767.512	0.0144894
767.590	0.0143461
767.668	0.0143922
767.746	0.0142844
767.825	0.0144476
767.903	0.0143360
767.981	0.0144404
768.059	0.0142999
768.137	0.0142109
768.215	0.0144751
768.293	0.0144844
768.371	0.0144798
768.450	0.0143801
768.528	0.0144112
768.606	0.0145130
768.684	0.0145518
768.762	0.0147557
768.840	0.0145615
768.918	0.0148096
768.996	0.0148157
769.075	0.0147466
769.153	0.0148289
769.231	0.0149102
769.309	0.0149081
769.387	0.0148272
769.465	0.0148804
769.543	0.0148948
769.621	0.0150226
769.700	0.0145978
769.778	0.0147226
769.856	0.0146684
769.934	0.0146620
770.012	0.0144827
770.090	0.0146291
770.168	0.0144327
770.246	0.0144279
770.325	0.0142844
770.403	0.0143874
770.481	0.0144464
770.559	0.0143881
770.637	0.0143141
770.715	0.0143362
770.793	0.0143336
770.871	0.0144237
770.950	0.0144118
771.028	0.0142138
771.106	0.0144811
771.184	0.0146618
771.262	0.0145555
771.340	0.0145708
771.418	0.0147197
771.496	0.0147401
771.575	0.0146318
771.653	0.0147132
771.731	0.0147465
771.809	0.0147544
771.887	0.0148048
771.965	0.0147778
772.043	0.0148084
772.121	0.0147672
772.200	0.0147131
772.278	0.0147459
772.356	0.0146613
772.434	0.0146854
772.512	0.0146721
772.590	0.0145442
772.668	0.0145605
772.746	0.0146980
772.825	0.0145911
772.903	0.0143330
772.981	0.0144530
773.059	0.0145561
773.137	0.0145995
773.215	0.0144437
773.293	0.0144778
773.371	0.0145810
773.450	0.0144517
773.528	0.0145271
773.606	0.0143658
773.684	0.0146086
773.762	0.0147050
773.840	0.0146584
773.918	0.0146270
773.996	0.0146741
774.075	0.0147645
774.153	0.0147065
774.231	0.0147352
774.309	0.0148052
774.387	0.0147340
774.465	0.0147943
774.543	0.0147743
774.621	0.0147798
774.700	0.0146761
774.778	0.0147456
774.856	0.0147031
774.934	0.0146503
775.012	0.0145998
775.090	0.0147793
775.168	0.0146398
775.246	0.0145045
775.325	0.0146812
775.403	0.0146828
775.481	0.0145959
775.559	0.0144289
775.637	0.0145325
775.715	0.0145860
775.793	0.0143809
775.871	0.0145715
775.950	0.0146067
776.028	0.0147007
776.106	0.0145955
776.184	0.0146650
776.262	0.0146104
776.340	0.0146634
776.418	0.0146356
776.496	0.0145724
776.575	0.0147446
776.653	0.0146767
776.731	0.0148051
776.809	0.0147478
776.887	0.0147476
776.965	0.0146798
777.043	0.0147022
777.121	0.0147320
777.200	0.0147211
777.278	0.0147188
777.356	0.0145923
777.434	0.0146243
777.512	0.0146427
777.590	0.0146844
777.668	0.0146390
777.746	0.0144287
777.825	0.0145891
777.903	0.0145557
777.981	0.0144684
778.059	0.0144820
778.137	0.0144124
778.215	0.0145905
778.293	0.0144689
778.371	0.0145588
778.450	0.0146661
778.528	0.0144095
778.606	0.0144049
778.684	0.0146196
778.762	0.0148022
778.840	0.0145271
778.918	0.0145612
778.996	0.0145924
779.075	0.0147099
779.153	0.0146954
779.231	0.0146891
779.309	0.0146798
779.387	0.0146143
779.465	0.0148712
779.543	0.0148012
779.621	0.0149130
779.700	0.0148251
779.778	0.0147787
779.856	0.0147730
779.934	0.0148208
780.012	0.0146352
780.090	0.0145927
780.168	0.0145226
780.246	0.0146540
780.325	0.0146420
780.403	0.0145821
780.481	0.0144453
780.559	0.0144612
780.637	0.0146171
780.715	0.0145892
780.793	0.0143809
780.871	0.0145190
780.950	0.0145026
781.028	0.0144907
781.106	0.0144807
781.184	0.0144631
781.262	0.0145165
781.340	0.0144643
781.418	0.0145343
781.496	0.0144537
781.575	0.0146032
781.653	0.0146233
781.731	0.0146277
781.809	0.0146175
781.887	0.0146239
781.965	0.0146259
782.043	0.0147761
782.121	0.0147391
782.200	0.0147561
782.278	0.0145303
782.356	0.0146804
782.434	0.0145249
782.512	0.0145879
782.590	0.0147128
782.668	0.0146354
782.746	0.0145733
782.825	0.0145521
782.903	0.0145711
782.981	0.0145561
783.059	0.0145289
783.137	0.0145162
783.215	0.0144595
783.293	0.0145263
783.371	0.0145036
783.450	0.0144877
783.528	0.0145963
783.606	0.0144978
783.684	0.0145769
783.762	0.0146198
783.840	0.0145453
783.918	0.0145270
783.996	0.0146439
784.075	0.0146509
784.153	0.0146097
784.231	0.0147321
784.309	0.0147739
784.387	0.0148380
784.465	0.0147203
784.543	0.0148975
784.621	0.0146347
784.700	0.0146479
784.778	0.0147157
784.856	0.0147510
784.934	0.0146751
785.012	0.0147311
785.090	0.0146803
785.168	0.0146413
785.246	0.0144873
785.325	0.0146855
785.403	0.0145679
785.481	0.0145717
785.559	0.0145239
785.637	0.0145158
785.715	0.0145298
785.793	0.0145354
785.871	0.0145659
785.950	0.0145454
786.028	0.0145325
786.106	0.0146167
786.184	0.0145102
786.262	0.0145227
786.340	0.0145851
786.418	0.0145758
786.496	0.0147478
786.575	0.0146532
786.653	0.0145958
786.731	0.0146577
786.809	0.0147604
786.887	0.0146822
786.965	0.0147378
787.043	0.0147305
787.121	0.0146518
787.200	0.0146947
787.278	0.0147847
787.356	0.0146915
787.434	0.0146729
787.512	0.0146192
787.590	0.0146489
787.668	0.0145732
787.746	0.0145261
787.825	0.0145719
787.903	0.0146251
787.981	0.0144898
788.059	0.0145390
788.137	0.0145068
788.215	0.0144370
788.293	0.0143093
788.371	0.0144789
788.450	0.0145151
788.528	0.0145114
788.606	0.0145232
788.684	0.0144311
788.762	0.0146796
788.840	0.0145612
788.918	0.0145667
788.996	0.0147174
789.075	0.0147237
789.153	0.0146973
789.231	0.0145970
789.309	0.0147118
789.387	0.0147486
789.465	0.0147697
789.543	0.0147675
789.621	0.0145480
789.700	0.0147688
789.778	0.0147571
789.856	0.0148118
789.934	0.0146779
790.012	0.0147421
790.090	0.0145813
790.168	0.0146056
790.246	0.0146349
790.325	0.0145979
790.403	0.0145222
790.481	0.0145361
790.559	0.0146213
790.637	0.0145730
790.715	0.0145865
790.793	0.0145650
790.871	0.0144912
790.950	0.0146008
791.028	0.0146120
791.106	0.0145702
791.184	0.0146803
791.262	0.0146172
791.340	0.0145013
791.418	0.0145970
791.496	0.0146514
791.575	0.0146148
791.653	0.0146535
791.731	0.0146217
791.809	0.0144767
791.887	0.0145611
791.965	0.0146201
792.043	0.0147071
792.121	0.0146319
792.200	0.0145982
792.278	0.0146146
792.356	0.0149052
792.434	0.0145605
792.512	0.0147939
792.590	0.0147295
792.668	0.0146587
792.746	0.0148289
792.825	0.0146450
792.903	0.0145901
792.981	0.0146419
793.059	0.0148381
793.137	0.0145764
793.215	0.0147291
793.293	0.0147216
793.371	0.0145174
793.450	0.0145763
793.528	0.0143884
793.606	0.0145242
793.684	0.0146806
793.762	0.0145020
793.840	0.0145383
793.918	0.0144570
793.996	0.0145470
794.075	0.0146502
794.153	0.0145132
794.231	0.0144515
794.309	0.0146469
794.387	0.0146196
794.465	0.0145994
794.543	0.0146697
794.621	0.0146857
794.700	0.0147108
794.778	0.0147092
794.856	0.0146362
794.934	0.0145522
795.012	0.0147169
795.090	0.0146427
795.168	0.0146613
795.246	0.0146519
795.325	0.0145963
795.403	0.0146697
795.481	0.0146938
795.559	0.0148259
795.637	0.0146920
795.715	0.0145870
795.793	0.0146124
795.871	0.0146732
795.950	0.0145335
796.028	0.0147179
796.106	0.0146889
796.184	0.0146059
796.262	0.0144987
796.340	0.0145892
796.418	0.0146110
796.496	0.0146695
796.575	0.0144723
796.653	0.0147578
796.731	0.0147796
796.809	0.0146414
796.887	0.0145009
796.965	0.0145811
797.043	0.0147269
797.121	0.0146130
797.200	0.0146238
797.278	0.0146541
797.356	0.0146866
797.434	0.0146803
797.512	0.0147440
797.590	0.0146914
797.668	0.0147558
797.746	0.0147141
797.825	0.0145720
797.903	0.0146785
797.981	0.0147554
798.059	0.0147791
798.137	0.0147105
798.215	0.0146117
798.293	0.0146661
798.371	0.0147594
798.450	0.0146866
798.528	0.0146686
798.606	0.0144884
798.684	0.0146565
798.762	0.0147675
798.840	0.0146539
798.918	0.0148277
798.996	0.0146027
799.075	0.0145307
799.153	0.0146712
799.231	0.0145992
799.309	0.0146592
799.387	0.0146083
799.465	0.0146379
799.543	0.0145825
799.621	0.0147722
799.700	0.0146912
799.778	0.0145654
799.856	0.0145496
799.934	0.0145318
800.012	0.0146295
800.090	0.0147474
800.168	0.0146358
800.246	0.0145545
800.325	0.0145726
800.403	0.0146410
800.481	0.0146103
800.559	0.0146061
800.637	0.0146054
800.715	0.0146791
800.793	0.0146906
800.871	0.0147662
800.950	0.0147304
801.028	0.0146178
801.106	0.0147448
801.184	0.0147481
801.262	0.0145618
801.340	0.0147119
801.418	0.0147129
801.496	0.0147053
801.575	0.0145791
801.653	0.0145956
801.731	0.0147098
801.809	0.0147343
801.887	0.0145668
801.965	0.0145054
802.043	0.0146132
802.121	0.0145533
802.200	0.0145321
802.278	0.0146416
802.356	0.0145040
802.434	0.0146348
802.512	0.0146440
802.590	0.0144453
802.668	0.0144559
802.746	0.0145555
802.825	0.0146037
802.903	0.0144600
802.981	0.0144598
803.059	0.0145688
803.137	0.0145526
803.215	0.0145688
803.293	0.0146205
803.371	0.0146729
803.450	0.0147448
803.528	0.0147157
803.606	0.0147540
803.684	0.0149777
803.762	0.0148243
803.840	0.0148843
803.918	0.0148658
803.996	0.0149214
804.075	0.0148505
804.153	0.0146873
804.231	0.0146945
804.309	0.0147169
804.387	0.0145231
804.465	0.0145330
804.543	0.0146838
804.621	0.0147267
804.700	0.0146268
804.778	0.0145612
804.856	0.0146215
804.934	0.0144727
805.012	0.0145813
805.090	0.0144204
805.168	0.0145464
805.246	0.0145054
805.325	0.0146422
805.403	0.0144552
805.481	0.0143961
805.559	0.0144687
805.637	0.0145819
805.715	0.0144618
805.793	0.0144374
805.871	0.0144761
805.950	0.0145316
806.028	0.0147411
806.106	0.0146837
806.184	0.0147392
806.262	0.0146501
806.340	0.0146949
806.418	0.0148486
806.496	0.0147713
806.575	0.0147570
806.653	0.0145956
806.731	0.0146923
806.809	0.0146733
806.887	0.0147139
806.965	0.0145303
807.043	0.0145999
807.121	0.0146892
807.200	0.0145636
807.278	0.0144940
807.356	0.0146012
807.434	0.0144821
807.512	0.0144067
807.590	0.0145854
807.668	0.0145135
807.746	0.0143699
807.825	0.0144882
807.903	0.0144929
807.981	0.0145511
808.059	0.0145184
808.137	0.0143845
808.215	0.0145968
808.293	0.0147624
808.371	0.0146651
808.450	0.0148018
808.528	0.0147107
808.606	0.0145055
808.684	0.0147464
808.762	0.0147795
808.840	0.0147082
808.918	0.0148576
808.996	0.0147917
809.075	0.0147130
809.153	0.0145675
809.231	0.0146642
809.309	0.0146350
809.387	0.0146486
809.465	0.0146496
809.543	0.0146893
809.621	0.0147913
809.700	0.0145699
809.778	0.0145000
809.856	0.0145927
809.934	0.0146643
810.012	0.0144968
810.090	0.0144434
810.168	0.0146488
810.246	0.0146218
810.325	0.0144389
810.403	0.0144714
810.481	0.0144247
810.559	0.0146268
810.637	0.0144618
810.715	0.0144134
810.793	0.0146982
810.871	0.0144746
810.950	0.0145576
811.028	0.0147174
811.106	0.0146261
811.184	0.0147379
811.262	0.0145999
811.340	0.0146642
811.418	0.0147060
811.496	0.0148636
811.575	0.0148930
811.653	0.0147472
811.731	0.0147662
811.809	0.0147531
811.887	0.0146792
811.965	0.0146139
812.043	0.0146566
812.121	0.0144888
812.200	0.0145146
812.278	0.0144462
812.356	0.0144798
812.434	0.0144783
812.512	0.0144228
812.590	0.0144893
812.668	0.0144164
812.746	0.0144195
812.825	0.0145255
812.903	0.0146356
812.981	0.0145275
813.059	0.0145204
813.137	0.0144475
813.215	0.0144920
813.293	0.0146975
813.371	0.0147874
813.450	0.0147336
813.528	0.0148083
813.606	0.0146821
813.684	0.0147972
813.762	0.0148574
813.840	0.0147352
813.918	0.0146878
813.996	0.0146539
814.075	0.0146430
814.153	0.0146333
814.231	0.0147504
814.309	0.0146045
814.387	0.0146280
814.465	0.0146341
814.543	0.0145159
814.621	0.0146524
814.700	0.0145584
814.778	0.0144336
814.856	0.0144286
814.934	0.0144997
815.012	0.0145190
815.090	0.0145173
815.168	0.0145013
815.246	0.0145035
815.325	0.0145188
815.403	0.0145413
815.481	0.0145715
815.559	0.0145232
815.637	0.0145530
815.715	0.0146284
815.793	0.0146915
815.871	0.0147684
815.950	0.0147243
816.028	0.0147614
816.106	0.0147935
816.184	0.0147737
816.262	0.0146790
816.340	0.0147453
816.418	0.0147846
816.496	0.0146327
816.575	0.0146646
816.653	0.0147060
816.731	0.0145863
816.809	0.0146370
816.887	0.0145734
816.965	0.0146400
817.043	0.0145412
817.121	0.0145797
817.200	0.0143764
817.278	0.0144666
817.356	0.0144219
817.434	0.0145065
817.512	0.0144405
817.590	0.0143587
817.668	0.0145485
817.746	0.0144080
817.825	0.0145836
817.903	0.0145138
817.981	0.0146554
818.059	0.0146046
818.137	0.0145736
818.215	0.0146225
818.293	0.0147350
818.371	0.0146429
818.450	0.0147526
818.528	0.0147232
818.606	0.0146376
818.684	0.0147547
818.762	0.0148326
818.840	0.0148278
818.918	0.0146786
818.996	0.0145206
819.075	0.0146423
819.153	0.0148864
819.231	0.0148509
819.309	0.0148303
819.387	0.0147493
819.465	0.0145444
819.543	0.0146404
819.621	0.0146753
819.700	0.0146593
819.778	0.0145366
819.856	0.0146250
819.934	0.0144522
820.012	0.0145168
820.090	0.0145918
820.168	0.0146924
820.246	0.0146040
820.325	0.0146358
820.403	0.0145628
820.481	0.0145511
820.559	0.0145011
820.637	0.0146012
820.715	0.0146136
820.793	0.0146193
820.871	0.0146045
820.950	0.0146389
821.028	0.0146622
821.106	0.0146738
821.184	0.0148112
821.262	0.0147682
821.340	0.0147681
821.418	0.0147568
821.496	0.0146831
821.575	0.0146446
821.653	0.0146468
821.731	0.0146713
821.809	0.0144336
821.887	0.0146306
821.965	0.0146593
822.043	0.0147383
822.121	0.0147221
822.200	0.0145485
822.278	0.0146375
822.356	0.0147573
822.434	0.0146592
822.512	0.0147468
822.590	0.0147039
822.668	0.0147099
822.746	0.0147691
822.825	0.0146406
822.903	0.0146962
822.981	0.0146568
823.059	0.0146683
823.137	0.0146236
823.215	0.0146849
823.293	0.0147603
823.371	0.0146937
823.450	0.0147301
823.528	0.0146822
823.606	0.0146025
823.684	0.0147311
823.762	0.0146714
823.840	0.0146282
823.918	0.0146629
823.996	0.0146243
824.075	0.0146021
824.153	0.0146399
824.231	0.0146072
824.309	0.0145985
824.387	0.0146150
824.465	0.0147108
824.543	0.0145511
824.621	0.0144992
824.700	0.0145554
824.778	0.0146775
824.856	0.0146688
824.934	0.0146317
825.012	0.0145402
825.090	0.0145538
825.168	0.0146632
825.246	0.0146522
825.325	0.0147041
825.403	0.0145503
825.481	0.0144759
825.559	0.0146104
825.637	0.0147106
825.715	0.0146119
825.793	0.0145726
825.871	0.0146256
825.950	0.0146484
826.028	0.0144781
826.106	0.0145559
826.184	0.0147832
826.262	0.0147082
826.340	0.0146986
826.418	0.0146035
826.496	0.0146342
826.575	0.0146213
826.653	0.0147719
826.731	0.0146627
826.809	0.0146724
826.887	0.0147296
826.965	0.0147198
827.043	0.0147469
827.121	0.0149287
827.200	0.0147731
827.278	0.0147889
827.356	0.0146586
827.434	0.0146456
827.512	0.0147553
827.590	0.0147762
827.668	0.0146169
827.746	0.0147236
827.825	0.0145244
827.903	0.0147054
827.981	0.0146030
828.059	0.0144402
828.137	0.0146300
828.215	0.0145377
828.293	0.0144746
828.371	0.0144795
828.450	0.0146319
828.528	0.0146459
828.606	0.0145000
828.684	0.0147552
828.762	0.0145217
828.840	0.0147130
828.918	0.0146533
828.996	0.0146265
829.075	0.0145863
829.153	0.0145911
829.231	0.0147705
829.309	0.0145599
829.387	0.0147021
829.465	0.0146583
829.543	0.0144791
829.621	0.0147086
829.700	0.0147346
829.778	0.0146712
829.856	0.0146189
829.934	0.0145567
830.012	0.0145913
830.090	0.0146036
830.168	0.0145662
830.246	0.0148353
830.325	0.0145988
830.403	0.0146111
830.481	0.0145818
830.559	0.0146713
830.637	0.0147782
830.715	0.0146301
830.793	0.0146329
830.871	0.0146864
830.950	0.0145391
831.028	0.0147466
831.106	0.0147164
831.184	0.0147086
831.262	0.0146603
831.340	0.0146612
831.418	0.0147720
831.496	0.0146738
831.575	0.0146883
831.653	0.0147810
831.731	0.0146987
831.809	0.0146699
831.887	0.0147200
831.965	0.0148449
832.043	0.0146296
832.121	0.0146458
832.200	0.0145466
832.278	0.0145085
832.356	0.0146282
832.434	0.0145655
832.512	0.0145971
832.590	0.0146618
832.668	0.0146861
832.746	0.0147974
832.825	0.0146933
832.903	0.0147278
832.981	0.0147680
833.059	0.0147373
833.137	0.0145837
833.215	0.0145994
833.293	0.0147499
833.371	0.0145937
833.450	0.0145812
833.528	0.0145434
833.606	0.0147038
833.684	0.0146440
833.762	0.0147042
833.840	0.0147627
833.918	0.0146851
833.996	0.0146516
834.075	0.0147075
834.153	0.0146797
834.231	0.0146273
834.309	0.0148286
834.387	0.0146491
834.465	0.0146111
834.543	0.0146722
834.621	0.0146609
834.700	0.0147729
834.778	0.0147967
834.856	0.0147370
834.934	0.0147492
835.012	0.0146581
835.090	0.0146186
835.168	0.0147784
835.246	0.0146108
835.325	0.0146843
835.403	0.0146227
835.481	0.0146563
835.559	0.0146945
835.637	0.0146048
835.715	0.0147153
835.793	0.0145982
835.871	0.0145691
835.950	0.0146347
836.028	0.0146688
836.106	0.0144701
836.184	0.0144312
836.262	0.0145084
836.340	0.0145301
836.418	0.0144830
836.496	0.0145324
836.575	0.0144569
836.653	0.0146461
836.731	0.0146822
836.809	0.0145895
836.887	0.0144733
836.965	0.0145284
837.043	0.0145525
837.121	0.0145608
837.200	0.0146500
837.278	0.0147196
837.356	0.0148124
837.434	0.0147721
837.512	0.0148024
837.590	0.0148492
837.668	0.0146704
837.746	0.0148039
837.825	0.0148164
837.903	0.0149319
837.981	0.0146859
838.059	0.0145691
838.137	0.0148748
838.215	0.0148512
838.293	0.0145890
838.371	0.0145304
838.450	0.0144828
838.528	0.0145729
838.606	0.0145541
838.684	0.0145878
838.762	0.0144514
838.840	0.0145412
838.918	0.0144851
838.996	0.0144404
839.075	0.0145494
839.153	0.0142773
839.231	0.0145088
839.309	0.0145206
839.387	0.0144592
839.465	0.0146059
839.543	0.0144747
839.621	0.0145405
839.700	0.0145670
839.778	0.0146880
839.856	0.0146023
839.934	0.0146422
840.012	0.0145964
840.090	0.0147773
840.168	0.0147401
840.246	0.0146677
840.325	0.0146612
840.403	0.0148428
840.481	0.0148316
840.559	0.0147844
840.637	0.0146316
840.715	0.0147319
840.793	0.0146664
840.871	0.0147118
840.950	0.0147428
841.028	0.0145261
841.106	0.0146379
841.184	0.0146516
841.262	0.0145299
841.340	0.0145293
841.418	0.0145464
841.496	0.0146940
841.575	0.0143774
841.653	0.0144146
841.731	0.0145342
841.809	0.0145883
841.887	0.0145920
841.965	0.0145058
842.043	0.0145203
842.121	0.0146109
842.200	0.0146588
842.278	0.0143503
842.356	0.0144688
842.434	0.0143948
842.512	0.0144705
842.590	0.0144250
842.668	0.0145910
842.746	0.0146437
842.825	0.0145460
842.903	0.0145090
842.981	0.0147022
843.059	0.0146394
843.137	0.0146895
843.215	0.0146085
843.293	0.0146360
843.371	0.0146859
843.450	0.0146458
843.528	0.0146583
843.606	0.0147248
843.684	0.0146984
843.762	0.0145704
843.840	0.0146761
843.918	0.0145433
843.996	0.0145457
844.075	0.0145042
844.153	0.0145443
844.231	0.0145029
844.309	0.0142902
844.387	0.0144924
844.465	0.0144009
844.543	0.0143513
844.621	0.0145138
844.700	0.0144189
844.778	0.0143876
844.856	0.0144727
844.934	0.0146030
845.012	0.0146094
845.090	0.0146044
845.168	0.0145953
845.246	0.0147434
845.325	0.0146082
845.403	0.0146343
845.481	0.0147279
845.559	0.0146929
845.637	0.0146336
845.715	0.0146926
845.793	0.0146963
845.871	0.0145407
845.950	0.0146909
846.028	0.0146703
846.106	0.0146839
846.184	0.0146548
846.262	0.0146400
846.340	0.0145768
846.418	0.0146156
846.496	0.0145454
846.575	0.0144304
846.653	0.0144786
846.731	0.0144240
846.809	0.0145741
846.887	0.0144741
846.965	0.0146480
847.043	0.0145811
847.121	0.0144019
847.200	0.0145728
847.278	0.0146734
847.356	0.0146867
847.434	0.0145805
847.512	0.0144494
847.590	0.0145052
847.668	0.0147256
847.746	0.0146175
847.825	0.0148280
847.903	0.0147770
847.981	0.0147474
848.059	0.0146455
848.137	0.0146269
848.215	0.0148671
848.293	0.0147987
848.371	0.0146172
848.450	0.0146687
848.528	0.0146754
848.606	0.0146334
848.684	0.0146732
848.762	0.0144563
848.840	0.0147116
848.918	0.0145551
848.996	0.0145130
849.075	0.0146197
849.153	0.0145158
849.231	0.0144112
849.309	0.0144418
849.387	0.0144340
849.465	0.0143498
849.543	0.0145589
849.621	0.0144575
849.700	0.0144379
849.778	0.0145245
849.856	0.0145693
849.934	0.0145277
850.012	0.0146806
850.090	0.0146639
850.168	0.0146542
850.246	0.0148126
850.325	0.0147912
850.403	0.0146899
850.481	0.0146589
850.559	0.0146226
850.637	0.0146895
850.715	0.0145050
850.793	0.0145683
850.871	0.0146496
850.950	0.0146387
851.028	0.0144984
851.106	0.0145165
851.184	0.0145554
851.262	0.0144874
851.340	0.0143966
851.418	0.0144838
851.496	0.0144618
851.575	0.0143723
851.653	0.0143976
851.731	0.0143108
851.809	0.0145872
851.887	0.0145391
851.965	0.0145280
852.043	0.0144299
852.121	0.0146641
852.200	0.0145787
852.278	0.0146604
852.356	0.0147243
852.434	0.0146542
852.512	0.0147080
852.590	0.0146268
852.668	0.0146768
852.746	0.0148064
852.825	0.0146538
852.903	0.0146235
852.981	0.0147787
853.059	0.0147446
853.137	0.0148214
853.215	0.0145972
853.293	0.0145948
853.371	0.0146669
853.450	0.0145119
853.528	0.0146545
853.606	0.0145012
853.684	0.0144891
853.762	0.0145671
853.840	0.0145741
853.918	0.0144363
853.996	0.0144303
854.075	0.0144397
854.153	0.0146023
854.231	0.0144433
854.309	0.0145036
854.387	0.0146172
854.465	0.0145602
854.543	0.0146636
854.621	0.0145709
854.700	0.0146957
854.778	0.0146977
854.856	0.0145976
854.934	0.0147536
855.012	0.0146518
855.090	0.0147868
855.168	0.0147145
855.246	0.0147304
855.325	0.0146186
855.403	0.0146445
855.481	0.0146553
855.559	0.0146739
855.637	0.0144791
855.715	0.0146655
855.793	0.0146297
855.871	0.0146876
855.950	0.0146149
856.028	0.0145105
856.106	0.0147414
856.184	0.0146288
856.262	0.0146198
856.340	0.0146312
856.418	0.0145364
856.496	0.0146860
856.575	0.0146877
856.653	0.0146474
856.731	0.0145950
856.809	0.0146964
856.887	0.0144360
856.965	0.0145702
857.043	0.0145325
857.121	0.0146679
857.200	0.0147527
857.278	0.0146350
857.356	0.0145073
857.434	0.0145603
857.512	0.0146449
857.590	0.0146394
857.668	0.0146310
857.746	0.0146030
857.825	0.0144031
857.903	0.0146319
857.981	0.0145416
858.059	0.0146124
858.137	0.0145020
858.215	0.0145037
858.293	0.0146382
858.371	0.0145564
858.450	0.0146038
858.528	0.0146074
858.606	0.0145619
858.684	0.0145712
858.762	0.0147558
858.840	0.0147294
858.918	0.0146328
858.996	0.0146281
859.075	0.0146194
859.153	0.0146803
859.231	0.0147411
859.309	0.0145296
859.387	0.0145580
859.465	0.0146296
859.543	0.0146186
859.621	0.0144758
859.700	0.0145487
859.778	0.0145697
859.856	0.0144586
859.934	0.0145453
860.012	0.0146309
860.090	0.0144791
860.168	0.0145788
860.246	0.0145754
860.325	0.0144363
860.403	0.0144669
860.481	0.0146294
860.559	0.0146105
860.637	0.0147141
860.715	0.0144606
860.793	0.0145737
860.871	0.0146161
860.950	0.0144803
861.028	0.0145334
861.106	0.0145143
861.184	0.0145475
861.262	0.0144863
861.340	0.0145999
861.418	0.0146327
861.496	0.0145541
861.575	0.0146316
861.653	0.0145159
861.731	0.0144791
861.809	0.0146502
861.887	0.0146438
861.965	0.0146156
862.043	0.0145457
862.121	0.0146394
862.200	0.0147569
862.278	0.0145562
862.356	0.0144996
862.434	0.0145493
862.512	0.0146151
862.590	0.0145576
862.668	0.0145637
862.746	0.0147124
862.825	0.0144736
862.903	0.0143803
862.981	0.0146071
863.059	0.0144378
863.137	0.0145638
863.215	0.0146156
863.293	0.0145409
863.371	0.0145110
863.450	0.0146384
863.528	0.0145305
863.606	0.0144668
863.684	0.0145983
863.762	0.0146550
863.840	0.0145785
863.918	0.0145153
863.996	0.0145853
864.075	0.0146817
864.153	0.0146121
864.231	0.0147115
864.309	0.0148133
864.387	0.0147961
864.465	0.0147264
864.543	0.0146273
864.621	0.0146327
864.700	0.0147144
864.778	0.0147434
864.856	0.0147836
864.934	0.0148423
865.012	0.0146336
865.090	0.0146735
865.168	0.0146754
865.246	0.0145097
865.325	0.0146217
865.403	0.0145692
865.481	0.0145348
865.559	0.0145995
865.637	0.0144276
865.715	0.0143626
865.793	0.0144887
865.871	0.0143599
865.950	0.0145744
866.028	0.0145557
866.106	0.0145653
866.184	0.0145632
866.262	0.0145226
866.340	0.0144923
866.418	0.0146670
866.496	0.0146941
866.575	0.0146793
866.653	0.0145969
866.731	0.0145705
866.809	0.0147740
866.887	0.0147848
866.965	0.0146287
867.043	0.0145924
867.121	0.0147488
867.200	0.0147362
867.278	0.0146298
867.356	0.0144884
867.434	0.0147228
867.512	0.0145974
867.590	0.0147440
867.668	0.0146616
867.746	0.0145667
867.825	0.0145390
867.903	0.0144769
867.981	0.0146063
868.059	0.0144875
868.137	0.0145351
868.215	0.0144519
868.293	0.0145180
868.371	0.0145022
868.450	0.0144158
868.528	0.0146186
868.606	0.0146114
868.684	0.0144802
868.762	0.0144258
868.840	0.0146428
868.918	0.0145222
868.996	0.0146295
869.075	0.0147127
869.153	0.0145906
869.231	0.0146532
869.309	0.0147319
869.387	0.0148012
869.465	0.0147290
869.543	0.0146854
869.621	0.0147361
869.700	0.0145467
869.778	0.0146258
869.856	0.0147047
869.934	0.0146034
870.012	0.0145811
870.090	0.0146526
870.168	0.0145354
870.246	0.0145966
870.325	0.0145373
870.403	0.0146012
870.481	0.0145391
870.559	0.0144558
870.637	0.0143494
870.715	0.0146159
870.793	0.0144899
870.871	0.0143703
870.950	0.0143438
871.028	0.0146384
871.106	0.0144670
871.184	0.0145193
871.262	0.0144870
871.340	0.0145682
871.418	0.0146016
871.496	0.0147163
871.575	0.0147382
871.653	0.0146661
871.731	0.0146333
871.809	0.0146811
871.887	0.0146773
871.965	0.0146141
872.043	0.0145644
872.121	0.0146156
872.200	0.0145565
872.278	0.0145832
872.356	0.0145412
872.434	0.0144892
872.512	0.0145966
872.590	0.0145300
872.668	0.0144823
872.746	0.0145377
872.825	0.0145438
872.903	0.0145853
872.981	0.0145413
873.059	0.0144643
873.137	0.0144752
873.215	0.0146787
873.293	0.0144302
873.371	0.0146152
873.450	0.0145794
873.528	0.0146259
873.606	0.0146156
873.684	0.0145856
873.762	0.0145106
873.840	0.0146164
873.918	0.0147385
873.996	0.0145969
874.075	0.0145251
874.153	0.0146336
874.231	0.0146769
874.309	0.0146986
874.387	0.0146782
874.465	0.0145158
874.543	0.0146489
874.621	0.0144563
874.700	0.0147491
874.778	0.0145642
874.856	0.0146047
874.934	0.0146113
875.012	0.0145399
875.090	0.0146930
875.168	0.0146430
875.246	0.0144932
875.325	0.0146027
875.403	0.0147028
875.481	0.0146502
875.559	0.0145547
875.637	0.0144294
875.715	0.0146918
875.793	0.0145518
875.871	0.0146867
875.950	0.0147860
876.028	0.0147016
876.106	0.0147353
876.184	0.0146651
876.262	0.0146363
876.340	0.0146947
876.418	0.0147112
876.496	0.0145404
876.575	0.0146266
876.653	0.0146729
876.731	0.0146513
876.809	0.0145152
876.887	0.0145435
876.965	0.0146964
877.043	0.0146546
877.121	0.0144998
877.200	0.0145805
877.278	0.0144776
877.356	0.0143887
877.434	0.0144907
877.512	0.0144583
877.590	0.0145663
877.668	0.0145210
877.746	0.0145055
877.825	0.0145334
877.903	0.0144727
877.981	0.0146584
878.059	0.0145686
878.137	0.0145496
878.215	0.0147437
878.293	0.0145504
878.371	0.0145436
878.450	0.0145711
878.528	0.0145855
878.606	0.0147485
878.684	0.0146106
878.762	0.0145273
878.840	0.0146759
878.918	0.0147384
878.996	0.0146130
879.075	0.0145747
879.153	0.0145902
879.231	0.0145574
879.309	0.0146850
879.387	0.0145551
879.465	0.0145615
879.543	0.0144661
879.621	0.0148228
879.700	0.0146132
879.778	0.0145903
879.856	0.0145962
879.934	0.0145757
880.012	0.0146305
880.090	0.0145036
880.168	0.0145694
880.246	0.0145982
880.325	0.0145980
880.403	0.0145188
880.481	0.0145557
880.559	0.0145685
880.637	0.0146346
880.715	0.0146406
880.793	0.0147972
880.871	0.0146837
880.950	0.0146234
881.028	0.0144870
881.106	0.0146632
881.184	0.0146298
881.262	0.0146015
881.340	0.0145982
881.418	0.0145949
881.496	0.0147094
881.575	0.0146526
881.653	0.0146474
881.731	0.0146182
881.809	0.0145889
881.887	0.0146464
881.965	0.0145829
882.043	0.0145270
882.121	0.0146236
882.200	0.0145864
882.278	0.0145058
882.356	0.0145885
882.434	0.0147956
882.512	0.0145852
882.590	0.0145403
882.668	0.0145010
882.746	0.0145699
882.825	0.0144924
882.903	0.0145872
882.981	0.0146223
883.059	0.0145833
883.137	0.0144729
883.215	0.0145485
883.293	0.0146803
883.371	0.0146861
883.450	0.0146672
883.528	0.0148062
883.606	0.0146709
883.684	0.0145856
883.762	0.0146380
883.840	0.0146730
883.918	0.0146590
883.996	0.0145685
884.075	0.0146844
884.153	0.0145899
884.231	0.0146800
884.309	0.0145569
884.387	0.0146018
884.465	0.0146212
884.543	0.0145821
884.621	0.0145192
884.700	0.0145256
884.778	0.0146484
884.856	0.0146191
884.934	0.0145808
885.012	0.0145329
885.090	0.0145564
885.168	0.0146597
885.246	0.0147601
885.325	0.0146100
885.403	0.0145402
885.481	0.0144819
885.559	0.0146156
885.637	0.0146529
885.715	0.0146327
885.793	0.0145123
885.871	0.0146329
885.950	0.0146455
886.028	0.0146968
886.106	0.0145697
886.184	0.0145663
886.262	0.0145508
886.340	0.0146066
886.418	0.0146689
886.496	0.0145831
886.575	0.0146600
886.653	0.0145950
886.731	0.0145662
886.809	0.0147561
886.887	0.0145435
886.965	0.0145352
887.043	0.0146124
887.121	0.0146049
887.200	0.0145863
887.278	0.0144136
887.356	0.0145652
887.434	0.0145512
887.512	0.0145119
887.590	0.0146932
887.668	0.0146442
887.746	0.0146313
887.825	0.0146304
887.903	0.0146317
887.981	0.0145748
888.059	0.0146526
888.137	0.0146195
888.215	0.0147404
888.293	0.0145240
888.371	0.0146531
888.450	0.0147578
888.528	0.0148222
888.606	0.0143891
888.684	0.0146694
888.762	0.0146377
888.840	0.0146532
888.918	0.0146626
888.996	0.0146481
889.075	0.0145167
889.153	0.0145377
889.231	0.0146418
889.309	0.0146465
889.387	0.0145055
889.465	0.0146642
889.543	0.0145738
889.621	0.0146404
889.700	0.0146241
889.778	0.0145906
889.856	0.0145920
889.934	0.0143591
890.012	0.0145144
890.090	0.0147307
890.168	0.0147983
890.246	0.0145723
890.325	0.0145834
890.403	0.0146396
890.481	0.0146052
890.559	0.0147229
890.637	0.0147764
890.715	0.0146957
890.793	0.0145849
890.871	0.0147976
890.950	0.0146365
891.028	0.0146819
891.106	0.0145948
891.184	0.0146227
891.262	0.0145819
891.340	0.0145613
891.418	0.0146587
891.496	0.0146417
891.575	0.0145860
891.653	0.0145598
891.731	0.0144220
891.809	0.0145539
891.887	0.0147901
891.965	0.0145760
892.043	0.0145619
892.121	0.0144318
892.200	0.0146015
892.278	0.0145882
892.356	0.0144768
892.434	0.0144668
892.512	0.0146228
892.590	0.0147391
892.668	0.0147347
892.746	0.0146476
892.825	0.0146577
892.903	0.0145578
892.981	0.0145692
893.059	0.0146588
893.137	0.0146246
893.215	0.0144663
893.293	0.0147095
893.371	0.0146210
893.450	0.0146525
893.528	0.0145478
893.606	0.0146136
893.684	0.0145947
893.762	0.0146768
893.840	0.0146162
893.918	0.0146381
893.996	0.0146281
894.075	0.0145057
894.153	0.0145148
894.231	0.0146065
894.309	0.0145684
894.387	0.0145581
894.465	0.0146526
894.543	0.0146323
894.621	0.0146490
894.700	0.0146732
894.778	0.0145836
894.856	0.0146253
894.934	0.0148521
895.012	0.0147531
895.090	0.0147132
895.168	0.0147031
895.246	0.0147017
895.325	0.0146710
895.403	0.0145773
895.481	0.0147449
895.559	0.0145972
895.637	0.0146255
895.715	0.0147202
895.793	0.0146703
895.871	0.0148026
895.950	0.0144784
896.028	0.0145600
896.106	0.0146281
896.184	0.0144725
896.262	0.0144410
896.340	0.0145327
896.418	0.0145253
896.496	0.0146347
896.575	0.0145369
896.653	0.0144426
896.731	0.0146095
896.809	0.0147070
896.887	0.0145399
896.965	0.0146711
897.043	0.0146360
897.121	0.0146132
897.200	0.0146943
897.278	0.0147855
897.356	0.0149612
897.434	0.0148822
897.512	0.0149525
897.590	0.0148494
897.668	0.0148020
897.746	0.0147692
897.825	0.0147639
897.903	0.0148273
897.981	0.0147089
898.059	0.0145927
898.137	0.0146980
898.215	0.0147034
898.293	0.0145298
898.371	0.0146361
898.450	0.0145274
898.528	0.0144775
898.606	0.0144753
898.684	0.0146225
898.762	0.0145961
898.840	0.0145049
898.918	0.0146732
898.996	0.0145969
899.075	0.0147549
899.153	0.0147253
899.231	0.0148129
899.309	0.0147050
899.387	0.0147031
899.465	0.0148775
899.543	0.0147779
899.621	0.0148368
899.700	0.0148237
899.778	0.0147505
899.856	0.0146987
899.934	0.0147692
900.012	0.0148268
900.090	0.0147131
900.168	0.0145274
900.246	0.0145821
900.325	0.0144488
900.403	0.0146348
900.481	0.0145500
900.559	0.0145692
900.637	0.0145461
900.715	0.0145222
900.793	0.0145314
900.871	0.0144503
900.950	0.0146028
901.028	0.0145876
901.106	0.0145420
901.184	0.0145256
901.262	0.0146607
901.340	0.0145798
901.418	0.0147726
901.496	0.0148660
901.575	0.0149244
901.653	0.0149237
901.731	0.0148270
901.809	0.0149129
901.887	0.0149969
901.965	0.0149499
902.043	0.0148546
902.121	0.0147403
902.200	0.0147808
902.278	0.0147176
902.356	0.0146239
902.434	0.0146377
902.512	0.0145448
902.590	0.0144346
902.668	0.0144057
902.746	0.0143872
902.825	0.0144637
902.903	0.0144341
902.981	0.0144202
903.059	0.0144228
903.137	0.0144238
903.215	0.0145167
903.293	0.0146944
903.371	0.0145376
903.450	0.0145402
903.528	0.0144693
903.606	0.0147694
903.684	0.0147241
903.762	0.0147205
903.840	0.0146544
903.918	0.0148202
903.996	0.0149256
904.075	0.0150288
904.153	0.0150082
904.231	0.0148042
904.309	0.0147710
904.387	0.0146864
904.465	0.0148164
904.543	0.0146976
904.621	0.0144889
904.700	0.0145375
904.778	0.0143640
904.856	0.0144688
904.934	0.0144209
905.012	0.0143719
905.090	0.0142935
905.168	0.0141933
905.246	0.0143112
905.325	0.0143371
905.403	0.0143304
905.481	0.0145095
905.559	0.0145968
905.637	0.0143384
905.715	0.0146173
905.793	0.0146407
905.871	0.0146486
905.950	0.0145367
906.028	0.0146003
906.106	0.0148441
906.184	0.0147108
906.262	0.0148072
906.340	0.0149153
906.418	0.0146617
906.496	0.0147560
906.575	0.0148331
906.653	0.0148588
906.731	0.0147063
906.809	0.0148460
906.887	0.0148878
906.965	0.0147762
907.043	0.0148631
907.121	0.0147752
907.200	0.0146957
907.278	0.0146063
907.356	0.0146778
907.434	0.0146617
907.512	0.0146007
907.590	0.0145200
907.668	0.0145129
907.746	0.0144641
907.825	0.0146178
907.903	0.0145866
907.981	0.0144907
908.059	0.0144618
908.137	0.0145173
908.215	0.0145112
908.293	0.0145470
908.371	0.0145850
908.450	0.0146081
908.528	0.0147597
908.606	0.0147415
908.684	0.0146066
908.762	0.0147051
908.840	0.0147903
908.918	0.0149114
908.996	0.0147567
909.075	0.0147025
909.153	0.0146803
909.231	0.0148107
909.309	0.0146855
909.387	0.0148898
909.465	0.0148711
909.543	0.0145821
909.621	0.0147234
909.700	0.0148172
909.778	0.0146118
909.856	0.0145744
909.934	0.0145844
910.012	0.0146099
910.090	0.0144772
910.168	0.0145473
910.246	0.0145286
910.325	0.0145528
910.403	0.0144275
910.481	0.0143339
910.559	0.0143445
910.637	0.0144353
910.715	0.0144688
910.793	0.0145562
910.871	0.0144092
910.950	0.0144034
911.028	0.0144702
911.106	0.0145180
911.184	0.0145507
911.262	0.0145132
911.340	0.0146241
911.418	0.0146988
911.496	0.0147687
911.575	0.0147916
911.653	0.0148362
911.731	0.0148307
911.809	0.0148146
911.887	0.0147092
911.965	0.0146826
912.043	0.0148122
912.121	0.0147449
912.200	0.0146767
912.278	0.0147928
912.356	0.0146636
912.434	0.0144701
912.512	0.0145262
912.590	0.0144855
912.668	0.0144090
912.746	0.0143511
912.825	0.0142717
912.903	0.0142787
912.981	0.0144307
913.059	0.0143502
913.137	0.0143864
913.215	0.0144022
913.293	0.0145154
913.371	0.0143879
913.450	0.0145682
913.528	0.0145364
913.606	0.0145738
913.684	0.0146550
913.762	0.0146431
913.840	0.0147848
913.918	0.0148602
913.996	0.0148288
914.075	0.0146740
914.153	0.0150160
914.231	0.0149737
914.309	0.0148156
914.387	0.0148862
914.465	0.0147666
914.543	0.0146796
914.621	0.0146594
914.700	0.0146776
914.778	0.0146889
914.856	0.0145601
914.934	0.0144609
915.012	0.0144891
915.090	0.0143276
915.168	0.0143423
915.246	0.0143244
915.325	0.0141908
915.403	0.0143858
915.481	0.0143808
915.559	0.0143855
915.637	0.0143579
915.715	0.0143946
915.793	0.0144628
915.871	0.0144559
915.950	0.0145826
916.028	0.0147278
916.106	0.0146803
916.184	0.0146938
916.262	0.0147404
916.340	0.0147443
916.418	0.0148013
916.496	0.0147784
916.575	0.0148291
916.653	0.0150404
916.731	0.0148289
916.809	0.0146945
916.887	0.0145296
916.965	0.0146792
917.043	0.0146703
917.121	0.0145953
917.200	0.0144772
917.278	0.0144778
917.356	0.0144309
917.434	0.0144285
917.512	0.0145351
917.590	0.0144834
917.668	0.0145364
917.746	0.0144563
917.825	0.0145792
917.903	0.0146170
917.981	0.0145156
918.059	0.0146912
918.137	0.0145296
918.215	0.0146625
918.293	0.0145145
918.371	0.0146582
918.450	0.0147453
918.528	0.0145656
918.606	0.0147031
918.684	0.0146432
918.762	0.0146138
918.840	0.0146832
918.918	0.0145631
918.996	0.0145930
919.075	0.0147649
919.153	0.0146861
919.231	0.0147015
919.309	0.0146960
919.387	0.0144938
919.465	0.0145031
919.543	0.0145162
919.621	0.0145208
919.700	0.0145145
919.778	0.0145039
919.856	0.0145734
919.934	0.0144765
920.012	0.0143673
920.090	0.0144754
920.168	0.0142987
920.246	0.0144920
920.325	0.0145657
920.403	0.0145949
920.481	0.0146806
920.559	0.0146234
920.637	0.0146457
920.715	0.0146540
920.793	0.0147539
920.871	0.0148345
920.950	0.0148127
921.028	0.0148839
921.106	0.0148814
921.184	0.0148254
921.262	0.0147203
921.340	0.0146938
921.418	0.0146402
921.496	0.0146796
921.575	0.0145606
921.653	0.0144556
921.731	0.0144799
921.809	0.0146488
921.887	0.0145015
921.965	0.0144598
922.043	0.0145793
922.121	0.0145795
922.200	0.0145235
922.278	0.0146409
922.356	0.0144662
922.434	0.0146092
922.512	0.0146326
922.590	0.0144688
922.668	0.0146336
922.746	0.0146545
922.825	0.0145566
922.903	0.0147260
922.981	0.0146060
923.059	0.0146255
923.137	0.0144859
923.215	0.0145840
923.293	0.0146014
923.371	0.0146291
923.450	0.0147154
923.528	0.0146861
923.606	0.0144016
923.684	0.0145908
923.762	0.0146481
923.840	0.0146693
923.918	0.0146951
923.996	0.0147153
924.075	0.0145938
924.153	0.0146532
924.231	0.0146543
924.309	0.0145381
924.387	0.0145065
924.465	0.0145533
924.543	0.0146122
924.621	0.0145380
924.700	0.0146840
924.778	0.0147928
924.856	0.0146519
924.934	0.0145667
925.012	0.0146045
925.090	0.0145958
925.168	0.0148037
925.246	0.0148019
925.325	0.0147388
925.403	0.0147263
925.481	0.0145965
925.559	0.0147199
925.637	0.0147620
925.715	0.0147022
925.793	0.0146593
925.871	0.0146259
925.950	0.0147734
926.028	0.0147650
926.106	0.0144778
926.184	0.0145865
926.262	0.0144649
926.340	0.0145123
926.418	0.0145339
926.496	0.0144705
926.575	0.0144736
926.653	0.0146026
926.731	0.0146384
926.809	0.0144018
926.887	0.0146129
926.965	0.0145906
927.043	0.0146055
927.121	0.0146286
927.200	0.0144852
927.278	0.0145500
927.356	0.0146638
927.434	0.0145926
927.512	0.0146812
927.590	0.0146082
927.668	0.0145347
927.746	0.0145476
927.825	0.0146782
927.903	0.0146688
927.981	0.0146719
928.059	0.0146994
928.137	0.0147784
928.215	0.0147581
928.293	0.0148632
928.371	0.0148427
928.450	0.0148090
928.528	0.0148513
928.606	0.0148615
928.684	0.0147249
928.762	0.0148904
928.840	0.0146761
928.918	0.0147593
928.996	0.0146738
929.075	0.0145611
929.153	0.0146360
929.231	0.0146157
929.309	0.0145698
929.387	0.0144938
929.465	0.0144254
929.543	0.0144710
929.621	0.0144482
929.700	0.0144750
929.778	0.0143116
929.856	0.0143584
929.934	0.0145960
930.012	0.0146696
930.090	0.0146372
930.168	0.0145509
930.246	0.0146470
930.325	0.0147878
930.403	0.0147169
930.481	0.0147265
930.559	0.0148168
930.637	0.0147905
930.715	0.0147074
930.793	0.0147157
930.871	0.0146645
930.950	0.0146880
931.028	0.0146681
931.106	0.0146766
931.184	0.0146212
931.262	0.0145551
931.340	0.0145271
931.418	0.0143369
931.496	0.0146754
931.575	0.0144577
931.653	0.0144992
931.731	0.0144430
931.809	0.0144521
931.887	0.0144990
931.965	0.0144154
932.043	0.0145003
932.121	0.0145775
932.200	0.0144598
932.278	0.0144212
932.356	0.0144878
932.434	0.0145936
932.512	0.0146132
932.590	0.0145992
932.668	0.0146109
932.746	0.0147016
932.825	0.0146576
932.903	0.0146159
932.981	0.0147083
933.059	0.0147307
933.137	0.0147196
933.215	0.0146187
933.293	0.0145672
933.371	0.0146156
933.450	0.0146732
933.528	0.0146901
933.606	0.0146642
933.684	0.0146190
933.762	0.0146129
933.840	0.0144767
933.918	0.0145662
933.996	0.0145268
934.075	0.0146270
934.153	0.0145337
934.231	0.0144523
934.309	0.0145624
934.387	0.0144240
934.465	0.0144951
934.543	0.0146114
934.621	0.0145493
934.700	0.0145694
934.778	0.0144992
934.856	0.0147102
934.934	0.0145126
935.012	0.0146687
935.090	0.0145061
935.168	0.0147392
935.246	0.0146567
935.325	0.0145776
935.403	0.0146440
935.481	0.0146925
935.559	0.0146017
935.637	0.0144798
935.715	0.0144966
935.793	0.0146837
935.871	0.0146132
935.950	0.0147388
936.028	0.0146160
936.106	0.0145625
936.184	0.0145692
936.262	0.0146347
936.340	0.0145098
936.418	0.0145791
936.496	0.0146650
936.575	0.0145370
936.653	0.0144127
936.731	0.0144605
936.809	0.0146452
936.887	0.0146466
936.965	0.0143926
937.043	0.0144827
937.121	0.0144824
937.200	0.0145923
937.278	0.0145991
937.356	0.0146098
937.434	0.0145296
937.512	0.0145782
937.590	0.0146670
937.668	0.0147414
937.746	0.0146259
937.825	0.0147311
937.903	0.0147112
937.981	0.0147894
938.059	0.0148004
938.137	0.0146873
938.215	0.0147431
938.293	0.0147031
938.371	0.0146519
938.450	0.0147321
938.528	0.0147023
938.606	0.0146805
938.684	0.0146333
938.762	0.0145349
938.840	0.0145584
938.918	0.0144933
938.996	0.0145174
939.075	0.0145042
939.153	0.0144070
939.231	0.0145339
939.309	0.0145132
939.387	0.0146214
939.465	0.0146506
939.543	0.0144157
939.621	0.0144749
939.700	0.0144998
939.778	0.0145186
939.856	0.0145547
939.934	0.0146671
940.012	0.0146845
940.090	0.0146662
940.168	0.0146500
940.246	0.0147352
940.325	0.0146694
940.403	0.0146617
940.481	0.0147868
940.559	0.0147876
940.637	0.0147215
940.715	0.0146815
940.793	0.0147052
940.871	0.0148309
940.950	0.0147374
941.028	0.0147555
941.106	0.0147863
941.184	0.0146351
941.262	0.0146052
941.340	0.0146961
941.418	0.0146088
941.496	0.0146923
941.575	0.0144749
941.653	0.0144022
941.731	0.0145611
941.809	0.0144592
941.887	0.0145706
941.965	0.0146160
942.043	0.0145351
942.121	0.0144910
942.200	0.0145779
942.278	0.0147003
942.356	0.0145670
942.434	0.0145928
942.512	0.0145782
942.590	0.0146523
942.668	0.0145911
942.746	0.0147283
942.825	0.0146687
942.903	0.0146360
942.981	0.0146330
943.059	0.0146428
943.137	0.0147269
943.215	0.0147385
943.293	0.0146748
943.371	0.0145623
943.450	0.0145533
943.528	0.0146560
943.606	0.0147056
943.684	0.0146642
943.762	0.0147172
943.840	0.0145794
943.918	0.0146658
943.996	0.0147277
944.075	0.0145544
944.153	0.0145554
944.231	0.0144999
944.309	0.0144876
944.387	0.0146101
944.465	0.0145286
944.543	0.0144788
944.621	0.0147146
944.700	0.0145884
944.778	0.0145831
944.856	0.0145679
944.934	0.0146105
945.012	0.0146244
945.090	0.0145475
945.168	0.0145613
945.246	0.0147824
945.325	0.0147031
945.403	0.0146670
945.481	0.0146802
945.559	0.0146418
945.637	0.0145724
945.715	0.0146730
945.793	0.0147336
945.871	0.0146517
945.950	0.0145474
946.028	0.0146028
946.106	0.0145810
946.184	0.0145798
946.262	0.0146417
946.340	0.0146342
946.418	0.0146166
946.496	0.0146260
946.575	0.0146250
946.653	0.0145400
946.731	0.0146619
946.809	0.0146452
946.887	0.0144942
946.965	0.0145255
947.043	0.0145396
947.121	0.0146070
947.200	0.0146351
947.278	0.0143974
947.356	0.0144926
947.434	0.0146112
947.512	0.0146005
947.590	0.0146249
947.668	0.0145695
947.746	0.0145132
947.825	0.0145937
947.903	0.0145407
947.981	0.0146973
948.059	0.0145921
948.137	0.0145830
948.215	0.0147189
948.293	0.0146267
948.371	0.0147362
948.450	0.0146597
948.528	0.0145962
948.606	0.0147855
948.684	0.0146754
948.762	0.0145403
948.840	0.0146713
948.918	0.0147297
948.996	0.0145168
949.075	0.0145694
949.153	0.0145335
949.231	0.0145167
949.309	0.0146602
949.387	0.0146496
949.465	0.0148209
949.543	0.0146980
949.621	0.0147101
949.700	0.0147369
949.778	0.0146681
949.856	0.0146911
949.934	0.0147173
950.012	0.0147289
950.090	0.0146220
950.168	0.0145732
950.246	0.0145219
950.325	0.0147131
950.403	0.0147173
950.481	0.0145377
950.559	0.0146246
950.637	0.0146448
950.715	0.0145982
950.793	0.0145896
950.871	0.0145603
950.950	0.0146623
951.028	0.0144901
951.106	0.0144984
951.184	0.0147758
951.262	0.0146052
951.340	0.0146678
951.418	0.0146877
951.496	0.0146946
951.575	0.0147549
951.653	0.0148173
951.731	0.0147702
951.809	0.0146828
951.887	0.0146575
951.965	0.0146671
952.043	0.0147907
952.121	0.0146926
952.200	0.0145700
952.278	0.0146355
952.356	0.0145858
952.434	0.0146546
952.512	0.0144868
952.590	0.0145521
952.668	0.0146655
952.746	0.0146599
952.825	0.0145796
952.903	0.0145644
952.981	0.0146398
953.059	0.0144370
953.137	0.0145785
953.215	0.0145539
953.293	0.0147034
953.371	0.0146240
953.450	0.0144965
953.528	0.0144624
953.606	0.0145816
953.684	0.0145882
953.762	0.0147337
953.840	0.0145991
953.918	0.0146417
953.996	0.0147119
954.075	0.0146898
954.153	0.0147825
954.231	0.0147099
954.309	0.0146331
954.387	0.0147018
954.465	0.0145908
954.543	0.0147753
954.621	0.0146956
954.700	0.0147526
954.778	0.0146739
954.856	0.0147011
954.934	0.0145975
955.012	0.0144080
955.090	0.0145536
955.168	0.0145856
955.246	0.0146980
955.325	0.0145957
955.403	0.0145140
955.481	0.0147026
955.559	0.0146739
955.637	0.0145855
955.715	0.0146972
955.793	0.0146516
955.871	0.0146756
955.950	0.0146778
956.028	0.0147665
956.106	0.0147241
956.184	0.0146957
956.262	0.0146947
956.340	0.0147079
956.418	0.0145416
956.496	0.0147557
956.575	0.0145812
956.653	0.0147723
956.731	0.0147033
956.809	0.0145462
956.887	0.0145444
956.965	0.0145101
957.043	0.0145695
957.121	0.0146896
957.200	0.0146427
957.278	0.0145160
957.356	0.0146156
957.434	0.0145930
957.512	0.0146699
957.590	0.0145377
957.668	0.0146942
957.746	0.0145358
957.825	0.0145122
957.903	0.0146642
957.981	0.0146861
958.059	0.0146593
958.137	0.0146249
958.215	0.0146379
958.293	0.0145599
958.371	0.0144269
958.450	0.0146062
958.528	0.0147075
958.606	0.0145962
958.684	0.0145758
958.762	0.0145478
958.840	0.0143589
958.918	0.0146711
958.996	0.0145267
959.075	0.0143572
959.153	0.0145660
959.231	0.0146156
959.309	0.0146119
959.387	0.0147720
959.465	0.0145513
959.543	0.0146348
959.621	0.0144891
959.700	0.0147271
959.778	0.0146893
959.856	0.0145873
959.934	0.0146048
960.012	0.0146475
960.090	0.0145755
960.168	0.0146861
960.246	0.0147691
960.325	0.0145143
960.403	0.0145960
960.481	0.0146709
960.559	0.0144843
960.637	0.0144592
960.715	0.0144971
960.793	0.0144963
960.871	0.0145351
960.950	0.0144647
961.028	0.0144878
961.106	0.0146217
961.184	0.0145384
961.262	0.0144617
961.340	0.0145805
961.418	0.0146040
961.496	0.0146919
961.575	0.0146962
961.653	0.0147520
961.731	0.0146668
961.809	0.0146205
961.887	0.0147572
961.965	0.0147680
962.043	0.0146964
962.121	0.0146003
962.200	0.0146478
962.278	0.0147372
962.356	0.0145796
962.434	0.0145414
962.512	0.0145918
962.590	0.0145969
962.668	0.0145728
962.746	0.0147082
962.825	0.0145518
962.903	0.0144291
962.981	0.0146297
963.059	0.0146892
963.137	0.0146247
963.215	0.0145058
963.293	0.0145983
963.371	0.0145255
963.450	0.0147083
963.528	0.0145999
963.606	0.0145830
963.684	0.0147065
963.762	0.0145264
963.840	0.0146706
963.918	0.0146709
963.996	0.0145528
964.075	0.0144782
964.153	0.0146763
964.231	0.0147442
964.309	0.0146600
964.387	0.0146504
964.465	0.0146512
964.543	0.0146317
964.621	0.0147578
964.700	0.0148106
964.778	0.0147433
964.856	0.0145983
964.934	0.0146178
965.012	0.0146941
965.090	0.0146997
965.168	0.0147430
965.246	0.0147105
965.325	0.0145545
965.403	0.0146193
965.481	0.0146898
965.559	0.0146857
965.637	0.0145142
965.715	0.0147109
965.793	0.0147196
965.871	0.0146205
965.950	0.0145747
966.028	0.0146345
966.106	0.0147343
966.184	0.0146569
966.262	0.0146545
966.340	0.0145222
966.418	0.0146789
966.496	0.0146238
966.575	0.0147092
966.653	0.0147465
966.731	0.0146942
966.809	0.0147981
966.887	0.0146805
966.965	0.0146260
967.043	0.0146806
967.121	0.0145638
967.200	0.0145609
967.278	0.0145451
967.356	0.0146117
967.434	0.0146782
967.512	0.0145226
967.590	0.0146195
967.668	0.0145810
967.746	0.0146957
967.825	0.0145550
967.903	0.0146359
967.981	0.0146621
968.059	0.0146629
968.137	0.0146802
968.215	0.0146534
968.293	0.0146819
968.371	0.0145971
968.450	0.0146400
968.528	0.0146738
968.606	0.0145961
968.684	0.0145587
968.762	0.0146738
968.840	0.0147446
968.918	0.0147416
968.996	0.0146843
969.075	0.0146149
969.153	0.0146843
969.231	0.0149454
969.309	0.0147318
969.387	0.0146206
969.465	0.0146430
969.543	0.0146582
969.621	0.0147594
969.700	0.0146712
969.778	0.0147607
969.856	0.0147903
969.934	0.0146554
970.012	0.0146935
970.090	0.0146790
970.168	0.0145999
970.246	0.0145344
970.325	0.0145294
970.403	0.0146829
970.481	0.0147383
970.559	0.0147219
970.637	0.0145374
970.715	0.0147640
970.793	0.0146324
970.871	0.0146366
970.950	0.0144949
971.028	0.0145370
971.106	0.0145419
971.184	0.0146924
971.262	0.0146384
971.340	0.0146274
971.418	0.0146219
971.496	0.0146656
971.575	0.0147119
971.653	0.0147121
971.731	0.0147350
971.809	0.0146354
971.887	0.0146017
971.965	0.0146333
972.043	0.0147308
972.121	0.0146960
972.200	0.0147163
972.278	0.0146274
972.356	0.0146973
972.434	0.0145438
972.512	0.0147111
972.590	0.0147413
972.668	0.0146877
972.746	0.0146352
972.825	0.0147395
972.903	0.0146500
972.981	0.0146476
973.059	0.0145880
973.137	0.0145738
973.215	0.0146156
973.293	0.0146602
973.371	0.0145720
973.450	0.0146025
973.528	0.0145414
973.606	0.0146051
973.684	0.0145434
973.762	0.0145091
973.840	0.0143802
973.918	0.0144912
973.996	0.0146720
974.075	0.0145058
974.153	0.0144702
974.231	0.0146360
974.309	0.0146304
974.387	0.0145336
974.465	0.0146018
974.543	0.0145030
974.621	0.0145422
974.700	0.0146720
974.778	0.0146695
974.856	0.0145454
974.934	0.0146583
975.012	0.0146935
975.090	0.0145837
975.168	0.0147447
975.246	0.0146572
975.325	0.0145989
975.403	0.0146750
975.481	0.0146781
975.559	0.0145805
975.637	0.0146693
975.715	0.0147668
975.793	0.0146672
975.871	0.0145258
975.950	0.0147455
976.028	0.0146111
976.106	0.0147198
976.184	0.0144665
976.262	0.0147262
976.340	0.0147049
976.418	0.0146001
976.496	0.0145082
976.575	0.0146346
976.653	0.0145172
976.731	0.0144757
976.809	0.0146121
976.887	0.0146916
976.965	0.0145628
977.043	0.0145488
977.121	0.0145381
977.200	0.0144633
977.278	0.0145309
977.356	0.0146417
977.434	0.0146731
977.512	0.0146310
977.590	0.0146286
977.668	0.0146426
977.746	0.0146634
977.825	0.0146369
977.903	0.0146455
977.981	0.0146332
978.059	0.0146183
978.137	0.0146371
978.215	0.0145390
978.293	0.0144926
978.371	0.0146044
978.450	0.0146830
978.528	0.0144798
978.606	0.0146830
978.684	0.0145757
978.762	0.0146930
978.840	0.0148032
978.918	0.0146446
978.996	0.0147234
979.075	0.0147121
979.153	0.0147214
979.231	0.0146065
979.309	0.0146129
979.387	0.0147121
979.465	0.0145578
979.543	0.0145997
979.621	0.0147401
979.700	0.0145950
979.778	0.0146174
979.856	0.0146334
979.934	0.0146444
980.012	0.0145787
980.090	0.0146138
980.168	0.0146421
980.246	0.0144844
980.325	0.0146094
980.403	0.0145547
980.481	0.0145794
980.559	0.0145851
980.637	0.0146114
980.715	0.0145527
980.793	0.0146392
980.871	0.0146750
980.950	0.0145883
981.028	0.0147124
981.106	0.0147041
981.184	0.0148402
981.262	0.0147077
981.340	0.0146287
981.418	0.0146753
981.496	0.0145164
981.575	0.0146061
981.653	0.0145779
981.731	0.0146676
981.809	0.0145386
981.887	0.0145730
981.965	0.0146448
982.043	0.0146599
982.121	0.0146129
982.200	0.0144529
982.278	0.0145222
982.356	0.0145791
982.434	0.0146632
982.512	0.0147219
982.590	0.0145453
982.668	0.0145766
982.746	0.0146380
982.825	0.0147465
982.903	0.0145921
982.981	0.0147251
983.059	0.0147681
983.137	0.0147140
983.215	0.0146761
983.293	0.0146724
983.371	0.0146606
983.450	0.0146977
983.528	0.0147748
983.606	0.0145889
983.684	0.0146504
983.762	0.0146732
983.840	0.0147538
983.918	0.0146500
983.996	0.0145956
984.075	0.0145811
984.153	0.0147039
984.231	0.0144912
984.309	0.0144749
984.387	0.0145163
984.465	0.0145497
984.543	0.0145191
984.621	0.0145981
984.700	0.0146192
984.778	0.0146025
984.856	0.0146244
984.934	0.0145118
985.012	0.0145487
985.090	0.0145267
985.168	0.0146889
985.246	0.0146906
985.325	0.0147699
985.403	0.0147204
985.481	0.0146926
985.559	0.0146606
985.637	0.0145957
985.715	0.0147230
985.793	0.0147449
985.871	0.0146565
985.950	0.0146537
986.028	0.0146299
986.106	0.0146685
986.184	0.0145805
986.262	0.0145943
986.340	0.0146023
986.418	0.0145448
986.496	0.0145378
986.575	0.0146058
986.653	0.0144696
986.731	0.0145280
986.809	0.0145731
986.887	0.0146301
986.965	0.0146313
987.043	0.0146135
987.121	0.0146376
987.200	0.0144422
987.278	0.0145333
987.356	0.0145934
987.434	0.0146584
987.512	0.0145744
987.590	0.0145985
987.668	0.0147098
987.746	0.0145749
987.825	0.0145651
987.903	0.0146000
987.981	0.0146768
988.059	0.0146867
988.137	0.0146323
988.215	0.0147454
988.293	0.0146516
988.371	0.0146400
988.450	0.0146611
988.528	0.0147222
988.606	0.0147239
988.684	0.0146671
988.762	0.0147111
988.840	0.0147191
988.918	0.0147087
988.996	0.0146918
989.075	0.0145792
989.153	0.0145161
989.231	0.0146763
989.309	0.0146539
989.387	0.0146505
989.465	0.0146603
989.543	0.0146481
989.621	0.0146177
989.700	0.0146585
989.778	0.0147541
989.856	0.0147936
989.934	0.0148101
990.012	0.0146298
990.090	0.0147400
990.168	0.0146373
990.246	0.0148310
990.325	0.0145894
990.403	0.0147657
990.481	0.0145815
990.559	0.0146911
990.637	0.0147482
990.715	0.0146132
990.793	0.0145409
990.871	0.0147549
990.950	0.0145792
991.028	0.0146477
991.106	0.0145709
991.184	0.0146757
991.262	0.0146951
991.340	0.0146463
991.418	0.0147923
991.496	0.0146249
991.575	0.0145794
991.653	0.0146481
991.731	0.0145963
991.809	0.0145817
991.887	0.0146068
991.965	0.0145666
992.043	0.0146026
992.121	0.0147342
992.200	0.0146218
992.278	0.0146877
992.356	0.0145986
992.434	0.0146867
992.512	0.0146198
992.590	0.0147471
992.668	0.0147884
992.746	0.0147549
992.825	0.0146458
992.903	0.0147183
992.981	0.0146253
993.059	0.0147408
993.137	0.0147314
993.215	0.0147752
993.293	0.0147015
993.371	0.0146980
993.450	0.0147578
993.528	0.0146629
993.606	0.0146357
993.684	0.0145477
993.762	0.0145634
993.840	0.0146260
993.918	0.0145239
993.996	0.0144347
994.075	0.0145461
994.153	0.0146044
994.231	0.0146881
994.309	0.0145772
994.387	0.0145584
994.465	0.0145323
994.543	0.0147150
994.621	0.0146552
994.700	0.0145923
994.778	0.0145797
994.856	0.0146021
994.934	0.0145796
995.012	0.0146723
995.090	0.0147702
995.168	0.0147418
995.246	0.0146549
995.325	0.0147952
995.403	0.0145711
995.481	0.0144746
995.559	0.0145860
995.637	0.0146924
995.715	0.0146667
995.793	0.0145863
995.871	0.0146025
995.950	0.0145727
996.028	0.0144101
996.106	0.0145841
996.184	0.0145001
996.262	0.0145914
996.340	0.0145931
996.418	0.0145844
996.496	0.0146248
996.575	0.0146597
996.653	0.0145811
996.731	0.0146461
996.809	0.0146252
996.887	0.0145947
996.965	0.0146624
997.043	0.0145837
997.121	0.0147131
997.200	0.0147172
997.278	0.0145985
997.356	0.0147314
997.434	0.0148219
997.512	0.0145150
997.590	0.0146420
997.668	0.0146651
997.746	0.0147149
997.825	0.0145876
997.903	0.0145087
997.981	0.0146861
998.059	0.0146264
998.137	0.0146465
998.215	0.0146152
998.293	0.0146242
998.371	0.0147321
998.450	0.0146255
998.528	0.0146665
998.606	0.0145514
998.684	0.0146342
998.762	0.0146517
998.840	0.0146818
998.918	0.0146699
