05/04/2022	21:07:22	Ver.	4.1	UNKNOWN
Optical Delay	678.996401	Delta X		0.078125	Sweeps	1	Scan Rate	0/0
Coordinates	Axis 1	NaN	Axis 2	NaN	Axis 3	NaN	Axis 4	NaN	Axis 5	NaN	Axis 6	0.000000
TX Power	0.000000	RX Power	0.000000

678.996	0.0149240
679.075	0.0150163
679.153	0.0150079
679.231	0.0149221
679.309	0.0148560
679.387	0.0150307
679.465	0.0148461
679.543	0.0150340
679.621	0.0150122
679.700	0.0148334
679.778	0.0150766
679.856	0.0150551
679.934	0.0149574
680.012	0.0148638
680.090	0.0151208
680.168	0.0149736
680.246	0.0149686
680.325	0.0149567
680.403	0.0149702
680.481	0.0149635
680.559	0.0148474
680.637	0.0150710
680.715	0.0149701
680.793	0.0148936
680.871	0.0150362
680.950	0.0149541
681.028	0.0149078
681.106	0.0148071
681.184	0.0150222
681.262	0.0149923
681.340	0.0149306
681.418	0.0149551
681.496	0.0150092
681.575	0.0150217
681.653	0.0149681
681.731	0.0147537
681.809	0.0149065
681.887	0.0148656
681.965	0.0149300
682.043	0.0148737
682.121	0.0149404
682.200	0.0150471
682.278	0.0148941
682.356	0.0149187
682.434	0.0148647
682.512	0.0149097
682.590	0.0149158
682.668	0.0150023
682.746	0.0150203
682.825	0.0149308
682.903	0.0149601
682.981	0.0149483
683.059	0.0148594
683.137	0.0148809
683.215	0.0150140
683.293	0.0149548
683.371	0.0150230
683.450	0.0149555
683.528	0.0149126
683.606	0.0147247
683.684	0.0148782
683.762	0.0148476
683.840	0.0148086
683.918	0.0148226
683.996	0.0148318
684.075	0.0149797
684.153	0.0148840
684.231	0.0149371
684.309	0.0148804
684.387	0.0147675
684.465	0.0148232
684.543	0.0150024
684.621	0.0150126
684.700	0.0149157
684.778	0.0148306
684.856	0.0148606
684.934	0.0149354
685.012	0.0148867
685.090	0.0147710
685.168	0.0149026
685.246	0.0149418
685.325	0.0148489
685.403	0.0150361
685.481	0.0149284
685.559	0.0148799
685.637	0.0148915
685.715	0.0150401
685.793	0.0148997
685.871	0.0148325
685.950	0.0149513
686.028	0.0148035
686.106	0.0150392
686.184	0.0150400
686.262	0.0147932
686.340	0.0148745
686.418	0.0149586
686.496	0.0148116
686.575	0.0149696
686.653	0.0149662
686.731	0.0149005
686.809	0.0148566
686.887	0.0148232
686.965	0.0147694
687.043	0.0147780
687.121	0.0149721
687.200	0.0148423
687.278	0.0149390
687.356	0.0150853
687.434	0.0150111
687.512	0.0149773
687.590	0.0149411
687.668	0.0149391
687.746	0.0150420
687.825	0.0149168
687.903	0.0148232
687.981	0.0149010
688.059	0.0148129
688.137	0.0148580
688.215	0.0150073
688.293	0.0148890
688.371	0.0148528
688.450	0.0149062
688.528	0.0149216
688.606	0.0149583
688.684	0.0148797
688.762	0.0148921
688.840	0.0149257
688.918	0.0149046
688.996	0.0148337
689.075	0.0149783
689.153	0.0149950
689.231	0.0147911
689.309	0.0149186
689.387	0.0149041
689.465	0.0149902
689.543	0.0150087
689.621	0.0147995
689.700	0.0148566
689.778	0.0149765
689.856	0.0149826
689.934	0.0149956
690.012	0.0149163
690.090	0.0149187
690.168	0.0149498
690.246	0.0147856
690.325	0.0149350
690.403	0.0149113
690.481	0.0149204
690.559	0.0148953
690.637	0.0148539
690.715	0.0149019
690.793	0.0148251
690.871	0.0149425
690.950	0.0151282
691.028	0.0150699
691.106	0.0147865
691.184	0.0150039
691.262	0.0148360
691.340	0.0148514
691.418	0.0149740
691.496	0.0148290
691.575	0.0148931
691.653	0.0149216
691.731	0.0148574
691.809	0.0148300
691.887	0.0148560
691.965	0.0148070
692.043	0.0149786
692.121	0.0149068
692.200	0.0149385
692.278	0.0148161
692.356	0.0149061
692.434	0.0149075
692.512	0.0149818
692.590	0.0149183
692.668	0.0150764
692.746	0.0149685
692.825	0.0151096
692.903	0.0150110
692.981	0.0150009
693.059	0.0150453
693.137	0.0150780
693.215	0.0149142
693.293	0.0150158
693.371	0.0149828
693.450	0.0149557
693.528	0.0149091
693.606	0.0149008
693.684	0.0150056
693.762	0.0149608
693.840	0.0148051
693.918	0.0149746
693.996	0.0148990
694.075	0.0150069
694.153	0.0150184
694.231	0.0148428
694.309	0.0148457
694.387	0.0150130
694.465	0.0149560
694.543	0.0150130
694.621	0.0150096
694.700	0.0150729
694.778	0.0150935
694.856	0.0149709
694.934	0.0150009
695.012	0.0150822
695.090	0.0150931
695.168	0.0150076
695.246	0.0149732
695.325	0.0150611
695.403	0.0150999
695.481	0.0148475
695.559	0.0149638
695.637	0.0150061
695.715	0.0150471
695.793	0.0149796
695.871	0.0149203
695.950	0.0148786
696.028	0.0148425
696.106	0.0148775
696.184	0.0148651
696.262	0.0149638
696.340	0.0149635
696.418	0.0147879
696.496	0.0147578
696.575	0.0150004
696.653	0.0149995
696.731	0.0148832
696.809	0.0149458
696.887	0.0150266
696.965	0.0148905
697.043	0.0149523
697.121	0.0149017
697.200	0.0149166
697.278	0.0149209
697.356	0.0149796
697.434	0.0148862
697.512	0.0150314
697.590	0.0149257
697.668	0.0149780
697.746	0.0149874
697.825	0.0148267
697.903	0.0149575
697.981	0.0148517
698.059	0.0148129
698.137	0.0147511
698.215	0.0147637
698.293	0.0148699
698.371	0.0147872
698.450	0.0148241
698.528	0.0150394
698.606	0.0147733
698.684	0.0149190
698.762	0.0148492
698.840	0.0148820
698.918	0.0150095
698.996	0.0149926
699.075	0.0150551
699.153	0.0151032
699.231	0.0151643
699.309	0.0150723
699.387	0.0150182
699.465	0.0150153
699.543	0.0151877
699.621	0.0151053
699.700	0.0151128
699.778	0.0151234
699.856	0.0150938
699.934	0.0150999
700.012	0.0149839
700.090	0.0150108
700.168	0.0151588
700.246	0.0150908
700.325	0.0150803
700.403	0.0148418
700.481	0.0148925
700.559	0.0149109
700.637	0.0149945
700.715	0.0148872
700.793	0.0148612
700.871	0.0148817
700.950	0.0147688
701.028	0.0148013
701.106	0.0147976
701.184	0.0147244
701.262	0.0148430
701.340	0.0148011
701.418	0.0148437
701.496	0.0150118
701.575	0.0148877
701.653	0.0148915
701.731	0.0149884
701.809	0.0149998
701.887	0.0149154
701.965	0.0149055
702.043	0.0150077
702.121	0.0148709
702.200	0.0149271
702.278	0.0148766
702.356	0.0149592
702.434	0.0150499
702.512	0.0149718
702.590	0.0150671
702.668	0.0149268
702.746	0.0149593
702.825	0.0148764
702.903	0.0148627
702.981	0.0146764
703.059	0.0148029
703.137	0.0148178
703.215	0.0148212
703.293	0.0149126
703.371	0.0147749
703.450	0.0148164
703.528	0.0150043
703.606	0.0150187
703.684	0.0149698
703.762	0.0148893
703.840	0.0148377
703.918	0.0146049
703.996	0.0147059
704.075	0.0146050
704.153	0.0145040
704.231	0.0146477
704.309	0.0145020
704.387	0.0145068
704.465	0.0146440
704.543	0.0147141
704.621	0.0147493
704.700	0.0148273
704.778	0.0147713
704.856	0.0150132
704.934	0.0151768
705.012	0.0151757
705.090	0.0151106
705.168	0.0151089
705.246	0.0154227
705.325	0.0154214
705.403	0.0154757
705.481	0.0154829
705.559	0.0155235
705.637	0.0153754
705.715	0.0152097
705.793	0.0151641
705.871	0.0151662
705.950	0.0149249
706.028	0.0149286
706.106	0.0147297
706.184	0.0147475
706.262	0.0147966
706.340	0.0146848
706.418	0.0145476
706.496	0.0143598
706.575	0.0142422
706.653	0.0142545
706.731	0.0141452
706.809	0.0141920
706.887	0.0140987
706.965	0.0141694
707.043	0.0141946
707.121	0.0141623
707.200	0.0143099
707.278	0.0145141
707.356	0.0146706
707.434	0.0148713
707.512	0.0152902
707.590	0.0153976
707.668	0.0154419
707.746	0.0156390
707.825	0.0157293
707.903	0.0158201
707.981	0.0156867
708.059	0.0155264
708.137	0.0155086
708.215	0.0156857
708.293	0.0157141
708.371	0.0156645
708.450	0.0156740
708.528	0.0155364
708.606	0.0155000
708.684	0.0154053
708.762	0.0152967
708.840	0.0149876
708.918	0.0147167
708.996	0.0143510
709.075	0.0139555
709.153	0.0137863
709.231	0.0137012
709.309	0.0135628
709.387	0.0135365
709.465	0.0136932
709.543	0.0137034
709.621	0.0137919
709.700	0.0138523
709.778	0.0139024
709.856	0.0141337
709.934	0.0143356
710.012	0.0147260
710.090	0.0150980
710.168	0.0155484
710.246	0.0158067
710.325	0.0161724
710.403	0.0162993
710.481	0.0166557
710.559	0.0164993
710.637	0.0164572
710.715	0.0163452
710.793	0.0161877
710.871	0.0159560
710.950	0.0157117
711.028	0.0153946
711.106	0.0151260
711.184	0.0151633
711.262	0.0150336
711.340	0.0149828
711.418	0.0149033
711.496	0.0150075
711.575	0.0149151
711.653	0.0149062
711.731	0.0148016
711.809	0.0146393
711.887	0.0143401
711.965	0.0140216
712.043	0.0136562
712.121	0.0135848
712.200	0.0134325
712.278	0.0131625
712.356	0.0130946
712.434	0.0133835
712.512	0.0134216
712.590	0.0136292
712.668	0.0140856
712.746	0.0143063
712.825	0.0148985
712.903	0.0152167
712.981	0.0158319
713.059	0.0162215
713.137	0.0165044
713.215	0.0168034
713.293	0.0166497
713.371	0.0166640
713.450	0.0166846
713.528	0.0164145
713.606	0.0161977
713.684	0.0159248
713.762	0.0154530
713.840	0.0153121
713.918	0.0152819
713.996	0.0151250
714.075	0.0150740
714.153	0.0150587
714.231	0.0149136
714.309	0.0150685
714.387	0.0148915
714.465	0.0145892
714.543	0.0145267
714.621	0.0142661
714.700	0.0139252
714.778	0.0137342
714.856	0.0137579
714.934	0.0135183
715.012	0.0133582
715.090	0.0134174
715.168	0.0133408
715.246	0.0133739
715.325	0.0137051
715.403	0.0137676
715.481	0.0139325
715.559	0.0143848
715.637	0.0147355
715.715	0.0150677
715.793	0.0155101
715.871	0.0156886
715.950	0.0161958
716.028	0.0165205
716.106	0.0166818
716.184	0.0169141
716.262	0.0166919
716.340	0.0165279
716.418	0.0163379
716.496	0.0159878
716.575	0.0155181
716.653	0.0151116
716.731	0.0147726
716.809	0.0144913
716.887	0.0143776
716.965	0.0142395
717.043	0.0143051
717.121	0.0142655
717.200	0.0142820
717.278	0.0144855
717.356	0.0144176
717.434	0.0144419
717.512	0.0146152
717.590	0.0146994
717.668	0.0146796
717.746	0.0145390
717.825	0.0145238
717.903	0.0144602
717.981	0.0144279
718.059	0.0144530
718.137	0.0144845
718.215	0.0145032
718.293	0.0143332
718.371	0.0144090
718.450	0.0144559
718.528	0.0144720
718.606	0.0147247
718.684	0.0149890
718.762	0.0151579
718.840	0.0154269
718.918	0.0155411
718.996	0.0158276
719.075	0.0157401
719.153	0.0160047
719.231	0.0157797
719.309	0.0157211
719.387	0.0154980
719.465	0.0151607
719.543	0.0148251
719.621	0.0146236
719.700	0.0143328
719.778	0.0139855
719.856	0.0140404
719.934	0.0141640
720.012	0.0140752
720.090	0.0142989
720.168	0.0145244
720.246	0.0147730
720.325	0.0150180
720.403	0.0152821
720.481	0.0153319
720.559	0.0155724
720.637	0.0155109
720.715	0.0155586
720.793	0.0153768
720.871	0.0152567
720.950	0.0152116
721.028	0.0151978
721.106	0.0149383
721.184	0.0147847
721.262	0.0145410
721.340	0.0143784
721.418	0.0143289
721.496	0.0144452
721.575	0.0146077
721.653	0.0147554
721.731	0.0149677
721.809	0.0150823
721.887	0.0152766
721.965	0.0154595
722.043	0.0156686
722.121	0.0156923
722.200	0.0156007
722.278	0.0153465
722.356	0.0153327
722.434	0.0153208
722.512	0.0149766
722.590	0.0147407
722.668	0.0145454
722.746	0.0146543
722.825	0.0143592
722.903	0.0142661
722.981	0.0141094
723.059	0.0141128
723.137	0.0140997
723.215	0.0143470
723.293	0.0144250
723.371	0.0145741
723.450	0.0146840
723.528	0.0148631
723.606	0.0149245
723.684	0.0150632
723.762	0.0151521
723.840	0.0153012
723.918	0.0152316
723.996	0.0153012
724.075	0.0153416
724.153	0.0152888
724.231	0.0152279
724.309	0.0152750
724.387	0.0153195
724.465	0.0154778
724.543	0.0155235
724.621	0.0154938
724.700	0.0153683
724.778	0.0154967
724.856	0.0155395
724.934	0.0155119
725.012	0.0154227
725.090	0.0154974
725.168	0.0154221
725.246	0.0154028
725.325	0.0154829
725.403	0.0153024
725.481	0.0149506
725.559	0.0149088
725.637	0.0147571
725.715	0.0146275
725.793	0.0142979
725.871	0.0140420
725.950	0.0136634
726.028	0.0136980
726.106	0.0135430
726.184	0.0133971
726.262	0.0134860
726.340	0.0136538
726.418	0.0139154
726.496	0.0142171
726.575	0.0143922
726.653	0.0146708
726.731	0.0150733
726.809	0.0152637
726.887	0.0154274
726.965	0.0155547
727.043	0.0157978
727.121	0.0157766
727.200	0.0158274
727.278	0.0156388
727.356	0.0156974
727.434	0.0156036
727.512	0.0154584
727.590	0.0154084
727.668	0.0155388
727.746	0.0151334
727.825	0.0152834
727.903	0.0151555
727.981	0.0153973
728.059	0.0154070
728.137	0.0153011
728.215	0.0153588
728.293	0.0154661
728.371	0.0153184
728.450	0.0151162
728.528	0.0149093
728.606	0.0148338
728.684	0.0146394
728.762	0.0145432
728.840	0.0143421
728.918	0.0141182
728.996	0.0140691
729.075	0.0140060
729.153	0.0139104
729.231	0.0138416
729.309	0.0139824
729.387	0.0141618
729.465	0.0141737
729.543	0.0143976
729.621	0.0145977
729.700	0.0148090
729.778	0.0149615
729.856	0.0151894
729.934	0.0153797
730.012	0.0153618
730.090	0.0154145
730.168	0.0154323
730.246	0.0153399
730.325	0.0154234
730.403	0.0152029
730.481	0.0151132
730.559	0.0150324
730.637	0.0150889
730.715	0.0150368
730.793	0.0149216
730.871	0.0149500
730.950	0.0150021
731.028	0.0152451
731.106	0.0151497
731.184	0.0151723
731.262	0.0152826
731.340	0.0153204
731.418	0.0152797
731.496	0.0152784
731.575	0.0150342
731.653	0.0150313
731.731	0.0150089
731.809	0.0149223
731.887	0.0149313
731.965	0.0148598
732.043	0.0148113
732.121	0.0148292
732.200	0.0146490
732.278	0.0146609
732.356	0.0147215
732.434	0.0147829
732.512	0.0145209
732.590	0.0146249
732.668	0.0146149
732.746	0.0147102
732.825	0.0146790
732.903	0.0145781
732.981	0.0146075
733.059	0.0146655
733.137	0.0146819
733.215	0.0147677
733.293	0.0148165
733.371	0.0148233
733.450	0.0146896
733.528	0.0147123
733.606	0.0147982
733.684	0.0148319
733.762	0.0148443
733.840	0.0150288
733.918	0.0149451
733.996	0.0149842
734.075	0.0151809
734.153	0.0152751
734.231	0.0152152
734.309	0.0153964
734.387	0.0152396
734.465	0.0152915
734.543	0.0153435
734.621	0.0151426
734.700	0.0154416
734.778	0.0155127
734.856	0.0153660
734.934	0.0152358
735.012	0.0152202
735.090	0.0152463
735.168	0.0151279
735.246	0.0149731
735.325	0.0149494
735.403	0.0147936
735.481	0.0146404
735.559	0.0145783
735.637	0.0144760
735.715	0.0144486
735.793	0.0142425
735.871	0.0143852
735.950	0.0144811
736.028	0.0143599
736.106	0.0145926
736.184	0.0146613
736.262	0.0146870
736.340	0.0148254
736.418	0.0149508
736.496	0.0152234
736.575	0.0152615
736.653	0.0153592
736.731	0.0154234
736.809	0.0155477
736.887	0.0154868
736.965	0.0154845
737.043	0.0153680
737.121	0.0154188
737.200	0.0155096
737.278	0.0152684
737.356	0.0152936
737.434	0.0152494
737.512	0.0150587
737.590	0.0150473
737.668	0.0149732
737.746	0.0148692
737.825	0.0146123
737.903	0.0144852
737.981	0.0146060
738.059	0.0144955
738.137	0.0145489
738.215	0.0145238
738.293	0.0143832
738.371	0.0142713
738.450	0.0143834
738.528	0.0143658
738.606	0.0144466
738.684	0.0143754
738.762	0.0143342
738.840	0.0145042
738.918	0.0146220
738.996	0.0146751
739.075	0.0147153
739.153	0.0148782
739.231	0.0149981
739.309	0.0151138
739.387	0.0152899
739.465	0.0154827
739.543	0.0154847
739.621	0.0155638
739.700	0.0155704
739.778	0.0157697
739.856	0.0158719
739.934	0.0155242
740.012	0.0154539
740.090	0.0153661
740.168	0.0153106
740.246	0.0152316
740.325	0.0150737
740.403	0.0149355
740.481	0.0147552
740.559	0.0146812
740.637	0.0146239
740.715	0.0145068
740.793	0.0143702
740.871	0.0142708
740.950	0.0144456
741.028	0.0144646
741.106	0.0143187
741.184	0.0143016
741.262	0.0143705
741.340	0.0145064
741.418	0.0145557
741.496	0.0145942
741.575	0.0147078
741.653	0.0147189
741.731	0.0148825
741.809	0.0150072
741.887	0.0150057
741.965	0.0150696
742.043	0.0151557
742.121	0.0152031
742.200	0.0151270
742.278	0.0153133
742.356	0.0153004
742.434	0.0153167
742.512	0.0152271
742.590	0.0151158
742.668	0.0150518
742.746	0.0149840
742.825	0.0149847
742.903	0.0150423
742.981	0.0147726
743.059	0.0148771
743.137	0.0148962
743.215	0.0147308
743.293	0.0148008
743.371	0.0147448
743.450	0.0147751
743.528	0.0146661
743.606	0.0147334
743.684	0.0147498
743.762	0.0147914
743.840	0.0149153
743.918	0.0149108
743.996	0.0148459
744.075	0.0150156
744.153	0.0149901
744.231	0.0150718
744.309	0.0150379
744.387	0.0151221
744.465	0.0151629
744.543	0.0152788
744.621	0.0151047
744.700	0.0150449
744.778	0.0152303
744.856	0.0150597
744.934	0.0151353
745.012	0.0151144
745.090	0.0148813
745.168	0.0149318
745.246	0.0148189
745.325	0.0149532
745.403	0.0148292
745.481	0.0147449
745.559	0.0147401
745.637	0.0146278
745.715	0.0146770
745.793	0.0146535
745.871	0.0146215
745.950	0.0146229
746.028	0.0146043
746.106	0.0146626
746.184	0.0146506
746.262	0.0147095
746.340	0.0148240
746.418	0.0148856
746.496	0.0148314
746.575	0.0149022
746.653	0.0149055
746.731	0.0150488
746.809	0.0150711
746.887	0.0152186
746.965	0.0152055
747.043	0.0152170
747.121	0.0152308
747.200	0.0152675
747.278	0.0152145
747.356	0.0151505
747.434	0.0151583
747.512	0.0152615
747.590	0.0149870
747.668	0.0151192
747.746	0.0150470
747.825	0.0148795
747.903	0.0150073
747.981	0.0148438
748.059	0.0148105
748.137	0.0147469
748.215	0.0146677
748.293	0.0146436
748.371	0.0147310
748.450	0.0148262
748.528	0.0147636
748.606	0.0148583
748.684	0.0148119
748.762	0.0147792
748.840	0.0149282
748.918	0.0149835
748.996	0.0149825
749.075	0.0149911
749.153	0.0149638
749.231	0.0150458
749.309	0.0149683
749.387	0.0150584
749.465	0.0149424
749.543	0.0150204
749.621	0.0149885
749.700	0.0149296
749.778	0.0150921
749.856	0.0151886
749.934	0.0150593
750.012	0.0151132
750.090	0.0149557
750.168	0.0149846
750.246	0.0150322
750.325	0.0150019
750.403	0.0150168
750.481	0.0148018
750.559	0.0148985
750.637	0.0146998
750.715	0.0147578
750.793	0.0147504
750.871	0.0146935
750.950	0.0147149
751.028	0.0147211
751.106	0.0147409
751.184	0.0145781
751.262	0.0147170
751.340	0.0146127
751.418	0.0147257
751.496	0.0147524
751.575	0.0147942
751.653	0.0147511
751.731	0.0150433
751.809	0.0150584
751.887	0.0150703
751.965	0.0151646
752.043	0.0151596
752.121	0.0151250
752.200	0.0152472
752.278	0.0152001
752.356	0.0150625
752.434	0.0150552
752.512	0.0150568
752.590	0.0150468
752.668	0.0149666
752.746	0.0149417
752.825	0.0149434
752.903	0.0149425
752.981	0.0150680
753.059	0.0148434
753.137	0.0147005
753.215	0.0146279
753.293	0.0147515
753.371	0.0147133
753.450	0.0146710
753.528	0.0147433
753.606	0.0145573
753.684	0.0146402
753.762	0.0146798
753.840	0.0145686
753.918	0.0147876
753.996	0.0147544
754.075	0.0148596
754.153	0.0150139
754.231	0.0150146
754.309	0.0148017
754.387	0.0149744
754.465	0.0149558
754.543	0.0150090
754.621	0.0150909
754.700	0.0151157
754.778	0.0151156
754.856	0.0150907
754.934	0.0150081
755.012	0.0150658
755.090	0.0149897
755.168	0.0149834
755.246	0.0148765
755.325	0.0148403
755.403	0.0149987
755.481	0.0149408
755.559	0.0148042
755.637	0.0148422
755.715	0.0149012
755.793	0.0147558
755.871	0.0147352
755.950	0.0147417
756.028	0.0150644
756.106	0.0149409
756.184	0.0149221
756.262	0.0149356
756.340	0.0150529
756.418	0.0149415
756.496	0.0149436
756.575	0.0150681
756.653	0.0149804
756.731	0.0150312
756.809	0.0148409
756.887	0.0150932
756.965	0.0148582
757.043	0.0148409
757.121	0.0149681
757.200	0.0148812
757.278	0.0149812
757.356	0.0149085
757.434	0.0151070
757.512	0.0149848
757.590	0.0147138
757.668	0.0149530
757.746	0.0149646
757.825	0.0149931
757.903	0.0148638
757.981	0.0148390
758.059	0.0149169
758.137	0.0147707
758.215	0.0149414
758.293	0.0149008
758.371	0.0150458
758.450	0.0148112
758.528	0.0148835
758.606	0.0149491
758.684	0.0151359
758.762	0.0149849
758.840	0.0150376
758.918	0.0149926
758.996	0.0150074
759.075	0.0150832
759.153	0.0149619
759.231	0.0149573
759.309	0.0150790
759.387	0.0151143
759.465	0.0150960
759.543	0.0151173
759.621	0.0153161
759.700	0.0151646
759.778	0.0150679
759.856	0.0148472
759.934	0.0149886
760.012	0.0150706
760.090	0.0148518
760.168	0.0149512
760.246	0.0149545
760.325	0.0148608
760.403	0.0148504
760.481	0.0146671
760.559	0.0148788
760.637	0.0148900
760.715	0.0148058
760.793	0.0148632
760.871	0.0146704
760.950	0.0146061
761.028	0.0146841
761.106	0.0147517
761.184	0.0146165
761.262	0.0146133
761.340	0.0146455
761.418	0.0145778
761.496	0.0145425
761.575	0.0145827
761.653	0.0147601
761.731	0.0148202
761.809	0.0147828
761.887	0.0147385
761.965	0.0148890
762.043	0.0149640
762.121	0.0149323
762.200	0.0149963
762.278	0.0151746
762.356	0.0150513
762.434	0.0151562
762.512	0.0152972
762.590	0.0152112
762.668	0.0153423
762.746	0.0152638
762.825	0.0153197
762.903	0.0151067
762.981	0.0151534
763.059	0.0152486
763.137	0.0151914
763.215	0.0150693
763.293	0.0148541
763.371	0.0149222
763.450	0.0148986
763.528	0.0148160
763.606	0.0148830
763.684	0.0147672
763.762	0.0147174
763.840	0.0147192
763.918	0.0147644
763.996	0.0147450
764.075	0.0146384
764.153	0.0148171
764.231	0.0146797
764.309	0.0147243
764.387	0.0146884
764.465	0.0146615
764.543	0.0149483
764.621	0.0148805
764.700	0.0148186
764.778	0.0149385
764.856	0.0148987
764.934	0.0150043
765.012	0.0150308
765.090	0.0149845
765.168	0.0149804
765.246	0.0149616
765.325	0.0150867
765.403	0.0148937
765.481	0.0148443
765.559	0.0150610
765.637	0.0148873
765.715	0.0148680
765.793	0.0148844
765.871	0.0149893
765.950	0.0149209
766.028	0.0147762
766.106	0.0149064
766.184	0.0149590
766.262	0.0148717
766.340	0.0149297
766.418	0.0147909
766.496	0.0148431
766.575	0.0149861
766.653	0.0148539
766.731	0.0149950
766.809	0.0150444
766.887	0.0149113
766.965	0.0150045
767.043	0.0150616
767.121	0.0149783
767.200	0.0151779
767.278	0.0150571
767.356	0.0150460
767.434	0.0149156
767.512	0.0148914
767.590	0.0149602
767.668	0.0151685
767.746	0.0149770
767.825	0.0148964
767.903	0.0149219
767.981	0.0150771
768.059	0.0149297
768.137	0.0147841
768.215	0.0148473
768.293	0.0149193
768.371	0.0148211
768.450	0.0148773
768.528	0.0148994
768.606	0.0147660
768.684	0.0148837
768.762	0.0147881
768.840	0.0149783
768.918	0.0148490
768.996	0.0148391
769.075	0.0149211
769.153	0.0148347
769.231	0.0147890
769.309	0.0149213
769.387	0.0149197
769.465	0.0149276
769.543	0.0150178
769.621	0.0149895
769.700	0.0149045
769.778	0.0149134
769.856	0.0149274
769.934	0.0150859
770.012	0.0149786
770.090	0.0149980
770.168	0.0148686
770.246	0.0148895
770.325	0.0149065
770.403	0.0150839
770.481	0.0149840
770.559	0.0149986
770.637	0.0150403
770.715	0.0148450
770.793	0.0150150
770.871	0.0149160
770.950	0.0149385
771.028	0.0148382
771.106	0.0148024
771.184	0.0148884
771.262	0.0148291
771.340	0.0148157
771.418	0.0148273
771.496	0.0147790
771.575	0.0148278
771.653	0.0148764
771.731	0.0148302
771.809	0.0148146
771.887	0.0148743
771.965	0.0148286
772.043	0.0148766
772.121	0.0149126
772.200	0.0149483
772.278	0.0147855
772.356	0.0149281
772.434	0.0149966
772.512	0.0149145
772.590	0.0149262
772.668	0.0150700
772.746	0.0150114
772.825	0.0150611
772.903	0.0149763
772.981	0.0149890
773.059	0.0151503
773.137	0.0150354
773.215	0.0149055
773.293	0.0149979
773.371	0.0149561
773.450	0.0149251
773.528	0.0148750
773.606	0.0148169
773.684	0.0149290
773.762	0.0148565
773.840	0.0150160
773.918	0.0148801
773.996	0.0147985
774.075	0.0149173
774.153	0.0148401
774.231	0.0148002
774.309	0.0147714
774.387	0.0148686
774.465	0.0150214
774.543	0.0149057
774.621	0.0148314
774.700	0.0149336
774.778	0.0148055
774.856	0.0148431
774.934	0.0150127
775.012	0.0150717
775.090	0.0146973
775.168	0.0149368
775.246	0.0149820
775.325	0.0150254
775.403	0.0148722
775.481	0.0149741
775.559	0.0149773
775.637	0.0149219
775.715	0.0148808
775.793	0.0149173
775.871	0.0150254
775.950	0.0149627
776.028	0.0149685
776.106	0.0149965
776.184	0.0149768
776.262	0.0148186
776.340	0.0148050
776.418	0.0148647
776.496	0.0148090
776.575	0.0148803
776.653	0.0148155
776.731	0.0148788
776.809	0.0148766
776.887	0.0147108
776.965	0.0148074
777.043	0.0148473
777.121	0.0148944
777.200	0.0149143
777.278	0.0148956
777.356	0.0149036
777.434	0.0150554
777.512	0.0150557
777.590	0.0150552
777.668	0.0149926
777.746	0.0148797
777.825	0.0150323
777.903	0.0149710
777.981	0.0148489
778.059	0.0148882
778.137	0.0148875
778.215	0.0149149
778.293	0.0149851
778.371	0.0149372
778.450	0.0149413
778.528	0.0149953
778.606	0.0148994
778.684	0.0148691
778.762	0.0148932
778.840	0.0149695
778.918	0.0148571
778.996	0.0148860
779.075	0.0148506
779.153	0.0148382
779.231	0.0148357
779.309	0.0147762
779.387	0.0148839
779.465	0.0149798
779.543	0.0147328
779.621	0.0147263
779.700	0.0149956
779.778	0.0149625
779.856	0.0148145
779.934	0.0149918
780.012	0.0150465
780.090	0.0148976
780.168	0.0149808
780.246	0.0149021
780.325	0.0149635
780.403	0.0150132
780.481	0.0149275
780.559	0.0148778
780.637	0.0148042
780.715	0.0150237
780.793	0.0149729
780.871	0.0149291
780.950	0.0149227
781.028	0.0149973
781.106	0.0149076
781.184	0.0149329
781.262	0.0149190
781.340	0.0149031
781.418	0.0148725
781.496	0.0148823
781.575	0.0149593
781.653	0.0149712
781.731	0.0149525
781.809	0.0149355
781.887	0.0149259
781.965	0.0148727
782.043	0.0147063
782.121	0.0148534
782.200	0.0148965
782.278	0.0150317
782.356	0.0149586
782.434	0.0147865
782.512	0.0148733
782.590	0.0149318
782.668	0.0149848
782.746	0.0149138
782.825	0.0149844
782.903	0.0149722
782.981	0.0149353
783.059	0.0148913
783.137	0.0150336
783.215	0.0150138
783.293	0.0148965
783.371	0.0149342
783.450	0.0150446
783.528	0.0149027
783.606	0.0149342
783.684	0.0149689
783.762	0.0149213
783.840	0.0150487
783.918	0.0150001
783.996	0.0148346
784.075	0.0148972
784.153	0.0147371
784.231	0.0148533
784.309	0.0148061
784.387	0.0149230
784.465	0.0148554
784.543	0.0148421
784.621	0.0148284
784.700	0.0148729
784.778	0.0149372
784.856	0.0149387
784.934	0.0148231
785.012	0.0148730
785.090	0.0149004
785.168	0.0148284
785.246	0.0148071
785.325	0.0148502
785.403	0.0149170
785.481	0.0149331
785.559	0.0148940
785.637	0.0147780
785.715	0.0148341
785.793	0.0148392
785.871	0.0148508
785.950	0.0148605
786.028	0.0149335
786.106	0.0148872
786.184	0.0148362
786.262	0.0148875
786.340	0.0148015
786.418	0.0149148
786.496	0.0148088
786.575	0.0147841
786.653	0.0149028
786.731	0.0148325
786.809	0.0149356
786.887	0.0148916
786.965	0.0149445
787.043	0.0148845
787.121	0.0148157
787.200	0.0147311
787.278	0.0150568
787.356	0.0148697
787.434	0.0149612
787.512	0.0150860
787.590	0.0150455
787.668	0.0149522
787.746	0.0150155
787.825	0.0149820
787.903	0.0149901
787.981	0.0149604
788.059	0.0150024
788.137	0.0150597
788.215	0.0149392
788.293	0.0149789
788.371	0.0149401
788.450	0.0148957
788.528	0.0147836
788.606	0.0149872
788.684	0.0148946
788.762	0.0148911
788.840	0.0150008
788.918	0.0148507
788.996	0.0149701
789.075	0.0148666
789.153	0.0148889
789.231	0.0147287
789.309	0.0149182
789.387	0.0149237
789.465	0.0149893
789.543	0.0148952
789.621	0.0148475
789.700	0.0148564
789.778	0.0150157
789.856	0.0148112
789.934	0.0147795
790.012	0.0149279
790.090	0.0149630
790.168	0.0149303
790.246	0.0149761
790.325	0.0149432
790.403	0.0149583
790.481	0.0150349
790.559	0.0151003
790.637	0.0148996
790.715	0.0150697
790.793	0.0149852
790.871	0.0150282
790.950	0.0148440
791.028	0.0150270
791.106	0.0150051
791.184	0.0150217
791.262	0.0149037
791.340	0.0148145
791.418	0.0147685
791.496	0.0148255
791.575	0.0147913
791.653	0.0149329
791.731	0.0148910
791.809	0.0148590
791.887	0.0148565
791.965	0.0148296
792.043	0.0148848
792.121	0.0150153
792.200	0.0147610
792.278	0.0148206
792.356	0.0148512
792.434	0.0149205
792.512	0.0148236
792.590	0.0148632
792.668	0.0149269
792.746	0.0148345
792.825	0.0147433
792.903	0.0149793
792.981	0.0148676
793.059	0.0148866
793.137	0.0149030
793.215	0.0149168
793.293	0.0148929
793.371	0.0147731
793.450	0.0148798
793.528	0.0149498
793.606	0.0149135
793.684	0.0147348
793.762	0.0148398
793.840	0.0148696
793.918	0.0148659
793.996	0.0148249
794.075	0.0149541
794.153	0.0149142
794.231	0.0149102
794.309	0.0149260
794.387	0.0148946
794.465	0.0148926
794.543	0.0148869
794.621	0.0149285
794.700	0.0149524
794.778	0.0150971
794.856	0.0150759
794.934	0.0149821
795.012	0.0150025
795.090	0.0151648
795.168	0.0151226
795.246	0.0150428
795.325	0.0149285
795.403	0.0150330
795.481	0.0150128
795.559	0.0150822
795.637	0.0149915
795.715	0.0149140
795.793	0.0149422
795.871	0.0148795
795.950	0.0150027
796.028	0.0149142
796.106	0.0149723
796.184	0.0149095
796.262	0.0150588
796.340	0.0149454
796.418	0.0148557
796.496	0.0149378
796.575	0.0148174
796.653	0.0149380
796.731	0.0149556
796.809	0.0148656
796.887	0.0148936
796.965	0.0147914
797.043	0.0147555
797.121	0.0148295
797.200	0.0147919
797.278	0.0148990
797.356	0.0148766
797.434	0.0147645
797.512	0.0148212
797.590	0.0146485
797.668	0.0148165
797.746	0.0148229
797.825	0.0148149
797.903	0.0149133
797.981	0.0148005
798.059	0.0147436
798.137	0.0148240
798.215	0.0149561
798.293	0.0148377
798.371	0.0148859
798.450	0.0150542
798.528	0.0148716
798.606	0.0149148
798.684	0.0149497
798.762	0.0150275
798.840	0.0150334
798.918	0.0149741
798.996	0.0149524
799.075	0.0149226
799.153	0.0150286
799.231	0.0149770
799.309	0.0150309
799.387	0.0149135
799.465	0.0150006
799.543	0.0148992
799.621	0.0149110
799.700	0.0149441
799.778	0.0149622
799.856	0.0149649
799.934	0.0147796
800.012	0.0147828
800.090	0.0149513
800.168	0.0148634
800.246	0.0148308
800.325	0.0149112
800.403	0.0147720
800.481	0.0149046
800.559	0.0148792
800.637	0.0148514
800.715	0.0150218
800.793	0.0149478
800.871	0.0148425
800.950	0.0147864
801.028	0.0149374
801.106	0.0151031
801.184	0.0149992
801.262	0.0148897
801.340	0.0150558
801.418	0.0148977
801.496	0.0150321
801.575	0.0150451
801.653	0.0149685
801.731	0.0150320
801.809	0.0150256
801.887	0.0148932
801.965	0.0150060
802.043	0.0149690
802.121	0.0149926
802.200	0.0149044
802.278	0.0148720
802.356	0.0149242
802.434	0.0148293
802.512	0.0149611
802.590	0.0150736
802.668	0.0148320
802.746	0.0148756
802.825	0.0149152
802.903	0.0148021
802.981	0.0148587
803.059	0.0149769
803.137	0.0149346
803.215	0.0149201
803.293	0.0149703
803.371	0.0148888
803.450	0.0150134
803.528	0.0149609
803.606	0.0149442
803.684	0.0149395
803.762	0.0150524
803.840	0.0149934
803.918	0.0150151
803.996	0.0149265
804.075	0.0149335
804.153	0.0150284
804.231	0.0151077
804.309	0.0149656
804.387	0.0150762
804.465	0.0149050
804.543	0.0148977
804.621	0.0149813
804.700	0.0149391
804.778	0.0148813
804.856	0.0150383
804.934	0.0149456
805.012	0.0147819
805.090	0.0147868
805.168	0.0148345
805.246	0.0147907
805.325	0.0147355
805.403	0.0146845
805.481	0.0147424
805.559	0.0146016
805.637	0.0148235
805.715	0.0147739
805.793	0.0146877
805.871	0.0147958
805.950	0.0149495
806.028	0.0150025
806.106	0.0148679
806.184	0.0149419
806.262	0.0148295
806.340	0.0149219
806.418	0.0150755
806.496	0.0149236
806.575	0.0150845
806.653	0.0152464
806.731	0.0151511
806.809	0.0150598
806.887	0.0151905
806.965	0.0151155
807.043	0.0149570
807.121	0.0151490
807.200	0.0151149
807.278	0.0149641
807.356	0.0148521
807.434	0.0149804
807.512	0.0149548
807.590	0.0149812
807.668	0.0149171
807.746	0.0148956
807.825	0.0148370
807.903	0.0149728
807.981	0.0149918
808.059	0.0147289
808.137	0.0148965
808.215	0.0148646
808.293	0.0147840
808.371	0.0147644
808.450	0.0147433
808.528	0.0147630
808.606	0.0147499
808.684	0.0146901
808.762	0.0146881
808.840	0.0147172
808.918	0.0148178
808.996	0.0148009
809.075	0.0149636
809.153	0.0149596
809.231	0.0149297
809.309	0.0149805
809.387	0.0150076
809.465	0.0151455
809.543	0.0151672
809.621	0.0151083
809.700	0.0148768
809.778	0.0150900
809.856	0.0149076
809.934	0.0149297
810.012	0.0149249
810.090	0.0149404
810.168	0.0148083
810.246	0.0148484
810.325	0.0149302
810.403	0.0149480
810.481	0.0148929
810.559	0.0148528
810.637	0.0148615
810.715	0.0148409
810.793	0.0148297
810.871	0.0147891
810.950	0.0147882
811.028	0.0147886
811.106	0.0147204
811.184	0.0148524
811.262	0.0148199
811.340	0.0148375
811.418	0.0147717
811.496	0.0147276
811.575	0.0148574
811.653	0.0147936
811.731	0.0148472
811.809	0.0147980
811.887	0.0148571
811.965	0.0148526
812.043	0.0148701
812.121	0.0149133
812.200	0.0151504
812.278	0.0150834
812.356	0.0149669
812.434	0.0148294
812.512	0.0149121
812.590	0.0150086
812.668	0.0149996
812.746	0.0149106
812.825	0.0148492
812.903	0.0148958
812.981	0.0147366
813.059	0.0147581
813.137	0.0148148
813.215	0.0147417
813.293	0.0148215
813.371	0.0148587
813.450	0.0147485
813.528	0.0147633
813.606	0.0147321
813.684	0.0149294
813.762	0.0147950
813.840	0.0147605
813.918	0.0148608
813.996	0.0148945
814.075	0.0147443
814.153	0.0149305
814.231	0.0148154
814.309	0.0149735
814.387	0.0149604
814.465	0.0149257
814.543	0.0148295
814.621	0.0148393
814.700	0.0149332
814.778	0.0149283
814.856	0.0148746
814.934	0.0149620
815.012	0.0148886
815.090	0.0149155
815.168	0.0150436
815.246	0.0150108
815.325	0.0150249
815.403	0.0150364
815.481	0.0149608
815.559	0.0149317
815.637	0.0148650
815.715	0.0149596
815.793	0.0149217
815.871	0.0149525
815.950	0.0148214
816.028	0.0147446
816.106	0.0148967
816.184	0.0148305
816.262	0.0147939
816.340	0.0147362
816.418	0.0148009
816.496	0.0150211
816.575	0.0147738
816.653	0.0149589
816.731	0.0149771
816.809	0.0148748
816.887	0.0150074
816.965	0.0148110
817.043	0.0149181
817.121	0.0148932
817.200	0.0149300
817.278	0.0149534
817.356	0.0149773
817.434	0.0148769
817.512	0.0149400
817.590	0.0147772
817.668	0.0148684
817.746	0.0148649
817.825	0.0148106
817.903	0.0148788
817.981	0.0148986
818.059	0.0149978
818.137	0.0148837
818.215	0.0148430
818.293	0.0147981
818.371	0.0148658
818.450	0.0148457
818.528	0.0148753
818.606	0.0148949
818.684	0.0149143
818.762	0.0148656
818.840	0.0147260
818.918	0.0146990
818.996	0.0146781
819.075	0.0148306
819.153	0.0148318
819.231	0.0148496
819.309	0.0148145
819.387	0.0147200
819.465	0.0148116
819.543	0.0150226
819.621	0.0148479
819.700	0.0148586
819.778	0.0148441
819.856	0.0148190
819.934	0.0148564
820.012	0.0149813
820.090	0.0149439
820.168	0.0150719
820.246	0.0150526
820.325	0.0148830
820.403	0.0148739
820.481	0.0149222
820.559	0.0148514
820.637	0.0148890
820.715	0.0150012
820.793	0.0149969
820.871	0.0149506
820.950	0.0149238
821.028	0.0149563
821.106	0.0148708
821.184	0.0148203
821.262	0.0149274
821.340	0.0148775
821.418	0.0149729
821.496	0.0148289
821.575	0.0148682
821.653	0.0148618
821.731	0.0148018
821.809	0.0149440
821.887	0.0150322
821.965	0.0149358
822.043	0.0150177
822.121	0.0149699
822.200	0.0148325
822.278	0.0149091
822.356	0.0149707
822.434	0.0150036
822.512	0.0148557
822.590	0.0147800
822.668	0.0148455
822.746	0.0151093
822.825	0.0150837
822.903	0.0149470
822.981	0.0148495
823.059	0.0149224
823.137	0.0150401
823.215	0.0148965
823.293	0.0148915
823.371	0.0149042
823.450	0.0149353
823.528	0.0147926
823.606	0.0147723
823.684	0.0149728
823.762	0.0149924
823.840	0.0150050
823.918	0.0149997
823.996	0.0146520
824.075	0.0150022
824.153	0.0149671
824.231	0.0147478
824.309	0.0148995
824.387	0.0149539
824.465	0.0148195
824.543	0.0150077
824.621	0.0149529
824.700	0.0149469
824.778	0.0150002
824.856	0.0149360
824.934	0.0149370
825.012	0.0150060
825.090	0.0148310
825.168	0.0149422
825.246	0.0150128
825.325	0.0148913
825.403	0.0150614
825.481	0.0149800
825.559	0.0149725
825.637	0.0149581
825.715	0.0149355
825.793	0.0148569
825.871	0.0147887
825.950	0.0149699
826.028	0.0149724
826.106	0.0149570
826.184	0.0149363
826.262	0.0148940
826.340	0.0148262
826.418	0.0148793
826.496	0.0148751
826.575	0.0148257
826.653	0.0148797
826.731	0.0147534
826.809	0.0148824
826.887	0.0151211
826.965	0.0150021
827.043	0.0150142
827.121	0.0149101
827.200	0.0148266
827.278	0.0150391
827.356	0.0151096
827.434	0.0148612
827.512	0.0150291
827.590	0.0151102
827.668	0.0149782
827.746	0.0149728
827.825	0.0150139
827.903	0.0150741
827.981	0.0150560
828.059	0.0150255
828.137	0.0150085
828.215	0.0149709
828.293	0.0149844
828.371	0.0149466
828.450	0.0150060
828.528	0.0148354
828.606	0.0150456
828.684	0.0148252
828.762	0.0149291
828.840	0.0148734
828.918	0.0149806
828.996	0.0147787
829.075	0.0149130
829.153	0.0149231
829.231	0.0148401
829.309	0.0149279
829.387	0.0148918
829.465	0.0148641
829.543	0.0149660
829.621	0.0148103
829.700	0.0148120
829.778	0.0148939
829.856	0.0150214
829.934	0.0147878
830.012	0.0149110
830.090	0.0150985
830.168	0.0149938
830.246	0.0149313
830.325	0.0147410
830.403	0.0147813
830.481	0.0150059
830.559	0.0148376
830.637	0.0149114
830.715	0.0148484
830.793	0.0147887
830.871	0.0149502
830.950	0.0148040
831.028	0.0148901
831.106	0.0149845
831.184	0.0149020
831.262	0.0149740
831.340	0.0148589
831.418	0.0148786
831.496	0.0149621
831.575	0.0148981
831.653	0.0148624
831.731	0.0148566
831.809	0.0148579
831.887	0.0151173
831.965	0.0148801
832.043	0.0148825
832.121	0.0149552
832.200	0.0150226
832.278	0.0148329
832.356	0.0148199
832.434	0.0148464
832.512	0.0149606
832.590	0.0149673
832.668	0.0149700
832.746	0.0148875
832.825	0.0148456
832.903	0.0149785
832.981	0.0149761
833.059	0.0150748
833.137	0.0149495
833.215	0.0148306
833.293	0.0149135
833.371	0.0150356
833.450	0.0149442
833.528	0.0148426
833.606	0.0149203
833.684	0.0147553
833.762	0.0148657
833.840	0.0148373
833.918	0.0150374
833.996	0.0149433
834.075	0.0147775
834.153	0.0148777
834.231	0.0149001
834.309	0.0149414
834.387	0.0150262
834.465	0.0149914
834.543	0.0148234
834.621	0.0149133
834.700	0.0150280
834.778	0.0148708
834.856	0.0149704
834.934	0.0149702
835.012	0.0148071
835.090	0.0148162
835.168	0.0149792
835.246	0.0149161
835.325	0.0149007
835.403	0.0149283
835.481	0.0149743
835.559	0.0150179
835.637	0.0151120
835.715	0.0148258
835.793	0.0148538
835.871	0.0150114
835.950	0.0149141
836.028	0.0148887
836.106	0.0149937
836.184	0.0149727
836.262	0.0148521
836.340	0.0149840
836.418	0.0149374
836.496	0.0149467
836.575	0.0148390
836.653	0.0149582
836.731	0.0150059
836.809	0.0148502
836.887	0.0149120
836.965	0.0149828
837.043	0.0149249
837.121	0.0148918
837.200	0.0150015
837.278	0.0148624
837.356	0.0148449
837.434	0.0148257
837.512	0.0151096
837.590	0.0149209
837.668	0.0148154
837.746	0.0148087
837.825	0.0147541
837.903	0.0148914
837.981	0.0149484
838.059	0.0148528
838.137	0.0149774
838.215	0.0149229
838.293	0.0149335
838.371	0.0149168
838.450	0.0148891
838.528	0.0148750
838.606	0.0148698
838.684	0.0149374
838.762	0.0149633
838.840	0.0150576
838.918	0.0149549
838.996	0.0149033
839.075	0.0149406
839.153	0.0147770
839.231	0.0148826
839.309	0.0149551
839.387	0.0148814
839.465	0.0149323
839.543	0.0148293
839.621	0.0149515
839.700	0.0149296
839.778	0.0148407
839.856	0.0148011
839.934	0.0147645
840.012	0.0147377
840.090	0.0148205
840.168	0.0149033
840.246	0.0148486
840.325	0.0149606
840.403	0.0149088
840.481	0.0148826
840.559	0.0148495
840.637	0.0148737
840.715	0.0149648
840.793	0.0150089
840.871	0.0148461
840.950	0.0149289
841.028	0.0148866
841.106	0.0148838
841.184	0.0147789
841.262	0.0148933
841.340	0.0147956
841.418	0.0147964
841.496	0.0148756
841.575	0.0148708
841.653	0.0149240
841.731	0.0149902
841.809	0.0148299
841.887	0.0147010
841.965	0.0149018
842.043	0.0149489
842.121	0.0149005
842.200	0.0150213
842.278	0.0149188
842.356	0.0149066
842.434	0.0148316
842.512	0.0148336
842.590	0.0147269
842.668	0.0148019
842.746	0.0146282
842.825	0.0148273
842.903	0.0147704
842.981	0.0148267
843.059	0.0150233
843.137	0.0147420
843.215	0.0148019
843.293	0.0149355
843.371	0.0148522
843.450	0.0149078
843.528	0.0150539
843.606	0.0149682
843.684	0.0149970
843.762	0.0148804
843.840	0.0149355
843.918	0.0149169
843.996	0.0148854
844.075	0.0149815
844.153	0.0149531
844.231	0.0148276
844.309	0.0148785
844.387	0.0149336
844.465	0.0148618
844.543	0.0147866
844.621	0.0147928
844.700	0.0148975
844.778	0.0149056
844.856	0.0148956
844.934	0.0148861
845.012	0.0148199
845.090	0.0148269
845.168	0.0150198
845.246	0.0149261
845.325	0.0149898
845.403	0.0149979
845.481	0.0149567
845.559	0.0147639
845.637	0.0147752
845.715	0.0149146
845.793	0.0149555
845.871	0.0148941
845.950	0.0148598
846.028	0.0148589
846.106	0.0147135
846.184	0.0149400
846.262	0.0148230
846.340	0.0148566
846.418	0.0149207
846.496	0.0148769
846.575	0.0149018
846.653	0.0150943
846.731	0.0149842
846.809	0.0149244
846.887	0.0149374
846.965	0.0147619
847.043	0.0148492
847.121	0.0150387
847.200	0.0148122
847.278	0.0148338
847.356	0.0148002
847.434	0.0148943
847.512	0.0149073
847.590	0.0147339
847.668	0.0147223
847.746	0.0148735
847.825	0.0147402
847.903	0.0148089
847.981	0.0149905
848.059	0.0150594
848.137	0.0149389
848.215	0.0149368
848.293	0.0149400
848.371	0.0150700
848.450	0.0150278
848.528	0.0149097
848.606	0.0149382
848.684	0.0149614
848.762	0.0150121
848.840	0.0150871
848.918	0.0150179
848.996	0.0149876
849.075	0.0149805
849.153	0.0148740
849.231	0.0149421
849.309	0.0149107
849.387	0.0148506
849.465	0.0148611
849.543	0.0148761
849.621	0.0149289
849.700	0.0148327
849.778	0.0149115
849.856	0.0148902
849.934	0.0149223
850.012	0.0149389
850.090	0.0148446
850.168	0.0148512
850.246	0.0148299
850.325	0.0148637
850.403	0.0148466
850.481	0.0150747
850.559	0.0149207
850.637	0.0149045
850.715	0.0149049
850.793	0.0150465
850.871	0.0149052
850.950	0.0149379
851.028	0.0149519
851.106	0.0149702
851.184	0.0149557
851.262	0.0149818
851.340	0.0149475
851.418	0.0150576
851.496	0.0149831
851.575	0.0150806
851.653	0.0149820
851.731	0.0148680
851.809	0.0149417
851.887	0.0150201
851.965	0.0149046
852.043	0.0150051
852.121	0.0149446
852.200	0.0147921
852.278	0.0148285
852.356	0.0148493
852.434	0.0148648
852.512	0.0147716
852.590	0.0147027
852.668	0.0148317
852.746	0.0148077
852.825	0.0147739
852.903	0.0148627
852.981	0.0148158
853.059	0.0148227
853.137	0.0147924
853.215	0.0148586
853.293	0.0149799
853.371	0.0148965
853.450	0.0150536
853.528	0.0149408
853.606	0.0148627
853.684	0.0148404
853.762	0.0148117
853.840	0.0150116
853.918	0.0149690
853.996	0.0150467
854.075	0.0148331
854.153	0.0149236
854.231	0.0150366
854.309	0.0149602
854.387	0.0147987
854.465	0.0151530
854.543	0.0147945
854.621	0.0147786
854.700	0.0147828
854.778	0.0147977
854.856	0.0148804
854.934	0.0148535
855.012	0.0148277
855.090	0.0149009
855.168	0.0148337
855.246	0.0149438
855.325	0.0148727
855.403	0.0148110
855.481	0.0148010
855.559	0.0149324
855.637	0.0147402
855.715	0.0148914
855.793	0.0148246
855.871	0.0149158
855.950	0.0149552
856.028	0.0149296
856.106	0.0148093
856.184	0.0148882
856.262	0.0148895
856.340	0.0150184
856.418	0.0149197
856.496	0.0147642
856.575	0.0148212
856.653	0.0149744
856.731	0.0149059
856.809	0.0149175
856.887	0.0149008
856.965	0.0148324
857.043	0.0148438
857.121	0.0149245
857.200	0.0148696
857.278	0.0148938
857.356	0.0148734
857.434	0.0147829
857.512	0.0149085
857.590	0.0149297
857.668	0.0149001
857.746	0.0149474
857.825	0.0147173
857.903	0.0148153
857.981	0.0147504
858.059	0.0147229
858.137	0.0148126
858.215	0.0149940
858.293	0.0148409
858.371	0.0147396
858.450	0.0148927
858.528	0.0149169
858.606	0.0147728
858.684	0.0147839
858.762	0.0148830
858.840	0.0149751
858.918	0.0149334
858.996	0.0149332
859.075	0.0148536
859.153	0.0148393
859.231	0.0148669
859.309	0.0148358
859.387	0.0148487
859.465	0.0150629
859.543	0.0149354
859.621	0.0148335
859.700	0.0148173
859.778	0.0147993
859.856	0.0148000
859.934	0.0149648
860.012	0.0148949
860.090	0.0149606
860.168	0.0148621
860.246	0.0149280
860.325	0.0148158
860.403	0.0150042
860.481	0.0147721
860.559	0.0146770
860.637	0.0148811
860.715	0.0149007
860.793	0.0148347
860.871	0.0148931
860.950	0.0148244
861.028	0.0147543
861.106	0.0148750
861.184	0.0148151
861.262	0.0148467
861.340	0.0149538
861.418	0.0148524
861.496	0.0147999
861.575	0.0148711
861.653	0.0147167
861.731	0.0148794
861.809	0.0149638
861.887	0.0147185
861.965	0.0147194
862.043	0.0149352
862.121	0.0147679
862.200	0.0147215
862.278	0.0149886
862.356	0.0149753
862.434	0.0148222
862.512	0.0147647
862.590	0.0150787
862.668	0.0148148
862.746	0.0149725
862.825	0.0148730
862.903	0.0149226
862.981	0.0149731
863.059	0.0149142
863.137	0.0148267
863.215	0.0148604
863.293	0.0148564
863.371	0.0149789
863.450	0.0149634
863.528	0.0148207
863.606	0.0148065
863.684	0.0149073
863.762	0.0148762
863.840	0.0147249
863.918	0.0147665
863.996	0.0148416
864.075	0.0148264
864.153	0.0147056
864.231	0.0147484
864.309	0.0147847
864.387	0.0147815
864.465	0.0147153
864.543	0.0148818
864.621	0.0148898
864.700	0.0148241
864.778	0.0148133
864.856	0.0146764
864.934	0.0147643
865.012	0.0148530
865.090	0.0148562
865.168	0.0148256
865.246	0.0149074
865.325	0.0148919
865.403	0.0149327
865.481	0.0150114
865.559	0.0149317
865.637	0.0149464
865.715	0.0149824
865.793	0.0149521
865.871	0.0149318
865.950	0.0149645
866.028	0.0149181
866.106	0.0149340
866.184	0.0149586
866.262	0.0149150
866.340	0.0149030
866.418	0.0149583
866.496	0.0149264
866.575	0.0149512
866.653	0.0148927
866.731	0.0146399
866.809	0.0148035
866.887	0.0149386
866.965	0.0146169
867.043	0.0148830
867.121	0.0148441
867.200	0.0148300
867.278	0.0148428
867.356	0.0147378
867.434	0.0148159
867.512	0.0148080
867.590	0.0148071
867.668	0.0149576
867.746	0.0147601
867.825	0.0148306
867.903	0.0148466
867.981	0.0149651
868.059	0.0148977
868.137	0.0149461
868.215	0.0150072
868.293	0.0150018
868.371	0.0149015
868.450	0.0148027
868.528	0.0148850
868.606	0.0150339
868.684	0.0148921
868.762	0.0149436
868.840	0.0151254
868.918	0.0149719
868.996	0.0147347
869.075	0.0148769
869.153	0.0149448
869.231	0.0149855
869.309	0.0149327
869.387	0.0148844
869.465	0.0147801
869.543	0.0149410
869.621	0.0148856
869.700	0.0148723
869.778	0.0148862
869.856	0.0149020
869.934	0.0149487
870.012	0.0150808
870.090	0.0149432
870.168	0.0149646
870.246	0.0149480
870.325	0.0149709
870.403	0.0147763
870.481	0.0149220
870.559	0.0150731
870.637	0.0149958
870.715	0.0149596
870.793	0.0149053
870.871	0.0148640
870.950	0.0149715
871.028	0.0150010
871.106	0.0147715
871.184	0.0148469
871.262	0.0149026
871.340	0.0148528
871.418	0.0149416
871.496	0.0148533
871.575	0.0148605
871.653	0.0150043
871.731	0.0147813
871.809	0.0148651
871.887	0.0149190
871.965	0.0147863
872.043	0.0149441
872.121	0.0148656
872.200	0.0148969
872.278	0.0147824
872.356	0.0149184
872.434	0.0148006
872.512	0.0149749
872.590	0.0149446
872.668	0.0149040
872.746	0.0147857
872.825	0.0149558
872.903	0.0149810
872.981	0.0149266
873.059	0.0150050
873.137	0.0149585
873.215	0.0148598
873.293	0.0148918
873.371	0.0149408
873.450	0.0149696
873.528	0.0149464
873.606	0.0147976
873.684	0.0149641
873.762	0.0150320
873.840	0.0150228
873.918	0.0149475
873.996	0.0150755
874.075	0.0149480
874.153	0.0150480
874.231	0.0150472
874.309	0.0149861
874.387	0.0149381
874.465	0.0149149
874.543	0.0149646
874.621	0.0150246
874.700	0.0149575
874.778	0.0148537
874.856	0.0147058
874.934	0.0148762
875.012	0.0148970
875.090	0.0147045
875.168	0.0149128
875.246	0.0149426
875.325	0.0148904
875.403	0.0148867
875.481	0.0148398
875.559	0.0148248
875.637	0.0147793
875.715	0.0147701
875.793	0.0148880
875.871	0.0150066
875.950	0.0150291
876.028	0.0147926
876.106	0.0148238
876.184	0.0148415
876.262	0.0148782
876.340	0.0149662
876.418	0.0147935
876.496	0.0148666
876.575	0.0147978
876.653	0.0149308
876.731	0.0149548
876.809	0.0148895
876.887	0.0148288
876.965	0.0147392
877.043	0.0147044
877.121	0.0148920
877.200	0.0147901
877.278	0.0147726
877.356	0.0148943
877.434	0.0148792
877.512	0.0148212
877.590	0.0148317
877.668	0.0148149
877.746	0.0148647
877.825	0.0148010
877.903	0.0148675
877.981	0.0147788
878.059	0.0149194
878.137	0.0149622
878.215	0.0149623
878.293	0.0149267
878.371	0.0148642
878.450	0.0149580
878.528	0.0150738
878.606	0.0148628
878.684	0.0149628
878.762	0.0148708
878.840	0.0148936
878.918	0.0148163
878.996	0.0149317
879.075	0.0149521
879.153	0.0149659
879.231	0.0150355
879.309	0.0148700
879.387	0.0148490
879.465	0.0148883
879.543	0.0147903
879.621	0.0148221
879.700	0.0148593
879.778	0.0149291
879.856	0.0149327
879.934	0.0148727
880.012	0.0148240
880.090	0.0148989
880.168	0.0148188
880.246	0.0147433
880.325	0.0149981
880.403	0.0148978
880.481	0.0148032
880.559	0.0148965
880.637	0.0149171
880.715	0.0148770
880.793	0.0148102
880.871	0.0148593
880.950	0.0149299
881.028	0.0150036
881.106	0.0149158
881.184	0.0149866
881.262	0.0148485
881.340	0.0149093
881.418	0.0149336
881.496	0.0149750
881.575	0.0150777
881.653	0.0150317
881.731	0.0149058
881.809	0.0150341
881.887	0.0148849
881.965	0.0148070
882.043	0.0148786
882.121	0.0147550
882.200	0.0149114
882.278	0.0148864
882.356	0.0148232
882.434	0.0148829
882.512	0.0148277
882.590	0.0149284
882.668	0.0148638
882.746	0.0148465
882.825	0.0148222
882.903	0.0148183
882.981	0.0147435
883.059	0.0148470
883.137	0.0148335
883.215	0.0148182
883.293	0.0147916
883.371	0.0147760
883.450	0.0148334
883.528	0.0148783
883.606	0.0149168
883.684	0.0148923
883.762	0.0148306
883.840	0.0148978
883.918	0.0148678
883.996	0.0148089
884.075	0.0149325
884.153	0.0147945
884.231	0.0148678
884.309	0.0150035
884.387	0.0148890
884.465	0.0150034
884.543	0.0150022
884.621	0.0150133
884.700	0.0149271
884.778	0.0148901
884.856	0.0150301
884.934	0.0150320
885.012	0.0149942
885.090	0.0148753
885.168	0.0148750
885.246	0.0149835
885.325	0.0148531
885.403	0.0147512
885.481	0.0148584
885.559	0.0147957
885.637	0.0149584
885.715	0.0150564
885.793	0.0148769
885.871	0.0148579
885.950	0.0147625
886.028	0.0149133
886.106	0.0148262
886.184	0.0148559
886.262	0.0148943
886.340	0.0150127
886.418	0.0148113
886.496	0.0148169
886.575	0.0149892
886.653	0.0149111
886.731	0.0148639
886.809	0.0148391
886.887	0.0146884
886.965	0.0148090
887.043	0.0148849
887.121	0.0149091
887.200	0.0148750
887.278	0.0148727
887.356	0.0149399
887.434	0.0148430
887.512	0.0149389
887.590	0.0149191
887.668	0.0148380
887.746	0.0148264
887.825	0.0149960
887.903	0.0149480
887.981	0.0150014
888.059	0.0148059
888.137	0.0149603
888.215	0.0149876
888.293	0.0149564
888.371	0.0148898
888.450	0.0148504
888.528	0.0148528
888.606	0.0149712
888.684	0.0149636
888.762	0.0148681
888.840	0.0149545
888.918	0.0149070
888.996	0.0148073
889.075	0.0148757
889.153	0.0149049
889.231	0.0148746
889.309	0.0149155
889.387	0.0147556
889.465	0.0148525
889.543	0.0147177
889.621	0.0148273
889.700	0.0147515
889.778	0.0147543
889.856	0.0148524
889.934	0.0147379
890.012	0.0147171
890.090	0.0148577
890.168	0.0147522
890.246	0.0148891
890.325	0.0148985
890.403	0.0149423
890.481	0.0149960
890.559	0.0149330
890.637	0.0149380
890.715	0.0151186
890.793	0.0149927
890.871	0.0149477
890.950	0.0149323
891.028	0.0149488
891.106	0.0149443
891.184	0.0147899
891.262	0.0148155
891.340	0.0148705
891.418	0.0147993
891.496	0.0147816
891.575	0.0148168
891.653	0.0147358
891.731	0.0147821
891.809	0.0148051
891.887	0.0147316
891.965	0.0146754
892.043	0.0148698
892.121	0.0149841
892.200	0.0148687
892.278	0.0149015
892.356	0.0148668
892.434	0.0150388
892.512	0.0148840
892.590	0.0151141
892.668	0.0150510
892.746	0.0149424
892.825	0.0150171
892.903	0.0150764
892.981	0.0150008
893.059	0.0150551
893.137	0.0150729
893.215	0.0150476
893.293	0.0150941
893.371	0.0149725
893.450	0.0150518
893.528	0.0151115
893.606	0.0149264
893.684	0.0148189
893.762	0.0149517
893.840	0.0149393
893.918	0.0149065
893.996	0.0149837
894.075	0.0148009
894.153	0.0149365
894.231	0.0148479
894.309	0.0148225
894.387	0.0149475
894.465	0.0147626
894.543	0.0148547
894.621	0.0148525
894.700	0.0148270
894.778	0.0149122
894.856	0.0149757
894.934	0.0150129
895.012	0.0150439
895.090	0.0150433
895.168	0.0149989
895.246	0.0148766
895.325	0.0149940
895.403	0.0149678
895.481	0.0150168
895.559	0.0149448
895.637	0.0148417
895.715	0.0147862
895.793	0.0148177
895.871	0.0149816
895.950	0.0149882
896.028	0.0149779
896.106	0.0150008
896.184	0.0149448
896.262	0.0150651
896.340	0.0149466
896.418	0.0150395
896.496	0.0150751
896.575	0.0151924
896.653	0.0149354
896.731	0.0149401
896.809	0.0149358
896.887	0.0149122
896.965	0.0148682
897.043	0.0148544
897.121	0.0145889
897.200	0.0145918
897.278	0.0147877
897.356	0.0147527
897.434	0.0147421
897.512	0.0148975
897.590	0.0147913
897.668	0.0147395
897.746	0.0149574
897.825	0.0147272
897.903	0.0149566
897.981	0.0149263
898.059	0.0148082
898.137	0.0148578
898.215	0.0149500
898.293	0.0148745
898.371	0.0148172
898.450	0.0148947
898.528	0.0150022
898.606	0.0148996
898.684	0.0148085
898.762	0.0148500
898.840	0.0148948
898.918	0.0149824
898.996	0.0149889
899.075	0.0149656
899.153	0.0149914
899.231	0.0149479
899.309	0.0150284
899.387	0.0151139
899.465	0.0149106
899.543	0.0149271
899.621	0.0150578
899.700	0.0150616
899.778	0.0149963
899.856	0.0147350
899.934	0.0147753
900.012	0.0148535
900.090	0.0148615
900.168	0.0148917
900.246	0.0148515
900.325	0.0148811
900.403	0.0149377
900.481	0.0149834
900.559	0.0149130
900.637	0.0149358
900.715	0.0151046
900.793	0.0148485
900.871	0.0147544
900.950	0.0147489
901.028	0.0148679
901.106	0.0149387
901.184	0.0148489
901.262	0.0150097
901.340	0.0149461
901.418	0.0149334
901.496	0.0150829
901.575	0.0150945
901.653	0.0152006
901.731	0.0150201
901.809	0.0150285
901.887	0.0152120
901.965	0.0151874
902.043	0.0150732
902.121	0.0150983
902.200	0.0149786
902.278	0.0149763
902.356	0.0149966
902.434	0.0151273
902.512	0.0149785
902.590	0.0149893
902.668	0.0149621
902.746	0.0147506
902.825	0.0147169
902.903	0.0148177
902.981	0.0147935
903.059	0.0147926
903.137	0.0147665
903.215	0.0148066
903.293	0.0148608
903.371	0.0147913
903.450	0.0147795
903.528	0.0146961
903.606	0.0148265
903.684	0.0148264
903.762	0.0149294
903.840	0.0147232
903.918	0.0148215
903.996	0.0149258
904.075	0.0148494
904.153	0.0147918
904.231	0.0148449
904.309	0.0149388
904.387	0.0150101
904.465	0.0150293
904.543	0.0150546
904.621	0.0152119
904.700	0.0151633
904.778	0.0152338
904.856	0.0152205
904.934	0.0152454
905.012	0.0151462
905.090	0.0150182
905.168	0.0150155
905.246	0.0149649
905.325	0.0149059
905.403	0.0148978
905.481	0.0150231
905.559	0.0148016
905.637	0.0148514
905.715	0.0146278
905.793	0.0146770
905.871	0.0146371
905.950	0.0148252
906.028	0.0147289
906.106	0.0147677
906.184	0.0147826
906.262	0.0149009
906.340	0.0148002
906.418	0.0147325
906.496	0.0148056
906.575	0.0147795
906.653	0.0148324
906.731	0.0148080
906.809	0.0147424
906.887	0.0147266
906.965	0.0147984
907.043	0.0150344
907.121	0.0150231
907.200	0.0150124
907.278	0.0150397
907.356	0.0150371
907.434	0.0151796
907.512	0.0150613
907.590	0.0149566
907.668	0.0150938
907.746	0.0150762
907.825	0.0150066
907.903	0.0150539
907.981	0.0150581
908.059	0.0148413
908.137	0.0149535
908.215	0.0148174
908.293	0.0147910
908.371	0.0146283
908.450	0.0147176
908.528	0.0146001
908.606	0.0146004
908.684	0.0146270
908.762	0.0148012
908.840	0.0145892
908.918	0.0146810
908.996	0.0147478
909.075	0.0147492
909.153	0.0148676
909.231	0.0147155
909.309	0.0149126
909.387	0.0148567
909.465	0.0149660
909.543	0.0148066
909.621	0.0147627
909.700	0.0146925
909.778	0.0148602
909.856	0.0147703
909.934	0.0147832
910.012	0.0147812
910.090	0.0148090
910.168	0.0147585
910.246	0.0148212
910.325	0.0149155
910.403	0.0149742
910.481	0.0149268
910.559	0.0148887
910.637	0.0149125
910.715	0.0149522
910.793	0.0148957
910.871	0.0148904
910.950	0.0149710
911.028	0.0148479
911.106	0.0148578
911.184	0.0148056
911.262	0.0149719
911.340	0.0147485
911.418	0.0147251
911.496	0.0149137
911.575	0.0147859
911.653	0.0147346
911.731	0.0149488
911.809	0.0148225
911.887	0.0148875
911.965	0.0148163
912.043	0.0148936
912.121	0.0148522
912.200	0.0149969
912.278	0.0150015
912.356	0.0147789
912.434	0.0148624
912.512	0.0148721
912.590	0.0147271
912.668	0.0147822
912.746	0.0148905
912.825	0.0147664
912.903	0.0147885
912.981	0.0148338
913.059	0.0148238
913.137	0.0148940
913.215	0.0148600
913.293	0.0148437
913.371	0.0148203
913.450	0.0150004
913.528	0.0149044
913.606	0.0149335
913.684	0.0149775
913.762	0.0151083
913.840	0.0150165
913.918	0.0151077
913.996	0.0149141
914.075	0.0149725
914.153	0.0149970
914.231	0.0148347
914.309	0.0149010
914.387	0.0148603
914.465	0.0149123
914.543	0.0148606
914.621	0.0147291
914.700	0.0147491
914.778	0.0147483
914.856	0.0147092
914.934	0.0150588
915.012	0.0149220
915.090	0.0148206
915.168	0.0147829
915.246	0.0147395
915.325	0.0147608
915.403	0.0149395
915.481	0.0151210
915.559	0.0148363
915.637	0.0149858
915.715	0.0148833
915.793	0.0149860
915.871	0.0150249
915.950	0.0148771
916.028	0.0148856
916.106	0.0147896
916.184	0.0148917
916.262	0.0148994
916.340	0.0149728
916.418	0.0150262
916.496	0.0150171
916.575	0.0150320
916.653	0.0150616
916.731	0.0149290
916.809	0.0149373
916.887	0.0149506
916.965	0.0149512
917.043	0.0148841
917.121	0.0147789
917.200	0.0148515
917.278	0.0148787
917.356	0.0149621
917.434	0.0148183
917.512	0.0147529
917.590	0.0149348
917.668	0.0147441
917.746	0.0146616
917.825	0.0146794
917.903	0.0148738
917.981	0.0149015
918.059	0.0147939
918.137	0.0149062
918.215	0.0149489
918.293	0.0148739
918.371	0.0148947
918.450	0.0149324
918.528	0.0148980
918.606	0.0150284
918.684	0.0149038
918.762	0.0148691
918.840	0.0149986
918.918	0.0149984
918.996	0.0150003
919.075	0.0149562
919.153	0.0148785
919.231	0.0148844
919.309	0.0149239
919.387	0.0148258
919.465	0.0148274
919.543	0.0148782
919.621	0.0149812
919.700	0.0147852
919.778	0.0149714
919.856	0.0150585
919.934	0.0149390
920.012	0.0150148
920.090	0.0149759
920.168	0.0149240
920.246	0.0150562
920.325	0.0149246
920.403	0.0147693
920.481	0.0148437
920.559	0.0149647
920.637	0.0148038
920.715	0.0147906
920.793	0.0147974
920.871	0.0147083
920.950	0.0147397
921.028	0.0149409
921.106	0.0148497
921.184	0.0146474
921.262	0.0146738
921.340	0.0148087
921.418	0.0149453
921.496	0.0148641
921.575	0.0149194
921.653	0.0148592
921.731	0.0148754
921.809	0.0149333
921.887	0.0149648
921.965	0.0148802
922.043	0.0149743
922.121	0.0150128
922.200	0.0149405
922.278	0.0149152
922.356	0.0150068
922.434	0.0149360
922.512	0.0149306
922.590	0.0148313
922.668	0.0148792
922.746	0.0148881
922.825	0.0149144
922.903	0.0150115
922.981	0.0149101
923.059	0.0148680
923.137	0.0148424
923.215	0.0149224
923.293	0.0149918
923.371	0.0148712
923.450	0.0149971
923.528	0.0148557
923.606	0.0147634
923.684	0.0148657
923.762	0.0147745
923.840	0.0148765
923.918	0.0149302
923.996	0.0149072
924.075	0.0148002
924.153	0.0147858
924.231	0.0149764
924.309	0.0148228
924.387	0.0148609
924.465	0.0148064
924.543	0.0147470
924.621	0.0147906
924.700	0.0148811
924.778	0.0149249
924.856	0.0148082
924.934	0.0149269
925.012	0.0148957
925.090	0.0148495
925.168	0.0148437
925.246	0.0149446
925.325	0.0151215
925.403	0.0149122
925.481	0.0148925
925.559	0.0148828
925.637	0.0150234
925.715	0.0149766
925.793	0.0149265
925.871	0.0148659
925.950	0.0149189
926.028	0.0149505
926.106	0.0149863
926.184	0.0149689
926.262	0.0148549
926.340	0.0147765
926.418	0.0147813
926.496	0.0148342
926.575	0.0148360
926.653	0.0148415
926.731	0.0149514
926.809	0.0148393
926.887	0.0147361
926.965	0.0149751
927.043	0.0147410
927.121	0.0147440
927.200	0.0147861
927.278	0.0147369
927.356	0.0148166
927.434	0.0147933
927.512	0.0148513
927.590	0.0147578
927.668	0.0147693
927.746	0.0149939
927.825	0.0149673
927.903	0.0147468
927.981	0.0149641
928.059	0.0150765
928.137	0.0148728
928.215	0.0147530
928.293	0.0149542
928.371	0.0148668
928.450	0.0149636
928.528	0.0149296
928.606	0.0148581
928.684	0.0148598
928.762	0.0147344
928.840	0.0148433
928.918	0.0147343
928.996	0.0148174
929.075	0.0148180
929.153	0.0147488
929.231	0.0149373
929.309	0.0147235
929.387	0.0149767
929.465	0.0148794
929.543	0.0147637
929.621	0.0149023
929.700	0.0147874
929.778	0.0149374
929.856	0.0148629
929.934	0.0149266
930.012	0.0148972
930.090	0.0148492
930.168	0.0148945
930.246	0.0148264
930.325	0.0147260
930.403	0.0147911
930.481	0.0148854
930.559	0.0148228
930.637	0.0148158
930.715	0.0148767
930.793	0.0147713
930.871	0.0149028
930.950	0.0148502
931.028	0.0148260
931.106	0.0148627
931.184	0.0148991
931.262	0.0149231
931.340	0.0149591
931.418	0.0148849
931.496	0.0148969
931.575	0.0149504
931.653	0.0148963
931.731	0.0149273
931.809	0.0148956
931.887	0.0148796
931.965	0.0148713
932.043	0.0149789
932.121	0.0148040
932.200	0.0147532
932.278	0.0148400
932.356	0.0148242
932.434	0.0149615
932.512	0.0149248
932.590	0.0148964
932.668	0.0149104
932.746	0.0148629
932.825	0.0148866
932.903	0.0148235
932.981	0.0149112
933.059	0.0148468
933.137	0.0147901
933.215	0.0149942
933.293	0.0148372
933.371	0.0148337
933.450	0.0149286
933.528	0.0148945
933.606	0.0149291
933.684	0.0147606
933.762	0.0147673
933.840	0.0148273
933.918	0.0148094
933.996	0.0150471
934.075	0.0149773
934.153	0.0148596
934.231	0.0146837
934.309	0.0148164
934.387	0.0149478
934.465	0.0150040
934.543	0.0149473
934.621	0.0148262
934.700	0.0148989
934.778	0.0149960
934.856	0.0150681
934.934	0.0149520
935.012	0.0149530
935.090	0.0149050
935.168	0.0149329
935.246	0.0149277
935.325	0.0149023
935.403	0.0149503
935.481	0.0150017
935.559	0.0148720
935.637	0.0148719
935.715	0.0148534
935.793	0.0148222
935.871	0.0148156
935.950	0.0148144
936.028	0.0149496
936.106	0.0149204
936.184	0.0148035
936.262	0.0149901
936.340	0.0149095
936.418	0.0148035
936.496	0.0148184
936.575	0.0149433
936.653	0.0148843
936.731	0.0148106
936.809	0.0149975
936.887	0.0148830
936.965	0.0148122
937.043	0.0150083
937.121	0.0149973
937.200	0.0150476
937.278	0.0148666
937.356	0.0148403
937.434	0.0149342
937.512	0.0149323
937.590	0.0148175
937.668	0.0149113
937.746	0.0149700
937.825	0.0149895
937.903	0.0148284
937.981	0.0150166
938.059	0.0148323
938.137	0.0149516
938.215	0.0149110
938.293	0.0149016
938.371	0.0149725
938.450	0.0148180
938.528	0.0148386
938.606	0.0148479
938.684	0.0151052
938.762	0.0148895
938.840	0.0149903
938.918	0.0149069
938.996	0.0148623
939.075	0.0149146
939.153	0.0148319
939.231	0.0148386
939.309	0.0150093
939.387	0.0149142
939.465	0.0151564
939.543	0.0150716
939.621	0.0149548
939.700	0.0148346
939.778	0.0148891
939.856	0.0149826
939.934	0.0148975
940.012	0.0149258
940.090	0.0149498
940.168	0.0149762
940.246	0.0150695
940.325	0.0149729
940.403	0.0150095
940.481	0.0148341
940.559	0.0149680
940.637	0.0150510
940.715	0.0148905
940.793	0.0148319
940.871	0.0148057
940.950	0.0147977
941.028	0.0149007
941.106	0.0148652
941.184	0.0148001
941.262	0.0149025
941.340	0.0149790
941.418	0.0148663
941.496	0.0148639
941.575	0.0148546
941.653	0.0150257
941.731	0.0149291
941.809	0.0148790
941.887	0.0149728
941.965	0.0148337
942.043	0.0148833
942.121	0.0149737
942.200	0.0149546
942.278	0.0150829
942.356	0.0148743
942.434	0.0149508
942.512	0.0150465
942.590	0.0149365
942.668	0.0150169
942.746	0.0151019
942.825	0.0149243
942.903	0.0150487
942.981	0.0149591
943.059	0.0149558
943.137	0.0149731
943.215	0.0148649
943.293	0.0149103
943.371	0.0148437
943.450	0.0150407
943.528	0.0148427
943.606	0.0148586
943.684	0.0147354
943.762	0.0148074
943.840	0.0148412
943.918	0.0148863
943.996	0.0148685
944.075	0.0147089
944.153	0.0148796
944.231	0.0147910
944.309	0.0149009
944.387	0.0147971
944.465	0.0148383
944.543	0.0149753
944.621	0.0149394
944.700	0.0148300
944.778	0.0149274
944.856	0.0149254
944.934	0.0147097
945.012	0.0148979
945.090	0.0148853
945.168	0.0149533
945.246	0.0150125
945.325	0.0148988
945.403	0.0149096
945.481	0.0149359
945.559	0.0150238
945.637	0.0149335
945.715	0.0149805
945.793	0.0149698
945.871	0.0148758
945.950	0.0148886
946.028	0.0149825
946.106	0.0149034
946.184	0.0148980
946.262	0.0150095
946.340	0.0148370
946.418	0.0149726
946.496	0.0149933
946.575	0.0150322
946.653	0.0149847
946.731	0.0150533
946.809	0.0147744
946.887	0.0148697
946.965	0.0148019
947.043	0.0148260
947.121	0.0148574
947.200	0.0147538
947.278	0.0150050
947.356	0.0149315
947.434	0.0148983
947.512	0.0149364
947.590	0.0148488
947.668	0.0148923
947.746	0.0148629
947.825	0.0148674
947.903	0.0149326
947.981	0.0147923
948.059	0.0146709
948.137	0.0147513
948.215	0.0148022
948.293	0.0148746
948.371	0.0148315
948.450	0.0147604
948.528	0.0147598
948.606	0.0148245
948.684	0.0149143
948.762	0.0149991
948.840	0.0148320
948.918	0.0149846
948.996	0.0150368
949.075	0.0149457
949.153	0.0149242
949.231	0.0149731
949.309	0.0149604
949.387	0.0150407
949.465	0.0149245
949.543	0.0150181
949.621	0.0150936
949.700	0.0150602
949.778	0.0150061
949.856	0.0148947
949.934	0.0147693
950.012	0.0149538
950.090	0.0148160
950.168	0.0148357
950.246	0.0147572
950.325	0.0148529
950.403	0.0148701
950.481	0.0149049
950.559	0.0148833
950.637	0.0147796
950.715	0.0148355
950.793	0.0149049
950.871	0.0147968
950.950	0.0147382
951.028	0.0149196
951.106	0.0149588
951.184	0.0148517
951.262	0.0148338
951.340	0.0148786
951.418	0.0148047
951.496	0.0148946
951.575	0.0149466
951.653	0.0149416
951.731	0.0149030
951.809	0.0149506
951.887	0.0150012
951.965	0.0149754
952.043	0.0149674
952.121	0.0149603
952.200	0.0148324
952.278	0.0148590
952.356	0.0149871
952.434	0.0148293
952.512	0.0148874
952.590	0.0148824
952.668	0.0147489
952.746	0.0148965
952.825	0.0149506
952.903	0.0148617
952.981	0.0149464
953.059	0.0148439
953.137	0.0149471
953.215	0.0149474
953.293	0.0148721
953.371	0.0148758
953.450	0.0149374
953.528	0.0149926
953.606	0.0148301
953.684	0.0149050
953.762	0.0150009
953.840	0.0149631
953.918	0.0149097
953.996	0.0149639
954.075	0.0148942
954.153	0.0148627
954.231	0.0148619
954.309	0.0148738
954.387	0.0148638
954.465	0.0148069
954.543	0.0149138
954.621	0.0148293
954.700	0.0148784
954.778	0.0147382
954.856	0.0149284
954.934	0.0149473
955.012	0.0149529
955.090	0.0150407
955.168	0.0149835
955.246	0.0148640
955.325	0.0148365
955.403	0.0149131
955.481	0.0149442
955.559	0.0150815
955.637	0.0149656
955.715	0.0149221
955.793	0.0148139
955.871	0.0148859
955.950	0.0149500
956.028	0.0147995
956.106	0.0148594
956.184	0.0148477
956.262	0.0147585
956.340	0.0148308
956.418	0.0148844
956.496	0.0148602
956.575	0.0147717
956.653	0.0147349
956.731	0.0148132
956.809	0.0147978
956.887	0.0148583
956.965	0.0148834
957.043	0.0149651
957.121	0.0148601
957.200	0.0149170
957.278	0.0148932
957.356	0.0148893
957.434	0.0148894
957.512	0.0150130
957.590	0.0148800
957.668	0.0149791
957.746	0.0148439
957.825	0.0149159
957.903	0.0150683
957.981	0.0150694
958.059	0.0147910
958.137	0.0150650
958.215	0.0148998
958.293	0.0147744
958.371	0.0147811
958.450	0.0148553
958.528	0.0149617
958.606	0.0149306
958.684	0.0147738
958.762	0.0147519
958.840	0.0146519
958.918	0.0147896
958.996	0.0148517
959.075	0.0149245
959.153	0.0147385
959.231	0.0148236
959.309	0.0147453
959.387	0.0147659
959.465	0.0149288
959.543	0.0148715
959.621	0.0148725
959.700	0.0148642
959.778	0.0148063
959.856	0.0148902
959.934	0.0148931
960.012	0.0150284
960.090	0.0149093
960.168	0.0150244
960.246	0.0150334
960.325	0.0149603
960.403	0.0149249
960.481	0.0149895
960.559	0.0149072
960.637	0.0150002
960.715	0.0148961
960.793	0.0149001
960.871	0.0149014
960.950	0.0148981
961.028	0.0150232
961.106	0.0150085
961.184	0.0148856
961.262	0.0149001
961.340	0.0149174
961.418	0.0149480
961.496	0.0149912
961.575	0.0149847
961.653	0.0150435
961.731	0.0150140
961.809	0.0148257
961.887	0.0149062
961.965	0.0150654
962.043	0.0148467
962.121	0.0148662
962.200	0.0148044
962.278	0.0149245
962.356	0.0148576
962.434	0.0148649
962.512	0.0148338
962.590	0.0148908
962.668	0.0149481
962.746	0.0150739
962.825	0.0148898
962.903	0.0148613
962.981	0.0150249
963.059	0.0150429
963.137	0.0150755
963.215	0.0151011
963.293	0.0150121
963.371	0.0148018
963.450	0.0149389
963.528	0.0150673
963.606	0.0149828
963.684	0.0149494
963.762	0.0149746
963.840	0.0149329
963.918	0.0148308
963.996	0.0149804
964.075	0.0150414
964.153	0.0150748
964.231	0.0148688
964.309	0.0149210
964.387	0.0151046
964.465	0.0150242
964.543	0.0149525
964.621	0.0148681
964.700	0.0149375
964.778	0.0150410
964.856	0.0148486
964.934	0.0149094
965.012	0.0149244
965.090	0.0148737
965.168	0.0149815
965.246	0.0149709
965.325	0.0150554
965.403	0.0149394
965.481	0.0150221
965.559	0.0150088
965.637	0.0149261
965.715	0.0148577
965.793	0.0149796
965.871	0.0151073
965.950	0.0150565
966.028	0.0150069
966.106	0.0149463
966.184	0.0149987
966.262	0.0151713
966.340	0.0149910
966.418	0.0149229
966.496	0.0150127
966.575	0.0149081
966.653	0.0148096
966.731	0.0149050
966.809	0.0149445
966.887	0.0150624
966.965	0.0149797
967.043	0.0148882
967.121	0.0148799
967.200	0.0148546
967.278	0.0148788
967.356	0.0149156
967.434	0.0149015
967.512	0.0149303
967.590	0.0149312
967.668	0.0150362
967.746	0.0150107
967.825	0.0149139
967.903	0.0149596
967.981	0.0150254
968.059	0.0149867
968.137	0.0149176
968.215	0.0149282
968.293	0.0148979
968.371	0.0150038
968.450	0.0149799
968.528	0.0148769
968.606	0.0148272
968.684	0.0147578
968.762	0.0149211
968.840	0.0149340
968.918	0.0148988
968.996	0.0148811
969.075	0.0148234
969.153	0.0149741
969.231	0.0148886
969.309	0.0149407
969.387	0.0147950
969.465	0.0149728
969.543	0.0149437
969.621	0.0149514
969.700	0.0149515
969.778	0.0150612
969.856	0.0150104
969.934	0.0148148
970.012	0.0149403
970.090	0.0148076
970.168	0.0149901
970.246	0.0149513
970.325	0.0148988
970.403	0.0149528
970.481	0.0147315
970.559	0.0147661
970.637	0.0149017
970.715	0.0149025
970.793	0.0148145
970.871	0.0148787
970.950	0.0149310
971.028	0.0148400
971.106	0.0148351
971.184	0.0148427
971.262	0.0149635
971.340	0.0148147
971.418	0.0148125
971.496	0.0149516
971.575	0.0147575
971.653	0.0147991
971.731	0.0148993
971.809	0.0148711
971.887	0.0147906
971.965	0.0148860
972.043	0.0148913
972.121	0.0150154
972.200	0.0149146
972.278	0.0147685
972.356	0.0149507
972.434	0.0149551
972.512	0.0149798
972.590	0.0150459
972.668	0.0149225
972.746	0.0147955
972.825	0.0148004
972.903	0.0148099
972.981	0.0149578
973.059	0.0149182
973.137	0.0148557
973.215	0.0148640
973.293	0.0148788
973.371	0.0149107
973.450	0.0148894
973.528	0.0148357
973.606	0.0148983
973.684	0.0149564
973.762	0.0149607
973.840	0.0148347
973.918	0.0149201
973.996	0.0150240
974.075	0.0148374
974.153	0.0150188
974.231	0.0148012
974.309	0.0149818
974.387	0.0150062
974.465	0.0149823
974.543	0.0149807
974.621	0.0149817
974.700	0.0149264
974.778	0.0149413
974.856	0.0148133
974.934	0.0149201
975.012	0.0148969
975.090	0.0149065
975.168	0.0149296
975.246	0.0150065
975.325	0.0149173
975.403	0.0149284
975.481	0.0147775
975.559	0.0149569
975.637	0.0148725
975.715	0.0150249
975.793	0.0149574
975.871	0.0148220
975.950	0.0148397
976.028	0.0150455
976.106	0.0148811
976.184	0.0149680
976.262	0.0148943
976.340	0.0149281
976.418	0.0148229
976.496	0.0149424
976.575	0.0151006
976.653	0.0150180
976.731	0.0148931
976.809	0.0149494
976.887	0.0150265
976.965	0.0149198
977.043	0.0148167
977.121	0.0150063
977.200	0.0149493
977.278	0.0149517
977.356	0.0149535
977.434	0.0149268
977.512	0.0149437
977.590	0.0149846
977.668	0.0148478
977.746	0.0148688
977.825	0.0146645
977.903	0.0148953
977.981	0.0148434
978.059	0.0149860
978.137	0.0148412
978.215	0.0148080
978.293	0.0149210
978.371	0.0148842
978.450	0.0148685
978.528	0.0149390
978.606	0.0148521
978.684	0.0148985
978.762	0.0148510
978.840	0.0149346
978.918	0.0148591
978.996	0.0149120
979.075	0.0149860
979.153	0.0147708
979.231	0.0147363
979.309	0.0147952
979.387	0.0148711
979.465	0.0149260
979.543	0.0149386
979.621	0.0148839
979.700	0.0149031
979.778	0.0148690
979.856	0.0148158
979.934	0.0147418
980.012	0.0148010
980.090	0.0148647
980.168	0.0149197
980.246	0.0149263
980.325	0.0148649
980.403	0.0148674
980.481	0.0149342
980.559	0.0149309
980.637	0.0148089
980.715	0.0148537
980.793	0.0148687
980.871	0.0148745
980.950	0.0150633
981.028	0.0148797
981.106	0.0149760
981.184	0.0149359
981.262	0.0149233
981.340	0.0150681
981.418	0.0149749
981.496	0.0150391
981.575	0.0148888
981.653	0.0148872
981.731	0.0149889
981.809	0.0149741
981.887	0.0150304
981.965	0.0149087
982.043	0.0150304
982.121	0.0149559
982.200	0.0148956
982.278	0.0149055
982.356	0.0148753
982.434	0.0149267
982.512	0.0149074
982.590	0.0148711
982.668	0.0148103
982.746	0.0147665
982.825	0.0148448
982.903	0.0148602
982.981	0.0148576
983.059	0.0148314
983.137	0.0147366
983.215	0.0147063
983.293	0.0148952
983.371	0.0148221
983.450	0.0148074
983.528	0.0148497
983.606	0.0150248
983.684	0.0149081
983.762	0.0150300
983.840	0.0149353
983.918	0.0149661
983.996	0.0150771
984.075	0.0150160
984.153	0.0149746
984.231	0.0150579
984.309	0.0149731
984.387	0.0149519
984.465	0.0149049
984.543	0.0149427
984.621	0.0149869
984.700	0.0148093
984.778	0.0148274
984.856	0.0148618
984.934	0.0148550
985.012	0.0147908
985.090	0.0147914
985.168	0.0148283
985.246	0.0149041
985.325	0.0148581
985.403	0.0148102
985.481	0.0146930
985.559	0.0148710
985.637	0.0150418
985.715	0.0148483
985.793	0.0148515
985.871	0.0147984
985.950	0.0148629
986.028	0.0149461
986.106	0.0149995
986.184	0.0149780
986.262	0.0149350
986.340	0.0149960
986.418	0.0150879
986.496	0.0150517
986.575	0.0149599
986.653	0.0151778
986.731	0.0148719
986.809	0.0150723
986.887	0.0149493
986.965	0.0149885
987.043	0.0149892
987.121	0.0149577
987.200	0.0147984
987.278	0.0147671
987.356	0.0148523
987.434	0.0147308
987.512	0.0148354
987.590	0.0147503
987.668	0.0148753
987.746	0.0149334
987.825	0.0148622
987.903	0.0148840
987.981	0.0150050
988.059	0.0148900
988.137	0.0147842
988.215	0.0148497
988.293	0.0149281
988.371	0.0150333
988.450	0.0150092
988.528	0.0148608
988.606	0.0150301
988.684	0.0149290
988.762	0.0148970
988.840	0.0148878
988.918	0.0149538
988.996	0.0148215
989.075	0.0149391
989.153	0.0149284
989.231	0.0148785
989.309	0.0151149
989.387	0.0150329
989.465	0.0148466
989.543	0.0149712
989.621	0.0148876
989.700	0.0148021
989.778	0.0149485
989.856	0.0149221
989.934	0.0149189
990.012	0.0147552
990.090	0.0149443
990.168	0.0149404
990.246	0.0148992
990.325	0.0150548
990.403	0.0148912
990.481	0.0148738
990.559	0.0150377
990.637	0.0150996
990.715	0.0149803
990.793	0.0148977
990.871	0.0148436
990.950	0.0148129
991.028	0.0148705
991.106	0.0148947
991.184	0.0149576
991.262	0.0149309
991.340	0.0148757
991.418	0.0148823
991.496	0.0149074
991.575	0.0149425
991.653	0.0149665
991.731	0.0148735
991.809	0.0149260
991.887	0.0151312
991.965	0.0149903
992.043	0.0149442
992.121	0.0148827
992.200	0.0149219
992.278	0.0148252
992.356	0.0148705
992.434	0.0148722
992.512	0.0148903
992.590	0.0147348
992.668	0.0147374
992.746	0.0147010
992.825	0.0148795
992.903	0.0148802
992.981	0.0149036
993.059	0.0147754
993.137	0.0147961
993.215	0.0148716
993.293	0.0149606
993.371	0.0147777
993.450	0.0150098
993.528	0.0149252
993.606	0.0147778
993.684	0.0149978
993.762	0.0149141
993.840	0.0148560
993.918	0.0148962
993.996	0.0149803
994.075	0.0150105
994.153	0.0148990
994.231	0.0149424
994.309	0.0149607
994.387	0.0149979
994.465	0.0150700
994.543	0.0149932
994.621	0.0150266
994.700	0.0149170
994.778	0.0149391
994.856	0.0148858
994.934	0.0151965
995.012	0.0149577
995.090	0.0149931
995.168	0.0149551
995.246	0.0148588
995.325	0.0148853
995.403	0.0147205
995.481	0.0149377
995.559	0.0148949
995.637	0.0148484
995.715	0.0149356
995.793	0.0150481
995.871	0.0149870
995.950	0.0149596
996.028	0.0150060
996.106	0.0148017
996.184	0.0149839
996.262	0.0149318
996.340	0.0149307
996.418	0.0148637
996.496	0.0149806
996.575	0.0148489
996.653	0.0148621
996.731	0.0148940
996.809	0.0150375
996.887	0.0150862
996.965	0.0148347
997.043	0.0148511
997.121	0.0149121
997.200	0.0149306
997.278	0.0149297
997.356	0.0150593
997.434	0.0151423
997.512	0.0150219
997.590	0.0150275
997.668	0.0149398
997.746	0.0149914
997.825	0.0148631
997.903	0.0149792
997.981	0.0149046
998.059	0.0150124
998.137	0.0149545
998.215	0.0150044
998.293	0.0147721
998.371	0.0148784
998.450	0.0149557
998.528	0.0148968
998.606	0.0149536
998.684	0.0148913
998.762	0.0150905
998.840	0.0148867
998.918	0.0149539
