05/04/2022	21:07:42	Ver.	4.1	UNKNOWN
Optical Delay	678.996401	Delta X		0.078125	Sweeps	1	Scan Rate	0/0
Coordinates	Axis 1	NaN	Axis 2	NaN	Axis 3	NaN	Axis 4	NaN	Axis 5	NaN	Axis 6	0.000000
TX Power	0.000000	RX Power	0.000000

678.996	0.0148794
679.075	0.0148495
679.153	0.0147648
679.231	0.0148816
679.309	0.0147938
679.387	0.0148160
679.465	0.0149531
679.543	0.0148160
679.621	0.0147935
679.700	0.0148089
679.778	0.0149742
679.856	0.0148243
679.934	0.0149577
680.012	0.0147740
680.090	0.0148557
680.168	0.0148656
680.246	0.0148535
680.325	0.0147533
680.403	0.0147417
680.481	0.0149192
680.559	0.0149887
680.637	0.0148047
680.715	0.0148206
680.793	0.0148396
680.871	0.0148696
680.950	0.0148754
681.028	0.0148473
681.106	0.0147614
681.184	0.0148663
681.262	0.0148679
681.340	0.0147128
681.418	0.0147519
681.496	0.0147392
681.575	0.0149417
681.653	0.0147951
681.731	0.0148466
681.809	0.0148098
681.887	0.0149121
681.965	0.0147942
682.043	0.0148067
682.121	0.0149187
682.200	0.0148403
682.278	0.0148867
682.356	0.0148592
682.434	0.0148309
682.512	0.0147293
682.590	0.0148324
682.668	0.0148861
682.746	0.0148131
682.825	0.0148602
682.903	0.0148522
682.981	0.0148718
683.059	0.0148484
683.137	0.0148814
683.215	0.0147829
683.293	0.0149419
683.371	0.0147855
683.450	0.0148163
683.528	0.0149773
683.606	0.0147726
683.684	0.0147307
683.762	0.0149156
683.840	0.0148427
683.918	0.0147893
683.996	0.0149303
684.075	0.0148174
684.153	0.0148730
684.231	0.0148389
684.309	0.0147594
684.387	0.0147758
684.465	0.0147894
684.543	0.0149091
684.621	0.0148859
684.700	0.0147520
684.778	0.0147720
684.856	0.0148254
684.934	0.0147840
685.012	0.0148945
685.090	0.0147168
685.168	0.0148325
685.246	0.0147751
685.325	0.0147675
685.403	0.0148376
685.481	0.0148737
685.559	0.0147981
685.637	0.0148302
685.715	0.0148106
685.793	0.0148756
685.871	0.0148743
685.950	0.0148107
686.028	0.0147433
686.106	0.0148301
686.184	0.0147459
686.262	0.0148805
686.340	0.0148260
686.418	0.0148753
686.496	0.0148726
686.575	0.0147868
686.653	0.0148930
686.731	0.0149113
686.809	0.0149605
686.887	0.0149982
686.965	0.0149145
687.043	0.0147894
687.121	0.0149078
687.200	0.0149627
687.278	0.0148418
687.356	0.0148505
687.434	0.0148502
687.512	0.0146947
687.590	0.0148159
687.668	0.0148866
687.746	0.0148778
687.825	0.0147903
687.903	0.0148016
687.981	0.0148633
688.059	0.0148911
688.137	0.0148084
688.215	0.0148615
688.293	0.0148975
688.371	0.0148564
688.450	0.0148454
688.528	0.0148684
688.606	0.0148536
688.684	0.0148931
688.762	0.0149049
688.840	0.0147688
688.918	0.0146942
688.996	0.0146801
689.075	0.0148569
689.153	0.0148847
689.231	0.0147522
689.309	0.0148140
689.387	0.0148186
689.465	0.0148828
689.543	0.0147654
689.621	0.0148041
689.700	0.0148598
689.778	0.0147910
689.856	0.0146359
689.934	0.0148663
690.012	0.0148178
690.090	0.0149291
690.168	0.0148386
690.246	0.0148491
690.325	0.0148087
690.403	0.0147741
690.481	0.0148233
690.559	0.0147939
690.637	0.0148663
690.715	0.0148011
690.793	0.0148469
690.871	0.0148434
690.950	0.0149465
691.028	0.0150240
691.106	0.0149590
691.184	0.0148609
691.262	0.0148734
691.340	0.0148508
691.418	0.0147579
691.496	0.0147311
691.575	0.0149039
691.653	0.0148523
691.731	0.0147360
691.809	0.0149118
691.887	0.0147581
691.965	0.0148016
692.043	0.0148362
692.121	0.0147439
692.200	0.0147663
692.278	0.0149026
692.356	0.0149164
692.434	0.0149136
692.512	0.0149038
692.590	0.0147614
692.668	0.0147561
692.746	0.0147416
692.825	0.0147777
692.903	0.0148820
692.981	0.0148381
693.059	0.0147541
693.137	0.0148749
693.215	0.0149332
693.293	0.0148268
693.371	0.0148415
693.450	0.0149393
693.528	0.0148217
693.606	0.0150460
693.684	0.0150058
693.762	0.0149350
693.840	0.0148789
693.918	0.0148752
693.996	0.0150797
694.075	0.0150279
694.153	0.0148576
694.231	0.0148386
694.309	0.0149382
694.387	0.0149840
694.465	0.0150648
694.543	0.0148910
694.621	0.0148807
694.700	0.0148915
694.778	0.0149864
694.856	0.0148615
694.934	0.0148994
695.012	0.0148679
695.090	0.0148604
695.168	0.0148805
695.246	0.0147946
695.325	0.0148131
695.403	0.0147955
695.481	0.0146168
695.559	0.0147012
695.637	0.0146693
695.715	0.0146959
695.793	0.0147679
695.871	0.0146190
695.950	0.0147986
696.028	0.0147531
696.106	0.0147008
696.184	0.0147606
696.262	0.0147720
696.340	0.0148621
696.418	0.0147276
696.496	0.0148880
696.575	0.0148914
696.653	0.0149417
696.731	0.0149678
696.809	0.0149183
696.887	0.0147902
696.965	0.0149613
697.043	0.0148897
697.121	0.0149783
697.200	0.0147758
697.278	0.0147860
697.356	0.0147979
697.434	0.0146958
697.512	0.0147245
697.590	0.0148502
697.668	0.0146944
697.746	0.0147866
697.825	0.0147215
697.903	0.0147883
697.981	0.0148241
698.059	0.0147148
698.137	0.0147192
698.215	0.0149213
698.293	0.0149654
698.371	0.0149751
698.450	0.0148372
698.528	0.0149864
698.606	0.0149527
698.684	0.0150586
698.762	0.0150504
698.840	0.0149023
698.918	0.0150027
698.996	0.0149865
699.075	0.0149490
699.153	0.0149768
699.231	0.0149548
699.309	0.0150947
699.387	0.0150564
699.465	0.0149603
699.543	0.0149305
699.621	0.0149802
699.700	0.0150198
699.778	0.0149090
699.856	0.0149159
699.934	0.0148354
700.012	0.0150304
700.090	0.0148538
700.168	0.0147247
700.246	0.0148354
700.325	0.0147890
700.403	0.0147623
700.481	0.0147718
700.559	0.0147089
700.637	0.0148662
700.715	0.0148004
700.793	0.0148265
700.871	0.0147676
700.950	0.0147092
701.028	0.0146950
701.106	0.0148051
701.184	0.0148142
701.262	0.0147885
701.340	0.0146600
701.418	0.0147942
701.496	0.0147498
701.575	0.0148097
701.653	0.0147387
701.731	0.0149313
701.809	0.0148841
701.887	0.0150043
701.965	0.0149883
702.043	0.0148795
702.121	0.0149473
702.200	0.0151429
702.278	0.0148914
702.356	0.0148076
702.434	0.0148318
702.512	0.0148936
702.590	0.0149428
702.668	0.0148669
702.746	0.0146998
702.825	0.0145943
702.903	0.0146436
702.981	0.0146397
703.059	0.0147018
703.137	0.0147154
703.215	0.0146209
703.293	0.0147144
703.371	0.0147330
703.450	0.0148771
703.528	0.0148777
703.606	0.0148198
703.684	0.0149074
703.762	0.0148730
703.840	0.0147701
703.918	0.0145953
703.996	0.0145918
704.075	0.0146069
704.153	0.0146962
704.231	0.0147134
704.309	0.0145633
704.387	0.0147153
704.465	0.0149687
704.543	0.0149333
704.621	0.0150018
704.700	0.0150341
704.778	0.0150493
704.856	0.0150555
704.934	0.0150378
705.012	0.0150152
705.090	0.0150750
705.168	0.0149805
705.246	0.0149715
705.325	0.0150877
705.403	0.0151286
705.481	0.0151657
705.559	0.0150952
705.637	0.0150268
705.715	0.0149916
705.793	0.0150752
705.871	0.0149326
705.950	0.0147231
706.028	0.0146738
706.106	0.0145820
706.184	0.0145332
706.262	0.0144784
706.340	0.0144209
706.418	0.0144070
706.496	0.0143533
706.575	0.0143526
706.653	0.0142140
706.731	0.0143193
706.809	0.0143132
706.887	0.0142378
706.965	0.0141142
707.043	0.0141560
707.121	0.0142300
707.200	0.0141876
707.278	0.0144233
707.356	0.0145728
707.434	0.0149809
707.512	0.0152361
707.590	0.0154151
707.668	0.0155921
707.746	0.0157540
707.825	0.0158363
707.903	0.0156526
707.981	0.0156167
708.059	0.0155431
708.137	0.0154657
708.215	0.0152820
708.293	0.0153637
708.371	0.0153387
708.450	0.0154205
708.528	0.0153571
708.606	0.0153333
708.684	0.0151871
708.762	0.0149324
708.840	0.0145438
708.918	0.0143112
708.996	0.0139384
709.075	0.0136878
709.153	0.0134075
709.231	0.0133586
709.309	0.0134744
709.387	0.0134109
709.465	0.0135764
709.543	0.0136525
709.621	0.0140379
709.700	0.0142571
709.778	0.0142633
709.856	0.0145996
709.934	0.0148027
710.012	0.0151275
710.090	0.0155238
710.168	0.0156850
710.246	0.0157501
710.325	0.0158842
710.403	0.0160813
710.481	0.0162543
710.559	0.0161415
710.637	0.0159592
710.715	0.0158772
710.793	0.0158891
710.871	0.0156629
710.950	0.0154546
711.028	0.0153604
711.106	0.0151315
711.184	0.0150716
711.262	0.0149901
711.340	0.0150802
711.418	0.0150295
711.496	0.0150449
711.575	0.0149074
711.653	0.0146205
711.731	0.0144482
711.809	0.0140852
711.887	0.0138467
711.965	0.0137035
712.043	0.0133496
712.121	0.0132239
712.200	0.0133787
712.278	0.0132839
712.356	0.0134038
712.434	0.0135863
712.512	0.0137421
712.590	0.0141918
712.668	0.0145449
712.746	0.0149571
712.825	0.0151431
712.903	0.0156092
712.981	0.0159394
713.059	0.0161463
713.137	0.0162273
713.215	0.0163945
713.293	0.0165472
713.371	0.0163612
713.450	0.0162437
713.528	0.0161546
713.606	0.0156980
713.684	0.0154031
713.762	0.0152921
713.840	0.0151016
713.918	0.0150781
713.996	0.0150591
714.075	0.0151212
714.153	0.0151384
714.231	0.0151656
714.309	0.0151511
714.387	0.0149424
714.465	0.0145557
714.543	0.0142612
714.621	0.0139462
714.700	0.0138103
714.778	0.0134364
714.856	0.0133392
714.934	0.0132896
715.012	0.0133449
715.090	0.0133870
715.168	0.0133906
715.246	0.0135995
715.325	0.0138560
715.403	0.0141266
715.481	0.0143769
715.559	0.0146317
715.637	0.0151304
715.715	0.0152925
715.793	0.0156036
715.871	0.0158404
715.950	0.0158839
716.028	0.0160175
716.106	0.0161999
716.184	0.0163490
716.262	0.0162352
716.340	0.0160507
716.418	0.0159525
716.496	0.0157303
716.575	0.0151872
716.653	0.0150933
716.731	0.0147589
716.809	0.0144518
716.887	0.0144817
716.965	0.0143353
717.043	0.0143780
717.121	0.0143823
717.200	0.0144642
717.278	0.0144485
717.356	0.0145883
717.434	0.0145772
717.512	0.0145632
717.590	0.0146429
717.668	0.0146268
717.746	0.0144473
717.825	0.0145108
717.903	0.0144862
717.981	0.0144434
718.059	0.0143520
718.137	0.0144139
718.215	0.0142717
718.293	0.0142443
718.371	0.0141375
718.450	0.0142513
718.528	0.0142547
718.606	0.0145447
718.684	0.0148087
718.762	0.0149946
718.840	0.0152552
718.918	0.0153819
718.996	0.0154408
719.075	0.0156705
719.153	0.0155543
719.231	0.0155522
719.309	0.0154794
719.387	0.0154419
719.465	0.0151220
719.543	0.0148307
719.621	0.0147404
719.700	0.0145941
719.778	0.0143989
719.856	0.0143087
719.934	0.0142498
720.012	0.0143542
720.090	0.0143517
720.168	0.0145646
720.246	0.0146825
720.325	0.0149177
720.403	0.0150449
720.481	0.0151073
720.559	0.0151125
720.637	0.0153857
720.715	0.0154118
720.793	0.0153447
720.871	0.0153059
720.950	0.0150863
721.028	0.0150665
721.106	0.0148471
721.184	0.0146165
721.262	0.0144825
721.340	0.0144122
721.418	0.0143758
721.496	0.0144412
721.575	0.0144756
721.653	0.0146321
721.731	0.0147340
721.809	0.0150462
721.887	0.0151569
721.965	0.0153162
722.043	0.0154858
722.121	0.0154418
722.200	0.0154478
722.278	0.0153700
722.356	0.0152808
722.434	0.0149746
722.512	0.0149261
722.590	0.0147786
722.668	0.0145998
722.746	0.0145875
722.825	0.0143472
722.903	0.0141312
722.981	0.0140639
723.059	0.0140809
723.137	0.0140572
723.215	0.0140285
723.293	0.0141702
723.371	0.0143729
723.450	0.0145298
723.528	0.0147959
723.606	0.0151218
723.684	0.0151317
723.762	0.0151997
723.840	0.0153951
723.918	0.0154880
723.996	0.0154768
724.075	0.0154639
724.153	0.0152493
724.231	0.0151552
724.309	0.0153552
724.387	0.0153205
724.465	0.0152042
724.543	0.0152177
724.621	0.0152936
724.700	0.0152702
724.778	0.0152705
724.856	0.0151727
724.934	0.0151394
725.012	0.0153142
725.090	0.0154383
725.168	0.0152128
725.246	0.0153677
725.325	0.0151530
725.403	0.0153204
725.481	0.0150687
725.559	0.0148962
725.637	0.0145537
725.715	0.0143903
725.793	0.0141443
725.871	0.0139109
725.950	0.0138216
726.028	0.0135149
726.106	0.0133599
726.184	0.0134032
726.262	0.0134513
726.340	0.0137937
726.418	0.0138181
726.496	0.0140903
726.575	0.0144000
726.653	0.0144952
726.731	0.0149110
726.809	0.0154164
726.887	0.0154946
726.965	0.0155298
727.043	0.0155711
727.121	0.0158251
727.200	0.0156843
727.278	0.0157511
727.356	0.0155318
727.434	0.0154529
727.512	0.0152987
727.590	0.0151101
727.668	0.0151729
727.746	0.0150122
727.825	0.0149887
727.903	0.0148981
727.981	0.0149626
728.059	0.0151025
728.137	0.0151972
728.215	0.0153532
728.293	0.0152251
728.371	0.0151551
728.450	0.0151125
728.528	0.0150017
728.606	0.0148001
728.684	0.0147798
728.762	0.0146291
728.840	0.0144037
728.918	0.0142168
728.996	0.0141030
729.075	0.0140455
729.153	0.0139198
729.231	0.0138563
729.309	0.0138216
729.387	0.0139607
729.465	0.0141050
729.543	0.0141082
729.621	0.0141370
729.700	0.0145656
729.778	0.0147201
729.856	0.0147971
729.934	0.0149671
730.012	0.0151562
730.090	0.0152222
730.168	0.0153919
730.246	0.0153233
730.325	0.0152744
730.403	0.0151122
730.481	0.0151012
730.559	0.0149757
730.637	0.0149657
730.715	0.0149172
730.793	0.0150251
730.871	0.0149533
730.950	0.0148531
731.028	0.0150311
731.106	0.0151122
731.184	0.0150777
731.262	0.0152972
731.340	0.0154207
731.418	0.0151109
731.496	0.0151319
731.575	0.0151199
731.653	0.0150928
731.731	0.0149710
731.809	0.0149808
731.887	0.0148981
731.965	0.0148914
732.043	0.0149278
732.121	0.0146976
732.200	0.0146227
732.278	0.0145206
732.356	0.0147150
732.434	0.0144131
732.512	0.0144683
732.590	0.0144701
732.668	0.0143758
732.746	0.0144827
732.825	0.0142774
732.903	0.0145256
732.981	0.0145554
733.059	0.0146083
733.137	0.0146949
733.215	0.0146661
733.293	0.0147709
733.371	0.0148974
733.450	0.0148617
733.528	0.0148226
733.606	0.0148814
733.684	0.0149248
733.762	0.0148361
733.840	0.0148516
733.918	0.0149905
733.996	0.0149147
734.075	0.0150156
734.153	0.0151780
734.231	0.0151458
734.309	0.0152392
734.387	0.0152898
734.465	0.0152142
734.543	0.0152644
734.621	0.0152483
734.700	0.0151496
734.778	0.0150175
734.856	0.0149908
734.934	0.0150023
735.012	0.0149931
735.090	0.0149983
735.168	0.0148376
735.246	0.0148932
735.325	0.0147588
735.403	0.0147552
735.481	0.0147356
735.559	0.0145991
735.637	0.0145660
735.715	0.0143828
735.793	0.0143795
735.871	0.0144573
735.950	0.0143742
736.028	0.0145045
736.106	0.0144824
736.184	0.0144364
736.262	0.0145167
736.340	0.0146363
736.418	0.0148854
736.496	0.0149615
736.575	0.0149671
736.653	0.0150521
736.731	0.0151699
736.809	0.0151099
736.887	0.0152637
736.965	0.0153345
737.043	0.0152003
737.121	0.0153001
737.200	0.0153058
737.278	0.0151041
737.356	0.0150089
737.434	0.0151521
737.512	0.0152358
737.590	0.0147333
737.668	0.0147664
737.746	0.0147770
737.825	0.0145706
737.903	0.0145541
737.981	0.0144818
738.059	0.0143616
738.137	0.0141998
738.215	0.0143808
738.293	0.0144817
738.371	0.0144160
738.450	0.0145594
738.528	0.0146181
738.606	0.0145246
738.684	0.0146352
738.762	0.0145760
738.840	0.0145394
738.918	0.0146526
738.996	0.0144801
739.075	0.0145474
739.153	0.0148080
739.231	0.0148612
739.309	0.0150146
739.387	0.0149193
739.465	0.0148955
739.543	0.0150678
739.621	0.0151750
739.700	0.0153251
739.778	0.0152136
739.856	0.0154634
739.934	0.0153082
740.012	0.0154343
740.090	0.0154094
740.168	0.0153314
740.246	0.0153451
740.325	0.0150061
740.403	0.0148798
740.481	0.0149476
740.559	0.0148717
740.637	0.0145766
740.715	0.0145644
740.793	0.0145343
740.871	0.0143648
740.950	0.0142717
741.028	0.0143472
741.106	0.0143925
741.184	0.0143705
741.262	0.0142399
741.340	0.0144514
741.418	0.0144695
741.496	0.0145033
741.575	0.0146007
741.653	0.0146458
741.731	0.0147842
741.809	0.0149099
741.887	0.0148782
741.965	0.0148385
742.043	0.0148158
742.121	0.0149464
742.200	0.0150342
742.278	0.0152142
742.356	0.0151363
742.434	0.0151059
742.512	0.0150467
742.590	0.0149513
742.668	0.0150332
742.746	0.0150325
742.825	0.0151682
742.903	0.0148716
742.981	0.0149126
743.059	0.0148707
743.137	0.0149754
743.215	0.0149526
743.293	0.0148768
743.371	0.0147401
743.450	0.0149747
743.528	0.0147867
743.606	0.0148528
743.684	0.0147827
743.762	0.0146808
743.840	0.0148542
743.918	0.0150350
743.996	0.0149013
744.075	0.0149065
744.153	0.0150195
744.231	0.0149764
744.309	0.0149407
744.387	0.0151121
744.465	0.0150179
744.543	0.0149470
744.621	0.0149205
744.700	0.0149272
744.778	0.0150752
744.856	0.0149310
744.934	0.0149774
745.012	0.0149993
745.090	0.0149750
745.168	0.0149290
745.246	0.0149480
745.325	0.0146947
745.403	0.0147468
745.481	0.0146626
745.559	0.0145452
745.637	0.0147575
745.715	0.0145296
745.793	0.0146728
745.871	0.0146174
745.950	0.0145575
746.028	0.0147369
746.106	0.0146857
746.184	0.0146333
746.262	0.0147456
746.340	0.0146510
746.418	0.0148695
746.496	0.0149483
746.575	0.0149339
746.653	0.0150070
746.731	0.0149748
746.809	0.0150551
746.887	0.0150306
746.965	0.0150478
747.043	0.0151027
747.121	0.0151527
747.200	0.0150837
747.278	0.0149220
747.356	0.0151138
747.434	0.0151472
747.512	0.0149345
747.590	0.0148627
747.668	0.0149768
747.746	0.0149293
747.825	0.0149129
747.903	0.0148696
747.981	0.0148747
748.059	0.0147472
748.137	0.0147218
748.215	0.0147583
748.293	0.0146337
748.371	0.0147467
748.450	0.0148069
748.528	0.0146198
748.606	0.0148080
748.684	0.0148032
748.762	0.0148544
748.840	0.0148087
748.918	0.0149097
748.996	0.0147582
749.075	0.0149368
749.153	0.0149454
749.231	0.0149734
749.309	0.0149812
749.387	0.0149466
749.465	0.0150518
749.543	0.0150716
749.621	0.0149083
749.700	0.0149123
749.778	0.0149187
749.856	0.0150211
749.934	0.0148636
750.012	0.0149496
750.090	0.0150403
750.168	0.0148727
750.246	0.0148614
750.325	0.0149023
750.403	0.0147556
750.481	0.0148069
750.559	0.0146633
750.637	0.0146803
750.715	0.0146155
750.793	0.0148239
750.871	0.0147026
750.950	0.0146307
751.028	0.0146162
751.106	0.0145539
751.184	0.0146233
751.262	0.0145866
751.340	0.0146865
751.418	0.0146616
751.496	0.0145675
751.575	0.0147941
751.653	0.0147895
751.731	0.0147372
751.809	0.0149452
751.887	0.0148444
751.965	0.0149851
752.043	0.0149787
752.121	0.0150601
752.200	0.0150698
752.278	0.0150667
752.356	0.0150745
752.434	0.0149628
752.512	0.0151053
752.590	0.0150993
752.668	0.0149651
752.746	0.0149086
752.825	0.0148918
752.903	0.0148793
752.981	0.0148569
753.059	0.0148024
753.137	0.0147081
753.215	0.0146925
753.293	0.0145760
753.371	0.0147437
753.450	0.0147694
753.528	0.0147607
753.606	0.0147397
753.684	0.0147369
753.762	0.0145568
753.840	0.0147272
753.918	0.0147623
753.996	0.0147998
754.075	0.0147280
754.153	0.0147437
754.231	0.0149081
754.309	0.0147404
754.387	0.0147510
754.465	0.0147333
754.543	0.0147916
754.621	0.0148911
754.700	0.0148333
754.778	0.0149152
754.856	0.0148563
754.934	0.0148558
755.012	0.0148455
755.090	0.0148721
755.168	0.0148407
755.246	0.0149176
755.325	0.0147745
755.403	0.0148460
755.481	0.0149315
755.559	0.0147598
755.637	0.0147662
755.715	0.0148438
755.793	0.0148536
755.871	0.0148425
755.950	0.0147265
756.028	0.0147929
756.106	0.0147025
756.184	0.0148650
756.262	0.0149658
756.340	0.0148306
756.418	0.0148950
756.496	0.0150161
756.575	0.0149411
756.653	0.0149090
756.731	0.0148807
756.809	0.0150617
756.887	0.0149509
756.965	0.0148151
757.043	0.0149048
757.121	0.0148809
757.200	0.0149004
757.278	0.0147971
757.356	0.0148177
757.434	0.0148936
757.512	0.0147020
757.590	0.0147073
757.668	0.0148091
757.746	0.0147137
757.825	0.0146602
757.903	0.0148490
757.981	0.0148917
758.059	0.0147546
758.137	0.0148354
758.215	0.0147922
758.293	0.0147313
758.371	0.0149715
758.450	0.0148589
758.528	0.0148888
758.606	0.0146945
758.684	0.0147859
758.762	0.0150130
758.840	0.0149018
758.918	0.0148369
758.996	0.0148866
759.075	0.0149901
759.153	0.0150271
759.231	0.0150503
759.309	0.0149953
759.387	0.0151656
759.465	0.0149787
759.543	0.0149432
759.621	0.0149506
759.700	0.0149456
759.778	0.0150457
759.856	0.0150598
759.934	0.0151017
760.012	0.0149419
760.090	0.0148663
760.168	0.0149168
760.246	0.0149882
760.325	0.0149535
760.403	0.0147239
760.481	0.0147068
760.559	0.0147460
760.637	0.0147218
760.715	0.0146542
760.793	0.0147117
760.871	0.0146793
760.950	0.0146088
761.028	0.0146269
761.106	0.0146115
761.184	0.0144442
761.262	0.0146132
761.340	0.0145978
761.418	0.0145033
761.496	0.0145901
761.575	0.0145410
761.653	0.0144756
761.731	0.0145603
761.809	0.0147959
761.887	0.0147731
761.965	0.0148385
762.043	0.0148599
762.121	0.0149375
762.200	0.0149122
762.278	0.0149118
762.356	0.0149876
762.434	0.0150983
762.512	0.0151839
762.590	0.0151891
762.668	0.0151946
762.746	0.0151590
762.825	0.0151385
762.903	0.0152304
762.981	0.0151413
763.059	0.0150984
763.137	0.0149699
763.215	0.0149882
763.293	0.0149886
763.371	0.0149520
763.450	0.0149056
763.528	0.0147849
763.606	0.0148281
763.684	0.0147755
763.762	0.0146645
763.840	0.0147099
763.918	0.0147237
763.996	0.0148064
764.075	0.0148663
764.153	0.0147478
764.231	0.0148003
764.309	0.0147900
764.387	0.0147163
764.465	0.0146864
764.543	0.0146188
764.621	0.0147896
764.700	0.0146900
764.778	0.0146803
764.856	0.0147656
764.934	0.0148572
765.012	0.0148996
765.090	0.0149565
765.168	0.0147938
765.246	0.0148641
765.325	0.0147279
765.403	0.0147758
765.481	0.0150026
765.559	0.0146747
765.637	0.0149036
765.715	0.0149179
765.793	0.0148943
765.871	0.0149125
765.950	0.0146708
766.028	0.0147720
766.106	0.0147560
766.184	0.0148212
766.262	0.0147986
766.340	0.0148740
766.418	0.0148642
766.496	0.0147861
766.575	0.0149686
766.653	0.0149699
766.731	0.0148827
766.809	0.0148768
766.887	0.0149126
766.965	0.0147906
767.043	0.0147713
767.121	0.0149747
767.200	0.0149679
767.278	0.0150601
767.356	0.0148405
767.434	0.0149889
767.512	0.0150104
767.590	0.0148197
767.668	0.0149901
767.746	0.0148463
767.825	0.0148055
767.903	0.0149998
767.981	0.0149461
768.059	0.0148586
768.137	0.0146989
768.215	0.0149049
768.293	0.0148017
768.371	0.0148016
768.450	0.0147477
768.528	0.0148217
768.606	0.0146907
768.684	0.0147939
768.762	0.0147539
768.840	0.0148693
768.918	0.0148750
768.996	0.0148319
769.075	0.0148377
769.153	0.0148264
769.231	0.0147214
769.309	0.0149303
769.387	0.0147189
769.465	0.0147257
769.543	0.0147505
769.621	0.0147469
769.700	0.0148618
769.778	0.0148020
769.856	0.0149155
769.934	0.0146730
770.012	0.0148034
770.090	0.0149378
770.168	0.0148280
770.246	0.0148737
770.325	0.0149769
770.403	0.0148692
770.481	0.0149347
770.559	0.0150175
770.637	0.0147047
770.715	0.0149381
770.793	0.0148393
770.871	0.0148387
770.950	0.0148205
771.028	0.0147656
771.106	0.0148180
771.184	0.0148808
771.262	0.0146296
771.340	0.0148523
771.418	0.0149308
771.496	0.0146909
771.575	0.0147527
771.653	0.0148708
771.731	0.0147200
771.809	0.0147150
771.887	0.0147471
771.965	0.0148343
772.043	0.0149889
772.121	0.0148865
772.200	0.0148335
772.278	0.0148445
772.356	0.0148215
772.434	0.0149309
772.512	0.0148289
772.590	0.0149555
772.668	0.0148130
772.746	0.0149183
772.825	0.0149742
772.903	0.0149514
772.981	0.0148436
773.059	0.0150029
773.137	0.0150093
773.215	0.0150101
773.293	0.0150178
773.371	0.0149303
773.450	0.0148517
773.528	0.0148572
773.606	0.0148322
773.684	0.0149013
773.762	0.0148293
773.840	0.0148055
773.918	0.0148550
773.996	0.0147852
774.075	0.0148325
774.153	0.0149061
774.231	0.0148151
774.309	0.0148115
774.387	0.0148177
774.465	0.0146951
774.543	0.0148170
774.621	0.0149615
774.700	0.0149767
774.778	0.0146960
774.856	0.0147903
774.934	0.0148344
775.012	0.0148131
775.090	0.0147045
775.168	0.0148646
775.246	0.0150473
775.325	0.0149184
775.403	0.0148500
775.481	0.0149281
775.559	0.0149477
775.637	0.0148576
775.715	0.0149658
775.793	0.0149107
775.871	0.0149340
775.950	0.0148657
776.028	0.0149448
776.106	0.0148377
776.184	0.0147692
776.262	0.0148335
776.340	0.0148405
776.418	0.0149001
776.496	0.0148725
776.575	0.0148035
776.653	0.0147136
776.731	0.0147071
776.809	0.0147646
776.887	0.0148399
776.965	0.0149168
777.043	0.0148578
777.121	0.0147961
777.200	0.0148779
777.278	0.0148549
777.356	0.0149828
777.434	0.0149270
777.512	0.0148064
777.590	0.0148634
777.668	0.0149576
777.746	0.0149234
777.825	0.0148315
777.903	0.0148666
777.981	0.0149576
778.059	0.0149025
778.137	0.0149941
778.215	0.0147642
778.293	0.0148642
778.371	0.0148985
778.450	0.0148012
778.528	0.0148170
778.606	0.0148088
778.684	0.0147514
778.762	0.0148066
778.840	0.0147476
778.918	0.0148489
778.996	0.0147939
779.075	0.0148440
779.153	0.0148554
779.231	0.0147832
779.309	0.0148338
779.387	0.0148902
779.465	0.0148495
779.543	0.0148140
779.621	0.0148112
779.700	0.0148122
779.778	0.0148536
779.856	0.0148478
779.934	0.0149560
780.012	0.0148885
780.090	0.0149217
780.168	0.0148457
780.246	0.0149243
780.325	0.0149310
780.403	0.0149300
780.481	0.0149490
780.559	0.0150007
780.637	0.0149357
780.715	0.0149303
780.793	0.0149184
780.871	0.0148661
780.950	0.0149168
781.028	0.0148985
781.106	0.0147980
781.184	0.0148248
781.262	0.0147973
781.340	0.0148119
781.418	0.0148701
781.496	0.0148447
781.575	0.0148901
781.653	0.0149052
781.731	0.0148997
781.809	0.0149144
781.887	0.0149586
781.965	0.0147647
782.043	0.0147974
782.121	0.0149092
782.200	0.0147124
782.278	0.0147087
782.356	0.0148138
782.434	0.0147515
782.512	0.0147126
782.590	0.0147321
782.668	0.0148801
782.746	0.0149451
782.825	0.0147803
782.903	0.0148683
782.981	0.0148743
783.059	0.0148082
783.137	0.0147318
783.215	0.0146682
783.293	0.0149681
783.371	0.0150390
783.450	0.0148586
783.528	0.0147950
783.606	0.0149116
783.684	0.0148776
783.762	0.0149220
783.840	0.0148591
783.918	0.0149663
783.996	0.0150066
784.075	0.0150055
784.153	0.0148586
784.231	0.0149009
784.309	0.0149321
784.387	0.0149303
784.465	0.0149376
784.543	0.0148171
784.621	0.0148495
784.700	0.0148730
784.778	0.0148409
784.856	0.0148901
784.934	0.0148380
785.012	0.0146999
785.090	0.0148188
785.168	0.0148865
785.246	0.0149287
785.325	0.0147801
785.403	0.0148176
785.481	0.0149631
785.559	0.0148378
785.637	0.0147408
785.715	0.0148788
785.793	0.0148407
785.871	0.0149698
785.950	0.0148586
786.028	0.0147855
786.106	0.0147312
786.184	0.0147772
786.262	0.0147474
786.340	0.0147782
786.418	0.0149065
786.496	0.0148949
786.575	0.0148119
786.653	0.0147723
786.731	0.0148831
786.809	0.0150943
786.887	0.0149796
786.965	0.0148631
787.043	0.0150127
787.121	0.0148529
787.200	0.0149088
787.278	0.0149343
787.356	0.0150235
787.434	0.0149556
787.512	0.0149309
787.590	0.0149390
787.668	0.0150160
787.746	0.0150129
787.825	0.0150693
787.903	0.0150974
787.981	0.0149602
788.059	0.0149950
788.137	0.0149851
788.215	0.0149981
788.293	0.0149987
788.371	0.0147994
788.450	0.0148254
788.528	0.0148427
788.606	0.0150710
788.684	0.0148825
788.762	0.0149979
788.840	0.0149606
788.918	0.0147473
788.996	0.0148896
789.075	0.0149645
789.153	0.0149844
789.231	0.0148665
789.309	0.0147785
789.387	0.0148673
789.465	0.0147816
789.543	0.0148006
789.621	0.0147959
789.700	0.0147511
789.778	0.0148192
789.856	0.0148893
789.934	0.0149504
790.012	0.0147937
790.090	0.0147106
790.168	0.0149022
790.246	0.0149648
790.325	0.0147978
790.403	0.0149588
790.481	0.0149855
790.559	0.0149079
790.637	0.0149902
790.715	0.0149949
790.793	0.0148894
790.871	0.0147180
790.950	0.0148597
791.028	0.0147906
791.106	0.0149116
791.184	0.0147916
791.262	0.0147272
791.340	0.0148842
791.418	0.0149177
791.496	0.0146876
791.575	0.0147267
791.653	0.0149384
791.731	0.0148973
791.809	0.0149061
791.887	0.0147929
791.965	0.0148632
792.043	0.0148461
792.121	0.0148592
792.200	0.0147239
792.278	0.0147297
792.356	0.0148623
792.434	0.0149974
792.512	0.0150254
792.590	0.0148952
792.668	0.0148825
792.746	0.0148843
792.825	0.0148892
792.903	0.0149016
792.981	0.0149208
793.059	0.0149871
793.137	0.0149622
793.215	0.0148048
793.293	0.0148229
793.371	0.0148183
793.450	0.0149172
793.528	0.0149567
793.606	0.0148240
793.684	0.0149058
793.762	0.0147942
793.840	0.0148021
793.918	0.0148721
793.996	0.0148031
794.075	0.0146644
794.153	0.0148531
794.231	0.0147697
794.309	0.0148586
794.387	0.0148504
794.465	0.0147178
794.543	0.0146803
794.621	0.0149325
794.700	0.0149932
794.778	0.0148453
794.856	0.0148296
794.934	0.0149711
795.012	0.0148891
795.090	0.0148853
795.168	0.0148405
795.246	0.0149332
795.325	0.0148917
795.403	0.0150408
795.481	0.0150039
795.559	0.0149207
795.637	0.0149477
795.715	0.0148728
795.793	0.0149346
795.871	0.0148009
795.950	0.0148911
796.028	0.0149493
796.106	0.0147314
796.184	0.0148200
796.262	0.0148927
796.340	0.0150088
796.418	0.0150269
796.496	0.0147985
796.575	0.0148267
796.653	0.0148425
796.731	0.0147530
796.809	0.0148523
796.887	0.0148349
796.965	0.0147762
797.043	0.0148975
797.121	0.0148264
797.200	0.0147424
797.278	0.0148469
797.356	0.0146815
797.434	0.0147015
797.512	0.0149352
797.590	0.0147895
797.668	0.0147225
797.746	0.0147014
797.825	0.0148494
797.903	0.0147901
797.981	0.0149255
798.059	0.0149837
798.137	0.0147720
798.215	0.0147993
798.293	0.0150054
798.371	0.0148963
798.450	0.0149557
798.528	0.0148482
798.606	0.0149492
798.684	0.0149207
798.762	0.0148064
798.840	0.0148550
798.918	0.0148660
798.996	0.0149050
799.075	0.0148607
799.153	0.0148566
799.231	0.0148793
799.309	0.0150483
799.387	0.0149853
799.465	0.0149229
799.543	0.0148962
799.621	0.0150237
799.700	0.0148394
799.778	0.0147906
799.856	0.0149785
799.934	0.0149072
800.012	0.0148193
800.090	0.0149290
800.168	0.0148840
800.246	0.0149010
800.325	0.0148191
800.403	0.0147813
800.481	0.0149107
800.559	0.0149337
800.637	0.0150277
800.715	0.0147600
800.793	0.0150220
800.871	0.0148628
800.950	0.0148800
801.028	0.0148131
801.106	0.0148476
801.184	0.0148633
801.262	0.0149681
801.340	0.0150471
801.418	0.0149747
801.496	0.0149149
801.575	0.0149907
801.653	0.0148860
801.731	0.0149222
801.809	0.0149433
801.887	0.0149812
801.965	0.0150035
802.043	0.0148979
802.121	0.0149229
802.200	0.0148421
802.278	0.0147664
802.356	0.0148034
802.434	0.0147028
802.512	0.0148338
802.590	0.0146923
802.668	0.0147587
802.746	0.0147860
802.825	0.0147139
802.903	0.0147323
802.981	0.0147264
803.059	0.0148016
803.137	0.0148808
803.215	0.0146940
803.293	0.0150649
803.371	0.0150412
803.450	0.0148153
803.528	0.0148817
803.606	0.0148481
803.684	0.0148293
803.762	0.0149322
803.840	0.0150574
803.918	0.0149395
803.996	0.0150201
804.075	0.0149824
804.153	0.0149021
804.231	0.0148363
804.309	0.0149862
804.387	0.0150217
804.465	0.0150066
804.543	0.0149434
804.621	0.0148357
804.700	0.0148743
804.778	0.0147861
804.856	0.0147829
804.934	0.0148142
805.012	0.0149003
805.090	0.0147675
805.168	0.0148724
805.246	0.0146998
805.325	0.0146930
805.403	0.0146843
805.481	0.0147596
805.559	0.0146895
805.637	0.0147577
805.715	0.0146471
805.793	0.0148712
805.871	0.0149448
805.950	0.0148170
806.028	0.0147726
806.106	0.0148524
806.184	0.0149074
806.262	0.0149220
806.340	0.0149843
806.418	0.0149781
806.496	0.0151160
806.575	0.0150861
806.653	0.0150507
806.731	0.0150231
806.809	0.0149861
806.887	0.0150555
806.965	0.0149090
807.043	0.0149161
807.121	0.0149187
807.200	0.0150386
807.278	0.0149022
807.356	0.0148495
807.434	0.0150561
807.512	0.0149836
807.590	0.0149279
807.668	0.0147604
807.746	0.0148634
807.825	0.0149146
807.903	0.0148582
807.981	0.0147010
808.059	0.0148582
808.137	0.0148802
808.215	0.0147940
808.293	0.0146484
808.371	0.0147443
808.450	0.0147175
808.528	0.0147386
808.606	0.0146194
808.684	0.0146876
808.762	0.0146828
808.840	0.0147978
808.918	0.0148339
808.996	0.0147840
809.075	0.0147730
809.153	0.0148521
809.231	0.0150526
809.309	0.0149492
809.387	0.0148177
809.465	0.0149174
809.543	0.0149560
809.621	0.0150433
809.700	0.0150224
809.778	0.0148450
809.856	0.0149534
809.934	0.0149584
810.012	0.0147298
810.090	0.0148825
810.168	0.0149386
810.246	0.0149078
810.325	0.0149618
810.403	0.0149150
810.481	0.0148072
810.559	0.0148866
810.637	0.0148753
810.715	0.0147887
810.793	0.0148969
810.871	0.0148591
810.950	0.0148860
811.028	0.0148609
811.106	0.0146935
811.184	0.0146909
811.262	0.0147038
811.340	0.0148253
811.418	0.0148701
811.496	0.0148256
811.575	0.0149270
811.653	0.0149449
811.731	0.0147593
811.809	0.0147419
811.887	0.0148715
811.965	0.0149813
812.043	0.0148185
812.121	0.0149479
812.200	0.0152020
812.278	0.0149480
812.356	0.0149329
812.434	0.0149267
812.512	0.0149557
812.590	0.0148494
812.668	0.0149612
812.746	0.0148970
812.825	0.0147954
812.903	0.0149660
812.981	0.0148753
813.059	0.0146777
813.137	0.0148522
813.215	0.0148550
813.293	0.0148173
813.371	0.0149008
813.450	0.0148409
813.528	0.0147641
813.606	0.0147709
813.684	0.0148072
813.762	0.0148675
813.840	0.0149469
813.918	0.0148512
813.996	0.0148025
814.075	0.0148396
814.153	0.0148495
814.231	0.0149301
814.309	0.0148773
814.387	0.0148461
814.465	0.0147440
814.543	0.0147014
814.621	0.0149107
814.700	0.0149349
814.778	0.0149038
814.856	0.0147967
814.934	0.0148967
815.012	0.0149559
815.090	0.0149162
815.168	0.0149590
815.246	0.0149875
815.325	0.0150442
815.403	0.0149634
815.481	0.0149181
815.559	0.0148449
815.637	0.0149442
815.715	0.0148920
815.793	0.0147617
815.871	0.0148846
815.950	0.0150483
816.028	0.0149379
816.106	0.0147081
816.184	0.0148432
816.262	0.0147884
816.340	0.0147502
816.418	0.0149478
816.496	0.0149232
816.575	0.0148300
816.653	0.0149498
816.731	0.0149245
816.809	0.0148991
816.887	0.0148527
816.965	0.0149308
817.043	0.0149206
817.121	0.0148260
817.200	0.0149559
817.278	0.0149776
817.356	0.0149001
817.434	0.0148598
817.512	0.0150196
817.590	0.0148554
817.668	0.0147395
817.746	0.0147667
817.825	0.0147084
817.903	0.0149261
817.981	0.0149683
818.059	0.0147379
818.137	0.0148585
818.215	0.0148628
818.293	0.0148202
818.371	0.0148366
818.450	0.0149387
818.528	0.0149141
818.606	0.0148952
818.684	0.0147222
818.762	0.0149358
818.840	0.0147618
818.918	0.0147474
818.996	0.0148405
819.075	0.0148419
819.153	0.0148306
819.231	0.0149394
819.309	0.0147955
819.387	0.0146620
819.465	0.0147325
819.543	0.0148396
819.621	0.0149888
819.700	0.0147537
819.778	0.0149092
819.856	0.0148988
819.934	0.0148935
820.012	0.0149721
820.090	0.0149644
820.168	0.0148946
820.246	0.0148861
820.325	0.0148882
820.403	0.0147495
820.481	0.0147134
820.559	0.0149206
820.637	0.0148473
820.715	0.0148145
820.793	0.0148328
820.871	0.0149205
820.950	0.0148873
821.028	0.0147522
821.106	0.0149530
821.184	0.0148835
821.262	0.0148814
821.340	0.0149574
821.418	0.0147324
821.496	0.0147874
821.575	0.0146988
821.653	0.0147574
821.731	0.0147951
821.809	0.0148371
821.887	0.0148499
821.965	0.0148385
822.043	0.0147918
822.121	0.0149110
822.200	0.0149281
822.278	0.0149268
822.356	0.0148286
822.434	0.0148009
822.512	0.0148381
822.590	0.0148496
822.668	0.0148290
822.746	0.0148332
822.825	0.0147170
822.903	0.0147726
822.981	0.0150039
823.059	0.0147942
823.137	0.0147079
823.215	0.0146375
823.293	0.0148898
823.371	0.0147871
823.450	0.0148745
823.528	0.0147359
823.606	0.0147723
823.684	0.0148722
823.762	0.0148366
823.840	0.0147993
823.918	0.0148478
823.996	0.0147652
824.075	0.0148262
824.153	0.0148332
824.231	0.0149550
824.309	0.0148679
824.387	0.0149424
824.465	0.0149655
824.543	0.0149567
824.621	0.0149127
824.700	0.0150239
824.778	0.0151323
824.856	0.0149921
824.934	0.0149625
825.012	0.0151250
825.090	0.0149644
825.168	0.0149614
825.246	0.0149185
825.325	0.0148476
825.403	0.0146808
825.481	0.0149399
825.559	0.0148920
825.637	0.0148112
825.715	0.0146703
825.793	0.0147952
825.871	0.0147286
825.950	0.0147746
826.028	0.0147541
826.106	0.0147236
826.184	0.0146201
826.262	0.0147324
826.340	0.0147108
826.418	0.0146263
826.496	0.0147610
826.575	0.0146901
826.653	0.0147421
826.731	0.0147417
826.809	0.0148221
826.887	0.0148500
826.965	0.0149427
827.043	0.0149806
827.121	0.0149100
827.200	0.0149121
827.278	0.0148375
827.356	0.0148277
827.434	0.0149474
827.512	0.0150941
827.590	0.0148842
827.668	0.0148403
827.746	0.0149311
827.825	0.0148737
827.903	0.0148329
827.981	0.0148872
828.059	0.0150037
828.137	0.0147878
828.215	0.0149284
828.293	0.0148904
828.371	0.0149069
828.450	0.0148621
828.528	0.0148759
828.606	0.0149084
828.684	0.0148584
828.762	0.0150083
828.840	0.0149458
828.918	0.0147819
828.996	0.0148772
829.075	0.0149005
829.153	0.0147576
829.231	0.0148572
829.309	0.0147730
829.387	0.0148204
829.465	0.0148586
829.543	0.0147723
829.621	0.0148212
829.700	0.0149214
829.778	0.0148797
829.856	0.0147680
829.934	0.0147910
830.012	0.0147469
830.090	0.0148894
830.168	0.0149856
830.246	0.0149484
830.325	0.0149328
830.403	0.0149399
830.481	0.0146964
830.559	0.0147919
830.637	0.0149030
830.715	0.0150468
830.793	0.0148483
830.871	0.0148483
830.950	0.0149890
831.028	0.0148418
831.106	0.0149030
831.184	0.0149496
831.262	0.0148740
831.340	0.0148276
831.418	0.0149213
831.496	0.0150218
831.575	0.0149202
831.653	0.0149362
831.731	0.0149812
831.809	0.0148745
831.887	0.0147565
831.965	0.0147939
832.043	0.0149088
832.121	0.0147647
832.200	0.0148428
832.278	0.0149014
832.356	0.0148037
832.434	0.0147370
832.512	0.0148081
832.590	0.0148360
832.668	0.0150048
832.746	0.0148540
832.825	0.0148994
832.903	0.0148281
832.981	0.0148741
833.059	0.0148960
833.137	0.0148966
833.215	0.0147424
833.293	0.0148423
833.371	0.0148424
833.450	0.0148643
833.528	0.0148889
833.606	0.0149362
833.684	0.0149277
833.762	0.0147742
833.840	0.0147047
833.918	0.0146689
833.996	0.0148228
834.075	0.0149603
834.153	0.0146959
834.231	0.0148764
834.309	0.0148060
834.387	0.0149074
834.465	0.0149067
834.543	0.0148302
834.621	0.0149602
834.700	0.0149775
834.778	0.0149385
834.856	0.0149757
834.934	0.0149255
835.012	0.0149036
835.090	0.0150020
835.168	0.0149267
835.246	0.0149234
835.325	0.0149377
835.403	0.0148626
835.481	0.0148908
835.559	0.0149174
835.637	0.0148046
835.715	0.0148412
835.793	0.0148764
835.871	0.0149613
835.950	0.0148053
836.028	0.0149416
836.106	0.0149517
836.184	0.0148530
836.262	0.0148437
836.340	0.0150007
836.418	0.0147990
836.496	0.0149251
836.575	0.0147631
836.653	0.0147379
836.731	0.0149110
836.809	0.0149719
836.887	0.0149918
836.965	0.0149025
837.043	0.0147693
837.121	0.0149086
837.200	0.0149147
837.278	0.0147913
837.356	0.0149455
837.434	0.0147377
837.512	0.0147646
837.590	0.0148404
837.668	0.0149017
837.746	0.0148390
837.825	0.0147425
837.903	0.0147879
837.981	0.0148474
838.059	0.0148280
838.137	0.0148351
838.215	0.0147997
838.293	0.0148679
838.371	0.0148708
838.450	0.0146739
838.528	0.0148614
838.606	0.0149430
838.684	0.0149236
838.762	0.0147733
838.840	0.0147267
838.918	0.0148814
838.996	0.0148971
839.075	0.0149274
839.153	0.0148858
839.231	0.0147875
839.309	0.0147548
839.387	0.0148571
839.465	0.0148717
839.543	0.0149045
839.621	0.0148447
839.700	0.0148051
839.778	0.0148012
839.856	0.0148621
839.934	0.0149073
840.012	0.0147235
840.090	0.0147760
840.168	0.0147968
840.246	0.0148529
840.325	0.0149184
840.403	0.0147774
840.481	0.0148153
840.559	0.0147032
840.637	0.0148963
840.715	0.0147905
840.793	0.0148402
840.871	0.0148463
840.950	0.0148919
841.028	0.0148240
841.106	0.0147456
841.184	0.0148044
841.262	0.0147615
841.340	0.0147549
841.418	0.0147358
841.496	0.0147957
841.575	0.0147604
841.653	0.0147100
841.731	0.0148644
841.809	0.0148695
841.887	0.0148341
841.965	0.0148646
842.043	0.0148864
842.121	0.0148437
842.200	0.0148043
842.278	0.0150650
842.356	0.0149600
842.434	0.0149580
842.512	0.0148540
842.590	0.0147086
842.668	0.0148973
842.746	0.0147929
842.825	0.0146914
842.903	0.0146811
842.981	0.0149117
843.059	0.0148325
843.137	0.0148839
843.215	0.0148305
843.293	0.0148642
843.371	0.0148940
843.450	0.0148450
843.528	0.0148469
843.606	0.0147679
843.684	0.0150020
843.762	0.0148351
843.840	0.0148706
843.918	0.0147819
843.996	0.0147198
844.075	0.0148859
844.153	0.0146812
844.231	0.0148653
844.309	0.0147236
844.387	0.0148013
844.465	0.0147160
844.543	0.0146305
844.621	0.0147213
844.700	0.0148274
844.778	0.0146600
844.856	0.0148723
844.934	0.0150610
845.012	0.0147934
845.090	0.0148396
845.168	0.0148950
845.246	0.0148852
845.325	0.0148006
845.403	0.0148825
845.481	0.0149097
845.559	0.0148749
845.637	0.0147260
845.715	0.0149107
845.793	0.0148615
845.871	0.0148242
845.950	0.0147694
846.028	0.0147995
846.106	0.0149673
846.184	0.0148398
846.262	0.0149312
846.340	0.0148147
846.418	0.0147556
846.496	0.0149081
846.575	0.0149336
846.653	0.0149184
846.731	0.0148821
846.809	0.0148199
846.887	0.0149313
846.965	0.0147512
847.043	0.0149180
847.121	0.0148141
847.200	0.0148484
847.278	0.0146817
847.356	0.0147907
847.434	0.0146576
847.512	0.0146238
847.590	0.0147004
847.668	0.0147027
847.746	0.0148179
847.825	0.0147610
847.903	0.0149042
847.981	0.0147540
848.059	0.0147488
848.137	0.0148547
848.215	0.0149760
848.293	0.0149223
848.371	0.0149131
848.450	0.0148521
848.528	0.0149242
848.606	0.0149311
848.684	0.0148609
848.762	0.0148832
848.840	0.0148627
848.918	0.0149367
848.996	0.0149884
849.075	0.0149810
849.153	0.0149284
849.231	0.0148559
849.309	0.0150588
849.387	0.0148775
849.465	0.0147932
849.543	0.0148566
849.621	0.0149422
849.700	0.0148822
849.778	0.0147822
849.856	0.0146950
849.934	0.0147123
850.012	0.0148319
850.090	0.0148344
850.168	0.0148191
850.246	0.0148325
850.325	0.0147244
850.403	0.0146741
850.481	0.0147794
850.559	0.0149525
850.637	0.0149340
850.715	0.0147700
850.793	0.0148810
850.871	0.0148218
850.950	0.0148363
851.028	0.0149036
851.106	0.0148006
851.184	0.0147988
851.262	0.0149272
851.340	0.0149784
851.418	0.0147726
851.496	0.0148919
851.575	0.0147672
851.653	0.0147018
851.731	0.0149293
851.809	0.0147601
851.887	0.0148257
851.965	0.0149993
852.043	0.0148561
852.121	0.0146677
852.200	0.0148067
852.278	0.0147896
852.356	0.0147912
852.434	0.0147546
852.512	0.0146749
852.590	0.0149340
852.668	0.0149527
852.746	0.0148831
852.825	0.0147776
852.903	0.0148634
852.981	0.0148592
853.059	0.0148278
853.137	0.0148422
853.215	0.0147478
853.293	0.0147799
853.371	0.0148727
853.450	0.0149673
853.528	0.0148650
853.606	0.0148080
853.684	0.0148593
853.762	0.0149531
853.840	0.0148392
853.918	0.0147621
853.996	0.0147536
854.075	0.0149250
854.153	0.0147834
854.231	0.0146860
854.309	0.0147425
854.387	0.0148917
854.465	0.0148566
854.543	0.0148829
854.621	0.0147808
854.700	0.0147717
854.778	0.0148538
854.856	0.0147009
854.934	0.0148187
855.012	0.0147733
855.090	0.0148052
855.168	0.0148528
855.246	0.0147608
855.325	0.0148689
855.403	0.0147606
855.481	0.0147596
855.559	0.0149786
855.637	0.0148223
855.715	0.0147724
855.793	0.0147640
855.871	0.0148241
855.950	0.0148450
856.028	0.0147990
856.106	0.0148228
856.184	0.0147377
856.262	0.0148891
856.340	0.0148811
856.418	0.0150314
856.496	0.0148127
856.575	0.0148781
856.653	0.0148930
856.731	0.0149363
856.809	0.0150410
856.887	0.0148344
856.965	0.0148218
857.043	0.0148009
857.121	0.0148661
857.200	0.0149860
857.278	0.0147931
857.356	0.0148642
857.434	0.0149999
857.512	0.0146848
857.590	0.0147391
857.668	0.0147395
857.746	0.0147503
857.825	0.0149203
857.903	0.0148857
857.981	0.0149862
858.059	0.0147702
858.137	0.0148105
858.215	0.0147212
858.293	0.0148779
858.371	0.0148735
858.450	0.0148100
858.528	0.0148175
858.606	0.0149255
858.684	0.0150642
858.762	0.0148573
858.840	0.0148511
858.918	0.0149650
858.996	0.0148043
859.075	0.0149193
859.153	0.0148341
859.231	0.0149176
859.309	0.0149077
859.387	0.0148489
859.465	0.0149419
859.543	0.0149326
859.621	0.0147924
859.700	0.0148244
859.778	0.0149923
859.856	0.0149052
859.934	0.0148319
860.012	0.0148685
860.090	0.0148503
860.168	0.0148193
860.246	0.0147757
860.325	0.0148140
860.403	0.0146692
860.481	0.0148396
860.559	0.0147166
860.637	0.0147973
860.715	0.0148247
860.793	0.0148385
860.871	0.0148124
860.950	0.0148364
861.028	0.0148878
861.106	0.0148682
861.184	0.0148563
861.262	0.0148062
861.340	0.0148543
861.418	0.0148273
861.496	0.0148487
861.575	0.0148610
861.653	0.0147812
861.731	0.0148762
861.809	0.0149273
861.887	0.0149014
861.965	0.0147404
862.043	0.0148876
862.121	0.0146786
862.200	0.0147898
862.278	0.0147964
862.356	0.0147819
862.434	0.0147137
862.512	0.0148881
862.590	0.0148969
862.668	0.0148917
862.746	0.0149157
862.825	0.0148698
862.903	0.0148354
862.981	0.0148155
863.059	0.0147791
863.137	0.0150774
863.215	0.0149352
863.293	0.0147705
863.371	0.0147497
863.450	0.0147721
863.528	0.0148279
863.606	0.0148904
863.684	0.0147357
863.762	0.0147939
863.840	0.0148147
863.918	0.0148508
863.996	0.0147522
864.075	0.0147693
864.153	0.0149577
864.231	0.0149247
864.309	0.0148380
864.387	0.0148730
864.465	0.0147237
864.543	0.0146947
864.621	0.0147099
864.700	0.0148244
864.778	0.0148975
864.856	0.0149757
864.934	0.0148805
865.012	0.0148238
865.090	0.0148568
865.168	0.0148109
865.246	0.0146860
865.325	0.0149406
865.403	0.0148660
865.481	0.0148859
865.559	0.0149854
865.637	0.0149921
865.715	0.0148228
865.793	0.0147531
865.871	0.0148106
865.950	0.0148640
866.028	0.0148238
866.106	0.0149066
866.184	0.0148238
866.262	0.0147844
866.340	0.0148532
866.418	0.0147366
866.496	0.0147729
866.575	0.0148188
866.653	0.0147823
866.731	0.0148480
866.809	0.0148540
866.887	0.0148024
866.965	0.0148438
867.043	0.0148052
867.121	0.0147892
867.200	0.0147498
867.278	0.0147311
867.356	0.0147924
867.434	0.0148876
867.512	0.0148715
867.590	0.0147827
867.668	0.0148338
867.746	0.0149218
867.825	0.0147771
867.903	0.0146979
867.981	0.0148043
868.059	0.0150078
868.137	0.0148943
868.215	0.0147218
868.293	0.0148829
868.371	0.0147984
868.450	0.0148152
868.528	0.0148508
868.606	0.0147254
868.684	0.0147730
868.762	0.0148317
868.840	0.0148330
868.918	0.0149772
868.996	0.0148788
869.075	0.0149943
869.153	0.0148824
869.231	0.0148007
869.309	0.0148125
869.387	0.0147238
869.465	0.0148262
869.543	0.0149182
869.621	0.0148618
869.700	0.0148138
869.778	0.0148334
869.856	0.0148003
869.934	0.0148288
870.012	0.0148862
870.090	0.0148730
870.168	0.0147478
870.246	0.0148162
870.325	0.0148866
870.403	0.0148173
870.481	0.0148672
870.559	0.0149181
870.637	0.0149127
870.715	0.0148898
870.793	0.0149192
870.871	0.0148344
870.950	0.0149594
871.028	0.0147813
871.106	0.0148276
871.184	0.0148781
871.262	0.0148854
871.340	0.0149653
871.418	0.0149174
871.496	0.0147978
871.575	0.0148684
871.653	0.0147803
871.731	0.0147891
871.809	0.0148264
871.887	0.0147440
871.965	0.0148272
872.043	0.0148215
872.121	0.0148495
872.200	0.0149198
872.278	0.0148285
872.356	0.0147538
872.434	0.0148073
872.512	0.0147079
872.590	0.0148957
872.668	0.0148348
872.746	0.0148689
872.825	0.0149049
872.903	0.0148306
872.981	0.0147877
873.059	0.0149754
873.137	0.0149509
873.215	0.0150246
873.293	0.0148943
873.371	0.0148362
873.450	0.0149406
873.528	0.0150423
873.606	0.0150530
873.684	0.0149876
873.762	0.0148248
873.840	0.0149674
873.918	0.0148898
873.996	0.0148995
874.075	0.0150322
874.153	0.0149567
874.231	0.0149548
874.309	0.0149274
874.387	0.0150604
874.465	0.0148183
874.543	0.0149028
874.621	0.0148878
874.700	0.0147478
874.778	0.0147350
874.856	0.0149178
874.934	0.0149271
875.012	0.0147400
875.090	0.0148791
875.168	0.0148256
875.246	0.0148170
875.325	0.0147723
875.403	0.0148180
875.481	0.0147970
875.559	0.0148320
875.637	0.0148708
875.715	0.0148377
875.793	0.0147487
875.871	0.0147353
875.950	0.0147582
876.028	0.0147455
876.106	0.0149026
876.184	0.0148624
876.262	0.0149226
876.340	0.0148125
876.418	0.0148098
876.496	0.0148726
876.575	0.0149323
876.653	0.0148392
876.731	0.0147601
876.809	0.0148450
876.887	0.0148626
876.965	0.0149360
877.043	0.0148492
877.121	0.0148311
877.200	0.0147946
877.278	0.0148817
877.356	0.0148205
877.434	0.0149063
877.512	0.0149339
877.590	0.0149957
877.668	0.0149275
877.746	0.0148412
877.825	0.0148511
877.903	0.0149860
877.981	0.0150640
878.059	0.0149968
878.137	0.0149044
878.215	0.0150022
878.293	0.0149236
878.371	0.0148203
878.450	0.0148512
878.528	0.0149960
878.606	0.0149197
878.684	0.0148296
878.762	0.0148276
878.840	0.0148022
878.918	0.0147435
878.996	0.0148126
879.075	0.0149043
879.153	0.0148118
879.231	0.0148287
879.309	0.0150803
879.387	0.0149073
879.465	0.0148640
879.543	0.0148718
879.621	0.0148547
879.700	0.0148632
879.778	0.0148027
879.856	0.0148388
879.934	0.0149418
880.012	0.0147767
880.090	0.0148087
880.168	0.0148078
880.246	0.0150308
880.325	0.0150412
880.403	0.0149266
880.481	0.0147218
880.559	0.0149364
880.637	0.0149467
880.715	0.0149030
880.793	0.0150089
880.871	0.0147839
880.950	0.0149106
881.028	0.0149415
881.106	0.0149794
881.184	0.0150308
881.262	0.0150060
881.340	0.0148292
881.418	0.0149409
881.496	0.0148931
881.575	0.0148273
881.653	0.0149120
881.731	0.0149802
881.809	0.0148438
881.887	0.0149156
881.965	0.0147244
882.043	0.0148237
882.121	0.0149905
882.200	0.0147716
882.278	0.0148058
882.356	0.0149348
882.434	0.0150204
882.512	0.0148439
882.590	0.0149242
882.668	0.0148848
882.746	0.0148206
882.825	0.0147935
882.903	0.0147906
882.981	0.0147949
883.059	0.0147750
883.137	0.0148534
883.215	0.0148285
883.293	0.0147868
883.371	0.0146956
883.450	0.0149623
883.528	0.0147511
883.606	0.0148335
883.684	0.0147758
883.762	0.0148577
883.840	0.0148497
883.918	0.0148656
883.996	0.0148650
884.075	0.0148555
884.153	0.0148220
884.231	0.0148584
884.309	0.0148810
884.387	0.0149174
884.465	0.0149902
884.543	0.0149062
884.621	0.0149039
884.700	0.0149603
884.778	0.0149702
884.856	0.0150294
884.934	0.0148505
885.012	0.0148738
885.090	0.0150340
885.168	0.0148859
885.246	0.0147691
885.325	0.0146814
885.403	0.0147279
885.481	0.0147991
885.559	0.0148577
885.637	0.0147799
885.715	0.0146969
885.793	0.0148601
885.871	0.0148228
885.950	0.0148699
886.028	0.0148098
886.106	0.0147707
886.184	0.0147123
886.262	0.0149130
886.340	0.0148177
886.418	0.0147699
886.496	0.0148527
886.575	0.0148537
886.653	0.0148700
886.731	0.0148023
886.809	0.0147500
886.887	0.0148430
886.965	0.0149120
887.043	0.0148061
887.121	0.0149274
887.200	0.0149129
887.278	0.0149096
887.356	0.0148601
887.434	0.0150501
887.512	0.0147691
887.590	0.0149590
887.668	0.0149041
887.746	0.0147698
887.825	0.0148550
887.903	0.0149049
887.981	0.0149329
888.059	0.0149477
888.137	0.0147844
888.215	0.0149271
888.293	0.0148324
888.371	0.0147277
888.450	0.0147668
888.528	0.0148368
888.606	0.0147652
888.684	0.0147291
888.762	0.0146930
888.840	0.0147115
888.918	0.0147690
888.996	0.0147858
889.075	0.0147847
889.153	0.0147913
889.231	0.0148074
889.309	0.0149552
889.387	0.0148678
889.465	0.0148845
889.543	0.0148520
889.621	0.0148398
889.700	0.0150224
889.778	0.0148357
889.856	0.0148874
889.934	0.0151586
890.012	0.0149489
890.090	0.0149775
890.168	0.0150134
890.246	0.0149599
890.325	0.0149235
890.403	0.0149396
890.481	0.0147984
890.559	0.0148286
890.637	0.0148357
890.715	0.0148184
890.793	0.0149291
890.871	0.0147664
890.950	0.0147805
891.028	0.0147378
891.106	0.0147461
891.184	0.0146481
891.262	0.0146323
891.340	0.0147002
891.418	0.0147710
891.496	0.0147587
891.575	0.0148680
891.653	0.0149953
891.731	0.0149703
891.809	0.0149255
891.887	0.0148500
891.965	0.0149278
892.043	0.0150445
892.121	0.0150446
892.200	0.0149127
892.278	0.0149349
892.356	0.0150462
892.434	0.0150633
892.512	0.0147946
892.590	0.0149772
892.668	0.0151155
892.746	0.0150195
892.825	0.0148682
892.903	0.0149963
892.981	0.0149855
893.059	0.0149516
893.137	0.0147949
893.215	0.0148053
893.293	0.0146609
893.371	0.0147206
893.450	0.0146925
893.528	0.0148288
893.606	0.0148248
893.684	0.0146237
893.762	0.0146693
893.840	0.0148146
893.918	0.0150078
893.996	0.0148958
894.075	0.0148158
894.153	0.0148806
894.231	0.0148993
894.309	0.0149177
894.387	0.0149204
894.465	0.0149693
894.543	0.0149259
894.621	0.0148848
894.700	0.0149093
894.778	0.0146913
894.856	0.0147569
894.934	0.0147726
895.012	0.0146519
895.090	0.0148631
895.168	0.0148797
895.246	0.0149335
895.325	0.0148411
895.403	0.0148724
895.481	0.0149188
895.559	0.0149524
895.637	0.0149248
895.715	0.0149393
895.793	0.0149020
895.871	0.0149517
895.950	0.0149833
896.028	0.0149619
896.106	0.0149403
896.184	0.0149498
896.262	0.0148669
896.340	0.0148483
896.418	0.0148828
896.496	0.0148539
896.575	0.0149270
896.653	0.0148061
896.731	0.0147226
896.809	0.0148882
896.887	0.0147833
896.965	0.0147594
897.043	0.0149012
897.121	0.0148324
897.200	0.0146754
897.278	0.0149599
897.356	0.0149116
897.434	0.0149257
897.512	0.0149758
897.590	0.0149251
897.668	0.0148727
897.746	0.0148428
897.825	0.0149836
897.903	0.0148839
897.981	0.0148505
898.059	0.0150095
898.137	0.0148398
898.215	0.0148643
898.293	0.0148945
898.371	0.0148975
898.450	0.0148490
898.528	0.0149511
898.606	0.0147635
898.684	0.0146231
898.762	0.0149502
898.840	0.0148024
898.918	0.0148860
898.996	0.0147615
899.075	0.0147852
899.153	0.0147881
899.231	0.0147732
899.309	0.0148702
899.387	0.0149152
899.465	0.0150431
899.543	0.0150085
899.621	0.0150150
899.700	0.0149131
899.778	0.0148385
899.856	0.0148340
899.934	0.0149418
900.012	0.0147445
900.090	0.0148524
900.168	0.0149613
900.246	0.0148572
900.325	0.0147795
900.403	0.0148687
900.481	0.0149419
900.559	0.0149288
900.637	0.0148785
900.715	0.0147453
900.793	0.0147791
900.871	0.0148256
900.950	0.0148066
901.028	0.0148260
901.106	0.0149348
901.184	0.0149812
901.262	0.0149934
901.340	0.0150333
901.418	0.0150043
901.496	0.0150774
901.575	0.0148000
901.653	0.0151477
901.731	0.0150534
901.809	0.0150837
901.887	0.0151050
901.965	0.0150658
902.043	0.0148950
902.121	0.0148804
902.200	0.0149749
902.278	0.0148638
902.356	0.0149046
902.434	0.0149059
902.512	0.0147864
902.590	0.0146980
902.668	0.0146677
902.746	0.0149074
902.825	0.0146196
902.903	0.0146159
902.981	0.0146815
903.059	0.0147429
903.137	0.0147767
903.215	0.0147635
903.293	0.0147057
903.371	0.0148057
903.450	0.0148236
903.528	0.0148038
903.606	0.0149319
903.684	0.0148201
903.762	0.0149296
903.840	0.0149006
903.918	0.0148801
903.996	0.0148727
904.075	0.0148126
904.153	0.0148335
904.231	0.0150630
904.309	0.0149645
904.387	0.0149763
904.465	0.0149788
904.543	0.0149864
904.621	0.0150723
904.700	0.0150204
904.778	0.0149826
904.856	0.0150691
904.934	0.0148163
905.012	0.0149605
905.090	0.0148886
905.168	0.0147479
905.246	0.0148338
905.325	0.0147426
905.403	0.0147305
905.481	0.0146430
905.559	0.0147327
905.637	0.0147680
905.715	0.0147778
905.793	0.0146740
905.871	0.0147066
905.950	0.0148420
906.028	0.0147976
906.106	0.0146288
906.184	0.0148653
906.262	0.0149696
906.340	0.0148785
906.418	0.0147211
906.496	0.0147173
906.575	0.0148885
906.653	0.0147888
906.731	0.0148406
906.809	0.0146967
906.887	0.0149847
906.965	0.0149160
907.043	0.0148151
907.121	0.0149719
907.200	0.0147874
907.278	0.0149224
907.356	0.0149174
907.434	0.0148922
907.512	0.0149717
907.590	0.0148717
907.668	0.0148629
907.746	0.0148370
907.825	0.0150527
907.903	0.0148603
907.981	0.0149989
908.059	0.0148597
908.137	0.0148244
908.215	0.0149161
908.293	0.0148627
908.371	0.0147573
908.450	0.0146355
908.528	0.0147560
908.606	0.0147028
908.684	0.0147399
908.762	0.0147977
908.840	0.0147269
908.918	0.0147743
908.996	0.0149172
909.075	0.0147816
909.153	0.0148298
909.231	0.0148944
909.309	0.0147457
909.387	0.0147347
909.465	0.0148571
909.543	0.0148491
909.621	0.0147939
909.700	0.0148074
909.778	0.0146696
909.856	0.0148631
909.934	0.0147888
910.012	0.0145835
910.090	0.0146535
910.168	0.0147684
910.246	0.0146972
910.325	0.0148847
910.403	0.0148162
910.481	0.0149712
910.559	0.0149461
910.637	0.0148701
910.715	0.0150649
910.793	0.0149944
910.871	0.0151486
910.950	0.0151455
911.028	0.0150147
911.106	0.0149304
911.184	0.0149194
911.262	0.0148553
911.340	0.0149678
911.418	0.0148331
911.496	0.0147980
911.575	0.0146777
911.653	0.0147330
911.731	0.0147414
911.809	0.0146420
911.887	0.0147633
911.965	0.0148105
912.043	0.0149060
912.121	0.0148535
912.200	0.0147620
912.278	0.0148201
912.356	0.0149612
912.434	0.0149612
912.512	0.0148975
912.590	0.0149021
912.668	0.0147619
912.746	0.0149394
912.825	0.0148280
912.903	0.0149268
912.981	0.0148801
913.059	0.0149937
913.137	0.0149397
913.215	0.0148909
913.293	0.0150814
913.371	0.0147530
913.450	0.0149464
913.528	0.0150826
913.606	0.0149547
913.684	0.0149401
913.762	0.0150035
913.840	0.0150179
913.918	0.0148728
913.996	0.0148274
914.075	0.0148842
914.153	0.0149093
914.231	0.0148215
914.309	0.0148087
914.387	0.0146684
914.465	0.0147288
914.543	0.0147079
914.621	0.0146890
914.700	0.0146630
914.778	0.0148560
914.856	0.0146516
914.934	0.0146483
915.012	0.0148511
915.090	0.0149019
915.168	0.0149220
915.246	0.0149852
915.325	0.0150391
915.403	0.0149739
915.481	0.0149997
915.559	0.0151299
915.637	0.0149176
915.715	0.0149675
915.793	0.0149917
915.871	0.0150013
915.950	0.0149982
916.028	0.0149343
916.106	0.0148721
916.184	0.0148607
916.262	0.0149589
916.340	0.0150034
916.418	0.0148550
916.496	0.0148029
916.575	0.0150021
916.653	0.0149643
916.731	0.0149102
916.809	0.0149892
916.887	0.0151078
916.965	0.0149104
917.043	0.0149068
917.121	0.0148130
917.200	0.0148637
917.278	0.0149007
917.356	0.0147095
917.434	0.0148560
917.512	0.0148191
917.590	0.0147071
917.668	0.0147693
917.746	0.0148458
917.825	0.0148904
917.903	0.0149220
917.981	0.0149692
918.059	0.0148283
918.137	0.0149339
918.215	0.0148901
918.293	0.0151198
918.371	0.0151391
918.450	0.0149660
918.528	0.0149506
918.606	0.0151771
918.684	0.0150325
918.762	0.0149846
918.840	0.0149685
918.918	0.0148729
918.996	0.0149479
919.075	0.0151099
919.153	0.0149108
919.231	0.0147964
919.309	0.0147792
919.387	0.0147602
919.465	0.0148129
919.543	0.0148389
919.621	0.0148749
919.700	0.0150340
919.778	0.0148010
919.856	0.0146985
919.934	0.0149128
920.012	0.0150092
920.090	0.0149675
920.168	0.0148962
920.246	0.0149512
920.325	0.0149438
920.403	0.0149561
920.481	0.0150053
920.559	0.0148514
920.637	0.0148502
920.715	0.0149397
920.793	0.0148698
920.871	0.0148482
920.950	0.0149538
921.028	0.0148935
921.106	0.0148662
921.184	0.0147564
921.262	0.0149940
921.340	0.0150104
921.418	0.0149200
921.496	0.0148043
921.575	0.0148941
921.653	0.0150022
921.731	0.0148784
921.809	0.0150256
921.887	0.0149722
921.965	0.0150076
922.043	0.0148875
922.121	0.0148903
922.200	0.0149970
922.278	0.0149700
922.356	0.0148634
922.434	0.0147844
922.512	0.0149032
922.590	0.0148743
922.668	0.0148882
922.746	0.0148241
922.825	0.0148550
922.903	0.0148435
922.981	0.0149368
923.059	0.0148952
923.137	0.0150010
923.215	0.0148578
923.293	0.0150758
923.371	0.0149336
923.450	0.0148371
923.528	0.0148070
923.606	0.0149024
923.684	0.0149058
923.762	0.0149390
923.840	0.0148241
923.918	0.0148885
923.996	0.0147577
924.075	0.0149056
924.153	0.0149377
924.231	0.0146845
924.309	0.0149355
924.387	0.0148959
924.465	0.0148888
924.543	0.0148615
924.621	0.0147992
924.700	0.0148281
924.778	0.0148436
924.856	0.0148633
924.934	0.0147910
925.012	0.0149452
925.090	0.0148821
925.168	0.0148956
925.246	0.0150684
925.325	0.0150156
925.403	0.0151755
925.481	0.0149780
925.559	0.0149091
925.637	0.0148763
925.715	0.0149577
925.793	0.0148923
925.871	0.0147639
925.950	0.0149231
926.028	0.0150103
926.106	0.0148998
926.184	0.0148388
926.262	0.0148411
926.340	0.0148359
926.418	0.0148036
926.496	0.0148835
926.575	0.0148523
926.653	0.0146896
926.731	0.0148909
926.809	0.0147818
926.887	0.0148925
926.965	0.0149192
927.043	0.0148253
927.121	0.0148149
927.200	0.0149213
927.278	0.0147964
927.356	0.0147614
927.434	0.0148412
927.512	0.0147620
927.590	0.0148285
927.668	0.0149705
927.746	0.0148524
927.825	0.0147481
927.903	0.0149151
927.981	0.0148032
928.059	0.0149695
928.137	0.0148444
928.215	0.0149057
928.293	0.0147977
928.371	0.0149170
928.450	0.0149863
928.528	0.0149636
928.606	0.0148107
928.684	0.0150330
928.762	0.0148701
928.840	0.0147406
928.918	0.0147372
928.996	0.0149450
929.075	0.0147427
929.153	0.0147695
929.231	0.0148753
929.309	0.0147895
929.387	0.0148058
929.465	0.0148923
929.543	0.0148170
929.621	0.0148180
929.700	0.0148291
929.778	0.0149525
929.856	0.0148482
929.934	0.0148360
930.012	0.0149135
930.090	0.0149799
930.168	0.0148634
930.246	0.0149476
930.325	0.0147993
930.403	0.0148512
930.481	0.0148107
930.559	0.0148517
930.637	0.0147892
930.715	0.0148353
930.793	0.0147672
930.871	0.0148483
930.950	0.0148708
931.028	0.0147308
931.106	0.0147875
931.184	0.0148796
931.262	0.0148992
931.340	0.0150233
931.418	0.0148524
931.496	0.0148130
931.575	0.0149564
931.653	0.0149381
931.731	0.0148148
931.809	0.0148445
931.887	0.0148792
931.965	0.0149363
932.043	0.0148937
932.121	0.0149159
932.200	0.0148678
932.278	0.0148101
932.356	0.0148893
932.434	0.0149651
932.512	0.0148535
932.590	0.0147336
932.668	0.0148061
932.746	0.0148409
932.825	0.0149055
932.903	0.0147344
932.981	0.0148518
933.059	0.0148225
933.137	0.0147765
933.215	0.0147701
933.293	0.0148686
933.371	0.0147397
933.450	0.0147654
933.528	0.0148832
933.606	0.0149065
933.684	0.0148300
933.762	0.0147512
933.840	0.0149596
933.918	0.0148698
933.996	0.0149754
934.075	0.0148817
934.153	0.0148299
934.231	0.0147889
934.309	0.0147928
934.387	0.0150059
934.465	0.0149272
934.543	0.0147666
934.621	0.0147288
934.700	0.0149457
934.778	0.0149117
934.856	0.0149327
934.934	0.0148351
935.012	0.0148308
935.090	0.0147536
935.168	0.0149186
935.246	0.0148989
935.325	0.0147964
935.403	0.0148551
935.481	0.0149573
935.559	0.0148005
935.637	0.0148997
935.715	0.0149108
935.793	0.0147704
935.871	0.0147455
935.950	0.0147815
936.028	0.0148945
936.106	0.0147759
936.184	0.0148058
936.262	0.0147040
936.340	0.0146484
936.418	0.0149617
936.496	0.0148251
936.575	0.0149367
936.653	0.0149255
936.731	0.0149738
936.809	0.0147758
936.887	0.0149265
936.965	0.0149103
937.043	0.0150246
937.121	0.0149612
937.200	0.0148382
937.278	0.0149183
937.356	0.0148180
937.434	0.0148357
937.512	0.0148720
937.590	0.0147976
937.668	0.0149662
937.746	0.0149010
937.825	0.0148384
937.903	0.0148750
937.981	0.0147839
938.059	0.0148254
938.137	0.0148468
938.215	0.0149833
938.293	0.0149442
938.371	0.0148084
938.450	0.0149468
938.528	0.0148743
938.606	0.0148613
938.684	0.0147313
938.762	0.0148030
938.840	0.0148293
938.918	0.0149148
938.996	0.0148979
939.075	0.0149583
939.153	0.0148386
939.231	0.0147845
939.309	0.0149106
939.387	0.0149855
939.465	0.0149481
939.543	0.0150507
939.621	0.0149355
939.700	0.0149610
939.778	0.0148855
939.856	0.0150127
939.934	0.0149818
940.012	0.0149647
940.090	0.0150172
940.168	0.0150336
940.246	0.0149846
940.325	0.0148705
940.403	0.0149798
940.481	0.0149496
940.559	0.0148081
940.637	0.0148253
940.715	0.0147868
940.793	0.0148382
940.871	0.0147823
940.950	0.0147926
941.028	0.0146432
941.106	0.0146992
941.184	0.0147723
941.262	0.0147580
941.340	0.0148719
941.418	0.0148831
941.496	0.0147957
941.575	0.0149218
941.653	0.0149747
941.731	0.0148401
941.809	0.0150211
941.887	0.0148878
941.965	0.0149744
942.043	0.0149804
942.121	0.0148866
942.200	0.0149104
942.278	0.0150771
942.356	0.0149995
942.434	0.0149035
942.512	0.0148978
942.590	0.0150723
942.668	0.0150090
942.746	0.0148794
942.825	0.0150136
942.903	0.0149197
942.981	0.0148242
943.059	0.0149522
943.137	0.0149603
943.215	0.0148916
943.293	0.0148006
943.371	0.0148510
943.450	0.0146625
943.528	0.0146922
943.606	0.0148024
943.684	0.0148163
943.762	0.0148083
943.840	0.0149118
943.918	0.0149187
943.996	0.0148253
944.075	0.0147990
944.153	0.0149080
944.231	0.0149821
944.309	0.0149598
944.387	0.0148812
944.465	0.0148454
944.543	0.0148305
944.621	0.0147870
944.700	0.0149392
944.778	0.0147722
944.856	0.0149026
944.934	0.0149668
945.012	0.0147392
945.090	0.0147549
945.168	0.0149216
945.246	0.0149435
945.325	0.0147456
945.403	0.0146545
945.481	0.0147792
945.559	0.0148270
945.637	0.0148138
945.715	0.0148653
945.793	0.0147286
945.871	0.0149017
945.950	0.0148138
946.028	0.0148344
946.106	0.0149375
946.184	0.0148390
946.262	0.0149669
946.340	0.0148995
946.418	0.0148476
946.496	0.0148045
946.575	0.0149698
946.653	0.0146616
946.731	0.0146542
946.809	0.0147929
946.887	0.0147868
946.965	0.0146378
947.043	0.0146611
947.121	0.0147674
947.200	0.0148639
947.278	0.0148793
947.356	0.0146328
947.434	0.0147380
947.512	0.0148336
947.590	0.0147043
947.668	0.0148485
947.746	0.0148156
947.825	0.0147784
947.903	0.0148265
947.981	0.0146906
948.059	0.0146953
948.137	0.0148277
948.215	0.0147453
948.293	0.0147933
948.371	0.0149379
948.450	0.0147852
948.528	0.0147837
948.606	0.0148431
948.684	0.0148978
948.762	0.0148857
948.840	0.0148339
948.918	0.0150150
948.996	0.0148311
949.075	0.0148155
949.153	0.0149712
949.231	0.0150706
949.309	0.0150256
949.387	0.0148174
949.465	0.0148897
949.543	0.0147501
949.621	0.0147765
949.700	0.0146676
949.778	0.0148555
949.856	0.0147546
949.934	0.0148792
950.012	0.0147064
950.090	0.0147204
950.168	0.0147972
950.246	0.0147960
950.325	0.0148063
950.403	0.0147895
950.481	0.0148194
950.559	0.0148204
950.637	0.0148454
950.715	0.0148907
950.793	0.0147966
950.871	0.0147618
950.950	0.0148540
951.028	0.0148203
951.106	0.0149222
951.184	0.0148521
951.262	0.0146947
951.340	0.0148396
951.418	0.0148088
951.496	0.0147928
951.575	0.0148985
951.653	0.0149788
951.731	0.0148235
951.809	0.0147905
951.887	0.0149225
951.965	0.0149064
952.043	0.0149756
952.121	0.0148919
952.200	0.0148908
952.278	0.0147603
952.356	0.0147842
952.434	0.0148593
952.512	0.0148083
952.590	0.0150254
952.668	0.0149638
952.746	0.0149110
952.825	0.0148031
952.903	0.0148013
952.981	0.0148692
953.059	0.0149008
953.137	0.0150031
953.215	0.0149196
953.293	0.0149229
953.371	0.0147516
953.450	0.0148112
953.528	0.0148156
953.606	0.0149179
953.684	0.0147070
953.762	0.0148418
953.840	0.0148485
953.918	0.0147469
953.996	0.0147468
954.075	0.0149516
954.153	0.0147787
954.231	0.0148411
954.309	0.0148593
954.387	0.0148726
954.465	0.0148306
954.543	0.0147511
954.621	0.0148621
954.700	0.0147422
954.778	0.0147812
954.856	0.0149252
954.934	0.0147350
955.012	0.0148993
955.090	0.0147534
955.168	0.0148492
955.246	0.0149949
955.325	0.0149518
955.403	0.0147837
955.481	0.0148252
955.559	0.0149384
955.637	0.0147594
955.715	0.0148724
955.793	0.0147131
955.871	0.0147063
955.950	0.0148224
956.028	0.0148729
956.106	0.0149680
956.184	0.0147197
956.262	0.0146893
956.340	0.0147961
956.418	0.0147502
956.496	0.0147455
956.575	0.0148333
956.653	0.0147424
956.731	0.0148450
956.809	0.0148220
956.887	0.0147271
956.965	0.0148216
957.043	0.0148835
957.121	0.0147494
957.200	0.0147264
957.278	0.0149432
957.356	0.0148949
957.434	0.0148029
957.512	0.0148325
957.590	0.0149773
957.668	0.0148634
957.746	0.0148701
957.825	0.0148980
957.903	0.0150118
957.981	0.0149399
958.059	0.0149306
958.137	0.0149245
958.215	0.0148892
958.293	0.0148884
958.371	0.0148383
958.450	0.0149374
958.528	0.0149200
958.606	0.0148586
958.684	0.0149058
958.762	0.0149480
958.840	0.0147313
958.918	0.0148007
958.996	0.0147153
959.075	0.0148129
959.153	0.0148282
959.231	0.0148431
959.309	0.0148716
959.387	0.0147173
959.465	0.0146574
959.543	0.0148299
959.621	0.0147615
959.700	0.0147456
959.778	0.0148038
959.856	0.0148766
959.934	0.0149164
960.012	0.0149559
960.090	0.0148558
960.168	0.0149381
960.246	0.0149682
960.325	0.0150317
960.403	0.0149789
960.481	0.0150001
960.559	0.0150314
960.637	0.0149593
960.715	0.0149500
960.793	0.0150088
960.871	0.0148613
960.950	0.0149067
961.028	0.0148689
961.106	0.0147199
961.184	0.0148315
961.262	0.0147651
961.340	0.0148825
961.418	0.0149029
961.496	0.0149422
961.575	0.0148834
961.653	0.0148746
961.731	0.0147349
961.809	0.0148090
961.887	0.0148706
961.965	0.0147073
962.043	0.0149805
962.121	0.0149131
962.200	0.0148247
962.278	0.0147829
962.356	0.0149374
962.434	0.0149287
962.512	0.0148111
962.590	0.0148767
962.668	0.0149697
962.746	0.0150153
962.825	0.0150098
962.903	0.0149461
962.981	0.0149446
963.059	0.0149833
963.137	0.0150215
963.215	0.0150280
963.293	0.0148954
963.371	0.0148975
963.450	0.0148992
963.528	0.0150481
963.606	0.0149096
963.684	0.0149401
963.762	0.0148166
963.840	0.0147359
963.918	0.0148667
963.996	0.0147951
964.075	0.0148940
964.153	0.0149524
964.231	0.0149119
964.309	0.0147993
964.387	0.0149268
964.465	0.0148369
964.543	0.0148432
964.621	0.0148052
964.700	0.0148943
964.778	0.0148835
964.856	0.0149034
964.934	0.0149551
965.012	0.0148389
965.090	0.0148612
965.168	0.0149661
965.246	0.0148774
965.325	0.0148151
965.403	0.0149529
965.481	0.0149161
965.559	0.0149657
965.637	0.0149942
965.715	0.0150588
965.793	0.0149319
965.871	0.0149335
965.950	0.0149316
966.028	0.0148064
966.106	0.0149282
966.184	0.0148576
966.262	0.0148196
966.340	0.0149210
966.418	0.0148439
966.496	0.0149479
966.575	0.0149781
966.653	0.0147536
966.731	0.0148755
966.809	0.0148530
966.887	0.0149008
966.965	0.0149788
967.043	0.0149038
967.121	0.0147458
967.200	0.0147746
967.278	0.0149478
967.356	0.0148332
967.434	0.0148075
967.512	0.0149143
967.590	0.0148271
967.668	0.0148747
967.746	0.0149587
967.825	0.0147729
967.903	0.0148587
967.981	0.0148734
968.059	0.0148797
968.137	0.0148327
968.215	0.0148215
968.293	0.0147923
968.371	0.0147353
968.450	0.0147915
968.528	0.0147429
968.606	0.0147682
968.684	0.0146989
968.762	0.0148258
968.840	0.0147174
968.918	0.0147637
968.996	0.0148084
969.075	0.0149596
969.153	0.0146957
969.231	0.0146494
969.309	0.0148222
969.387	0.0147290
969.465	0.0149076
969.543	0.0147994
969.621	0.0148248
969.700	0.0148660
969.778	0.0148080
969.856	0.0148132
969.934	0.0147711
970.012	0.0147683
970.090	0.0150545
970.168	0.0148986
970.246	0.0146488
970.325	0.0147422
970.403	0.0148129
970.481	0.0149039
970.559	0.0148126
970.637	0.0149007
970.715	0.0147666
970.793	0.0146548
970.871	0.0147476
970.950	0.0148486
971.028	0.0146133
971.106	0.0147778
971.184	0.0147620
971.262	0.0148107
971.340	0.0147345
971.418	0.0148631
971.496	0.0148544
971.575	0.0147366
971.653	0.0147227
971.731	0.0147017
971.809	0.0146586
971.887	0.0148066
971.965	0.0147297
972.043	0.0148197
972.121	0.0149087
972.200	0.0148057
972.278	0.0148412
972.356	0.0150023
972.434	0.0148265
972.512	0.0149499
972.590	0.0149700
972.668	0.0149143
972.746	0.0147707
972.825	0.0148640
972.903	0.0149100
972.981	0.0148837
973.059	0.0148363
973.137	0.0148759
973.215	0.0149733
973.293	0.0149564
973.371	0.0147417
973.450	0.0149831
973.528	0.0148846
973.606	0.0147856
973.684	0.0147718
973.762	0.0149917
973.840	0.0148274
973.918	0.0148984
973.996	0.0150478
974.075	0.0148683
974.153	0.0148043
974.231	0.0149660
974.309	0.0149001
974.387	0.0148309
974.465	0.0148281
974.543	0.0147227
974.621	0.0149360
974.700	0.0149417
974.778	0.0147070
974.856	0.0146569
974.934	0.0146583
975.012	0.0148759
975.090	0.0149241
975.168	0.0148970
975.246	0.0149366
975.325	0.0148212
975.403	0.0150121
975.481	0.0149867
975.559	0.0149080
975.637	0.0149515
975.715	0.0149212
975.793	0.0149579
975.871	0.0148727
975.950	0.0149104
976.028	0.0148717
976.106	0.0149608
976.184	0.0148270
976.262	0.0147877
976.340	0.0148890
976.418	0.0146989
976.496	0.0146915
976.575	0.0147280
976.653	0.0149292
976.731	0.0149059
976.809	0.0149304
976.887	0.0149107
976.965	0.0150694
977.043	0.0149606
977.121	0.0148984
977.200	0.0149212
977.278	0.0148518
977.356	0.0149827
977.434	0.0149866
977.512	0.0148859
977.590	0.0148637
977.668	0.0149547
977.746	0.0148672
977.825	0.0147836
977.903	0.0149030
977.981	0.0147988
978.059	0.0149303
978.137	0.0149176
978.215	0.0146929
978.293	0.0149460
978.371	0.0148392
978.450	0.0148903
978.528	0.0149451
978.606	0.0148347
978.684	0.0147929
978.762	0.0148997
978.840	0.0149643
978.918	0.0148789
978.996	0.0148840
979.075	0.0149271
979.153	0.0150314
979.231	0.0148104
979.309	0.0147215
979.387	0.0149374
979.465	0.0149125
979.543	0.0147396
979.621	0.0148746
979.700	0.0148808
979.778	0.0149294
979.856	0.0148921
979.934	0.0149224
980.012	0.0150246
980.090	0.0147868
980.168	0.0146855
980.246	0.0150201
980.325	0.0149706
980.403	0.0148859
980.481	0.0148013
980.559	0.0147922
980.637	0.0147194
980.715	0.0148725
980.793	0.0148112
980.871	0.0148175
980.950	0.0148927
981.028	0.0149061
981.106	0.0148732
981.184	0.0149809
981.262	0.0149454
981.340	0.0149437
981.418	0.0148521
981.496	0.0147594
981.575	0.0148558
981.653	0.0149467
981.731	0.0148654
981.809	0.0149818
981.887	0.0149155
981.965	0.0149046
982.043	0.0149028
982.121	0.0150606
982.200	0.0149814
982.278	0.0149064
982.356	0.0148132
982.434	0.0147535
982.512	0.0150210
982.590	0.0147923
982.668	0.0147797
982.746	0.0148180
982.825	0.0147672
982.903	0.0148390
982.981	0.0148093
983.059	0.0147985
983.137	0.0147785
983.215	0.0147601
983.293	0.0148122
983.371	0.0148316
983.450	0.0148901
983.528	0.0150329
983.606	0.0148499
983.684	0.0148163
983.762	0.0148643
983.840	0.0150207
983.918	0.0149598
983.996	0.0148389
984.075	0.0148697
984.153	0.0148636
984.231	0.0147728
984.309	0.0148047
984.387	0.0148789
984.465	0.0148583
984.543	0.0148990
984.621	0.0149848
984.700	0.0148998
984.778	0.0148048
984.856	0.0148482
984.934	0.0149157
985.012	0.0150516
985.090	0.0147446
985.168	0.0148956
985.246	0.0149210
985.325	0.0148740
985.403	0.0148882
985.481	0.0149019
985.559	0.0149519
985.637	0.0148334
985.715	0.0149126
985.793	0.0148544
985.871	0.0148826
985.950	0.0148967
986.028	0.0148339
986.106	0.0150359
986.184	0.0148244
986.262	0.0149257
986.340	0.0149694
986.418	0.0148714
986.496	0.0149383
986.575	0.0149857
986.653	0.0150288
986.731	0.0149010
986.809	0.0150477
986.887	0.0151063
986.965	0.0148745
987.043	0.0149844
987.121	0.0149119
987.200	0.0149154
987.278	0.0150182
987.356	0.0149138
987.434	0.0149383
987.512	0.0148215
987.590	0.0150283
987.668	0.0150468
987.746	0.0149235
987.825	0.0147276
987.903	0.0148753
987.981	0.0148586
988.059	0.0148772
988.137	0.0147564
988.215	0.0149633
988.293	0.0148999
988.371	0.0147304
988.450	0.0148788
988.528	0.0148251
988.606	0.0149479
988.684	0.0149275
988.762	0.0148740
988.840	0.0147650
988.918	0.0147415
988.996	0.0148215
989.075	0.0148682
989.153	0.0150363
989.231	0.0149809
989.309	0.0149168
989.387	0.0148675
989.465	0.0148280
989.543	0.0150523
989.621	0.0149635
989.700	0.0149205
989.778	0.0150696
989.856	0.0149883
989.934	0.0148737
990.012	0.0150565
990.090	0.0149950
990.168	0.0147865
990.246	0.0149263
990.325	0.0150201
990.403	0.0149239
990.481	0.0149696
990.559	0.0149456
990.637	0.0148289
990.715	0.0149710
990.793	0.0148714
990.871	0.0147729
990.950	0.0148457
991.028	0.0148610
991.106	0.0149345
991.184	0.0149120
991.262	0.0150294
991.340	0.0150532
991.418	0.0148619
991.496	0.0149972
991.575	0.0150124
991.653	0.0148898
991.731	0.0149653
991.809	0.0149131
991.887	0.0148629
991.965	0.0148591
992.043	0.0149668
992.121	0.0149273
992.200	0.0148463
992.278	0.0149512
992.356	0.0148624
992.434	0.0148927
992.512	0.0148403
992.590	0.0149318
992.668	0.0149387
992.746	0.0147362
992.825	0.0149854
992.903	0.0148691
992.981	0.0149088
993.059	0.0148562
993.137	0.0149297
993.215	0.0149709
993.293	0.0149677
993.371	0.0149318
993.450	0.0148145
993.528	0.0149420
993.606	0.0149153
993.684	0.0149165
993.762	0.0150142
993.840	0.0149221
993.918	0.0149820
993.996	0.0148637
994.075	0.0148652
994.153	0.0149226
994.231	0.0149287
994.309	0.0149487
994.387	0.0148954
994.465	0.0148579
994.543	0.0149349
994.621	0.0151485
994.700	0.0149367
994.778	0.0148451
994.856	0.0148806
994.934	0.0148230
995.012	0.0148913
995.090	0.0146945
995.168	0.0149918
995.246	0.0150049
995.325	0.0149036
995.403	0.0148844
995.481	0.0149777
995.559	0.0150118
995.637	0.0149641
995.715	0.0149364
995.793	0.0150401
995.871	0.0150427
995.950	0.0149044
996.028	0.0149246
996.106	0.0147218
996.184	0.0148349
996.262	0.0150445
996.340	0.0150462
996.418	0.0149258
996.496	0.0148817
996.575	0.0149031
996.653	0.0148365
996.731	0.0148756
996.809	0.0149600
996.887	0.0148276
996.965	0.0149671
997.043	0.0149331
997.121	0.0149606
997.200	0.0148693
997.278	0.0148943
997.356	0.0148638
997.434	0.0147551
997.512	0.0148506
997.590	0.0147432
997.668	0.0147717
997.746	0.0149428
997.825	0.0147804
997.903	0.0147556
997.981	0.0150113
998.059	0.0149220
998.137	0.0148421
998.215	0.0149113
998.293	0.0149545
998.371	0.0149271
998.450	0.0150873
998.528	0.0149297
998.606	0.0149260
998.684	0.0148929
998.762	0.0148517
998.840	0.0148759
998.918	0.0149802
