05/04/2022	21:08:37	Ver.	4.1	UNKNOWN
Optical Delay	678.996401	Delta X		0.078125	Sweeps	1	Scan Rate	0/0
Coordinates	Axis 1	NaN	Axis 2	NaN	Axis 3	NaN	Axis 4	NaN	Axis 5	NaN	Axis 6	0.000000
TX Power	0.000000	RX Power	0.000000

678.996	0.0147177
679.075	0.0147101
679.153	0.0147060
679.231	0.0146540
679.309	0.0147185
679.387	0.0145724
679.465	0.0147166
679.543	0.0148169
679.621	0.0147367
679.700	0.0146779
679.778	0.0147275
679.856	0.0147563
679.934	0.0147162
680.012	0.0146722
680.090	0.0146413
680.168	0.0145793
680.246	0.0148236
680.325	0.0146291
680.403	0.0147009
680.481	0.0148647
680.559	0.0148625
680.637	0.0148181
680.715	0.0147662
680.793	0.0145873
680.871	0.0148035
680.950	0.0148341
681.028	0.0148905
681.106	0.0148091
681.184	0.0146870
681.262	0.0146389
681.340	0.0146563
681.418	0.0148169
681.496	0.0148857
681.575	0.0147168
681.653	0.0146595
681.731	0.0146790
681.809	0.0148060
681.887	0.0147617
681.965	0.0146322
682.043	0.0146917
682.121	0.0147620
682.200	0.0146585
682.278	0.0147993
682.356	0.0148970
682.434	0.0146712
682.512	0.0147207
682.590	0.0146150
682.668	0.0148595
682.746	0.0146606
682.825	0.0147884
682.903	0.0146914
682.981	0.0146499
683.059	0.0147953
683.137	0.0147311
683.215	0.0148064
683.293	0.0147621
683.371	0.0146329
683.450	0.0146516
683.528	0.0148355
683.606	0.0146889
683.684	0.0147514
683.762	0.0148329
683.840	0.0146049
683.918	0.0147806
683.996	0.0148959
684.075	0.0147857
684.153	0.0147121
684.231	0.0147394
684.309	0.0146431
684.387	0.0147231
684.465	0.0147173
684.543	0.0148496
684.621	0.0148131
684.700	0.0146152
684.778	0.0147817
684.856	0.0147122
684.934	0.0147183
685.012	0.0146227
685.090	0.0146957
685.168	0.0146887
685.246	0.0146695
685.325	0.0147495
685.403	0.0147572
685.481	0.0146402
685.559	0.0147492
685.637	0.0146113
685.715	0.0145651
685.793	0.0147549
685.871	0.0146089
685.950	0.0147398
686.028	0.0147232
686.106	0.0147125
686.184	0.0147096
686.262	0.0148762
686.340	0.0147006
686.418	0.0146748
686.496	0.0146403
686.575	0.0146381
686.653	0.0146562
686.731	0.0147743
686.809	0.0147777
686.887	0.0145854
686.965	0.0147742
687.043	0.0146085
687.121	0.0147914
687.200	0.0146151
687.278	0.0147939
687.356	0.0147535
687.434	0.0147397
687.512	0.0147443
687.590	0.0147787
687.668	0.0148263
687.746	0.0147179
687.825	0.0147265
687.903	0.0146270
687.981	0.0147056
688.059	0.0146524
688.137	0.0146157
688.215	0.0145839
688.293	0.0146256
688.371	0.0147462
688.450	0.0149228
688.528	0.0147961
688.606	0.0146626
688.684	0.0147114
688.762	0.0147276
688.840	0.0148785
688.918	0.0147039
688.996	0.0147352
689.075	0.0147756
689.153	0.0147363
689.231	0.0147497
689.309	0.0147518
689.387	0.0148180
689.465	0.0147393
689.543	0.0146207
689.621	0.0146577
689.700	0.0149117
689.778	0.0148383
689.856	0.0147643
689.934	0.0147672
690.012	0.0148608
690.090	0.0147807
690.168	0.0147722
690.246	0.0147289
690.325	0.0147909
690.403	0.0148055
690.481	0.0147176
690.559	0.0147456
690.637	0.0147282
690.715	0.0147006
690.793	0.0148598
690.871	0.0146695
690.950	0.0147714
691.028	0.0145722
691.106	0.0145997
691.184	0.0146888
691.262	0.0146563
691.340	0.0145110
691.418	0.0146706
691.496	0.0146619
691.575	0.0146996
691.653	0.0145785
691.731	0.0147379
691.809	0.0146617
691.887	0.0146233
691.965	0.0146178
692.043	0.0145983
692.121	0.0147378
692.200	0.0147030
692.278	0.0145868
692.356	0.0145654
692.434	0.0146182
692.512	0.0145042
692.590	0.0145419
692.668	0.0145504
692.746	0.0145528
692.825	0.0145534
692.903	0.0146072
692.981	0.0145955
693.059	0.0145193
693.137	0.0145352
693.215	0.0146098
693.293	0.0147490
693.371	0.0148158
693.450	0.0148180
693.528	0.0148113
693.606	0.0147256
693.684	0.0146703
693.762	0.0148356
693.840	0.0148233
693.918	0.0148424
693.996	0.0149688
694.075	0.0148088
694.153	0.0148260
694.231	0.0149994
694.309	0.0149472
694.387	0.0148359
694.465	0.0147604
694.543	0.0148214
694.621	0.0147717
694.700	0.0148035
694.778	0.0148437
694.856	0.0146558
694.934	0.0146324
695.012	0.0145148
695.090	0.0146396
695.168	0.0146678
695.246	0.0146329
695.325	0.0145895
695.403	0.0146280
695.481	0.0145918
695.559	0.0145105
695.637	0.0147270
695.715	0.0146703
695.793	0.0145428
695.871	0.0146400
695.950	0.0147974
696.028	0.0147290
696.106	0.0148186
696.184	0.0148149
696.262	0.0147202
696.340	0.0147895
696.418	0.0147932
696.496	0.0149006
696.575	0.0147691
696.653	0.0147278
696.731	0.0148450
696.809	0.0147549
696.887	0.0147678
696.965	0.0146946
697.043	0.0145017
697.121	0.0146404
697.200	0.0146895
697.278	0.0146609
697.356	0.0144918
697.434	0.0144327
697.512	0.0144539
697.590	0.0145667
697.668	0.0146266
697.746	0.0147332
697.825	0.0145470
697.903	0.0145821
697.981	0.0143846
698.059	0.0146238
698.137	0.0146384
698.215	0.0146509
698.293	0.0147778
698.371	0.0147423
698.450	0.0146814
698.528	0.0147744
698.606	0.0147029
698.684	0.0145322
698.762	0.0146046
698.840	0.0145167
698.918	0.0147357
698.996	0.0147219
699.075	0.0146664
699.153	0.0146337
699.231	0.0147930
699.309	0.0146445
699.387	0.0146327
699.465	0.0147845
699.543	0.0146243
699.621	0.0145846
699.700	0.0147826
699.778	0.0147879
699.856	0.0148670
699.934	0.0146805
700.012	0.0148083
700.090	0.0147509
700.168	0.0147672
700.246	0.0148438
700.325	0.0148526
700.403	0.0147974
700.481	0.0148911
700.559	0.0147434
700.637	0.0147108
700.715	0.0145967
700.793	0.0148183
700.871	0.0148491
700.950	0.0147498
701.028	0.0146639
701.106	0.0145987
701.184	0.0145562
701.262	0.0146257
701.340	0.0147409
701.418	0.0146425
701.496	0.0146981
701.575	0.0146200
701.653	0.0147604
701.731	0.0147082
701.809	0.0146526
701.887	0.0147356
701.965	0.0147307
702.043	0.0147341
702.121	0.0148413
702.200	0.0147595
702.278	0.0147339
702.356	0.0148282
702.434	0.0147782
702.512	0.0147076
702.590	0.0146979
702.668	0.0147053
702.746	0.0145688
702.825	0.0146081
702.903	0.0146720
702.981	0.0147141
703.059	0.0147448
703.137	0.0148309
703.215	0.0148188
703.293	0.0147506
703.371	0.0146818
703.450	0.0146046
703.528	0.0147657
703.606	0.0147267
703.684	0.0145795
703.762	0.0145879
703.840	0.0147699
703.918	0.0148044
703.996	0.0148825
704.075	0.0148128
704.153	0.0149556
704.231	0.0147997
704.309	0.0147803
704.387	0.0147996
704.465	0.0147688
704.543	0.0147231
704.621	0.0146454
704.700	0.0148053
704.778	0.0148275
704.856	0.0146153
704.934	0.0146169
705.012	0.0148779
705.090	0.0149069
705.168	0.0146570
705.246	0.0146578
705.325	0.0144875
705.403	0.0144020
705.481	0.0140970
705.559	0.0140672
705.637	0.0140131
705.715	0.0139643
705.793	0.0140472
705.871	0.0142082
705.950	0.0144181
706.028	0.0145756
706.106	0.0149017
706.184	0.0148836
706.262	0.0151154
706.340	0.0151733
706.418	0.0151337
706.496	0.0150266
706.575	0.0151648
706.653	0.0149851
706.731	0.0148580
706.809	0.0151345
706.887	0.0150268
706.965	0.0149799
707.043	0.0148653
707.121	0.0150152
707.200	0.0149739
707.278	0.0150653
707.356	0.0149019
707.434	0.0148823
707.512	0.0149659
707.590	0.0149063
707.668	0.0149870
707.746	0.0150009
707.825	0.0148409
707.903	0.0146313
707.981	0.0144412
708.059	0.0143069
708.137	0.0142312
708.215	0.0139616
708.293	0.0138654
708.371	0.0136692
708.450	0.0136806
708.528	0.0135841
708.606	0.0136575
708.684	0.0139654
708.762	0.0138152
708.840	0.0142068
708.918	0.0144799
708.996	0.0148460
709.075	0.0153339
709.153	0.0156558
709.231	0.0159666
709.309	0.0162073
709.387	0.0162925
709.465	0.0161593
709.543	0.0158161
709.621	0.0155129
709.700	0.0152988
709.778	0.0149119
709.856	0.0147238
709.934	0.0144114
710.012	0.0144693
710.090	0.0143624
710.168	0.0144875
710.246	0.0145308
710.325	0.0149043
710.403	0.0149592
710.481	0.0153324
710.559	0.0154115
710.637	0.0155087
710.715	0.0154169
710.793	0.0152930
710.871	0.0149014
710.950	0.0145608
711.028	0.0143089
711.106	0.0138673
711.184	0.0134345
711.262	0.0133189
711.340	0.0132032
711.418	0.0131179
711.496	0.0132441
711.575	0.0133183
711.653	0.0133620
711.731	0.0137643
711.809	0.0142918
711.887	0.0147918
711.965	0.0149987
712.043	0.0155962
712.121	0.0160016
712.200	0.0162602
712.278	0.0164085
712.356	0.0165262
712.434	0.0163233
712.512	0.0162477
712.590	0.0159083
712.668	0.0154018
712.746	0.0151785
712.825	0.0147661
712.903	0.0146750
712.981	0.0143805
713.059	0.0143211
713.137	0.0142166
713.215	0.0143614
713.293	0.0145281
713.371	0.0148627
713.450	0.0150037
713.528	0.0152069
713.606	0.0152723
713.684	0.0152890
713.762	0.0151564
713.840	0.0147077
713.918	0.0143452
713.996	0.0140791
714.075	0.0135875
714.153	0.0134531
714.231	0.0131204
714.309	0.0130560
714.387	0.0129648
714.465	0.0129549
714.543	0.0131849
714.621	0.0136313
714.700	0.0139297
714.778	0.0145580
714.856	0.0149551
714.934	0.0153469
715.012	0.0156293
715.090	0.0161675
715.168	0.0164164
715.246	0.0163196
715.325	0.0164805
715.403	0.0164599
715.481	0.0160650
715.559	0.0157386
715.637	0.0153088
715.715	0.0147538
715.793	0.0143629
715.871	0.0141746
715.950	0.0140885
716.028	0.0140077
716.106	0.0141176
716.184	0.0143064
716.262	0.0144995
716.340	0.0146793
716.418	0.0148123
716.496	0.0151147
716.575	0.0150196
716.653	0.0150670
716.731	0.0152209
716.809	0.0149323
716.887	0.0146560
716.965	0.0145248
717.043	0.0142833
717.121	0.0141200
717.200	0.0139408
717.278	0.0137922
717.356	0.0136611
717.434	0.0135204
717.512	0.0136534
717.590	0.0139749
717.668	0.0139629
717.746	0.0141419
717.825	0.0143586
717.903	0.0147935
717.981	0.0150197
718.059	0.0152524
718.137	0.0155537
718.215	0.0158392
718.293	0.0158141
718.371	0.0159279
718.450	0.0156008
718.528	0.0153725
718.606	0.0153136
718.684	0.0148159
718.762	0.0145372
718.840	0.0145210
718.918	0.0143021
718.996	0.0142371
719.075	0.0142744
719.153	0.0143699
719.231	0.0144993
719.309	0.0146877
719.387	0.0148083
719.465	0.0151207
719.543	0.0151034
719.621	0.0154777
719.700	0.0152125
719.778	0.0151962
719.856	0.0152438
719.934	0.0152070
720.012	0.0149441
720.090	0.0147643
720.168	0.0147057
720.246	0.0144353
720.325	0.0142967
720.403	0.0142087
720.481	0.0139870
720.559	0.0141486
720.637	0.0140147
720.715	0.0142834
720.793	0.0140214
720.871	0.0142949
720.950	0.0145676
721.028	0.0147951
721.106	0.0149458
721.184	0.0149603
721.262	0.0151485
721.340	0.0153415
721.418	0.0151511
721.496	0.0151476
721.575	0.0152382
721.653	0.0152394
721.731	0.0148342
721.809	0.0147247
721.887	0.0144336
721.965	0.0143773
722.043	0.0142485
722.121	0.0140768
722.200	0.0139178
722.278	0.0139101
722.356	0.0139143
722.434	0.0140864
722.512	0.0141479
722.590	0.0143598
722.668	0.0144454
722.746	0.0147764
722.825	0.0147446
722.903	0.0150997
722.981	0.0152445
723.059	0.0154971
723.137	0.0153844
723.215	0.0154807
723.293	0.0152845
723.371	0.0153562
723.450	0.0152472
723.528	0.0152361
723.606	0.0150814
723.684	0.0149203
723.762	0.0147512
723.840	0.0148347
723.918	0.0146278
723.996	0.0146882
724.075	0.0146403
724.153	0.0147390
724.231	0.0147765
724.309	0.0148166
724.387	0.0151453
724.465	0.0150356
724.543	0.0149699
724.621	0.0148324
724.700	0.0147500
724.778	0.0148064
724.856	0.0144423
724.934	0.0143851
725.012	0.0140829
725.090	0.0139958
725.168	0.0140102
725.246	0.0136491
725.325	0.0135493
725.403	0.0137022
725.481	0.0135384
725.559	0.0139021
725.637	0.0140454
725.715	0.0142714
725.793	0.0144929
725.871	0.0146310
725.950	0.0149524
726.028	0.0151463
726.106	0.0151978
726.184	0.0154942
726.262	0.0155190
726.340	0.0156016
726.418	0.0155849
726.496	0.0153665
726.575	0.0154327
726.653	0.0155391
726.731	0.0152704
726.809	0.0150773
726.887	0.0150453
726.965	0.0148244
727.043	0.0148028
727.121	0.0149696
727.200	0.0147557
727.278	0.0148254
727.356	0.0148190
727.434	0.0148349
727.512	0.0149110
727.590	0.0148952
727.668	0.0149387
727.746	0.0147727
727.825	0.0149319
727.903	0.0147910
727.981	0.0146699
728.059	0.0147067
728.137	0.0146407
728.215	0.0145409
728.293	0.0143181
728.371	0.0141647
728.450	0.0141949
728.528	0.0139325
728.606	0.0139367
728.684	0.0141116
728.762	0.0141319
728.840	0.0140292
728.918	0.0139445
728.996	0.0141467
729.075	0.0142374
729.153	0.0144019
729.231	0.0144001
729.309	0.0146034
729.387	0.0149399
729.465	0.0148192
729.543	0.0149091
729.621	0.0153217
729.700	0.0151889
729.778	0.0151481
729.856	0.0153031
729.934	0.0153610
730.012	0.0152469
730.090	0.0150597
730.168	0.0149002
730.246	0.0150136
730.325	0.0147657
730.403	0.0147973
730.481	0.0148831
730.559	0.0149284
730.637	0.0149398
730.715	0.0147778
730.793	0.0148190
730.871	0.0151328
730.950	0.0149941
731.028	0.0150507
731.106	0.0149470
731.184	0.0150218
731.262	0.0147978
731.340	0.0147890
731.418	0.0147691
731.496	0.0146516
731.575	0.0146666
731.653	0.0145814
731.731	0.0143884
731.809	0.0142875
731.887	0.0142724
731.965	0.0143164
732.043	0.0142957
732.121	0.0142345
732.200	0.0142471
732.278	0.0141808
732.356	0.0143896
732.434	0.0145947
732.512	0.0146336
732.590	0.0147048
732.668	0.0147064
732.746	0.0148019
732.825	0.0151221
732.903	0.0151561
732.981	0.0151688
733.059	0.0151482
733.137	0.0152113
733.215	0.0151052
733.293	0.0149051
733.371	0.0148244
733.450	0.0147790
733.528	0.0149031
733.606	0.0148281
733.684	0.0147651
733.762	0.0147993
733.840	0.0147659
733.918	0.0148315
733.996	0.0149777
734.075	0.0148970
734.153	0.0147826
734.231	0.0147964
734.309	0.0147094
734.387	0.0146535
734.465	0.0146976
734.543	0.0146747
734.621	0.0146014
734.700	0.0145105
734.778	0.0143797
734.856	0.0146229
734.934	0.0145870
735.012	0.0144865
735.090	0.0144537
735.168	0.0144080
735.246	0.0144166
735.325	0.0144753
735.403	0.0146707
735.481	0.0145716
735.559	0.0146867
735.637	0.0146657
735.715	0.0147044
735.793	0.0148315
735.871	0.0148248
735.950	0.0149354
736.028	0.0148438
736.106	0.0149750
736.184	0.0150046
736.262	0.0149591
736.340	0.0148621
736.418	0.0149477
736.496	0.0148631
736.575	0.0148397
736.653	0.0148406
736.731	0.0148250
736.809	0.0147284
736.887	0.0147208
736.965	0.0147125
737.043	0.0145777
737.121	0.0145565
737.200	0.0144082
737.278	0.0144917
737.356	0.0143960
737.434	0.0144131
737.512	0.0144223
737.590	0.0144360
737.668	0.0143867
737.746	0.0143192
737.825	0.0143810
737.903	0.0144492
737.981	0.0146248
738.059	0.0147713
738.137	0.0146996
738.215	0.0148508
738.293	0.0148586
738.371	0.0149020
738.450	0.0149466
738.528	0.0150878
738.606	0.0149062
738.684	0.0150139
738.762	0.0150387
738.840	0.0148895
738.918	0.0149425
738.996	0.0148112
739.075	0.0148139
739.153	0.0147730
739.231	0.0149428
739.309	0.0149218
739.387	0.0148278
739.465	0.0149622
739.543	0.0147983
739.621	0.0147785
739.700	0.0149137
739.778	0.0146805
739.856	0.0147331
739.934	0.0147006
740.012	0.0146367
740.090	0.0147217
740.168	0.0146009
740.246	0.0145654
740.325	0.0144852
740.403	0.0146072
740.481	0.0145679
740.559	0.0145095
740.637	0.0145097
740.715	0.0144950
740.793	0.0145517
740.871	0.0145724
740.950	0.0146366
741.028	0.0146596
741.106	0.0145641
741.184	0.0145716
741.262	0.0145743
741.340	0.0147622
741.418	0.0148842
741.496	0.0147632
741.575	0.0148138
741.653	0.0147738
741.731	0.0147588
741.809	0.0146561
741.887	0.0146793
741.965	0.0147050
742.043	0.0147953
742.121	0.0147669
742.200	0.0147897
742.278	0.0148510
742.356	0.0148580
742.434	0.0148325
742.512	0.0149070
742.590	0.0149107
742.668	0.0147366
742.746	0.0148695
742.825	0.0147890
742.903	0.0149712
742.981	0.0148193
743.059	0.0146876
743.137	0.0149836
743.215	0.0149883
743.293	0.0149901
743.371	0.0148404
743.450	0.0148782
743.528	0.0149667
743.606	0.0149171
743.684	0.0147654
743.762	0.0147735
743.840	0.0147563
743.918	0.0146624
743.996	0.0145075
744.075	0.0145712
744.153	0.0147127
744.231	0.0146688
744.309	0.0145212
744.387	0.0146532
744.465	0.0145270
744.543	0.0147276
744.621	0.0147728
744.700	0.0145712
744.778	0.0146156
744.856	0.0146815
744.934	0.0147349
745.012	0.0147200
745.090	0.0145951
745.168	0.0145745
745.246	0.0146531
745.325	0.0146244
745.403	0.0145422
745.481	0.0145573
745.559	0.0147026
745.637	0.0146844
745.715	0.0147896
745.793	0.0146961
745.871	0.0148190
745.950	0.0147208
746.028	0.0147939
746.106	0.0148444
746.184	0.0149739
746.262	0.0149377
746.340	0.0149182
746.418	0.0149978
746.496	0.0147849
746.575	0.0147025
746.653	0.0148452
746.731	0.0148549
746.809	0.0147681
746.887	0.0148926
746.965	0.0149136
747.043	0.0147321
747.121	0.0145679
747.200	0.0146627
747.278	0.0146111
747.356	0.0146006
747.434	0.0146349
747.512	0.0146120
747.590	0.0145386
747.668	0.0147382
747.746	0.0146854
747.825	0.0147334
747.903	0.0147121
747.981	0.0147411
748.059	0.0146830
748.137	0.0146342
748.215	0.0146918
748.293	0.0146235
748.371	0.0146378
748.450	0.0147169
748.528	0.0148026
748.606	0.0147078
748.684	0.0147630
748.762	0.0149454
748.840	0.0148117
748.918	0.0147414
748.996	0.0148576
749.075	0.0147395
749.153	0.0149416
749.231	0.0148672
749.309	0.0147967
749.387	0.0147991
749.465	0.0147503
749.543	0.0147708
749.621	0.0147025
749.700	0.0146405
749.778	0.0146561
749.856	0.0146422
749.934	0.0146889
750.012	0.0146173
750.090	0.0147557
750.168	0.0147071
750.246	0.0147765
750.325	0.0147298
750.403	0.0147493
750.481	0.0144984
750.559	0.0145885
750.637	0.0147465
750.715	0.0146875
750.793	0.0146347
750.871	0.0145487
750.950	0.0146175
751.028	0.0145587
751.106	0.0144918
751.184	0.0145679
751.262	0.0146527
751.340	0.0146697
751.418	0.0146920
751.496	0.0146925
751.575	0.0148056
751.653	0.0148459
751.731	0.0149168
751.809	0.0149018
751.887	0.0149380
751.965	0.0148795
752.043	0.0149266
752.121	0.0149164
752.200	0.0149820
752.278	0.0149462
752.356	0.0149005
752.434	0.0150194
752.512	0.0148404
752.590	0.0149089
752.668	0.0147913
752.746	0.0147575
752.825	0.0146527
752.903	0.0146626
752.981	0.0146169
753.059	0.0145306
753.137	0.0145738
753.215	0.0145325
753.293	0.0144957
753.371	0.0146892
753.450	0.0147315
753.528	0.0147686
753.606	0.0146263
753.684	0.0145547
753.762	0.0147306
753.840	0.0146844
753.918	0.0146478
753.996	0.0145835
754.075	0.0145724
754.153	0.0144666
754.231	0.0146382
754.309	0.0146993
754.387	0.0146218
754.465	0.0144795
754.543	0.0144393
754.621	0.0146845
754.700	0.0147127
754.778	0.0146260
754.856	0.0146383
754.934	0.0146454
755.012	0.0146996
755.090	0.0147993
755.168	0.0146963
755.246	0.0148685
755.325	0.0148199
755.403	0.0148886
755.481	0.0149148
755.559	0.0148946
755.637	0.0149310
755.715	0.0149507
755.793	0.0149792
755.871	0.0148328
755.950	0.0147290
756.028	0.0147884
756.106	0.0147054
756.184	0.0147823
756.262	0.0147930
756.340	0.0148952
756.418	0.0147757
756.496	0.0147542
756.575	0.0147231
756.653	0.0146877
756.731	0.0148000
756.809	0.0145432
756.887	0.0144395
756.965	0.0147013
757.043	0.0145116
757.121	0.0145704
757.200	0.0146440
757.278	0.0146201
757.356	0.0145598
757.434	0.0146557
757.512	0.0145636
757.590	0.0146335
757.668	0.0145939
757.746	0.0145688
757.825	0.0146090
757.903	0.0146201
757.981	0.0146908
758.059	0.0146883
758.137	0.0145780
758.215	0.0146614
758.293	0.0147423
758.371	0.0148324
758.450	0.0147945
758.528	0.0148338
758.606	0.0147933
758.684	0.0147914
758.762	0.0147483
758.840	0.0148291
758.918	0.0150509
758.996	0.0149940
759.075	0.0149042
759.153	0.0150539
759.231	0.0149797
759.309	0.0148801
759.387	0.0149224
759.465	0.0147700
759.543	0.0149438
759.621	0.0148460
759.700	0.0148411
759.778	0.0146601
759.856	0.0147756
759.934	0.0147742
760.012	0.0146700
760.090	0.0147295
760.168	0.0144959
760.246	0.0146185
760.325	0.0146828
760.403	0.0146185
760.481	0.0146301
760.559	0.0146383
760.637	0.0146038
760.715	0.0144820
760.793	0.0145290
760.871	0.0144007
760.950	0.0144041
761.028	0.0145434
761.106	0.0146156
761.184	0.0146180
761.262	0.0145071
761.340	0.0145390
761.418	0.0145939
761.496	0.0147746
761.575	0.0147768
761.653	0.0147786
761.731	0.0147828
761.809	0.0148109
761.887	0.0148392
761.965	0.0147894
762.043	0.0146600
762.121	0.0149139
762.200	0.0147343
762.278	0.0147004
762.356	0.0149006
762.434	0.0149018
762.512	0.0148254
762.590	0.0149593
762.668	0.0148355
762.746	0.0147230
762.825	0.0148106
762.903	0.0148388
762.981	0.0148577
763.059	0.0147956
763.137	0.0147157
763.215	0.0148318
763.293	0.0148756
763.371	0.0147306
763.450	0.0146404
763.528	0.0147125
763.606	0.0146833
763.684	0.0146442
763.762	0.0146674
763.840	0.0147239
763.918	0.0146328
763.996	0.0146106
764.075	0.0146312
764.153	0.0145856
764.231	0.0146212
764.309	0.0147135
764.387	0.0147516
764.465	0.0146459
764.543	0.0148063
764.621	0.0146675
764.700	0.0145533
764.778	0.0146566
764.856	0.0147240
764.934	0.0147768
765.012	0.0145693
765.090	0.0146208
765.168	0.0147894
765.246	0.0147125
765.325	0.0146914
765.403	0.0147222
765.481	0.0146452
765.559	0.0146509
765.637	0.0146129
765.715	0.0146539
765.793	0.0145342
765.871	0.0146745
765.950	0.0147639
766.028	0.0146857
766.106	0.0146755
766.184	0.0147378
766.262	0.0148222
766.340	0.0147025
766.418	0.0148167
766.496	0.0148461
766.575	0.0148436
766.653	0.0148017
766.731	0.0147967
766.809	0.0149702
766.887	0.0148038
766.965	0.0147940
767.043	0.0148640
767.121	0.0149019
767.200	0.0147230
767.278	0.0147701
767.356	0.0148299
767.434	0.0148682
767.512	0.0147386
767.590	0.0147608
767.668	0.0147808
767.746	0.0147298
767.825	0.0146877
767.903	0.0147460
767.981	0.0145480
768.059	0.0146088
768.137	0.0146297
768.215	0.0145325
768.293	0.0144855
768.371	0.0146239
768.450	0.0146571
768.528	0.0144612
768.606	0.0145988
768.684	0.0146358
768.762	0.0147076
768.840	0.0146714
768.918	0.0145010
768.996	0.0147015
769.075	0.0145684
769.153	0.0145795
769.231	0.0148418
769.309	0.0147223
769.387	0.0147307
769.465	0.0146227
769.543	0.0146750
769.621	0.0146536
769.700	0.0146072
769.778	0.0146031
769.856	0.0146893
769.934	0.0146697
770.012	0.0147346
770.090	0.0147614
770.168	0.0147449
770.246	0.0146521
770.325	0.0148739
770.403	0.0148033
770.481	0.0146720
770.559	0.0147623
770.637	0.0149094
770.715	0.0148135
770.793	0.0147186
770.871	0.0146672
770.950	0.0149049
771.028	0.0148382
771.106	0.0147780
771.184	0.0146622
771.262	0.0147277
771.340	0.0147025
771.418	0.0147229
771.496	0.0148832
771.575	0.0147443
771.653	0.0147639
771.731	0.0145906
771.809	0.0146902
771.887	0.0148130
771.965	0.0148386
772.043	0.0147119
772.121	0.0148278
772.200	0.0148985
772.278	0.0148819
772.356	0.0147892
772.434	0.0148222
772.512	0.0147300
772.590	0.0148453
772.668	0.0147562
772.746	0.0146847
772.825	0.0147737
772.903	0.0147891
772.981	0.0148125
773.059	0.0146287
773.137	0.0147365
773.215	0.0147333
773.293	0.0146883
773.371	0.0147004
773.450	0.0146762
773.528	0.0147013
773.606	0.0146606
773.684	0.0145940
773.762	0.0146530
773.840	0.0145761
773.918	0.0146689
773.996	0.0146765
774.075	0.0146058
774.153	0.0145862
774.231	0.0145115
774.309	0.0146704
774.387	0.0145937
774.465	0.0146324
774.543	0.0146458
774.621	0.0146660
774.700	0.0146523
774.778	0.0147428
774.856	0.0148362
774.934	0.0147871
775.012	0.0146661
775.090	0.0145647
775.168	0.0147682
775.246	0.0146888
775.325	0.0147533
775.403	0.0147437
775.481	0.0147350
775.559	0.0147167
775.637	0.0147038
775.715	0.0147873
775.793	0.0147890
775.871	0.0147749
775.950	0.0146774
776.028	0.0148277
776.106	0.0147634
776.184	0.0147941
776.262	0.0148853
776.340	0.0146552
776.418	0.0146371
776.496	0.0146914
776.575	0.0148338
776.653	0.0147357
776.731	0.0147061
776.809	0.0146738
776.887	0.0147676
776.965	0.0147786
777.043	0.0148490
777.121	0.0147692
777.200	0.0148739
777.278	0.0147389
777.356	0.0147440
777.434	0.0147832
777.512	0.0148749
777.590	0.0146512
777.668	0.0147186
777.746	0.0146780
777.825	0.0147078
777.903	0.0147015
777.981	0.0146772
778.059	0.0145675
778.137	0.0146480
778.215	0.0144943
778.293	0.0146878
778.371	0.0146860
778.450	0.0146278
778.528	0.0146514
778.606	0.0148149
778.684	0.0147620
778.762	0.0147144
778.840	0.0146362
778.918	0.0148132
778.996	0.0146822
779.075	0.0147165
779.153	0.0146831
779.231	0.0147723
779.309	0.0147219
779.387	0.0145958
779.465	0.0147980
779.543	0.0147102
779.621	0.0147632
779.700	0.0147032
779.778	0.0147062
779.856	0.0148700
779.934	0.0148635
780.012	0.0148104
780.090	0.0147065
780.168	0.0147793
780.246	0.0146837
780.325	0.0147903
780.403	0.0148441
780.481	0.0146260
780.559	0.0146651
780.637	0.0146913
780.715	0.0147857
780.793	0.0147548
780.871	0.0147306
780.950	0.0148152
781.028	0.0147310
781.106	0.0148078
781.184	0.0147115
781.262	0.0146835
781.340	0.0147161
781.418	0.0146809
781.496	0.0147449
781.575	0.0146893
781.653	0.0146428
781.731	0.0147857
781.809	0.0147668
781.887	0.0147379
781.965	0.0147678
782.043	0.0146520
782.121	0.0146918
782.200	0.0145905
782.278	0.0146810
782.356	0.0147712
782.434	0.0147889
782.512	0.0146872
782.590	0.0147288
782.668	0.0147514
782.746	0.0146964
782.825	0.0147009
782.903	0.0148672
782.981	0.0147443
783.059	0.0146668
783.137	0.0147630
783.215	0.0148511
783.293	0.0147317
783.371	0.0146525
783.450	0.0146989
783.528	0.0148091
783.606	0.0147726
783.684	0.0146854
783.762	0.0147566
783.840	0.0147215
783.918	0.0147409
783.996	0.0148083
784.075	0.0147533
784.153	0.0147837
784.231	0.0147390
784.309	0.0146425
784.387	0.0146605
784.465	0.0145914
784.543	0.0146656
784.621	0.0147306
784.700	0.0146800
784.778	0.0146564
784.856	0.0148045
784.934	0.0147756
785.012	0.0147192
785.090	0.0148340
785.168	0.0147795
785.246	0.0147487
785.325	0.0147599
785.403	0.0147489
785.481	0.0148063
785.559	0.0147413
785.637	0.0147607
785.715	0.0146911
785.793	0.0146923
785.871	0.0146484
785.950	0.0147057
786.028	0.0146931
786.106	0.0146593
786.184	0.0145380
786.262	0.0147250
786.340	0.0147543
786.418	0.0146517
786.496	0.0145349
786.575	0.0146788
786.653	0.0146572
786.731	0.0148630
786.809	0.0147132
786.887	0.0146204
786.965	0.0146386
787.043	0.0147359
787.121	0.0148349
787.200	0.0146810
787.278	0.0148248
787.356	0.0147084
787.434	0.0148826
787.512	0.0148527
787.590	0.0147841
787.668	0.0148203
787.746	0.0146864
787.825	0.0146148
787.903	0.0147604
787.981	0.0149004
788.059	0.0147437
788.137	0.0147022
788.215	0.0147448
788.293	0.0147178
788.371	0.0145747
788.450	0.0147070
788.528	0.0148289
788.606	0.0146888
788.684	0.0147543
788.762	0.0146794
788.840	0.0147192
788.918	0.0146368
788.996	0.0147361
789.075	0.0147912
789.153	0.0147814
789.231	0.0145629
789.309	0.0147201
789.387	0.0146824
789.465	0.0147289
789.543	0.0146828
789.621	0.0146090
789.700	0.0147706
789.778	0.0147928
789.856	0.0148953
789.934	0.0147982
790.012	0.0145595
790.090	0.0145867
790.168	0.0147443
790.246	0.0146771
790.325	0.0147118
790.403	0.0146267
790.481	0.0145948
790.559	0.0145686
790.637	0.0146589
790.715	0.0146678
790.793	0.0147909
790.871	0.0147848
790.950	0.0146588
791.028	0.0146147
791.106	0.0147654
791.184	0.0149003
791.262	0.0147772
791.340	0.0147918
791.418	0.0147820
791.496	0.0147518
791.575	0.0147952
791.653	0.0148924
791.731	0.0147553
791.809	0.0147908
791.887	0.0146584
791.965	0.0146388
792.043	0.0145784
792.121	0.0147940
792.200	0.0147817
792.278	0.0146947
792.356	0.0146931
792.434	0.0146979
792.512	0.0146667
792.590	0.0146555
792.668	0.0146951
792.746	0.0147260
792.825	0.0146629
792.903	0.0145586
792.981	0.0146844
793.059	0.0147244
793.137	0.0145969
793.215	0.0146662
793.293	0.0146983
793.371	0.0145824
793.450	0.0147076
793.528	0.0147440
793.606	0.0146204
793.684	0.0145973
793.762	0.0146226
793.840	0.0146142
793.918	0.0147683
793.996	0.0148550
794.075	0.0146612
794.153	0.0147141
794.231	0.0147526
794.309	0.0147288
794.387	0.0146625
794.465	0.0149147
794.543	0.0148154
794.621	0.0148116
794.700	0.0147508
794.778	0.0148621
794.856	0.0147368
794.934	0.0146703
795.012	0.0148114
795.090	0.0148049
795.168	0.0148355
795.246	0.0148099
795.325	0.0148330
795.403	0.0147238
795.481	0.0148134
795.559	0.0148174
795.637	0.0147491
795.715	0.0148689
795.793	0.0147858
795.871	0.0147935
795.950	0.0147755
796.028	0.0146118
796.106	0.0146332
796.184	0.0147821
796.262	0.0147756
796.340	0.0146493
796.418	0.0148860
796.496	0.0146131
796.575	0.0147147
796.653	0.0147878
796.731	0.0148670
796.809	0.0146101
796.887	0.0148011
796.965	0.0148074
797.043	0.0147319
797.121	0.0147902
797.200	0.0146758
797.278	0.0147344
797.356	0.0147056
797.434	0.0145733
797.512	0.0146494
797.590	0.0145697
797.668	0.0145969
797.746	0.0146024
797.825	0.0146540
797.903	0.0145863
797.981	0.0145441
798.059	0.0145612
798.137	0.0145444
798.215	0.0147133
798.293	0.0146738
798.371	0.0146623
798.450	0.0147449
798.528	0.0148978
798.606	0.0148679
798.684	0.0148012
798.762	0.0147617
798.840	0.0147292
798.918	0.0146942
798.996	0.0147678
799.075	0.0146845
799.153	0.0148005
799.231	0.0148516
799.309	0.0147058
799.387	0.0147492
799.465	0.0146384
799.543	0.0148242
799.621	0.0147467
799.700	0.0147152
799.778	0.0147131
799.856	0.0147841
799.934	0.0147482
800.012	0.0147108
800.090	0.0147646
800.168	0.0147141
800.246	0.0147739
800.325	0.0147261
800.403	0.0147324
800.481	0.0146761
800.559	0.0147625
800.637	0.0147163
800.715	0.0148186
800.793	0.0148078
800.871	0.0147303
800.950	0.0146281
801.028	0.0147073
801.106	0.0147769
801.184	0.0147868
801.262	0.0147686
801.340	0.0148206
801.418	0.0146252
801.496	0.0146949
801.575	0.0147658
801.653	0.0147619
801.731	0.0147335
801.809	0.0146194
801.887	0.0146404
801.965	0.0148817
802.043	0.0146791
802.121	0.0145897
802.200	0.0146569
802.278	0.0146187
802.356	0.0147576
802.434	0.0145863
802.512	0.0147404
802.590	0.0147476
802.668	0.0147969
802.746	0.0148071
802.825	0.0146739
802.903	0.0149698
802.981	0.0149120
803.059	0.0147523
803.137	0.0148056
803.215	0.0147760
803.293	0.0149442
803.371	0.0149021
803.450	0.0147871
803.528	0.0146874
803.606	0.0147844
803.684	0.0148633
803.762	0.0148292
803.840	0.0146800
803.918	0.0147096
803.996	0.0147240
804.075	0.0147469
804.153	0.0148166
804.231	0.0146882
804.309	0.0145474
804.387	0.0147105
804.465	0.0146876
804.543	0.0147014
804.621	0.0147141
804.700	0.0146703
804.778	0.0147487
804.856	0.0147642
804.934	0.0146343
805.012	0.0147913
805.090	0.0149446
805.168	0.0148518
805.246	0.0148403
805.325	0.0150058
805.403	0.0148156
805.481	0.0147335
805.559	0.0148083
805.637	0.0148264
805.715	0.0147759
805.793	0.0149153
805.871	0.0149355
805.950	0.0147514
806.028	0.0147981
806.106	0.0147969
806.184	0.0147478
806.262	0.0148619
806.340	0.0149088
806.418	0.0147486
806.496	0.0148161
806.575	0.0149521
806.653	0.0147347
806.731	0.0148304
806.809	0.0148135
806.887	0.0146434
806.965	0.0145945
807.043	0.0146613
807.121	0.0147308
807.200	0.0146931
807.278	0.0146669
807.356	0.0146069
807.434	0.0146243
807.512	0.0146355
807.590	0.0146745
807.668	0.0146609
807.746	0.0146202
807.825	0.0146339
807.903	0.0148080
807.981	0.0146677
808.059	0.0146930
808.137	0.0147507
808.215	0.0147659
808.293	0.0147079
808.371	0.0148595
808.450	0.0149387
808.528	0.0149374
808.606	0.0148711
808.684	0.0148932
808.762	0.0148331
808.840	0.0148921
808.918	0.0147648
808.996	0.0147580
809.075	0.0147283
809.153	0.0148038
809.231	0.0147984
809.309	0.0146894
809.387	0.0146687
809.465	0.0147384
809.543	0.0147508
809.621	0.0146561
809.700	0.0145661
809.778	0.0146539
809.856	0.0147536
809.934	0.0146457
810.012	0.0148171
810.090	0.0147126
810.168	0.0146458
810.246	0.0146631
810.325	0.0145818
810.403	0.0146169
810.481	0.0146445
810.559	0.0146027
810.637	0.0147090
810.715	0.0146410
810.793	0.0147985
810.871	0.0148699
810.950	0.0147408
811.028	0.0148904
811.106	0.0149682
811.184	0.0149477
811.262	0.0149024
811.340	0.0149215
811.418	0.0148228
811.496	0.0148796
811.575	0.0148850
811.653	0.0149636
811.731	0.0147356
811.809	0.0147602
811.887	0.0148374
811.965	0.0147018
812.043	0.0147107
812.121	0.0148077
812.200	0.0148725
812.278	0.0147366
812.356	0.0147174
812.434	0.0146896
812.512	0.0146537
812.590	0.0146873
812.668	0.0145855
812.746	0.0147278
812.825	0.0146800
812.903	0.0147015
812.981	0.0146937
813.059	0.0146856
813.137	0.0146326
813.215	0.0147182
813.293	0.0145326
813.371	0.0144730
813.450	0.0145633
813.528	0.0146738
813.606	0.0145444
813.684	0.0145708
813.762	0.0145552
813.840	0.0144106
813.918	0.0144898
813.996	0.0147140
814.075	0.0148754
814.153	0.0148360
814.231	0.0147279
814.309	0.0146597
814.387	0.0147359
814.465	0.0148724
814.543	0.0147246
814.621	0.0147437
814.700	0.0148470
814.778	0.0147311
814.856	0.0147746
814.934	0.0146043
815.012	0.0147621
815.090	0.0147795
815.168	0.0148165
815.246	0.0148022
815.325	0.0146902
815.403	0.0145870
815.481	0.0147681
815.559	0.0148190
815.637	0.0146632
815.715	0.0146889
815.793	0.0147022
815.871	0.0146890
815.950	0.0146262
816.028	0.0147133
816.106	0.0146919
816.184	0.0147887
816.262	0.0145253
816.340	0.0146515
816.418	0.0146635
816.496	0.0148067
816.575	0.0148131
816.653	0.0148053
816.731	0.0146808
816.809	0.0147828
816.887	0.0146758
816.965	0.0146376
817.043	0.0146729
817.121	0.0147777
817.200	0.0146802
817.278	0.0147403
817.356	0.0146630
817.434	0.0147823
817.512	0.0147026
817.590	0.0147190
817.668	0.0148212
817.746	0.0147370
817.825	0.0147695
817.903	0.0147983
817.981	0.0145746
818.059	0.0146809
818.137	0.0146809
818.215	0.0147195
818.293	0.0147354
818.371	0.0147585
818.450	0.0147758
818.528	0.0146599
818.606	0.0148423
818.684	0.0147874
818.762	0.0146816
818.840	0.0145515
818.918	0.0147626
818.996	0.0148072
819.075	0.0147972
819.153	0.0148535
819.231	0.0148186
819.309	0.0147533
819.387	0.0147634
819.465	0.0147466
819.543	0.0148428
819.621	0.0149277
819.700	0.0148239
819.778	0.0147423
819.856	0.0147961
819.934	0.0148469
820.012	0.0146317
820.090	0.0147888
820.168	0.0147532
820.246	0.0148038
820.325	0.0147530
820.403	0.0148295
820.481	0.0146686
820.559	0.0146912
820.637	0.0147296
820.715	0.0148519
820.793	0.0147765
820.871	0.0146344
820.950	0.0146531
821.028	0.0147728
821.106	0.0146869
821.184	0.0146285
821.262	0.0147504
821.340	0.0146656
821.418	0.0146406
821.496	0.0146795
821.575	0.0146281
821.653	0.0146923
821.731	0.0147604
821.809	0.0146553
821.887	0.0146404
821.965	0.0148057
822.043	0.0148013
822.121	0.0145013
822.200	0.0146777
822.278	0.0147355
822.356	0.0146847
822.434	0.0147687
822.512	0.0147005
822.590	0.0148194
822.668	0.0148591
822.746	0.0146817
822.825	0.0147965
822.903	0.0147553
822.981	0.0146818
823.059	0.0149068
823.137	0.0148417
823.215	0.0149031
823.293	0.0148470
823.371	0.0146594
823.450	0.0148516
823.528	0.0147898
823.606	0.0148286
823.684	0.0147288
823.762	0.0149136
823.840	0.0147691
823.918	0.0147562
823.996	0.0147999
824.075	0.0147620
824.153	0.0148769
824.231	0.0147155
824.309	0.0147474
824.387	0.0146680
824.465	0.0146995
824.543	0.0148766
824.621	0.0147417
824.700	0.0147482
824.778	0.0147987
824.856	0.0146350
824.934	0.0145960
825.012	0.0146583
825.090	0.0146206
825.168	0.0147286
825.246	0.0147050
825.325	0.0147104
825.403	0.0146880
825.481	0.0146027
825.559	0.0146051
825.637	0.0147038
825.715	0.0147194
825.793	0.0147068
825.871	0.0147879
825.950	0.0148323
826.028	0.0148284
826.106	0.0147222
826.184	0.0147559
826.262	0.0149171
826.340	0.0148979
826.418	0.0147417
826.496	0.0148894
826.575	0.0147716
826.653	0.0148592
826.731	0.0148716
826.809	0.0148398
826.887	0.0147972
826.965	0.0146893
827.043	0.0148180
827.121	0.0147607
827.200	0.0145654
827.278	0.0145871
827.356	0.0148086
827.434	0.0147181
827.512	0.0146614
827.590	0.0147566
827.668	0.0148352
827.746	0.0146939
827.825	0.0147076
827.903	0.0148306
827.981	0.0146295
828.059	0.0148084
828.137	0.0146962
828.215	0.0147011
828.293	0.0146738
828.371	0.0147319
828.450	0.0147336
828.528	0.0147049
828.606	0.0146793
828.684	0.0147711
828.762	0.0147833
828.840	0.0146351
828.918	0.0146774
828.996	0.0147287
829.075	0.0145896
829.153	0.0146935
829.231	0.0147580
829.309	0.0147039
829.387	0.0146883
829.465	0.0147115
829.543	0.0146909
829.621	0.0147893
829.700	0.0147818
829.778	0.0145492
829.856	0.0146748
829.934	0.0147789
830.012	0.0147313
830.090	0.0147232
830.168	0.0145977
830.246	0.0146758
830.325	0.0146959
830.403	0.0147789
830.481	0.0146625
830.559	0.0147524
830.637	0.0146432
830.715	0.0147070
830.793	0.0147015
830.871	0.0146159
830.950	0.0147546
831.028	0.0146577
831.106	0.0147857
831.184	0.0147944
831.262	0.0147352
831.340	0.0148866
831.418	0.0146711
831.496	0.0146414
831.575	0.0148083
831.653	0.0146473
831.731	0.0147213
831.809	0.0147475
831.887	0.0145595
831.965	0.0148240
832.043	0.0147305
832.121	0.0148733
832.200	0.0148309
832.278	0.0147705
832.356	0.0147919
832.434	0.0145715
832.512	0.0145872
832.590	0.0147398
832.668	0.0147052
832.746	0.0146335
832.825	0.0147030
832.903	0.0145917
832.981	0.0146741
833.059	0.0146815
833.137	0.0146975
833.215	0.0146994
833.293	0.0146825
833.371	0.0145419
833.450	0.0145421
833.528	0.0145434
833.606	0.0146132
833.684	0.0146088
833.762	0.0145531
833.840	0.0146655
833.918	0.0147260
833.996	0.0146724
834.075	0.0146846
834.153	0.0146406
834.231	0.0146290
834.309	0.0146693
834.387	0.0148246
834.465	0.0145302
834.543	0.0147668
834.621	0.0147262
834.700	0.0147280
834.778	0.0147610
834.856	0.0146040
834.934	0.0148584
835.012	0.0147314
835.090	0.0146889
835.168	0.0147766
835.246	0.0147552
835.325	0.0146941
835.403	0.0146455
835.481	0.0146349
835.559	0.0147173
835.637	0.0146014
835.715	0.0146082
835.793	0.0146391
835.871	0.0147449
835.950	0.0146183
836.028	0.0146861
836.106	0.0146398
836.184	0.0146348
836.262	0.0148454
836.340	0.0146251
836.418	0.0146455
836.496	0.0147532
836.575	0.0146469
836.653	0.0146038
836.731	0.0145856
836.809	0.0147254
836.887	0.0146780
836.965	0.0146159
837.043	0.0145452
837.121	0.0146705
837.200	0.0146243
837.278	0.0146265
837.356	0.0146248
837.434	0.0147479
837.512	0.0146413
837.590	0.0147518
837.668	0.0146881
837.746	0.0148283
837.825	0.0146239
837.903	0.0147604
837.981	0.0148011
838.059	0.0148945
838.137	0.0147774
838.215	0.0146639
838.293	0.0147897
838.371	0.0146382
838.450	0.0147491
838.528	0.0147118
838.606	0.0147997
838.684	0.0147924
838.762	0.0148628
838.840	0.0147518
838.918	0.0146203
838.996	0.0147719
839.075	0.0147974
839.153	0.0146100
839.231	0.0146986
839.309	0.0147029
839.387	0.0147375
839.465	0.0146559
839.543	0.0144794
839.621	0.0147312
839.700	0.0147635
839.778	0.0147618
839.856	0.0146105
839.934	0.0146503
840.012	0.0146176
840.090	0.0146164
840.168	0.0146578
840.246	0.0146777
840.325	0.0147000
840.403	0.0146829
840.481	0.0146447
840.559	0.0147219
840.637	0.0146352
840.715	0.0147791
840.793	0.0147290
840.871	0.0147393
840.950	0.0147357
841.028	0.0147066
841.106	0.0146799
841.184	0.0147542
841.262	0.0147216
841.340	0.0146723
841.418	0.0147320
841.496	0.0146912
841.575	0.0147478
841.653	0.0147247
841.731	0.0147176
841.809	0.0146303
841.887	0.0147658
841.965	0.0148012
842.043	0.0147179
842.121	0.0147782
842.200	0.0147017
842.278	0.0145422
842.356	0.0146854
842.434	0.0146388
842.512	0.0147237
842.590	0.0147512
842.668	0.0146169
842.746	0.0147480
842.825	0.0146301
842.903	0.0146249
842.981	0.0146859
843.059	0.0147811
843.137	0.0145155
843.215	0.0146111
843.293	0.0148390
843.371	0.0147063
843.450	0.0146004
843.528	0.0146932
843.606	0.0147549
843.684	0.0146703
843.762	0.0146503
843.840	0.0147060
843.918	0.0147569
843.996	0.0147226
844.075	0.0146244
844.153	0.0145826
844.231	0.0147370
844.309	0.0146247
844.387	0.0145647
844.465	0.0146991
844.543	0.0146790
844.621	0.0147106
844.700	0.0147233
844.778	0.0146975
844.856	0.0147122
844.934	0.0147724
845.012	0.0146371
845.090	0.0148043
845.168	0.0147733
845.246	0.0147507
845.325	0.0147366
845.403	0.0147222
845.481	0.0145933
845.559	0.0147820
845.637	0.0148302
845.715	0.0146960
845.793	0.0144756
845.871	0.0146400
845.950	0.0146702
846.028	0.0147832
846.106	0.0147397
846.184	0.0145874
846.262	0.0144731
846.340	0.0146519
846.418	0.0146194
846.496	0.0145852
846.575	0.0146946
846.653	0.0145631
846.731	0.0146630
846.809	0.0146694
846.887	0.0146684
846.965	0.0148107
847.043	0.0146988
847.121	0.0146904
847.200	0.0147308
847.278	0.0147823
847.356	0.0148618
847.434	0.0147608
847.512	0.0147202
847.590	0.0147024
847.668	0.0147027
847.746	0.0146825
847.825	0.0146820
847.903	0.0145499
847.981	0.0147414
848.059	0.0147784
848.137	0.0147594
848.215	0.0146480
848.293	0.0147588
848.371	0.0146909
848.450	0.0147670
848.528	0.0147697
848.606	0.0145213
848.684	0.0146849
848.762	0.0147465
848.840	0.0145857
848.918	0.0148219
848.996	0.0146918
849.075	0.0147124
849.153	0.0148171
849.231	0.0146696
849.309	0.0146811
849.387	0.0146101
849.465	0.0145863
849.543	0.0146639
849.621	0.0146555
849.700	0.0147293
849.778	0.0147491
849.856	0.0145875
849.934	0.0147166
850.012	0.0147475
850.090	0.0147538
850.168	0.0146660
850.246	0.0146706
850.325	0.0147895
850.403	0.0147766
850.481	0.0147364
850.559	0.0148401
850.637	0.0147266
850.715	0.0147379
850.793	0.0146902
850.871	0.0145963
850.950	0.0147729
851.028	0.0147095
851.106	0.0146667
851.184	0.0145644
851.262	0.0148193
851.340	0.0146584
851.418	0.0146448
851.496	0.0148060
851.575	0.0146422
851.653	0.0146745
851.731	0.0147131
851.809	0.0146739
851.887	0.0146229
851.965	0.0147983
852.043	0.0147628
852.121	0.0147192
852.200	0.0146628
852.278	0.0146470
852.356	0.0148636
852.434	0.0147732
852.512	0.0147291
852.590	0.0147404
852.668	0.0147861
852.746	0.0147816
852.825	0.0147605
852.903	0.0147096
852.981	0.0145802
853.059	0.0147483
853.137	0.0147928
853.215	0.0147652
853.293	0.0147913
853.371	0.0147969
853.450	0.0145190
853.528	0.0146089
853.606	0.0147166
853.684	0.0147261
853.762	0.0148439
853.840	0.0147951
853.918	0.0147050
853.996	0.0146185
854.075	0.0145423
854.153	0.0147077
854.231	0.0147182
854.309	0.0147295
854.387	0.0147672
854.465	0.0146646
854.543	0.0146003
854.621	0.0146062
854.700	0.0146503
854.778	0.0147379
854.856	0.0146507
854.934	0.0146481
855.012	0.0146133
855.090	0.0146271
855.168	0.0147516
855.246	0.0146718
855.325	0.0148078
855.403	0.0146257
855.481	0.0146841
855.559	0.0147326
855.637	0.0146934
855.715	0.0148569
855.793	0.0147828
855.871	0.0147529
855.950	0.0146525
856.028	0.0147704
856.106	0.0147128
856.184	0.0145846
856.262	0.0146081
856.340	0.0147424
856.418	0.0147904
856.496	0.0147657
856.575	0.0148273
856.653	0.0147567
856.731	0.0147047
856.809	0.0147502
856.887	0.0147160
856.965	0.0147151
857.043	0.0147919
857.121	0.0147262
857.200	0.0146690
857.278	0.0146648
857.356	0.0147506
857.434	0.0147466
857.512	0.0146301
857.590	0.0147343
857.668	0.0147350
857.746	0.0146307
857.825	0.0146758
857.903	0.0147503
857.981	0.0146912
858.059	0.0147552
858.137	0.0147362
858.215	0.0146309
858.293	0.0146376
858.371	0.0146561
858.450	0.0145903
858.528	0.0147256
858.606	0.0147157
858.684	0.0146708
858.762	0.0146753
858.840	0.0147553
858.918	0.0147031
858.996	0.0148506
859.075	0.0145585
859.153	0.0145762
859.231	0.0147480
859.309	0.0146467
859.387	0.0147250
859.465	0.0146991
859.543	0.0146861
859.621	0.0146830
859.700	0.0146669
859.778	0.0147052
859.856	0.0146615
859.934	0.0146845
860.012	0.0147689
860.090	0.0145757
860.168	0.0147122
860.246	0.0146848
860.325	0.0146437
860.403	0.0147033
860.481	0.0147614
860.559	0.0147581
860.637	0.0147121
860.715	0.0147552
860.793	0.0146781
860.871	0.0147473
860.950	0.0147004
861.028	0.0145367
861.106	0.0146904
861.184	0.0145989
861.262	0.0147164
861.340	0.0146611
861.418	0.0146861
861.496	0.0147356
861.575	0.0146551
861.653	0.0147234
861.731	0.0146893
861.809	0.0146288
861.887	0.0146589
861.965	0.0146667
862.043	0.0148106
862.121	0.0147899
862.200	0.0147375
862.278	0.0146846
862.356	0.0147878
862.434	0.0147270
862.512	0.0146571
862.590	0.0146519
862.668	0.0148141
862.746	0.0147430
862.825	0.0146495
862.903	0.0146127
862.981	0.0147461
863.059	0.0147199
863.137	0.0145761
863.215	0.0147616
863.293	0.0145943
863.371	0.0147160
863.450	0.0145339
863.528	0.0147478
863.606	0.0147554
863.684	0.0146230
863.762	0.0146616
863.840	0.0146777
863.918	0.0147009
863.996	0.0148222
864.075	0.0146882
864.153	0.0147530
864.231	0.0147665
864.309	0.0146318
864.387	0.0146874
864.465	0.0148156
864.543	0.0145942
864.621	0.0148101
864.700	0.0148572
864.778	0.0147623
864.856	0.0147195
864.934	0.0146677
865.012	0.0148453
865.090	0.0147277
865.168	0.0146494
865.246	0.0147275
865.325	0.0147694
865.403	0.0148303
865.481	0.0147172
865.559	0.0146912
865.637	0.0147285
865.715	0.0147885
865.793	0.0147285
865.871	0.0146581
865.950	0.0147269
866.028	0.0146320
866.106	0.0147449
866.184	0.0147638
866.262	0.0148119
866.340	0.0148235
866.418	0.0146603
866.496	0.0146998
866.575	0.0147713
866.653	0.0147155
866.731	0.0146568
866.809	0.0145910
866.887	0.0147103
866.965	0.0147462
867.043	0.0146426
867.121	0.0147702
867.200	0.0147523
867.278	0.0147106
867.356	0.0146720
867.434	0.0146584
867.512	0.0147761
867.590	0.0148292
867.668	0.0148019
867.746	0.0147483
867.825	0.0147079
867.903	0.0146812
867.981	0.0147264
868.059	0.0148252
868.137	0.0148806
868.215	0.0147532
868.293	0.0146432
868.371	0.0147597
868.450	0.0146715
868.528	0.0148623
868.606	0.0148353
868.684	0.0145594
868.762	0.0147469
868.840	0.0147636
868.918	0.0147385
868.996	0.0148325
869.075	0.0148510
869.153	0.0148080
869.231	0.0147104
869.309	0.0148419
869.387	0.0146551
869.465	0.0148564
869.543	0.0149237
869.621	0.0147791
869.700	0.0146633
869.778	0.0148266
869.856	0.0147033
869.934	0.0147604
870.012	0.0148026
870.090	0.0148766
870.168	0.0146548
870.246	0.0146742
870.325	0.0147894
870.403	0.0148457
870.481	0.0147422
870.559	0.0147396
870.637	0.0147231
870.715	0.0147590
870.793	0.0148032
870.871	0.0146039
870.950	0.0146762
871.028	0.0147974
871.106	0.0148120
871.184	0.0146958
871.262	0.0146558
871.340	0.0147392
871.418	0.0147573
871.496	0.0146341
871.575	0.0147287
871.653	0.0147594
871.731	0.0145798
871.809	0.0147092
871.887	0.0147116
871.965	0.0147607
872.043	0.0147463
872.121	0.0147719
872.200	0.0145873
872.278	0.0147292
872.356	0.0147504
872.434	0.0147603
872.512	0.0148727
872.590	0.0146528
872.668	0.0147526
872.746	0.0148138
872.825	0.0147922
872.903	0.0147565
872.981	0.0147168
873.059	0.0147095
873.137	0.0147440
873.215	0.0146807
873.293	0.0146717
873.371	0.0148763
873.450	0.0147472
873.528	0.0148490
873.606	0.0146652
873.684	0.0146108
873.762	0.0147622
873.840	0.0147152
873.918	0.0146901
873.996	0.0147461
874.075	0.0147976
874.153	0.0147075
874.231	0.0146999
874.309	0.0145468
874.387	0.0148587
874.465	0.0148473
874.543	0.0149232
874.621	0.0147337
874.700	0.0145790
874.778	0.0147333
874.856	0.0147695
874.934	0.0147382
875.012	0.0148071
875.090	0.0147673
875.168	0.0147322
875.246	0.0147884
875.325	0.0146381
875.403	0.0146149
875.481	0.0146583
875.559	0.0147686
875.637	0.0146939
875.715	0.0146312
875.793	0.0146799
875.871	0.0146663
875.950	0.0145716
876.028	0.0145799
876.106	0.0147868
876.184	0.0147040
876.262	0.0146831
876.340	0.0146922
876.418	0.0146277
876.496	0.0147232
876.575	0.0146342
876.653	0.0148196
876.731	0.0146439
876.809	0.0146664
876.887	0.0147340
876.965	0.0147093
877.043	0.0147952
877.121	0.0147851
877.200	0.0146861
877.278	0.0147964
877.356	0.0146702
877.434	0.0146097
877.512	0.0147141
877.590	0.0147160
877.668	0.0146691
877.746	0.0147816
877.825	0.0147285
877.903	0.0148631
877.981	0.0148404
878.059	0.0147433
878.137	0.0146745
878.215	0.0148616
878.293	0.0148573
878.371	0.0146415
878.450	0.0147019
878.528	0.0147584
878.606	0.0147791
878.684	0.0146926
878.762	0.0147290
878.840	0.0147665
878.918	0.0146670
878.996	0.0147639
879.075	0.0148374
879.153	0.0148328
879.231	0.0146258
879.309	0.0146911
879.387	0.0147906
879.465	0.0147857
879.543	0.0148782
879.621	0.0147167
879.700	0.0147557
879.778	0.0147139
879.856	0.0147646
879.934	0.0146825
880.012	0.0145815
880.090	0.0146696
880.168	0.0148412
880.246	0.0148422
880.325	0.0147809
880.403	0.0147202
880.481	0.0146926
880.559	0.0146620
880.637	0.0149023
880.715	0.0147986
880.793	0.0148337
880.871	0.0148127
880.950	0.0148977
881.028	0.0147122
881.106	0.0146409
881.184	0.0147007
881.262	0.0146052
881.340	0.0146843
881.418	0.0146471
881.496	0.0147802
881.575	0.0146480
881.653	0.0146736
881.731	0.0146609
881.809	0.0146330
881.887	0.0145945
881.965	0.0146327
882.043	0.0146304
882.121	0.0146938
882.200	0.0148133
882.278	0.0147461
882.356	0.0146338
882.434	0.0147598
882.512	0.0146796
882.590	0.0147152
882.668	0.0147195
882.746	0.0147339
882.825	0.0146534
882.903	0.0146497
882.981	0.0148810
883.059	0.0147536
883.137	0.0147978
883.215	0.0146993
883.293	0.0147385
883.371	0.0147107
883.450	0.0148426
883.528	0.0147935
883.606	0.0148770
883.684	0.0148359
883.762	0.0147924
883.840	0.0147897
883.918	0.0147007
883.996	0.0146979
884.075	0.0145320
884.153	0.0147045
884.231	0.0148217
884.309	0.0145692
884.387	0.0145674
884.465	0.0147803
884.543	0.0148111
884.621	0.0147780
884.700	0.0147972
884.778	0.0147495
884.856	0.0147491
884.934	0.0147202
885.012	0.0147798
885.090	0.0147697
885.168	0.0147831
885.246	0.0146427
885.325	0.0146975
885.403	0.0147020
885.481	0.0146441
885.559	0.0146146
885.637	0.0146078
885.715	0.0147069
885.793	0.0145383
885.871	0.0145225
885.950	0.0145266
886.028	0.0145865
886.106	0.0145306
886.184	0.0145676
886.262	0.0145665
886.340	0.0146049
886.418	0.0147469
886.496	0.0148097
886.575	0.0148292
886.653	0.0146647
886.731	0.0149113
886.809	0.0146860
886.887	0.0148416
886.965	0.0148344
887.043	0.0148936
887.121	0.0148191
887.200	0.0149387
887.278	0.0149268
887.356	0.0148710
887.434	0.0148875
887.512	0.0149396
887.590	0.0148428
887.668	0.0146883
887.746	0.0146517
887.825	0.0148425
887.903	0.0147108
887.981	0.0146738
888.059	0.0144733
888.137	0.0145863
888.215	0.0145764
888.293	0.0146326
888.371	0.0145840
888.450	0.0145094
888.528	0.0147829
888.606	0.0147413
888.684	0.0145927
888.762	0.0147263
888.840	0.0147214
888.918	0.0146595
888.996	0.0146973
889.075	0.0147089
889.153	0.0148407
889.231	0.0148286
889.309	0.0148754
889.387	0.0149454
889.465	0.0149194
889.543	0.0148351
889.621	0.0149476
889.700	0.0148778
889.778	0.0147316
889.856	0.0148087
889.934	0.0149177
890.012	0.0147939
890.090	0.0148273
890.168	0.0147346
890.246	0.0147343
890.325	0.0147076
890.403	0.0146052
890.481	0.0146467
890.559	0.0146516
890.637	0.0146455
890.715	0.0145534
890.793	0.0145965
890.871	0.0146961
890.950	0.0146442
891.028	0.0146718
891.106	0.0147565
891.184	0.0146987
891.262	0.0147535
891.340	0.0148225
891.418	0.0148240
891.496	0.0149861
891.575	0.0148791
891.653	0.0147231
891.731	0.0146560
891.809	0.0148407
891.887	0.0147986
891.965	0.0147957
892.043	0.0146987
892.121	0.0147214
892.200	0.0147588
892.278	0.0147063
892.356	0.0145883
892.434	0.0147253
892.512	0.0149073
892.590	0.0147485
892.668	0.0148106
892.746	0.0147044
892.825	0.0148428
892.903	0.0149110
892.981	0.0148595
893.059	0.0146719
893.137	0.0147136
893.215	0.0146829
893.293	0.0146944
893.371	0.0146719
893.450	0.0146345
893.528	0.0144997
893.606	0.0146196
893.684	0.0146509
893.762	0.0144493
893.840	0.0145760
893.918	0.0145799
893.996	0.0147508
894.075	0.0146710
894.153	0.0147648
894.231	0.0146754
894.309	0.0146975
894.387	0.0148145
894.465	0.0146422
894.543	0.0146999
894.621	0.0147668
894.700	0.0149071
894.778	0.0149041
894.856	0.0148383
894.934	0.0149298
895.012	0.0148773
895.090	0.0146796
895.168	0.0148349
895.246	0.0148948
895.325	0.0148180
895.403	0.0147966
895.481	0.0148398
895.559	0.0147013
895.637	0.0147404
895.715	0.0147668
895.793	0.0147870
895.871	0.0146203
895.950	0.0148618
896.028	0.0147437
896.106	0.0146461
896.184	0.0146194
896.262	0.0147165
896.340	0.0147352
896.418	0.0146204
896.496	0.0146999
896.575	0.0146789
896.653	0.0147195
896.731	0.0146555
896.809	0.0146371
896.887	0.0147049
896.965	0.0146780
897.043	0.0145601
897.121	0.0147417
897.200	0.0147139
897.278	0.0146491
897.356	0.0145103
897.434	0.0146245
897.512	0.0147090
897.590	0.0146693
897.668	0.0147163
897.746	0.0147504
897.825	0.0146679
897.903	0.0146341
897.981	0.0146802
898.059	0.0148160
898.137	0.0147842
898.215	0.0148135
898.293	0.0146851
898.371	0.0147792
898.450	0.0148154
898.528	0.0147049
898.606	0.0147894
898.684	0.0147598
898.762	0.0147430
898.840	0.0147066
898.918	0.0147410
898.996	0.0147340
899.075	0.0148341
899.153	0.0148614
899.231	0.0148916
899.309	0.0148164
899.387	0.0147442
899.465	0.0147814
899.543	0.0146040
899.621	0.0146391
899.700	0.0146844
899.778	0.0146284
899.856	0.0147259
899.934	0.0145444
900.012	0.0145643
900.090	0.0146510
900.168	0.0146206
900.246	0.0146217
900.325	0.0147243
900.403	0.0146508
900.481	0.0148189
900.559	0.0148137
900.637	0.0148355
900.715	0.0147804
900.793	0.0148593
900.871	0.0147855
900.950	0.0148582
901.028	0.0147933
901.106	0.0149200
901.184	0.0147720
901.262	0.0148538
901.340	0.0148187
901.418	0.0147385
901.496	0.0147913
901.575	0.0147936
901.653	0.0146195
901.731	0.0145716
901.809	0.0146841
901.887	0.0146813
901.965	0.0145943
902.043	0.0146508
902.121	0.0147388
902.200	0.0146648
902.278	0.0147249
902.356	0.0148486
902.434	0.0147184
902.512	0.0148900
902.590	0.0147295
902.668	0.0146830
902.746	0.0147089
902.825	0.0145895
902.903	0.0145695
902.981	0.0145408
903.059	0.0147205
903.137	0.0146568
903.215	0.0147309
903.293	0.0146790
903.371	0.0148715
903.450	0.0149241
903.528	0.0148589
903.606	0.0148796
903.684	0.0149368
903.762	0.0150195
903.840	0.0150243
903.918	0.0148779
903.996	0.0148392
904.075	0.0149282
904.153	0.0149268
904.231	0.0149330
904.309	0.0147660
904.387	0.0147989
904.465	0.0146423
904.543	0.0145853
904.621	0.0147147
904.700	0.0147572
904.778	0.0145197
904.856	0.0146069
904.934	0.0147002
905.012	0.0147163
905.090	0.0147157
905.168	0.0147046
905.246	0.0146722
905.325	0.0148064
905.403	0.0147819
905.481	0.0147348
905.559	0.0147095
905.637	0.0145860
905.715	0.0147144
905.793	0.0145086
905.871	0.0146353
905.950	0.0146133
906.028	0.0145786
906.106	0.0146511
906.184	0.0148286
906.262	0.0146103
906.340	0.0147400
906.418	0.0148633
906.496	0.0148810
906.575	0.0147755
906.653	0.0149417
906.731	0.0147466
906.809	0.0149289
906.887	0.0148926
906.965	0.0147392
907.043	0.0147630
907.121	0.0147533
907.200	0.0146842
907.278	0.0146037
907.356	0.0146976
907.434	0.0147018
907.512	0.0144822
907.590	0.0145065
907.668	0.0146590
907.746	0.0146992
907.825	0.0146392
907.903	0.0146928
907.981	0.0147000
908.059	0.0147581
908.137	0.0148412
908.215	0.0148766
908.293	0.0148885
908.371	0.0148788
908.450	0.0147543
908.528	0.0146922
908.606	0.0146555
908.684	0.0148034
908.762	0.0146666
908.840	0.0146475
908.918	0.0146567
908.996	0.0146407
909.075	0.0144894
909.153	0.0147020
909.231	0.0146535
909.309	0.0146937
909.387	0.0147190
909.465	0.0147822
909.543	0.0147792
909.621	0.0149682
909.700	0.0148506
909.778	0.0148207
909.856	0.0149467
909.934	0.0148405
910.012	0.0148740
910.090	0.0149658
910.168	0.0147071
910.246	0.0147231
910.325	0.0148768
910.403	0.0147710
910.481	0.0146939
910.559	0.0146828
910.637	0.0147591
910.715	0.0147729
910.793	0.0147319
910.871	0.0145898
910.950	0.0146554
911.028	0.0147495
911.106	0.0148645
911.184	0.0148207
911.262	0.0148144
911.340	0.0147659
911.418	0.0147824
911.496	0.0148306
911.575	0.0147891
911.653	0.0146321
911.731	0.0147603
911.809	0.0147185
911.887	0.0145163
911.965	0.0146161
912.043	0.0145942
912.121	0.0146060
912.200	0.0147327
912.278	0.0145656
912.356	0.0146456
912.434	0.0147709
912.512	0.0148138
912.590	0.0147478
912.668	0.0147075
912.746	0.0147767
912.825	0.0150007
912.903	0.0149524
912.981	0.0149298
913.059	0.0149510
913.137	0.0148862
913.215	0.0148569
913.293	0.0149406
913.371	0.0150352
913.450	0.0148643
913.528	0.0147282
913.606	0.0147869
913.684	0.0147890
913.762	0.0145735
913.840	0.0146682
913.918	0.0147144
913.996	0.0146658
914.075	0.0146602
914.153	0.0147240
914.231	0.0148175
914.309	0.0147218
914.387	0.0147289
914.465	0.0146410
914.543	0.0147446
914.621	0.0148373
914.700	0.0147604
914.778	0.0147519
914.856	0.0146967
914.934	0.0147688
915.012	0.0147749
915.090	0.0147555
915.168	0.0145933
915.246	0.0146375
915.325	0.0147752
915.403	0.0146777
915.481	0.0147523
915.559	0.0146024
915.637	0.0147650
915.715	0.0148186
915.793	0.0146233
915.871	0.0147080
915.950	0.0149502
916.028	0.0147010
916.106	0.0147848
916.184	0.0147882
916.262	0.0148344
916.340	0.0147306
916.418	0.0148337
916.496	0.0147765
916.575	0.0147657
916.653	0.0147511
916.731	0.0145765
916.809	0.0146265
916.887	0.0146661
916.965	0.0145999
917.043	0.0146661
917.121	0.0147183
917.200	0.0146647
917.278	0.0146841
917.356	0.0148234
917.434	0.0147219
917.512	0.0148290
917.590	0.0146408
917.668	0.0145615
917.746	0.0146591
917.825	0.0147548
917.903	0.0146795
917.981	0.0147367
918.059	0.0147182
918.137	0.0146664
918.215	0.0146711
918.293	0.0147238
918.371	0.0147335
918.450	0.0147450
918.528	0.0147576
918.606	0.0147425
918.684	0.0147974
918.762	0.0147018
918.840	0.0146307
918.918	0.0147308
918.996	0.0147366
919.075	0.0146204
919.153	0.0146645
919.231	0.0148073
919.309	0.0147133
919.387	0.0147428
919.465	0.0144845
919.543	0.0145821
919.621	0.0147848
919.700	0.0146220
919.778	0.0148277
919.856	0.0146779
919.934	0.0146711
920.012	0.0147510
920.090	0.0147228
920.168	0.0144852
920.246	0.0145649
920.325	0.0147290
920.403	0.0145850
920.481	0.0146130
920.559	0.0146154
920.637	0.0147815
920.715	0.0147503
920.793	0.0146790
920.871	0.0146300
920.950	0.0145985
921.028	0.0147260
921.106	0.0147048
921.184	0.0146504
921.262	0.0146695
921.340	0.0148295
921.418	0.0147054
921.496	0.0147158
921.575	0.0148322
921.653	0.0147302
921.731	0.0147263
921.809	0.0146231
921.887	0.0148238
921.965	0.0145779
922.043	0.0147070
922.121	0.0147021
922.200	0.0147385
922.278	0.0147542
922.356	0.0146615
922.434	0.0147910
922.512	0.0147061
922.590	0.0144939
922.668	0.0147910
922.746	0.0147624
922.825	0.0146888
922.903	0.0147452
922.981	0.0148065
923.059	0.0147050
923.137	0.0146887
923.215	0.0147425
923.293	0.0146967
923.371	0.0145150
923.450	0.0146201
923.528	0.0146901
923.606	0.0146528
923.684	0.0147733
923.762	0.0146078
923.840	0.0146513
923.918	0.0144684
923.996	0.0147075
924.075	0.0145759
924.153	0.0146602
924.231	0.0146686
924.309	0.0148650
924.387	0.0147025
924.465	0.0148537
924.543	0.0147057
924.621	0.0148795
924.700	0.0147608
924.778	0.0148888
924.856	0.0146523
924.934	0.0147034
925.012	0.0148109
925.090	0.0147885
925.168	0.0148866
925.246	0.0147274
925.325	0.0147973
925.403	0.0146553
925.481	0.0146013
925.559	0.0147138
925.637	0.0146043
925.715	0.0147489
925.793	0.0146016
925.871	0.0146177
925.950	0.0146861
926.028	0.0148767
926.106	0.0145847
926.184	0.0145761
926.262	0.0146940
926.340	0.0146722
926.418	0.0146529
926.496	0.0146383
926.575	0.0145881
926.653	0.0146323
926.731	0.0146291
926.809	0.0147203
926.887	0.0147177
926.965	0.0146223
927.043	0.0146173
927.121	0.0146785
927.200	0.0146302
927.278	0.0146247
927.356	0.0147670
927.434	0.0146914
927.512	0.0147311
927.590	0.0148425
927.668	0.0148052
927.746	0.0146351
927.825	0.0147652
927.903	0.0147949
927.981	0.0148016
928.059	0.0146506
928.137	0.0146877
928.215	0.0145454
928.293	0.0145512
928.371	0.0147495
928.450	0.0146761
928.528	0.0148306
928.606	0.0147567
928.684	0.0146057
928.762	0.0146873
928.840	0.0145797
928.918	0.0147073
928.996	0.0145758
929.075	0.0146476
929.153	0.0146608
929.231	0.0146380
929.309	0.0146922
929.387	0.0147852
929.465	0.0145885
929.543	0.0145837
929.621	0.0145439
929.700	0.0146507
929.778	0.0146646
929.856	0.0147450
929.934	0.0146941
930.012	0.0146917
930.090	0.0145795
930.168	0.0147048
930.246	0.0147496
930.325	0.0147075
930.403	0.0146714
930.481	0.0145945
930.559	0.0146684
930.637	0.0146716
930.715	0.0146551
930.793	0.0147860
930.871	0.0148174
930.950	0.0147650
931.028	0.0146842
931.106	0.0146850
931.184	0.0146796
931.262	0.0145909
931.340	0.0148320
931.418	0.0147760
931.496	0.0147343
931.575	0.0145154
931.653	0.0146464
931.731	0.0146814
931.809	0.0145969
931.887	0.0146045
931.965	0.0146766
932.043	0.0147246
932.121	0.0146103
932.200	0.0146368
932.278	0.0146205
932.356	0.0146410
932.434	0.0146390
932.512	0.0145139
932.590	0.0147547
932.668	0.0147031
932.746	0.0147102
932.825	0.0147603
932.903	0.0146155
932.981	0.0147118
933.059	0.0146654
933.137	0.0146664
933.215	0.0147192
933.293	0.0148280
933.371	0.0147478
933.450	0.0147332
933.528	0.0146803
933.606	0.0147372
933.684	0.0147291
933.762	0.0147551
933.840	0.0146985
933.918	0.0147606
933.996	0.0148396
934.075	0.0147343
934.153	0.0147095
934.231	0.0145924
934.309	0.0146682
934.387	0.0148360
934.465	0.0148204
934.543	0.0148071
934.621	0.0146111
934.700	0.0147457
934.778	0.0147797
934.856	0.0147836
934.934	0.0148522
935.012	0.0147414
935.090	0.0148157
935.168	0.0148052
935.246	0.0147404
935.325	0.0147182
935.403	0.0147132
935.481	0.0146979
935.559	0.0147128
935.637	0.0146292
935.715	0.0146033
935.793	0.0146296
935.871	0.0146551
935.950	0.0147270
936.028	0.0146490
936.106	0.0146039
936.184	0.0146665
936.262	0.0147190
936.340	0.0147600
936.418	0.0146713
936.496	0.0147073
936.575	0.0147760
936.653	0.0147017
936.731	0.0146756
936.809	0.0148009
936.887	0.0147581
936.965	0.0146642
937.043	0.0148238
937.121	0.0147880
937.200	0.0146145
937.278	0.0147714
937.356	0.0146720
937.434	0.0148219
937.512	0.0145921
937.590	0.0146683
937.668	0.0148246
937.746	0.0146892
937.825	0.0146975
937.903	0.0146418
937.981	0.0146791
938.059	0.0148015
938.137	0.0147922
938.215	0.0146677
938.293	0.0148414
938.371	0.0147447
938.450	0.0146451
938.528	0.0147562
938.606	0.0147179
938.684	0.0147411
938.762	0.0146712
938.840	0.0147399
938.918	0.0147683
938.996	0.0148405
939.075	0.0147523
939.153	0.0148851
939.231	0.0147222
939.309	0.0146851
939.387	0.0147536
939.465	0.0147029
939.543	0.0147000
939.621	0.0146976
939.700	0.0146268
939.778	0.0148691
939.856	0.0148283
939.934	0.0147147
940.012	0.0147204
940.090	0.0146877
940.168	0.0146568
940.246	0.0147449
940.325	0.0147642
940.403	0.0145534
940.481	0.0147232
940.559	0.0146138
940.637	0.0147042
940.715	0.0146384
940.793	0.0146829
940.871	0.0147247
940.950	0.0146680
941.028	0.0147092
941.106	0.0147103
941.184	0.0146973
941.262	0.0149124
941.340	0.0148127
941.418	0.0146643
941.496	0.0146999
941.575	0.0147234
941.653	0.0147791
941.731	0.0147794
941.809	0.0148050
941.887	0.0147725
941.965	0.0146923
942.043	0.0148020
942.121	0.0148565
942.200	0.0147605
942.278	0.0148213
942.356	0.0147952
942.434	0.0146329
942.512	0.0145878
942.590	0.0146607
942.668	0.0145308
942.746	0.0145937
942.825	0.0146783
942.903	0.0145506
942.981	0.0146590
943.059	0.0148081
943.137	0.0145670
943.215	0.0146307
943.293	0.0147500
943.371	0.0146770
943.450	0.0146239
943.528	0.0146723
943.606	0.0146189
943.684	0.0147009
943.762	0.0146179
943.840	0.0146688
943.918	0.0147158
943.996	0.0147840
944.075	0.0147106
944.153	0.0145223
944.231	0.0146185
944.309	0.0148405
944.387	0.0146807
944.465	0.0146243
944.543	0.0146903
944.621	0.0147073
944.700	0.0146683
944.778	0.0145657
944.856	0.0146856
944.934	0.0146790
945.012	0.0146593
945.090	0.0146455
945.168	0.0146188
945.246	0.0147359
945.325	0.0147595
945.403	0.0146434
945.481	0.0146548
945.559	0.0146549
945.637	0.0146764
945.715	0.0145737
945.793	0.0148295
945.871	0.0148293
945.950	0.0147299
946.028	0.0146664
946.106	0.0147411
946.184	0.0146649
946.262	0.0146684
946.340	0.0146493
946.418	0.0147876
946.496	0.0146144
946.575	0.0146828
946.653	0.0147170
946.731	0.0146507
946.809	0.0146731
946.887	0.0147164
946.965	0.0146291
947.043	0.0147935
947.121	0.0146921
947.200	0.0146936
947.278	0.0146686
947.356	0.0147067
947.434	0.0146642
947.512	0.0146152
947.590	0.0148193
947.668	0.0146686
947.746	0.0147301
947.825	0.0146880
947.903	0.0146526
947.981	0.0147015
948.059	0.0146370
948.137	0.0147879
948.215	0.0147242
948.293	0.0147613
948.371	0.0147967
948.450	0.0147285
948.528	0.0146005
948.606	0.0147165
948.684	0.0147386
948.762	0.0146806
948.840	0.0146976
948.918	0.0147198
948.996	0.0146852
949.075	0.0146096
949.153	0.0146607
949.231	0.0146651
949.309	0.0146717
949.387	0.0146182
949.465	0.0147408
949.543	0.0146921
949.621	0.0146844
949.700	0.0146597
949.778	0.0146613
949.856	0.0146821
949.934	0.0146529
950.012	0.0145850
950.090	0.0147421
950.168	0.0146650
950.246	0.0144987
950.325	0.0146962
950.403	0.0146405
950.481	0.0147589
950.559	0.0146841
950.637	0.0147495
950.715	0.0147266
950.793	0.0147933
950.871	0.0148005
950.950	0.0147327
951.028	0.0147853
951.106	0.0148601
951.184	0.0147124
951.262	0.0147762
951.340	0.0148546
951.418	0.0146709
951.496	0.0146372
951.575	0.0147577
951.653	0.0146545
951.731	0.0147402
951.809	0.0146750
951.887	0.0146545
951.965	0.0147243
952.043	0.0145852
952.121	0.0147308
952.200	0.0146962
952.278	0.0146342
952.356	0.0148341
952.434	0.0147315
952.512	0.0147809
952.590	0.0147798
952.668	0.0147036
952.746	0.0145654
952.825	0.0147449
952.903	0.0145307
952.981	0.0146604
953.059	0.0146070
953.137	0.0145808
953.215	0.0147235
953.293	0.0145997
953.371	0.0145852
953.450	0.0147001
953.528	0.0146056
953.606	0.0146413
953.684	0.0146121
953.762	0.0146766
953.840	0.0146157
953.918	0.0146886
953.996	0.0146185
954.075	0.0147394
954.153	0.0147602
954.231	0.0145593
954.309	0.0146736
954.387	0.0146195
954.465	0.0146052
954.543	0.0146826
954.621	0.0147141
954.700	0.0146155
954.778	0.0146191
954.856	0.0147401
954.934	0.0146767
955.012	0.0145312
955.090	0.0147698
955.168	0.0146566
955.246	0.0147195
955.325	0.0146934
955.403	0.0147205
955.481	0.0147324
955.559	0.0147745
955.637	0.0146341
955.715	0.0145136
955.793	0.0145143
955.871	0.0146882
955.950	0.0146165
956.028	0.0146093
956.106	0.0145872
956.184	0.0147218
956.262	0.0144654
956.340	0.0146777
956.418	0.0145730
956.496	0.0147142
956.575	0.0146071
956.653	0.0147587
956.731	0.0147015
956.809	0.0147197
956.887	0.0147311
956.965	0.0147968
957.043	0.0147958
957.121	0.0147024
957.200	0.0147067
957.278	0.0148228
957.356	0.0146722
957.434	0.0148653
957.512	0.0148243
957.590	0.0147427
957.668	0.0148283
957.746	0.0146553
957.825	0.0147204
957.903	0.0146880
957.981	0.0147979
958.059	0.0147208
958.137	0.0146196
958.215	0.0147081
958.293	0.0147076
958.371	0.0147327
958.450	0.0145914
958.528	0.0145880
958.606	0.0145341
958.684	0.0145619
958.762	0.0145105
958.840	0.0145591
958.918	0.0144845
958.996	0.0146339
959.075	0.0146653
959.153	0.0146498
959.231	0.0147562
959.309	0.0146918
959.387	0.0146337
959.465	0.0147259
959.543	0.0146757
959.621	0.0147408
959.700	0.0148071
959.778	0.0147559
959.856	0.0147319
959.934	0.0147043
960.012	0.0147710
960.090	0.0148193
960.168	0.0148654
960.246	0.0148235
960.325	0.0147262
960.403	0.0147296
960.481	0.0148780
960.559	0.0146735
960.637	0.0147359
960.715	0.0149171
960.793	0.0147994
960.871	0.0146713
960.950	0.0148493
961.028	0.0146397
961.106	0.0145979
961.184	0.0146973
961.262	0.0149133
961.340	0.0148170
961.418	0.0146550
961.496	0.0146302
961.575	0.0147425
961.653	0.0148120
961.731	0.0147612
961.809	0.0146842
961.887	0.0147511
961.965	0.0147610
962.043	0.0147120
962.121	0.0147571
962.200	0.0147514
962.278	0.0148279
962.356	0.0146367
962.434	0.0146672
962.512	0.0148051
962.590	0.0148023
962.668	0.0148243
962.746	0.0147977
962.825	0.0147868
962.903	0.0147543
962.981	0.0148751
963.059	0.0148348
963.137	0.0145860
963.215	0.0148117
963.293	0.0147174
963.371	0.0147728
963.450	0.0147710
963.528	0.0147682
963.606	0.0147802
963.684	0.0147563
963.762	0.0147957
963.840	0.0147203
963.918	0.0148112
963.996	0.0145924
964.075	0.0146315
964.153	0.0147273
964.231	0.0147517
964.309	0.0147333
964.387	0.0147437
964.465	0.0145390
964.543	0.0147241
964.621	0.0146794
964.700	0.0148199
964.778	0.0148539
964.856	0.0147985
964.934	0.0146541
965.012	0.0145880
965.090	0.0147176
965.168	0.0148325
965.246	0.0148295
965.325	0.0149657
965.403	0.0148386
965.481	0.0148146
965.559	0.0148273
965.637	0.0148376
965.715	0.0146630
965.793	0.0146517
965.871	0.0146648
965.950	0.0146934
966.028	0.0147173
966.106	0.0146471
966.184	0.0146838
966.262	0.0146200
966.340	0.0145845
966.418	0.0146569
966.496	0.0145799
966.575	0.0145580
966.653	0.0147425
966.731	0.0147150
966.809	0.0148482
966.887	0.0147363
966.965	0.0146812
967.043	0.0147431
967.121	0.0147356
967.200	0.0147906
967.278	0.0146203
967.356	0.0146193
967.434	0.0148181
967.512	0.0147533
967.590	0.0146243
967.668	0.0146575
967.746	0.0147795
967.825	0.0146523
967.903	0.0146656
967.981	0.0146589
968.059	0.0147195
968.137	0.0146605
968.215	0.0146971
968.293	0.0147932
968.371	0.0147321
968.450	0.0148152
968.528	0.0148304
968.606	0.0147247
968.684	0.0146397
968.762	0.0146501
968.840	0.0147497
968.918	0.0146796
968.996	0.0146177
969.075	0.0146120
969.153	0.0147459
969.231	0.0145457
969.309	0.0147192
969.387	0.0146283
969.465	0.0147188
969.543	0.0148856
969.621	0.0146819
969.700	0.0147826
969.778	0.0148856
969.856	0.0147888
969.934	0.0147137
970.012	0.0146282
970.090	0.0145779
970.168	0.0147075
970.246	0.0147272
970.325	0.0145515
970.403	0.0145893
970.481	0.0147115
970.559	0.0145779
970.637	0.0146777
970.715	0.0145671
970.793	0.0146323
970.871	0.0146155
970.950	0.0146031
971.028	0.0145859
971.106	0.0146419
971.184	0.0148178
971.262	0.0147482
971.340	0.0147195
971.418	0.0146906
971.496	0.0146879
971.575	0.0148506
971.653	0.0147173
971.731	0.0146709
971.809	0.0147527
971.887	0.0145596
971.965	0.0148173
972.043	0.0148232
972.121	0.0148357
972.200	0.0147236
972.278	0.0146731
972.356	0.0147702
972.434	0.0148120
972.512	0.0147174
972.590	0.0147285
972.668	0.0146613
972.746	0.0148373
972.825	0.0147808
972.903	0.0146694
972.981	0.0146817
973.059	0.0147489
973.137	0.0145924
973.215	0.0146313
973.293	0.0146630
973.371	0.0146144
973.450	0.0147286
973.528	0.0147919
973.606	0.0147642
973.684	0.0146319
973.762	0.0145160
973.840	0.0147235
973.918	0.0147520
973.996	0.0147732
974.075	0.0147832
974.153	0.0147901
974.231	0.0149137
974.309	0.0148107
974.387	0.0147718
974.465	0.0147697
974.543	0.0147752
974.621	0.0147949
974.700	0.0147807
974.778	0.0148154
974.856	0.0148424
974.934	0.0147622
975.012	0.0147362
975.090	0.0148090
975.168	0.0146964
975.246	0.0146164
975.325	0.0146859
975.403	0.0147858
975.481	0.0147596
975.559	0.0148243
975.637	0.0147771
975.715	0.0147186
975.793	0.0147491
975.871	0.0146835
975.950	0.0146821
976.028	0.0147227
976.106	0.0148250
976.184	0.0146549
976.262	0.0147981
976.340	0.0147559
976.418	0.0149448
976.496	0.0147225
976.575	0.0147749
976.653	0.0147790
976.731	0.0147860
976.809	0.0148344
976.887	0.0146827
976.965	0.0147352
977.043	0.0146787
977.121	0.0147208
977.200	0.0147909
977.278	0.0146981
977.356	0.0146319
977.434	0.0146108
977.512	0.0146503
977.590	0.0147206
977.668	0.0146709
977.746	0.0147215
977.825	0.0146262
977.903	0.0145884
977.981	0.0146597
978.059	0.0146464
978.137	0.0146097
978.215	0.0147357
978.293	0.0148155
978.371	0.0147247
978.450	0.0146935
978.528	0.0146909
978.606	0.0146699
978.684	0.0146857
978.762	0.0147503
978.840	0.0148436
978.918	0.0147632
978.996	0.0146896
979.075	0.0147654
979.153	0.0148077
979.231	0.0148680
979.309	0.0148214
979.387	0.0147802
979.465	0.0149408
979.543	0.0147626
979.621	0.0147178
979.700	0.0146840
979.778	0.0149005
979.856	0.0148472
979.934	0.0146725
980.012	0.0146933
980.090	0.0147744
980.168	0.0148891
980.246	0.0147777
980.325	0.0145911
980.403	0.0145946
980.481	0.0147396
980.559	0.0146117
980.637	0.0145846
980.715	0.0146723
980.793	0.0147622
980.871	0.0147095
980.950	0.0147844
981.028	0.0147423
981.106	0.0147961
981.184	0.0147697
981.262	0.0147098
981.340	0.0146913
981.418	0.0148051
981.496	0.0148446
981.575	0.0147343
981.653	0.0148654
981.731	0.0148255
981.809	0.0147039
981.887	0.0147184
981.965	0.0148911
982.043	0.0147415
982.121	0.0146650
982.200	0.0148460
982.278	0.0148210
982.356	0.0148654
982.434	0.0147733
982.512	0.0147411
982.590	0.0147665
982.668	0.0147765
982.746	0.0147386
982.825	0.0148844
982.903	0.0146935
982.981	0.0147514
983.059	0.0146835
983.137	0.0146657
983.215	0.0146103
983.293	0.0147214
983.371	0.0146685
983.450	0.0146877
983.528	0.0146821
983.606	0.0146325
983.684	0.0146693
983.762	0.0146105
983.840	0.0147903
983.918	0.0147284
983.996	0.0146773
984.075	0.0147907
984.153	0.0147158
984.231	0.0147682
984.309	0.0148942
984.387	0.0148403
984.465	0.0146822
984.543	0.0148404
984.621	0.0147418
984.700	0.0147569
984.778	0.0149491
984.856	0.0147494
984.934	0.0147441
985.012	0.0146842
985.090	0.0148164
985.168	0.0147906
985.246	0.0147247
985.325	0.0147673
985.403	0.0147921
985.481	0.0147210
985.559	0.0146773
985.637	0.0146040
985.715	0.0148494
985.793	0.0148985
985.871	0.0147026
985.950	0.0146519
986.028	0.0147664
986.106	0.0146888
986.184	0.0148403
986.262	0.0147575
986.340	0.0148507
986.418	0.0147464
986.496	0.0147469
986.575	0.0147554
986.653	0.0146725
986.731	0.0147556
986.809	0.0147830
986.887	0.0147260
986.965	0.0146793
987.043	0.0147056
987.121	0.0145862
987.200	0.0146431
987.278	0.0148158
987.356	0.0147295
987.434	0.0146468
987.512	0.0145853
987.590	0.0146494
987.668	0.0145370
987.746	0.0145441
987.825	0.0146003
987.903	0.0146365
987.981	0.0147551
988.059	0.0147321
988.137	0.0147272
988.215	0.0146815
988.293	0.0146337
988.371	0.0147793
988.450	0.0146381
988.528	0.0146678
988.606	0.0147330
988.684	0.0148306
988.762	0.0147664
988.840	0.0145243
988.918	0.0147861
988.996	0.0147531
989.075	0.0147052
989.153	0.0146527
989.231	0.0146721
989.309	0.0146306
989.387	0.0147282
989.465	0.0147422
989.543	0.0147270
989.621	0.0148055
989.700	0.0146223
989.778	0.0146155
989.856	0.0146886
989.934	0.0146695
990.012	0.0147199
990.090	0.0145741
990.168	0.0147499
990.246	0.0147095
990.325	0.0146165
990.403	0.0146889
990.481	0.0147247
990.559	0.0147554
990.637	0.0146227
990.715	0.0146638
990.793	0.0148217
990.871	0.0147417
990.950	0.0146545
991.028	0.0146670
991.106	0.0146228
991.184	0.0146638
991.262	0.0145605
991.340	0.0146420
991.418	0.0147409
991.496	0.0146771
991.575	0.0145502
991.653	0.0147491
991.731	0.0147663
991.809	0.0146533
991.887	0.0145805
991.965	0.0145998
992.043	0.0147122
992.121	0.0146053
992.200	0.0146092
992.278	0.0147187
992.356	0.0146893
992.434	0.0146979
992.512	0.0147244
992.590	0.0146446
992.668	0.0146036
992.746	0.0146786
992.825	0.0147079
992.903	0.0146768
992.981	0.0146906
993.059	0.0147110
993.137	0.0147054
993.215	0.0146793
993.293	0.0146859
993.371	0.0147803
993.450	0.0148628
993.528	0.0148734
993.606	0.0149283
993.684	0.0148168
993.762	0.0147528
993.840	0.0146728
993.918	0.0147388
993.996	0.0148188
994.075	0.0147125
994.153	0.0148015
994.231	0.0147123
994.309	0.0146169
994.387	0.0147243
994.465	0.0147668
994.543	0.0146980
994.621	0.0146571
994.700	0.0147781
994.778	0.0146100
994.856	0.0146004
994.934	0.0146889
995.012	0.0147050
995.090	0.0146236
995.168	0.0147215
995.246	0.0146952
995.325	0.0147622
995.403	0.0145892
995.481	0.0147608
995.559	0.0146165
995.637	0.0147569
995.715	0.0146861
995.793	0.0147151
995.871	0.0147241
995.950	0.0148479
996.028	0.0147867
996.106	0.0147659
996.184	0.0148399
996.262	0.0149522
996.340	0.0148626
996.418	0.0148710
996.496	0.0147873
996.575	0.0148643
996.653	0.0148628
996.731	0.0147879
996.809	0.0149418
996.887	0.0147650
996.965	0.0147245
997.043	0.0147693
997.121	0.0148080
997.200	0.0145869
997.278	0.0145940
997.356	0.0146341
997.434	0.0147038
997.512	0.0146642
997.590	0.0145825
997.668	0.0146866
997.746	0.0147360
997.825	0.0147102
997.903	0.0146351
997.981	0.0146909
998.059	0.0147178
998.137	0.0147568
998.215	0.0148031
998.293	0.0148657
998.371	0.0147509
998.450	0.0147888
998.528	0.0147629
998.606	0.0147524
998.684	0.0147453
998.762	0.0148526
998.840	0.0147169
998.918	0.0146648
