05/04/2022	21:10:22	Ver.	4.1	UNKNOWN
Optical Delay	678.996401	Delta X		0.078125	Sweeps	1	Scan Rate	0/0
Coordinates	Axis 1	NaN	Axis 2	NaN	Axis 3	NaN	Axis 4	NaN	Axis 5	NaN	Axis 6	0.000000
TX Power	0.000000	RX Power	0.000000

678.996	0.0146404
679.075	0.0146359
679.153	0.0146567
679.231	0.0145515
679.309	0.0146258
679.387	0.0147005
679.465	0.0145673
679.543	0.0145542
679.621	0.0146344
679.700	0.0147280
679.778	0.0146963
679.856	0.0145633
679.934	0.0145403
680.012	0.0146623
680.090	0.0146622
680.168	0.0146912
680.246	0.0146732
680.325	0.0145423
680.403	0.0146753
680.481	0.0146896
680.559	0.0146268
680.637	0.0145649
680.715	0.0147005
680.793	0.0146868
680.871	0.0146464
680.950	0.0147152
681.028	0.0146069
681.106	0.0146595
681.184	0.0145868
681.262	0.0146100
681.340	0.0147987
681.418	0.0145839
681.496	0.0144991
681.575	0.0146941
681.653	0.0145480
681.731	0.0146182
681.809	0.0147285
681.887	0.0146880
681.965	0.0146178
682.043	0.0146391
682.121	0.0147972
682.200	0.0146907
682.278	0.0146963
682.356	0.0147507
682.434	0.0145293
682.512	0.0146418
682.590	0.0146727
682.668	0.0146953
682.746	0.0147160
682.825	0.0147199
682.903	0.0147471
682.981	0.0147034
683.059	0.0146960
683.137	0.0145624
683.215	0.0146514
683.293	0.0145803
683.371	0.0147163
683.450	0.0145935
683.528	0.0146017
683.606	0.0146048
683.684	0.0146200
683.762	0.0144805
683.840	0.0145459
683.918	0.0146004
683.996	0.0145895
684.075	0.0145074
684.153	0.0146123
684.231	0.0145033
684.309	0.0145415
684.387	0.0145854
684.465	0.0145541
684.543	0.0146184
684.621	0.0144596
684.700	0.0145557
684.778	0.0146180
684.856	0.0145316
684.934	0.0146568
685.012	0.0146387
685.090	0.0146210
685.168	0.0146053
685.246	0.0147256
685.325	0.0146198
685.403	0.0146416
685.481	0.0145753
685.559	0.0146450
685.637	0.0147206
685.715	0.0147103
685.793	0.0147950
685.871	0.0146822
685.950	0.0146488
686.028	0.0147243
686.106	0.0147764
686.184	0.0146387
686.262	0.0146584
686.340	0.0148811
686.418	0.0147723
686.496	0.0147002
686.575	0.0146976
686.653	0.0147237
686.731	0.0147643
686.809	0.0147931
686.887	0.0147585
686.965	0.0146994
687.043	0.0146200
687.121	0.0145592
687.200	0.0147578
687.278	0.0148125
687.356	0.0145943
687.434	0.0147172
687.512	0.0145631
687.590	0.0146225
687.668	0.0145393
687.746	0.0145782
687.825	0.0145703
687.903	0.0146040
687.981	0.0146664
688.059	0.0144572
688.137	0.0145377
688.215	0.0147385
688.293	0.0145689
688.371	0.0145426
688.450	0.0146133
688.528	0.0147045
688.606	0.0146303
688.684	0.0147122
688.762	0.0146564
688.840	0.0147697
688.918	0.0148628
688.996	0.0149017
689.075	0.0147340
689.153	0.0147541
689.231	0.0147436
689.309	0.0147572
689.387	0.0145444
689.465	0.0147215
689.543	0.0147919
689.621	0.0146473
689.700	0.0147800
689.778	0.0145464
689.856	0.0145366
689.934	0.0144453
690.012	0.0144299
690.090	0.0143520
690.168	0.0144747
690.246	0.0144740
690.325	0.0145226
690.403	0.0145367
690.481	0.0142625
690.559	0.0145866
690.637	0.0145155
690.715	0.0144913
690.793	0.0144982
690.871	0.0146256
690.950	0.0146493
691.028	0.0148409
691.106	0.0147661
691.184	0.0147856
691.262	0.0147993
691.340	0.0148471
691.418	0.0146891
691.496	0.0148302
691.575	0.0147633
691.653	0.0147100
691.731	0.0148141
691.809	0.0146775
691.887	0.0146916
691.965	0.0146716
692.043	0.0147391
692.121	0.0146396
692.200	0.0145245
692.278	0.0146657
692.356	0.0146200
692.434	0.0145869
692.512	0.0145424
692.590	0.0145181
692.668	0.0146236
692.746	0.0145547
692.825	0.0145477
692.903	0.0145344
692.981	0.0145543
693.059	0.0147594
693.137	0.0146529
693.215	0.0145152
693.293	0.0147065
693.371	0.0146564
693.450	0.0145135
693.528	0.0144924
693.606	0.0146593
693.684	0.0146712
693.762	0.0145716
693.840	0.0145995
693.918	0.0145302
693.996	0.0146680
694.075	0.0147964
694.153	0.0145593
694.231	0.0145127
694.309	0.0146169
694.387	0.0145989
694.465	0.0146275
694.543	0.0147450
694.621	0.0146548
694.700	0.0146519
694.778	0.0147721
694.856	0.0146876
694.934	0.0146854
695.012	0.0147754
695.090	0.0146569
695.168	0.0146260
695.246	0.0146197
695.325	0.0145778
695.403	0.0144427
695.481	0.0145995
695.559	0.0145425
695.637	0.0144707
695.715	0.0144095
695.793	0.0143694
695.871	0.0144953
695.950	0.0143981
696.028	0.0144958
696.106	0.0144884
696.184	0.0144682
696.262	0.0144994
696.340	0.0145090
696.418	0.0145882
696.496	0.0146785
696.575	0.0146358
696.653	0.0145896
696.731	0.0147402
696.809	0.0146416
696.887	0.0146611
696.965	0.0147052
697.043	0.0146881
697.121	0.0146587
697.200	0.0147720
697.278	0.0146494
697.356	0.0148743
697.434	0.0146153
697.512	0.0146227
697.590	0.0146075
697.668	0.0146019
697.746	0.0145047
697.825	0.0146325
697.903	0.0144707
697.981	0.0145843
698.059	0.0144386
698.137	0.0144361
698.215	0.0146260
698.293	0.0146604
698.371	0.0145072
698.450	0.0147089
698.528	0.0147424
698.606	0.0145353
698.684	0.0147189
698.762	0.0148429
698.840	0.0145413
698.918	0.0146848
698.996	0.0146198
699.075	0.0146637
699.153	0.0147079
699.231	0.0146589
699.309	0.0146111
699.387	0.0146000
699.465	0.0145245
699.543	0.0146825
699.621	0.0145976
699.700	0.0145428
699.778	0.0145456
699.856	0.0145464
699.934	0.0145632
700.012	0.0145697
700.090	0.0146806
700.168	0.0146489
700.246	0.0146846
700.325	0.0147160
700.403	0.0146693
700.481	0.0146716
700.559	0.0147266
700.637	0.0147968
700.715	0.0147359
700.793	0.0148723
700.871	0.0147983
700.950	0.0148736
701.028	0.0148032
701.106	0.0147912
701.184	0.0147978
701.262	0.0146207
701.340	0.0146358
701.418	0.0145510
701.496	0.0146223
701.575	0.0145238
701.653	0.0144391
701.731	0.0146422
701.809	0.0146410
701.887	0.0145634
701.965	0.0147384
702.043	0.0145499
702.121	0.0145325
702.200	0.0145257
702.278	0.0145944
702.356	0.0146165
702.434	0.0143280
702.512	0.0144277
702.590	0.0144109
702.668	0.0144965
702.746	0.0146388
702.825	0.0146434
702.903	0.0145983
702.981	0.0147710
703.059	0.0148296
703.137	0.0148771
703.215	0.0148849
703.293	0.0148010
703.371	0.0147182
703.450	0.0146980
703.528	0.0145512
703.606	0.0144855
703.684	0.0143626
703.762	0.0142206
703.840	0.0144824
703.918	0.0145152
703.996	0.0145741
704.075	0.0146562
704.153	0.0147005
704.231	0.0147276
704.309	0.0146226
704.387	0.0145432
704.465	0.0146606
704.543	0.0145138
704.621	0.0146124
704.700	0.0147131
704.778	0.0146223
704.856	0.0148489
704.934	0.0146703
705.012	0.0146947
705.090	0.0148968
705.168	0.0148274
705.246	0.0148119
705.325	0.0147303
705.403	0.0146073
705.481	0.0146210
705.559	0.0147025
705.637	0.0145920
705.715	0.0145734
705.793	0.0147060
705.871	0.0146638
705.950	0.0148671
706.028	0.0148584
706.106	0.0148084
706.184	0.0147250
706.262	0.0146089
706.340	0.0143758
706.418	0.0142176
706.496	0.0140764
706.575	0.0139572
706.653	0.0137038
706.731	0.0138302
706.809	0.0140317
706.887	0.0140489
706.965	0.0143909
707.043	0.0147127
707.121	0.0148878
707.200	0.0151723
707.278	0.0154829
707.356	0.0154457
707.434	0.0154730
707.512	0.0154834
707.590	0.0153044
707.668	0.0151952
707.746	0.0148054
707.825	0.0146443
707.903	0.0146934
707.981	0.0144047
708.059	0.0142891
708.137	0.0144054
708.215	0.0143771
708.293	0.0145483
708.371	0.0146398
708.450	0.0146738
708.528	0.0146672
708.606	0.0147762
708.684	0.0148729
708.762	0.0149678
708.840	0.0149828
708.918	0.0149462
708.996	0.0149893
709.075	0.0146907
709.153	0.0146434
709.231	0.0143945
709.309	0.0140535
709.387	0.0139071
709.465	0.0136830
709.543	0.0135627
709.621	0.0134338
709.700	0.0134410
709.778	0.0136706
709.856	0.0138436
709.934	0.0139562
710.012	0.0143524
710.090	0.0148504
710.168	0.0150883
710.246	0.0155141
710.325	0.0159713
710.403	0.0160806
710.481	0.0162108
710.559	0.0161530
710.637	0.0158841
710.715	0.0156682
710.793	0.0152809
710.871	0.0149644
710.950	0.0144985
711.028	0.0140521
711.106	0.0138066
711.184	0.0137823
711.262	0.0138118
711.340	0.0140810
711.418	0.0141466
711.496	0.0145123
711.575	0.0148064
711.653	0.0150694
711.731	0.0152906
711.809	0.0154636
711.887	0.0154227
711.965	0.0153693
712.043	0.0152151
712.121	0.0149646
712.200	0.0147011
712.278	0.0142996
712.356	0.0138966
712.434	0.0137335
712.512	0.0132293
712.590	0.0130904
712.668	0.0131686
712.746	0.0133748
712.825	0.0135043
712.903	0.0136734
712.981	0.0138367
713.059	0.0141831
713.137	0.0144792
713.215	0.0150372
713.293	0.0153538
713.371	0.0156857
713.450	0.0158275
713.528	0.0161196
713.606	0.0159425
713.684	0.0157246
713.762	0.0155704
713.840	0.0150731
713.918	0.0146893
713.996	0.0144517
714.075	0.0142001
714.153	0.0139990
714.231	0.0138692
714.309	0.0138808
714.387	0.0139463
714.465	0.0139206
714.543	0.0142164
714.621	0.0144241
714.700	0.0147954
714.778	0.0149442
714.856	0.0153371
714.934	0.0153517
715.012	0.0155312
715.090	0.0155137
715.168	0.0154292
715.246	0.0151612
715.325	0.0148149
715.403	0.0146091
715.481	0.0143479
715.559	0.0139012
715.637	0.0135450
715.715	0.0134779
715.793	0.0133707
715.871	0.0133058
715.950	0.0131886
716.028	0.0134611
716.106	0.0136807
716.184	0.0138604
716.262	0.0142014
716.340	0.0145084
716.418	0.0147936
716.496	0.0150992
716.575	0.0153562
716.653	0.0154745
716.731	0.0155988
716.809	0.0153932
716.887	0.0153747
716.965	0.0152567
717.043	0.0150842
717.121	0.0148639
717.200	0.0145985
717.278	0.0145535
717.356	0.0143487
717.434	0.0142816
717.512	0.0143381
717.590	0.0144768
717.668	0.0144194
717.746	0.0146028
717.825	0.0146548
717.903	0.0150140
717.981	0.0150246
718.059	0.0150620
718.137	0.0150540
718.215	0.0150610
718.293	0.0149912
718.371	0.0150151
718.450	0.0148306
718.528	0.0147422
718.606	0.0145645
718.684	0.0146772
718.762	0.0143292
718.840	0.0141619
718.918	0.0141110
718.996	0.0140343
719.075	0.0137535
719.153	0.0137807
719.231	0.0137207
719.309	0.0138166
719.387	0.0139394
719.465	0.0141180
719.543	0.0142803
719.621	0.0144064
719.700	0.0146834
719.778	0.0147818
719.856	0.0147906
719.934	0.0148687
720.012	0.0148231
720.090	0.0148586
720.168	0.0148945
720.246	0.0147697
720.325	0.0147861
720.403	0.0147308
720.481	0.0145054
720.559	0.0145084
720.637	0.0145190
720.715	0.0145134
720.793	0.0146268
720.871	0.0146858
720.950	0.0145987
721.028	0.0145229
721.106	0.0147698
721.184	0.0148605
721.262	0.0148058
721.340	0.0148242
721.418	0.0150449
721.496	0.0149973
721.575	0.0149418
721.653	0.0149802
721.731	0.0149113
721.809	0.0149506
721.887	0.0147942
721.965	0.0149446
722.043	0.0149696
722.121	0.0149375
722.200	0.0147157
722.278	0.0145918
722.356	0.0146169
722.434	0.0145316
722.512	0.0144079
722.590	0.0142729
722.668	0.0142237
722.746	0.0141545
722.825	0.0141121
722.903	0.0141865
722.981	0.0142657
723.059	0.0142410
723.137	0.0142136
723.215	0.0143549
723.293	0.0144957
723.371	0.0145115
723.450	0.0144735
723.528	0.0144383
723.606	0.0144678
723.684	0.0144218
723.762	0.0144695
723.840	0.0144813
723.918	0.0143813
723.996	0.0144351
724.075	0.0143811
724.153	0.0144376
724.231	0.0145686
724.309	0.0147251
724.387	0.0148076
724.465	0.0149460
724.543	0.0150842
724.621	0.0149052
724.700	0.0150970
724.778	0.0150455
724.856	0.0150265
724.934	0.0151466
725.012	0.0150504
725.090	0.0151479
725.168	0.0151385
725.246	0.0149781
725.325	0.0149328
725.403	0.0148106
725.481	0.0146905
725.559	0.0146406
725.637	0.0147385
725.715	0.0146492
725.793	0.0146123
725.871	0.0144543
725.950	0.0143974
726.028	0.0143544
726.106	0.0143108
726.184	0.0143506
726.262	0.0143039
726.340	0.0144809
726.418	0.0144233
726.496	0.0143958
726.575	0.0143853
726.653	0.0142118
726.731	0.0142890
726.809	0.0143784
726.887	0.0143447
726.965	0.0142577
727.043	0.0143953
727.121	0.0143941
727.200	0.0142545
727.278	0.0142416
727.356	0.0142577
727.434	0.0144241
727.512	0.0143055
727.590	0.0144685
727.668	0.0146081
727.746	0.0146613
727.825	0.0146823
727.903	0.0147869
727.981	0.0148617
728.059	0.0148920
728.137	0.0149625
728.215	0.0147553
728.293	0.0149063
728.371	0.0150874
728.450	0.0150298
728.528	0.0148683
728.606	0.0148042
728.684	0.0148038
728.762	0.0146872
728.840	0.0146947
728.918	0.0147925
728.996	0.0147575
729.075	0.0147349
729.153	0.0147887
729.231	0.0148862
729.309	0.0148212
729.387	0.0148699
729.465	0.0148263
729.543	0.0147635
729.621	0.0147842
729.700	0.0146740
729.778	0.0144930
729.856	0.0145774
729.934	0.0145573
730.012	0.0145150
730.090	0.0145203
730.168	0.0145345
730.246	0.0143774
730.325	0.0143308
730.403	0.0144939
730.481	0.0143697
730.559	0.0142784
730.637	0.0143874
730.715	0.0144779
730.793	0.0146120
730.871	0.0145222
730.950	0.0146398
731.028	0.0145483
731.106	0.0145535
731.184	0.0147279
731.262	0.0145648
731.340	0.0146059
731.418	0.0147162
731.496	0.0146725
731.575	0.0147333
731.653	0.0148327
731.731	0.0146999
731.809	0.0146898
731.887	0.0148265
731.965	0.0148160
732.043	0.0148029
732.121	0.0148649
732.200	0.0148214
732.278	0.0147467
732.356	0.0147590
732.434	0.0148064
732.512	0.0147189
732.590	0.0146342
732.668	0.0145625
732.746	0.0144899
732.825	0.0144985
732.903	0.0143680
732.981	0.0143137
733.059	0.0143913
733.137	0.0144247
733.215	0.0143836
733.293	0.0145219
733.371	0.0145402
733.450	0.0147624
733.528	0.0147936
733.606	0.0147457
733.684	0.0148096
733.762	0.0148637
733.840	0.0149129
733.918	0.0150097
733.996	0.0147768
734.075	0.0148085
734.153	0.0147044
734.231	0.0147073
734.309	0.0146757
734.387	0.0146809
734.465	0.0145470
734.543	0.0146877
734.621	0.0146592
734.700	0.0145631
734.778	0.0145387
734.856	0.0147086
734.934	0.0146857
735.012	0.0148839
735.090	0.0147063
735.168	0.0146246
735.246	0.0148875
735.325	0.0147318
735.403	0.0145687
735.481	0.0145924
735.559	0.0146211
735.637	0.0143761
735.715	0.0143602
735.793	0.0143151
735.871	0.0142867
735.950	0.0142459
736.028	0.0142910
736.106	0.0143011
736.184	0.0142411
736.262	0.0144125
736.340	0.0144353
736.418	0.0144307
736.496	0.0146286
736.575	0.0145537
736.653	0.0146143
736.731	0.0145347
736.809	0.0147564
736.887	0.0146367
736.965	0.0145036
737.043	0.0148115
737.121	0.0148326
737.200	0.0148656
737.278	0.0148708
737.356	0.0148257
737.434	0.0147640
737.512	0.0148065
737.590	0.0147545
737.668	0.0147810
737.746	0.0148605
737.825	0.0148001
737.903	0.0147669
737.981	0.0147298
738.059	0.0148072
738.137	0.0147745
738.215	0.0147479
738.293	0.0148297
738.371	0.0146593
738.450	0.0147654
738.528	0.0145911
738.606	0.0146391
738.684	0.0143269
738.762	0.0145082
738.840	0.0144013
738.918	0.0145109
738.996	0.0144475
739.075	0.0144855
739.153	0.0144673
739.231	0.0144599
739.309	0.0144762
739.387	0.0143807
739.465	0.0143494
739.543	0.0144154
739.621	0.0144180
739.700	0.0143991
739.778	0.0143835
739.856	0.0143060
739.934	0.0142834
740.012	0.0143713
740.090	0.0144019
740.168	0.0143910
740.246	0.0143865
740.325	0.0144831
740.403	0.0145122
740.481	0.0146474
740.559	0.0145650
740.637	0.0145531
740.715	0.0146825
740.793	0.0146592
740.871	0.0149448
740.950	0.0151109
741.028	0.0151025
741.106	0.0151632
741.184	0.0150062
741.262	0.0151549
741.340	0.0150079
741.418	0.0150155
741.496	0.0151050
741.575	0.0149960
741.653	0.0148116
741.731	0.0148793
741.809	0.0147535
741.887	0.0146704
741.965	0.0145258
742.043	0.0145821
742.121	0.0145474
742.200	0.0145285
742.278	0.0144164
742.356	0.0144407
742.434	0.0144003
742.512	0.0144573
742.590	0.0145063
742.668	0.0146046
742.746	0.0146333
742.825	0.0145909
742.903	0.0145610
742.981	0.0144948
743.059	0.0145528
743.137	0.0144044
743.215	0.0144980
743.293	0.0143989
743.371	0.0145121
743.450	0.0143609
743.528	0.0142747
743.606	0.0142817
743.684	0.0143432
743.762	0.0143013
743.840	0.0144728
743.918	0.0146197
743.996	0.0146603
744.075	0.0146732
744.153	0.0147750
744.231	0.0148057
744.309	0.0148399
744.387	0.0148942
744.465	0.0149799
744.543	0.0149361
744.621	0.0147598
744.700	0.0148682
744.778	0.0149057
744.856	0.0149232
744.934	0.0149556
745.012	0.0148638
745.090	0.0147746
745.168	0.0148786
745.246	0.0148354
745.325	0.0148359
745.403	0.0146142
745.481	0.0146384
745.559	0.0145861
745.637	0.0146759
745.715	0.0146050
745.793	0.0147269
745.871	0.0147537
745.950	0.0146174
746.028	0.0146953
746.106	0.0146854
746.184	0.0144640
746.262	0.0144045
746.340	0.0144820
746.418	0.0143102
746.496	0.0143503
746.575	0.0143739
746.653	0.0144424
746.731	0.0143343
746.809	0.0142657
746.887	0.0146670
746.965	0.0146909
747.043	0.0146593
747.121	0.0148306
747.200	0.0147160
747.278	0.0147231
747.356	0.0147790
747.434	0.0147705
747.512	0.0147974
747.590	0.0147423
747.668	0.0145928
747.746	0.0147552
747.825	0.0146819
747.903	0.0146857
747.981	0.0146176
748.059	0.0145674
748.137	0.0145083
748.215	0.0145218
748.293	0.0147063
748.371	0.0147558
748.450	0.0146452
748.528	0.0148645
748.606	0.0148105
748.684	0.0146948
748.762	0.0147545
748.840	0.0147390
748.918	0.0147205
748.996	0.0147066
749.075	0.0146687
749.153	0.0147127
749.231	0.0146242
749.309	0.0147038
749.387	0.0144334
749.465	0.0143698
749.543	0.0143839
749.621	0.0144417
749.700	0.0143359
749.778	0.0144349
749.856	0.0143435
749.934	0.0143365
750.012	0.0143094
750.090	0.0143079
750.168	0.0144993
750.246	0.0145536
750.325	0.0146143
750.403	0.0146213
750.481	0.0146846
750.559	0.0147249
750.637	0.0146873
750.715	0.0147365
750.793	0.0147189
750.871	0.0149004
750.950	0.0145798
751.028	0.0147558
751.106	0.0148469
751.184	0.0145818
751.262	0.0147517
751.340	0.0148054
751.418	0.0147263
751.496	0.0146814
751.575	0.0147206
751.653	0.0146154
751.731	0.0148003
751.809	0.0148560
751.887	0.0148754
751.965	0.0146191
752.043	0.0147143
752.121	0.0147391
752.200	0.0145409
752.278	0.0146557
752.356	0.0145415
752.434	0.0144615
752.512	0.0144666
752.590	0.0144801
752.668	0.0144900
752.746	0.0143541
752.825	0.0144131
752.903	0.0143469
752.981	0.0145407
753.059	0.0144971
753.137	0.0143984
753.215	0.0144885
753.293	0.0144628
753.371	0.0146244
753.450	0.0144603
753.528	0.0145281
753.606	0.0144955
753.684	0.0146047
753.762	0.0144610
753.840	0.0146134
753.918	0.0146383
753.996	0.0145581
754.075	0.0144521
754.153	0.0145395
754.231	0.0146599
754.309	0.0146733
754.387	0.0145591
754.465	0.0146191
754.543	0.0147866
754.621	0.0147958
754.700	0.0148456
754.778	0.0148283
754.856	0.0148387
754.934	0.0151408
755.012	0.0149254
755.090	0.0148695
755.168	0.0148808
755.246	0.0148582
755.325	0.0149342
755.403	0.0147824
755.481	0.0148132
755.559	0.0147541
755.637	0.0148157
755.715	0.0146998
755.793	0.0146453
755.871	0.0144844
755.950	0.0145186
756.028	0.0145890
756.106	0.0145143
756.184	0.0145446
756.262	0.0144852
756.340	0.0144961
756.418	0.0143369
756.496	0.0143590
756.575	0.0143687
756.653	0.0143104
756.731	0.0144650
756.809	0.0144298
756.887	0.0142786
756.965	0.0143797
757.043	0.0143095
757.121	0.0144332
757.200	0.0144484
757.278	0.0144803
757.356	0.0143819
757.434	0.0144946
757.512	0.0146012
757.590	0.0145947
757.668	0.0147546
757.746	0.0146242
757.825	0.0145408
757.903	0.0146532
757.981	0.0146693
758.059	0.0146352
758.137	0.0147659
758.215	0.0147088
758.293	0.0148790
758.371	0.0148296
758.450	0.0148497
758.528	0.0149284
758.606	0.0148995
758.684	0.0149825
758.762	0.0150217
758.840	0.0148928
758.918	0.0147707
758.996	0.0148837
759.075	0.0148477
759.153	0.0147742
759.231	0.0149329
759.309	0.0147562
759.387	0.0147630
759.465	0.0148393
759.543	0.0147734
759.621	0.0146738
759.700	0.0145939
759.778	0.0146174
759.856	0.0146521
759.934	0.0147571
760.012	0.0145029
760.090	0.0145692
760.168	0.0145504
760.246	0.0143906
760.325	0.0144838
760.403	0.0144686
760.481	0.0143799
760.559	0.0143883
760.637	0.0144800
760.715	0.0144943
760.793	0.0145725
760.871	0.0144888
760.950	0.0145061
761.028	0.0145540
761.106	0.0145119
761.184	0.0147195
761.262	0.0146568
761.340	0.0145982
761.418	0.0148029
761.496	0.0146833
761.575	0.0145483
761.653	0.0145696
761.731	0.0146661
761.809	0.0147248
761.887	0.0146535
761.965	0.0146786
762.043	0.0146344
762.121	0.0146002
762.200	0.0146838
762.278	0.0146742
762.356	0.0145882
762.434	0.0148962
762.512	0.0147573
762.590	0.0147226
762.668	0.0149324
762.746	0.0148277
762.825	0.0148426
762.903	0.0148101
762.981	0.0148367
763.059	0.0146365
763.137	0.0146368
763.215	0.0144905
763.293	0.0146598
763.371	0.0145377
763.450	0.0143838
763.528	0.0146452
763.606	0.0145387
763.684	0.0144642
763.762	0.0146234
763.840	0.0146005
763.918	0.0145765
763.996	0.0145840
764.075	0.0144982
764.153	0.0145015
764.231	0.0145785
764.309	0.0145359
764.387	0.0144952
764.465	0.0144904
764.543	0.0144767
764.621	0.0145316
764.700	0.0145644
764.778	0.0145968
764.856	0.0146327
764.934	0.0145969
765.012	0.0145780
765.090	0.0145490
765.168	0.0146172
765.246	0.0144250
765.325	0.0146573
765.403	0.0146458
765.481	0.0146481
765.559	0.0147016
765.637	0.0147228
765.715	0.0148159
765.793	0.0148183
765.871	0.0147887
765.950	0.0147866
766.028	0.0149361
766.106	0.0148052
766.184	0.0146906
766.262	0.0148269
766.340	0.0148486
766.418	0.0147372
766.496	0.0146460
766.575	0.0146597
766.653	0.0146768
766.731	0.0147491
766.809	0.0147281
766.887	0.0147143
766.965	0.0147436
767.043	0.0143967
767.121	0.0145922
767.200	0.0146681
767.278	0.0147891
767.356	0.0147364
767.434	0.0147270
767.512	0.0147063
767.590	0.0145786
767.668	0.0146552
767.746	0.0146766
767.825	0.0145767
767.903	0.0145330
767.981	0.0145529
768.059	0.0145959
768.137	0.0145036
768.215	0.0144894
768.293	0.0144756
768.371	0.0145366
768.450	0.0144659
768.528	0.0145478
768.606	0.0146350
768.684	0.0146024
768.762	0.0144039
768.840	0.0146138
768.918	0.0147123
768.996	0.0147389
769.075	0.0147626
769.153	0.0145174
769.231	0.0148183
769.309	0.0147055
769.387	0.0146837
769.465	0.0147659
769.543	0.0147507
769.621	0.0146396
769.700	0.0146976
769.778	0.0147258
769.856	0.0146728
769.934	0.0145905
770.012	0.0146461
770.090	0.0147485
770.168	0.0147355
770.246	0.0146075
770.325	0.0147715
770.403	0.0146301
770.481	0.0146869
770.559	0.0147586
770.637	0.0147021
770.715	0.0147082
770.793	0.0148014
770.871	0.0147190
770.950	0.0145977
771.028	0.0147742
771.106	0.0147048
771.184	0.0145586
771.262	0.0146236
771.340	0.0145386
771.418	0.0144951
771.496	0.0146594
771.575	0.0146821
771.653	0.0146854
771.731	0.0145895
771.809	0.0145956
771.887	0.0144739
771.965	0.0146667
772.043	0.0145534
772.121	0.0145112
772.200	0.0146828
772.278	0.0146490
772.356	0.0146870
772.434	0.0145827
772.512	0.0147112
772.590	0.0146933
772.668	0.0146737
772.746	0.0145687
772.825	0.0146086
772.903	0.0146079
772.981	0.0145646
773.059	0.0145758
773.137	0.0146303
773.215	0.0145715
773.293	0.0145921
773.371	0.0147436
773.450	0.0145734
773.528	0.0145528
773.606	0.0145813
773.684	0.0145967
773.762	0.0147316
773.840	0.0146214
773.918	0.0147425
773.996	0.0147293
774.075	0.0144749
774.153	0.0145460
774.231	0.0146283
774.309	0.0146239
774.387	0.0146587
774.465	0.0146996
774.543	0.0147232
774.621	0.0147121
774.700	0.0146250
774.778	0.0145690
774.856	0.0146891
774.934	0.0146815
775.012	0.0147582
775.090	0.0146784
775.168	0.0146121
775.246	0.0146318
775.325	0.0145889
775.403	0.0146615
775.481	0.0147452
775.559	0.0146568
775.637	0.0146214
775.715	0.0144765
775.793	0.0146395
775.871	0.0145719
775.950	0.0146721
776.028	0.0146306
776.106	0.0146764
776.184	0.0146078
776.262	0.0146894
776.340	0.0146579
776.418	0.0146502
776.496	0.0145309
776.575	0.0147276
776.653	0.0147592
776.731	0.0146497
776.809	0.0148633
776.887	0.0146988
776.965	0.0146774
777.043	0.0145322
777.121	0.0146697
777.200	0.0146935
777.278	0.0146799
777.356	0.0144936
777.434	0.0144878
777.512	0.0145622
777.590	0.0145786
777.668	0.0145374
777.746	0.0145273
777.825	0.0145765
777.903	0.0145761
777.981	0.0145670
778.059	0.0145246
778.137	0.0144430
778.215	0.0144894
778.293	0.0145961
778.371	0.0146676
778.450	0.0146815
778.528	0.0146976
778.606	0.0146903
778.684	0.0144216
778.762	0.0145383
778.840	0.0147855
778.918	0.0146695
778.996	0.0146176
779.075	0.0147455
779.153	0.0147315
779.231	0.0145228
779.309	0.0145576
779.387	0.0145892
779.465	0.0147080
779.543	0.0147493
779.621	0.0147476
779.700	0.0146865
779.778	0.0145624
779.856	0.0146100
779.934	0.0145732
780.012	0.0145528
780.090	0.0146139
780.168	0.0147184
780.246	0.0146508
780.325	0.0146799
780.403	0.0146235
780.481	0.0145381
780.559	0.0145857
780.637	0.0147198
780.715	0.0145457
780.793	0.0145856
780.871	0.0146243
780.950	0.0147285
781.028	0.0147219
781.106	0.0145887
781.184	0.0145987
781.262	0.0146590
781.340	0.0147075
781.418	0.0146266
781.496	0.0145712
781.575	0.0146780
781.653	0.0146667
781.731	0.0144910
781.809	0.0144336
781.887	0.0146634
781.965	0.0145718
782.043	0.0145709
782.121	0.0145659
782.200	0.0146035
782.278	0.0147791
782.356	0.0145752
782.434	0.0146639
782.512	0.0147121
782.590	0.0146058
782.668	0.0145609
782.746	0.0146010
782.825	0.0148327
782.903	0.0147137
782.981	0.0146358
783.059	0.0146276
783.137	0.0146683
783.215	0.0147733
783.293	0.0147456
783.371	0.0145108
783.450	0.0146994
783.528	0.0148280
783.606	0.0147408
783.684	0.0147051
783.762	0.0147050
783.840	0.0146552
783.918	0.0147115
783.996	0.0146452
784.075	0.0146400
784.153	0.0145277
784.231	0.0146970
784.309	0.0146391
784.387	0.0146793
784.465	0.0145519
784.543	0.0145770
784.621	0.0146498
784.700	0.0145884
784.778	0.0146452
784.856	0.0144673
784.934	0.0146268
785.012	0.0145885
785.090	0.0145872
785.168	0.0145068
785.246	0.0145895
785.325	0.0146272
785.403	0.0146360
785.481	0.0146196
785.559	0.0146312
785.637	0.0145193
785.715	0.0144054
785.793	0.0145629
785.871	0.0146303
785.950	0.0144630
786.028	0.0144511
786.106	0.0144798
786.184	0.0145548
786.262	0.0145815
786.340	0.0143780
786.418	0.0145523
786.496	0.0144515
786.575	0.0144701
786.653	0.0145491
786.731	0.0145227
786.809	0.0146844
786.887	0.0145354
786.965	0.0145746
787.043	0.0146410
787.121	0.0146429
787.200	0.0146722
787.278	0.0146296
787.356	0.0147144
787.434	0.0146415
787.512	0.0147664
787.590	0.0147363
787.668	0.0146726
787.746	0.0145987
787.825	0.0147440
787.903	0.0146719
787.981	0.0146116
788.059	0.0145522
788.137	0.0146050
788.215	0.0146727
788.293	0.0145611
788.371	0.0144516
788.450	0.0146432
788.528	0.0146706
788.606	0.0145280
788.684	0.0144491
788.762	0.0143978
788.840	0.0145673
788.918	0.0146030
788.996	0.0144756
789.075	0.0145547
789.153	0.0145837
789.231	0.0146370
789.309	0.0146178
789.387	0.0147061
789.465	0.0146064
789.543	0.0144884
789.621	0.0145682
789.700	0.0146298
789.778	0.0145080
789.856	0.0145911
789.934	0.0146751
790.012	0.0145613
790.090	0.0146976
790.168	0.0145852
790.246	0.0145798
790.325	0.0145632
790.403	0.0146124
790.481	0.0146232
790.559	0.0145127
790.637	0.0146025
790.715	0.0144617
790.793	0.0146239
790.871	0.0145052
790.950	0.0145824
791.028	0.0148250
791.106	0.0145812
791.184	0.0146235
791.262	0.0146117
791.340	0.0147093
791.418	0.0146680
791.496	0.0145173
791.575	0.0146239
791.653	0.0146064
791.731	0.0145971
791.809	0.0147274
791.887	0.0146339
791.965	0.0146594
792.043	0.0145975
792.121	0.0144850
792.200	0.0146171
792.278	0.0146671
792.356	0.0146100
792.434	0.0145817
792.512	0.0147102
792.590	0.0146808
792.668	0.0145735
792.746	0.0146947
792.825	0.0147087
792.903	0.0147207
792.981	0.0146168
793.059	0.0146400
793.137	0.0144797
793.215	0.0145757
793.293	0.0147246
793.371	0.0146001
793.450	0.0146066
793.528	0.0147238
793.606	0.0145460
793.684	0.0145062
793.762	0.0144910
793.840	0.0146341
793.918	0.0144930
793.996	0.0145348
794.075	0.0145500
794.153	0.0146795
794.231	0.0145739
794.309	0.0146419
794.387	0.0146316
794.465	0.0145939
794.543	0.0145047
794.621	0.0146962
794.700	0.0145863
794.778	0.0145952
794.856	0.0145552
794.934	0.0145840
795.012	0.0145652
795.090	0.0145485
795.168	0.0145479
795.246	0.0147154
795.325	0.0146108
795.403	0.0145761
795.481	0.0145728
795.559	0.0144994
795.637	0.0145874
795.715	0.0146586
795.793	0.0146184
795.871	0.0146796
795.950	0.0146706
796.028	0.0146985
796.106	0.0146845
796.184	0.0147665
796.262	0.0146729
796.340	0.0145720
796.418	0.0147121
796.496	0.0147893
796.575	0.0146362
796.653	0.0147472
796.731	0.0146857
796.809	0.0145599
796.887	0.0147724
796.965	0.0145261
797.043	0.0146444
797.121	0.0146383
797.200	0.0144825
797.278	0.0145606
797.356	0.0147181
797.434	0.0145513
797.512	0.0145620
797.590	0.0146149
797.668	0.0144675
797.746	0.0146494
797.825	0.0146874
797.903	0.0145721
797.981	0.0146604
798.059	0.0145406
798.137	0.0144931
798.215	0.0146523
798.293	0.0144912
798.371	0.0145872
798.450	0.0146879
798.528	0.0146362
798.606	0.0146982
798.684	0.0145309
798.762	0.0146358
798.840	0.0146897
798.918	0.0146056
798.996	0.0146539
799.075	0.0145710
799.153	0.0145731
799.231	0.0146728
799.309	0.0146713
799.387	0.0146561
799.465	0.0147311
799.543	0.0145813
799.621	0.0145174
799.700	0.0145731
799.778	0.0146374
799.856	0.0146011
799.934	0.0146632
800.012	0.0145906
800.090	0.0146620
800.168	0.0147231
800.246	0.0146633
800.325	0.0147044
800.403	0.0145666
800.481	0.0146437
800.559	0.0146622
800.637	0.0146928
800.715	0.0145427
800.793	0.0145191
800.871	0.0145899
800.950	0.0145331
801.028	0.0146940
801.106	0.0144519
801.184	0.0146669
801.262	0.0146188
801.340	0.0145287
801.418	0.0146384
801.496	0.0145634
801.575	0.0146778
801.653	0.0145712
801.731	0.0145317
801.809	0.0146264
801.887	0.0145693
801.965	0.0146738
802.043	0.0146188
802.121	0.0145753
802.200	0.0146673
802.278	0.0148109
802.356	0.0146059
802.434	0.0145541
802.512	0.0146599
802.590	0.0146414
802.668	0.0145956
802.746	0.0146417
802.825	0.0146442
802.903	0.0147141
802.981	0.0146339
803.059	0.0145976
803.137	0.0146373
803.215	0.0146544
803.293	0.0147399
803.371	0.0146603
803.450	0.0146750
803.528	0.0147050
803.606	0.0146255
803.684	0.0147173
803.762	0.0147499
803.840	0.0147501
803.918	0.0147945
803.996	0.0147259
804.075	0.0146426
804.153	0.0146481
804.231	0.0146729
804.309	0.0146159
804.387	0.0145743
804.465	0.0146626
804.543	0.0147678
804.621	0.0147289
804.700	0.0147722
804.778	0.0147229
804.856	0.0146387
804.934	0.0146216
805.012	0.0145642
805.090	0.0146005
805.168	0.0146901
805.246	0.0145097
805.325	0.0145457
805.403	0.0144635
805.481	0.0144976
805.559	0.0144473
805.637	0.0144327
805.715	0.0145592
805.793	0.0145947
805.871	0.0145367
805.950	0.0144623
806.028	0.0145492
806.106	0.0146088
806.184	0.0147420
806.262	0.0147070
806.340	0.0147458
806.418	0.0147215
806.496	0.0148116
806.575	0.0147389
806.653	0.0146327
806.731	0.0147095
806.809	0.0148515
806.887	0.0145845
806.965	0.0146738
807.043	0.0147067
807.121	0.0145641
807.200	0.0147141
807.278	0.0146036
807.356	0.0146949
807.434	0.0146256
807.512	0.0146072
807.590	0.0146375
807.668	0.0146497
807.746	0.0146128
807.825	0.0145844
807.903	0.0145322
807.981	0.0145833
808.059	0.0145103
808.137	0.0146587
808.215	0.0144975
808.293	0.0145110
808.371	0.0145964
808.450	0.0144112
808.528	0.0144719
808.606	0.0145319
808.684	0.0143867
808.762	0.0145009
808.840	0.0145792
808.918	0.0145586
808.996	0.0145593
809.075	0.0145765
809.153	0.0145877
809.231	0.0145884
809.309	0.0145441
809.387	0.0146236
809.465	0.0145618
809.543	0.0145905
809.621	0.0145547
809.700	0.0145216
809.778	0.0146747
809.856	0.0144974
809.934	0.0145354
810.012	0.0147770
810.090	0.0145818
810.168	0.0145878
810.246	0.0144549
810.325	0.0145886
810.403	0.0146579
810.481	0.0146490
810.559	0.0145734
810.637	0.0145848
810.715	0.0145376
810.793	0.0146909
810.871	0.0146688
810.950	0.0146422
811.028	0.0144889
811.106	0.0146491
811.184	0.0146944
811.262	0.0146427
811.340	0.0144387
811.418	0.0145113
811.496	0.0144938
811.575	0.0143882
811.653	0.0144678
811.731	0.0145489
811.809	0.0145261
811.887	0.0144443
811.965	0.0144858
812.043	0.0144756
812.121	0.0145232
812.200	0.0145856
812.278	0.0146426
812.356	0.0144902
812.434	0.0145416
812.512	0.0145089
812.590	0.0145657
812.668	0.0145511
812.746	0.0144640
812.825	0.0145706
812.903	0.0146516
812.981	0.0146242
813.059	0.0145702
813.137	0.0146838
813.215	0.0147060
813.293	0.0145879
813.371	0.0144458
813.450	0.0145550
813.528	0.0147459
813.606	0.0146897
813.684	0.0147246
813.762	0.0146389
813.840	0.0147800
813.918	0.0146754
813.996	0.0145992
814.075	0.0146863
814.153	0.0147752
814.231	0.0147972
814.309	0.0146546
814.387	0.0146365
814.465	0.0146515
814.543	0.0145544
814.621	0.0145972
814.700	0.0146026
814.778	0.0146208
814.856	0.0145377
814.934	0.0145285
815.012	0.0144913
815.090	0.0146272
815.168	0.0145121
815.246	0.0146294
815.325	0.0145600
815.403	0.0145560
815.481	0.0145541
815.559	0.0146064
815.637	0.0147642
815.715	0.0145078
815.793	0.0145107
815.871	0.0147384
815.950	0.0146632
816.028	0.0145833
816.106	0.0146607
816.184	0.0145983
816.262	0.0145942
816.340	0.0145804
816.418	0.0146276
816.496	0.0146452
816.575	0.0146088
816.653	0.0146160
816.731	0.0146006
816.809	0.0145905
816.887	0.0145451
816.965	0.0146140
817.043	0.0146391
817.121	0.0144806
817.200	0.0146558
817.278	0.0148282
817.356	0.0145540
817.434	0.0145340
817.512	0.0145480
817.590	0.0146536
817.668	0.0146028
817.746	0.0146145
817.825	0.0146343
817.903	0.0146440
817.981	0.0147307
818.059	0.0146253
818.137	0.0146396
818.215	0.0146135
818.293	0.0145905
818.371	0.0146830
818.450	0.0146561
818.528	0.0146722
818.606	0.0146060
818.684	0.0146884
818.762	0.0145997
818.840	0.0146449
818.918	0.0146889
818.996	0.0146635
819.075	0.0146329
819.153	0.0146100
819.231	0.0145305
819.309	0.0146452
819.387	0.0146782
819.465	0.0145685
819.543	0.0146563
819.621	0.0147261
819.700	0.0146539
819.778	0.0145735
819.856	0.0146523
819.934	0.0145560
820.012	0.0145976
820.090	0.0145594
820.168	0.0146445
820.246	0.0145912
820.325	0.0146843
820.403	0.0146027
820.481	0.0146363
820.559	0.0146832
820.637	0.0146319
820.715	0.0146145
820.793	0.0144809
820.871	0.0146288
820.950	0.0146001
821.028	0.0145116
821.106	0.0145627
821.184	0.0146768
821.262	0.0146750
821.340	0.0146809
821.418	0.0146264
821.496	0.0147025
821.575	0.0146751
821.653	0.0147110
821.731	0.0146081
821.809	0.0146378
821.887	0.0146608
821.965	0.0147311
822.043	0.0146434
822.121	0.0146194
822.200	0.0146005
822.278	0.0146677
822.356	0.0145910
822.434	0.0146665
822.512	0.0147784
822.590	0.0145780
822.668	0.0145944
822.746	0.0147329
822.825	0.0146639
822.903	0.0146307
822.981	0.0146796
823.059	0.0146232
823.137	0.0146425
823.215	0.0145703
823.293	0.0147745
823.371	0.0147841
823.450	0.0147028
823.528	0.0145895
823.606	0.0145659
823.684	0.0148128
823.762	0.0147665
823.840	0.0145866
823.918	0.0145506
823.996	0.0146091
824.075	0.0145494
824.153	0.0145201
824.231	0.0146079
824.309	0.0145423
824.387	0.0146003
824.465	0.0146272
824.543	0.0145064
824.621	0.0145281
824.700	0.0145043
824.778	0.0147210
824.856	0.0147217
824.934	0.0146752
825.012	0.0145334
825.090	0.0147162
825.168	0.0147054
825.246	0.0148727
825.325	0.0146296
825.403	0.0145864
825.481	0.0145858
825.559	0.0146899
825.637	0.0148662
825.715	0.0146249
825.793	0.0146439
825.871	0.0148135
825.950	0.0146837
826.028	0.0146005
826.106	0.0144865
826.184	0.0146175
826.262	0.0146282
826.340	0.0145394
826.418	0.0145689
826.496	0.0146536
826.575	0.0146828
826.653	0.0146473
826.731	0.0145621
826.809	0.0146254
826.887	0.0146001
826.965	0.0144576
827.043	0.0146195
827.121	0.0145843
827.200	0.0146291
827.278	0.0146283
827.356	0.0144852
827.434	0.0145526
827.512	0.0147166
827.590	0.0145692
827.668	0.0145979
827.746	0.0145023
827.825	0.0144238
827.903	0.0145023
827.981	0.0146371
828.059	0.0146612
828.137	0.0145760
828.215	0.0145723
828.293	0.0144633
828.371	0.0146191
828.450	0.0145461
828.528	0.0145277
828.606	0.0145060
828.684	0.0144958
828.762	0.0144784
828.840	0.0145249
828.918	0.0145440
828.996	0.0145842
829.075	0.0145329
829.153	0.0145154
829.231	0.0146287
829.309	0.0146531
829.387	0.0146630
829.465	0.0145990
829.543	0.0146277
829.621	0.0147263
829.700	0.0146665
829.778	0.0146687
829.856	0.0146835
829.934	0.0146410
830.012	0.0146386
830.090	0.0145586
830.168	0.0147617
830.246	0.0147852
830.325	0.0147153
830.403	0.0146194
830.481	0.0145933
830.559	0.0146154
830.637	0.0146008
830.715	0.0146330
830.793	0.0143742
830.871	0.0145006
830.950	0.0144569
831.028	0.0145640
831.106	0.0145921
831.184	0.0146220
831.262	0.0145889
831.340	0.0144567
831.418	0.0145927
831.496	0.0144860
831.575	0.0144524
831.653	0.0145525
831.731	0.0144883
831.809	0.0144975
831.887	0.0145843
831.965	0.0144885
832.043	0.0144952
832.121	0.0145905
832.200	0.0145434
832.278	0.0145538
832.356	0.0145087
832.434	0.0146651
832.512	0.0145956
832.590	0.0146462
832.668	0.0146200
832.746	0.0143528
832.825	0.0146252
832.903	0.0144907
832.981	0.0145677
833.059	0.0147089
833.137	0.0147066
833.215	0.0146461
833.293	0.0146410
833.371	0.0145394
833.450	0.0145977
833.528	0.0145264
833.606	0.0146123
833.684	0.0145607
833.762	0.0146670
833.840	0.0144420
833.918	0.0145951
833.996	0.0146156
834.075	0.0147732
834.153	0.0147098
834.231	0.0146159
834.309	0.0145772
834.387	0.0146175
834.465	0.0145197
834.543	0.0146029
834.621	0.0146055
834.700	0.0145653
834.778	0.0147031
834.856	0.0145475
834.934	0.0144758
835.012	0.0146373
835.090	0.0144072
835.168	0.0145579
835.246	0.0145238
835.325	0.0145283
835.403	0.0146023
835.481	0.0145068
835.559	0.0146242
835.637	0.0145602
835.715	0.0146039
835.793	0.0144973
835.871	0.0145356
835.950	0.0147305
836.028	0.0145511
836.106	0.0145850
836.184	0.0145390
836.262	0.0145601
836.340	0.0145593
836.418	0.0146707
836.496	0.0145598
836.575	0.0147154
836.653	0.0146215
836.731	0.0145798
836.809	0.0146460
836.887	0.0146471
836.965	0.0147253
837.043	0.0147736
837.121	0.0147727
837.200	0.0146245
837.278	0.0145565
837.356	0.0144845
837.434	0.0146838
837.512	0.0147781
837.590	0.0146885
837.668	0.0146552
837.746	0.0146925
837.825	0.0146709
837.903	0.0146053
837.981	0.0145546
838.059	0.0144791
838.137	0.0146874
838.215	0.0146226
838.293	0.0145719
838.371	0.0146158
838.450	0.0145927
838.528	0.0145654
838.606	0.0145535
838.684	0.0145040
838.762	0.0146484
838.840	0.0145822
838.918	0.0144373
838.996	0.0145891
839.075	0.0144934
839.153	0.0144582
839.231	0.0144052
839.309	0.0145177
839.387	0.0146395
839.465	0.0145848
839.543	0.0144615
839.621	0.0146059
839.700	0.0144963
839.778	0.0145674
839.856	0.0147686
839.934	0.0145579
840.012	0.0146647
840.090	0.0146143
840.168	0.0145691
840.246	0.0147544
840.325	0.0146774
840.403	0.0146555
840.481	0.0146213
840.559	0.0147201
840.637	0.0146098
840.715	0.0146693
840.793	0.0146944
840.871	0.0147912
840.950	0.0146591
841.028	0.0146554
841.106	0.0145954
841.184	0.0147373
841.262	0.0145694
841.340	0.0146089
841.418	0.0146737
841.496	0.0147020
841.575	0.0145848
841.653	0.0145842
841.731	0.0145238
841.809	0.0144774
841.887	0.0146501
841.965	0.0146520
842.043	0.0145382
842.121	0.0145746
842.200	0.0145966
842.278	0.0146032
842.356	0.0146305
842.434	0.0146339
842.512	0.0144936
842.590	0.0145289
842.668	0.0145914
842.746	0.0144947
842.825	0.0147203
842.903	0.0146336
842.981	0.0147466
843.059	0.0147608
843.137	0.0147308
843.215	0.0146107
843.293	0.0147220
843.371	0.0146801
843.450	0.0145584
843.528	0.0146644
843.606	0.0147605
843.684	0.0147958
843.762	0.0146522
843.840	0.0147056
843.918	0.0147530
843.996	0.0147845
844.075	0.0147686
844.153	0.0147285
844.231	0.0146220
844.309	0.0145605
844.387	0.0145963
844.465	0.0147054
844.543	0.0146049
844.621	0.0143547
844.700	0.0145384
844.778	0.0146660
844.856	0.0145494
844.934	0.0145259
845.012	0.0146267
845.090	0.0145825
845.168	0.0145446
845.246	0.0146983
845.325	0.0146243
845.403	0.0144956
845.481	0.0146511
845.559	0.0146865
845.637	0.0145998
845.715	0.0145657
845.793	0.0145500
845.871	0.0146249
845.950	0.0145021
846.028	0.0145181
846.106	0.0145361
846.184	0.0145506
846.262	0.0145815
846.340	0.0146740
846.418	0.0145999
846.496	0.0146274
846.575	0.0146743
846.653	0.0145844
846.731	0.0146170
846.809	0.0147688
846.887	0.0146960
846.965	0.0146296
847.043	0.0146931
847.121	0.0147731
847.200	0.0146928
847.278	0.0145419
847.356	0.0146645
847.434	0.0146973
847.512	0.0147275
847.590	0.0146768
847.668	0.0145999
847.746	0.0146451
847.825	0.0146600
847.903	0.0145885
847.981	0.0145431
848.059	0.0146903
848.137	0.0146328
848.215	0.0146389
848.293	0.0147160
848.371	0.0146861
848.450	0.0145731
848.528	0.0146599
848.606	0.0144466
848.684	0.0145822
848.762	0.0146294
848.840	0.0147265
848.918	0.0145840
848.996	0.0146059
849.075	0.0145473
849.153	0.0145301
849.231	0.0145616
849.309	0.0145795
849.387	0.0145040
849.465	0.0145535
849.543	0.0145466
849.621	0.0145249
849.700	0.0145424
849.778	0.0144769
849.856	0.0145387
849.934	0.0145476
850.012	0.0145152
850.090	0.0145670
850.168	0.0145737
850.246	0.0145494
850.325	0.0145244
850.403	0.0145173
850.481	0.0145424
850.559	0.0146123
850.637	0.0145868
850.715	0.0146144
850.793	0.0144062
850.871	0.0146022
850.950	0.0147798
851.028	0.0146597
851.106	0.0146471
851.184	0.0147626
851.262	0.0147278
851.340	0.0145244
851.418	0.0145460
851.496	0.0146631
851.575	0.0146632
851.653	0.0146043
851.731	0.0146211
851.809	0.0145062
851.887	0.0144997
851.965	0.0146194
852.043	0.0146552
852.121	0.0147211
852.200	0.0145805
852.278	0.0145943
852.356	0.0146441
852.434	0.0145097
852.512	0.0146516
852.590	0.0144714
852.668	0.0146153
852.746	0.0145618
852.825	0.0146532
852.903	0.0146365
852.981	0.0146562
853.059	0.0146602
853.137	0.0145444
853.215	0.0146093
853.293	0.0145841
853.371	0.0144811
853.450	0.0144558
853.528	0.0144668
853.606	0.0144436
853.684	0.0145597
853.762	0.0143774
853.840	0.0145901
853.918	0.0144997
853.996	0.0143649
854.075	0.0144133
854.153	0.0145539
854.231	0.0144688
854.309	0.0146124
854.387	0.0145842
854.465	0.0146684
854.543	0.0145405
854.621	0.0145126
854.700	0.0147195
854.778	0.0146301
854.856	0.0146173
854.934	0.0146292
855.012	0.0146036
855.090	0.0148206
855.168	0.0146793
855.246	0.0145731
855.325	0.0146119
855.403	0.0145782
855.481	0.0147525
855.559	0.0147255
855.637	0.0147214
855.715	0.0146059
855.793	0.0146416
855.871	0.0146715
855.950	0.0146359
856.028	0.0145326
856.106	0.0146382
856.184	0.0146712
856.262	0.0145557
856.340	0.0145361
856.418	0.0144936
856.496	0.0144976
856.575	0.0147182
856.653	0.0144836
856.731	0.0145839
856.809	0.0146626
856.887	0.0146352
856.965	0.0145342
857.043	0.0144467
857.121	0.0144843
857.200	0.0144513
857.278	0.0145399
857.356	0.0144421
857.434	0.0144841
857.512	0.0145799
857.590	0.0145544
857.668	0.0146127
857.746	0.0145203
857.825	0.0144701
857.903	0.0146410
857.981	0.0147164
858.059	0.0145857
858.137	0.0146478
858.215	0.0146632
858.293	0.0145592
858.371	0.0144634
858.450	0.0145412
858.528	0.0146882
858.606	0.0146579
858.684	0.0146149
858.762	0.0146949
858.840	0.0146758
858.918	0.0146876
858.996	0.0147644
859.075	0.0147755
859.153	0.0147121
859.231	0.0146817
859.309	0.0146851
859.387	0.0146964
859.465	0.0147797
859.543	0.0147463
859.621	0.0146593
859.700	0.0145978
859.778	0.0145646
859.856	0.0145374
859.934	0.0145107
860.012	0.0146773
860.090	0.0145882
860.168	0.0145069
860.246	0.0146828
860.325	0.0144892
860.403	0.0145412
860.481	0.0145263
860.559	0.0145123
860.637	0.0145494
860.715	0.0145982
860.793	0.0145972
860.871	0.0145526
860.950	0.0145187
861.028	0.0144347
861.106	0.0145999
861.184	0.0145393
861.262	0.0145235
861.340	0.0144387
861.418	0.0145883
861.496	0.0145715
861.575	0.0145874
861.653	0.0146091
861.731	0.0146195
861.809	0.0147028
861.887	0.0146770
861.965	0.0145896
862.043	0.0146133
862.121	0.0146141
862.200	0.0146739
862.278	0.0146557
862.356	0.0147011
862.434	0.0146972
862.512	0.0145737
862.590	0.0146458
862.668	0.0146497
862.746	0.0146474
862.825	0.0147076
862.903	0.0145208
862.981	0.0146719
863.059	0.0147453
863.137	0.0148262
863.215	0.0147700
863.293	0.0146991
863.371	0.0146348
863.450	0.0146229
863.528	0.0146246
863.606	0.0146474
863.684	0.0145972
863.762	0.0145222
863.840	0.0145783
863.918	0.0146285
863.996	0.0146956
864.075	0.0144580
864.153	0.0145799
864.231	0.0146340
864.309	0.0145203
864.387	0.0145330
864.465	0.0146616
864.543	0.0146463
864.621	0.0145371
864.700	0.0146519
864.778	0.0147675
864.856	0.0145715
864.934	0.0147270
865.012	0.0147128
865.090	0.0146084
865.168	0.0145036
865.246	0.0147199
865.325	0.0145403
865.403	0.0147074
865.481	0.0148038
865.559	0.0146472
865.637	0.0146487
865.715	0.0145055
865.793	0.0145767
865.871	0.0144226
865.950	0.0147620
866.028	0.0147048
866.106	0.0145604
866.184	0.0147981
866.262	0.0146164
866.340	0.0147154
866.418	0.0146048
866.496	0.0145866
866.575	0.0147629
866.653	0.0146650
866.731	0.0146550
866.809	0.0146033
866.887	0.0146082
866.965	0.0145203
867.043	0.0146698
867.121	0.0145717
867.200	0.0145992
867.278	0.0146126
867.356	0.0146966
867.434	0.0146807
867.512	0.0147726
867.590	0.0145609
867.668	0.0146367
867.746	0.0145808
867.825	0.0146783
867.903	0.0146597
867.981	0.0146515
868.059	0.0147257
868.137	0.0146454
868.215	0.0145731
868.293	0.0145357
868.371	0.0146423
868.450	0.0146495
868.528	0.0146241
868.606	0.0145385
868.684	0.0145898
868.762	0.0146166
868.840	0.0145441
868.918	0.0144954
868.996	0.0145978
869.075	0.0146021
869.153	0.0144880
869.231	0.0145724
869.309	0.0145942
869.387	0.0144221
869.465	0.0144779
869.543	0.0146281
869.621	0.0144476
869.700	0.0145044
869.778	0.0146611
869.856	0.0146507
869.934	0.0146113
870.012	0.0145664
870.090	0.0147185
870.168	0.0146874
870.246	0.0146697
870.325	0.0146515
870.403	0.0147424
870.481	0.0147614
870.559	0.0145910
870.637	0.0147076
870.715	0.0145754
870.793	0.0146468
870.871	0.0146415
870.950	0.0146585
871.028	0.0145404
871.106	0.0146392
871.184	0.0146037
871.262	0.0147023
871.340	0.0146630
871.418	0.0145517
871.496	0.0146532
871.575	0.0146529
871.653	0.0145348
871.731	0.0147269
871.809	0.0146755
871.887	0.0145824
871.965	0.0145904
872.043	0.0144881
872.121	0.0146375
872.200	0.0146593
872.278	0.0146334
872.356	0.0146149
872.434	0.0146702
872.512	0.0145924
872.590	0.0144743
872.668	0.0145461
872.746	0.0147243
872.825	0.0147344
872.903	0.0145763
872.981	0.0145636
873.059	0.0146444
873.137	0.0146671
873.215	0.0146782
873.293	0.0146692
873.371	0.0147318
873.450	0.0146056
873.528	0.0147464
873.606	0.0146286
873.684	0.0147487
873.762	0.0146620
873.840	0.0146854
873.918	0.0145837
873.996	0.0146696
874.075	0.0146748
874.153	0.0146259
874.231	0.0145785
874.309	0.0146356
874.387	0.0146113
874.465	0.0145409
874.543	0.0147513
874.621	0.0147200
874.700	0.0144653
874.778	0.0146624
874.856	0.0147081
874.934	0.0147682
875.012	0.0147694
875.090	0.0147408
875.168	0.0146638
875.246	0.0146976
875.325	0.0147983
875.403	0.0145709
875.481	0.0147813
875.559	0.0146895
875.637	0.0146146
875.715	0.0146082
875.793	0.0146374
875.871	0.0146922
875.950	0.0146324
876.028	0.0145664
876.106	0.0145775
876.184	0.0145926
876.262	0.0145736
876.340	0.0144569
876.418	0.0147179
876.496	0.0145458
876.575	0.0146075
876.653	0.0146332
876.731	0.0146539
876.809	0.0145523
876.887	0.0144907
876.965	0.0146289
877.043	0.0146188
877.121	0.0146562
877.200	0.0146590
877.278	0.0147849
877.356	0.0147011
877.434	0.0145795
877.512	0.0146254
877.590	0.0146409
877.668	0.0146067
877.746	0.0145448
877.825	0.0146812
877.903	0.0146348
877.981	0.0146175
878.059	0.0146819
878.137	0.0145863
878.215	0.0145249
878.293	0.0146036
878.371	0.0145963
878.450	0.0145638
878.528	0.0146173
878.606	0.0144727
878.684	0.0145685
878.762	0.0145584
878.840	0.0145831
878.918	0.0147151
878.996	0.0147582
879.075	0.0147020
879.153	0.0146264
879.231	0.0146289
879.309	0.0147039
879.387	0.0144770
879.465	0.0146132
879.543	0.0147547
879.621	0.0146579
879.700	0.0146735
879.778	0.0146406
879.856	0.0147451
879.934	0.0146455
880.012	0.0145995
880.090	0.0146499
880.168	0.0146364
880.246	0.0146507
880.325	0.0146696
880.403	0.0146239
880.481	0.0146059
880.559	0.0146373
880.637	0.0145808
880.715	0.0144395
880.793	0.0144946
880.871	0.0144130
880.950	0.0145589
881.028	0.0146147
881.106	0.0146171
881.184	0.0147293
881.262	0.0146746
881.340	0.0146938
881.418	0.0148508
881.496	0.0146947
881.575	0.0147821
881.653	0.0147831
881.731	0.0148833
881.809	0.0146674
881.887	0.0146874
881.965	0.0147172
882.043	0.0147379
882.121	0.0147115
882.200	0.0146307
882.278	0.0145464
882.356	0.0144456
882.434	0.0145795
882.512	0.0145298
882.590	0.0144973
882.668	0.0146290
882.746	0.0144748
882.825	0.0145315
882.903	0.0145457
882.981	0.0146149
883.059	0.0148110
883.137	0.0145741
883.215	0.0146651
883.293	0.0146691
883.371	0.0146636
883.450	0.0146938
883.528	0.0147756
883.606	0.0147822
883.684	0.0146429
883.762	0.0148669
883.840	0.0147181
883.918	0.0147292
883.996	0.0146368
884.075	0.0146063
884.153	0.0147212
884.231	0.0146960
884.309	0.0146466
884.387	0.0145951
884.465	0.0147060
884.543	0.0147476
884.621	0.0145956
884.700	0.0146189
884.778	0.0144650
884.856	0.0145637
884.934	0.0146061
885.012	0.0145872
885.090	0.0147102
885.168	0.0146538
885.246	0.0145648
885.325	0.0146466
885.403	0.0145542
885.481	0.0145266
885.559	0.0148456
885.637	0.0146098
885.715	0.0146862
885.793	0.0147038
885.871	0.0146352
885.950	0.0146838
886.028	0.0148884
886.106	0.0147477
886.184	0.0146918
886.262	0.0148430
886.340	0.0146866
886.418	0.0145023
886.496	0.0144805
886.575	0.0145488
886.653	0.0144787
886.731	0.0146986
886.809	0.0146836
886.887	0.0146046
886.965	0.0147328
887.043	0.0148637
887.121	0.0147553
887.200	0.0146903
887.278	0.0146889
887.356	0.0147038
887.434	0.0147584
887.512	0.0147269
887.590	0.0147084
887.668	0.0145572
887.746	0.0146053
887.825	0.0146980
887.903	0.0146203
887.981	0.0143972
888.059	0.0144689
888.137	0.0145673
888.215	0.0145885
888.293	0.0144936
888.371	0.0145880
888.450	0.0145523
888.528	0.0145232
888.606	0.0146057
888.684	0.0146480
888.762	0.0147477
888.840	0.0147151
888.918	0.0147991
888.996	0.0148094
889.075	0.0146329
889.153	0.0147292
889.231	0.0146928
889.309	0.0146419
889.387	0.0146744
889.465	0.0146893
889.543	0.0145739
889.621	0.0145169
889.700	0.0145029
889.778	0.0146262
889.856	0.0145907
889.934	0.0145654
890.012	0.0145138
890.090	0.0144875
890.168	0.0146648
890.246	0.0145306
890.325	0.0144508
890.403	0.0144214
890.481	0.0147159
890.559	0.0146400
890.637	0.0145596
890.715	0.0145842
890.793	0.0146114
890.871	0.0144144
890.950	0.0145019
891.028	0.0144790
891.106	0.0147150
891.184	0.0146417
891.262	0.0145560
891.340	0.0146939
891.418	0.0147031
891.496	0.0145652
891.575	0.0147830
891.653	0.0146539
891.731	0.0146162
891.809	0.0146265
891.887	0.0147205
891.965	0.0146645
892.043	0.0146767
892.121	0.0146324
892.200	0.0144296
892.278	0.0145900
892.356	0.0147821
892.434	0.0146539
892.512	0.0144925
892.590	0.0145844
892.668	0.0143713
892.746	0.0145280
892.825	0.0146070
892.903	0.0145239
892.981	0.0145547
893.059	0.0145807
893.137	0.0145818
893.215	0.0146721
893.293	0.0147511
893.371	0.0146323
893.450	0.0146359
893.528	0.0145897
893.606	0.0145755
893.684	0.0145912
893.762	0.0146886
893.840	0.0147015
893.918	0.0147404
893.996	0.0146558
894.075	0.0146673
894.153	0.0146191
894.231	0.0147308
894.309	0.0146874
894.387	0.0145766
894.465	0.0144645
894.543	0.0147883
894.621	0.0145663
894.700	0.0146474
894.778	0.0145115
894.856	0.0145001
894.934	0.0145962
895.012	0.0145327
895.090	0.0145602
895.168	0.0146289
895.246	0.0145598
895.325	0.0145284
895.403	0.0145576
895.481	0.0146767
895.559	0.0146223
895.637	0.0146690
895.715	0.0146381
895.793	0.0147145
895.871	0.0146306
895.950	0.0147018
896.028	0.0146677
896.106	0.0147294
896.184	0.0146887
896.262	0.0146593
896.340	0.0146497
896.418	0.0146534
896.496	0.0146056
896.575	0.0146308
896.653	0.0144588
896.731	0.0144918
896.809	0.0146240
896.887	0.0145236
896.965	0.0146918
897.043	0.0146848
897.121	0.0145735
897.200	0.0147269
897.278	0.0145279
897.356	0.0146611
897.434	0.0147293
897.512	0.0147444
897.590	0.0147004
897.668	0.0147137
897.746	0.0146396
897.825	0.0146791
897.903	0.0144710
897.981	0.0148103
898.059	0.0148366
898.137	0.0147024
898.215	0.0146321
898.293	0.0145409
898.371	0.0147031
898.450	0.0147088
898.528	0.0147765
898.606	0.0147035
898.684	0.0145930
898.762	0.0146665
898.840	0.0146021
898.918	0.0146808
898.996	0.0145677
899.075	0.0148148
899.153	0.0146809
899.231	0.0146189
899.309	0.0147169
899.387	0.0146800
899.465	0.0146586
899.543	0.0145906
899.621	0.0147519
899.700	0.0146555
899.778	0.0146928
899.856	0.0147343
899.934	0.0146663
900.012	0.0146198
900.090	0.0147057
900.168	0.0148328
900.246	0.0148088
900.325	0.0148681
900.403	0.0147704
900.481	0.0147324
900.559	0.0148040
900.637	0.0146974
900.715	0.0146675
900.793	0.0146993
900.871	0.0146503
900.950	0.0145788
901.028	0.0145567
901.106	0.0145358
901.184	0.0145449
901.262	0.0145209
901.340	0.0145799
901.418	0.0145363
901.496	0.0146065
901.575	0.0146552
901.653	0.0145812
901.731	0.0147540
901.809	0.0147025
901.887	0.0146786
901.965	0.0147066
902.043	0.0146500
902.121	0.0146999
902.200	0.0147311
902.278	0.0146616
902.356	0.0146873
902.434	0.0147361
902.512	0.0144410
902.590	0.0145795
902.668	0.0145106
902.746	0.0143465
902.825	0.0144829
902.903	0.0145811
902.981	0.0144688
903.059	0.0144159
903.137	0.0146916
903.215	0.0146556
903.293	0.0147659
903.371	0.0145094
903.450	0.0146177
903.528	0.0146450
903.606	0.0148354
903.684	0.0146542
903.762	0.0145760
903.840	0.0147485
903.918	0.0146183
903.996	0.0144757
904.075	0.0144571
904.153	0.0144118
904.231	0.0144026
904.309	0.0144698
904.387	0.0145535
904.465	0.0144813
904.543	0.0145319
904.621	0.0146764
904.700	0.0147040
904.778	0.0147860
904.856	0.0149176
904.934	0.0148409
905.012	0.0147257
905.090	0.0148810
905.168	0.0150620
905.246	0.0148083
905.325	0.0147382
905.403	0.0147512
905.481	0.0147479
905.559	0.0146101
905.637	0.0145188
905.715	0.0146899
905.793	0.0146371
905.871	0.0143797
905.950	0.0143919
906.028	0.0143629
906.106	0.0145787
906.184	0.0146481
906.262	0.0144269
906.340	0.0144672
906.418	0.0145884
906.496	0.0146820
906.575	0.0146416
906.653	0.0147311
906.731	0.0148059
906.809	0.0146832
906.887	0.0147556
906.965	0.0147634
907.043	0.0145482
907.121	0.0146131
907.200	0.0145445
907.278	0.0145192
907.356	0.0145671
907.434	0.0145553
907.512	0.0145324
907.590	0.0146018
907.668	0.0146548
907.746	0.0146014
907.825	0.0146391
907.903	0.0147296
907.981	0.0146247
908.059	0.0147181
908.137	0.0147945
908.215	0.0148029
908.293	0.0147485
908.371	0.0146519
908.450	0.0147598
908.528	0.0146999
908.606	0.0146979
908.684	0.0146172
908.762	0.0146108
908.840	0.0146508
908.918	0.0145496
908.996	0.0145122
909.075	0.0144701
909.153	0.0144353
909.231	0.0144813
909.309	0.0145213
909.387	0.0145997
909.465	0.0145151
909.543	0.0144759
909.621	0.0146738
909.700	0.0146677
909.778	0.0146416
909.856	0.0144949
909.934	0.0145993
910.012	0.0147047
910.090	0.0145220
910.168	0.0145061
910.246	0.0145522
910.325	0.0146162
910.403	0.0146529
910.481	0.0145075
910.559	0.0145133
910.637	0.0144768
910.715	0.0146049
910.793	0.0146464
910.871	0.0145270
910.950	0.0146717
911.028	0.0147331
911.106	0.0147438
911.184	0.0147822
911.262	0.0146937
911.340	0.0146823
911.418	0.0146448
911.496	0.0146409
911.575	0.0147179
911.653	0.0147320
911.731	0.0146999
911.809	0.0146368
911.887	0.0145940
911.965	0.0146512
912.043	0.0145558
912.121	0.0145867
912.200	0.0145721
912.278	0.0145867
912.356	0.0145492
912.434	0.0144789
912.512	0.0144828
912.590	0.0145812
912.668	0.0143954
912.746	0.0146726
912.825	0.0146709
912.903	0.0145532
912.981	0.0145624
913.059	0.0145338
913.137	0.0147093
913.215	0.0145958
913.293	0.0145708
913.371	0.0146164
913.450	0.0146172
913.528	0.0145813
913.606	0.0145529
913.684	0.0146092
913.762	0.0144613
913.840	0.0144430
913.918	0.0145123
913.996	0.0145288
914.075	0.0144467
914.153	0.0145483
914.231	0.0146732
914.309	0.0144707
914.387	0.0144800
914.465	0.0145299
914.543	0.0146799
914.621	0.0145902
914.700	0.0146478
914.778	0.0146503
914.856	0.0147578
914.934	0.0147263
915.012	0.0146435
915.090	0.0146533
915.168	0.0147380
915.246	0.0145686
915.325	0.0145789
915.403	0.0146362
915.481	0.0146194
915.559	0.0146734
915.637	0.0145849
915.715	0.0145587
915.793	0.0146774
915.871	0.0145068
915.950	0.0144929
916.028	0.0144098
916.106	0.0144347
916.184	0.0145117
916.262	0.0146101
916.340	0.0143996
916.418	0.0144987
916.496	0.0145509
916.575	0.0146017
916.653	0.0145077
916.731	0.0145325
916.809	0.0145657
916.887	0.0146255
916.965	0.0146301
917.043	0.0145341
917.121	0.0145457
917.200	0.0146044
917.278	0.0145731
917.356	0.0145753
917.434	0.0146059
917.512	0.0144411
917.590	0.0145328
917.668	0.0146488
917.746	0.0145348
917.825	0.0145642
917.903	0.0145663
917.981	0.0145241
918.059	0.0144534
918.137	0.0145170
918.215	0.0145154
918.293	0.0146941
918.371	0.0146054
918.450	0.0146311
918.528	0.0146733
918.606	0.0144991
918.684	0.0145173
918.762	0.0145648
918.840	0.0145723
918.918	0.0145538
918.996	0.0145713
919.075	0.0146783
919.153	0.0146716
919.231	0.0145546
919.309	0.0146673
919.387	0.0146524
919.465	0.0145035
919.543	0.0147184
919.621	0.0145168
919.700	0.0145461
919.778	0.0147514
919.856	0.0146794
919.934	0.0145796
920.012	0.0146461
920.090	0.0146790
920.168	0.0144846
920.246	0.0147195
920.325	0.0146930
920.403	0.0146450
920.481	0.0145512
920.559	0.0144836
920.637	0.0144408
920.715	0.0144548
920.793	0.0144402
920.871	0.0145435
920.950	0.0145908
921.028	0.0145349
921.106	0.0144308
921.184	0.0145359
921.262	0.0146858
921.340	0.0145641
921.418	0.0145371
921.496	0.0146291
921.575	0.0145606
921.653	0.0145325
921.731	0.0144889
921.809	0.0145845
921.887	0.0147150
921.965	0.0145979
922.043	0.0145730
922.121	0.0143803
922.200	0.0145689
922.278	0.0147247
922.356	0.0147186
922.434	0.0145529
922.512	0.0145434
922.590	0.0145477
922.668	0.0145969
922.746	0.0147507
922.825	0.0146858
922.903	0.0147447
922.981	0.0148094
923.059	0.0146315
923.137	0.0147581
923.215	0.0146714
923.293	0.0145419
923.371	0.0146754
923.450	0.0146648
923.528	0.0145339
923.606	0.0145813
923.684	0.0145805
923.762	0.0145393
923.840	0.0146082
923.918	0.0145796
923.996	0.0145990
924.075	0.0145142
924.153	0.0146772
924.231	0.0146497
924.309	0.0145371
924.387	0.0145305
924.465	0.0145453
924.543	0.0146017
924.621	0.0145031
924.700	0.0145615
924.778	0.0145125
924.856	0.0146320
924.934	0.0146633
925.012	0.0146940
925.090	0.0147691
925.168	0.0146612
925.246	0.0147162
925.325	0.0147946
925.403	0.0147116
925.481	0.0146871
925.559	0.0146090
925.637	0.0146096
925.715	0.0146568
925.793	0.0145762
925.871	0.0146501
925.950	0.0146864
926.028	0.0145258
926.106	0.0145544
926.184	0.0146692
926.262	0.0146038
926.340	0.0144928
926.418	0.0145180
926.496	0.0145676
926.575	0.0145841
926.653	0.0145152
926.731	0.0146125
926.809	0.0146124
926.887	0.0144297
926.965	0.0146050
927.043	0.0145551
927.121	0.0145600
927.200	0.0147255
927.278	0.0146861
927.356	0.0144997
927.434	0.0145037
927.512	0.0145862
927.590	0.0145868
927.668	0.0145200
927.746	0.0144971
927.825	0.0147224
927.903	0.0145970
927.981	0.0146921
928.059	0.0145717
928.137	0.0146068
928.215	0.0146545
928.293	0.0146605
928.371	0.0145925
928.450	0.0147282
928.528	0.0147449
928.606	0.0146901
928.684	0.0146184
928.762	0.0146420
928.840	0.0146101
928.918	0.0147095
928.996	0.0145525
929.075	0.0146224
929.153	0.0147336
929.231	0.0146500
929.309	0.0146352
929.387	0.0145010
929.465	0.0147004
929.543	0.0145277
929.621	0.0145939
929.700	0.0145643
929.778	0.0146194
929.856	0.0146155
929.934	0.0146035
930.012	0.0146076
930.090	0.0146549
930.168	0.0145700
930.246	0.0145479
930.325	0.0146408
930.403	0.0146018
930.481	0.0146112
930.559	0.0145536
930.637	0.0145621
930.715	0.0145745
930.793	0.0145190
930.871	0.0145634
930.950	0.0145892
931.028	0.0146776
931.106	0.0146203
931.184	0.0146207
931.262	0.0146204
931.340	0.0146564
931.418	0.0146092
931.496	0.0145646
931.575	0.0146703
931.653	0.0147551
931.731	0.0147255
931.809	0.0145998
931.887	0.0147366
931.965	0.0145021
932.043	0.0146911
932.121	0.0146104
932.200	0.0147295
932.278	0.0147301
932.356	0.0146355
932.434	0.0146088
932.512	0.0146751
932.590	0.0145782
932.668	0.0147232
932.746	0.0147073
932.825	0.0145338
932.903	0.0145090
932.981	0.0146326
933.059	0.0145972
933.137	0.0145357
933.215	0.0145390
933.293	0.0145825
933.371	0.0146651
933.450	0.0145795
933.528	0.0146690
933.606	0.0144999
933.684	0.0145872
933.762	0.0145397
933.840	0.0144073
933.918	0.0144323
933.996	0.0145802
934.075	0.0145419
934.153	0.0146521
934.231	0.0145463
934.309	0.0144706
934.387	0.0145160
934.465	0.0146905
934.543	0.0146043
934.621	0.0145054
934.700	0.0147166
934.778	0.0147600
934.856	0.0145123
934.934	0.0146005
935.012	0.0146899
935.090	0.0146797
935.168	0.0145037
935.246	0.0143922
935.325	0.0145168
935.403	0.0147572
935.481	0.0146246
935.559	0.0145226
935.637	0.0147062
935.715	0.0145982
935.793	0.0146589
935.871	0.0144793
935.950	0.0145846
936.028	0.0146234
936.106	0.0146317
936.184	0.0147397
936.262	0.0146922
936.340	0.0146801
936.418	0.0147755
936.496	0.0147319
936.575	0.0147366
936.653	0.0147326
936.731	0.0146448
936.809	0.0146387
936.887	0.0144982
936.965	0.0145538
937.043	0.0146252
937.121	0.0145966
937.200	0.0146206
937.278	0.0146758
937.356	0.0146694
937.434	0.0145958
937.512	0.0144679
937.590	0.0147069
937.668	0.0146432
937.746	0.0145742
937.825	0.0145386
937.903	0.0145422
937.981	0.0145924
938.059	0.0145136
938.137	0.0147051
938.215	0.0146973
938.293	0.0145294
938.371	0.0145608
938.450	0.0146077
938.528	0.0146588
938.606	0.0145509
938.684	0.0146730
938.762	0.0144820
938.840	0.0144401
938.918	0.0146531
938.996	0.0145898
939.075	0.0145822
939.153	0.0145407
939.231	0.0145856
939.309	0.0145735
939.387	0.0145754
939.465	0.0145999
939.543	0.0147512
939.621	0.0146342
939.700	0.0147070
939.778	0.0147074
939.856	0.0145969
939.934	0.0146498
940.012	0.0146336
940.090	0.0146629
940.168	0.0146149
940.246	0.0146758
940.325	0.0145888
940.403	0.0146789
940.481	0.0146279
940.559	0.0145894
940.637	0.0146777
940.715	0.0146531
940.793	0.0144684
940.871	0.0145248
940.950	0.0147027
941.028	0.0145560
941.106	0.0144028
941.184	0.0146266
941.262	0.0146366
941.340	0.0144108
941.418	0.0145459
941.496	0.0145426
941.575	0.0146463
941.653	0.0145399
941.731	0.0144233
941.809	0.0145846
941.887	0.0145524
941.965	0.0147051
942.043	0.0144442
942.121	0.0144705
942.200	0.0145501
942.278	0.0145609
942.356	0.0146100
942.434	0.0147034
942.512	0.0145985
942.590	0.0145190
942.668	0.0147151
942.746	0.0145854
942.825	0.0146098
942.903	0.0146083
942.981	0.0146023
943.059	0.0145734
943.137	0.0146011
943.215	0.0146539
943.293	0.0146320
943.371	0.0145749
943.450	0.0145226
943.528	0.0145325
943.606	0.0145021
943.684	0.0145599
943.762	0.0145958
943.840	0.0145035
943.918	0.0144751
943.996	0.0145430
944.075	0.0145868
944.153	0.0145898
944.231	0.0145619
944.309	0.0145190
944.387	0.0145810
944.465	0.0145794
944.543	0.0145544
944.621	0.0145886
944.700	0.0146125
944.778	0.0145948
944.856	0.0145776
944.934	0.0147177
945.012	0.0146202
945.090	0.0145536
945.168	0.0146555
945.246	0.0147165
945.325	0.0145893
945.403	0.0146057
945.481	0.0145246
945.559	0.0146136
945.637	0.0146928
945.715	0.0146254
945.793	0.0146696
945.871	0.0146081
945.950	0.0146259
946.028	0.0145644
946.106	0.0146280
946.184	0.0146028
946.262	0.0145125
946.340	0.0145932
946.418	0.0145673
946.496	0.0145444
946.575	0.0145759
946.653	0.0146071
946.731	0.0145610
946.809	0.0144763
946.887	0.0144225
946.965	0.0146002
947.043	0.0145609
947.121	0.0144421
947.200	0.0144170
947.278	0.0143900
947.356	0.0145231
947.434	0.0145959
947.512	0.0144695
947.590	0.0143620
947.668	0.0145952
947.746	0.0146481
947.825	0.0146716
947.903	0.0145586
947.981	0.0146529
948.059	0.0146628
948.137	0.0145805
948.215	0.0146562
948.293	0.0146865
948.371	0.0145231
948.450	0.0145581
948.528	0.0146262
948.606	0.0147549
948.684	0.0145416
948.762	0.0146159
948.840	0.0147944
948.918	0.0146816
948.996	0.0147746
949.075	0.0147505
949.153	0.0146043
949.231	0.0145973
949.309	0.0146368
949.387	0.0147034
949.465	0.0146764
949.543	0.0146127
949.621	0.0146677
949.700	0.0146911
949.778	0.0146255
949.856	0.0145776
949.934	0.0144563
950.012	0.0146034
950.090	0.0146459
950.168	0.0145854
950.246	0.0145519
950.325	0.0146970
950.403	0.0147263
950.481	0.0144850
950.559	0.0146944
950.637	0.0146108
950.715	0.0146068
950.793	0.0146447
950.871	0.0145680
950.950	0.0145710
951.028	0.0148065
951.106	0.0147771
951.184	0.0146165
951.262	0.0147025
951.340	0.0146481
951.418	0.0145909
951.496	0.0147845
951.575	0.0147260
951.653	0.0147214
951.731	0.0146184
951.809	0.0145576
951.887	0.0147180
951.965	0.0146453
952.043	0.0145950
952.121	0.0145027
952.200	0.0144417
952.278	0.0146049
952.356	0.0145882
952.434	0.0145673
952.512	0.0145856
952.590	0.0145631
952.668	0.0144778
952.746	0.0146394
952.825	0.0145896
952.903	0.0144598
952.981	0.0145789
953.059	0.0146316
953.137	0.0145281
953.215	0.0144516
953.293	0.0145602
953.371	0.0145590
953.450	0.0144859
953.528	0.0145422
953.606	0.0147309
953.684	0.0145599
953.762	0.0145560
953.840	0.0145154
953.918	0.0146355
953.996	0.0145105
954.075	0.0146066
954.153	0.0146326
954.231	0.0146140
954.309	0.0147060
954.387	0.0146821
954.465	0.0145594
954.543	0.0147153
954.621	0.0147458
954.700	0.0146403
954.778	0.0145073
954.856	0.0147931
954.934	0.0147578
955.012	0.0145988
955.090	0.0146957
955.168	0.0146892
955.246	0.0147119
955.325	0.0146513
955.403	0.0145937
955.481	0.0145488
955.559	0.0146951
955.637	0.0145287
955.715	0.0145774
955.793	0.0145221
955.871	0.0147485
955.950	0.0145567
956.028	0.0146860
956.106	0.0145821
956.184	0.0146130
956.262	0.0144698
956.340	0.0146238
956.418	0.0146709
956.496	0.0147269
956.575	0.0146296
956.653	0.0146087
956.731	0.0147396
956.809	0.0147607
956.887	0.0147527
956.965	0.0145586
957.043	0.0145801
957.121	0.0145020
957.200	0.0146466
957.278	0.0146314
957.356	0.0146218
957.434	0.0146680
957.512	0.0146084
957.590	0.0146075
957.668	0.0146838
957.746	0.0146239
957.825	0.0146721
957.903	0.0146470
957.981	0.0145816
958.059	0.0145986
958.137	0.0145584
958.215	0.0146675
958.293	0.0146260
958.371	0.0147346
958.450	0.0147093
958.528	0.0145913
958.606	0.0145098
958.684	0.0145480
958.762	0.0147066
958.840	0.0148302
958.918	0.0146326
958.996	0.0145611
959.075	0.0146491
959.153	0.0144947
959.231	0.0146838
959.309	0.0146436
959.387	0.0147445
959.465	0.0146161
959.543	0.0145700
959.621	0.0146895
959.700	0.0147023
959.778	0.0144893
959.856	0.0146296
959.934	0.0147796
960.012	0.0145298
960.090	0.0146326
960.168	0.0146246
960.246	0.0145528
960.325	0.0145845
960.403	0.0146509
960.481	0.0146790
960.559	0.0145638
960.637	0.0148592
960.715	0.0145375
960.793	0.0145766
960.871	0.0145477
960.950	0.0145259
961.028	0.0144444
961.106	0.0144440
961.184	0.0145616
961.262	0.0145808
961.340	0.0145832
961.418	0.0144667
961.496	0.0144720
961.575	0.0145393
961.653	0.0144563
961.731	0.0145649
961.809	0.0147134
961.887	0.0146448
961.965	0.0145274
962.043	0.0147693
962.121	0.0147640
962.200	0.0146148
962.278	0.0146568
962.356	0.0146548
962.434	0.0145890
962.512	0.0145474
962.590	0.0146555
962.668	0.0146061
962.746	0.0145351
962.825	0.0144902
962.903	0.0144890
962.981	0.0145354
963.059	0.0146461
963.137	0.0146363
963.215	0.0146736
963.293	0.0147158
963.371	0.0147368
963.450	0.0146639
963.528	0.0145321
963.606	0.0146982
963.684	0.0145552
963.762	0.0144501
963.840	0.0145274
963.918	0.0146494
963.996	0.0145486
964.075	0.0146184
964.153	0.0146230
964.231	0.0144890
964.309	0.0144702
964.387	0.0145492
964.465	0.0146429
964.543	0.0146181
964.621	0.0145409
964.700	0.0145045
964.778	0.0145824
964.856	0.0146048
964.934	0.0144397
965.012	0.0144621
965.090	0.0144711
965.168	0.0145602
965.246	0.0147340
965.325	0.0147108
965.403	0.0146474
965.481	0.0145082
965.559	0.0145709
965.637	0.0146673
965.715	0.0145592
965.793	0.0146590
965.871	0.0145833
965.950	0.0146150
966.028	0.0146217
966.106	0.0145082
966.184	0.0146848
966.262	0.0147274
966.340	0.0144253
966.418	0.0147211
966.496	0.0145340
966.575	0.0146815
966.653	0.0145438
966.731	0.0145644
966.809	0.0146555
966.887	0.0146720
966.965	0.0146574
967.043	0.0145676
967.121	0.0145962
967.200	0.0144918
967.278	0.0146314
967.356	0.0145206
967.434	0.0145225
967.512	0.0145754
967.590	0.0146262
967.668	0.0145087
967.746	0.0145412
967.825	0.0146087
967.903	0.0146832
967.981	0.0145596
968.059	0.0144804
968.137	0.0146229
968.215	0.0146967
968.293	0.0147207
968.371	0.0146925
968.450	0.0145340
968.528	0.0146405
968.606	0.0145401
968.684	0.0146289
968.762	0.0146357
968.840	0.0145901
968.918	0.0145951
968.996	0.0146215
969.075	0.0145512
969.153	0.0146249
969.231	0.0145483
969.309	0.0144545
969.387	0.0145810
969.465	0.0145941
969.543	0.0145850
969.621	0.0146346
969.700	0.0146899
969.778	0.0146111
969.856	0.0147279
969.934	0.0146555
970.012	0.0145312
970.090	0.0146645
970.168	0.0146716
970.246	0.0146309
970.325	0.0145366
970.403	0.0145126
970.481	0.0147210
970.559	0.0145835
970.637	0.0144558
970.715	0.0145718
970.793	0.0146177
970.871	0.0146233
970.950	0.0144688
971.028	0.0145425
971.106	0.0145620
971.184	0.0145343
971.262	0.0145713
971.340	0.0145486
971.418	0.0146295
971.496	0.0146864
971.575	0.0146265
971.653	0.0145664
971.731	0.0145418
971.809	0.0145114
971.887	0.0146350
971.965	0.0146047
972.043	0.0146844
972.121	0.0147465
972.200	0.0148910
972.278	0.0147194
972.356	0.0146200
972.434	0.0146090
972.512	0.0146147
972.590	0.0146716
972.668	0.0146274
972.746	0.0145818
972.825	0.0146904
972.903	0.0146545
972.981	0.0146743
973.059	0.0146210
973.137	0.0147885
973.215	0.0147193
973.293	0.0146779
973.371	0.0146175
973.450	0.0145699
973.528	0.0146561
973.606	0.0146400
973.684	0.0147121
973.762	0.0146129
973.840	0.0147403
973.918	0.0146515
973.996	0.0146271
974.075	0.0146535
974.153	0.0146257
974.231	0.0147583
974.309	0.0146305
974.387	0.0146082
974.465	0.0146672
974.543	0.0146012
974.621	0.0146659
974.700	0.0147142
974.778	0.0146772
974.856	0.0146507
974.934	0.0146970
975.012	0.0145606
975.090	0.0145535
975.168	0.0145663
975.246	0.0146633
975.325	0.0147788
975.403	0.0145831
975.481	0.0147432
975.559	0.0147416
975.637	0.0146150
975.715	0.0147057
975.793	0.0146540
975.871	0.0147031
975.950	0.0146676
976.028	0.0146845
976.106	0.0145907
976.184	0.0146819
976.262	0.0146895
976.340	0.0145985
976.418	0.0145868
976.496	0.0146051
976.575	0.0146750
976.653	0.0146267
976.731	0.0145396
976.809	0.0145042
976.887	0.0146320
976.965	0.0145903
977.043	0.0145791
977.121	0.0145992
977.200	0.0144910
977.278	0.0145627
977.356	0.0147467
977.434	0.0146619
977.512	0.0145498
977.590	0.0146249
977.668	0.0146516
977.746	0.0146308
977.825	0.0145802
977.903	0.0146672
977.981	0.0147427
978.059	0.0148149
978.137	0.0146861
978.215	0.0146999
978.293	0.0146536
978.371	0.0147839
978.450	0.0145860
978.528	0.0145495
978.606	0.0147111
978.684	0.0146850
978.762	0.0145654
978.840	0.0146597
978.918	0.0147429
978.996	0.0145004
979.075	0.0146944
979.153	0.0145679
979.231	0.0145810
979.309	0.0146173
979.387	0.0145103
979.465	0.0145503
979.543	0.0146796
979.621	0.0145745
979.700	0.0143671
979.778	0.0146051
979.856	0.0146307
979.934	0.0146609
980.012	0.0147050
980.090	0.0146533
980.168	0.0147135
980.246	0.0147835
980.325	0.0146140
980.403	0.0147049
980.481	0.0147169
980.559	0.0145915
980.637	0.0145503
980.715	0.0146705
980.793	0.0148142
980.871	0.0146404
980.950	0.0147783
981.028	0.0146889
981.106	0.0147710
981.184	0.0146500
981.262	0.0146320
981.340	0.0146224
981.418	0.0146998
981.496	0.0146806
981.575	0.0144881
981.653	0.0145956
981.731	0.0145882
981.809	0.0145544
981.887	0.0145671
981.965	0.0144744
982.043	0.0145513
982.121	0.0145942
982.200	0.0146014
982.278	0.0145255
982.356	0.0146205
982.434	0.0146546
982.512	0.0146495
982.590	0.0146954
982.668	0.0145702
982.746	0.0144807
982.825	0.0146947
982.903	0.0146093
982.981	0.0145805
983.059	0.0144946
983.137	0.0145847
983.215	0.0146709
983.293	0.0146983
983.371	0.0146741
983.450	0.0146281
983.528	0.0144484
983.606	0.0147768
983.684	0.0146386
983.762	0.0146026
983.840	0.0146521
983.918	0.0146104
983.996	0.0146637
984.075	0.0147746
984.153	0.0148846
984.231	0.0147401
984.309	0.0146770
984.387	0.0146413
984.465	0.0147945
984.543	0.0145991
984.621	0.0147899
984.700	0.0147649
984.778	0.0147704
984.856	0.0147427
984.934	0.0147805
985.012	0.0147516
985.090	0.0146067
985.168	0.0147015
985.246	0.0146788
985.325	0.0148324
985.403	0.0146078
985.481	0.0145365
985.559	0.0146147
985.637	0.0146104
985.715	0.0146913
985.793	0.0145801
985.871	0.0146575
985.950	0.0147121
986.028	0.0146764
986.106	0.0146478
986.184	0.0146010
986.262	0.0147451
986.340	0.0147101
986.418	0.0146967
986.496	0.0147882
986.575	0.0146740
986.653	0.0146182
986.731	0.0148098
986.809	0.0147065
986.887	0.0146414
986.965	0.0146700
987.043	0.0147166
987.121	0.0146642
987.200	0.0147234
987.278	0.0145110
987.356	0.0146337
987.434	0.0146545
987.512	0.0146705
987.590	0.0147984
987.668	0.0147265
987.746	0.0145564
987.825	0.0146210
987.903	0.0147282
987.981	0.0147164
988.059	0.0146645
988.137	0.0147336
988.215	0.0146519
988.293	0.0146192
988.371	0.0147592
988.450	0.0146039
988.528	0.0147440
988.606	0.0147807
988.684	0.0147146
988.762	0.0147528
988.840	0.0147358
988.918	0.0146657
988.996	0.0146738
989.075	0.0146741
989.153	0.0147042
989.231	0.0146255
989.309	0.0148406
989.387	0.0147367
989.465	0.0145691
989.543	0.0146866
989.621	0.0146718
989.700	0.0145153
989.778	0.0145762
989.856	0.0146226
989.934	0.0146691
990.012	0.0146294
990.090	0.0146396
990.168	0.0146008
990.246	0.0146211
990.325	0.0146842
990.403	0.0147607
990.481	0.0148055
990.559	0.0147391
990.637	0.0146038
990.715	0.0146554
990.793	0.0147932
990.871	0.0147499
990.950	0.0146812
991.028	0.0146428
991.106	0.0146758
991.184	0.0145166
991.262	0.0146751
991.340	0.0146602
991.418	0.0147723
991.496	0.0147588
991.575	0.0146706
991.653	0.0146184
991.731	0.0147508
991.809	0.0147042
991.887	0.0146723
991.965	0.0146423
992.043	0.0144624
992.121	0.0147134
992.200	0.0145824
992.278	0.0146258
992.356	0.0145747
992.434	0.0146070
992.512	0.0145303
992.590	0.0146169
992.668	0.0147256
992.746	0.0146211
992.825	0.0146045
992.903	0.0146308
992.981	0.0145558
993.059	0.0146191
993.137	0.0147912
993.215	0.0145751
993.293	0.0145115
993.371	0.0146852
993.450	0.0145488
993.528	0.0145770
993.606	0.0145901
993.684	0.0145596
993.762	0.0145745
993.840	0.0145373
993.918	0.0143818
993.996	0.0145829
994.075	0.0146350
994.153	0.0145395
994.231	0.0145466
994.309	0.0145495
994.387	0.0145798
994.465	0.0146146
994.543	0.0146063
994.621	0.0146986
994.700	0.0147361
994.778	0.0145955
994.856	0.0145853
994.934	0.0144434
995.012	0.0146275
995.090	0.0145273
995.168	0.0146075
995.246	0.0147106
995.325	0.0146645
995.403	0.0146714
995.481	0.0145599
995.559	0.0145930
995.637	0.0146186
995.715	0.0145319
995.793	0.0144351
995.871	0.0145747
995.950	0.0143842
996.028	0.0144075
996.106	0.0145102
996.184	0.0144794
996.262	0.0145279
996.340	0.0145052
996.418	0.0145537
996.496	0.0145930
996.575	0.0145911
996.653	0.0145798
996.731	0.0144562
996.809	0.0145724
996.887	0.0145824
996.965	0.0147316
997.043	0.0145825
997.121	0.0145677
997.200	0.0146271
997.278	0.0145120
997.356	0.0145252
997.434	0.0145801
997.512	0.0146308
997.590	0.0147552
997.668	0.0146106
997.746	0.0147945
997.825	0.0146925
997.903	0.0146275
997.981	0.0146436
998.059	0.0145663
998.137	0.0146027
998.215	0.0146855
998.293	0.0147698
998.371	0.0147091
998.450	0.0146091
998.528	0.0146471
998.606	0.0146519
998.684	0.0145428
998.762	0.0145703
998.840	0.0146717
998.918	0.0146022
