05/04/2022	21:10:42	Ver.	4.1	UNKNOWN
Optical Delay	678.996401	Delta X		0.078125	Sweeps	1	Scan Rate	0/0
Coordinates	Axis 1	NaN	Axis 2	NaN	Axis 3	NaN	Axis 4	NaN	Axis 5	NaN	Axis 6	0.000000
TX Power	0.000000	RX Power	0.000000

678.996	0.0146180
679.075	0.0146931
679.153	0.0145607
679.231	0.0146550
679.309	0.0147074
679.387	0.0146769
679.465	0.0145986
679.543	0.0145382
679.621	0.0146577
679.700	0.0146211
679.778	0.0146145
679.856	0.0147205
679.934	0.0146383
680.012	0.0148341
680.090	0.0146368
680.168	0.0146740
680.246	0.0146410
680.325	0.0147910
680.403	0.0148618
680.481	0.0147153
680.559	0.0146893
680.637	0.0147018
680.715	0.0146094
680.793	0.0147197
680.871	0.0146793
680.950	0.0146664
681.028	0.0148521
681.106	0.0147622
681.184	0.0146322
681.262	0.0146591
681.340	0.0147389
681.418	0.0147083
681.496	0.0147636
681.575	0.0146492
681.653	0.0146085
681.731	0.0145442
681.809	0.0145384
681.887	0.0147750
681.965	0.0145493
682.043	0.0146366
682.121	0.0147168
682.200	0.0145582
682.278	0.0147156
682.356	0.0145104
682.434	0.0144862
682.512	0.0145234
682.590	0.0146412
682.668	0.0145099
682.746	0.0145727
682.825	0.0144684
682.903	0.0145799
682.981	0.0145523
683.059	0.0146116
683.137	0.0146345
683.215	0.0145904
683.293	0.0145963
683.371	0.0145084
683.450	0.0143980
683.528	0.0146751
683.606	0.0144503
683.684	0.0146511
683.762	0.0145660
683.840	0.0145425
683.918	0.0146015
683.996	0.0147861
684.075	0.0146388
684.153	0.0146294
684.231	0.0146648
684.309	0.0143856
684.387	0.0146130
684.465	0.0146519
684.543	0.0145969
684.621	0.0146911
684.700	0.0145650
684.778	0.0146211
684.856	0.0144819
684.934	0.0147168
685.012	0.0146085
685.090	0.0145682
685.168	0.0145546
685.246	0.0145096
685.325	0.0145352
685.403	0.0146079
685.481	0.0146210
685.559	0.0146433
685.637	0.0145139
685.715	0.0146728
685.793	0.0146820
685.871	0.0146844
685.950	0.0147404
686.028	0.0145754
686.106	0.0147086
686.184	0.0147607
686.262	0.0145845
686.340	0.0147383
686.418	0.0146599
686.496	0.0146467
686.575	0.0146594
686.653	0.0145189
686.731	0.0145682
686.809	0.0145398
686.887	0.0145551
686.965	0.0145422
687.043	0.0146078
687.121	0.0144646
687.200	0.0145216
687.278	0.0146557
687.356	0.0145713
687.434	0.0144345
687.512	0.0144896
687.590	0.0145449
687.668	0.0146563
687.746	0.0147180
687.825	0.0146954
687.903	0.0146625
687.981	0.0147437
688.059	0.0146574
688.137	0.0146723
688.215	0.0147704
688.293	0.0146878
688.371	0.0147392
688.450	0.0148826
688.528	0.0148029
688.606	0.0148099
688.684	0.0147635
688.762	0.0145641
688.840	0.0146584
688.918	0.0145598
688.996	0.0145300
689.075	0.0144982
689.153	0.0145555
689.231	0.0144830
689.309	0.0143259
689.387	0.0143399
689.465	0.0143984
689.543	0.0145370
689.621	0.0144092
689.700	0.0145538
689.778	0.0144977
689.856	0.0144667
689.934	0.0146093
690.012	0.0145142
690.090	0.0146053
690.168	0.0145238
690.246	0.0149416
690.325	0.0146273
690.403	0.0146779
690.481	0.0147121
690.559	0.0146770
690.637	0.0146875
690.715	0.0147490
690.793	0.0147865
690.871	0.0147135
690.950	0.0147023
691.028	0.0147147
691.106	0.0146896
691.184	0.0144183
691.262	0.0147858
691.340	0.0146952
691.418	0.0146449
691.496	0.0146045
691.575	0.0146092
691.653	0.0145380
691.731	0.0144635
691.809	0.0145795
691.887	0.0146391
691.965	0.0145312
692.043	0.0145135
692.121	0.0144993
692.200	0.0145608
692.278	0.0144535
692.356	0.0145885
692.434	0.0145633
692.512	0.0146799
692.590	0.0146901
692.668	0.0147885
692.746	0.0145399
692.825	0.0146970
692.903	0.0145694
692.981	0.0145178
693.059	0.0147076
693.137	0.0147315
693.215	0.0145210
693.293	0.0144787
693.371	0.0146812
693.450	0.0146178
693.528	0.0145399
693.606	0.0148530
693.684	0.0146738
693.762	0.0145660
693.840	0.0147437
693.918	0.0147420
693.996	0.0148068
694.075	0.0146950
694.153	0.0147292
694.231	0.0146955
694.309	0.0146654
694.387	0.0147187
694.465	0.0146671
694.543	0.0145656
694.621	0.0144181
694.700	0.0145667
694.778	0.0146697
694.856	0.0144353
694.934	0.0145645
695.012	0.0144485
695.090	0.0146182
695.168	0.0147404
695.246	0.0145683
695.325	0.0146210
695.403	0.0146400
695.481	0.0146503
695.559	0.0146355
695.637	0.0147065
695.715	0.0146906
695.793	0.0146761
695.871	0.0146812
695.950	0.0147858
696.028	0.0146638
696.106	0.0147533
696.184	0.0147534
696.262	0.0149224
696.340	0.0147861
696.418	0.0146838
696.496	0.0147224
696.575	0.0147885
696.653	0.0146771
696.731	0.0145648
696.809	0.0146754
696.887	0.0145570
696.965	0.0144276
697.043	0.0146059
697.121	0.0146543
697.200	0.0145134
697.278	0.0146009
697.356	0.0145645
697.434	0.0146030
697.512	0.0145609
697.590	0.0146822
697.668	0.0144990
697.746	0.0145356
697.825	0.0146420
697.903	0.0146194
697.981	0.0147604
698.059	0.0147248
698.137	0.0146828
698.215	0.0147841
698.293	0.0146429
698.371	0.0145451
698.450	0.0146957
698.528	0.0147088
698.606	0.0146505
698.684	0.0146423
698.762	0.0146375
698.840	0.0146379
698.918	0.0146173
698.996	0.0145973
699.075	0.0144805
699.153	0.0145055
699.231	0.0144749
699.309	0.0145898
699.387	0.0143995
699.465	0.0144226
699.543	0.0144490
699.621	0.0145545
699.700	0.0145907
699.778	0.0146196
699.856	0.0147665
699.934	0.0147952
700.012	0.0148906
700.090	0.0148546
700.168	0.0148571
700.246	0.0148286
700.325	0.0148626
700.403	0.0146645
700.481	0.0146498
700.559	0.0146944
700.637	0.0145969
700.715	0.0145093
700.793	0.0146816
700.871	0.0146915
700.950	0.0146633
701.028	0.0146788
701.106	0.0146967
701.184	0.0146150
701.262	0.0146159
701.340	0.0143462
701.418	0.0143044
701.496	0.0143093
701.575	0.0144184
701.653	0.0143677
701.731	0.0146091
701.809	0.0146867
701.887	0.0146075
701.965	0.0145975
702.043	0.0145132
702.121	0.0146502
702.200	0.0145685
702.278	0.0144222
702.356	0.0144952
702.434	0.0145626
702.512	0.0145470
702.590	0.0145726
702.668	0.0145712
702.746	0.0146702
702.825	0.0145650
702.903	0.0147662
702.981	0.0148500
703.059	0.0148957
703.137	0.0147971
703.215	0.0148288
703.293	0.0148892
703.371	0.0148389
703.450	0.0146357
703.528	0.0144308
703.606	0.0142702
703.684	0.0140832
703.762	0.0141320
703.840	0.0141870
703.918	0.0142673
703.996	0.0143845
704.075	0.0144757
704.153	0.0145038
704.231	0.0146532
704.309	0.0147117
704.387	0.0146341
704.465	0.0146158
704.543	0.0147382
704.621	0.0146967
704.700	0.0146622
704.778	0.0147855
704.856	0.0149179
704.934	0.0148384
705.012	0.0149115
705.090	0.0148531
705.168	0.0148771
705.246	0.0146462
705.325	0.0147900
705.403	0.0146793
705.481	0.0145647
705.559	0.0144453
705.637	0.0143826
705.715	0.0142790
705.793	0.0143186
705.871	0.0143655
705.950	0.0145412
706.028	0.0146516
706.106	0.0147288
706.184	0.0146069
706.262	0.0147147
706.340	0.0145922
706.418	0.0144556
706.496	0.0143666
706.575	0.0143356
706.653	0.0141577
706.731	0.0141504
706.809	0.0140565
706.887	0.0141503
706.965	0.0143079
707.043	0.0145189
707.121	0.0147699
707.200	0.0148901
707.278	0.0152660
707.356	0.0154254
707.434	0.0154498
707.512	0.0155809
707.590	0.0153380
707.668	0.0152431
707.746	0.0150156
707.825	0.0149832
707.903	0.0146188
707.981	0.0145887
708.059	0.0144695
708.137	0.0143597
708.215	0.0144853
708.293	0.0144842
708.371	0.0145011
708.450	0.0145145
708.528	0.0145052
708.606	0.0144163
708.684	0.0144513
708.762	0.0143553
708.840	0.0143349
708.918	0.0144436
708.996	0.0146807
709.075	0.0147644
709.153	0.0147017
709.231	0.0145910
709.309	0.0146304
709.387	0.0146399
709.465	0.0145416
709.543	0.0144711
709.621	0.0142738
709.700	0.0140194
709.778	0.0139935
709.856	0.0139066
709.934	0.0140182
710.012	0.0141282
710.090	0.0143503
710.168	0.0146529
710.246	0.0150870
710.325	0.0152744
710.403	0.0157060
710.481	0.0160504
710.559	0.0157990
710.637	0.0158182
710.715	0.0157646
710.793	0.0155864
710.871	0.0152515
710.950	0.0148767
711.028	0.0146461
711.106	0.0145238
711.184	0.0143851
711.262	0.0141704
711.340	0.0140573
711.418	0.0140908
711.496	0.0141238
711.575	0.0144184
711.653	0.0146561
711.731	0.0145419
711.809	0.0146026
711.887	0.0148862
711.965	0.0147861
712.043	0.0148240
712.121	0.0146386
712.200	0.0145183
712.278	0.0145650
712.356	0.0145417
712.434	0.0142296
712.512	0.0139101
712.590	0.0138477
712.668	0.0136967
712.746	0.0136288
712.825	0.0137884
712.903	0.0137403
712.981	0.0140187
713.059	0.0140075
713.137	0.0143944
713.215	0.0146915
713.293	0.0149998
713.371	0.0153741
713.450	0.0156380
713.528	0.0155166
713.606	0.0154678
713.684	0.0156330
713.762	0.0155720
713.840	0.0152914
713.918	0.0151123
713.996	0.0148514
714.075	0.0146467
714.153	0.0144125
714.231	0.0142776
714.309	0.0140926
714.387	0.0141394
714.465	0.0142387
714.543	0.0142628
714.621	0.0143435
714.700	0.0145275
714.778	0.0149104
714.856	0.0149982
714.934	0.0151005
715.012	0.0151402
715.090	0.0150549
715.168	0.0151258
715.246	0.0149736
715.325	0.0148755
715.403	0.0146484
715.481	0.0143829
715.559	0.0142713
715.637	0.0141521
715.715	0.0138449
715.793	0.0138084
715.871	0.0138303
715.950	0.0137782
716.028	0.0136817
716.106	0.0139619
716.184	0.0139776
716.262	0.0141187
716.340	0.0143185
716.418	0.0144621
716.496	0.0148743
716.575	0.0150152
716.653	0.0151514
716.731	0.0150781
716.809	0.0151746
716.887	0.0151490
716.965	0.0150546
717.043	0.0150423
717.121	0.0150241
717.200	0.0148846
717.278	0.0148193
717.356	0.0147489
717.434	0.0148259
717.512	0.0147104
717.590	0.0148104
717.668	0.0148273
717.746	0.0149368
717.825	0.0148657
717.903	0.0150049
717.981	0.0150788
718.059	0.0148978
718.137	0.0148470
718.215	0.0147232
718.293	0.0147379
718.371	0.0144778
718.450	0.0144572
718.528	0.0145159
718.606	0.0142403
718.684	0.0142912
718.762	0.0144013
718.840	0.0143107
718.918	0.0140951
718.996	0.0142490
719.075	0.0140976
719.153	0.0142279
719.231	0.0141545
719.309	0.0143291
719.387	0.0143256
719.465	0.0144102
719.543	0.0145363
719.621	0.0146078
719.700	0.0147258
719.778	0.0147376
719.856	0.0147629
719.934	0.0145331
720.012	0.0147548
720.090	0.0147085
720.168	0.0147223
720.246	0.0147572
720.325	0.0146583
720.403	0.0146021
720.481	0.0146072
720.559	0.0147292
720.637	0.0146466
720.715	0.0146760
720.793	0.0149168
720.871	0.0148372
720.950	0.0151295
721.028	0.0150008
721.106	0.0150267
721.184	0.0151546
721.262	0.0150723
721.340	0.0150513
721.418	0.0150557
721.496	0.0148193
721.575	0.0149700
721.653	0.0146661
721.731	0.0145708
721.809	0.0144897
721.887	0.0145321
721.965	0.0145323
722.043	0.0146112
722.121	0.0146709
722.200	0.0146034
722.278	0.0147201
722.356	0.0147685
722.434	0.0147220
722.512	0.0145945
722.590	0.0146512
722.668	0.0143567
722.746	0.0142564
722.825	0.0143048
722.903	0.0142381
722.981	0.0141081
723.059	0.0142521
723.137	0.0140903
723.215	0.0140204
723.293	0.0140125
723.371	0.0142502
723.450	0.0143846
723.528	0.0143680
723.606	0.0145925
723.684	0.0145663
723.762	0.0146040
723.840	0.0147388
723.918	0.0147401
723.996	0.0147277
724.075	0.0148991
724.153	0.0149062
724.231	0.0150042
724.309	0.0149953
724.387	0.0149841
724.465	0.0150398
724.543	0.0149751
724.621	0.0150298
724.700	0.0150390
724.778	0.0149432
724.856	0.0149351
724.934	0.0149380
725.012	0.0148970
725.090	0.0149146
725.168	0.0148524
725.246	0.0148305
725.325	0.0146882
725.403	0.0147806
725.481	0.0146584
725.559	0.0145998
725.637	0.0146383
725.715	0.0146143
725.793	0.0145667
725.871	0.0144270
725.950	0.0146167
726.028	0.0146366
726.106	0.0144666
726.184	0.0145470
726.262	0.0145124
726.340	0.0143568
726.418	0.0143482
726.496	0.0143981
726.575	0.0142223
726.653	0.0142283
726.731	0.0142978
726.809	0.0142162
726.887	0.0141993
726.965	0.0142483
727.043	0.0143074
727.121	0.0144373
727.200	0.0143678
727.278	0.0145518
727.356	0.0144694
727.434	0.0146351
727.512	0.0146188
727.590	0.0146619
727.668	0.0146395
727.746	0.0146809
727.825	0.0146950
727.903	0.0146563
727.981	0.0147441
728.059	0.0149976
728.137	0.0148549
728.215	0.0148436
728.293	0.0148521
728.371	0.0148617
728.450	0.0148032
728.528	0.0148519
728.606	0.0147944
728.684	0.0147234
728.762	0.0147130
728.840	0.0146713
728.918	0.0147382
728.996	0.0148100
729.075	0.0146947
729.153	0.0148276
729.231	0.0147820
729.309	0.0148661
729.387	0.0148244
729.465	0.0149280
729.543	0.0148524
729.621	0.0147346
729.700	0.0147560
729.778	0.0146806
729.856	0.0146573
729.934	0.0145484
730.012	0.0143524
730.090	0.0144131
730.168	0.0144396
730.246	0.0143412
730.325	0.0142220
730.403	0.0142675
730.481	0.0142031
730.559	0.0143118
730.637	0.0143919
730.715	0.0144161
730.793	0.0144160
730.871	0.0146638
730.950	0.0146236
731.028	0.0148577
731.106	0.0147787
731.184	0.0148004
731.262	0.0148378
731.340	0.0147206
731.418	0.0148569
731.496	0.0146989
731.575	0.0147533
731.653	0.0146731
731.731	0.0146648
731.809	0.0147821
731.887	0.0147432
731.965	0.0147719
732.043	0.0147049
732.121	0.0146786
732.200	0.0147892
732.278	0.0146684
732.356	0.0147271
732.434	0.0146415
732.512	0.0146408
732.590	0.0145512
732.668	0.0145113
732.746	0.0145285
732.825	0.0145475
732.903	0.0145049
732.981	0.0142903
733.059	0.0144701
733.137	0.0144244
733.215	0.0143394
733.293	0.0144411
733.371	0.0146826
733.450	0.0145296
733.528	0.0146430
733.606	0.0147183
733.684	0.0149082
733.762	0.0148540
733.840	0.0147564
733.918	0.0149986
733.996	0.0149405
734.075	0.0149950
734.153	0.0149225
734.231	0.0148349
734.309	0.0147997
734.387	0.0146854
734.465	0.0147270
734.543	0.0146743
734.621	0.0145971
734.700	0.0146372
734.778	0.0147025
734.856	0.0146712
734.934	0.0146166
735.012	0.0146901
735.090	0.0145911
735.168	0.0145992
735.246	0.0146397
735.325	0.0145771
735.403	0.0144270
735.481	0.0144671
735.559	0.0144302
735.637	0.0143510
735.715	0.0144086
735.793	0.0142923
735.871	0.0143403
735.950	0.0143198
736.028	0.0143246
736.106	0.0143040
736.184	0.0144141
736.262	0.0143941
736.340	0.0144556
736.418	0.0144949
736.496	0.0143888
736.575	0.0146380
736.653	0.0146770
736.731	0.0145979
736.809	0.0147289
736.887	0.0147953
736.965	0.0148323
737.043	0.0147000
737.121	0.0148825
737.200	0.0148420
737.278	0.0148634
737.356	0.0149841
737.434	0.0148711
737.512	0.0148273
737.590	0.0147456
737.668	0.0148686
737.746	0.0148692
737.825	0.0147118
737.903	0.0147466
737.981	0.0149551
738.059	0.0148642
738.137	0.0146215
738.215	0.0147762
738.293	0.0147343
738.371	0.0147703
738.450	0.0146644
738.528	0.0145807
738.606	0.0146301
738.684	0.0145744
738.762	0.0145034
738.840	0.0144559
738.918	0.0145463
738.996	0.0143887
739.075	0.0144733
739.153	0.0144706
739.231	0.0143906
739.309	0.0143684
739.387	0.0143111
739.465	0.0144166
739.543	0.0142036
739.621	0.0142131
739.700	0.0143492
739.778	0.0143113
739.856	0.0144514
739.934	0.0142860
740.012	0.0141521
740.090	0.0143375
740.168	0.0143437
740.246	0.0144347
740.325	0.0144519
740.403	0.0144446
740.481	0.0145349
740.559	0.0145065
740.637	0.0146600
740.715	0.0148389
740.793	0.0147345
740.871	0.0148680
740.950	0.0148801
741.028	0.0149470
741.106	0.0151218
741.184	0.0150339
741.262	0.0152426
741.340	0.0150146
741.418	0.0149798
741.496	0.0152295
741.575	0.0150066
741.653	0.0148318
741.731	0.0148073
741.809	0.0147269
741.887	0.0147049
741.965	0.0148117
742.043	0.0147292
742.121	0.0144570
742.200	0.0143589
742.278	0.0144796
742.356	0.0144868
742.434	0.0142563
742.512	0.0143710
742.590	0.0144808
742.668	0.0143040
742.746	0.0144903
742.825	0.0145161
742.903	0.0146240
742.981	0.0145472
743.059	0.0145893
743.137	0.0145065
743.215	0.0145053
743.293	0.0145210
743.371	0.0144956
743.450	0.0143846
743.528	0.0142928
743.606	0.0142516
743.684	0.0141853
743.762	0.0145177
743.840	0.0143805
743.918	0.0143841
743.996	0.0145081
744.075	0.0145312
744.153	0.0147829
744.231	0.0147693
744.309	0.0148547
744.387	0.0148804
744.465	0.0149133
744.543	0.0149834
744.621	0.0152084
744.700	0.0150326
744.778	0.0150713
744.856	0.0150467
744.934	0.0149171
745.012	0.0148565
745.090	0.0148985
745.168	0.0149804
745.246	0.0148436
745.325	0.0148281
745.403	0.0149640
745.481	0.0146806
745.559	0.0147520
745.637	0.0146337
745.715	0.0146437
745.793	0.0144949
745.871	0.0145629
745.950	0.0146510
746.028	0.0146948
746.106	0.0145404
746.184	0.0145508
746.262	0.0145515
746.340	0.0143600
746.418	0.0144557
746.496	0.0144884
746.575	0.0144831
746.653	0.0142693
746.731	0.0143729
746.809	0.0143686
746.887	0.0144035
746.965	0.0145238
747.043	0.0147642
747.121	0.0145812
747.200	0.0144755
747.278	0.0146032
747.356	0.0146771
747.434	0.0148341
747.512	0.0146680
747.590	0.0145683
747.668	0.0145262
747.746	0.0146816
747.825	0.0146886
747.903	0.0146088
747.981	0.0147741
748.059	0.0146764
748.137	0.0146600
748.215	0.0147718
748.293	0.0147788
748.371	0.0148129
748.450	0.0146284
748.528	0.0147451
748.606	0.0147603
748.684	0.0148889
748.762	0.0147604
748.840	0.0147872
748.918	0.0148436
748.996	0.0148318
749.075	0.0147588
749.153	0.0146433
749.231	0.0146442
749.309	0.0146491
749.387	0.0145089
749.465	0.0144974
749.543	0.0143706
749.621	0.0142812
749.700	0.0144389
749.778	0.0141578
749.856	0.0143327
749.934	0.0143192
750.012	0.0141909
750.090	0.0144643
750.168	0.0142831
750.246	0.0143934
750.325	0.0145631
750.403	0.0144489
750.481	0.0147533
750.559	0.0146001
750.637	0.0147941
750.715	0.0148592
750.793	0.0148528
750.871	0.0149194
750.950	0.0147211
751.028	0.0146516
751.106	0.0147519
751.184	0.0148342
751.262	0.0147073
751.340	0.0147710
751.418	0.0146479
751.496	0.0146832
751.575	0.0148869
751.653	0.0147167
751.731	0.0148086
751.809	0.0148047
751.887	0.0148872
751.965	0.0148107
752.043	0.0147667
752.121	0.0146852
752.200	0.0146348
752.278	0.0145866
752.356	0.0146238
752.434	0.0146785
752.512	0.0147541
752.590	0.0145763
752.668	0.0145288
752.746	0.0145146
752.825	0.0145303
752.903	0.0144974
752.981	0.0143688
753.059	0.0143726
753.137	0.0144511
753.215	0.0144902
753.293	0.0143842
753.371	0.0142988
753.450	0.0144164
753.528	0.0144314
753.606	0.0144957
753.684	0.0145797
753.762	0.0144267
753.840	0.0145082
753.918	0.0144366
753.996	0.0144776
754.075	0.0145648
754.153	0.0146527
754.231	0.0146511
754.309	0.0146734
754.387	0.0146572
754.465	0.0145868
754.543	0.0145985
754.621	0.0148384
754.700	0.0148344
754.778	0.0147969
754.856	0.0149245
754.934	0.0150375
755.012	0.0149097
755.090	0.0149356
755.168	0.0149850
755.246	0.0148480
755.325	0.0148712
755.403	0.0150116
755.481	0.0149361
755.559	0.0148489
755.637	0.0147031
755.715	0.0146864
755.793	0.0148042
755.871	0.0146924
755.950	0.0146267
756.028	0.0146246
756.106	0.0144722
756.184	0.0144220
756.262	0.0144424
756.340	0.0144916
756.418	0.0145601
756.496	0.0144623
756.575	0.0144051
756.653	0.0144154
756.731	0.0143027
756.809	0.0143662
756.887	0.0144860
756.965	0.0144960
757.043	0.0143753
757.121	0.0143759
757.200	0.0144306
757.278	0.0144976
757.356	0.0145472
757.434	0.0146147
757.512	0.0146928
757.590	0.0146398
757.668	0.0145982
757.746	0.0146601
757.825	0.0146481
757.903	0.0146897
757.981	0.0145602
758.059	0.0146295
758.137	0.0146976
758.215	0.0148762
758.293	0.0148152
758.371	0.0147369
758.450	0.0147600
758.528	0.0148760
758.606	0.0148287
758.684	0.0149042
758.762	0.0147889
758.840	0.0148801
758.918	0.0148425
758.996	0.0148206
759.075	0.0146867
759.153	0.0146594
759.231	0.0148341
759.309	0.0147008
759.387	0.0147396
759.465	0.0148772
759.543	0.0148298
759.621	0.0145058
759.700	0.0146045
759.778	0.0146373
759.856	0.0146123
759.934	0.0145999
760.012	0.0146629
760.090	0.0146174
760.168	0.0145689
760.246	0.0144499
760.325	0.0145665
760.403	0.0145800
760.481	0.0144804
760.559	0.0145963
760.637	0.0145018
760.715	0.0145068
760.793	0.0145129
760.871	0.0145446
760.950	0.0145184
761.028	0.0145065
761.106	0.0145161
761.184	0.0146397
761.262	0.0144712
761.340	0.0144701
761.418	0.0145757
761.496	0.0146893
761.575	0.0147483
761.653	0.0145895
761.731	0.0145716
761.809	0.0146811
761.887	0.0146398
761.965	0.0146847
762.043	0.0145021
762.121	0.0145991
762.200	0.0145608
762.278	0.0146262
762.356	0.0146308
762.434	0.0147794
762.512	0.0148296
762.590	0.0147912
762.668	0.0148965
762.746	0.0147405
762.825	0.0147611
762.903	0.0148264
762.981	0.0149210
763.059	0.0147043
763.137	0.0147954
763.215	0.0147594
763.293	0.0145661
763.371	0.0145945
763.450	0.0146912
763.528	0.0146089
763.606	0.0145828
763.684	0.0144731
763.762	0.0146111
763.840	0.0144151
763.918	0.0144064
763.996	0.0143423
764.075	0.0144069
764.153	0.0144778
764.231	0.0144313
764.309	0.0145113
764.387	0.0143430
764.465	0.0144062
764.543	0.0144509
764.621	0.0145547
764.700	0.0144437
764.778	0.0144657
764.856	0.0144836
764.934	0.0144965
765.012	0.0144895
765.090	0.0145403
765.168	0.0146644
765.246	0.0145743
765.325	0.0146439
765.403	0.0146371
765.481	0.0147419
765.559	0.0146518
765.637	0.0147887
765.715	0.0147470
765.793	0.0147280
765.871	0.0146936
765.950	0.0148111
766.028	0.0146750
766.106	0.0146356
766.184	0.0147391
766.262	0.0146893
766.340	0.0147196
766.418	0.0148734
766.496	0.0147528
766.575	0.0147650
766.653	0.0147133
766.731	0.0147163
766.809	0.0147477
766.887	0.0146385
766.965	0.0145563
767.043	0.0146787
767.121	0.0145754
767.200	0.0146636
767.278	0.0146285
767.356	0.0146902
767.434	0.0147033
767.512	0.0146603
767.590	0.0146696
767.668	0.0146451
767.746	0.0146058
767.825	0.0144841
767.903	0.0144961
767.981	0.0145066
768.059	0.0144589
768.137	0.0144776
768.215	0.0145385
768.293	0.0145937
768.371	0.0145194
768.450	0.0145560
768.528	0.0144235
768.606	0.0145621
768.684	0.0146796
768.762	0.0146188
768.840	0.0145062
768.918	0.0146770
768.996	0.0146629
769.075	0.0145852
769.153	0.0146129
769.231	0.0147778
769.309	0.0147202
769.387	0.0145970
769.465	0.0146533
769.543	0.0146719
769.621	0.0147470
769.700	0.0147074
769.778	0.0146595
769.856	0.0146387
769.934	0.0146651
770.012	0.0147262
770.090	0.0147327
770.168	0.0146204
770.246	0.0145444
770.325	0.0145866
770.403	0.0146411
770.481	0.0146699
770.559	0.0146684
770.637	0.0147600
770.715	0.0146627
770.793	0.0147588
770.871	0.0144057
770.950	0.0145786
771.028	0.0146519
771.106	0.0145459
771.184	0.0146896
771.262	0.0145494
771.340	0.0145755
771.418	0.0146096
771.496	0.0148185
771.575	0.0145251
771.653	0.0147281
771.731	0.0146154
771.809	0.0145853
771.887	0.0145822
771.965	0.0146028
772.043	0.0146630
772.121	0.0145216
772.200	0.0146703
772.278	0.0146467
772.356	0.0146639
772.434	0.0146645
772.512	0.0145912
772.590	0.0147626
772.668	0.0147370
772.746	0.0148306
772.825	0.0147374
772.903	0.0147469
772.981	0.0145625
773.059	0.0146204
773.137	0.0146088
773.215	0.0146434
773.293	0.0147120
773.371	0.0145048
773.450	0.0146622
773.528	0.0147265
773.606	0.0147103
773.684	0.0144857
773.762	0.0145909
773.840	0.0146237
773.918	0.0146782
773.996	0.0145700
774.075	0.0145963
774.153	0.0147366
774.231	0.0147155
774.309	0.0146394
774.387	0.0146068
774.465	0.0147169
774.543	0.0147002
774.621	0.0145708
774.700	0.0146426
774.778	0.0146368
774.856	0.0145805
774.934	0.0147410
775.012	0.0146059
775.090	0.0147899
775.168	0.0147104
775.246	0.0146110
775.325	0.0146638
775.403	0.0146941
775.481	0.0146299
775.559	0.0147395
775.637	0.0146378
775.715	0.0146049
775.793	0.0147365
775.871	0.0146488
775.950	0.0145950
776.028	0.0146049
776.106	0.0146850
776.184	0.0145135
776.262	0.0146275
776.340	0.0146557
776.418	0.0145814
776.496	0.0146576
776.575	0.0146405
776.653	0.0146826
776.731	0.0146588
776.809	0.0147571
776.887	0.0147179
776.965	0.0146523
777.043	0.0146984
777.121	0.0147122
777.200	0.0147666
777.278	0.0145303
777.356	0.0147135
777.434	0.0146723
777.512	0.0146235
777.590	0.0145321
777.668	0.0146353
777.746	0.0146648
777.825	0.0145041
777.903	0.0144393
777.981	0.0145862
778.059	0.0146606
778.137	0.0146458
778.215	0.0144714
778.293	0.0146851
778.371	0.0146166
778.450	0.0145622
778.528	0.0146181
778.606	0.0146366
778.684	0.0147127
778.762	0.0148012
778.840	0.0147253
778.918	0.0146588
778.996	0.0146911
779.075	0.0146539
779.153	0.0146310
779.231	0.0147222
779.309	0.0148254
779.387	0.0148052
779.465	0.0146770
779.543	0.0149258
779.621	0.0147102
779.700	0.0148069
779.778	0.0147150
779.856	0.0147908
779.934	0.0148302
780.012	0.0147654
780.090	0.0148038
780.168	0.0148277
780.246	0.0147920
780.325	0.0146399
780.403	0.0144844
780.481	0.0147810
780.559	0.0146684
780.637	0.0146121
780.715	0.0146869
780.793	0.0146442
780.871	0.0147861
780.950	0.0146090
781.028	0.0148663
781.106	0.0145930
781.184	0.0147789
781.262	0.0146571
781.340	0.0148209
781.418	0.0146348
781.496	0.0146877
781.575	0.0146758
781.653	0.0146268
781.731	0.0146999
781.809	0.0147034
781.887	0.0145609
781.965	0.0146104
782.043	0.0145257
782.121	0.0145083
782.200	0.0145204
782.278	0.0145203
782.356	0.0143618
782.434	0.0145950
782.512	0.0145443
782.590	0.0144305
782.668	0.0144942
782.746	0.0145234
782.825	0.0146792
782.903	0.0147124
782.981	0.0146481
783.059	0.0145055
783.137	0.0144154
783.215	0.0145027
783.293	0.0148010
783.371	0.0145517
783.450	0.0146389
783.528	0.0147513
783.606	0.0146732
783.684	0.0147620
783.762	0.0147686
783.840	0.0148876
783.918	0.0147675
783.996	0.0146687
784.075	0.0147383
784.153	0.0146540
784.231	0.0147238
784.309	0.0146319
784.387	0.0147038
784.465	0.0146578
784.543	0.0146166
784.621	0.0145327
784.700	0.0145970
784.778	0.0147126
784.856	0.0144798
784.934	0.0144972
785.012	0.0146394
785.090	0.0146427
785.168	0.0144736
785.246	0.0146810
785.325	0.0145837
785.403	0.0144965
785.481	0.0145387
785.559	0.0146755
785.637	0.0147277
785.715	0.0145778
785.793	0.0144497
785.871	0.0145316
785.950	0.0144904
786.028	0.0146632
786.106	0.0147184
786.184	0.0146523
786.262	0.0144965
786.340	0.0145036
786.418	0.0144794
786.496	0.0145683
786.575	0.0145770
786.653	0.0146451
786.731	0.0146210
786.809	0.0145593
786.887	0.0144604
786.965	0.0145275
787.043	0.0145821
787.121	0.0146008
787.200	0.0145733
787.278	0.0146425
787.356	0.0146409
787.434	0.0147203
787.512	0.0145544
787.590	0.0145927
787.668	0.0145197
787.746	0.0145464
787.825	0.0147122
787.903	0.0146104
787.981	0.0146428
788.059	0.0147146
788.137	0.0147337
788.215	0.0146944
788.293	0.0145912
788.371	0.0146848
788.450	0.0146389
788.528	0.0146214
788.606	0.0146699
788.684	0.0146830
788.762	0.0145190
788.840	0.0146177
788.918	0.0145302
788.996	0.0146474
789.075	0.0147710
789.153	0.0146825
789.231	0.0147254
789.309	0.0144827
789.387	0.0146161
789.465	0.0147242
789.543	0.0146622
789.621	0.0146750
789.700	0.0147025
789.778	0.0146447
789.856	0.0147084
789.934	0.0145248
790.012	0.0145550
790.090	0.0146888
790.168	0.0145013
790.246	0.0144550
790.325	0.0144602
790.403	0.0146170
790.481	0.0145401
790.559	0.0145800
790.637	0.0145116
790.715	0.0145035
790.793	0.0145786
790.871	0.0145792
790.950	0.0146142
791.028	0.0145224
791.106	0.0146153
791.184	0.0148650
791.262	0.0145857
791.340	0.0146397
791.418	0.0146690
791.496	0.0146011
791.575	0.0146140
791.653	0.0148009
791.731	0.0147881
791.809	0.0147347
791.887	0.0147772
791.965	0.0148113
792.043	0.0147378
792.121	0.0148289
792.200	0.0147585
792.278	0.0148493
792.356	0.0145973
792.434	0.0147945
792.512	0.0146279
792.590	0.0146490
792.668	0.0147569
792.746	0.0146541
792.825	0.0146938
792.903	0.0148014
792.981	0.0147768
793.059	0.0147462
793.137	0.0147144
793.215	0.0146815
793.293	0.0146219
793.371	0.0146735
793.450	0.0146269
793.528	0.0146303
793.606	0.0147177
793.684	0.0146072
793.762	0.0147371
793.840	0.0146559
793.918	0.0148031
793.996	0.0146323
794.075	0.0146618
794.153	0.0147591
794.231	0.0147079
794.309	0.0146648
794.387	0.0145287
794.465	0.0145918
794.543	0.0146642
794.621	0.0145239
794.700	0.0145531
794.778	0.0145115
794.856	0.0147411
794.934	0.0145849
795.012	0.0147492
795.090	0.0147132
795.168	0.0147688
795.246	0.0147419
795.325	0.0147274
795.403	0.0147328
795.481	0.0146902
795.559	0.0146629
795.637	0.0148442
795.715	0.0147135
795.793	0.0147337
795.871	0.0147775
795.950	0.0146816
796.028	0.0147414
796.106	0.0146827
796.184	0.0147079
796.262	0.0146923
796.340	0.0145881
796.418	0.0146835
796.496	0.0148966
796.575	0.0147031
796.653	0.0147243
796.731	0.0146221
796.809	0.0147086
796.887	0.0145838
796.965	0.0147378
797.043	0.0146725
797.121	0.0146072
797.200	0.0146331
797.278	0.0147076
797.356	0.0146719
797.434	0.0146896
797.512	0.0146763
797.590	0.0147415
797.668	0.0146037
797.746	0.0146672
797.825	0.0146076
797.903	0.0147174
797.981	0.0146612
798.059	0.0145544
798.137	0.0145447
798.215	0.0147380
798.293	0.0148148
798.371	0.0146342
798.450	0.0145121
798.528	0.0146140
798.606	0.0146093
798.684	0.0146833
798.762	0.0146559
798.840	0.0146873
798.918	0.0147173
798.996	0.0147601
799.075	0.0146309
799.153	0.0146723
799.231	0.0147367
799.309	0.0146837
799.387	0.0147344
799.465	0.0148264
799.543	0.0146721
799.621	0.0145522
799.700	0.0145907
799.778	0.0146906
799.856	0.0147268
799.934	0.0145615
800.012	0.0146066
800.090	0.0145448
800.168	0.0146632
800.246	0.0145495
800.325	0.0144870
800.403	0.0146714
800.481	0.0145292
800.559	0.0147153
800.637	0.0146876
800.715	0.0147715
800.793	0.0146732
800.871	0.0145750
800.950	0.0146275
801.028	0.0146775
801.106	0.0147123
801.184	0.0147418
801.262	0.0147345
801.340	0.0146715
801.418	0.0145590
801.496	0.0145222
801.575	0.0146867
801.653	0.0147253
801.731	0.0146979
801.809	0.0146111
801.887	0.0145745
801.965	0.0145415
802.043	0.0145811
802.121	0.0147050
802.200	0.0146504
802.278	0.0145757
802.356	0.0146354
802.434	0.0146971
802.512	0.0146011
802.590	0.0145794
802.668	0.0145843
802.746	0.0146766
802.825	0.0145972
802.903	0.0146462
802.981	0.0147218
803.059	0.0147289
803.137	0.0146744
803.215	0.0146914
803.293	0.0146991
803.371	0.0147740
803.450	0.0148414
803.528	0.0146944
803.606	0.0147174
803.684	0.0145919
803.762	0.0146947
803.840	0.0146433
803.918	0.0146450
803.996	0.0146187
804.075	0.0148188
804.153	0.0145965
804.231	0.0145471
804.309	0.0145932
804.387	0.0145553
804.465	0.0145906
804.543	0.0145908
804.621	0.0147144
804.700	0.0146737
804.778	0.0145835
804.856	0.0146036
804.934	0.0145477
805.012	0.0146291
805.090	0.0146487
805.168	0.0146410
805.246	0.0146583
805.325	0.0146727
805.403	0.0145434
805.481	0.0146037
805.559	0.0145017
805.637	0.0145477
805.715	0.0144585
805.793	0.0145284
805.871	0.0145706
805.950	0.0146781
806.028	0.0145525
806.106	0.0144761
806.184	0.0146401
806.262	0.0147350
806.340	0.0146626
806.418	0.0146381
806.496	0.0146513
806.575	0.0147355
806.653	0.0146044
806.731	0.0147123
806.809	0.0147161
806.887	0.0146948
806.965	0.0147026
807.043	0.0148033
807.121	0.0146275
807.200	0.0146342
807.278	0.0147512
807.356	0.0146960
807.434	0.0145726
807.512	0.0146522
807.590	0.0146320
807.668	0.0145403
807.746	0.0145237
807.825	0.0146907
807.903	0.0146920
807.981	0.0145604
808.059	0.0145695
808.137	0.0145773
808.215	0.0146175
808.293	0.0145007
808.371	0.0144909
808.450	0.0146318
808.528	0.0144492
808.606	0.0146999
808.684	0.0144806
808.762	0.0145946
808.840	0.0146819
808.918	0.0145220
808.996	0.0145538
809.075	0.0147633
809.153	0.0147518
809.231	0.0145562
809.309	0.0147830
809.387	0.0145865
809.465	0.0147262
809.543	0.0145971
809.621	0.0145025
809.700	0.0146003
809.778	0.0148158
809.856	0.0146419
809.934	0.0145425
810.012	0.0146078
810.090	0.0148590
810.168	0.0148138
810.246	0.0147095
810.325	0.0146411
810.403	0.0146900
810.481	0.0147269
810.559	0.0148049
810.637	0.0147379
810.715	0.0147580
810.793	0.0146714
810.871	0.0148345
810.950	0.0147329
811.028	0.0146864
811.106	0.0147196
811.184	0.0145288
811.262	0.0146498
811.340	0.0146879
811.418	0.0145125
811.496	0.0144314
811.575	0.0145323
811.653	0.0144940
811.731	0.0146247
811.809	0.0144064
811.887	0.0145280
811.965	0.0145436
812.043	0.0145940
812.121	0.0144786
812.200	0.0145541
812.278	0.0144847
812.356	0.0145790
812.434	0.0146800
812.512	0.0147492
812.590	0.0145264
812.668	0.0145937
812.746	0.0148148
812.825	0.0147057
812.903	0.0146336
812.981	0.0146500
813.059	0.0147437
813.137	0.0147650
813.215	0.0147900
813.293	0.0145328
813.371	0.0146127
813.450	0.0147159
813.528	0.0146953
813.606	0.0147314
813.684	0.0146787
813.762	0.0146712
813.840	0.0148097
813.918	0.0145530
813.996	0.0146182
814.075	0.0146660
814.153	0.0146126
814.231	0.0146217
814.309	0.0146364
814.387	0.0145732
814.465	0.0145383
814.543	0.0145853
814.621	0.0146421
814.700	0.0146719
814.778	0.0146496
814.856	0.0145727
814.934	0.0146618
815.012	0.0147460
815.090	0.0147212
815.168	0.0146918
815.246	0.0147029
815.325	0.0145184
815.403	0.0145731
815.481	0.0146526
815.559	0.0147444
815.637	0.0146473
815.715	0.0146907
815.793	0.0146210
815.871	0.0146626
815.950	0.0146706
816.028	0.0147500
816.106	0.0145751
816.184	0.0147246
816.262	0.0147627
816.340	0.0146786
816.418	0.0147534
816.496	0.0147039
816.575	0.0145928
816.653	0.0146329
816.731	0.0146701
816.809	0.0147485
816.887	0.0147269
816.965	0.0147635
817.043	0.0147116
817.121	0.0145982
817.200	0.0145512
817.278	0.0146662
817.356	0.0146087
817.434	0.0147356
817.512	0.0145731
817.590	0.0146046
817.668	0.0146729
817.746	0.0145831
817.825	0.0145300
817.903	0.0144433
817.981	0.0146061
818.059	0.0147704
818.137	0.0146384
818.215	0.0146268
818.293	0.0148119
818.371	0.0147305
818.450	0.0146370
818.528	0.0146926
818.606	0.0145651
818.684	0.0147765
818.762	0.0146826
818.840	0.0147057
818.918	0.0145708
818.996	0.0146650
819.075	0.0147545
819.153	0.0146478
819.231	0.0145732
819.309	0.0146600
819.387	0.0146365
819.465	0.0146667
819.543	0.0146726
819.621	0.0147781
819.700	0.0147204
819.778	0.0146951
819.856	0.0147670
819.934	0.0146764
820.012	0.0146940
820.090	0.0148388
820.168	0.0146406
820.246	0.0146960
820.325	0.0147954
820.403	0.0146557
820.481	0.0147368
820.559	0.0146720
820.637	0.0146864
820.715	0.0146578
820.793	0.0145738
820.871	0.0147367
820.950	0.0145694
821.028	0.0146695
821.106	0.0147458
821.184	0.0146682
821.262	0.0146323
821.340	0.0146015
821.418	0.0145673
821.496	0.0146899
821.575	0.0147404
821.653	0.0147540
821.731	0.0146748
821.809	0.0146758
821.887	0.0146407
821.965	0.0146210
822.043	0.0146460
822.121	0.0146700
822.200	0.0146195
822.278	0.0146669
822.356	0.0146822
822.434	0.0146025
822.512	0.0146890
822.590	0.0146905
822.668	0.0147108
822.746	0.0146973
822.825	0.0147517
822.903	0.0146128
822.981	0.0146770
823.059	0.0147287
823.137	0.0147092
823.215	0.0146346
823.293	0.0147937
823.371	0.0146539
823.450	0.0146622
823.528	0.0146403
823.606	0.0145324
823.684	0.0145383
823.762	0.0146680
823.840	0.0146383
823.918	0.0146304
823.996	0.0146239
824.075	0.0145689
824.153	0.0144749
824.231	0.0145695
824.309	0.0146543
824.387	0.0146214
824.465	0.0145657
824.543	0.0147403
824.621	0.0146507
824.700	0.0145564
824.778	0.0146784
824.856	0.0146497
824.934	0.0146705
825.012	0.0146992
825.090	0.0148300
825.168	0.0147951
825.246	0.0145350
825.325	0.0147102
825.403	0.0146982
825.481	0.0147205
825.559	0.0146596
825.637	0.0146630
825.715	0.0146315
825.793	0.0146862
825.871	0.0146220
825.950	0.0145895
826.028	0.0146352
826.106	0.0145985
826.184	0.0145397
826.262	0.0147034
826.340	0.0146749
826.418	0.0146599
826.496	0.0146152
826.575	0.0146922
826.653	0.0147314
826.731	0.0146353
826.809	0.0147932
826.887	0.0148193
826.965	0.0146629
827.043	0.0145378
827.121	0.0148622
827.200	0.0147799
827.278	0.0146570
827.356	0.0147019
827.434	0.0148474
827.512	0.0146553
827.590	0.0145831
827.668	0.0146228
827.746	0.0146681
827.825	0.0146701
827.903	0.0146378
827.981	0.0146035
828.059	0.0144824
828.137	0.0146458
828.215	0.0144738
828.293	0.0145636
828.371	0.0146858
828.450	0.0145988
828.528	0.0146239
828.606	0.0146038
828.684	0.0145677
828.762	0.0145810
828.840	0.0144415
828.918	0.0145474
828.996	0.0145923
829.075	0.0145673
829.153	0.0145847
829.231	0.0146296
829.309	0.0145684
829.387	0.0145175
829.465	0.0147231
829.543	0.0145741
829.621	0.0145074
829.700	0.0148035
829.778	0.0147180
829.856	0.0145718
829.934	0.0145343
830.012	0.0147727
830.090	0.0146848
830.168	0.0145784
830.246	0.0146200
830.325	0.0146934
830.403	0.0146281
830.481	0.0145804
830.559	0.0144994
830.637	0.0145468
830.715	0.0146315
830.793	0.0145479
830.871	0.0144864
830.950	0.0144788
831.028	0.0145781
831.106	0.0145821
831.184	0.0146709
831.262	0.0147386
831.340	0.0146313
831.418	0.0145309
831.496	0.0147118
831.575	0.0146445
831.653	0.0146183
831.731	0.0144965
831.809	0.0145318
831.887	0.0145786
831.965	0.0146112
832.043	0.0145683
832.121	0.0146023
832.200	0.0145177
832.278	0.0143545
832.356	0.0146512
832.434	0.0145795
832.512	0.0145735
832.590	0.0147134
832.668	0.0146304
832.746	0.0145551
832.825	0.0145893
832.903	0.0144971
832.981	0.0146579
833.059	0.0146550
833.137	0.0146165
833.215	0.0146806
833.293	0.0149020
833.371	0.0148094
833.450	0.0146182
833.528	0.0147342
833.606	0.0147903
833.684	0.0147247
833.762	0.0146649
833.840	0.0146989
833.918	0.0146581
833.996	0.0145738
834.075	0.0146505
834.153	0.0145114
834.231	0.0146996
834.309	0.0146735
834.387	0.0145547
834.465	0.0145802
834.543	0.0146817
834.621	0.0147201
834.700	0.0146371
834.778	0.0145918
834.856	0.0147628
834.934	0.0146413
835.012	0.0144730
835.090	0.0146072
835.168	0.0145225
835.246	0.0145807
835.325	0.0144989
835.403	0.0143984
835.481	0.0146246
835.559	0.0146619
835.637	0.0145148
835.715	0.0144125
835.793	0.0146242
835.871	0.0147541
835.950	0.0146022
836.028	0.0147027
836.106	0.0146391
836.184	0.0145782
836.262	0.0145920
836.340	0.0146243
836.418	0.0146617
836.496	0.0146416
836.575	0.0145307
836.653	0.0146790
836.731	0.0146041
836.809	0.0147125
836.887	0.0148330
836.965	0.0147347
837.043	0.0146587
837.121	0.0146721
837.200	0.0147090
837.278	0.0146960
837.356	0.0146856
837.434	0.0145129
837.512	0.0146846
837.590	0.0146880
837.668	0.0146522
837.746	0.0146979
837.825	0.0145899
837.903	0.0146029
837.981	0.0146635
838.059	0.0146132
838.137	0.0146376
838.215	0.0145231
838.293	0.0145013
838.371	0.0145332
838.450	0.0146486
838.528	0.0146060
838.606	0.0146418
838.684	0.0146083
838.762	0.0144875
838.840	0.0145914
838.918	0.0146069
838.996	0.0146603
839.075	0.0145956
839.153	0.0145491
839.231	0.0146411
839.309	0.0147334
839.387	0.0145885
839.465	0.0146469
839.543	0.0146490
839.621	0.0147147
839.700	0.0147591
839.778	0.0146832
839.856	0.0147038
839.934	0.0146179
840.012	0.0146197
840.090	0.0146773
840.168	0.0147836
840.246	0.0146433
840.325	0.0146546
840.403	0.0145914
840.481	0.0145245
840.559	0.0145686
840.637	0.0145921
840.715	0.0146099
840.793	0.0144902
840.871	0.0145087
840.950	0.0146558
841.028	0.0145893
841.106	0.0146898
841.184	0.0146692
841.262	0.0145980
841.340	0.0145964
841.418	0.0146083
841.496	0.0146284
841.575	0.0144860
841.653	0.0146187
841.731	0.0146467
841.809	0.0147044
841.887	0.0147156
841.965	0.0146772
842.043	0.0145484
842.121	0.0147224
842.200	0.0147074
842.278	0.0146442
842.356	0.0145838
842.434	0.0146980
842.512	0.0146822
842.590	0.0146716
842.668	0.0147070
842.746	0.0146239
842.825	0.0145734
842.903	0.0146077
842.981	0.0145731
843.059	0.0146385
843.137	0.0146210
843.215	0.0146439
843.293	0.0146207
843.371	0.0148593
843.450	0.0148898
843.528	0.0147666
843.606	0.0145756
843.684	0.0146762
843.762	0.0147289
843.840	0.0146866
843.918	0.0146750
843.996	0.0146156
844.075	0.0147144
844.153	0.0147478
844.231	0.0146130
844.309	0.0147000
844.387	0.0146918
844.465	0.0146329
844.543	0.0146278
844.621	0.0145628
844.700	0.0146157
844.778	0.0145702
844.856	0.0146207
844.934	0.0145176
845.012	0.0145753
845.090	0.0146770
845.168	0.0146115
845.246	0.0145898
845.325	0.0146150
845.403	0.0146053
845.481	0.0147728
845.559	0.0146076
845.637	0.0145643
845.715	0.0145354
845.793	0.0145177
845.871	0.0146306
845.950	0.0145045
846.028	0.0145087
846.106	0.0145733
846.184	0.0145535
846.262	0.0146465
846.340	0.0144913
846.418	0.0145937
846.496	0.0145893
846.575	0.0145805
846.653	0.0146117
846.731	0.0144935
846.809	0.0146153
846.887	0.0146353
846.965	0.0146744
847.043	0.0145877
847.121	0.0145712
847.200	0.0146957
847.278	0.0145885
847.356	0.0146098
847.434	0.0147016
847.512	0.0147070
847.590	0.0146539
847.668	0.0146465
847.746	0.0147211
847.825	0.0146024
847.903	0.0146497
847.981	0.0147975
848.059	0.0145977
848.137	0.0145874
848.215	0.0147454
848.293	0.0146354
848.371	0.0146231
848.450	0.0146095
848.528	0.0145777
848.606	0.0146374
848.684	0.0147295
848.762	0.0147133
848.840	0.0146593
848.918	0.0147116
848.996	0.0145909
849.075	0.0146114
849.153	0.0145441
849.231	0.0145857
849.309	0.0147248
849.387	0.0146147
849.465	0.0145686
849.543	0.0145413
849.621	0.0145596
849.700	0.0146693
849.778	0.0147407
849.856	0.0145628
849.934	0.0146313
850.012	0.0146458
850.090	0.0144159
850.168	0.0144651
850.246	0.0147288
850.325	0.0145798
850.403	0.0146102
850.481	0.0146869
850.559	0.0147085
850.637	0.0147961
850.715	0.0146367
850.793	0.0146757
850.871	0.0147232
850.950	0.0145897
851.028	0.0146187
851.106	0.0147125
851.184	0.0146496
851.262	0.0147014
851.340	0.0146661
851.418	0.0146793
851.496	0.0148931
851.575	0.0146626
851.653	0.0147584
851.731	0.0147356
851.809	0.0147848
851.887	0.0146902
851.965	0.0147167
852.043	0.0146921
852.121	0.0146162
852.200	0.0146397
852.278	0.0146316
852.356	0.0146744
852.434	0.0147777
852.512	0.0147152
852.590	0.0146029
852.668	0.0147282
852.746	0.0147441
852.825	0.0146916
852.903	0.0147468
852.981	0.0146416
853.059	0.0146391
853.137	0.0144740
853.215	0.0146851
853.293	0.0146755
853.371	0.0146709
853.450	0.0146317
853.528	0.0145567
853.606	0.0146831
853.684	0.0144666
853.762	0.0146812
853.840	0.0146812
853.918	0.0146239
853.996	0.0148104
854.075	0.0147773
854.153	0.0146529
854.231	0.0146194
854.309	0.0147642
854.387	0.0147787
854.465	0.0146887
854.543	0.0146777
854.621	0.0147590
854.700	0.0147704
854.778	0.0147154
854.856	0.0145646
854.934	0.0147204
855.012	0.0147286
855.090	0.0146841
855.168	0.0147179
855.246	0.0147591
855.325	0.0146826
855.403	0.0147137
855.481	0.0146529
855.559	0.0145963
855.637	0.0147353
855.715	0.0146057
855.793	0.0145841
855.871	0.0145148
855.950	0.0146574
856.028	0.0146635
856.106	0.0146532
856.184	0.0147202
856.262	0.0147266
856.340	0.0147604
856.418	0.0146706
856.496	0.0146007
856.575	0.0145661
856.653	0.0146741
856.731	0.0146389
856.809	0.0145947
856.887	0.0144941
856.965	0.0146169
857.043	0.0145464
857.121	0.0146873
857.200	0.0145007
857.278	0.0144872
857.356	0.0145679
857.434	0.0146053
857.512	0.0146883
857.590	0.0147028
857.668	0.0146605
857.746	0.0143788
857.825	0.0144932
857.903	0.0146792
857.981	0.0146061
858.059	0.0146006
858.137	0.0147057
858.215	0.0147477
858.293	0.0145889
858.371	0.0146123
858.450	0.0147913
858.528	0.0147027
858.606	0.0146889
858.684	0.0147676
858.762	0.0145525
858.840	0.0147113
858.918	0.0146828
858.996	0.0146231
859.075	0.0146403
859.153	0.0148189
859.231	0.0146055
859.309	0.0147505
859.387	0.0147710
859.465	0.0148184
859.543	0.0146365
859.621	0.0146993
859.700	0.0147289
859.778	0.0146072
859.856	0.0146909
859.934	0.0146542
860.012	0.0147606
860.090	0.0146825
860.168	0.0146066
860.246	0.0147208
860.325	0.0147588
860.403	0.0147617
860.481	0.0146843
860.559	0.0147092
860.637	0.0146141
860.715	0.0145640
860.793	0.0145715
860.871	0.0146691
860.950	0.0146878
861.028	0.0145386
861.106	0.0146654
861.184	0.0146183
861.262	0.0144943
861.340	0.0145334
861.418	0.0145457
861.496	0.0145135
861.575	0.0146714
861.653	0.0144394
861.731	0.0145041
861.809	0.0146300
861.887	0.0147601
861.965	0.0146308
862.043	0.0145347
862.121	0.0146298
862.200	0.0145866
862.278	0.0146967
862.356	0.0147090
862.434	0.0146510
862.512	0.0147256
862.590	0.0147074
862.668	0.0147765
862.746	0.0147778
862.825	0.0146244
862.903	0.0146598
862.981	0.0146304
863.059	0.0147825
863.137	0.0147725
863.215	0.0146518
863.293	0.0146693
863.371	0.0146796
863.450	0.0146756
863.528	0.0145867
863.606	0.0147417
863.684	0.0146440
863.762	0.0146599
863.840	0.0147509
863.918	0.0146574
863.996	0.0146418
864.075	0.0147397
864.153	0.0147034
864.231	0.0146175
864.309	0.0146735
864.387	0.0146801
864.465	0.0145987
864.543	0.0145581
864.621	0.0146368
864.700	0.0145583
864.778	0.0147119
864.856	0.0146771
864.934	0.0146918
865.012	0.0145943
865.090	0.0144614
865.168	0.0146498
865.246	0.0146149
865.325	0.0146487
865.403	0.0146594
865.481	0.0145589
865.559	0.0145807
865.637	0.0146258
865.715	0.0144379
865.793	0.0145937
865.871	0.0146072
865.950	0.0145480
866.028	0.0147193
866.106	0.0146001
866.184	0.0145815
866.262	0.0146093
866.340	0.0146344
866.418	0.0146574
866.496	0.0145753
866.575	0.0147297
866.653	0.0146661
866.731	0.0146571
866.809	0.0147305
866.887	0.0147919
866.965	0.0146662
867.043	0.0146962
867.121	0.0147239
867.200	0.0147723
867.278	0.0147002
867.356	0.0147858
867.434	0.0145642
867.512	0.0147603
867.590	0.0146316
867.668	0.0147195
867.746	0.0147375
867.825	0.0146752
867.903	0.0145765
867.981	0.0145982
868.059	0.0146142
868.137	0.0146922
868.215	0.0146947
868.293	0.0145459
868.371	0.0146492
868.450	0.0146410
868.528	0.0146118
868.606	0.0146280
868.684	0.0147410
868.762	0.0145699
868.840	0.0145721
868.918	0.0146443
868.996	0.0147237
869.075	0.0145831
869.153	0.0145685
869.231	0.0145813
869.309	0.0146632
869.387	0.0147919
869.465	0.0146794
869.543	0.0147247
869.621	0.0146589
869.700	0.0146795
869.778	0.0145586
869.856	0.0147942
869.934	0.0146272
870.012	0.0146865
870.090	0.0147556
870.168	0.0146825
870.246	0.0147623
870.325	0.0147781
870.403	0.0147561
870.481	0.0147835
870.559	0.0147030
870.637	0.0146705
870.715	0.0147862
870.793	0.0148092
870.871	0.0147125
870.950	0.0146241
871.028	0.0145731
871.106	0.0145891
871.184	0.0146561
871.262	0.0146188
871.340	0.0147365
871.418	0.0147185
871.496	0.0146938
871.575	0.0148185
871.653	0.0145562
871.731	0.0146091
871.809	0.0145126
871.887	0.0147098
871.965	0.0147694
872.043	0.0146432
872.121	0.0146689
872.200	0.0147716
872.278	0.0146777
872.356	0.0146976
872.434	0.0146428
872.512	0.0145583
872.590	0.0145470
872.668	0.0145511
872.746	0.0147783
872.825	0.0146758
872.903	0.0146007
872.981	0.0146024
873.059	0.0146220
873.137	0.0145239
873.215	0.0146484
873.293	0.0147018
873.371	0.0146397
873.450	0.0146125
873.528	0.0147550
873.606	0.0147816
873.684	0.0146883
873.762	0.0147353
873.840	0.0146179
873.918	0.0147542
873.996	0.0146618
874.075	0.0146949
874.153	0.0146801
874.231	0.0146726
874.309	0.0147508
874.387	0.0145611
874.465	0.0145714
874.543	0.0146609
874.621	0.0146037
874.700	0.0145148
874.778	0.0146351
874.856	0.0147473
874.934	0.0147662
875.012	0.0146791
875.090	0.0144550
875.168	0.0145552
875.246	0.0146645
875.325	0.0144859
875.403	0.0147030
875.481	0.0147087
875.559	0.0145728
875.637	0.0146173
875.715	0.0148126
875.793	0.0147445
875.871	0.0146693
875.950	0.0147154
876.028	0.0147031
876.106	0.0146687
876.184	0.0145803
876.262	0.0146803
876.340	0.0147165
876.418	0.0145993
876.496	0.0147134
876.575	0.0148205
876.653	0.0146968
876.731	0.0146333
876.809	0.0147945
876.887	0.0146340
876.965	0.0147942
877.043	0.0146803
877.121	0.0147178
877.200	0.0146671
877.278	0.0146870
877.356	0.0145731
877.434	0.0147069
877.512	0.0146517
877.590	0.0146558
877.668	0.0147278
877.746	0.0147058
877.825	0.0146998
877.903	0.0147125
877.981	0.0145717
878.059	0.0147741
878.137	0.0146358
878.215	0.0145882
878.293	0.0146633
878.371	0.0146980
878.450	0.0146588
878.528	0.0147639
878.606	0.0145252
878.684	0.0145827
878.762	0.0146244
878.840	0.0146432
878.918	0.0146910
878.996	0.0146946
879.075	0.0145842
879.153	0.0146116
879.231	0.0145074
879.309	0.0146306
879.387	0.0145857
879.465	0.0146278
879.543	0.0145180
879.621	0.0146915
879.700	0.0146606
879.778	0.0145598
879.856	0.0146127
879.934	0.0145940
880.012	0.0146793
880.090	0.0147797
880.168	0.0146368
880.246	0.0145803
880.325	0.0146439
880.403	0.0147607
880.481	0.0147411
880.559	0.0147441
880.637	0.0146674
880.715	0.0147405
880.793	0.0147026
880.871	0.0146484
880.950	0.0145633
881.028	0.0147549
881.106	0.0146335
881.184	0.0146197
881.262	0.0146622
881.340	0.0145435
881.418	0.0144760
881.496	0.0145542
881.575	0.0145785
881.653	0.0145736
881.731	0.0146078
881.809	0.0147247
881.887	0.0145567
881.965	0.0145609
882.043	0.0145419
882.121	0.0146026
882.200	0.0146264
882.278	0.0146583
882.356	0.0147293
882.434	0.0145921
882.512	0.0145368
882.590	0.0146581
882.668	0.0147119
882.746	0.0146559
882.825	0.0146360
882.903	0.0147435
882.981	0.0147695
883.059	0.0147140
883.137	0.0147362
883.215	0.0147385
883.293	0.0146935
883.371	0.0146446
883.450	0.0146968
883.528	0.0147518
883.606	0.0147699
883.684	0.0147337
883.762	0.0146064
883.840	0.0145797
883.918	0.0145642
883.996	0.0146344
884.075	0.0147521
884.153	0.0145846
884.231	0.0144556
884.309	0.0146024
884.387	0.0146297
884.465	0.0146751
884.543	0.0146024
884.621	0.0147493
884.700	0.0146768
884.778	0.0146936
884.856	0.0146481
884.934	0.0146784
885.012	0.0147666
885.090	0.0146937
885.168	0.0146255
885.246	0.0147075
885.325	0.0147625
885.403	0.0146158
885.481	0.0145413
885.559	0.0146011
885.637	0.0147181
885.715	0.0148029
885.793	0.0146378
885.871	0.0146729
885.950	0.0146856
886.028	0.0144777
886.106	0.0147610
886.184	0.0148301
886.262	0.0148800
886.340	0.0146533
886.418	0.0147350
886.496	0.0148109
886.575	0.0147391
886.653	0.0146355
886.731	0.0145564
886.809	0.0143828
886.887	0.0144662
886.965	0.0144228
887.043	0.0144995
887.121	0.0144894
887.200	0.0144558
887.278	0.0146242
887.356	0.0146526
887.434	0.0145975
887.512	0.0144763
887.590	0.0145502
887.668	0.0147021
887.746	0.0145809
887.825	0.0147792
887.903	0.0146675
887.981	0.0146564
888.059	0.0147629
888.137	0.0146249
888.215	0.0146812
888.293	0.0147022
888.371	0.0146690
888.450	0.0146434
888.528	0.0145273
888.606	0.0147744
888.684	0.0147115
888.762	0.0146210
888.840	0.0146973
888.918	0.0146713
888.996	0.0146149
889.075	0.0146061
889.153	0.0146008
889.231	0.0145041
889.309	0.0146600
889.387	0.0146317
889.465	0.0146336
889.543	0.0145412
889.621	0.0144765
889.700	0.0144497
889.778	0.0147151
889.856	0.0147207
889.934	0.0147283
890.012	0.0145990
890.090	0.0145676
890.168	0.0146082
890.246	0.0147549
890.325	0.0147579
890.403	0.0147658
890.481	0.0147138
890.559	0.0147340
890.637	0.0146448
890.715	0.0146899
890.793	0.0148070
890.871	0.0147562
890.950	0.0145971
891.028	0.0145684
891.106	0.0147609
891.184	0.0146838
891.262	0.0146033
891.340	0.0146120
891.418	0.0144698
891.496	0.0145682
891.575	0.0146918
891.653	0.0146914
891.731	0.0146879
891.809	0.0146116
891.887	0.0147367
891.965	0.0146990
892.043	0.0147496
892.121	0.0146796
892.200	0.0146403
892.278	0.0147769
892.356	0.0146862
892.434	0.0146906
892.512	0.0147288
892.590	0.0146593
892.668	0.0148192
892.746	0.0145697
892.825	0.0145515
892.903	0.0147329
892.981	0.0146391
893.059	0.0147131
893.137	0.0145901
893.215	0.0146713
893.293	0.0145211
893.371	0.0146523
893.450	0.0147864
893.528	0.0147046
893.606	0.0147147
893.684	0.0146178
893.762	0.0146154
893.840	0.0146238
893.918	0.0147290
893.996	0.0146452
894.075	0.0147546
894.153	0.0146666
894.231	0.0147243
894.309	0.0146423
894.387	0.0147147
894.465	0.0145815
894.543	0.0145364
894.621	0.0146236
894.700	0.0147044
894.778	0.0148090
894.856	0.0147427
894.934	0.0147157
895.012	0.0147209
895.090	0.0146703
895.168	0.0147565
895.246	0.0144933
895.325	0.0145081
895.403	0.0147364
895.481	0.0145866
895.559	0.0145543
895.637	0.0145040
895.715	0.0145246
895.793	0.0145669
895.871	0.0145148
895.950	0.0146832
896.028	0.0146931
896.106	0.0146069
896.184	0.0146758
896.262	0.0147021
896.340	0.0145960
896.418	0.0146841
896.496	0.0148005
896.575	0.0145901
896.653	0.0145021
896.731	0.0147382
896.809	0.0147260
896.887	0.0146606
896.965	0.0146342
897.043	0.0147242
897.121	0.0146598
897.200	0.0145104
897.278	0.0144619
897.356	0.0146862
897.434	0.0146826
897.512	0.0145784
897.590	0.0145618
897.668	0.0146308
897.746	0.0145885
897.825	0.0144186
897.903	0.0145778
897.981	0.0146015
898.059	0.0146272
898.137	0.0145107
898.215	0.0146015
898.293	0.0147346
898.371	0.0146634
898.450	0.0146647
898.528	0.0146095
898.606	0.0146073
898.684	0.0145715
898.762	0.0145408
898.840	0.0147630
898.918	0.0145847
898.996	0.0146178
899.075	0.0146402
899.153	0.0145170
899.231	0.0146005
899.309	0.0147044
899.387	0.0146435
899.465	0.0145772
899.543	0.0147144
899.621	0.0146001
899.700	0.0145757
899.778	0.0146764
899.856	0.0146208
899.934	0.0145638
900.012	0.0146638
900.090	0.0146942
900.168	0.0147924
900.246	0.0145537
900.325	0.0145979
900.403	0.0146429
900.481	0.0145410
900.559	0.0147062
900.637	0.0147397
900.715	0.0146736
900.793	0.0145856
900.871	0.0146575
900.950	0.0146941
901.028	0.0146026
901.106	0.0145940
901.184	0.0147804
901.262	0.0146314
901.340	0.0146647
901.418	0.0146595
901.496	0.0145499
901.575	0.0147276
901.653	0.0146687
901.731	0.0146281
901.809	0.0147013
901.887	0.0147507
901.965	0.0146525
902.043	0.0146910
902.121	0.0147101
902.200	0.0145477
902.278	0.0147404
902.356	0.0145901
902.434	0.0145306
902.512	0.0145885
902.590	0.0146790
902.668	0.0145989
902.746	0.0146021
902.825	0.0146287
902.903	0.0144440
902.981	0.0144308
903.059	0.0145850
903.137	0.0145284
903.215	0.0145728
903.293	0.0146151
903.371	0.0144877
903.450	0.0145621
903.528	0.0145892
903.606	0.0144953
903.684	0.0146715
903.762	0.0147270
903.840	0.0145222
903.918	0.0146203
903.996	0.0147068
904.075	0.0147252
904.153	0.0145274
904.231	0.0146138
904.309	0.0147741
904.387	0.0147691
904.465	0.0146513
904.543	0.0146951
904.621	0.0147009
904.700	0.0147522
904.778	0.0148099
904.856	0.0147192
904.934	0.0148109
905.012	0.0147852
905.090	0.0146156
905.168	0.0147266
905.246	0.0148788
905.325	0.0146793
905.403	0.0146687
905.481	0.0146403
905.559	0.0145671
905.637	0.0145575
905.715	0.0145638
905.793	0.0145448
905.871	0.0145004
905.950	0.0145290
906.028	0.0145196
906.106	0.0145785
906.184	0.0146455
906.262	0.0145715
906.340	0.0145913
906.418	0.0146285
906.496	0.0146416
906.575	0.0146895
906.653	0.0147030
906.731	0.0145058
906.809	0.0147099
906.887	0.0146867
906.965	0.0146904
907.043	0.0145792
907.121	0.0146129
907.200	0.0145123
907.278	0.0145892
907.356	0.0147092
907.434	0.0145379
907.512	0.0146764
907.590	0.0145589
907.668	0.0144948
907.746	0.0145985
907.825	0.0146508
907.903	0.0146685
907.981	0.0147663
908.059	0.0147597
908.137	0.0147159
908.215	0.0147140
908.293	0.0146954
908.371	0.0146384
908.450	0.0148791
908.528	0.0148612
908.606	0.0147576
908.684	0.0147632
908.762	0.0146336
908.840	0.0147756
908.918	0.0146902
908.996	0.0145830
909.075	0.0145747
909.153	0.0147021
909.231	0.0145533
909.309	0.0145284
909.387	0.0146333
909.465	0.0144632
909.543	0.0146080
909.621	0.0146928
909.700	0.0146002
909.778	0.0146101
909.856	0.0146249
909.934	0.0146269
910.012	0.0147737
910.090	0.0145838
910.168	0.0146368
910.246	0.0146358
910.325	0.0148021
910.403	0.0147339
910.481	0.0145679
910.559	0.0145866
910.637	0.0146664
910.715	0.0147819
910.793	0.0147231
910.871	0.0147908
910.950	0.0147370
911.028	0.0147060
911.106	0.0146209
911.184	0.0146873
911.262	0.0146568
911.340	0.0147557
911.418	0.0147218
911.496	0.0146599
911.575	0.0145708
911.653	0.0147079
911.731	0.0146230
911.809	0.0146356
911.887	0.0147639
911.965	0.0146523
912.043	0.0147490
912.121	0.0147315
912.200	0.0145800
912.278	0.0145148
912.356	0.0146062
912.434	0.0147753
912.512	0.0146576
912.590	0.0145273
912.668	0.0146935
912.746	0.0146031
912.825	0.0146801
912.903	0.0146240
912.981	0.0146920
913.059	0.0145657
913.137	0.0144702
913.215	0.0145432
913.293	0.0145626
913.371	0.0145705
913.450	0.0146414
913.528	0.0146125
913.606	0.0145377
913.684	0.0146860
913.762	0.0145573
913.840	0.0146267
913.918	0.0146744
913.996	0.0145308
914.075	0.0146962
914.153	0.0145003
914.231	0.0146590
914.309	0.0146110
914.387	0.0145699
914.465	0.0144611
914.543	0.0147034
914.621	0.0146571
914.700	0.0145953
914.778	0.0146777
914.856	0.0145144
914.934	0.0146095
915.012	0.0146813
915.090	0.0146319
915.168	0.0146306
915.246	0.0145126
915.325	0.0146576
915.403	0.0146174
915.481	0.0146872
915.559	0.0147652
915.637	0.0146126
915.715	0.0147630
915.793	0.0148054
915.871	0.0146658
915.950	0.0145638
916.028	0.0144939
916.106	0.0148394
916.184	0.0146133
916.262	0.0145568
916.340	0.0146005
916.418	0.0146230
916.496	0.0145860
916.575	0.0145386
916.653	0.0145810
916.731	0.0144446
916.809	0.0145574
916.887	0.0145547
916.965	0.0145737
917.043	0.0145506
917.121	0.0146515
917.200	0.0145609
917.278	0.0145919
917.356	0.0144945
917.434	0.0145775
917.512	0.0146468
917.590	0.0146216
917.668	0.0147254
917.746	0.0146542
917.825	0.0147100
917.903	0.0147179
917.981	0.0146548
918.059	0.0145812
918.137	0.0146707
918.215	0.0147827
918.293	0.0147238
918.371	0.0146846
918.450	0.0146700
918.528	0.0146452
918.606	0.0147272
918.684	0.0146272
918.762	0.0147876
918.840	0.0147169
918.918	0.0147350
918.996	0.0147549
919.075	0.0146829
919.153	0.0147260
919.231	0.0147326
919.309	0.0146581
919.387	0.0147758
919.465	0.0145495
919.543	0.0146843
919.621	0.0146706
919.700	0.0146729
919.778	0.0147662
919.856	0.0146875
919.934	0.0147442
920.012	0.0144937
920.090	0.0146147
920.168	0.0146642
920.246	0.0146969
920.325	0.0146935
920.403	0.0145650
920.481	0.0146897
920.559	0.0145908
920.637	0.0145196
920.715	0.0145600
920.793	0.0146016
920.871	0.0144047
920.950	0.0146580
921.028	0.0146204
921.106	0.0145780
921.184	0.0145660
921.262	0.0147045
921.340	0.0147157
921.418	0.0147610
921.496	0.0146487
921.575	0.0146521
921.653	0.0147989
921.731	0.0147277
921.809	0.0147594
921.887	0.0146705
921.965	0.0145493
922.043	0.0147439
922.121	0.0146294
922.200	0.0146169
922.278	0.0147115
922.356	0.0147131
922.434	0.0147377
922.512	0.0148376
922.590	0.0146142
922.668	0.0146965
922.746	0.0146484
922.825	0.0147149
922.903	0.0146433
922.981	0.0145808
923.059	0.0146561
923.137	0.0145668
923.215	0.0146722
923.293	0.0146261
923.371	0.0146168
923.450	0.0146483
923.528	0.0145849
923.606	0.0145939
923.684	0.0145980
923.762	0.0145570
923.840	0.0146165
923.918	0.0146306
923.996	0.0146618
924.075	0.0147858
924.153	0.0147290
924.231	0.0145979
924.309	0.0146215
924.387	0.0146427
924.465	0.0147070
924.543	0.0147436
924.621	0.0145093
924.700	0.0147028
924.778	0.0146191
924.856	0.0146217
924.934	0.0147073
925.012	0.0146024
925.090	0.0146667
925.168	0.0146066
925.246	0.0145239
925.325	0.0147029
925.403	0.0146562
925.481	0.0146811
925.559	0.0146624
925.637	0.0145599
925.715	0.0147205
925.793	0.0147157
925.871	0.0147100
925.950	0.0145424
926.028	0.0144308
926.106	0.0146906
926.184	0.0146854
926.262	0.0146015
926.340	0.0147842
926.418	0.0146872
926.496	0.0145628
926.575	0.0145022
926.653	0.0145238
926.731	0.0145868
926.809	0.0146410
926.887	0.0144786
926.965	0.0146356
927.043	0.0146083
927.121	0.0146799
927.200	0.0146854
927.278	0.0146527
927.356	0.0146220
927.434	0.0146357
927.512	0.0145152
927.590	0.0145909
927.668	0.0147392
927.746	0.0145881
927.825	0.0145867
927.903	0.0146651
927.981	0.0145841
928.059	0.0145896
928.137	0.0146340
928.215	0.0146888
928.293	0.0146608
928.371	0.0146152
928.450	0.0146908
928.528	0.0146980
928.606	0.0147619
928.684	0.0146649
928.762	0.0146225
928.840	0.0147736
928.918	0.0147929
928.996	0.0145464
929.075	0.0147227
929.153	0.0146946
929.231	0.0146306
929.309	0.0146704
929.387	0.0146555
929.465	0.0145721
929.543	0.0145036
929.621	0.0146056
929.700	0.0144828
929.778	0.0145818
929.856	0.0147530
929.934	0.0146712
930.012	0.0145236
930.090	0.0144823
930.168	0.0145700
930.246	0.0144239
930.325	0.0145775
930.403	0.0145583
930.481	0.0146904
930.559	0.0145403
930.637	0.0146144
930.715	0.0147490
930.793	0.0145295
930.871	0.0145712
930.950	0.0145129
931.028	0.0144856
931.106	0.0145997
931.184	0.0146130
931.262	0.0146518
931.340	0.0145367
931.418	0.0146368
931.496	0.0146975
931.575	0.0146572
931.653	0.0147936
931.731	0.0147065
931.809	0.0147074
931.887	0.0146870
931.965	0.0146899
932.043	0.0148501
932.121	0.0146993
932.200	0.0147804
932.278	0.0146638
932.356	0.0145671
932.434	0.0145341
932.512	0.0146480
932.590	0.0146490
932.668	0.0146309
932.746	0.0145154
932.825	0.0145685
932.903	0.0145890
932.981	0.0145863
933.059	0.0144381
933.137	0.0145055
933.215	0.0145995
933.293	0.0146048
933.371	0.0146078
933.450	0.0145889
933.528	0.0146381
933.606	0.0146429
933.684	0.0146391
933.762	0.0145995
933.840	0.0145143
933.918	0.0146114
933.996	0.0145900
934.075	0.0145885
934.153	0.0145416
934.231	0.0145448
934.309	0.0146256
934.387	0.0145678
934.465	0.0145677
934.543	0.0146069
934.621	0.0146561
934.700	0.0146914
934.778	0.0146529
934.856	0.0145816
934.934	0.0146637
935.012	0.0146631
935.090	0.0146816
935.168	0.0146397
935.246	0.0145711
935.325	0.0146613
935.403	0.0147337
935.481	0.0147150
935.559	0.0145115
935.637	0.0145492
935.715	0.0146575
935.793	0.0147604
935.871	0.0146394
935.950	0.0147012
936.028	0.0146487
936.106	0.0146136
936.184	0.0146896
936.262	0.0147033
936.340	0.0146790
936.418	0.0145849
936.496	0.0147579
936.575	0.0147437
936.653	0.0146880
936.731	0.0145854
936.809	0.0146584
936.887	0.0147263
936.965	0.0145330
937.043	0.0146193
937.121	0.0147724
937.200	0.0146672
937.278	0.0145277
937.356	0.0146293
937.434	0.0147054
937.512	0.0145850
937.590	0.0146941
937.668	0.0145376
937.746	0.0145610
937.825	0.0144529
937.903	0.0146753
937.981	0.0146838
938.059	0.0147706
938.137	0.0146308
938.215	0.0145708
938.293	0.0145505
938.371	0.0145780
938.450	0.0147096
938.528	0.0146262
938.606	0.0146926
938.684	0.0147456
938.762	0.0146229
938.840	0.0146585
938.918	0.0146956
938.996	0.0146057
939.075	0.0145809
939.153	0.0146906
939.231	0.0147224
939.309	0.0147552
939.387	0.0146857
939.465	0.0146781
939.543	0.0146838
939.621	0.0146548
939.700	0.0146964
939.778	0.0146511
939.856	0.0147133
939.934	0.0149526
940.012	0.0147385
940.090	0.0145596
940.168	0.0146310
940.246	0.0146838
940.325	0.0145458
940.403	0.0147057
940.481	0.0147038
940.559	0.0146460
940.637	0.0146420
940.715	0.0146096
940.793	0.0146442
940.871	0.0146988
940.950	0.0145918
941.028	0.0146081
941.106	0.0147597
941.184	0.0145732
941.262	0.0146630
941.340	0.0147007
941.418	0.0145741
941.496	0.0146635
941.575	0.0146871
941.653	0.0147047
941.731	0.0146196
941.809	0.0146810
941.887	0.0146773
941.965	0.0147146
942.043	0.0146226
942.121	0.0145135
942.200	0.0146419
942.278	0.0147769
942.356	0.0147015
942.434	0.0146441
942.512	0.0145601
942.590	0.0147765
942.668	0.0147269
942.746	0.0146455
942.825	0.0146807
942.903	0.0146323
942.981	0.0147134
943.059	0.0146948
943.137	0.0145944
943.215	0.0146361
943.293	0.0146910
943.371	0.0145645
943.450	0.0146377
943.528	0.0145227
943.606	0.0146212
943.684	0.0145450
943.762	0.0145554
943.840	0.0146937
943.918	0.0146467
943.996	0.0145916
944.075	0.0146651
944.153	0.0147091
944.231	0.0146653
944.309	0.0145523
944.387	0.0147160
944.465	0.0146735
944.543	0.0145660
944.621	0.0146314
944.700	0.0146622
944.778	0.0147521
944.856	0.0147172
944.934	0.0146237
945.012	0.0146999
945.090	0.0145488
945.168	0.0146435
945.246	0.0146308
945.325	0.0147008
945.403	0.0148131
945.481	0.0146116
945.559	0.0145337
945.637	0.0146395
945.715	0.0145383
945.793	0.0147382
945.871	0.0146835
945.950	0.0146112
946.028	0.0146618
946.106	0.0146815
946.184	0.0146289
946.262	0.0146359
946.340	0.0146141
946.418	0.0146133
946.496	0.0147317
946.575	0.0146123
946.653	0.0146069
946.731	0.0146416
946.809	0.0145996
946.887	0.0146571
946.965	0.0146235
947.043	0.0145641
947.121	0.0145410
947.200	0.0146534
947.278	0.0145522
947.356	0.0147342
947.434	0.0146841
947.512	0.0145879
947.590	0.0145077
947.668	0.0146145
947.746	0.0145863
947.825	0.0146761
947.903	0.0145458
947.981	0.0146914
948.059	0.0147533
948.137	0.0146626
948.215	0.0145316
948.293	0.0144568
948.371	0.0145747
948.450	0.0146537
948.528	0.0146819
948.606	0.0146849
948.684	0.0146944
948.762	0.0146029
948.840	0.0146411
948.918	0.0146246
948.996	0.0146774
949.075	0.0147320
949.153	0.0144850
949.231	0.0145197
949.309	0.0146183
949.387	0.0146157
949.465	0.0146170
949.543	0.0146436
949.621	0.0147191
949.700	0.0146377
949.778	0.0147195
949.856	0.0146376
949.934	0.0146082
950.012	0.0147670
950.090	0.0146988
950.168	0.0147101
950.246	0.0146995
950.325	0.0147365
950.403	0.0146043
950.481	0.0146957
950.559	0.0148294
950.637	0.0144782
950.715	0.0146606
950.793	0.0147521
950.871	0.0146775
950.950	0.0147633
951.028	0.0146964
951.106	0.0146636
951.184	0.0146117
951.262	0.0146701
951.340	0.0148100
951.418	0.0147660
951.496	0.0146762
951.575	0.0146426
951.653	0.0147185
951.731	0.0147104
951.809	0.0147758
951.887	0.0147015
951.965	0.0147016
952.043	0.0147233
952.121	0.0147773
952.200	0.0146183
952.278	0.0146930
952.356	0.0147338
952.434	0.0146835
952.512	0.0145053
952.590	0.0147379
952.668	0.0147584
952.746	0.0144743
952.825	0.0147326
952.903	0.0146102
952.981	0.0146383
953.059	0.0146841
953.137	0.0147766
953.215	0.0147561
953.293	0.0145277
953.371	0.0146601
953.450	0.0147092
953.528	0.0148404
953.606	0.0147240
953.684	0.0147351
953.762	0.0147186
953.840	0.0147036
953.918	0.0145899
953.996	0.0147953
954.075	0.0147901
954.153	0.0148196
954.231	0.0146407
954.309	0.0148103
954.387	0.0147913
954.465	0.0147096
954.543	0.0147061
954.621	0.0147066
954.700	0.0146456
954.778	0.0146435
954.856	0.0147965
954.934	0.0147625
955.012	0.0147903
955.090	0.0146264
955.168	0.0146831
955.246	0.0147211
955.325	0.0146294
955.403	0.0145535
955.481	0.0147128
955.559	0.0144622
955.637	0.0146216
955.715	0.0147120
955.793	0.0145856
955.871	0.0146740
955.950	0.0147260
956.028	0.0146665
956.106	0.0146358
956.184	0.0146839
956.262	0.0147701
956.340	0.0147511
956.418	0.0146156
956.496	0.0147701
956.575	0.0146253
956.653	0.0146294
956.731	0.0146455
956.809	0.0147069
956.887	0.0146703
956.965	0.0146436
957.043	0.0146631
957.121	0.0145644
957.200	0.0146052
957.278	0.0145653
957.356	0.0146084
957.434	0.0146428
957.512	0.0146152
957.590	0.0146903
957.668	0.0146407
957.746	0.0146091
957.825	0.0145545
957.903	0.0146399
957.981	0.0146388
958.059	0.0146484
958.137	0.0146165
958.215	0.0146482
958.293	0.0145927
958.371	0.0146096
958.450	0.0146603
958.528	0.0148009
958.606	0.0146196
958.684	0.0146286
958.762	0.0146190
958.840	0.0146907
958.918	0.0146300
958.996	0.0147201
959.075	0.0146611
959.153	0.0145911
959.231	0.0147283
959.309	0.0146252
959.387	0.0146151
959.465	0.0147385
959.543	0.0147502
959.621	0.0146747
959.700	0.0147742
959.778	0.0146579
959.856	0.0145750
959.934	0.0146748
960.012	0.0146544
960.090	0.0146353
960.168	0.0145988
960.246	0.0146463
960.325	0.0145750
960.403	0.0146358
960.481	0.0146286
960.559	0.0145982
960.637	0.0145576
960.715	0.0145143
960.793	0.0145437
960.871	0.0145669
960.950	0.0146671
961.028	0.0145894
961.106	0.0145644
961.184	0.0146342
961.262	0.0145457
961.340	0.0145985
961.418	0.0146988
961.496	0.0145596
961.575	0.0145534
961.653	0.0147475
961.731	0.0146766
961.809	0.0147205
961.887	0.0148354
961.965	0.0147186
962.043	0.0146108
962.121	0.0146634
962.200	0.0146003
962.278	0.0147525
962.356	0.0146080
962.434	0.0146286
962.512	0.0146883
962.590	0.0146799
962.668	0.0146686
962.746	0.0147546
962.825	0.0146037
962.903	0.0146227
962.981	0.0146394
963.059	0.0145860
963.137	0.0147212
963.215	0.0144994
963.293	0.0145973
963.371	0.0146970
963.450	0.0146075
963.528	0.0146027
963.606	0.0145267
963.684	0.0145669
963.762	0.0146383
963.840	0.0145483
963.918	0.0145645
963.996	0.0145353
964.075	0.0146101
964.153	0.0146548
964.231	0.0144606
964.309	0.0146820
964.387	0.0146715
964.465	0.0146656
964.543	0.0145786
964.621	0.0146561
964.700	0.0147482
964.778	0.0146265
964.856	0.0145542
964.934	0.0146004
965.012	0.0146201
965.090	0.0147626
965.168	0.0146627
965.246	0.0146337
965.325	0.0146428
965.403	0.0146546
965.481	0.0147345
965.559	0.0146172
965.637	0.0146648
965.715	0.0145625
965.793	0.0145682
965.871	0.0146639
965.950	0.0145605
966.028	0.0144685
966.106	0.0145902
966.184	0.0146597
966.262	0.0146713
966.340	0.0145566
966.418	0.0146181
966.496	0.0146089
966.575	0.0145781
966.653	0.0148068
966.731	0.0145988
966.809	0.0147565
966.887	0.0146712
966.965	0.0145420
967.043	0.0146660
967.121	0.0146105
967.200	0.0146633
967.278	0.0146614
967.356	0.0145653
967.434	0.0145909
967.512	0.0145286
967.590	0.0146325
967.668	0.0145617
967.746	0.0145785
967.825	0.0145261
967.903	0.0147173
967.981	0.0145985
968.059	0.0145222
968.137	0.0146885
968.215	0.0147699
968.293	0.0145986
968.371	0.0147368
968.450	0.0147305
968.528	0.0145712
968.606	0.0145507
968.684	0.0146333
968.762	0.0147838
968.840	0.0145878
968.918	0.0146482
968.996	0.0147666
969.075	0.0146716
969.153	0.0146422
969.231	0.0147186
969.309	0.0145281
969.387	0.0147644
969.465	0.0148146
969.543	0.0147003
969.621	0.0145349
969.700	0.0146665
969.778	0.0147201
969.856	0.0147716
969.934	0.0148059
970.012	0.0147070
970.090	0.0146134
970.168	0.0146273
970.246	0.0146768
970.325	0.0145795
970.403	0.0147118
970.481	0.0146200
970.559	0.0147665
970.637	0.0146565
970.715	0.0146989
970.793	0.0146095
970.871	0.0147639
970.950	0.0147424
971.028	0.0146855
971.106	0.0147188
971.184	0.0147449
971.262	0.0146712
971.340	0.0146752
971.418	0.0146732
971.496	0.0147221
971.575	0.0147671
971.653	0.0146990
971.731	0.0146703
971.809	0.0148198
971.887	0.0146552
971.965	0.0147053
972.043	0.0147263
972.121	0.0146977
972.200	0.0146816
972.278	0.0147017
972.356	0.0146374
972.434	0.0146316
972.512	0.0146181
972.590	0.0145746
972.668	0.0146329
972.746	0.0146755
972.825	0.0148236
972.903	0.0147126
972.981	0.0147120
973.059	0.0145886
973.137	0.0147460
973.215	0.0146272
973.293	0.0146547
973.371	0.0146767
973.450	0.0146538
973.528	0.0145454
973.606	0.0146437
973.684	0.0146561
973.762	0.0146098
973.840	0.0145444
973.918	0.0146614
973.996	0.0147770
974.075	0.0146291
974.153	0.0146110
974.231	0.0146549
974.309	0.0145747
974.387	0.0145857
974.465	0.0147114
974.543	0.0146848
974.621	0.0146574
974.700	0.0146100
974.778	0.0146764
974.856	0.0147121
974.934	0.0147391
975.012	0.0146176
975.090	0.0147377
975.168	0.0147101
975.246	0.0147751
975.325	0.0146812
975.403	0.0147270
975.481	0.0147038
975.559	0.0147044
975.637	0.0145839
975.715	0.0146246
975.793	0.0145695
975.871	0.0146128
975.950	0.0145689
976.028	0.0145713
976.106	0.0144144
976.184	0.0146631
976.262	0.0145898
976.340	0.0145190
976.418	0.0145566
976.496	0.0145677
976.575	0.0145258
976.653	0.0146465
976.731	0.0145502
976.809	0.0147295
976.887	0.0147830
976.965	0.0147446
977.043	0.0148443
977.121	0.0145912
977.200	0.0146590
977.278	0.0147481
977.356	0.0146923
977.434	0.0147124
977.512	0.0147949
977.590	0.0147789
977.668	0.0145734
977.746	0.0147243
977.825	0.0146526
977.903	0.0146651
977.981	0.0145677
978.059	0.0146719
978.137	0.0146241
978.215	0.0145570
978.293	0.0147243
978.371	0.0147441
978.450	0.0146065
978.528	0.0145249
978.606	0.0146495
978.684	0.0146453
978.762	0.0146745
978.840	0.0145477
978.918	0.0146804
978.996	0.0147501
979.075	0.0146416
979.153	0.0145934
979.231	0.0146746
979.309	0.0146884
979.387	0.0146339
979.465	0.0145956
979.543	0.0146691
979.621	0.0145377
979.700	0.0146560
979.778	0.0147047
979.856	0.0147670
979.934	0.0146356
980.012	0.0146703
980.090	0.0146899
980.168	0.0146172
980.246	0.0147659
980.325	0.0145773
980.403	0.0146053
980.481	0.0146606
980.559	0.0145988
980.637	0.0146298
980.715	0.0146399
980.793	0.0146085
980.871	0.0146102
980.950	0.0145311
981.028	0.0144704
981.106	0.0145676
981.184	0.0145434
981.262	0.0144540
981.340	0.0146148
981.418	0.0146999
981.496	0.0147095
981.575	0.0147501
981.653	0.0148681
981.731	0.0147851
981.809	0.0146135
981.887	0.0145659
981.965	0.0145660
982.043	0.0144456
982.121	0.0146288
982.200	0.0147493
982.278	0.0146259
982.356	0.0146324
982.434	0.0148778
982.512	0.0146736
982.590	0.0146511
982.668	0.0145618
982.746	0.0148402
982.825	0.0148317
982.903	0.0147802
982.981	0.0148202
983.059	0.0147608
983.137	0.0146275
983.215	0.0146689
983.293	0.0147263
983.371	0.0147215
983.450	0.0147305
983.528	0.0147887
983.606	0.0147363
983.684	0.0147404
983.762	0.0145837
983.840	0.0147630
983.918	0.0146151
983.996	0.0145902
984.075	0.0145410
984.153	0.0147026
984.231	0.0146940
984.309	0.0147768
984.387	0.0146524
984.465	0.0146856
984.543	0.0146997
984.621	0.0147746
984.700	0.0146564
984.778	0.0146626
984.856	0.0147458
984.934	0.0147141
985.012	0.0146113
985.090	0.0146825
985.168	0.0146767
985.246	0.0147665
985.325	0.0147292
985.403	0.0149142
985.481	0.0147349
985.559	0.0146900
985.637	0.0148241
985.715	0.0146763
985.793	0.0146029
985.871	0.0146466
985.950	0.0147215
986.028	0.0146835
986.106	0.0148013
986.184	0.0146613
986.262	0.0147266
986.340	0.0147379
986.418	0.0146624
986.496	0.0147191
986.575	0.0146748
986.653	0.0146537
986.731	0.0146582
986.809	0.0147363
986.887	0.0147224
986.965	0.0146169
987.043	0.0147031
987.121	0.0147215
987.200	0.0145338
987.278	0.0145920
987.356	0.0146658
987.434	0.0147085
987.512	0.0146877
987.590	0.0146391
987.668	0.0146211
987.746	0.0146997
987.825	0.0148070
987.903	0.0146046
987.981	0.0146132
988.059	0.0148062
988.137	0.0147353
988.215	0.0147095
988.293	0.0147433
988.371	0.0146612
988.450	0.0146909
988.528	0.0147124
988.606	0.0146281
988.684	0.0146850
988.762	0.0146822
988.840	0.0145655
988.918	0.0145487
988.996	0.0147601
989.075	0.0146429
989.153	0.0145794
989.231	0.0146161
989.309	0.0146455
989.387	0.0144464
989.465	0.0146116
989.543	0.0146108
989.621	0.0145738
989.700	0.0146246
989.778	0.0146517
989.856	0.0145501
989.934	0.0145185
990.012	0.0147938
990.090	0.0147379
990.168	0.0147388
990.246	0.0147198
990.325	0.0146335
990.403	0.0147719
990.481	0.0145251
990.559	0.0144454
990.637	0.0146429
990.715	0.0148128
990.793	0.0146587
990.871	0.0145702
990.950	0.0145510
991.028	0.0144926
991.106	0.0145295
991.184	0.0145158
991.262	0.0145339
991.340	0.0147124
991.418	0.0146566
991.496	0.0146236
991.575	0.0146628
991.653	0.0147478
991.731	0.0147850
991.809	0.0147011
991.887	0.0146651
991.965	0.0147472
992.043	0.0147187
992.121	0.0146816
992.200	0.0146471
992.278	0.0145757
992.356	0.0144742
992.434	0.0146970
992.512	0.0145837
992.590	0.0144254
992.668	0.0145830
992.746	0.0144137
992.825	0.0145496
992.903	0.0145255
992.981	0.0144523
993.059	0.0145264
993.137	0.0144240
993.215	0.0146195
993.293	0.0146137
993.371	0.0146854
993.450	0.0146025
993.528	0.0146236
993.606	0.0147257
993.684	0.0145700
993.762	0.0145782
993.840	0.0145753
993.918	0.0147001
993.996	0.0146110
994.075	0.0147499
994.153	0.0146304
994.231	0.0146254
994.309	0.0148289
994.387	0.0146519
994.465	0.0145847
994.543	0.0147137
994.621	0.0147723
994.700	0.0146852
994.778	0.0147314
994.856	0.0147624
994.934	0.0146571
995.012	0.0147141
995.090	0.0146323
995.168	0.0145898
995.246	0.0146987
995.325	0.0144934
995.403	0.0145624
995.481	0.0145872
995.559	0.0146757
995.637	0.0146229
995.715	0.0146442
995.793	0.0146460
995.871	0.0147038
995.950	0.0146040
996.028	0.0146468
996.106	0.0146917
996.184	0.0147182
996.262	0.0147227
996.340	0.0146845
996.418	0.0146118
996.496	0.0145709
996.575	0.0146468
996.653	0.0145946
996.731	0.0147078
996.809	0.0146150
996.887	0.0145658
996.965	0.0147066
997.043	0.0146113
997.121	0.0146865
997.200	0.0146789
997.278	0.0145899
997.356	0.0146459
997.434	0.0146805
997.512	0.0146675
997.590	0.0146288
997.668	0.0146195
997.746	0.0146352
997.825	0.0147306
997.903	0.0145820
997.981	0.0146371
998.059	0.0146856
998.137	0.0146210
998.215	0.0146289
998.293	0.0147073
998.371	0.0147002
998.450	0.0147160
998.528	0.0145306
998.606	0.0147682
998.684	0.0147169
998.762	0.0147594
998.840	0.0147128
998.918	0.0145400
