05/04/2022	21:11:17	Ver.	4.1	UNKNOWN
Optical Delay	678.996401	Delta X		0.078125	Sweeps	1	Scan Rate	0/0
Coordinates	Axis 1	NaN	Axis 2	NaN	Axis 3	NaN	Axis 4	NaN	Axis 5	NaN	Axis 6	0.000000
TX Power	0.000000	RX Power	0.000000

678.996	0.0142281
679.075	0.0141563
679.153	0.0141877
679.231	0.0141576
679.309	0.0140788
679.387	0.0142313
679.465	0.0141074
679.543	0.0141517
679.621	0.0142107
679.700	0.0141410
679.778	0.0142601
679.856	0.0143481
679.934	0.0142099
680.012	0.0143324
680.090	0.0141887
680.168	0.0141189
680.246	0.0142528
680.325	0.0142000
680.403	0.0141593
680.481	0.0142744
680.559	0.0142946
680.637	0.0142192
680.715	0.0142430
680.793	0.0142038
680.871	0.0141084
680.950	0.0143181
681.028	0.0143436
681.106	0.0142846
681.184	0.0142755
681.262	0.0142733
681.340	0.0144830
681.418	0.0142204
681.496	0.0141856
681.575	0.0142303
681.653	0.0140570
681.731	0.0143446
681.809	0.0141794
681.887	0.0142471
681.965	0.0142559
682.043	0.0143880
682.121	0.0141486
682.200	0.0143207
682.278	0.0141764
682.356	0.0141943
682.434	0.0141370
682.512	0.0142149
682.590	0.0142732
682.668	0.0142020
682.746	0.0142091
682.825	0.0140462
682.903	0.0142254
682.981	0.0143580
683.059	0.0142556
683.137	0.0141360
683.215	0.0142535
683.293	0.0143845
683.371	0.0142883
683.450	0.0142741
683.528	0.0142938
683.606	0.0143718
683.684	0.0141900
683.762	0.0141512
683.840	0.0141443
683.918	0.0140613
683.996	0.0141092
684.075	0.0140686
684.153	0.0140008
684.231	0.0139618
684.309	0.0139833
684.387	0.0140937
684.465	0.0140939
684.543	0.0140761
684.621	0.0140612
684.700	0.0141126
684.778	0.0141069
684.856	0.0141300
684.934	0.0141184
685.012	0.0142125
685.090	0.0144174
685.168	0.0143093
685.246	0.0143059
685.325	0.0143825
685.403	0.0143869
685.481	0.0144572
685.559	0.0144252
685.637	0.0144656
685.715	0.0144109
685.793	0.0143892
685.871	0.0143090
685.950	0.0142984
686.028	0.0143317
686.106	0.0141746
686.184	0.0142217
686.262	0.0142009
686.340	0.0141347
686.418	0.0141303
686.496	0.0140170
686.575	0.0139371
686.653	0.0142217
686.731	0.0142055
686.809	0.0139084
686.887	0.0140627
686.965	0.0142014
687.043	0.0140224
687.121	0.0139988
687.200	0.0143130
687.278	0.0142263
687.356	0.0142249
687.434	0.0142327
687.512	0.0143200
687.590	0.0142826
687.668	0.0141343
687.746	0.0144518
687.825	0.0145060
687.903	0.0143507
687.981	0.0143457
688.059	0.0143512
688.137	0.0143176
688.215	0.0143687
688.293	0.0142218
688.371	0.0142401
688.450	0.0143439
688.528	0.0142014
688.606	0.0142552
688.684	0.0142295
688.762	0.0140755
688.840	0.0141405
688.918	0.0141785
688.996	0.0140292
689.075	0.0140553
689.153	0.0140514
689.231	0.0141800
689.309	0.0140823
689.387	0.0141806
689.465	0.0141949
689.543	0.0141241
689.621	0.0143003
689.700	0.0141259
689.778	0.0141927
689.856	0.0143590
689.934	0.0142648
690.012	0.0141521
690.090	0.0141179
690.168	0.0142293
690.246	0.0141671
690.325	0.0140364
690.403	0.0140443
690.481	0.0142352
690.559	0.0141567
690.637	0.0143772
690.715	0.0143871
690.793	0.0143666
690.871	0.0143832
690.950	0.0144608
691.028	0.0144402
691.106	0.0145345
691.184	0.0141606
691.262	0.0143565
691.340	0.0144645
691.418	0.0143195
691.496	0.0142359
691.575	0.0143719
691.653	0.0142722
691.731	0.0141659
691.809	0.0140847
691.887	0.0142123
691.965	0.0142677
692.043	0.0141661
692.121	0.0141206
692.200	0.0141647
692.278	0.0141611
692.356	0.0141058
692.434	0.0141821
692.512	0.0142645
692.590	0.0142189
692.668	0.0142037
692.746	0.0143820
692.825	0.0144132
692.903	0.0143974
692.981	0.0141912
693.059	0.0142986
693.137	0.0142628
693.215	0.0144149
693.293	0.0143585
693.371	0.0143295
693.450	0.0143994
693.528	0.0143220
693.606	0.0145088
693.684	0.0142139
693.762	0.0143580
693.840	0.0143767
693.918	0.0142465
693.996	0.0141532
694.075	0.0141840
694.153	0.0141779
694.231	0.0141041
694.309	0.0141653
694.387	0.0141815
694.465	0.0142376
694.543	0.0141458
694.621	0.0141443
694.700	0.0140687
694.778	0.0142298
694.856	0.0142989
694.934	0.0141190
695.012	0.0141927
695.090	0.0143010
695.168	0.0142932
695.246	0.0143405
695.325	0.0142772
695.403	0.0142268
695.481	0.0143019
695.559	0.0142817
695.637	0.0143710
695.715	0.0144418
695.793	0.0142242
695.871	0.0143050
695.950	0.0142228
696.028	0.0141654
696.106	0.0141454
696.184	0.0142077
696.262	0.0142248
696.340	0.0141721
696.418	0.0141969
696.496	0.0142729
696.575	0.0142395
696.653	0.0143407
696.731	0.0142583
696.809	0.0142897
696.887	0.0143387
696.965	0.0141340
697.043	0.0143658
697.121	0.0143752
697.200	0.0144076
697.278	0.0144555
697.356	0.0142706
697.434	0.0143524
697.512	0.0142235
697.590	0.0142369
697.668	0.0142163
697.746	0.0141370
697.825	0.0143018
697.903	0.0142363
697.981	0.0142667
698.059	0.0142625
698.137	0.0143289
698.215	0.0142635
698.293	0.0142638
698.371	0.0142151
698.450	0.0140087
698.528	0.0141149
698.606	0.0144717
698.684	0.0144221
698.762	0.0143958
698.840	0.0145645
698.918	0.0144532
698.996	0.0144781
699.075	0.0145065
699.153	0.0144019
699.231	0.0142931
699.309	0.0142278
699.387	0.0139140
699.465	0.0141452
699.543	0.0140423
699.621	0.0141626
699.700	0.0142542
699.778	0.0142963
699.856	0.0144041
699.934	0.0144208
700.012	0.0145388
700.090	0.0145120
700.168	0.0143382
700.246	0.0142741
700.325	0.0141855
700.403	0.0141338
700.481	0.0139821
700.559	0.0139908
700.637	0.0139798
700.715	0.0140017
700.793	0.0140775
700.871	0.0141393
700.950	0.0142178
701.028	0.0142818
701.106	0.0141680
701.184	0.0141894
701.262	0.0142204
701.340	0.0141972
701.418	0.0143478
701.496	0.0143509
701.575	0.0143209
701.653	0.0140923
701.731	0.0142167
701.809	0.0142809
701.887	0.0143085
701.965	0.0144151
702.043	0.0143046
702.121	0.0142285
702.200	0.0144286
702.278	0.0142738
702.356	0.0140646
702.434	0.0141419
702.512	0.0139149
702.590	0.0138004
702.668	0.0139470
702.746	0.0140711
702.825	0.0142070
702.903	0.0142335
702.981	0.0143654
703.059	0.0143041
703.137	0.0144145
703.215	0.0143204
703.293	0.0142715
703.371	0.0142140
703.450	0.0140893
703.528	0.0140804
703.606	0.0140743
703.684	0.0142174
703.762	0.0141318
703.840	0.0142597
703.918	0.0143683
703.996	0.0145386
704.075	0.0146663
704.153	0.0146708
704.231	0.0147747
704.309	0.0145248
704.387	0.0144915
704.465	0.0143476
704.543	0.0141187
704.621	0.0137808
704.700	0.0136834
704.778	0.0136919
704.856	0.0136794
704.934	0.0137514
705.012	0.0138741
705.090	0.0139766
705.168	0.0142263
705.246	0.0145267
705.325	0.0145464
705.403	0.0146571
705.481	0.0147767
705.559	0.0147849
705.637	0.0146539
705.715	0.0144576
705.793	0.0144487
705.871	0.0142702
705.950	0.0141393
706.028	0.0140376
706.106	0.0140161
706.184	0.0140294
706.262	0.0141400
706.340	0.0140284
706.418	0.0140719
706.496	0.0140427
706.575	0.0140446
706.653	0.0142227
706.731	0.0142229
706.809	0.0143670
706.887	0.0145830
706.965	0.0148093
707.043	0.0146751
707.121	0.0148212
707.200	0.0149712
707.278	0.0147873
707.356	0.0146459
707.434	0.0144204
707.512	0.0140772
707.590	0.0136469
707.668	0.0131792
707.746	0.0128859
707.825	0.0127456
707.903	0.0126900
707.981	0.0128254
708.059	0.0129108
708.137	0.0135145
708.215	0.0139489
708.293	0.0143591
708.371	0.0146523
708.450	0.0150570
708.528	0.0153959
708.606	0.0153201
708.684	0.0154420
708.762	0.0152921
708.840	0.0150465
708.918	0.0150147
708.996	0.0145902
709.075	0.0144868
709.153	0.0140341
709.231	0.0138381
709.309	0.0137070
709.387	0.0137227
709.465	0.0136973
709.543	0.0138402
709.621	0.0141692
709.700	0.0143051
709.778	0.0144742
709.856	0.0147746
709.934	0.0148866
710.012	0.0149771
710.090	0.0150022
710.168	0.0149947
710.246	0.0151057
710.325	0.0148742
710.403	0.0147982
710.481	0.0145895
710.559	0.0143315
710.637	0.0137253
710.715	0.0134992
710.793	0.0132015
710.871	0.0127953
710.950	0.0127657
711.028	0.0126775
711.106	0.0128413
711.184	0.0131376
711.262	0.0134623
711.340	0.0137696
711.418	0.0140219
711.496	0.0142576
711.575	0.0147047
711.653	0.0148769
711.731	0.0149116
711.809	0.0149659
711.887	0.0147385
711.965	0.0148832
712.043	0.0147151
712.121	0.0146242
712.200	0.0145495
712.278	0.0142846
712.356	0.0142491
712.434	0.0141849
712.512	0.0138648
712.590	0.0138196
712.668	0.0139189
712.746	0.0139651
712.825	0.0141320
712.903	0.0141694
712.981	0.0143687
713.059	0.0145010
713.137	0.0147074
713.215	0.0147446
713.293	0.0148463
713.371	0.0148811
713.450	0.0150166
713.528	0.0149393
713.606	0.0147333
713.684	0.0145390
713.762	0.0144115
713.840	0.0142107
713.918	0.0140096
713.996	0.0137695
714.075	0.0134180
714.153	0.0133570
714.231	0.0132360
714.309	0.0132887
714.387	0.0131458
714.465	0.0131903
714.543	0.0134118
714.621	0.0136057
714.700	0.0137602
714.778	0.0140153
714.856	0.0142332
714.934	0.0144678
715.012	0.0146992
715.090	0.0146539
715.168	0.0148951
715.246	0.0150179
715.325	0.0149701
715.403	0.0149459
715.481	0.0146588
715.559	0.0145642
715.637	0.0145490
715.715	0.0143609
715.793	0.0140886
715.871	0.0137247
715.950	0.0136800
716.028	0.0137544
716.106	0.0136655
716.184	0.0136992
716.262	0.0137849
716.340	0.0140426
716.418	0.0142126
716.496	0.0146556
716.575	0.0146127
716.653	0.0149722
716.731	0.0152531
716.809	0.0152924
716.887	0.0152274
716.965	0.0151434
717.043	0.0152518
717.121	0.0149625
717.200	0.0144694
717.278	0.0141604
717.356	0.0139032
717.434	0.0136342
717.512	0.0135734
717.590	0.0132378
717.668	0.0130898
717.746	0.0132245
717.825	0.0133627
717.903	0.0133479
717.981	0.0135384
718.059	0.0137256
718.137	0.0139174
718.215	0.0141147
718.293	0.0142057
718.371	0.0143963
718.450	0.0145029
718.528	0.0145383
718.606	0.0146283
718.684	0.0146162
718.762	0.0145652
718.840	0.0143967
718.918	0.0146217
718.996	0.0143349
719.075	0.0143414
719.153	0.0143648
719.231	0.0142465
719.309	0.0143372
719.387	0.0140679
719.465	0.0140168
719.543	0.0140289
719.621	0.0141375
719.700	0.0143128
719.778	0.0140993
719.856	0.0146108
719.934	0.0147057
720.012	0.0147309
720.090	0.0147175
720.168	0.0148737
720.246	0.0151020
720.325	0.0150340
720.403	0.0148770
720.481	0.0150533
720.559	0.0148338
720.637	0.0145297
720.715	0.0143487
720.793	0.0141228
720.871	0.0137664
720.950	0.0136372
721.028	0.0135984
721.106	0.0133919
721.184	0.0134025
721.262	0.0134595
721.340	0.0135374
721.418	0.0136007
721.496	0.0137656
721.575	0.0139246
721.653	0.0140868
721.731	0.0143311
721.809	0.0143415
721.887	0.0143162
721.965	0.0143141
722.043	0.0144787
722.121	0.0142265
722.200	0.0143359
722.278	0.0142147
722.356	0.0141455
722.434	0.0141935
722.512	0.0141052
722.590	0.0140405
722.668	0.0140622
722.746	0.0141415
722.825	0.0142192
722.903	0.0143414
722.981	0.0144318
723.059	0.0146049
723.137	0.0147233
723.215	0.0148263
723.293	0.0148348
723.371	0.0149027
723.450	0.0148055
723.528	0.0146899
723.606	0.0146851
723.684	0.0146255
723.762	0.0144014
723.840	0.0145486
723.918	0.0141975
723.996	0.0142150
724.075	0.0142786
724.153	0.0141667
724.231	0.0141248
724.309	0.0141177
724.387	0.0142511
724.465	0.0140944
724.543	0.0140981
724.621	0.0141798
724.700	0.0140850
724.778	0.0141782
724.856	0.0141162
724.934	0.0141380
725.012	0.0140341
725.090	0.0140900
725.168	0.0140357
725.246	0.0140769
725.325	0.0140501
725.403	0.0138078
725.481	0.0139346
725.559	0.0139733
725.637	0.0137759
725.715	0.0139565
725.793	0.0138182
725.871	0.0138902
725.950	0.0140655
726.028	0.0139268
726.106	0.0141058
726.184	0.0143478
726.262	0.0142239
726.340	0.0142780
726.418	0.0145246
726.496	0.0145198
726.575	0.0145013
726.653	0.0145738
726.731	0.0145735
726.809	0.0144070
726.887	0.0143576
726.965	0.0143955
727.043	0.0143374
727.121	0.0143214
727.200	0.0144284
727.278	0.0144298
727.356	0.0144808
727.434	0.0144652
727.512	0.0144490
727.590	0.0144118
727.668	0.0144084
727.746	0.0143550
727.825	0.0142622
727.903	0.0144437
727.981	0.0143519
728.059	0.0143122
728.137	0.0142548
728.215	0.0142191
728.293	0.0142410
728.371	0.0143665
728.450	0.0142436
728.528	0.0141895
728.606	0.0141470
728.684	0.0143571
728.762	0.0141245
728.840	0.0141230
728.918	0.0142684
728.996	0.0141645
729.075	0.0139930
729.153	0.0140311
729.231	0.0140311
729.309	0.0140423
729.387	0.0141148
729.465	0.0139950
729.543	0.0140130
729.621	0.0140500
729.700	0.0142631
729.778	0.0142961
729.856	0.0141944
729.934	0.0143784
730.012	0.0144093
730.090	0.0144117
730.168	0.0145054
730.246	0.0143302
730.325	0.0145530
730.403	0.0145934
730.481	0.0144902
730.559	0.0143507
730.637	0.0143649
730.715	0.0143876
730.793	0.0142111
730.871	0.0142812
730.950	0.0140801
731.028	0.0139956
731.106	0.0139186
731.184	0.0139127
731.262	0.0138240
731.340	0.0138216
731.418	0.0139394
731.496	0.0139368
731.575	0.0140773
731.653	0.0141049
731.731	0.0141865
731.809	0.0142543
731.887	0.0142849
731.965	0.0142490
732.043	0.0145213
732.121	0.0143131
732.200	0.0141515
732.278	0.0142672
732.356	0.0141076
732.434	0.0142052
732.512	0.0142632
732.590	0.0140710
732.668	0.0141901
732.746	0.0141348
732.825	0.0140297
732.903	0.0142568
732.981	0.0143635
733.059	0.0142832
733.137	0.0142287
733.215	0.0144669
733.293	0.0145002
733.371	0.0144306
733.450	0.0144088
733.528	0.0145558
733.606	0.0144141
733.684	0.0143557
733.762	0.0141914
733.840	0.0141303
733.918	0.0141602
733.996	0.0141560
734.075	0.0140304
734.153	0.0141979
734.231	0.0140568
734.309	0.0140691
734.387	0.0141629
734.465	0.0140606
734.543	0.0139494
734.621	0.0140017
734.700	0.0140888
734.778	0.0140217
734.856	0.0138723
734.934	0.0138937
735.012	0.0140608
735.090	0.0139637
735.168	0.0137948
735.246	0.0138309
735.325	0.0140354
735.403	0.0140196
735.481	0.0139176
735.559	0.0140347
735.637	0.0141719
735.715	0.0140716
735.793	0.0142371
735.871	0.0143696
735.950	0.0144743
736.028	0.0144378
736.106	0.0144532
736.184	0.0144602
736.262	0.0144234
736.340	0.0145195
736.418	0.0144944
736.496	0.0144135
736.575	0.0144707
736.653	0.0143944
736.731	0.0143451
736.809	0.0142876
736.887	0.0144038
736.965	0.0143868
737.043	0.0143357
737.121	0.0143888
737.200	0.0143035
737.278	0.0142461
737.356	0.0142309
737.434	0.0143781
737.512	0.0143020
737.590	0.0142163
737.668	0.0142047
737.746	0.0142197
737.825	0.0140527
737.903	0.0140762
737.981	0.0142426
738.059	0.0140250
738.137	0.0140099
738.215	0.0139506
738.293	0.0139285
738.371	0.0139479
738.450	0.0139134
738.528	0.0138559
738.606	0.0137121
738.684	0.0137864
738.762	0.0137814
738.840	0.0136807
738.918	0.0138106
738.996	0.0137992
739.075	0.0139042
739.153	0.0138511
739.231	0.0141104
739.309	0.0142403
739.387	0.0142944
739.465	0.0143301
739.543	0.0143073
739.621	0.0144197
739.700	0.0144905
739.778	0.0147100
739.856	0.0146463
739.934	0.0145967
740.012	0.0143651
740.090	0.0145900
740.168	0.0146402
740.246	0.0146908
740.325	0.0146745
740.403	0.0145599
740.481	0.0146347
740.559	0.0145136
740.637	0.0144022
740.715	0.0144502
740.793	0.0145808
740.871	0.0145506
740.950	0.0144257
741.028	0.0144666
741.106	0.0144773
741.184	0.0145621
741.262	0.0143092
741.340	0.0141995
741.418	0.0142393
741.496	0.0140936
741.575	0.0140340
741.653	0.0140609
741.731	0.0138866
741.809	0.0138670
741.887	0.0140900
741.965	0.0138428
742.043	0.0138847
742.121	0.0139644
742.200	0.0139489
742.278	0.0140462
742.356	0.0139750
742.434	0.0139991
742.512	0.0139333
742.590	0.0141461
742.668	0.0141058
742.746	0.0141402
742.825	0.0141479
742.903	0.0140281
742.981	0.0141779
743.059	0.0141238
743.137	0.0141202
743.215	0.0143810
743.293	0.0142954
743.371	0.0143043
743.450	0.0142301
743.528	0.0142045
743.606	0.0143539
743.684	0.0144932
743.762	0.0144858
743.840	0.0146352
743.918	0.0145483
743.996	0.0144071
744.075	0.0146953
744.153	0.0146642
744.231	0.0144955
744.309	0.0145537
744.387	0.0144812
744.465	0.0143333
744.543	0.0143221
744.621	0.0142892
744.700	0.0142333
744.778	0.0141895
744.856	0.0141702
744.934	0.0142342
745.012	0.0141434
745.090	0.0142135
745.168	0.0142723
745.246	0.0142136
745.325	0.0142062
745.403	0.0142970
745.481	0.0141177
745.559	0.0141964
745.637	0.0141368
745.715	0.0138989
745.793	0.0139948
745.871	0.0140870
745.950	0.0140144
746.028	0.0140298
746.106	0.0140784
746.184	0.0139177
746.262	0.0139019
746.340	0.0139829
746.418	0.0141621
746.496	0.0141331
746.575	0.0141030
746.653	0.0141713
746.731	0.0141790
746.809	0.0142665
746.887	0.0142790
746.965	0.0142738
747.043	0.0142368
747.121	0.0142925
747.200	0.0143510
747.278	0.0143346
747.356	0.0143898
747.434	0.0143735
747.512	0.0145231
747.590	0.0144118
747.668	0.0143943
747.746	0.0144271
747.825	0.0144318
747.903	0.0144646
747.981	0.0143967
748.059	0.0142979
748.137	0.0144313
748.215	0.0143728
748.293	0.0143499
748.371	0.0143235
748.450	0.0141260
748.528	0.0141566
748.606	0.0142953
748.684	0.0142436
748.762	0.0140334
748.840	0.0139480
748.918	0.0139886
748.996	0.0139676
749.075	0.0139816
749.153	0.0139956
749.231	0.0140464
749.309	0.0139944
749.387	0.0139925
749.465	0.0140532
749.543	0.0140367
749.621	0.0140218
749.700	0.0141742
749.778	0.0142865
749.856	0.0143092
749.934	0.0143313
750.012	0.0144587
750.090	0.0144228
750.168	0.0144827
750.246	0.0144174
750.325	0.0144972
750.403	0.0143999
750.481	0.0145753
750.559	0.0144131
750.637	0.0143681
750.715	0.0142340
750.793	0.0143875
750.871	0.0142217
750.950	0.0142135
751.028	0.0142883
751.106	0.0142239
751.184	0.0141735
751.262	0.0142227
751.340	0.0142059
751.418	0.0141533
751.496	0.0142418
751.575	0.0142153
751.653	0.0142055
751.731	0.0142283
751.809	0.0142872
751.887	0.0140826
751.965	0.0142094
752.043	0.0140248
752.121	0.0141249
752.200	0.0142332
752.278	0.0141330
752.356	0.0141541
752.434	0.0141405
752.512	0.0141340
752.590	0.0141033
752.668	0.0140172
752.746	0.0141077
752.825	0.0140587
752.903	0.0140446
752.981	0.0140210
753.059	0.0140362
753.137	0.0140902
753.215	0.0142837
753.293	0.0141836
753.371	0.0141776
753.450	0.0142910
753.528	0.0143143
753.606	0.0141632
753.684	0.0142036
753.762	0.0141899
753.840	0.0142843
753.918	0.0143478
753.996	0.0144017
754.075	0.0144353
754.153	0.0144149
754.231	0.0142560
754.309	0.0143964
754.387	0.0143600
754.465	0.0144466
754.543	0.0144633
754.621	0.0144366
754.700	0.0144175
754.778	0.0142794
754.856	0.0143005
754.934	0.0143983
755.012	0.0142573
755.090	0.0142183
755.168	0.0142031
755.246	0.0141273
755.325	0.0141082
755.403	0.0141261
755.481	0.0141685
755.559	0.0141911
755.637	0.0141690
755.715	0.0142017
755.793	0.0141152
755.871	0.0139877
755.950	0.0140945
756.028	0.0141261
756.106	0.0141666
756.184	0.0140186
756.262	0.0140308
756.340	0.0139340
756.418	0.0140558
756.496	0.0140850
756.575	0.0140285
756.653	0.0140510
756.731	0.0140327
756.809	0.0141178
756.887	0.0141322
756.965	0.0140335
757.043	0.0141309
757.121	0.0142645
757.200	0.0142234
757.278	0.0143104
757.356	0.0144518
757.434	0.0142749
757.512	0.0143188
757.590	0.0144769
757.668	0.0144732
757.746	0.0144218
757.825	0.0144230
757.903	0.0143708
757.981	0.0143459
758.059	0.0143612
758.137	0.0143910
758.215	0.0143626
758.293	0.0143994
758.371	0.0142345
758.450	0.0141322
758.528	0.0142332
758.606	0.0142307
758.684	0.0142425
758.762	0.0143121
758.840	0.0142390
758.918	0.0141154
758.996	0.0142031
759.075	0.0141114
759.153	0.0142375
759.231	0.0141270
759.309	0.0142140
759.387	0.0140704
759.465	0.0141259
759.543	0.0142831
759.621	0.0140946
759.700	0.0140948
759.778	0.0140043
759.856	0.0140578
759.934	0.0139983
760.012	0.0141290
760.090	0.0141389
760.168	0.0139986
760.246	0.0140561
760.325	0.0140704
760.403	0.0140974
760.481	0.0141302
760.559	0.0141587
760.637	0.0141280
760.715	0.0140869
760.793	0.0142616
760.871	0.0143133
760.950	0.0140745
761.028	0.0140813
761.106	0.0142677
761.184	0.0142630
761.262	0.0142825
761.340	0.0142891
761.418	0.0142645
761.496	0.0141901
761.575	0.0141164
761.653	0.0142347
761.731	0.0142907
761.809	0.0143097
761.887	0.0141979
761.965	0.0141432
762.043	0.0143088
762.121	0.0142848
762.200	0.0143362
762.278	0.0144646
762.356	0.0143216
762.434	0.0142596
762.512	0.0143292
762.590	0.0143143
762.668	0.0142787
762.746	0.0142399
762.825	0.0142410
762.903	0.0141104
762.981	0.0142549
763.059	0.0141493
763.137	0.0142130
763.215	0.0142809
763.293	0.0141507
763.371	0.0140802
763.450	0.0141349
763.528	0.0140948
763.606	0.0141078
763.684	0.0141772
763.762	0.0142683
763.840	0.0140900
763.918	0.0140985
763.996	0.0140872
764.075	0.0141714
764.153	0.0141994
764.231	0.0141292
764.309	0.0142209
764.387	0.0141899
764.465	0.0142390
764.543	0.0142986
764.621	0.0143570
764.700	0.0144058
764.778	0.0143629
764.856	0.0143082
764.934	0.0143973
765.012	0.0144312
765.090	0.0143266
765.168	0.0143597
765.246	0.0144324
765.325	0.0143198
765.403	0.0142445
765.481	0.0142532
765.559	0.0143504
765.637	0.0143134
765.715	0.0141988
765.793	0.0143948
765.871	0.0141732
765.950	0.0143024
766.028	0.0141830
766.106	0.0142626
766.184	0.0142149
766.262	0.0142821
766.340	0.0142757
766.418	0.0143370
766.496	0.0141898
766.575	0.0141622
766.653	0.0142341
766.731	0.0142683
766.809	0.0141156
766.887	0.0142341
766.965	0.0141857
767.043	0.0140369
767.121	0.0140272
767.200	0.0141357
767.278	0.0140777
767.356	0.0141281
767.434	0.0141085
767.512	0.0141539
767.590	0.0141659
767.668	0.0142350
767.746	0.0140254
767.825	0.0142088
767.903	0.0142374
767.981	0.0142480
768.059	0.0142916
768.137	0.0142943
768.215	0.0143788
768.293	0.0143768
768.371	0.0142605
768.450	0.0143594
768.528	0.0143399
768.606	0.0142655
768.684	0.0143239
768.762	0.0143987
768.840	0.0143213
768.918	0.0142868
768.996	0.0143673
769.075	0.0142790
769.153	0.0143363
769.231	0.0141998
769.309	0.0141451
769.387	0.0141847
769.465	0.0142090
769.543	0.0144138
769.621	0.0143510
769.700	0.0142838
769.778	0.0142598
769.856	0.0141392
769.934	0.0142302
770.012	0.0142733
770.090	0.0142097
770.168	0.0142373
770.246	0.0142056
770.325	0.0143276
770.403	0.0143172
770.481	0.0141775
770.559	0.0142002
770.637	0.0142733
770.715	0.0143366
770.793	0.0141995
770.871	0.0142117
770.950	0.0142949
771.028	0.0141431
771.106	0.0141737
771.184	0.0143263
771.262	0.0142578
771.340	0.0142969
771.418	0.0142429
771.496	0.0142466
771.575	0.0142201
771.653	0.0143079
771.731	0.0143225
771.809	0.0141568
771.887	0.0141418
771.965	0.0142616
772.043	0.0143526
772.121	0.0145349
772.200	0.0143139
772.278	0.0142092
772.356	0.0143490
772.434	0.0142042
772.512	0.0141505
772.590	0.0142527
772.668	0.0142062
772.746	0.0140579
772.825	0.0141676
772.903	0.0142399
772.981	0.0142272
773.059	0.0142300
773.137	0.0142084
773.215	0.0142523
773.293	0.0142059
773.371	0.0141297
773.450	0.0141722
773.528	0.0143008
773.606	0.0141071
773.684	0.0142776
773.762	0.0142316
773.840	0.0141410
773.918	0.0142954
773.996	0.0141622
774.075	0.0141311
774.153	0.0140080
774.231	0.0141178
774.309	0.0142361
774.387	0.0139846
774.465	0.0141766
774.543	0.0142409
774.621	0.0142110
774.700	0.0142212
774.778	0.0142100
774.856	0.0142081
774.934	0.0142362
775.012	0.0142059
775.090	0.0141273
775.168	0.0141699
775.246	0.0143499
775.325	0.0142481
775.403	0.0142207
775.481	0.0141727
775.559	0.0143243
775.637	0.0142706
775.715	0.0142635
775.793	0.0142992
775.871	0.0142556
775.950	0.0141731
776.028	0.0142012
776.106	0.0142776
776.184	0.0143898
776.262	0.0142949
776.340	0.0142085
776.418	0.0142892
776.496	0.0142549
776.575	0.0142326
776.653	0.0142071
776.731	0.0141368
776.809	0.0141226
776.887	0.0141591
776.965	0.0141578
777.043	0.0142111
777.121	0.0142984
777.200	0.0142188
777.278	0.0140829
777.356	0.0140369
777.434	0.0142151
777.512	0.0141376
777.590	0.0140705
777.668	0.0141552
777.746	0.0142216
777.825	0.0140652
777.903	0.0141250
777.981	0.0141109
778.059	0.0141495
778.137	0.0141972
778.215	0.0142036
778.293	0.0140363
778.371	0.0141225
778.450	0.0141972
778.528	0.0141128
778.606	0.0141425
778.684	0.0142310
778.762	0.0143256
778.840	0.0142120
778.918	0.0143382
778.996	0.0143971
779.075	0.0143567
779.153	0.0142784
779.231	0.0143674
779.309	0.0141730
779.387	0.0141997
779.465	0.0142363
779.543	0.0141249
779.621	0.0141481
779.700	0.0142212
779.778	0.0142915
779.856	0.0142920
779.934	0.0142768
780.012	0.0142738
780.090	0.0141721
780.168	0.0142162
780.246	0.0141483
780.325	0.0142007
780.403	0.0142398
780.481	0.0141983
780.559	0.0142339
780.637	0.0143462
780.715	0.0141280
780.793	0.0141950
780.871	0.0141226
780.950	0.0142431
781.028	0.0143169
781.106	0.0141869
781.184	0.0140604
781.262	0.0142003
781.340	0.0140962
781.418	0.0141420
781.496	0.0141467
781.575	0.0140712
781.653	0.0140371
781.731	0.0139777
781.809	0.0140604
781.887	0.0141503
781.965	0.0142117
782.043	0.0142582
782.121	0.0142673
782.200	0.0141383
782.278	0.0143011
782.356	0.0141274
782.434	0.0141931
782.512	0.0140510
782.590	0.0143735
782.668	0.0142453
782.746	0.0144059
782.825	0.0142083
782.903	0.0142260
782.981	0.0143365
783.059	0.0145023
783.137	0.0143587
783.215	0.0142586
783.293	0.0143293
783.371	0.0142184
783.450	0.0141113
783.528	0.0143477
783.606	0.0143250
783.684	0.0143136
783.762	0.0143703
783.840	0.0143211
783.918	0.0143604
783.996	0.0142937
784.075	0.0143357
784.153	0.0143060
784.231	0.0143062
784.309	0.0143617
784.387	0.0141966
784.465	0.0142553
784.543	0.0141586
784.621	0.0141670
784.700	0.0141788
784.778	0.0142715
784.856	0.0141788
784.934	0.0142089
785.012	0.0142522
785.090	0.0141546
785.168	0.0141829
785.246	0.0141716
785.325	0.0140672
785.403	0.0142433
785.481	0.0140046
785.559	0.0140508
785.637	0.0141676
785.715	0.0140643
785.793	0.0141154
785.871	0.0141844
785.950	0.0141601
786.028	0.0142393
786.106	0.0142030
786.184	0.0142461
786.262	0.0142789
786.340	0.0142252
786.418	0.0142706
786.496	0.0142197
786.575	0.0142914
786.653	0.0143137
786.731	0.0143382
786.809	0.0143314
786.887	0.0142844
786.965	0.0141953
787.043	0.0141050
787.121	0.0143308
787.200	0.0142202
787.278	0.0143085
787.356	0.0142946
787.434	0.0142639
787.512	0.0143713
787.590	0.0142963
787.668	0.0142775
787.746	0.0143700
787.825	0.0144839
787.903	0.0143999
787.981	0.0142973
788.059	0.0144002
788.137	0.0144260
788.215	0.0144004
788.293	0.0143352
788.371	0.0143528
788.450	0.0143636
788.528	0.0143496
788.606	0.0141983
788.684	0.0142094
788.762	0.0142103
788.840	0.0141627
788.918	0.0142342
788.996	0.0143511
789.075	0.0141541
789.153	0.0142319
789.231	0.0143018
789.309	0.0142957
789.387	0.0143356
789.465	0.0140940
789.543	0.0141875
789.621	0.0142158
789.700	0.0141565
789.778	0.0142667
789.856	0.0140678
789.934	0.0141574
790.012	0.0140943
790.090	0.0142065
790.168	0.0140976
790.246	0.0141010
790.325	0.0142257
790.403	0.0142072
790.481	0.0141572
790.559	0.0140855
790.637	0.0141650
790.715	0.0142350
790.793	0.0142899
790.871	0.0143121
790.950	0.0142242
791.028	0.0141999
791.106	0.0142776
791.184	0.0143717
791.262	0.0142329
791.340	0.0142374
791.418	0.0141492
791.496	0.0143574
791.575	0.0142673
791.653	0.0140664
791.731	0.0141879
791.809	0.0142023
791.887	0.0142820
791.965	0.0142097
792.043	0.0142754
792.121	0.0141971
792.200	0.0142284
792.278	0.0141788
792.356	0.0142469
792.434	0.0144057
792.512	0.0143340
792.590	0.0142213
792.668	0.0140495
792.746	0.0142102
792.825	0.0143623
792.903	0.0142352
792.981	0.0143593
793.059	0.0143578
793.137	0.0142268
793.215	0.0142976
793.293	0.0141460
793.371	0.0142729
793.450	0.0143268
793.528	0.0141416
793.606	0.0141250
793.684	0.0141325
793.762	0.0142296
793.840	0.0141992
793.918	0.0141487
793.996	0.0141500
794.075	0.0141297
794.153	0.0142570
794.231	0.0142855
794.309	0.0142694
794.387	0.0141667
794.465	0.0142373
794.543	0.0140716
794.621	0.0141831
794.700	0.0143507
794.778	0.0143401
794.856	0.0143643
794.934	0.0141953
795.012	0.0143346
795.090	0.0144982
795.168	0.0141663
795.246	0.0142800
795.325	0.0142337
795.403	0.0143126
795.481	0.0142888
795.559	0.0142744
795.637	0.0141911
795.715	0.0143059
795.793	0.0142284
795.871	0.0142659
795.950	0.0141890
796.028	0.0143010
796.106	0.0141828
796.184	0.0142120
796.262	0.0142773
796.340	0.0141735
796.418	0.0141772
796.496	0.0141774
796.575	0.0143174
796.653	0.0143067
796.731	0.0140979
796.809	0.0141183
796.887	0.0144218
796.965	0.0142043
797.043	0.0142444
797.121	0.0142786
797.200	0.0140603
797.278	0.0142503
797.356	0.0141780
797.434	0.0142226
797.512	0.0142667
797.590	0.0142513
797.668	0.0141437
797.746	0.0141740
797.825	0.0142297
797.903	0.0141544
797.981	0.0141316
798.059	0.0142358
798.137	0.0141510
798.215	0.0142411
798.293	0.0142029
798.371	0.0140870
798.450	0.0141303
798.528	0.0142216
798.606	0.0141544
798.684	0.0142110
798.762	0.0142496
798.840	0.0141779
798.918	0.0142376
798.996	0.0141631
799.075	0.0142562
799.153	0.0143078
799.231	0.0143363
799.309	0.0142815
799.387	0.0143140
799.465	0.0143025
799.543	0.0143404
799.621	0.0142593
799.700	0.0142442
799.778	0.0144469
799.856	0.0143452
799.934	0.0144617
800.012	0.0142345
800.090	0.0142342
800.168	0.0142754
800.246	0.0143336
800.325	0.0142300
800.403	0.0142039
800.481	0.0142199
800.559	0.0143209
800.637	0.0142886
800.715	0.0142283
800.793	0.0141651
800.871	0.0141938
800.950	0.0142112
801.028	0.0142517
801.106	0.0142771
801.184	0.0141724
801.262	0.0141743
801.340	0.0141928
801.418	0.0142439
801.496	0.0143719
801.575	0.0142042
801.653	0.0141696
801.731	0.0142665
801.809	0.0142670
801.887	0.0142091
801.965	0.0143072
802.043	0.0142750
802.121	0.0141909
802.200	0.0142767
802.278	0.0144061
802.356	0.0141059
802.434	0.0142928
802.512	0.0142757
802.590	0.0141031
802.668	0.0140400
802.746	0.0142789
802.825	0.0142946
802.903	0.0142622
802.981	0.0142331
803.059	0.0142651
803.137	0.0142042
803.215	0.0142285
803.293	0.0140832
803.371	0.0142159
803.450	0.0141080
803.528	0.0141695
803.606	0.0141891
803.684	0.0142471
803.762	0.0141411
803.840	0.0141647
803.918	0.0141734
803.996	0.0141620
804.075	0.0141309
804.153	0.0142114
804.231	0.0140708
804.309	0.0141981
804.387	0.0143248
804.465	0.0141838
804.543	0.0140597
804.621	0.0141495
804.700	0.0141460
804.778	0.0141535
804.856	0.0142853
804.934	0.0141595
805.012	0.0141810
805.090	0.0141489
805.168	0.0142032
805.246	0.0142964
805.325	0.0142393
805.403	0.0142225
805.481	0.0143800
805.559	0.0142268
805.637	0.0143852
805.715	0.0142780
805.793	0.0142966
805.871	0.0143385
805.950	0.0142727
806.028	0.0142179
806.106	0.0143073
806.184	0.0143731
806.262	0.0142856
806.340	0.0144040
806.418	0.0142519
806.496	0.0143255
806.575	0.0142364
806.653	0.0141744
806.731	0.0140165
806.809	0.0140601
806.887	0.0141100
806.965	0.0141035
807.043	0.0141846
807.121	0.0141800
807.200	0.0141966
807.278	0.0142771
807.356	0.0141146
807.434	0.0142505
807.512	0.0142830
807.590	0.0143240
807.668	0.0142610
807.746	0.0142208
807.825	0.0143193
807.903	0.0144288
807.981	0.0144032
808.059	0.0143261
808.137	0.0141727
808.215	0.0142972
808.293	0.0141885
808.371	0.0143800
808.450	0.0143243
808.528	0.0141698
808.606	0.0142599
808.684	0.0142049
808.762	0.0141717
808.840	0.0142622
808.918	0.0142208
808.996	0.0142466
809.075	0.0142515
809.153	0.0142168
809.231	0.0141784
809.309	0.0142781
809.387	0.0141674
809.465	0.0141096
809.543	0.0141363
809.621	0.0140941
809.700	0.0142617
809.778	0.0141361
809.856	0.0142519
809.934	0.0141906
810.012	0.0141663
810.090	0.0141045
810.168	0.0141795
810.246	0.0141660
810.325	0.0141069
810.403	0.0142316
810.481	0.0141769
810.559	0.0142324
810.637	0.0141146
810.715	0.0140913
810.793	0.0140981
810.871	0.0141251
810.950	0.0142523
811.028	0.0140517
811.106	0.0142754
811.184	0.0142631
811.262	0.0143068
811.340	0.0142036
811.418	0.0141238
811.496	0.0141965
811.575	0.0141747
811.653	0.0143353
811.731	0.0142911
811.809	0.0142301
811.887	0.0143079
811.965	0.0144041
812.043	0.0142292
812.121	0.0142372
812.200	0.0143081
812.278	0.0142877
812.356	0.0143535
812.434	0.0143133
812.512	0.0142605
812.590	0.0142539
812.668	0.0142619
812.746	0.0142712
812.825	0.0142555
812.903	0.0143137
812.981	0.0142751
813.059	0.0142312
813.137	0.0141271
813.215	0.0143327
813.293	0.0142233
813.371	0.0140502
813.450	0.0141426
813.528	0.0141491
813.606	0.0142115
813.684	0.0141945
813.762	0.0140997
813.840	0.0142474
813.918	0.0142928
813.996	0.0141450
814.075	0.0140305
814.153	0.0141552
814.231	0.0141605
814.309	0.0140579
814.387	0.0141736
814.465	0.0142536
814.543	0.0142624
814.621	0.0142581
814.700	0.0143449
814.778	0.0142381
814.856	0.0141708
814.934	0.0143513
815.012	0.0141392
815.090	0.0141391
815.168	0.0142200
815.246	0.0141651
815.325	0.0143054
815.403	0.0141979
815.481	0.0142651
815.559	0.0142355
815.637	0.0142163
815.715	0.0143251
815.793	0.0142479
815.871	0.0142200
815.950	0.0142262
816.028	0.0145130
816.106	0.0142876
816.184	0.0140764
816.262	0.0141416
816.340	0.0143865
816.418	0.0142778
816.496	0.0142172
816.575	0.0142979
816.653	0.0141790
816.731	0.0140029
816.809	0.0141112
816.887	0.0142207
816.965	0.0140868
817.043	0.0141264
817.121	0.0141120
817.200	0.0140908
817.278	0.0141774
817.356	0.0142334
817.434	0.0142317
817.512	0.0141059
817.590	0.0140749
817.668	0.0142265
817.746	0.0141993
817.825	0.0142426
817.903	0.0142660
817.981	0.0142923
818.059	0.0142644
818.137	0.0144043
818.215	0.0142686
818.293	0.0141758
818.371	0.0142197
818.450	0.0143117
818.528	0.0142945
818.606	0.0141996
818.684	0.0142507
818.762	0.0143959
818.840	0.0142381
818.918	0.0141722
818.996	0.0143033
819.075	0.0142461
819.153	0.0142766
819.231	0.0142831
819.309	0.0141989
819.387	0.0143523
819.465	0.0142027
819.543	0.0141913
819.621	0.0142854
819.700	0.0144108
819.778	0.0142165
819.856	0.0142300
819.934	0.0141957
820.012	0.0143704
820.090	0.0143864
820.168	0.0143803
820.246	0.0141994
820.325	0.0142191
820.403	0.0142238
820.481	0.0142761
820.559	0.0141804
820.637	0.0141625
820.715	0.0142512
820.793	0.0142344
820.871	0.0143511
820.950	0.0141732
821.028	0.0141659
821.106	0.0141251
821.184	0.0140475
821.262	0.0142182
821.340	0.0142113
821.418	0.0141480
821.496	0.0141879
821.575	0.0142039
821.653	0.0141070
821.731	0.0141584
821.809	0.0142104
821.887	0.0141222
821.965	0.0141335
822.043	0.0141360
822.121	0.0140849
822.200	0.0142365
822.278	0.0142307
822.356	0.0142939
822.434	0.0141471
822.512	0.0141673
822.590	0.0142965
822.668	0.0141503
822.746	0.0143351
822.825	0.0143375
822.903	0.0143017
822.981	0.0142239
823.059	0.0141209
823.137	0.0141720
823.215	0.0142127
823.293	0.0143151
823.371	0.0141616
823.450	0.0140588
823.528	0.0141758
823.606	0.0142697
823.684	0.0140781
823.762	0.0141423
823.840	0.0143182
823.918	0.0140833
823.996	0.0142110
824.075	0.0143411
824.153	0.0142501
824.231	0.0143165
824.309	0.0142613
824.387	0.0141190
824.465	0.0144169
824.543	0.0143332
824.621	0.0141931
824.700	0.0142756
824.778	0.0143070
824.856	0.0142645
824.934	0.0142916
825.012	0.0142892
825.090	0.0143095
825.168	0.0142033
825.246	0.0141605
825.325	0.0142755
825.403	0.0142321
825.481	0.0141467
825.559	0.0142001
825.637	0.0142786
825.715	0.0141944
825.793	0.0140554
825.871	0.0142466
825.950	0.0141731
826.028	0.0141138
826.106	0.0142437
826.184	0.0141214
826.262	0.0143067
826.340	0.0142126
826.418	0.0142157
826.496	0.0140439
826.575	0.0141804
826.653	0.0140638
826.731	0.0140711
826.809	0.0141363
826.887	0.0141222
826.965	0.0141165
827.043	0.0141466
827.121	0.0141319
827.200	0.0142334
827.278	0.0141344
827.356	0.0141358
827.434	0.0142482
827.512	0.0141871
827.590	0.0141652
827.668	0.0142410
827.746	0.0141974
827.825	0.0141218
827.903	0.0141721
827.981	0.0142038
828.059	0.0143030
828.137	0.0142336
828.215	0.0142083
828.293	0.0141475
828.371	0.0141396
828.450	0.0140759
828.528	0.0141598
828.606	0.0141768
828.684	0.0141211
828.762	0.0142462
828.840	0.0142235
828.918	0.0143733
828.996	0.0142865
829.075	0.0141190
829.153	0.0143124
829.231	0.0142451
829.309	0.0142468
829.387	0.0142098
829.465	0.0141351
829.543	0.0141985
829.621	0.0142870
829.700	0.0141985
829.778	0.0142252
829.856	0.0142289
829.934	0.0142049
830.012	0.0140803
830.090	0.0141561
830.168	0.0141332
830.246	0.0140956
830.325	0.0141727
830.403	0.0141788
830.481	0.0142451
830.559	0.0140669
830.637	0.0142475
830.715	0.0141663
830.793	0.0141971
830.871	0.0142536
830.950	0.0143307
831.028	0.0142448
831.106	0.0141773
831.184	0.0142379
831.262	0.0142048
831.340	0.0141980
831.418	0.0142265
831.496	0.0142323
831.575	0.0139865
831.653	0.0141521
831.731	0.0140715
831.809	0.0141040
831.887	0.0141944
831.965	0.0141325
832.043	0.0141306
832.121	0.0141418
832.200	0.0141464
832.278	0.0142091
832.356	0.0141322
832.434	0.0141695
832.512	0.0143385
832.590	0.0143779
832.668	0.0142954
832.746	0.0142980
832.825	0.0143429
832.903	0.0142262
832.981	0.0143224
833.059	0.0141631
833.137	0.0141895
833.215	0.0142728
833.293	0.0142078
833.371	0.0141528
833.450	0.0141504
833.528	0.0141274
833.606	0.0142741
833.684	0.0142509
833.762	0.0141479
833.840	0.0141373
833.918	0.0141482
833.996	0.0142862
834.075	0.0141650
834.153	0.0141711
834.231	0.0142531
834.309	0.0142325
834.387	0.0141942
834.465	0.0142551
834.543	0.0141654
834.621	0.0141163
834.700	0.0141529
834.778	0.0141449
834.856	0.0142559
834.934	0.0141269
835.012	0.0143200
835.090	0.0141595
835.168	0.0142245
835.246	0.0141948
835.325	0.0141191
835.403	0.0141352
835.481	0.0142768
835.559	0.0142433
835.637	0.0143098
835.715	0.0142895
835.793	0.0141937
835.871	0.0141736
835.950	0.0142940
836.028	0.0143584
836.106	0.0142280
836.184	0.0143393
836.262	0.0142105
836.340	0.0141454
836.418	0.0142802
836.496	0.0142204
836.575	0.0142006
836.653	0.0142487
836.731	0.0142396
836.809	0.0141434
836.887	0.0142567
836.965	0.0142082
837.043	0.0141402
837.121	0.0141873
837.200	0.0142618
837.278	0.0140476
837.356	0.0140337
837.434	0.0141880
837.512	0.0141090
837.590	0.0141993
837.668	0.0141246
837.746	0.0141022
837.825	0.0141582
837.903	0.0141441
837.981	0.0141068
838.059	0.0142075
838.137	0.0141824
838.215	0.0141676
838.293	0.0141346
838.371	0.0141254
838.450	0.0144981
838.528	0.0142120
838.606	0.0141614
838.684	0.0142647
838.762	0.0141521
838.840	0.0142685
838.918	0.0143082
838.996	0.0141743
839.075	0.0143506
839.153	0.0141360
839.231	0.0141156
839.309	0.0142222
839.387	0.0141866
839.465	0.0141422
839.543	0.0142757
839.621	0.0143363
839.700	0.0141434
839.778	0.0142236
839.856	0.0140345
839.934	0.0141528
840.012	0.0142287
840.090	0.0140767
840.168	0.0142176
840.246	0.0141829
840.325	0.0141335
840.403	0.0140988
840.481	0.0141811
840.559	0.0140475
840.637	0.0142229
840.715	0.0140461
840.793	0.0141405
840.871	0.0141737
840.950	0.0141962
841.028	0.0142402
841.106	0.0142783
841.184	0.0141269
841.262	0.0141874
841.340	0.0142691
841.418	0.0141872
841.496	0.0141998
841.575	0.0141219
841.653	0.0142401
841.731	0.0141900
841.809	0.0142577
841.887	0.0141465
841.965	0.0141929
842.043	0.0143437
842.121	0.0142506
842.200	0.0142123
842.278	0.0142263
842.356	0.0142524
842.434	0.0142964
842.512	0.0142809
842.590	0.0144059
842.668	0.0144166
842.746	0.0142864
842.825	0.0141609
842.903	0.0142536
842.981	0.0142900
843.059	0.0142251
843.137	0.0141767
843.215	0.0141719
843.293	0.0142234
843.371	0.0142450
843.450	0.0142641
843.528	0.0141000
843.606	0.0143006
843.684	0.0142926
843.762	0.0142984
843.840	0.0141174
843.918	0.0141944
843.996	0.0140834
844.075	0.0141801
844.153	0.0143057
844.231	0.0143201
844.309	0.0141457
844.387	0.0142461
844.465	0.0142735
844.543	0.0140298
844.621	0.0139893
844.700	0.0141163
844.778	0.0142589
844.856	0.0141403
844.934	0.0141666
845.012	0.0141775
845.090	0.0142945
845.168	0.0142171
845.246	0.0141412
845.325	0.0141962
845.403	0.0142081
845.481	0.0141856
845.559	0.0143024
845.637	0.0143100
845.715	0.0141560
845.793	0.0142125
845.871	0.0141927
845.950	0.0141564
846.028	0.0143393
846.106	0.0143005
846.184	0.0142381
846.262	0.0143497
846.340	0.0141893
846.418	0.0142033
846.496	0.0143197
846.575	0.0142055
846.653	0.0143199
846.731	0.0143730
846.809	0.0142429
846.887	0.0142130
846.965	0.0141633
847.043	0.0140843
847.121	0.0142148
847.200	0.0141987
847.278	0.0143102
847.356	0.0141743
847.434	0.0143408
847.512	0.0141755
847.590	0.0141994
847.668	0.0143004
847.746	0.0142316
847.825	0.0141752
847.903	0.0142631
847.981	0.0142139
848.059	0.0141690
848.137	0.0141032
848.215	0.0142359
848.293	0.0143156
848.371	0.0140798
848.450	0.0141718
848.528	0.0141734
848.606	0.0141802
848.684	0.0142128
848.762	0.0143089
848.840	0.0142887
848.918	0.0139961
848.996	0.0140887
849.075	0.0140406
849.153	0.0142077
849.231	0.0142276
849.309	0.0140296
849.387	0.0141014
849.465	0.0142546
849.543	0.0142613
849.621	0.0141850
849.700	0.0142183
849.778	0.0143015
849.856	0.0142623
849.934	0.0142055
850.012	0.0142167
850.090	0.0141833
850.168	0.0142246
850.246	0.0142132
850.325	0.0142242
850.403	0.0142387
850.481	0.0141679
850.559	0.0142751
850.637	0.0142944
850.715	0.0143504
850.793	0.0141676
850.871	0.0142474
850.950	0.0142545
851.028	0.0142104
851.106	0.0142691
851.184	0.0142246
851.262	0.0143268
851.340	0.0142577
851.418	0.0141230
851.496	0.0143162
851.575	0.0141525
851.653	0.0140899
851.731	0.0141641
851.809	0.0142264
851.887	0.0141277
851.965	0.0142319
852.043	0.0141824
852.121	0.0141912
852.200	0.0143138
852.278	0.0141880
852.356	0.0143540
852.434	0.0142438
852.512	0.0142503
852.590	0.0143532
852.668	0.0142103
852.746	0.0142020
852.825	0.0142832
852.903	0.0142411
852.981	0.0140977
853.059	0.0142825
853.137	0.0142017
853.215	0.0142947
853.293	0.0142559
853.371	0.0140918
853.450	0.0141402
853.528	0.0141956
853.606	0.0142860
853.684	0.0143497
853.762	0.0141850
853.840	0.0141428
853.918	0.0141568
853.996	0.0141839
854.075	0.0144266
854.153	0.0143169
854.231	0.0143337
854.309	0.0141856
854.387	0.0141530
854.465	0.0143027
854.543	0.0142601
854.621	0.0142397
854.700	0.0141968
854.778	0.0142014
854.856	0.0142187
854.934	0.0142679
855.012	0.0142191
855.090	0.0142173
855.168	0.0140910
855.246	0.0141740
855.325	0.0139972
855.403	0.0142889
855.481	0.0142118
855.559	0.0141608
855.637	0.0141129
855.715	0.0141182
855.793	0.0141242
855.871	0.0140232
855.950	0.0141886
856.028	0.0142966
856.106	0.0140522
856.184	0.0141204
856.262	0.0141111
856.340	0.0143475
856.418	0.0141070
856.496	0.0140966
856.575	0.0142416
856.653	0.0140983
856.731	0.0140491
856.809	0.0142120
856.887	0.0142551
856.965	0.0142371
857.043	0.0140295
857.121	0.0141707
857.200	0.0141751
857.278	0.0141850
857.356	0.0141599
857.434	0.0141065
857.512	0.0140193
857.590	0.0141685
857.668	0.0142651
857.746	0.0140993
857.825	0.0142151
857.903	0.0142303
857.981	0.0141360
858.059	0.0142626
858.137	0.0142754
858.215	0.0142727
858.293	0.0142166
858.371	0.0143011
858.450	0.0142608
858.528	0.0143442
858.606	0.0142681
858.684	0.0143344
858.762	0.0143104
858.840	0.0141109
858.918	0.0143833
858.996	0.0144337
859.075	0.0142851
859.153	0.0142456
859.231	0.0141796
859.309	0.0142596
859.387	0.0142590
859.465	0.0140996
859.543	0.0142937
859.621	0.0143511
859.700	0.0143848
859.778	0.0141660
859.856	0.0142303
859.934	0.0141721
860.012	0.0141933
860.090	0.0139998
860.168	0.0141788
860.246	0.0141048
860.325	0.0141636
860.403	0.0141597
860.481	0.0141734
860.559	0.0140862
860.637	0.0141438
860.715	0.0141310
860.793	0.0140819
860.871	0.0141113
860.950	0.0141906
861.028	0.0142110
861.106	0.0142028
861.184	0.0142194
861.262	0.0142425
861.340	0.0141705
861.418	0.0141861
861.496	0.0142361
861.575	0.0142258
861.653	0.0142155
861.731	0.0142724
861.809	0.0144140
861.887	0.0143305
861.965	0.0141842
862.043	0.0143178
862.121	0.0142376
862.200	0.0142676
862.278	0.0141941
862.356	0.0142971
862.434	0.0142166
862.512	0.0141679
862.590	0.0142992
862.668	0.0141525
862.746	0.0140997
862.825	0.0141826
862.903	0.0142803
862.981	0.0142358
863.059	0.0142250
863.137	0.0142420
863.215	0.0141811
863.293	0.0141796
863.371	0.0142160
863.450	0.0142635
863.528	0.0141476
863.606	0.0142465
863.684	0.0142290
863.762	0.0143245
863.840	0.0142525
863.918	0.0142146
863.996	0.0141470
864.075	0.0142434
864.153	0.0141542
864.231	0.0141797
864.309	0.0141535
864.387	0.0142532
864.465	0.0142127
864.543	0.0143031
864.621	0.0142257
864.700	0.0141995
864.778	0.0141497
864.856	0.0141645
864.934	0.0142978
865.012	0.0142596
865.090	0.0142146
865.168	0.0143074
865.246	0.0143118
865.325	0.0142961
865.403	0.0142744
865.481	0.0142066
865.559	0.0140071
865.637	0.0142647
865.715	0.0142005
865.793	0.0142252
865.871	0.0141276
865.950	0.0140689
866.028	0.0143146
866.106	0.0142817
866.184	0.0142495
866.262	0.0142257
866.340	0.0143549
866.418	0.0142963
866.496	0.0142665
866.575	0.0141149
866.653	0.0141246
866.731	0.0142896
866.809	0.0143382
866.887	0.0143179
866.965	0.0142422
867.043	0.0142021
867.121	0.0142845
867.200	0.0141218
867.278	0.0140932
867.356	0.0142742
867.434	0.0143460
867.512	0.0141792
867.590	0.0141582
867.668	0.0141393
867.746	0.0141750
867.825	0.0142347
867.903	0.0142333
867.981	0.0141053
868.059	0.0141931
868.137	0.0143285
868.215	0.0142441
868.293	0.0142673
868.371	0.0142100
868.450	0.0141827
868.528	0.0142693
868.606	0.0142767
868.684	0.0141691
868.762	0.0141430
868.840	0.0141317
868.918	0.0142265
868.996	0.0141039
869.075	0.0142218
869.153	0.0142941
869.231	0.0142165
869.309	0.0142854
869.387	0.0142156
869.465	0.0142482
869.543	0.0142987
869.621	0.0143195
869.700	0.0143540
869.778	0.0143008
869.856	0.0141721
869.934	0.0141544
870.012	0.0141943
870.090	0.0142628
870.168	0.0142799
870.246	0.0141277
870.325	0.0142378
870.403	0.0141317
870.481	0.0141316
870.559	0.0143091
870.637	0.0141992
870.715	0.0141980
870.793	0.0141133
870.871	0.0140971
870.950	0.0142233
871.028	0.0143076
871.106	0.0140616
871.184	0.0142161
871.262	0.0142803
871.340	0.0141508
871.418	0.0141827
871.496	0.0142091
871.575	0.0141225
871.653	0.0140977
871.731	0.0141477
871.809	0.0141724
871.887	0.0141808
871.965	0.0141302
872.043	0.0141460
872.121	0.0141564
872.200	0.0141953
872.278	0.0141409
872.356	0.0142045
872.434	0.0142120
872.512	0.0143574
872.590	0.0141732
872.668	0.0142220
872.746	0.0141461
872.825	0.0142283
872.903	0.0142480
872.981	0.0142279
873.059	0.0143803
873.137	0.0142699
873.215	0.0142494
873.293	0.0141216
873.371	0.0142787
873.450	0.0140561
873.528	0.0141380
873.606	0.0143184
873.684	0.0143535
873.762	0.0143018
873.840	0.0141563
873.918	0.0142327
873.996	0.0141521
874.075	0.0142350
874.153	0.0140960
874.231	0.0142577
874.309	0.0141886
874.387	0.0142381
874.465	0.0141893
874.543	0.0141539
874.621	0.0141379
874.700	0.0143777
874.778	0.0142577
874.856	0.0141177
874.934	0.0142799
875.012	0.0141483
875.090	0.0141300
875.168	0.0141859
875.246	0.0143232
875.325	0.0142410
875.403	0.0141486
875.481	0.0142140
875.559	0.0142265
875.637	0.0142434
875.715	0.0143303
875.793	0.0142324
875.871	0.0141615
875.950	0.0143381
876.028	0.0142394
876.106	0.0140180
876.184	0.0142127
876.262	0.0141624
876.340	0.0141197
876.418	0.0143018
876.496	0.0140858
876.575	0.0140536
876.653	0.0141031
876.731	0.0140926
876.809	0.0140221
876.887	0.0142795
876.965	0.0143143
877.043	0.0142908
877.121	0.0142365
877.200	0.0141808
877.278	0.0143121
877.356	0.0143250
877.434	0.0143210
877.512	0.0141849
877.590	0.0142891
877.668	0.0142542
877.746	0.0141669
877.825	0.0140750
877.903	0.0142125
877.981	0.0143700
878.059	0.0140689
878.137	0.0141460
878.215	0.0141799
878.293	0.0140573
878.371	0.0141532
878.450	0.0140440
878.528	0.0141417
878.606	0.0140715
878.684	0.0140694
878.762	0.0142385
878.840	0.0140661
878.918	0.0141097
878.996	0.0142009
879.075	0.0141422
879.153	0.0141868
879.231	0.0140980
879.309	0.0142434
879.387	0.0142233
879.465	0.0142210
879.543	0.0144041
879.621	0.0142532
879.700	0.0142926
879.778	0.0142786
879.856	0.0141684
879.934	0.0142268
880.012	0.0142295
880.090	0.0142272
880.168	0.0141527
880.246	0.0143323
880.325	0.0143115
880.403	0.0143297
880.481	0.0142593
880.559	0.0144065
880.637	0.0143385
880.715	0.0141583
880.793	0.0142490
880.871	0.0142215
880.950	0.0141996
881.028	0.0141383
881.106	0.0139852
881.184	0.0141421
881.262	0.0140821
881.340	0.0141531
881.418	0.0139845
881.496	0.0140342
881.575	0.0142461
881.653	0.0140992
881.731	0.0141437
881.809	0.0142332
881.887	0.0141924
881.965	0.0142484
882.043	0.0143211
882.121	0.0142429
882.200	0.0142889
882.278	0.0143807
882.356	0.0141783
882.434	0.0141745
882.512	0.0141883
882.590	0.0142661
882.668	0.0141522
882.746	0.0142136
882.825	0.0142609
882.903	0.0142883
882.981	0.0141026
883.059	0.0142308
883.137	0.0142265
883.215	0.0143134
883.293	0.0142943
883.371	0.0144249
883.450	0.0142060
883.528	0.0142417
883.606	0.0142697
883.684	0.0142630
883.762	0.0142159
883.840	0.0143204
883.918	0.0142464
883.996	0.0142356
884.075	0.0141795
884.153	0.0142017
884.231	0.0141409
884.309	0.0142120
884.387	0.0140899
884.465	0.0140191
884.543	0.0142277
884.621	0.0142217
884.700	0.0142683
884.778	0.0142879
884.856	0.0143000
884.934	0.0143780
885.012	0.0143297
885.090	0.0141461
885.168	0.0143961
885.246	0.0144463
885.325	0.0142519
885.403	0.0143775
885.481	0.0141528
885.559	0.0142278
885.637	0.0143824
885.715	0.0143560
885.793	0.0141949
885.871	0.0142994
885.950	0.0142426
886.028	0.0143401
886.106	0.0142440
886.184	0.0141182
886.262	0.0141441
886.340	0.0142243
886.418	0.0141554
886.496	0.0140893
886.575	0.0141700
886.653	0.0141897
886.731	0.0142335
886.809	0.0141304
886.887	0.0141691
886.965	0.0142186
887.043	0.0142325
887.121	0.0142204
887.200	0.0142349
887.278	0.0141901
887.356	0.0143076
887.434	0.0143838
887.512	0.0143887
887.590	0.0142754
887.668	0.0141673
887.746	0.0142944
887.825	0.0142287
887.903	0.0142777
887.981	0.0143405
888.059	0.0143542
888.137	0.0142731
888.215	0.0142825
888.293	0.0141788
888.371	0.0140731
888.450	0.0143692
888.528	0.0142304
888.606	0.0141706
888.684	0.0140763
888.762	0.0142210
888.840	0.0139918
888.918	0.0141154
888.996	0.0141260
889.075	0.0143286
889.153	0.0140912
889.231	0.0141634
889.309	0.0142458
889.387	0.0143066
889.465	0.0141632
889.543	0.0141125
889.621	0.0142008
889.700	0.0143647
889.778	0.0143160
889.856	0.0142404
889.934	0.0142457
890.012	0.0142564
890.090	0.0142999
890.168	0.0142992
890.246	0.0142492
890.325	0.0141893
890.403	0.0142132
890.481	0.0142385
890.559	0.0142084
890.637	0.0141862
890.715	0.0141239
890.793	0.0142180
890.871	0.0141728
890.950	0.0141389
891.028	0.0141035
891.106	0.0141824
891.184	0.0141640
891.262	0.0141035
891.340	0.0141580
891.418	0.0143194
891.496	0.0142628
891.575	0.0142014
891.653	0.0142241
891.731	0.0141280
891.809	0.0142713
891.887	0.0141560
891.965	0.0142754
892.043	0.0142976
892.121	0.0141653
892.200	0.0143251
892.278	0.0143432
892.356	0.0140366
892.434	0.0142146
892.512	0.0141222
892.590	0.0142500
892.668	0.0141354
892.746	0.0142654
892.825	0.0142523
892.903	0.0142577
892.981	0.0142368
893.059	0.0142356
893.137	0.0141736
893.215	0.0141783
893.293	0.0141114
893.371	0.0140688
893.450	0.0142820
893.528	0.0141475
893.606	0.0142028
893.684	0.0142166
893.762	0.0141698
893.840	0.0142809
893.918	0.0142741
893.996	0.0142794
894.075	0.0142837
894.153	0.0142031
894.231	0.0143053
894.309	0.0142253
894.387	0.0141805
894.465	0.0142125
894.543	0.0143361
894.621	0.0141891
894.700	0.0141479
894.778	0.0143285
894.856	0.0143628
894.934	0.0141866
895.012	0.0142892
895.090	0.0143035
895.168	0.0142960
895.246	0.0141945
895.325	0.0141684
895.403	0.0141580
895.481	0.0140061
895.559	0.0141673
895.637	0.0140932
895.715	0.0141510
895.793	0.0142825
895.871	0.0142343
895.950	0.0143233
896.028	0.0142236
896.106	0.0143539
896.184	0.0142390
896.262	0.0142208
896.340	0.0141308
896.418	0.0140367
896.496	0.0141471
896.575	0.0141246
896.653	0.0142471
896.731	0.0141833
896.809	0.0140607
896.887	0.0141882
896.965	0.0142297
897.043	0.0142805
897.121	0.0142304
897.200	0.0142346
897.278	0.0141437
897.356	0.0142153
897.434	0.0143425
897.512	0.0142173
897.590	0.0142348
897.668	0.0140501
897.746	0.0140646
897.825	0.0140694
897.903	0.0141525
897.981	0.0142281
898.059	0.0142442
898.137	0.0141023
898.215	0.0142363
898.293	0.0142383
898.371	0.0141446
898.450	0.0140773
898.528	0.0142014
898.606	0.0142347
898.684	0.0143268
898.762	0.0143330
898.840	0.0142877
898.918	0.0142538
898.996	0.0142565
899.075	0.0143773
899.153	0.0144420
899.231	0.0142079
899.309	0.0141055
899.387	0.0142226
899.465	0.0143253
899.543	0.0140796
899.621	0.0141330
899.700	0.0141282
899.778	0.0141443
899.856	0.0140405
899.934	0.0141147
900.012	0.0142210
900.090	0.0141716
900.168	0.0142110
900.246	0.0143748
900.325	0.0143507
900.403	0.0141984
900.481	0.0141403
900.559	0.0141702
900.637	0.0142060
900.715	0.0141281
900.793	0.0141195
900.871	0.0142111
900.950	0.0141311
901.028	0.0142236
901.106	0.0142931
901.184	0.0141138
901.262	0.0141819
901.340	0.0142625
901.418	0.0142408
901.496	0.0142219
901.575	0.0143199
901.653	0.0142561
901.731	0.0141751
901.809	0.0141788
901.887	0.0142467
901.965	0.0142995
902.043	0.0143865
902.121	0.0143582
902.200	0.0141304
902.278	0.0141820
902.356	0.0142337
902.434	0.0141695
902.512	0.0140399
902.590	0.0141145
902.668	0.0141751
902.746	0.0141505
902.825	0.0141015
902.903	0.0141546
902.981	0.0143053
903.059	0.0141475
903.137	0.0141933
903.215	0.0143256
903.293	0.0142922
903.371	0.0142729
903.450	0.0144389
903.528	0.0143219
903.606	0.0143164
903.684	0.0143549
903.762	0.0142794
903.840	0.0142390
903.918	0.0141982
903.996	0.0142192
904.075	0.0141259
904.153	0.0140851
904.231	0.0142645
904.309	0.0142151
904.387	0.0140497
904.465	0.0142479
904.543	0.0140614
904.621	0.0141823
904.700	0.0142570
904.778	0.0141904
904.856	0.0141404
904.934	0.0142471
905.012	0.0142139
905.090	0.0143980
905.168	0.0143127
905.246	0.0142110
905.325	0.0142298
905.403	0.0142059
905.481	0.0142272
905.559	0.0141756
905.637	0.0141900
905.715	0.0140591
905.793	0.0142077
905.871	0.0141582
905.950	0.0140459
906.028	0.0140200
906.106	0.0141705
906.184	0.0142240
906.262	0.0142680
906.340	0.0143314
906.418	0.0141959
906.496	0.0142257
906.575	0.0144344
906.653	0.0144131
906.731	0.0144366
906.809	0.0143538
906.887	0.0144373
906.965	0.0143636
907.043	0.0144669
907.121	0.0144054
907.200	0.0143513
907.278	0.0143185
907.356	0.0143166
907.434	0.0141607
907.512	0.0141685
907.590	0.0142818
907.668	0.0141557
907.746	0.0140209
907.825	0.0141244
907.903	0.0142043
907.981	0.0142278
908.059	0.0140664
908.137	0.0142220
908.215	0.0142477
908.293	0.0143134
908.371	0.0142931
908.450	0.0143326
908.528	0.0143268
908.606	0.0143195
908.684	0.0144716
908.762	0.0142876
908.840	0.0142222
908.918	0.0142080
908.996	0.0142220
909.075	0.0142632
909.153	0.0142978
909.231	0.0142030
909.309	0.0141189
909.387	0.0141883
909.465	0.0142414
909.543	0.0142425
909.621	0.0142478
909.700	0.0142439
909.778	0.0144460
909.856	0.0143988
909.934	0.0145271
910.012	0.0143205
910.090	0.0142887
910.168	0.0143075
910.246	0.0144299
910.325	0.0143635
910.403	0.0143832
910.481	0.0143877
910.559	0.0142117
910.637	0.0143218
910.715	0.0142946
910.793	0.0142821
910.871	0.0143608
910.950	0.0141906
911.028	0.0141607
911.106	0.0142400
911.184	0.0141336
911.262	0.0142479
911.340	0.0142109
911.418	0.0141875
911.496	0.0142938
911.575	0.0141846
911.653	0.0142471
911.731	0.0143435
911.809	0.0142632
911.887	0.0142142
911.965	0.0142513
912.043	0.0142832
912.121	0.0142755
912.200	0.0142473
912.278	0.0141745
912.356	0.0142415
912.434	0.0141812
912.512	0.0142258
912.590	0.0142896
912.668	0.0141911
912.746	0.0142144
912.825	0.0142622
912.903	0.0140559
912.981	0.0143025
913.059	0.0141354
913.137	0.0142968
913.215	0.0145155
913.293	0.0143313
913.371	0.0142162
913.450	0.0143635
913.528	0.0143105
913.606	0.0143312
913.684	0.0143764
913.762	0.0143241
913.840	0.0141103
913.918	0.0140926
913.996	0.0142226
914.075	0.0140104
914.153	0.0140385
914.231	0.0141129
914.309	0.0140984
914.387	0.0141847
914.465	0.0140531
914.543	0.0141538
914.621	0.0142602
914.700	0.0142008
914.778	0.0142348
914.856	0.0141791
914.934	0.0142599
915.012	0.0143471
915.090	0.0143872
915.168	0.0142778
915.246	0.0142374
915.325	0.0143501
915.403	0.0143211
915.481	0.0140668
915.559	0.0141949
915.637	0.0142172
915.715	0.0140343
915.793	0.0141045
915.871	0.0141491
915.950	0.0140945
916.028	0.0140617
916.106	0.0140928
916.184	0.0142381
916.262	0.0142072
916.340	0.0140923
916.418	0.0139605
916.496	0.0141811
916.575	0.0142367
916.653	0.0142604
916.731	0.0141427
916.809	0.0142723
916.887	0.0142538
916.965	0.0141972
917.043	0.0141473
917.121	0.0142081
917.200	0.0142183
917.278	0.0141388
917.356	0.0142811
917.434	0.0142137
917.512	0.0142056
917.590	0.0142619
917.668	0.0141569
917.746	0.0142409
917.825	0.0142345
917.903	0.0141112
917.981	0.0142496
918.059	0.0140485
918.137	0.0141589
918.215	0.0141386
918.293	0.0143107
918.371	0.0141542
918.450	0.0141626
918.528	0.0142485
918.606	0.0141674
918.684	0.0139499
918.762	0.0142205
918.840	0.0142558
918.918	0.0142692
918.996	0.0140588
919.075	0.0142167
919.153	0.0141306
919.231	0.0141884
919.309	0.0142461
919.387	0.0142181
919.465	0.0141555
919.543	0.0141568
919.621	0.0141199
919.700	0.0144032
919.778	0.0140916
919.856	0.0141727
919.934	0.0140874
920.012	0.0141573
920.090	0.0141970
920.168	0.0142889
920.246	0.0140581
920.325	0.0140908
920.403	0.0143317
920.481	0.0142758
920.559	0.0141600
920.637	0.0142146
920.715	0.0142322
920.793	0.0142378
920.871	0.0141554
920.950	0.0142976
921.028	0.0142254
921.106	0.0141290
921.184	0.0141804
921.262	0.0141575
921.340	0.0143821
921.418	0.0142374
921.496	0.0143523
921.575	0.0142762
921.653	0.0142287
921.731	0.0142615
921.809	0.0144394
921.887	0.0144095
921.965	0.0143987
922.043	0.0141794
922.121	0.0142200
922.200	0.0143864
922.278	0.0142414
922.356	0.0142742
922.434	0.0141725
922.512	0.0141874
922.590	0.0142126
922.668	0.0141370
922.746	0.0140392
922.825	0.0142252
922.903	0.0141635
922.981	0.0140654
923.059	0.0141242
923.137	0.0141449
923.215	0.0141762
923.293	0.0142944
923.371	0.0142833
923.450	0.0142928
923.528	0.0141040
923.606	0.0141467
923.684	0.0143325
923.762	0.0142192
923.840	0.0143337
923.918	0.0142529
923.996	0.0143591
924.075	0.0142188
924.153	0.0142920
924.231	0.0141914
924.309	0.0140491
924.387	0.0142828
924.465	0.0142263
924.543	0.0143070
924.621	0.0142619
924.700	0.0142509
924.778	0.0142741
924.856	0.0142829
924.934	0.0142994
925.012	0.0142939
925.090	0.0142046
925.168	0.0142673
925.246	0.0142009
925.325	0.0143566
925.403	0.0142284
925.481	0.0142864
925.559	0.0143013
925.637	0.0141892
925.715	0.0142007
925.793	0.0143019
925.871	0.0141194
925.950	0.0141282
926.028	0.0142524
926.106	0.0142690
926.184	0.0141927
926.262	0.0141949
926.340	0.0143473
926.418	0.0143459
926.496	0.0142588
926.575	0.0142709
926.653	0.0143364
926.731	0.0141536
926.809	0.0142220
926.887	0.0142711
926.965	0.0141993
927.043	0.0142151
927.121	0.0143719
927.200	0.0142643
927.278	0.0142338
927.356	0.0141772
927.434	0.0141518
927.512	0.0142756
927.590	0.0142192
927.668	0.0142870
927.746	0.0141604
927.825	0.0142622
927.903	0.0141740
927.981	0.0142191
928.059	0.0140836
928.137	0.0141019
928.215	0.0142770
928.293	0.0142755
928.371	0.0143282
928.450	0.0142400
928.528	0.0142184
928.606	0.0141978
928.684	0.0141385
928.762	0.0141900
928.840	0.0142841
928.918	0.0141653
928.996	0.0142226
929.075	0.0143414
929.153	0.0142526
929.231	0.0142357
929.309	0.0141546
929.387	0.0141853
929.465	0.0142365
929.543	0.0141831
929.621	0.0141549
929.700	0.0142056
929.778	0.0142630
929.856	0.0140927
929.934	0.0141954
930.012	0.0141473
930.090	0.0142728
930.168	0.0142031
930.246	0.0143464
930.325	0.0142297
930.403	0.0141660
930.481	0.0142175
930.559	0.0143245
930.637	0.0141927
930.715	0.0142355
930.793	0.0142851
930.871	0.0142462
930.950	0.0143176
931.028	0.0143123
931.106	0.0141576
931.184	0.0142422
931.262	0.0142566
931.340	0.0141484
931.418	0.0142154
931.496	0.0141934
931.575	0.0143625
931.653	0.0141475
931.731	0.0142561
931.809	0.0141694
931.887	0.0142496
931.965	0.0142711
932.043	0.0143468
932.121	0.0141592
932.200	0.0142393
932.278	0.0141115
932.356	0.0140952
932.434	0.0143176
932.512	0.0142595
932.590	0.0141697
932.668	0.0141689
932.746	0.0141807
932.825	0.0141539
932.903	0.0141733
932.981	0.0141055
933.059	0.0142097
933.137	0.0143875
933.215	0.0141167
933.293	0.0141173
933.371	0.0141817
933.450	0.0141354
933.528	0.0141650
933.606	0.0142004
933.684	0.0141960
933.762	0.0140821
933.840	0.0141319
933.918	0.0141392
933.996	0.0142004
934.075	0.0142966
934.153	0.0143343
934.231	0.0141766
934.309	0.0142673
934.387	0.0141454
934.465	0.0141893
934.543	0.0142101
934.621	0.0142321
934.700	0.0142016
934.778	0.0142578
934.856	0.0142250
934.934	0.0142177
935.012	0.0143448
935.090	0.0142792
935.168	0.0141890
935.246	0.0142431
935.325	0.0142645
935.403	0.0143176
935.481	0.0142502
935.559	0.0141356
935.637	0.0140283
935.715	0.0142271
935.793	0.0142052
935.871	0.0141795
935.950	0.0140773
936.028	0.0142461
936.106	0.0143291
936.184	0.0141032
936.262	0.0142927
936.340	0.0142175
936.418	0.0142706
936.496	0.0141915
936.575	0.0141171
936.653	0.0142808
936.731	0.0141824
936.809	0.0141772
936.887	0.0142085
936.965	0.0141420
937.043	0.0141757
937.121	0.0142342
937.200	0.0141635
937.278	0.0141427
937.356	0.0140256
937.434	0.0141881
937.512	0.0142487
937.590	0.0141282
937.668	0.0141403
937.746	0.0140689
937.825	0.0142071
937.903	0.0142425
937.981	0.0142595
938.059	0.0141343
938.137	0.0142400
938.215	0.0142767
938.293	0.0142719
938.371	0.0141608
938.450	0.0142258
938.528	0.0141949
938.606	0.0141595
938.684	0.0142943
938.762	0.0143472
938.840	0.0142849
938.918	0.0141955
938.996	0.0141895
939.075	0.0142084
939.153	0.0143095
939.231	0.0143124
939.309	0.0143186
939.387	0.0141883
939.465	0.0141095
939.543	0.0141633
939.621	0.0140662
939.700	0.0142487
939.778	0.0141397
939.856	0.0142188
939.934	0.0141559
940.012	0.0144228
940.090	0.0143301
940.168	0.0141953
940.246	0.0140617
940.325	0.0142416
940.403	0.0142314
940.481	0.0142062
940.559	0.0141815
940.637	0.0142374
940.715	0.0140441
940.793	0.0143240
940.871	0.0142775
940.950	0.0141757
941.028	0.0142449
941.106	0.0141496
941.184	0.0141002
941.262	0.0141988
941.340	0.0143029
941.418	0.0143522
941.496	0.0141954
941.575	0.0143258
941.653	0.0142052
941.731	0.0142338
941.809	0.0142381
941.887	0.0142288
941.965	0.0142861
942.043	0.0141536
942.121	0.0142735
942.200	0.0143487
942.278	0.0142047
942.356	0.0141734
942.434	0.0142441
942.512	0.0141369
942.590	0.0141774
942.668	0.0141224
942.746	0.0140836
942.825	0.0141595
942.903	0.0142157
942.981	0.0142075
943.059	0.0141317
943.137	0.0142799
943.215	0.0141160
943.293	0.0142358
943.371	0.0143065
943.450	0.0142604
943.528	0.0143672
943.606	0.0142690
943.684	0.0142236
943.762	0.0142491
943.840	0.0143008
943.918	0.0143541
943.996	0.0142870
944.075	0.0142675
944.153	0.0143185
944.231	0.0142564
944.309	0.0141850
944.387	0.0141626
944.465	0.0142615
944.543	0.0142386
944.621	0.0142988
944.700	0.0141827
944.778	0.0142299
944.856	0.0143362
944.934	0.0143005
945.012	0.0142110
945.090	0.0141438
945.168	0.0142349
945.246	0.0141112
945.325	0.0141303
945.403	0.0142708
945.481	0.0142613
945.559	0.0142548
945.637	0.0141805
945.715	0.0141534
945.793	0.0141389
945.871	0.0142252
945.950	0.0141901
946.028	0.0141769
946.106	0.0142950
946.184	0.0142527
946.262	0.0141533
946.340	0.0143084
946.418	0.0142385
946.496	0.0142279
946.575	0.0143295
946.653	0.0143066
946.731	0.0142239
946.809	0.0142027
946.887	0.0143877
946.965	0.0142899
947.043	0.0141433
947.121	0.0142358
947.200	0.0142509
947.278	0.0142271
947.356	0.0141821
947.434	0.0142056
947.512	0.0141368
947.590	0.0142358
947.668	0.0142151
947.746	0.0141328
947.825	0.0141879
947.903	0.0142532
947.981	0.0142644
948.059	0.0142048
948.137	0.0142028
948.215	0.0142787
948.293	0.0142226
948.371	0.0141057
948.450	0.0141649
948.528	0.0141349
948.606	0.0141431
948.684	0.0142154
948.762	0.0141274
948.840	0.0142127
948.918	0.0141816
948.996	0.0142615
949.075	0.0141630
949.153	0.0141540
949.231	0.0141252
949.309	0.0141939
949.387	0.0141782
949.465	0.0142696
949.543	0.0142085
949.621	0.0141354
949.700	0.0142824
949.778	0.0142704
949.856	0.0142209
949.934	0.0142246
950.012	0.0143356
950.090	0.0141196
950.168	0.0142442
950.246	0.0142282
950.325	0.0142229
950.403	0.0143479
950.481	0.0143694
950.559	0.0142547
950.637	0.0142595
950.715	0.0142534
950.793	0.0142507
950.871	0.0141625
950.950	0.0140799
951.028	0.0142426
951.106	0.0141798
951.184	0.0142183
951.262	0.0143045
951.340	0.0141282
951.418	0.0141471
951.496	0.0142480
951.575	0.0142520
951.653	0.0141625
951.731	0.0142712
951.809	0.0142501
951.887	0.0142360
951.965	0.0142659
952.043	0.0141126
952.121	0.0141695
952.200	0.0141651
952.278	0.0142400
952.356	0.0141273
952.434	0.0141691
952.512	0.0142959
952.590	0.0142112
952.668	0.0140453
952.746	0.0142857
952.825	0.0142256
952.903	0.0142102
952.981	0.0143366
953.059	0.0142512
953.137	0.0142572
953.215	0.0141653
953.293	0.0142525
953.371	0.0142380
953.450	0.0143530
953.528	0.0142885
953.606	0.0142976
953.684	0.0142671
953.762	0.0143335
953.840	0.0141321
953.918	0.0142777
953.996	0.0143439
954.075	0.0143297
954.153	0.0142647
954.231	0.0140720
954.309	0.0142233
954.387	0.0144422
954.465	0.0141808
954.543	0.0143697
954.621	0.0142416
954.700	0.0141824
954.778	0.0141568
954.856	0.0142103
954.934	0.0142559
955.012	0.0141514
955.090	0.0141814
955.168	0.0142432
955.246	0.0141843
955.325	0.0142548
955.403	0.0141683
955.481	0.0142215
955.559	0.0142440
955.637	0.0143090
955.715	0.0141273
955.793	0.0142650
955.871	0.0141625
955.950	0.0142435
956.028	0.0140956
956.106	0.0140930
956.184	0.0140554
956.262	0.0142509
956.340	0.0141740
956.418	0.0141002
956.496	0.0142412
956.575	0.0141266
956.653	0.0141502
956.731	0.0141487
956.809	0.0141269
956.887	0.0141102
956.965	0.0141753
957.043	0.0143301
957.121	0.0142683
957.200	0.0142439
957.278	0.0141647
957.356	0.0141206
957.434	0.0141203
957.512	0.0141883
957.590	0.0141800
957.668	0.0140621
957.746	0.0142148
957.825	0.0140637
957.903	0.0141770
957.981	0.0142317
958.059	0.0142370
958.137	0.0142290
958.215	0.0142578
958.293	0.0142853
958.371	0.0142935
958.450	0.0142997
958.528	0.0141522
958.606	0.0141381
958.684	0.0142693
958.762	0.0142445
958.840	0.0142808
958.918	0.0142545
958.996	0.0142782
959.075	0.0142714
959.153	0.0142082
959.231	0.0141560
959.309	0.0143230
959.387	0.0143052
959.465	0.0143880
959.543	0.0143552
959.621	0.0143056
959.700	0.0141789
959.778	0.0142010
959.856	0.0142133
959.934	0.0142817
960.012	0.0142910
960.090	0.0142877
960.168	0.0143122
960.246	0.0142863
960.325	0.0141546
960.403	0.0141745
960.481	0.0141687
960.559	0.0142872
960.637	0.0144074
960.715	0.0142742
960.793	0.0141771
960.871	0.0142550
960.950	0.0143109
961.028	0.0142911
961.106	0.0142336
961.184	0.0141333
961.262	0.0143069
961.340	0.0141422
961.418	0.0142786
961.496	0.0142437
961.575	0.0142719
961.653	0.0141805
961.731	0.0142761
961.809	0.0142970
961.887	0.0143578
961.965	0.0143032
962.043	0.0143311
962.121	0.0141972
962.200	0.0143170
962.278	0.0142930
962.356	0.0144308
962.434	0.0142920
962.512	0.0142599
962.590	0.0142700
962.668	0.0143138
962.746	0.0142742
962.825	0.0140605
962.903	0.0141679
962.981	0.0142157
963.059	0.0142056
963.137	0.0144469
963.215	0.0141888
963.293	0.0140855
963.371	0.0142171
963.450	0.0143866
963.528	0.0142866
963.606	0.0143356
963.684	0.0143343
963.762	0.0143475
963.840	0.0143024
963.918	0.0143100
963.996	0.0142113
964.075	0.0143172
964.153	0.0142609
964.231	0.0143193
964.309	0.0141701
964.387	0.0142780
964.465	0.0142223
964.543	0.0142780
964.621	0.0142718
964.700	0.0142082
964.778	0.0142805
964.856	0.0142328
964.934	0.0142690
965.012	0.0141829
965.090	0.0141817
965.168	0.0142878
965.246	0.0141915
965.325	0.0142312
965.403	0.0143864
965.481	0.0143644
965.559	0.0141967
965.637	0.0142432
965.715	0.0142031
965.793	0.0141405
965.871	0.0142883
965.950	0.0142207
966.028	0.0143430
966.106	0.0142011
966.184	0.0143005
966.262	0.0143156
966.340	0.0142457
966.418	0.0142513
966.496	0.0142271
966.575	0.0142165
966.653	0.0142955
966.731	0.0143449
966.809	0.0142944
966.887	0.0141751
966.965	0.0142728
967.043	0.0143496
967.121	0.0143048
967.200	0.0142390
967.278	0.0142519
967.356	0.0141696
967.434	0.0142154
967.512	0.0143380
967.590	0.0142268
967.668	0.0142445
967.746	0.0141657
967.825	0.0144226
967.903	0.0142595
967.981	0.0142865
968.059	0.0141922
968.137	0.0142882
968.215	0.0142571
968.293	0.0143668
968.371	0.0144125
968.450	0.0142046
968.528	0.0141081
968.606	0.0142785
968.684	0.0143202
968.762	0.0142692
968.840	0.0141233
968.918	0.0143881
968.996	0.0143570
969.075	0.0143501
969.153	0.0144074
969.231	0.0142091
969.309	0.0142149
969.387	0.0142931
969.465	0.0143830
969.543	0.0142031
969.621	0.0143727
969.700	0.0143604
969.778	0.0141682
969.856	0.0142456
969.934	0.0142681
970.012	0.0141837
970.090	0.0141140
970.168	0.0141533
970.246	0.0142109
970.325	0.0142358
970.403	0.0143521
970.481	0.0141660
970.559	0.0144790
970.637	0.0144219
970.715	0.0141735
970.793	0.0142281
970.871	0.0142371
970.950	0.0142487
971.028	0.0143137
971.106	0.0142353
971.184	0.0142584
971.262	0.0141782
971.340	0.0143111
971.418	0.0143079
971.496	0.0142690
971.575	0.0142938
971.653	0.0142688
971.731	0.0143890
971.809	0.0143287
971.887	0.0142783
971.965	0.0142559
972.043	0.0141992
972.121	0.0141864
972.200	0.0143265
972.278	0.0142500
972.356	0.0142292
972.434	0.0141888
972.512	0.0141069
972.590	0.0142233
972.668	0.0140625
972.746	0.0140485
972.825	0.0141771
972.903	0.0142387
972.981	0.0141530
973.059	0.0141764
973.137	0.0141726
973.215	0.0140935
973.293	0.0141624
973.371	0.0142451
973.450	0.0140842
973.528	0.0142812
973.606	0.0143153
973.684	0.0142546
973.762	0.0142909
973.840	0.0143062
973.918	0.0142629
973.996	0.0142923
974.075	0.0142101
974.153	0.0141927
974.231	0.0141850
974.309	0.0142392
974.387	0.0142428
974.465	0.0141439
974.543	0.0142011
974.621	0.0142399
974.700	0.0141653
974.778	0.0142511
974.856	0.0144318
974.934	0.0144028
975.012	0.0141785
975.090	0.0143219
975.168	0.0141605
975.246	0.0143266
975.325	0.0142260
975.403	0.0141879
975.481	0.0142391
975.559	0.0143399
975.637	0.0142093
975.715	0.0141428
975.793	0.0141671
975.871	0.0141923
975.950	0.0142666
976.028	0.0140256
976.106	0.0141435
976.184	0.0142053
976.262	0.0142880
976.340	0.0142598
976.418	0.0141061
976.496	0.0141787
976.575	0.0141511
976.653	0.0143176
976.731	0.0143009
976.809	0.0142459
976.887	0.0143243
976.965	0.0142623
977.043	0.0142544
977.121	0.0141592
977.200	0.0141055
977.278	0.0142831
977.356	0.0141132
977.434	0.0142119
977.512	0.0141565
977.590	0.0142281
977.668	0.0140849
977.746	0.0142443
977.825	0.0141311
977.903	0.0141622
977.981	0.0142413
978.059	0.0142815
978.137	0.0141717
978.215	0.0141747
978.293	0.0141210
978.371	0.0142981
978.450	0.0142033
978.528	0.0142465
978.606	0.0142476
978.684	0.0142674
978.762	0.0141650
978.840	0.0141840
978.918	0.0141405
978.996	0.0142757
979.075	0.0141580
979.153	0.0142831
979.231	0.0142594
979.309	0.0140917
979.387	0.0142072
979.465	0.0141666
979.543	0.0141991
979.621	0.0141566
979.700	0.0144009
979.778	0.0141472
979.856	0.0142996
979.934	0.0142056
980.012	0.0142939
980.090	0.0142563
980.168	0.0141180
980.246	0.0143041
980.325	0.0141820
980.403	0.0142696
980.481	0.0141655
980.559	0.0140887
980.637	0.0143591
980.715	0.0142326
980.793	0.0141200
980.871	0.0141063
980.950	0.0141036
981.028	0.0142192
981.106	0.0142063
981.184	0.0141642
981.262	0.0142645
981.340	0.0141951
981.418	0.0142230
981.496	0.0142210
981.575	0.0142079
981.653	0.0141521
981.731	0.0141987
981.809	0.0142365
981.887	0.0142048
981.965	0.0142532
982.043	0.0142305
982.121	0.0143018
982.200	0.0142355
982.278	0.0142725
982.356	0.0144162
982.434	0.0143559
982.512	0.0143566
982.590	0.0143751
982.668	0.0142746
982.746	0.0143248
982.825	0.0143901
982.903	0.0144270
982.981	0.0143265
983.059	0.0141808
983.137	0.0141813
983.215	0.0142046
983.293	0.0141434
983.371	0.0143087
983.450	0.0143410
983.528	0.0142461
983.606	0.0142987
983.684	0.0143069
983.762	0.0141070
983.840	0.0141448
983.918	0.0140623
983.996	0.0142224
984.075	0.0144559
984.153	0.0142722
984.231	0.0141999
984.309	0.0142496
984.387	0.0141080
984.465	0.0141403
984.543	0.0142677
984.621	0.0141932
984.700	0.0141528
984.778	0.0141174
984.856	0.0142616
984.934	0.0142585
985.012	0.0142372
985.090	0.0142485
985.168	0.0142279
985.246	0.0142367
985.325	0.0142677
985.403	0.0142844
985.481	0.0143407
985.559	0.0142902
985.637	0.0142371
985.715	0.0142364
985.793	0.0143568
985.871	0.0143066
985.950	0.0143298
986.028	0.0142328
986.106	0.0143596
986.184	0.0143196
986.262	0.0144334
986.340	0.0143054
986.418	0.0142721
986.496	0.0142081
986.575	0.0144587
986.653	0.0142393
986.731	0.0142702
986.809	0.0142395
986.887	0.0142677
986.965	0.0142067
987.043	0.0143225
987.121	0.0142594
987.200	0.0141905
987.278	0.0142933
987.356	0.0142659
987.434	0.0141650
987.512	0.0142494
987.590	0.0143390
987.668	0.0141369
987.746	0.0143169
987.825	0.0141240
987.903	0.0140768
987.981	0.0142850
988.059	0.0142790
988.137	0.0142452
988.215	0.0143183
988.293	0.0142701
988.371	0.0141434
988.450	0.0140971
988.528	0.0141790
988.606	0.0142001
988.684	0.0143058
988.762	0.0142747
988.840	0.0142107
988.918	0.0142728
988.996	0.0142149
989.075	0.0142226
989.153	0.0143682
989.231	0.0143900
989.309	0.0142008
989.387	0.0141335
989.465	0.0143752
989.543	0.0140969
989.621	0.0142573
989.700	0.0143193
989.778	0.0141734
989.856	0.0141824
989.934	0.0142145
990.012	0.0141367
990.090	0.0141814
990.168	0.0141679
990.246	0.0141294
990.325	0.0142921
990.403	0.0142342
990.481	0.0142231
990.559	0.0142886
990.637	0.0142845
990.715	0.0142751
990.793	0.0142690
990.871	0.0143557
990.950	0.0143783
991.028	0.0144213
991.106	0.0143658
991.184	0.0143786
991.262	0.0141618
991.340	0.0143018
991.418	0.0142477
991.496	0.0142258
991.575	0.0142047
991.653	0.0142407
991.731	0.0140630
991.809	0.0141026
991.887	0.0141815
991.965	0.0143009
992.043	0.0142260
992.121	0.0141636
992.200	0.0142123
992.278	0.0141828
992.356	0.0142299
992.434	0.0142503
992.512	0.0140849
992.590	0.0141750
992.668	0.0142798
992.746	0.0142523
992.825	0.0142809
992.903	0.0142739
992.981	0.0142656
993.059	0.0143522
993.137	0.0143593
993.215	0.0141967
993.293	0.0142504
993.371	0.0142162
993.450	0.0141196
993.528	0.0141893
993.606	0.0141740
993.684	0.0143677
993.762	0.0142104
993.840	0.0142382
993.918	0.0142551
993.996	0.0144180
994.075	0.0142457
994.153	0.0143448
994.231	0.0143716
994.309	0.0143404
994.387	0.0143114
994.465	0.0142549
994.543	0.0142377
994.621	0.0141823
994.700	0.0142175
994.778	0.0142714
994.856	0.0141211
994.934	0.0141216
995.012	0.0142889
995.090	0.0141379
995.168	0.0142692
995.246	0.0141669
995.325	0.0141884
995.403	0.0140514
995.481	0.0141724
995.559	0.0141798
995.637	0.0142647
995.715	0.0142757
995.793	0.0142047
995.871	0.0140537
995.950	0.0141895
996.028	0.0141206
996.106	0.0142439
996.184	0.0141536
996.262	0.0141879
996.340	0.0143668
996.418	0.0142707
996.496	0.0143418
996.575	0.0142131
996.653	0.0143257
996.731	0.0143087
996.809	0.0143017
996.887	0.0142209
996.965	0.0143264
997.043	0.0142270
997.121	0.0142707
997.200	0.0143033
997.278	0.0142588
997.356	0.0142985
997.434	0.0142254
997.512	0.0141424
997.590	0.0142062
997.668	0.0142321
997.746	0.0142975
997.825	0.0141536
997.903	0.0141224
997.981	0.0141785
998.059	0.0142748
998.137	0.0142668
998.215	0.0142057
998.293	0.0144057
998.371	0.0143159
998.450	0.0142747
998.528	0.0142229
998.606	0.0142262
998.684	0.0141571
998.762	0.0142594
998.840	0.0141566
998.918	0.0141427
