05/04/2022	21:11:37	Ver.	4.1	UNKNOWN
Optical Delay	678.996401	Delta X		0.078125	Sweeps	1	Scan Rate	0/0
Coordinates	Axis 1	NaN	Axis 2	NaN	Axis 3	NaN	Axis 4	NaN	Axis 5	NaN	Axis 6	0.000000
TX Power	0.000000	RX Power	0.000000

678.996	0.0143858
679.075	0.0145547
679.153	0.0145800
679.231	0.0144283
679.309	0.0145482
679.387	0.0144909
679.465	0.0143321
679.543	0.0145197
679.621	0.0145955
679.700	0.0146049
679.778	0.0144636
679.856	0.0145642
679.934	0.0145646
680.012	0.0144445
680.090	0.0144425
680.168	0.0145750
680.246	0.0145421
680.325	0.0145219
680.403	0.0145081
680.481	0.0143385
680.559	0.0144603
680.637	0.0144659
680.715	0.0143374
680.793	0.0145330
680.871	0.0143387
680.950	0.0144607
681.028	0.0144026
681.106	0.0144914
681.184	0.0142775
681.262	0.0143766
681.340	0.0144827
681.418	0.0145406
681.496	0.0144057
681.575	0.0142607
681.653	0.0144630
681.731	0.0144881
681.809	0.0143427
681.887	0.0143562
681.965	0.0144643
682.043	0.0145120
682.121	0.0143922
682.200	0.0144424
682.278	0.0143153
682.356	0.0142493
682.434	0.0143866
682.512	0.0143275
682.590	0.0141670
682.668	0.0142262
682.746	0.0142297
682.825	0.0143250
682.903	0.0142755
682.981	0.0142937
683.059	0.0143997
683.137	0.0144241
683.215	0.0144554
683.293	0.0144695
683.371	0.0145369
683.450	0.0145131
683.528	0.0144843
683.606	0.0146192
683.684	0.0146706
683.762	0.0146535
683.840	0.0146723
683.918	0.0146896
683.996	0.0147657
684.075	0.0146997
684.153	0.0146335
684.231	0.0146603
684.309	0.0145879
684.387	0.0145812
684.465	0.0143913
684.543	0.0145055
684.621	0.0144220
684.700	0.0143704
684.778	0.0143323
684.856	0.0143082
684.934	0.0142933
685.012	0.0143121
685.090	0.0141830
685.168	0.0141765
685.246	0.0143391
685.325	0.0142929
685.403	0.0143450
685.481	0.0145537
685.559	0.0145644
685.637	0.0145126
685.715	0.0144319
685.793	0.0144146
685.871	0.0144218
685.950	0.0144682
686.028	0.0146180
686.106	0.0145734
686.184	0.0144287
686.262	0.0144733
686.340	0.0146429
686.418	0.0144576
686.496	0.0144685
686.575	0.0146066
686.653	0.0145108
686.731	0.0144225
686.809	0.0145072
686.887	0.0143376
686.965	0.0143911
687.043	0.0143760
687.121	0.0144581
687.200	0.0142105
687.278	0.0142338
687.356	0.0143348
687.434	0.0144092
687.512	0.0142874
687.590	0.0143255
687.668	0.0142143
687.746	0.0144305
687.825	0.0145016
687.903	0.0145010
687.981	0.0144180
688.059	0.0144218
688.137	0.0143566
688.215	0.0143455
688.293	0.0144614
688.371	0.0144474
688.450	0.0143656
688.528	0.0143651
688.606	0.0143736
688.684	0.0144550
688.762	0.0144016
688.840	0.0143344
688.918	0.0143230
688.996	0.0145255
689.075	0.0145379
689.153	0.0144878
689.231	0.0145628
689.309	0.0145432
689.387	0.0146448
689.465	0.0145827
689.543	0.0146268
689.621	0.0147507
689.700	0.0146345
689.778	0.0146830
689.856	0.0145023
689.934	0.0144628
690.012	0.0144621
690.090	0.0144092
690.168	0.0142838
690.246	0.0144124
690.325	0.0144269
690.403	0.0142618
690.481	0.0142610
690.559	0.0142410
690.637	0.0143926
690.715	0.0144199
690.793	0.0142687
690.871	0.0144993
690.950	0.0143797
691.028	0.0144098
691.106	0.0143648
691.184	0.0145097
691.262	0.0145341
691.340	0.0144441
691.418	0.0145351
691.496	0.0145753
691.575	0.0145443
691.653	0.0144768
691.731	0.0146742
691.809	0.0146233
691.887	0.0146664
691.965	0.0144957
692.043	0.0145763
692.121	0.0146222
692.200	0.0145300
692.278	0.0145715
692.356	0.0144617
692.434	0.0144881
692.512	0.0143409
692.590	0.0144823
692.668	0.0143716
692.746	0.0142847
692.825	0.0143324
692.903	0.0143299
692.981	0.0144466
693.059	0.0143515
693.137	0.0143642
693.215	0.0144615
693.293	0.0144368
693.371	0.0144049
693.450	0.0144527
693.528	0.0144497
693.606	0.0145023
693.684	0.0144548
693.762	0.0145632
693.840	0.0146770
693.918	0.0146117
693.996	0.0143917
694.075	0.0146644
694.153	0.0144282
694.231	0.0144370
694.309	0.0144257
694.387	0.0145274
694.465	0.0144268
694.543	0.0143106
694.621	0.0144248
694.700	0.0143877
694.778	0.0143414
694.856	0.0143922
694.934	0.0143293
695.012	0.0144542
695.090	0.0144796
695.168	0.0144139
695.246	0.0144747
695.325	0.0143217
695.403	0.0144535
695.481	0.0146611
695.559	0.0144709
695.637	0.0145113
695.715	0.0143349
695.793	0.0145587
695.871	0.0147021
695.950	0.0145262
696.028	0.0145358
696.106	0.0146075
696.184	0.0145356
696.262	0.0145847
696.340	0.0145502
696.418	0.0145148
696.496	0.0145471
696.575	0.0146019
696.653	0.0144133
696.731	0.0143288
696.809	0.0143053
696.887	0.0143193
696.965	0.0142184
697.043	0.0144542
697.121	0.0143124
697.200	0.0144234
697.278	0.0144541
697.356	0.0145303
697.434	0.0144363
697.512	0.0143771
697.590	0.0144440
697.668	0.0144202
697.746	0.0144774
697.825	0.0144537
697.903	0.0144189
697.981	0.0143333
698.059	0.0146509
698.137	0.0147110
698.215	0.0149165
698.293	0.0148624
698.371	0.0147452
698.450	0.0146735
698.528	0.0145338
698.606	0.0144178
698.684	0.0143501
698.762	0.0139239
698.840	0.0140456
698.918	0.0140189
698.996	0.0141384
699.075	0.0142764
699.153	0.0145190
699.231	0.0146192
699.309	0.0146438
699.387	0.0146030
699.465	0.0145027
699.543	0.0144955
699.621	0.0144112
699.700	0.0142301
699.778	0.0141190
699.856	0.0141841
699.934	0.0141373
700.012	0.0141201
700.090	0.0142533
700.168	0.0144273
700.246	0.0143666
700.325	0.0143489
700.403	0.0144640
700.481	0.0144877
700.559	0.0144718
700.637	0.0146071
700.715	0.0146433
700.793	0.0146600
700.871	0.0146594
700.950	0.0147035
701.028	0.0146600
701.106	0.0145638
701.184	0.0144314
701.262	0.0145100
701.340	0.0145103
701.418	0.0144164
701.496	0.0144122
701.575	0.0143201
701.653	0.0143421
701.731	0.0141898
701.809	0.0140814
701.887	0.0141939
701.965	0.0140441
702.043	0.0139407
702.121	0.0142939
702.200	0.0145763
702.278	0.0147131
702.356	0.0148701
702.434	0.0149699
702.512	0.0150063
702.590	0.0149943
702.668	0.0147004
702.746	0.0145457
702.825	0.0143114
702.903	0.0142210
702.981	0.0142284
703.059	0.0141925
703.137	0.0140847
703.215	0.0141566
703.293	0.0143957
703.371	0.0143445
703.450	0.0144838
703.528	0.0146259
703.606	0.0148997
703.684	0.0148370
703.762	0.0148840
703.840	0.0148871
703.918	0.0147791
703.996	0.0145421
704.075	0.0143717
704.153	0.0141116
704.231	0.0140120
704.309	0.0139014
704.387	0.0139021
704.465	0.0139525
704.543	0.0142143
704.621	0.0141781
704.700	0.0144015
704.778	0.0147042
704.856	0.0147961
704.934	0.0149548
705.012	0.0150686
705.090	0.0150287
705.168	0.0150702
705.246	0.0148183
705.325	0.0150117
705.403	0.0148621
705.481	0.0147283
705.559	0.0146766
705.637	0.0144640
705.715	0.0142954
705.793	0.0140200
705.871	0.0139442
705.950	0.0140131
706.028	0.0138683
706.106	0.0137640
706.184	0.0139072
706.262	0.0139503
706.340	0.0141882
706.418	0.0144386
706.496	0.0146533
706.575	0.0148218
706.653	0.0150188
706.731	0.0150723
706.809	0.0152017
706.887	0.0150690
706.965	0.0147722
707.043	0.0146317
707.121	0.0142335
707.200	0.0136108
707.278	0.0135811
707.356	0.0132410
707.434	0.0130360
707.512	0.0131132
707.590	0.0132462
707.668	0.0136102
707.746	0.0139965
707.825	0.0143374
707.903	0.0148201
707.981	0.0152202
708.059	0.0156118
708.137	0.0155775
708.215	0.0157693
708.293	0.0156853
708.371	0.0156906
708.450	0.0153906
708.528	0.0152019
708.606	0.0148514
708.684	0.0144633
708.762	0.0141769
708.840	0.0140646
708.918	0.0140035
708.996	0.0136575
709.075	0.0137882
709.153	0.0136865
709.231	0.0139731
709.309	0.0142094
709.387	0.0141489
709.465	0.0144676
709.543	0.0146561
709.621	0.0148596
709.700	0.0150912
709.778	0.0151196
709.856	0.0151533
709.934	0.0151578
710.012	0.0148828
710.090	0.0145968
710.168	0.0142630
710.246	0.0140335
710.325	0.0138302
710.403	0.0135593
710.481	0.0133354
710.559	0.0131804
710.637	0.0133495
710.715	0.0136916
710.793	0.0136758
710.871	0.0140417
710.950	0.0141994
711.028	0.0145123
711.106	0.0146889
711.184	0.0149920
711.262	0.0150960
711.340	0.0151340
711.418	0.0150395
711.496	0.0150124
711.575	0.0150879
711.653	0.0147813
711.731	0.0147131
711.809	0.0143604
711.887	0.0141457
711.965	0.0142268
712.043	0.0142687
712.121	0.0141489
712.200	0.0141039
712.278	0.0142394
712.356	0.0143171
712.434	0.0145840
712.512	0.0146735
712.590	0.0147977
712.668	0.0150130
712.746	0.0149953
712.825	0.0149591
712.903	0.0150056
712.981	0.0150201
713.059	0.0149621
713.137	0.0148796
713.215	0.0147298
713.293	0.0145589
713.371	0.0144299
713.450	0.0141160
713.528	0.0139034
713.606	0.0136266
713.684	0.0133559
713.762	0.0135165
713.840	0.0133119
713.918	0.0133785
713.996	0.0136012
714.075	0.0136989
714.153	0.0137476
714.231	0.0139718
714.309	0.0141465
714.387	0.0142700
714.465	0.0144334
714.543	0.0147691
714.621	0.0150105
714.700	0.0149947
714.778	0.0152063
714.856	0.0153661
714.934	0.0151870
715.012	0.0152782
715.090	0.0152384
715.168	0.0151142
715.246	0.0148265
715.325	0.0147718
715.403	0.0147364
715.481	0.0143430
715.559	0.0140865
715.637	0.0140096
715.715	0.0140862
715.793	0.0140730
715.871	0.0140897
715.950	0.0142166
716.028	0.0142378
716.106	0.0145848
716.184	0.0144987
716.262	0.0146362
716.340	0.0149432
716.418	0.0150222
716.496	0.0149867
716.575	0.0149814
716.653	0.0150317
716.731	0.0149088
716.809	0.0146891
716.887	0.0143742
716.965	0.0143576
717.043	0.0139548
717.121	0.0136117
717.200	0.0135259
717.278	0.0134676
717.356	0.0134711
717.434	0.0136042
717.512	0.0137551
717.590	0.0139512
717.668	0.0141684
717.746	0.0141000
717.825	0.0144369
717.903	0.0144537
717.981	0.0144722
718.059	0.0145504
718.137	0.0145024
718.215	0.0147052
718.293	0.0147581
718.371	0.0147791
718.450	0.0147820
718.528	0.0148309
718.606	0.0147350
718.684	0.0147985
718.762	0.0150201
718.840	0.0148770
718.918	0.0146761
718.996	0.0146198
719.075	0.0146090
719.153	0.0147024
719.231	0.0146255
719.309	0.0145066
719.387	0.0145764
719.465	0.0144839
719.543	0.0145451
719.621	0.0146679
719.700	0.0145698
719.778	0.0144673
719.856	0.0145989
719.934	0.0147927
720.012	0.0147372
720.090	0.0146782
720.168	0.0145752
720.246	0.0145530
720.325	0.0144643
720.403	0.0142569
720.481	0.0141525
720.559	0.0141724
720.637	0.0140353
720.715	0.0138960
720.793	0.0137844
720.871	0.0138354
720.950	0.0140203
721.028	0.0137753
721.106	0.0140095
721.184	0.0142185
721.262	0.0142927
721.340	0.0143377
721.418	0.0142437
721.496	0.0143206
721.575	0.0144566
721.653	0.0143565
721.731	0.0144171
721.809	0.0145383
721.887	0.0145197
721.965	0.0145130
722.043	0.0144389
722.121	0.0145210
722.200	0.0145382
722.278	0.0145117
722.356	0.0146298
722.434	0.0147225
722.512	0.0149696
722.590	0.0150513
722.668	0.0149968
722.746	0.0150749
722.825	0.0152475
722.903	0.0151737
722.981	0.0151193
723.059	0.0149045
723.137	0.0148003
723.215	0.0145474
723.293	0.0145033
723.371	0.0144732
723.450	0.0143335
723.528	0.0142635
723.606	0.0142363
723.684	0.0143470
723.762	0.0142213
723.840	0.0141177
723.918	0.0141791
723.996	0.0143312
724.075	0.0145200
724.153	0.0144629
724.231	0.0144077
724.309	0.0143391
724.387	0.0144237
724.465	0.0142738
724.543	0.0143794
724.621	0.0141856
724.700	0.0142515
724.778	0.0141861
724.856	0.0141077
724.934	0.0141965
725.012	0.0141716
725.090	0.0141218
725.168	0.0140852
725.246	0.0141803
725.325	0.0142345
725.403	0.0143902
725.481	0.0142403
725.559	0.0143632
725.637	0.0142928
725.715	0.0145053
725.793	0.0145548
725.871	0.0146020
725.950	0.0145538
726.028	0.0147323
726.106	0.0147992
726.184	0.0147613
726.262	0.0147813
726.340	0.0146414
726.418	0.0144939
726.496	0.0145059
726.575	0.0144650
726.653	0.0146503
726.731	0.0144426
726.809	0.0145345
726.887	0.0146033
726.965	0.0147035
727.043	0.0146621
727.121	0.0145495
727.200	0.0146821
727.278	0.0145898
727.356	0.0144564
727.434	0.0143990
727.512	0.0143375
727.590	0.0142755
727.668	0.0141428
727.746	0.0142619
727.825	0.0141012
727.903	0.0141861
727.981	0.0142060
728.059	0.0141946
728.137	0.0140735
728.215	0.0141084
728.293	0.0143714
728.371	0.0142313
728.450	0.0143856
728.528	0.0144324
728.606	0.0143935
728.684	0.0144367
728.762	0.0145405
728.840	0.0145312
728.918	0.0146212
728.996	0.0145261
729.075	0.0144476
729.153	0.0144311
729.231	0.0146291
729.309	0.0145103
729.387	0.0146023
729.465	0.0144328
729.543	0.0143880
729.621	0.0147016
729.700	0.0145429
729.778	0.0145786
729.856	0.0145139
729.934	0.0147079
730.012	0.0144804
730.090	0.0145580
730.168	0.0146300
730.246	0.0146062
730.325	0.0143376
730.403	0.0141554
730.481	0.0142124
730.559	0.0140558
730.637	0.0139554
730.715	0.0141216
730.793	0.0140189
730.871	0.0141441
730.950	0.0140595
731.028	0.0142767
731.106	0.0142393
731.184	0.0142778
731.262	0.0143623
731.340	0.0146069
731.418	0.0146058
731.496	0.0145289
731.575	0.0145966
731.653	0.0146093
731.731	0.0145808
731.809	0.0146123
731.887	0.0144815
731.965	0.0145999
732.043	0.0145286
732.121	0.0144075
732.200	0.0144115
732.278	0.0145142
732.356	0.0145528
732.434	0.0145444
732.512	0.0145001
732.590	0.0147845
732.668	0.0146152
732.746	0.0146598
732.825	0.0146066
732.903	0.0146229
732.981	0.0146870
733.059	0.0145735
733.137	0.0143940
733.215	0.0144580
733.293	0.0143152
733.371	0.0144711
733.450	0.0144448
733.528	0.0144034
733.606	0.0143585
733.684	0.0143116
733.762	0.0142649
733.840	0.0143395
733.918	0.0142736
733.996	0.0142437
734.075	0.0142831
734.153	0.0142116
734.231	0.0143310
734.309	0.0143818
734.387	0.0143877
734.465	0.0140865
734.543	0.0141698
734.621	0.0142591
734.700	0.0142451
734.778	0.0140963
734.856	0.0141340
734.934	0.0142300
735.012	0.0144100
735.090	0.0144544
735.168	0.0144626
735.246	0.0145886
735.325	0.0144833
735.403	0.0145955
735.481	0.0146416
735.559	0.0145726
735.637	0.0148650
735.715	0.0149003
735.793	0.0147815
735.871	0.0148711
735.950	0.0148786
736.028	0.0148419
736.106	0.0148633
736.184	0.0148167
736.262	0.0146710
736.340	0.0146177
736.418	0.0146172
736.496	0.0148042
736.575	0.0148006
736.653	0.0146117
736.731	0.0144407
736.809	0.0144481
736.887	0.0145032
736.965	0.0144822
737.043	0.0143816
737.121	0.0142786
737.200	0.0143452
737.278	0.0143040
737.356	0.0142556
737.434	0.0142454
737.512	0.0141950
737.590	0.0143329
737.668	0.0143615
737.746	0.0143926
737.825	0.0142528
737.903	0.0142484
737.981	0.0140976
738.059	0.0141119
738.137	0.0141904
738.215	0.0140766
738.293	0.0141660
738.371	0.0139377
738.450	0.0140592
738.528	0.0140479
738.606	0.0142067
738.684	0.0142416
738.762	0.0144320
738.840	0.0144810
738.918	0.0145722
738.996	0.0146532
739.075	0.0147766
739.153	0.0147419
739.231	0.0149153
739.309	0.0149296
739.387	0.0149387
739.465	0.0148407
739.543	0.0149055
739.621	0.0148638
739.700	0.0147835
739.778	0.0149390
739.856	0.0148101
739.934	0.0147137
740.012	0.0144295
740.090	0.0147247
740.168	0.0147478
740.246	0.0146571
740.325	0.0146308
740.403	0.0145544
740.481	0.0145913
740.559	0.0148494
740.637	0.0147278
740.715	0.0145494
740.793	0.0146253
740.871	0.0145753
740.950	0.0145221
741.028	0.0144550
741.106	0.0145061
741.184	0.0145153
741.262	0.0143911
741.340	0.0143622
741.418	0.0140800
741.496	0.0141281
741.575	0.0141296
741.653	0.0141557
741.731	0.0139628
741.809	0.0141764
741.887	0.0143125
741.965	0.0142754
742.043	0.0141463
742.121	0.0140997
742.200	0.0141817
742.278	0.0143291
742.356	0.0143856
742.434	0.0143065
742.512	0.0145081
742.590	0.0143812
742.668	0.0144992
742.746	0.0143710
742.825	0.0143344
742.903	0.0143634
742.981	0.0145257
743.059	0.0145289
743.137	0.0145843
743.215	0.0147965
743.293	0.0146742
743.371	0.0147031
743.450	0.0149190
743.528	0.0148727
743.606	0.0148082
743.684	0.0149019
743.762	0.0148135
743.840	0.0147478
743.918	0.0147519
743.996	0.0147208
744.075	0.0145280
744.153	0.0145693
744.231	0.0144182
744.309	0.0143496
744.387	0.0143958
744.465	0.0143349
744.543	0.0142739
744.621	0.0144152
744.700	0.0144829
744.778	0.0144495
744.856	0.0144213
744.934	0.0144740
745.012	0.0144334
745.090	0.0145021
745.168	0.0144849
745.246	0.0145083
745.325	0.0144064
745.403	0.0143085
745.481	0.0142916
745.559	0.0142382
745.637	0.0144313
745.715	0.0143591
745.793	0.0141673
745.871	0.0141271
745.950	0.0142849
746.028	0.0142791
746.106	0.0142265
746.184	0.0143474
746.262	0.0144264
746.340	0.0143970
746.418	0.0143972
746.496	0.0145464
746.575	0.0146388
746.653	0.0145779
746.731	0.0146832
746.809	0.0146936
746.887	0.0146378
746.965	0.0146075
747.043	0.0147968
747.121	0.0146953
747.200	0.0146185
747.278	0.0146737
747.356	0.0145916
747.434	0.0145829
747.512	0.0145572
747.590	0.0144909
747.668	0.0144878
747.746	0.0144784
747.825	0.0144810
747.903	0.0145480
747.981	0.0143268
748.059	0.0143775
748.137	0.0144019
748.215	0.0142968
748.293	0.0142651
748.371	0.0142881
748.450	0.0142540
748.528	0.0143348
748.606	0.0141735
748.684	0.0142172
748.762	0.0142863
748.840	0.0143928
748.918	0.0141940
748.996	0.0142019
749.075	0.0143333
749.153	0.0143086
749.231	0.0144422
749.309	0.0144750
749.387	0.0143963
749.465	0.0145012
749.543	0.0146548
749.621	0.0146490
749.700	0.0146538
749.778	0.0146713
749.856	0.0145924
749.934	0.0145855
750.012	0.0145284
750.090	0.0146069
750.168	0.0145129
750.246	0.0145646
750.325	0.0144146
750.403	0.0145185
750.481	0.0142616
750.559	0.0144120
750.637	0.0144194
750.715	0.0143524
750.793	0.0144321
750.871	0.0143259
750.950	0.0144276
751.028	0.0144992
751.106	0.0143846
751.184	0.0145047
751.262	0.0146833
751.340	0.0143958
751.418	0.0144326
751.496	0.0144968
751.575	0.0144491
751.653	0.0144922
751.731	0.0145373
751.809	0.0143472
751.887	0.0144137
751.965	0.0143039
752.043	0.0143549
752.121	0.0142977
752.200	0.0142395
752.278	0.0143380
752.356	0.0144086
752.434	0.0141795
752.512	0.0143497
752.590	0.0144440
752.668	0.0143984
752.746	0.0144595
752.825	0.0144568
752.903	0.0145263
752.981	0.0144812
753.059	0.0144660
753.137	0.0146550
753.215	0.0145742
753.293	0.0146355
753.371	0.0145796
753.450	0.0145233
753.528	0.0145328
753.606	0.0146119
753.684	0.0144712
753.762	0.0145060
753.840	0.0146006
753.918	0.0144841
753.996	0.0145358
754.075	0.0146277
754.153	0.0145384
754.231	0.0145020
754.309	0.0144551
754.387	0.0143167
754.465	0.0144277
754.543	0.0144578
754.621	0.0144267
754.700	0.0145148
754.778	0.0142537
754.856	0.0142772
754.934	0.0144206
755.012	0.0143437
755.090	0.0143520
755.168	0.0144685
755.246	0.0143910
755.325	0.0142963
755.403	0.0143969
755.481	0.0143060
755.559	0.0143821
755.637	0.0143082
755.715	0.0143648
755.793	0.0144186
755.871	0.0144081
755.950	0.0144361
756.028	0.0144863
756.106	0.0144998
756.184	0.0145586
756.262	0.0143001
756.340	0.0143818
756.418	0.0142759
756.496	0.0142974
756.575	0.0143748
756.653	0.0142681
756.731	0.0145459
756.809	0.0144479
756.887	0.0145171
756.965	0.0148092
757.043	0.0147324
757.121	0.0146092
757.200	0.0146966
757.278	0.0146990
757.356	0.0146940
757.434	0.0146815
757.512	0.0147083
757.590	0.0147111
757.668	0.0147292
757.746	0.0144792
757.825	0.0144745
757.903	0.0146168
757.981	0.0146195
758.059	0.0145279
758.137	0.0145545
758.215	0.0145212
758.293	0.0144715
758.371	0.0144877
758.450	0.0144693
758.528	0.0144408
758.606	0.0144533
758.684	0.0144637
758.762	0.0145530
758.840	0.0144176
758.918	0.0144930
758.996	0.0145016
759.075	0.0143827
759.153	0.0145149
759.231	0.0145226
759.309	0.0144432
759.387	0.0144339
759.465	0.0143974
759.543	0.0143264
759.621	0.0143237
759.700	0.0142308
759.778	0.0142532
759.856	0.0142732
759.934	0.0143033
760.012	0.0143291
760.090	0.0144131
760.168	0.0144762
760.246	0.0143668
760.325	0.0144738
760.403	0.0143258
760.481	0.0145699
760.559	0.0144645
760.637	0.0144304
760.715	0.0145145
760.793	0.0145505
760.871	0.0146448
760.950	0.0145457
761.028	0.0145667
761.106	0.0144968
761.184	0.0145461
761.262	0.0145904
761.340	0.0145288
761.418	0.0145457
761.496	0.0144596
761.575	0.0145982
761.653	0.0144830
761.731	0.0145853
761.809	0.0146133
761.887	0.0145098
761.965	0.0145803
762.043	0.0145026
762.121	0.0145125
762.200	0.0145364
762.278	0.0145308
762.356	0.0144573
762.434	0.0145241
762.512	0.0144335
762.590	0.0144749
762.668	0.0145483
762.746	0.0144206
762.825	0.0144122
762.903	0.0144747
762.981	0.0144495
763.059	0.0144563
763.137	0.0143571
763.215	0.0141473
763.293	0.0142619
763.371	0.0144539
763.450	0.0143771
763.528	0.0143928
763.606	0.0145092
763.684	0.0143162
763.762	0.0144305
763.840	0.0145432
763.918	0.0144165
763.996	0.0144886
764.075	0.0144711
764.153	0.0146147
764.231	0.0144865
764.309	0.0146581
764.387	0.0144897
764.465	0.0145731
764.543	0.0145580
764.621	0.0144790
764.700	0.0144662
764.778	0.0145685
764.856	0.0144970
764.934	0.0146549
765.012	0.0144572
765.090	0.0145443
765.168	0.0145961
765.246	0.0146539
765.325	0.0145126
765.403	0.0146262
765.481	0.0145534
765.559	0.0145373
765.637	0.0144338
765.715	0.0144792
765.793	0.0145743
765.871	0.0143604
765.950	0.0144269
766.028	0.0144801
766.106	0.0142957
766.184	0.0144431
766.262	0.0144253
766.340	0.0143507
766.418	0.0143386
766.496	0.0143490
766.575	0.0143296
766.653	0.0144530
766.731	0.0142958
766.809	0.0142382
766.887	0.0143339
766.965	0.0145344
767.043	0.0144661
767.121	0.0144653
767.200	0.0145420
767.278	0.0144258
767.356	0.0144814
767.434	0.0144473
767.512	0.0144530
767.590	0.0145689
767.668	0.0147385
767.746	0.0146201
767.825	0.0145994
767.903	0.0145103
767.981	0.0145171
768.059	0.0144568
768.137	0.0143599
768.215	0.0144814
768.293	0.0145641
768.371	0.0144806
768.450	0.0145490
768.528	0.0145354
768.606	0.0143531
768.684	0.0144688
768.762	0.0144258
768.840	0.0143669
768.918	0.0144220
768.996	0.0143662
769.075	0.0143578
769.153	0.0143983
769.231	0.0144371
769.309	0.0143298
769.387	0.0142632
769.465	0.0145325
769.543	0.0145076
769.621	0.0143862
769.700	0.0143886
769.778	0.0145574
769.856	0.0145212
769.934	0.0145171
770.012	0.0144528
770.090	0.0143849
770.168	0.0144465
770.246	0.0143227
770.325	0.0144365
770.403	0.0143485
770.481	0.0145422
770.559	0.0143956
770.637	0.0144373
770.715	0.0142511
770.793	0.0144016
770.871	0.0143214
770.950	0.0142908
771.028	0.0145195
771.106	0.0144570
771.184	0.0145129
771.262	0.0145174
771.340	0.0144770
771.418	0.0144524
771.496	0.0145061
771.575	0.0145801
771.653	0.0144196
771.731	0.0144476
771.809	0.0144739
771.887	0.0144767
771.965	0.0144778
772.043	0.0144002
772.121	0.0144550
772.200	0.0144135
772.278	0.0145103
772.356	0.0145691
772.434	0.0143401
772.512	0.0143594
772.590	0.0143822
772.668	0.0144073
772.746	0.0143783
772.825	0.0144441
772.903	0.0145364
772.981	0.0144571
773.059	0.0144707
773.137	0.0144493
773.215	0.0145311
773.293	0.0145622
773.371	0.0144099
773.450	0.0143869
773.528	0.0145473
773.606	0.0144530
773.684	0.0143314
773.762	0.0144553
773.840	0.0144322
773.918	0.0144055
773.996	0.0143853
774.075	0.0142796
774.153	0.0143263
774.231	0.0143488
774.309	0.0143757
774.387	0.0143582
774.465	0.0144280
774.543	0.0144337
774.621	0.0143786
774.700	0.0145067
774.778	0.0146326
774.856	0.0145747
774.934	0.0145319
775.012	0.0146321
775.090	0.0145678
775.168	0.0147016
775.246	0.0146026
775.325	0.0144620
775.403	0.0146199
775.481	0.0144595
775.559	0.0146009
775.637	0.0144935
775.715	0.0143372
775.793	0.0144264
775.871	0.0145418
775.950	0.0145271
776.028	0.0145541
776.106	0.0145824
776.184	0.0144274
776.262	0.0143769
776.340	0.0144103
776.418	0.0142876
776.496	0.0143571
776.575	0.0144002
776.653	0.0146207
776.731	0.0144844
776.809	0.0145382
776.887	0.0144074
776.965	0.0142890
777.043	0.0144823
777.121	0.0144158
777.200	0.0143578
777.278	0.0143342
777.356	0.0143520
777.434	0.0144603
777.512	0.0144097
777.590	0.0143370
777.668	0.0143595
777.746	0.0144315
777.825	0.0144453
777.903	0.0145084
777.981	0.0142918
778.059	0.0143762
778.137	0.0143312
778.215	0.0144009
778.293	0.0145137
778.371	0.0144220
778.450	0.0144389
778.528	0.0144787
778.606	0.0144345
778.684	0.0144961
778.762	0.0145341
778.840	0.0144830
778.918	0.0145644
778.996	0.0145834
779.075	0.0145481
779.153	0.0147775
779.231	0.0146223
779.309	0.0145152
779.387	0.0145831
779.465	0.0146735
779.543	0.0145995
779.621	0.0146145
779.700	0.0145366
779.778	0.0143472
779.856	0.0144263
779.934	0.0146352
780.012	0.0145355
780.090	0.0145741
780.168	0.0144097
780.246	0.0143704
780.325	0.0144183
780.403	0.0145975
780.481	0.0144086
780.559	0.0144479
780.637	0.0143263
780.715	0.0143551
780.793	0.0142543
780.871	0.0144659
780.950	0.0143247
781.028	0.0142691
781.106	0.0142131
781.184	0.0142476
781.262	0.0143780
781.340	0.0143475
781.418	0.0145248
781.496	0.0143562
781.575	0.0144378
781.653	0.0145042
781.731	0.0143674
781.809	0.0144292
781.887	0.0144974
781.965	0.0145058
782.043	0.0145296
782.121	0.0145921
782.200	0.0143647
782.278	0.0144294
782.356	0.0145268
782.434	0.0144486
782.512	0.0145145
782.590	0.0144859
782.668	0.0143714
782.746	0.0144940
782.825	0.0145654
782.903	0.0147054
782.981	0.0144673
783.059	0.0145383
783.137	0.0144935
783.215	0.0145498
783.293	0.0145277
783.371	0.0146001
783.450	0.0145705
783.528	0.0144634
783.606	0.0144851
783.684	0.0145939
783.762	0.0146265
783.840	0.0146378
783.918	0.0145222
783.996	0.0144823
784.075	0.0145415
784.153	0.0144966
784.231	0.0143331
784.309	0.0145119
784.387	0.0145100
784.465	0.0145036
784.543	0.0145132
784.621	0.0144051
784.700	0.0143748
784.778	0.0144417
784.856	0.0143716
784.934	0.0143784
785.012	0.0143632
785.090	0.0144225
785.168	0.0143152
785.246	0.0143903
785.325	0.0142610
785.403	0.0143045
785.481	0.0143224
785.559	0.0143710
785.637	0.0144070
785.715	0.0142661
785.793	0.0143853
785.871	0.0143176
785.950	0.0143408
786.028	0.0143042
786.106	0.0144137
786.184	0.0143065
786.262	0.0144676
786.340	0.0145029
786.418	0.0144444
786.496	0.0142878
786.575	0.0144022
786.653	0.0146011
786.731	0.0144144
786.809	0.0145184
786.887	0.0144584
786.965	0.0147306
787.043	0.0146627
787.121	0.0146085
787.200	0.0146664
787.278	0.0145609
787.356	0.0146322
787.434	0.0147538
787.512	0.0145033
787.590	0.0146645
787.668	0.0144857
787.746	0.0144904
787.825	0.0145667
787.903	0.0144508
787.981	0.0145917
788.059	0.0144720
788.137	0.0144379
788.215	0.0145029
788.293	0.0145544
788.371	0.0144911
788.450	0.0144650
788.528	0.0145134
788.606	0.0144760
788.684	0.0143525
788.762	0.0144118
788.840	0.0144286
788.918	0.0143940
788.996	0.0145166
789.075	0.0144640
789.153	0.0144228
789.231	0.0143512
789.309	0.0143574
789.387	0.0142611
789.465	0.0144455
789.543	0.0142834
789.621	0.0143311
789.700	0.0144390
789.778	0.0142605
789.856	0.0144174
789.934	0.0144286
790.012	0.0143645
790.090	0.0143824
790.168	0.0144283
790.246	0.0144833
790.325	0.0144020
790.403	0.0143794
790.481	0.0143547
790.559	0.0144665
790.637	0.0144352
790.715	0.0144698
790.793	0.0144459
790.871	0.0144381
790.950	0.0145778
791.028	0.0144343
791.106	0.0144187
791.184	0.0145879
791.262	0.0145676
791.340	0.0145098
791.418	0.0145303
791.496	0.0146585
791.575	0.0146130
791.653	0.0146547
791.731	0.0146703
791.809	0.0144650
791.887	0.0144592
791.965	0.0143739
792.043	0.0144547
792.121	0.0145280
792.200	0.0145528
792.278	0.0145403
792.356	0.0145402
792.434	0.0145313
792.512	0.0145513
792.590	0.0143886
792.668	0.0145177
792.746	0.0144550
792.825	0.0144370
792.903	0.0144987
792.981	0.0144772
793.059	0.0144802
793.137	0.0143118
793.215	0.0145621
793.293	0.0145753
793.371	0.0145911
793.450	0.0143885
793.528	0.0143340
793.606	0.0145177
793.684	0.0145354
793.762	0.0145017
793.840	0.0144887
793.918	0.0145404
793.996	0.0144415
794.075	0.0146085
794.153	0.0144587
794.231	0.0144316
794.309	0.0144917
794.387	0.0145412
794.465	0.0143317
794.543	0.0144244
794.621	0.0143763
794.700	0.0143947
794.778	0.0143999
794.856	0.0143639
794.934	0.0144293
795.012	0.0143993
795.090	0.0143182
795.168	0.0144460
795.246	0.0144840
795.325	0.0143964
795.403	0.0145964
795.481	0.0144740
795.559	0.0146411
795.637	0.0146587
795.715	0.0145881
795.793	0.0145918
795.871	0.0144337
795.950	0.0143606
796.028	0.0145282
796.106	0.0145412
796.184	0.0143816
796.262	0.0145114
796.340	0.0145162
796.418	0.0144586
796.496	0.0145307
796.575	0.0144792
796.653	0.0144157
796.731	0.0143317
796.809	0.0144211
796.887	0.0145072
796.965	0.0144591
797.043	0.0143862
797.121	0.0143582
797.200	0.0144366
797.278	0.0144320
797.356	0.0143998
797.434	0.0144449
797.512	0.0144403
797.590	0.0144724
797.668	0.0142546
797.746	0.0142188
797.825	0.0143978
797.903	0.0146165
797.981	0.0143813
798.059	0.0145093
798.137	0.0145265
798.215	0.0144585
798.293	0.0145444
798.371	0.0143355
798.450	0.0145379
798.528	0.0144800
798.606	0.0144740
798.684	0.0144058
798.762	0.0145367
798.840	0.0145564
798.918	0.0145679
798.996	0.0143728
799.075	0.0145689
799.153	0.0145191
799.231	0.0144366
799.309	0.0144946
799.387	0.0145863
799.465	0.0144830
799.543	0.0145627
799.621	0.0143960
799.700	0.0144506
799.778	0.0144540
799.856	0.0144471
799.934	0.0144182
800.012	0.0144954
800.090	0.0145569
800.168	0.0145649
800.246	0.0145717
800.325	0.0144633
800.403	0.0144627
800.481	0.0145507
800.559	0.0146255
800.637	0.0145280
800.715	0.0145660
800.793	0.0145348
800.871	0.0145405
800.950	0.0144608
801.028	0.0145534
801.106	0.0145535
801.184	0.0145516
801.262	0.0144548
801.340	0.0145362
801.418	0.0144812
801.496	0.0144556
801.575	0.0144128
801.653	0.0144934
801.731	0.0143704
801.809	0.0145013
801.887	0.0144391
801.965	0.0143949
802.043	0.0144788
802.121	0.0144231
802.200	0.0143794
802.278	0.0144803
802.356	0.0144006
802.434	0.0145003
802.512	0.0145230
802.590	0.0144278
802.668	0.0143166
802.746	0.0143414
802.825	0.0143919
802.903	0.0143964
802.981	0.0143658
803.059	0.0144489
803.137	0.0142796
803.215	0.0143901
803.293	0.0144257
803.371	0.0143577
803.450	0.0144136
803.528	0.0144259
803.606	0.0144520
803.684	0.0144701
803.762	0.0145921
803.840	0.0144241
803.918	0.0144970
803.996	0.0144814
804.075	0.0145189
804.153	0.0144625
804.231	0.0145667
804.309	0.0143673
804.387	0.0144809
804.465	0.0145411
804.543	0.0144056
804.621	0.0145486
804.700	0.0144070
804.778	0.0144353
804.856	0.0143441
804.934	0.0144170
805.012	0.0145126
805.090	0.0143369
805.168	0.0145010
805.246	0.0143846
805.325	0.0143168
805.403	0.0144050
805.481	0.0142912
805.559	0.0144174
805.637	0.0144883
805.715	0.0144602
805.793	0.0143465
805.871	0.0144022
805.950	0.0143825
806.028	0.0144430
806.106	0.0145006
806.184	0.0143964
806.262	0.0145246
806.340	0.0144946
806.418	0.0144440
806.496	0.0144394
806.575	0.0143888
806.653	0.0143185
806.731	0.0143461
806.809	0.0143614
806.887	0.0143968
806.965	0.0144689
807.043	0.0144517
807.121	0.0143307
807.200	0.0144485
807.278	0.0142902
807.356	0.0143947
807.434	0.0143859
807.512	0.0143808
807.590	0.0143851
807.668	0.0145354
807.746	0.0144694
807.825	0.0145335
807.903	0.0144678
807.981	0.0143304
808.059	0.0145190
808.137	0.0144490
808.215	0.0145045
808.293	0.0144890
808.371	0.0145588
808.450	0.0145464
808.528	0.0145875
808.606	0.0145023
808.684	0.0145232
808.762	0.0145918
808.840	0.0144321
808.918	0.0144812
808.996	0.0145093
809.075	0.0142991
809.153	0.0143539
809.231	0.0143678
809.309	0.0144497
809.387	0.0142870
809.465	0.0143103
809.543	0.0143251
809.621	0.0142870
809.700	0.0143868
809.778	0.0142150
809.856	0.0142970
809.934	0.0143819
810.012	0.0143685
810.090	0.0143477
810.168	0.0143367
810.246	0.0145335
810.325	0.0145102
810.403	0.0144599
810.481	0.0144711
810.559	0.0144138
810.637	0.0144094
810.715	0.0144720
810.793	0.0146024
810.871	0.0145547
810.950	0.0144492
811.028	0.0145337
811.106	0.0143971
811.184	0.0144983
811.262	0.0145566
811.340	0.0145512
811.418	0.0143742
811.496	0.0146163
811.575	0.0144859
811.653	0.0143680
811.731	0.0145198
811.809	0.0144523
811.887	0.0147192
811.965	0.0145824
812.043	0.0144785
812.121	0.0144142
812.200	0.0145880
812.278	0.0146944
812.356	0.0145114
812.434	0.0145168
812.512	0.0143684
812.590	0.0144213
812.668	0.0142914
812.746	0.0142999
812.825	0.0144143
812.903	0.0143746
812.981	0.0143184
813.059	0.0144374
813.137	0.0144168
813.215	0.0142523
813.293	0.0142710
813.371	0.0142943
813.450	0.0142025
813.528	0.0142983
813.606	0.0142651
813.684	0.0143848
813.762	0.0143573
813.840	0.0144537
813.918	0.0145222
813.996	0.0144600
814.075	0.0143033
814.153	0.0143875
814.231	0.0144614
814.309	0.0144997
814.387	0.0144616
814.465	0.0144185
814.543	0.0144468
814.621	0.0143005
814.700	0.0143545
814.778	0.0144470
814.856	0.0145014
814.934	0.0143385
815.012	0.0144615
815.090	0.0144274
815.168	0.0144064
815.246	0.0145338
815.325	0.0143793
815.403	0.0143948
815.481	0.0144219
815.559	0.0144736
815.637	0.0143858
815.715	0.0144260
815.793	0.0145229
815.871	0.0144937
815.950	0.0145016
816.028	0.0144792
816.106	0.0143867
816.184	0.0144865
816.262	0.0143620
816.340	0.0144690
816.418	0.0145318
816.496	0.0145538
816.575	0.0143439
816.653	0.0143962
816.731	0.0145478
816.809	0.0143179
816.887	0.0143899
816.965	0.0143983
817.043	0.0142960
817.121	0.0143678
817.200	0.0143565
817.278	0.0143496
817.356	0.0143769
817.434	0.0143575
817.512	0.0143407
817.590	0.0143441
817.668	0.0144058
817.746	0.0144487
817.825	0.0145930
817.903	0.0145988
817.981	0.0144406
818.059	0.0144368
818.137	0.0143989
818.215	0.0145516
818.293	0.0145863
818.371	0.0144967
818.450	0.0146204
818.528	0.0146919
818.606	0.0145034
818.684	0.0143450
818.762	0.0145728
818.840	0.0146194
818.918	0.0144454
818.996	0.0145111
819.075	0.0143974
819.153	0.0144938
819.231	0.0144725
819.309	0.0143942
819.387	0.0143879
819.465	0.0144521
819.543	0.0144429
819.621	0.0145103
819.700	0.0144144
819.778	0.0144136
819.856	0.0145022
819.934	0.0144581
820.012	0.0145243
820.090	0.0144841
820.168	0.0144823
820.246	0.0143457
820.325	0.0143831
820.403	0.0144007
820.481	0.0144484
820.559	0.0144086
820.637	0.0145018
820.715	0.0144363
820.793	0.0144926
820.871	0.0143730
820.950	0.0143488
821.028	0.0143532
821.106	0.0142890
821.184	0.0144521
821.262	0.0144313
821.340	0.0144950
821.418	0.0143410
821.496	0.0143484
821.575	0.0144547
821.653	0.0143641
821.731	0.0145079
821.809	0.0144848
821.887	0.0144301
821.965	0.0144582
822.043	0.0143949
822.121	0.0145213
822.200	0.0145197
822.278	0.0144917
822.356	0.0144395
822.434	0.0145087
822.512	0.0143337
822.590	0.0145246
822.668	0.0143931
822.746	0.0144423
822.825	0.0144572
822.903	0.0143726
822.981	0.0145130
823.059	0.0143681
823.137	0.0144317
823.215	0.0144682
823.293	0.0143774
823.371	0.0144577
823.450	0.0145207
823.528	0.0145139
823.606	0.0143555
823.684	0.0145011
823.762	0.0143937
823.840	0.0144341
823.918	0.0144073
823.996	0.0145279
824.075	0.0144366
824.153	0.0144758
824.231	0.0144694
824.309	0.0144514
824.387	0.0143994
824.465	0.0144588
824.543	0.0144654
824.621	0.0144576
824.700	0.0145277
824.778	0.0144799
824.856	0.0144904
824.934	0.0144616
825.012	0.0144981
825.090	0.0144210
825.168	0.0144754
825.246	0.0144403
825.325	0.0144240
825.403	0.0144501
825.481	0.0145366
825.559	0.0145143
825.637	0.0144051
825.715	0.0144218
825.793	0.0144796
825.871	0.0144014
825.950	0.0144508
826.028	0.0144698
826.106	0.0143674
826.184	0.0144016
826.262	0.0144024
826.340	0.0143855
826.418	0.0143607
826.496	0.0144521
826.575	0.0143916
826.653	0.0144698
826.731	0.0144096
826.809	0.0143017
826.887	0.0145087
826.965	0.0143547
827.043	0.0143698
827.121	0.0143276
827.200	0.0143446
827.278	0.0144478
827.356	0.0144170
827.434	0.0144681
827.512	0.0141637
827.590	0.0143113
827.668	0.0144888
827.746	0.0144418
827.825	0.0142907
827.903	0.0144140
827.981	0.0143270
828.059	0.0143157
828.137	0.0144149
828.215	0.0143913
828.293	0.0143934
828.371	0.0144053
828.450	0.0143322
828.528	0.0144455
828.606	0.0144527
828.684	0.0144019
828.762	0.0144324
828.840	0.0145464
828.918	0.0145233
828.996	0.0145274
829.075	0.0143176
829.153	0.0143327
829.231	0.0144241
829.309	0.0144186
829.387	0.0144025
829.465	0.0144724
829.543	0.0143481
829.621	0.0142019
829.700	0.0143155
829.778	0.0143230
829.856	0.0144440
829.934	0.0142914
830.012	0.0143305
830.090	0.0143582
830.168	0.0142683
830.246	0.0143485
830.325	0.0142863
830.403	0.0142822
830.481	0.0144422
830.559	0.0144939
830.637	0.0145171
830.715	0.0144992
830.793	0.0144539
830.871	0.0144657
830.950	0.0143396
831.028	0.0144302
831.106	0.0143994
831.184	0.0143718
831.262	0.0142890
831.340	0.0145006
831.418	0.0144035
831.496	0.0144032
831.575	0.0144495
831.653	0.0143956
831.731	0.0143499
831.809	0.0141627
831.887	0.0143421
831.965	0.0143563
832.043	0.0144212
832.121	0.0145040
832.200	0.0145244
832.278	0.0144194
832.356	0.0143541
832.434	0.0145972
832.512	0.0144425
832.590	0.0143009
832.668	0.0144007
832.746	0.0145149
832.825	0.0144518
832.903	0.0144614
832.981	0.0143597
833.059	0.0142024
833.137	0.0143090
833.215	0.0142904
833.293	0.0142195
833.371	0.0143317
833.450	0.0143240
833.528	0.0142974
833.606	0.0144498
833.684	0.0144511
833.762	0.0144003
833.840	0.0144105
833.918	0.0143417
833.996	0.0144603
834.075	0.0145532
834.153	0.0143934
834.231	0.0145547
834.309	0.0144675
834.387	0.0144089
834.465	0.0144035
834.543	0.0144310
834.621	0.0144786
834.700	0.0143018
834.778	0.0143083
834.856	0.0144301
834.934	0.0145400
835.012	0.0144603
835.090	0.0143740
835.168	0.0144392
835.246	0.0145695
835.325	0.0144495
835.403	0.0143893
835.481	0.0144331
835.559	0.0145012
835.637	0.0144354
835.715	0.0144671
835.793	0.0143296
835.871	0.0144556
835.950	0.0144927
836.028	0.0144150
836.106	0.0143590
836.184	0.0144083
836.262	0.0144035
836.340	0.0145843
836.418	0.0144718
836.496	0.0145425
836.575	0.0143826
836.653	0.0143419
836.731	0.0144240
836.809	0.0143640
836.887	0.0145467
836.965	0.0144003
837.043	0.0144039
837.121	0.0143587
837.200	0.0145557
837.278	0.0145091
837.356	0.0143440
837.434	0.0145184
837.512	0.0144838
837.590	0.0144810
837.668	0.0145678
837.746	0.0144994
837.825	0.0144792
837.903	0.0145491
837.981	0.0144992
838.059	0.0145612
838.137	0.0145767
838.215	0.0144727
838.293	0.0144924
838.371	0.0144555
838.450	0.0143806
838.528	0.0144564
838.606	0.0144637
838.684	0.0143935
838.762	0.0143347
838.840	0.0142976
838.918	0.0143896
838.996	0.0144645
839.075	0.0143958
839.153	0.0144373
839.231	0.0144289
839.309	0.0144018
839.387	0.0145132
839.465	0.0145860
839.543	0.0144852
839.621	0.0144777
839.700	0.0145394
839.778	0.0143697
839.856	0.0143923
839.934	0.0145013
840.012	0.0144115
840.090	0.0144832
840.168	0.0143314
840.246	0.0142240
840.325	0.0144485
840.403	0.0143881
840.481	0.0142979
840.559	0.0143865
840.637	0.0143964
840.715	0.0145130
840.793	0.0143272
840.871	0.0144408
840.950	0.0144143
841.028	0.0144398
841.106	0.0144787
841.184	0.0144455
841.262	0.0144659
841.340	0.0144893
841.418	0.0145139
841.496	0.0144358
841.575	0.0145300
841.653	0.0143530
841.731	0.0144909
841.809	0.0145040
841.887	0.0144872
841.965	0.0145412
842.043	0.0144841
842.121	0.0145149
842.200	0.0145242
842.278	0.0145309
842.356	0.0144710
842.434	0.0144094
842.512	0.0144576
842.590	0.0143225
842.668	0.0143939
842.746	0.0144367
842.825	0.0144946
842.903	0.0144644
842.981	0.0144829
843.059	0.0146019
843.137	0.0144579
843.215	0.0144809
843.293	0.0144025
843.371	0.0146467
843.450	0.0144697
843.528	0.0144729
843.606	0.0144118
843.684	0.0142691
843.762	0.0142709
843.840	0.0142945
843.918	0.0144043
843.996	0.0143672
844.075	0.0143700
844.153	0.0143815
844.231	0.0144054
844.309	0.0143270
844.387	0.0143659
844.465	0.0142744
844.543	0.0144762
844.621	0.0144280
844.700	0.0144756
844.778	0.0143775
844.856	0.0144105
844.934	0.0145220
845.012	0.0144217
845.090	0.0146078
845.168	0.0145111
845.246	0.0144816
845.325	0.0145876
845.403	0.0144832
845.481	0.0144363
845.559	0.0145864
845.637	0.0144760
845.715	0.0145240
845.793	0.0144312
845.871	0.0145212
845.950	0.0144678
846.028	0.0143762
846.106	0.0145054
846.184	0.0144621
846.262	0.0144187
846.340	0.0143686
846.418	0.0143830
846.496	0.0143166
846.575	0.0143815
846.653	0.0144189
846.731	0.0144883
846.809	0.0144605
846.887	0.0144566
846.965	0.0144635
847.043	0.0143444
847.121	0.0143647
847.200	0.0144611
847.278	0.0144899
847.356	0.0144452
847.434	0.0142352
847.512	0.0144484
847.590	0.0143855
847.668	0.0145505
847.746	0.0143634
847.825	0.0144102
847.903	0.0143960
847.981	0.0143721
848.059	0.0143557
848.137	0.0144664
848.215	0.0144295
848.293	0.0143246
848.371	0.0143806
848.450	0.0142957
848.528	0.0143547
848.606	0.0142989
848.684	0.0143135
848.762	0.0142941
848.840	0.0143570
848.918	0.0143822
848.996	0.0142965
849.075	0.0144466
849.153	0.0144143
849.231	0.0144261
849.309	0.0142896
849.387	0.0143832
849.465	0.0144264
849.543	0.0144211
849.621	0.0145005
849.700	0.0144868
849.778	0.0145270
849.856	0.0143771
849.934	0.0143639
850.012	0.0143404
850.090	0.0143970
850.168	0.0144881
850.246	0.0144222
850.325	0.0143895
850.403	0.0143365
850.481	0.0143636
850.559	0.0143706
850.637	0.0144179
850.715	0.0143009
850.793	0.0145125
850.871	0.0145043
850.950	0.0144429
851.028	0.0144087
851.106	0.0143950
851.184	0.0143439
851.262	0.0142927
851.340	0.0143787
851.418	0.0144637
851.496	0.0142552
851.575	0.0143133
851.653	0.0142442
851.731	0.0142322
851.809	0.0143619
851.887	0.0144008
851.965	0.0143668
852.043	0.0143434
852.121	0.0143079
852.200	0.0143774
852.278	0.0143649
852.356	0.0144027
852.434	0.0144238
852.512	0.0144512
852.590	0.0144585
852.668	0.0145178
852.746	0.0143302
852.825	0.0144656
852.903	0.0144334
852.981	0.0144256
853.059	0.0143707
853.137	0.0144341
853.215	0.0142863
853.293	0.0143694
853.371	0.0144308
853.450	0.0143922
853.528	0.0143736
853.606	0.0144634
853.684	0.0144180
853.762	0.0145153
853.840	0.0143766
853.918	0.0143296
853.996	0.0144305
854.075	0.0144302
854.153	0.0144512
854.231	0.0143980
854.309	0.0146487
854.387	0.0144514
854.465	0.0144926
854.543	0.0145299
854.621	0.0144325
854.700	0.0142227
854.778	0.0144484
854.856	0.0144962
854.934	0.0144376
855.012	0.0144409
855.090	0.0144173
855.168	0.0143246
855.246	0.0144498
855.325	0.0143509
855.403	0.0142638
855.481	0.0144927
855.559	0.0143371
855.637	0.0144119
855.715	0.0142814
855.793	0.0144322
855.871	0.0142650
855.950	0.0143948
856.028	0.0142999
856.106	0.0144204
856.184	0.0144370
856.262	0.0143208
856.340	0.0144830
856.418	0.0144696
856.496	0.0144298
856.575	0.0144000
856.653	0.0144994
856.731	0.0143514
856.809	0.0143902
856.887	0.0145506
856.965	0.0144707
857.043	0.0143499
857.121	0.0145006
857.200	0.0143310
857.278	0.0144756
857.356	0.0146378
857.434	0.0145423
857.512	0.0145300
857.590	0.0145784
857.668	0.0145163
857.746	0.0145753
857.825	0.0145079
857.903	0.0143743
857.981	0.0144147
858.059	0.0144825
858.137	0.0144843
858.215	0.0143707
858.293	0.0143906
858.371	0.0143844
858.450	0.0144250
858.528	0.0145364
858.606	0.0144056
858.684	0.0145232
858.762	0.0143266
858.840	0.0144022
858.918	0.0143925
858.996	0.0145738
859.075	0.0144655
859.153	0.0144632
859.231	0.0144691
859.309	0.0143982
859.387	0.0145379
859.465	0.0144409
859.543	0.0145686
859.621	0.0144993
859.700	0.0144500
859.778	0.0144118
859.856	0.0144501
859.934	0.0144144
860.012	0.0144013
860.090	0.0144265
860.168	0.0144180
860.246	0.0143984
860.325	0.0143720
860.403	0.0144942
860.481	0.0143951
860.559	0.0142923
860.637	0.0143775
860.715	0.0144672
860.793	0.0144849
860.871	0.0143993
860.950	0.0145190
861.028	0.0144733
861.106	0.0144154
861.184	0.0144991
861.262	0.0146182
861.340	0.0144559
861.418	0.0146240
861.496	0.0144903
861.575	0.0145985
861.653	0.0145560
861.731	0.0145863
861.809	0.0144650
861.887	0.0145116
861.965	0.0144824
862.043	0.0144293
862.121	0.0144808
862.200	0.0145640
862.278	0.0146714
862.356	0.0146542
862.434	0.0145949
862.512	0.0144579
862.590	0.0145156
862.668	0.0144247
862.746	0.0143217
862.825	0.0143465
862.903	0.0143825
862.981	0.0144858
863.059	0.0143040
863.137	0.0142600
863.215	0.0144946
863.293	0.0144735
863.371	0.0144219
863.450	0.0143131
863.528	0.0145387
863.606	0.0144897
863.684	0.0144736
863.762	0.0144570
863.840	0.0145084
863.918	0.0144926
863.996	0.0144682
864.075	0.0145956
864.153	0.0143378
864.231	0.0144252
864.309	0.0143312
864.387	0.0145544
864.465	0.0143748
864.543	0.0143721
864.621	0.0145606
864.700	0.0144463
864.778	0.0144535
864.856	0.0145043
864.934	0.0144663
865.012	0.0144516
865.090	0.0144347
865.168	0.0145204
865.246	0.0143976
865.325	0.0142682
865.403	0.0145145
865.481	0.0143880
865.559	0.0144194
865.637	0.0143888
865.715	0.0143313
865.793	0.0144273
865.871	0.0143063
865.950	0.0143982
866.028	0.0143641
866.106	0.0143816
866.184	0.0144008
866.262	0.0144352
866.340	0.0143873
866.418	0.0144351
866.496	0.0145702
866.575	0.0143333
866.653	0.0144739
866.731	0.0143352
866.809	0.0144615
866.887	0.0144653
866.965	0.0143452
867.043	0.0144781
867.121	0.0145048
867.200	0.0144512
867.278	0.0146273
867.356	0.0143950
867.434	0.0144122
867.512	0.0143784
867.590	0.0143291
867.668	0.0144994
867.746	0.0144394
867.825	0.0144450
867.903	0.0143381
867.981	0.0143436
868.059	0.0145218
868.137	0.0143134
868.215	0.0144688
868.293	0.0144045
868.371	0.0145631
868.450	0.0145357
868.528	0.0144483
868.606	0.0144225
868.684	0.0144678
868.762	0.0144212
868.840	0.0145119
868.918	0.0145519
868.996	0.0145689
869.075	0.0144255
869.153	0.0144289
869.231	0.0145991
869.309	0.0144292
869.387	0.0144637
869.465	0.0144217
869.543	0.0144614
869.621	0.0145738
869.700	0.0143452
869.778	0.0144694
869.856	0.0143630
869.934	0.0143813
870.012	0.0143131
870.090	0.0143457
870.168	0.0144196
870.246	0.0142651
870.325	0.0142892
870.403	0.0140895
870.481	0.0143711
870.559	0.0143481
870.637	0.0142280
870.715	0.0144270
870.793	0.0143892
870.871	0.0143042
870.950	0.0142858
871.028	0.0143904
871.106	0.0143361
871.184	0.0143224
871.262	0.0144489
871.340	0.0144962
871.418	0.0144373
871.496	0.0142727
871.575	0.0144456
871.653	0.0143640
871.731	0.0143956
871.809	0.0143559
871.887	0.0143919
871.965	0.0144697
872.043	0.0145825
872.121	0.0144566
872.200	0.0145046
872.278	0.0145232
872.356	0.0142590
872.434	0.0144223
872.512	0.0142979
872.590	0.0144218
872.668	0.0144252
872.746	0.0144374
872.825	0.0144131
872.903	0.0145341
872.981	0.0144592
873.059	0.0144711
873.137	0.0144478
873.215	0.0142937
873.293	0.0144382
873.371	0.0145084
873.450	0.0144620
873.528	0.0144408
873.606	0.0143316
873.684	0.0143772
873.762	0.0144073
873.840	0.0143975
873.918	0.0145380
873.996	0.0142548
874.075	0.0144469
874.153	0.0145015
874.231	0.0143204
874.309	0.0143687
874.387	0.0143410
874.465	0.0144598
874.543	0.0143938
874.621	0.0142876
874.700	0.0144008
874.778	0.0144810
874.856	0.0143613
874.934	0.0143740
875.012	0.0143568
875.090	0.0144559
875.168	0.0144170
875.246	0.0143401
875.325	0.0143880
875.403	0.0144500
875.481	0.0144335
875.559	0.0145293
875.637	0.0145070
875.715	0.0145212
875.793	0.0143979
875.871	0.0145502
875.950	0.0144627
876.028	0.0145511
876.106	0.0144019
876.184	0.0145589
876.262	0.0145249
876.340	0.0144953
876.418	0.0144862
876.496	0.0145207
876.575	0.0144401
876.653	0.0143922
876.731	0.0144958
876.809	0.0144589
876.887	0.0145593
876.965	0.0144128
877.043	0.0143824
877.121	0.0143886
877.200	0.0143638
877.278	0.0144318
877.356	0.0143896
877.434	0.0143667
877.512	0.0145265
877.590	0.0144195
877.668	0.0144685
877.746	0.0144403
877.825	0.0146108
877.903	0.0144942
877.981	0.0145143
878.059	0.0145760
878.137	0.0146303
878.215	0.0145912
878.293	0.0145697
878.371	0.0145615
878.450	0.0145786
878.528	0.0145716
878.606	0.0145960
878.684	0.0145646
878.762	0.0146336
878.840	0.0145286
878.918	0.0145482
878.996	0.0144370
879.075	0.0144088
879.153	0.0144510
879.231	0.0145780
879.309	0.0143518
879.387	0.0143777
879.465	0.0143789
879.543	0.0145266
879.621	0.0143615
879.700	0.0144923
879.778	0.0145093
879.856	0.0145365
879.934	0.0145887
880.012	0.0144753
880.090	0.0145930
880.168	0.0146680
880.246	0.0145195
880.325	0.0144754
880.403	0.0144769
880.481	0.0145083
880.559	0.0145271
880.637	0.0145083
880.715	0.0144741
880.793	0.0144594
880.871	0.0144816
880.950	0.0144467
881.028	0.0144966
881.106	0.0144073
881.184	0.0144717
881.262	0.0143576
881.340	0.0145203
881.418	0.0145406
881.496	0.0144887
881.575	0.0145034
881.653	0.0145329
881.731	0.0145403
881.809	0.0144048
881.887	0.0144564
881.965	0.0144480
882.043	0.0143471
882.121	0.0144105
882.200	0.0144432
882.278	0.0143893
882.356	0.0144154
882.434	0.0143696
882.512	0.0144013
882.590	0.0144834
882.668	0.0144698
882.746	0.0144583
882.825	0.0144548
882.903	0.0144426
882.981	0.0146882
883.059	0.0143941
883.137	0.0144756
883.215	0.0145538
883.293	0.0146033
883.371	0.0145361
883.450	0.0144994
883.528	0.0146101
883.606	0.0143988
883.684	0.0144905
883.762	0.0145902
883.840	0.0145844
883.918	0.0145222
883.996	0.0144704
884.075	0.0145493
884.153	0.0143649
884.231	0.0145164
884.309	0.0144709
884.387	0.0144010
884.465	0.0145576
884.543	0.0143909
884.621	0.0144163
884.700	0.0143604
884.778	0.0145448
884.856	0.0144525
884.934	0.0145204
885.012	0.0143099
885.090	0.0144053
885.168	0.0145086
885.246	0.0144653
885.325	0.0146305
885.403	0.0145103
885.481	0.0144543
885.559	0.0143884
885.637	0.0144901
885.715	0.0144005
885.793	0.0145438
885.871	0.0145157
885.950	0.0143770
886.028	0.0144913
886.106	0.0145579
886.184	0.0144721
886.262	0.0144052
886.340	0.0143687
886.418	0.0144012
886.496	0.0145193
886.575	0.0144197
886.653	0.0144816
886.731	0.0143311
886.809	0.0144154
886.887	0.0145660
886.965	0.0142593
887.043	0.0143675
887.121	0.0144202
887.200	0.0142957
887.278	0.0142457
887.356	0.0143900
887.434	0.0144259
887.512	0.0143112
887.590	0.0145039
887.668	0.0144592
887.746	0.0145573
887.825	0.0144978
887.903	0.0144061
887.981	0.0144858
888.059	0.0145068
888.137	0.0144380
888.215	0.0143774
888.293	0.0144143
888.371	0.0144255
888.450	0.0145721
888.528	0.0143650
888.606	0.0142907
888.684	0.0144397
888.762	0.0145323
888.840	0.0145247
888.918	0.0145674
888.996	0.0145783
889.075	0.0144057
889.153	0.0144207
889.231	0.0144490
889.309	0.0146082
889.387	0.0143014
889.465	0.0144998
889.543	0.0144779
889.621	0.0143715
889.700	0.0144513
889.778	0.0144640
889.856	0.0144238
889.934	0.0142915
890.012	0.0145138
890.090	0.0145295
890.168	0.0144843
890.246	0.0143886
890.325	0.0144493
890.403	0.0143301
890.481	0.0143587
890.559	0.0144199
890.637	0.0143536
890.715	0.0143016
890.793	0.0144610
890.871	0.0144989
890.950	0.0144387
891.028	0.0143378
891.106	0.0144984
891.184	0.0145856
891.262	0.0144062
891.340	0.0143446
891.418	0.0143240
891.496	0.0144614
891.575	0.0142778
891.653	0.0144530
891.731	0.0144401
891.809	0.0142797
891.887	0.0145869
891.965	0.0143829
892.043	0.0144166
892.121	0.0145757
892.200	0.0145386
892.278	0.0145415
892.356	0.0143620
892.434	0.0143168
892.512	0.0146351
892.590	0.0144203
892.668	0.0145029
892.746	0.0142100
892.825	0.0143694
892.903	0.0142896
892.981	0.0142683
893.059	0.0145305
893.137	0.0143822
893.215	0.0144246
893.293	0.0144099
893.371	0.0144924
893.450	0.0145029
893.528	0.0142956
893.606	0.0144009
893.684	0.0144437
893.762	0.0145041
893.840	0.0146181
893.918	0.0144086
893.996	0.0144241
894.075	0.0145685
894.153	0.0143986
894.231	0.0144255
894.309	0.0145076
894.387	0.0143982
894.465	0.0144396
894.543	0.0145584
894.621	0.0143649
894.700	0.0145166
894.778	0.0144127
894.856	0.0142890
894.934	0.0144043
895.012	0.0145159
895.090	0.0145465
895.168	0.0144285
895.246	0.0144205
895.325	0.0145294
895.403	0.0144910
895.481	0.0145387
895.559	0.0144196
895.637	0.0145260
895.715	0.0144317
895.793	0.0144559
895.871	0.0144232
895.950	0.0143457
896.028	0.0143044
896.106	0.0142922
896.184	0.0145217
896.262	0.0142397
896.340	0.0143051
896.418	0.0144006
896.496	0.0144476
896.575	0.0143955
896.653	0.0143803
896.731	0.0144643
896.809	0.0145139
896.887	0.0145519
896.965	0.0146566
897.043	0.0143578
897.121	0.0143573
897.200	0.0144024
897.278	0.0144440
897.356	0.0144208
897.434	0.0143535
897.512	0.0143327
897.590	0.0143757
897.668	0.0144539
897.746	0.0143939
897.825	0.0144118
897.903	0.0144363
897.981	0.0144113
898.059	0.0144356
898.137	0.0143815
898.215	0.0143619
898.293	0.0144847
898.371	0.0143880
898.450	0.0145271
898.528	0.0145899
898.606	0.0144849
898.684	0.0144617
898.762	0.0144889
898.840	0.0144536
898.918	0.0144301
898.996	0.0144622
899.075	0.0144453
899.153	0.0143315
899.231	0.0143265
899.309	0.0144502
899.387	0.0144939
899.465	0.0144387
899.543	0.0143015
899.621	0.0145092
899.700	0.0147204
899.778	0.0145763
899.856	0.0144638
899.934	0.0145170
900.012	0.0144278
900.090	0.0145856
900.168	0.0145971
900.246	0.0145013
900.325	0.0144194
900.403	0.0143539
900.481	0.0143340
900.559	0.0142603
900.637	0.0142451
900.715	0.0145100
900.793	0.0144865
900.871	0.0144559
900.950	0.0143482
901.028	0.0144415
901.106	0.0144401
901.184	0.0144134
901.262	0.0144176
901.340	0.0146169
901.418	0.0144963
901.496	0.0145243
901.575	0.0145576
901.653	0.0144408
901.731	0.0145142
901.809	0.0144923
901.887	0.0143892
901.965	0.0143930
902.043	0.0144722
902.121	0.0143649
902.200	0.0144603
902.278	0.0143451
902.356	0.0144591
902.434	0.0144425
902.512	0.0145382
902.590	0.0144159
902.668	0.0144755
902.746	0.0143916
902.825	0.0145309
902.903	0.0145422
902.981	0.0145287
903.059	0.0146195
903.137	0.0146152
903.215	0.0145844
903.293	0.0145984
903.371	0.0145491
903.450	0.0145689
903.528	0.0144731
903.606	0.0145164
903.684	0.0144033
903.762	0.0145787
903.840	0.0145097
903.918	0.0143378
903.996	0.0143826
904.075	0.0143732
904.153	0.0143809
904.231	0.0144273
904.309	0.0144730
904.387	0.0144314
904.465	0.0145057
904.543	0.0144373
904.621	0.0146461
904.700	0.0146771
904.778	0.0145847
904.856	0.0145355
904.934	0.0146851
905.012	0.0146048
905.090	0.0144437
905.168	0.0146191
905.246	0.0144753
905.325	0.0144609
905.403	0.0144309
905.481	0.0145548
905.559	0.0144895
905.637	0.0144173
905.715	0.0145486
905.793	0.0145389
905.871	0.0144707
905.950	0.0145828
906.028	0.0145792
906.106	0.0145325
906.184	0.0147318
906.262	0.0146085
906.340	0.0145251
906.418	0.0146280
906.496	0.0145650
906.575	0.0145750
906.653	0.0145892
906.731	0.0144534
906.809	0.0144841
906.887	0.0145982
906.965	0.0145533
907.043	0.0143417
907.121	0.0145228
907.200	0.0144436
907.278	0.0143053
907.356	0.0143530
907.434	0.0144073
907.512	0.0143154
907.590	0.0144446
907.668	0.0143612
907.746	0.0143978
907.825	0.0145057
907.903	0.0143839
907.981	0.0145081
908.059	0.0145854
908.137	0.0146842
908.215	0.0145383
908.293	0.0144764
908.371	0.0144470
908.450	0.0144685
908.528	0.0145018
908.606	0.0145466
908.684	0.0143562
908.762	0.0143922
908.840	0.0143413
908.918	0.0143408
908.996	0.0143444
909.075	0.0144381
909.153	0.0143082
909.231	0.0143256
909.309	0.0143981
909.387	0.0143931
909.465	0.0145322
909.543	0.0143516
909.621	0.0144020
909.700	0.0144056
909.778	0.0144962
909.856	0.0143744
909.934	0.0144382
910.012	0.0143687
910.090	0.0143051
910.168	0.0145044
910.246	0.0143342
910.325	0.0143316
910.403	0.0144662
910.481	0.0144376
910.559	0.0144209
910.637	0.0144983
910.715	0.0143401
910.793	0.0145484
910.871	0.0143694
910.950	0.0144301
911.028	0.0144281
911.106	0.0144247
911.184	0.0145103
911.262	0.0144310
911.340	0.0143532
911.418	0.0142989
911.496	0.0144371
911.575	0.0144789
911.653	0.0143753
911.731	0.0143623
911.809	0.0143184
911.887	0.0142568
911.965	0.0143541
912.043	0.0143433
912.121	0.0142725
912.200	0.0142949
912.278	0.0142850
912.356	0.0143793
912.434	0.0143778
912.512	0.0143465
912.590	0.0143672
912.668	0.0142315
912.746	0.0145100
912.825	0.0144550
912.903	0.0142829
912.981	0.0145401
913.059	0.0144550
913.137	0.0144177
913.215	0.0143213
913.293	0.0144189
913.371	0.0144975
913.450	0.0144810
913.528	0.0144506
913.606	0.0144116
913.684	0.0143908
913.762	0.0144493
913.840	0.0143269
913.918	0.0143320
913.996	0.0143195
914.075	0.0143484
914.153	0.0144143
914.231	0.0144463
914.309	0.0145224
914.387	0.0144323
914.465	0.0143245
914.543	0.0144753
914.621	0.0144607
914.700	0.0143436
914.778	0.0143791
914.856	0.0143289
914.934	0.0143412
915.012	0.0142587
915.090	0.0143687
915.168	0.0143293
915.246	0.0143271
915.325	0.0142432
915.403	0.0143069
915.481	0.0143758
915.559	0.0143330
915.637	0.0143591
915.715	0.0144589
915.793	0.0144469
915.871	0.0144490
915.950	0.0144427
916.028	0.0143955
916.106	0.0144447
916.184	0.0143880
916.262	0.0144179
916.340	0.0143277
916.418	0.0142474
916.496	0.0142852
916.575	0.0143636
916.653	0.0143324
916.731	0.0144940
916.809	0.0143910
916.887	0.0144405
916.965	0.0144810
917.043	0.0144498
917.121	0.0143462
917.200	0.0144820
917.278	0.0144947
917.356	0.0145629
917.434	0.0144451
917.512	0.0145080
917.590	0.0145271
917.668	0.0144982
917.746	0.0144551
917.825	0.0144204
917.903	0.0143969
917.981	0.0145351
918.059	0.0144433
918.137	0.0142973
918.215	0.0143939
918.293	0.0143160
918.371	0.0144035
918.450	0.0145173
918.528	0.0143599
918.606	0.0143620
918.684	0.0143796
918.762	0.0143013
918.840	0.0142734
918.918	0.0143391
918.996	0.0144638
919.075	0.0143728
919.153	0.0144429
919.231	0.0143828
919.309	0.0144513
919.387	0.0145782
919.465	0.0144932
919.543	0.0143442
919.621	0.0143476
919.700	0.0144196
919.778	0.0143696
919.856	0.0143643
919.934	0.0144523
920.012	0.0146069
920.090	0.0145007
920.168	0.0143848
920.246	0.0144246
920.325	0.0143993
920.403	0.0144760
920.481	0.0145030
920.559	0.0144620
920.637	0.0145179
920.715	0.0145470
920.793	0.0143974
920.871	0.0145837
920.950	0.0144927
921.028	0.0144600
921.106	0.0145045
921.184	0.0143085
921.262	0.0143482
921.340	0.0145734
921.418	0.0144984
921.496	0.0143369
921.575	0.0143716
921.653	0.0143771
921.731	0.0144873
921.809	0.0145485
921.887	0.0145520
921.965	0.0144993
922.043	0.0144716
922.121	0.0144574
922.200	0.0143777
922.278	0.0145464
922.356	0.0143935
922.434	0.0143061
922.512	0.0144218
922.590	0.0144133
922.668	0.0144226
922.746	0.0144262
922.825	0.0143995
922.903	0.0143170
922.981	0.0144997
923.059	0.0144685
923.137	0.0145071
923.215	0.0145193
923.293	0.0145805
923.371	0.0144182
923.450	0.0144480
923.528	0.0143900
923.606	0.0144642
923.684	0.0144344
923.762	0.0144318
923.840	0.0143267
923.918	0.0143507
923.996	0.0144362
924.075	0.0143382
924.153	0.0144209
924.231	0.0142947
924.309	0.0142601
924.387	0.0143085
924.465	0.0144424
924.543	0.0145527
924.621	0.0144844
924.700	0.0143867
924.778	0.0144649
924.856	0.0143906
924.934	0.0144796
925.012	0.0145080
925.090	0.0143874
925.168	0.0144201
925.246	0.0145576
925.325	0.0145433
925.403	0.0144294
925.481	0.0143107
925.559	0.0143698
925.637	0.0145494
925.715	0.0144312
925.793	0.0144913
925.871	0.0144643
925.950	0.0142451
926.028	0.0143926
926.106	0.0144626
926.184	0.0143148
926.262	0.0144628
926.340	0.0145280
926.418	0.0143982
926.496	0.0143452
926.575	0.0143739
926.653	0.0142651
926.731	0.0144415
926.809	0.0144003
926.887	0.0142873
926.965	0.0144163
927.043	0.0143807
927.121	0.0143427
927.200	0.0142898
927.278	0.0144626
927.356	0.0143548
927.434	0.0144584
927.512	0.0142976
927.590	0.0144473
927.668	0.0144463
927.746	0.0143597
927.825	0.0144764
927.903	0.0143600
927.981	0.0144547
928.059	0.0143882
928.137	0.0142838
928.215	0.0142846
928.293	0.0143926
928.371	0.0143376
928.450	0.0142682
928.528	0.0143233
928.606	0.0143738
928.684	0.0142766
928.762	0.0142580
928.840	0.0144033
928.918	0.0144150
928.996	0.0143182
929.075	0.0143826
929.153	0.0143739
929.231	0.0144019
929.309	0.0144212
929.387	0.0145302
929.465	0.0144131
929.543	0.0143727
929.621	0.0144564
929.700	0.0145463
929.778	0.0145153
929.856	0.0145956
929.934	0.0144279
930.012	0.0143879
930.090	0.0144912
930.168	0.0146053
930.246	0.0144807
930.325	0.0144669
930.403	0.0145324
930.481	0.0144800
930.559	0.0145570
930.637	0.0143388
930.715	0.0144875
930.793	0.0146341
930.871	0.0143916
930.950	0.0144354
931.028	0.0144318
931.106	0.0145232
931.184	0.0143503
931.262	0.0144413
931.340	0.0145186
931.418	0.0145036
931.496	0.0145255
931.575	0.0143957
931.653	0.0143182
931.731	0.0143045
931.809	0.0144420
931.887	0.0143487
931.965	0.0143391
932.043	0.0143678
932.121	0.0143137
932.200	0.0143806
932.278	0.0142842
932.356	0.0144038
932.434	0.0143978
932.512	0.0144485
932.590	0.0144192
932.668	0.0144172
932.746	0.0144094
932.825	0.0143861
932.903	0.0144981
932.981	0.0144904
933.059	0.0143166
933.137	0.0144690
933.215	0.0142919
933.293	0.0144080
933.371	0.0144771
933.450	0.0144270
933.528	0.0144121
933.606	0.0143738
933.684	0.0145840
933.762	0.0144697
933.840	0.0145398
933.918	0.0143539
933.996	0.0143628
934.075	0.0146138
934.153	0.0144740
934.231	0.0144184
934.309	0.0145325
934.387	0.0144369
934.465	0.0145551
934.543	0.0144146
934.621	0.0144611
934.700	0.0144365
934.778	0.0144797
934.856	0.0144753
934.934	0.0143774
935.012	0.0143790
935.090	0.0143818
935.168	0.0145158
935.246	0.0144761
935.325	0.0144391
935.403	0.0143716
935.481	0.0144549
935.559	0.0144725
935.637	0.0144068
935.715	0.0144591
935.793	0.0144647
935.871	0.0145087
935.950	0.0144575
936.028	0.0143450
936.106	0.0143961
936.184	0.0145010
936.262	0.0144117
936.340	0.0144997
936.418	0.0144135
936.496	0.0145651
936.575	0.0143356
936.653	0.0145285
936.731	0.0144604
936.809	0.0144721
936.887	0.0145705
936.965	0.0145052
937.043	0.0143941
937.121	0.0144117
937.200	0.0144046
937.278	0.0143761
937.356	0.0143568
937.434	0.0144487
937.512	0.0144104
937.590	0.0144753
937.668	0.0144497
937.746	0.0144070
937.825	0.0145454
937.903	0.0145320
937.981	0.0144663
938.059	0.0144858
938.137	0.0143486
938.215	0.0145259
938.293	0.0145073
938.371	0.0143717
938.450	0.0144877
938.528	0.0144161
938.606	0.0144948
938.684	0.0144080
938.762	0.0143820
938.840	0.0143587
938.918	0.0144807
938.996	0.0144176
939.075	0.0143739
939.153	0.0143952
939.231	0.0144786
939.309	0.0145281
939.387	0.0144166
939.465	0.0143861
939.543	0.0144714
939.621	0.0143652
939.700	0.0144263
939.778	0.0144323
939.856	0.0145102
939.934	0.0144463
940.012	0.0144256
940.090	0.0144948
940.168	0.0144074
940.246	0.0144482
940.325	0.0143119
940.403	0.0143951
940.481	0.0144122
940.559	0.0142969
940.637	0.0144409
940.715	0.0144273
940.793	0.0143471
940.871	0.0143914
940.950	0.0143867
941.028	0.0143928
941.106	0.0143844
941.184	0.0144746
941.262	0.0143312
941.340	0.0142425
941.418	0.0143285
941.496	0.0143156
941.575	0.0145029
941.653	0.0144326
941.731	0.0143443
941.809	0.0143666
941.887	0.0143198
941.965	0.0144716
942.043	0.0144006
942.121	0.0144703
942.200	0.0142845
942.278	0.0144221
942.356	0.0143920
942.434	0.0145290
942.512	0.0143963
942.590	0.0144174
942.668	0.0143939
942.746	0.0143833
942.825	0.0145336
942.903	0.0145406
942.981	0.0144960
943.059	0.0144621
943.137	0.0144146
943.215	0.0144952
943.293	0.0144321
943.371	0.0144891
943.450	0.0145179
943.528	0.0143627
943.606	0.0143540
943.684	0.0143805
943.762	0.0143930
943.840	0.0143711
943.918	0.0143816
943.996	0.0145310
944.075	0.0143817
944.153	0.0143861
944.231	0.0143372
944.309	0.0144584
944.387	0.0144609
944.465	0.0144595
944.543	0.0145113
944.621	0.0144531
944.700	0.0144503
944.778	0.0144750
944.856	0.0144824
944.934	0.0144775
945.012	0.0145076
945.090	0.0143381
945.168	0.0145415
945.246	0.0145092
945.325	0.0142884
945.403	0.0145007
945.481	0.0144376
945.559	0.0143616
945.637	0.0143736
945.715	0.0144125
945.793	0.0144453
945.871	0.0144572
945.950	0.0144199
946.028	0.0145564
946.106	0.0144904
946.184	0.0143385
946.262	0.0144664
946.340	0.0145930
946.418	0.0144565
946.496	0.0145409
946.575	0.0144054
946.653	0.0145217
946.731	0.0144677
946.809	0.0144338
946.887	0.0144144
946.965	0.0144878
947.043	0.0145266
947.121	0.0144682
947.200	0.0145831
947.278	0.0144287
947.356	0.0143192
947.434	0.0144072
947.512	0.0143301
947.590	0.0144036
947.668	0.0144257
947.746	0.0145612
947.825	0.0144681
947.903	0.0144570
947.981	0.0144246
948.059	0.0144514
948.137	0.0144518
948.215	0.0145103
948.293	0.0144754
948.371	0.0145575
948.450	0.0145969
948.528	0.0144140
948.606	0.0145895
948.684	0.0144656
948.762	0.0144685
948.840	0.0144326
948.918	0.0145261
948.996	0.0144759
949.075	0.0143948
949.153	0.0143392
949.231	0.0145647
949.309	0.0144775
949.387	0.0144318
949.465	0.0144465
949.543	0.0144052
949.621	0.0144212
949.700	0.0143977
949.778	0.0143902
949.856	0.0144285
949.934	0.0144223
950.012	0.0144501
950.090	0.0144256
950.168	0.0143553
950.246	0.0144048
950.325	0.0144544
950.403	0.0145047
950.481	0.0144816
950.559	0.0143781
950.637	0.0144261
950.715	0.0145121
950.793	0.0145142
950.871	0.0144559
950.950	0.0143684
951.028	0.0143766
951.106	0.0144946
951.184	0.0145199
951.262	0.0145967
951.340	0.0144328
951.418	0.0144926
951.496	0.0143215
951.575	0.0143456
951.653	0.0144754
951.731	0.0143932
951.809	0.0142088
951.887	0.0143893
951.965	0.0143214
952.043	0.0145277
952.121	0.0143562
952.200	0.0143894
952.278	0.0144446
952.356	0.0143573
952.434	0.0144279
952.512	0.0144636
952.590	0.0145104
952.668	0.0144818
952.746	0.0143869
952.825	0.0144678
952.903	0.0144411
952.981	0.0145003
953.059	0.0145353
953.137	0.0145031
953.215	0.0144196
953.293	0.0145679
953.371	0.0144761
953.450	0.0144964
953.528	0.0144772
953.606	0.0143575
953.684	0.0145567
953.762	0.0144747
953.840	0.0144737
953.918	0.0145641
953.996	0.0144701
954.075	0.0144674
954.153	0.0144275
954.231	0.0146304
954.309	0.0144735
954.387	0.0143278
954.465	0.0145010
954.543	0.0144456
954.621	0.0144865
954.700	0.0144292
954.778	0.0145430
954.856	0.0144904
954.934	0.0143551
955.012	0.0145776
955.090	0.0143515
955.168	0.0143929
955.246	0.0142991
955.325	0.0142870
955.403	0.0145302
955.481	0.0144295
955.559	0.0142827
955.637	0.0143582
955.715	0.0144316
955.793	0.0145156
955.871	0.0143247
955.950	0.0144118
956.028	0.0144752
956.106	0.0144841
956.184	0.0144556
956.262	0.0144919
956.340	0.0145156
956.418	0.0145753
956.496	0.0146175
956.575	0.0144268
956.653	0.0144926
956.731	0.0144464
956.809	0.0143597
956.887	0.0144762
956.965	0.0144823
957.043	0.0144654
957.121	0.0144998
957.200	0.0144547
957.278	0.0144433
957.356	0.0147038
957.434	0.0145282
957.512	0.0143842
957.590	0.0144305
957.668	0.0144709
957.746	0.0145261
957.825	0.0144247
957.903	0.0144623
957.981	0.0144284
958.059	0.0144913
958.137	0.0145261
958.215	0.0145338
958.293	0.0145162
958.371	0.0145432
958.450	0.0144151
958.528	0.0146157
958.606	0.0145321
958.684	0.0143674
958.762	0.0144453
958.840	0.0143472
958.918	0.0144136
958.996	0.0144984
959.075	0.0143895
959.153	0.0143842
959.231	0.0144478
959.309	0.0146099
959.387	0.0145184
959.465	0.0145316
959.543	0.0144945
959.621	0.0144444
959.700	0.0144353
959.778	0.0145181
959.856	0.0145814
959.934	0.0145618
960.012	0.0145109
960.090	0.0144176
960.168	0.0144404
960.246	0.0145074
960.325	0.0144347
960.403	0.0145197
960.481	0.0145570
960.559	0.0146061
960.637	0.0143814
960.715	0.0142893
960.793	0.0143980
960.871	0.0144678
960.950	0.0144325
961.028	0.0144765
961.106	0.0144267
961.184	0.0145392
961.262	0.0143372
961.340	0.0144825
961.418	0.0144356
961.496	0.0142876
961.575	0.0145822
961.653	0.0146487
961.731	0.0144811
961.809	0.0144838
961.887	0.0143945
961.965	0.0144444
962.043	0.0144259
962.121	0.0143969
962.200	0.0144833
962.278	0.0144517
962.356	0.0142373
962.434	0.0143906
962.512	0.0144499
962.590	0.0144563
962.668	0.0144330
962.746	0.0145148
962.825	0.0143318
962.903	0.0144588
962.981	0.0143491
963.059	0.0143778
963.137	0.0143552
963.215	0.0144411
963.293	0.0145181
963.371	0.0145374
963.450	0.0143448
963.528	0.0144940
963.606	0.0143907
963.684	0.0144464
963.762	0.0144345
963.840	0.0145147
963.918	0.0144485
963.996	0.0144176
964.075	0.0145332
964.153	0.0145482
964.231	0.0144683
964.309	0.0144510
964.387	0.0143585
964.465	0.0143217
964.543	0.0144746
964.621	0.0145580
964.700	0.0144049
964.778	0.0143394
964.856	0.0144719
964.934	0.0144289
965.012	0.0144084
965.090	0.0144598
965.168	0.0144234
965.246	0.0143882
965.325	0.0144621
965.403	0.0143641
965.481	0.0144112
965.559	0.0142830
965.637	0.0144525
965.715	0.0146411
965.793	0.0144424
965.871	0.0145043
965.950	0.0143936
966.028	0.0144897
966.106	0.0145295
966.184	0.0143496
966.262	0.0144920
966.340	0.0144789
966.418	0.0144076
966.496	0.0144405
966.575	0.0145196
966.653	0.0144402
966.731	0.0145040
966.809	0.0145114
966.887	0.0144538
966.965	0.0143460
967.043	0.0145055
967.121	0.0144789
967.200	0.0144911
967.278	0.0145038
967.356	0.0144225
967.434	0.0144463
967.512	0.0145023
967.590	0.0145261
967.668	0.0144552
967.746	0.0143999
967.825	0.0145170
967.903	0.0144738
967.981	0.0144815
968.059	0.0144395
968.137	0.0143957
968.215	0.0143889
968.293	0.0142079
968.371	0.0143800
968.450	0.0143694
968.528	0.0144196
968.606	0.0144193
968.684	0.0144756
968.762	0.0143240
968.840	0.0143520
968.918	0.0143423
968.996	0.0145050
969.075	0.0146133
969.153	0.0144825
969.231	0.0145661
969.309	0.0143204
969.387	0.0145364
969.465	0.0145585
969.543	0.0145159
969.621	0.0143997
969.700	0.0145130
969.778	0.0144495
969.856	0.0143241
969.934	0.0143959
970.012	0.0144822
970.090	0.0144365
970.168	0.0144276
970.246	0.0144250
970.325	0.0144910
970.403	0.0143945
970.481	0.0144102
970.559	0.0143693
970.637	0.0143442
970.715	0.0143810
970.793	0.0143315
970.871	0.0144315
970.950	0.0144453
971.028	0.0144641
971.106	0.0143774
971.184	0.0144254
971.262	0.0142993
971.340	0.0145557
971.418	0.0144450
971.496	0.0143579
971.575	0.0144843
971.653	0.0145039
971.731	0.0143591
971.809	0.0143076
971.887	0.0144403
971.965	0.0143342
972.043	0.0144362
972.121	0.0144764
972.200	0.0142663
972.278	0.0143528
972.356	0.0143473
972.434	0.0143625
972.512	0.0144144
972.590	0.0143755
972.668	0.0143485
972.746	0.0145699
972.825	0.0144280
972.903	0.0142783
972.981	0.0145429
973.059	0.0143802
973.137	0.0144611
973.215	0.0145771
973.293	0.0144464
973.371	0.0145528
973.450	0.0143135
973.528	0.0143022
973.606	0.0142866
973.684	0.0143046
973.762	0.0144206
973.840	0.0142731
973.918	0.0141367
973.996	0.0143552
974.075	0.0142812
974.153	0.0144946
974.231	0.0144628
974.309	0.0144025
974.387	0.0144073
974.465	0.0143787
974.543	0.0144005
974.621	0.0143631
974.700	0.0143221
974.778	0.0144562
974.856	0.0144977
974.934	0.0144286
975.012	0.0144939
975.090	0.0144473
975.168	0.0144649
975.246	0.0143935
975.325	0.0145928
975.403	0.0144736
975.481	0.0144417
975.559	0.0144173
975.637	0.0144318
975.715	0.0144606
975.793	0.0144258
975.871	0.0144984
975.950	0.0144982
976.028	0.0143851
976.106	0.0144537
976.184	0.0142387
976.262	0.0144087
976.340	0.0143983
976.418	0.0143674
976.496	0.0142651
976.575	0.0144336
976.653	0.0142732
976.731	0.0142960
976.809	0.0144051
976.887	0.0142800
976.965	0.0144228
977.043	0.0143396
977.121	0.0144178
977.200	0.0143633
977.278	0.0144014
977.356	0.0145166
977.434	0.0143681
977.512	0.0144083
977.590	0.0143884
977.668	0.0144946
977.746	0.0142785
977.825	0.0143291
977.903	0.0144173
977.981	0.0144601
978.059	0.0145821
978.137	0.0145023
978.215	0.0143613
978.293	0.0143553
978.371	0.0145596
978.450	0.0144430
978.528	0.0145140
978.606	0.0145088
978.684	0.0143399
978.762	0.0144345
978.840	0.0145370
978.918	0.0144538
978.996	0.0144443
979.075	0.0143938
979.153	0.0144463
979.231	0.0143870
979.309	0.0144652
979.387	0.0144460
979.465	0.0144359
979.543	0.0145372
979.621	0.0144087
979.700	0.0143994
979.778	0.0145102
979.856	0.0144550
979.934	0.0144116
980.012	0.0144331
980.090	0.0145007
980.168	0.0143843
980.246	0.0143566
980.325	0.0144809
980.403	0.0145594
980.481	0.0145303
980.559	0.0144189
980.637	0.0145417
980.715	0.0145523
980.793	0.0146219
980.871	0.0145390
980.950	0.0144729
981.028	0.0145557
981.106	0.0145023
981.184	0.0144414
981.262	0.0145599
981.340	0.0145526
981.418	0.0144850
981.496	0.0145439
981.575	0.0144305
981.653	0.0143628
981.731	0.0144755
981.809	0.0143508
981.887	0.0143688
981.965	0.0144761
982.043	0.0144520
982.121	0.0144586
982.200	0.0144710
982.278	0.0144640
982.356	0.0145244
982.434	0.0144688
982.512	0.0144392
982.590	0.0145168
982.668	0.0144901
982.746	0.0145560
982.825	0.0145844
982.903	0.0145087
982.981	0.0145489
983.059	0.0145219
983.137	0.0145180
983.215	0.0145518
983.293	0.0145869
983.371	0.0143302
983.450	0.0145245
983.528	0.0145428
983.606	0.0145620
983.684	0.0145454
983.762	0.0145578
983.840	0.0143519
983.918	0.0145319
983.996	0.0144964
984.075	0.0145203
984.153	0.0145733
984.231	0.0144390
984.309	0.0144443
984.387	0.0143290
984.465	0.0144738
984.543	0.0145586
984.621	0.0144761
984.700	0.0144405
984.778	0.0145026
984.856	0.0145527
984.934	0.0144298
985.012	0.0144878
985.090	0.0145850
985.168	0.0144903
985.246	0.0146388
985.325	0.0145824
985.403	0.0144646
985.481	0.0144668
985.559	0.0144662
985.637	0.0144439
985.715	0.0144448
985.793	0.0144859
985.871	0.0144694
985.950	0.0144993
986.028	0.0143836
986.106	0.0144347
986.184	0.0145614
986.262	0.0144863
986.340	0.0145184
986.418	0.0145190
986.496	0.0144725
986.575	0.0145212
986.653	0.0144795
986.731	0.0144806
986.809	0.0145856
986.887	0.0145184
986.965	0.0145518
987.043	0.0143122
987.121	0.0144064
987.200	0.0145897
987.278	0.0145141
987.356	0.0143731
987.434	0.0144404
987.512	0.0145254
987.590	0.0144638
987.668	0.0144548
987.746	0.0142764
987.825	0.0143214
987.903	0.0144490
987.981	0.0144415
988.059	0.0143723
988.137	0.0143425
988.215	0.0143478
988.293	0.0144360
988.371	0.0143591
988.450	0.0144315
988.528	0.0144233
988.606	0.0144759
988.684	0.0142640
988.762	0.0144363
988.840	0.0145293
988.918	0.0144822
988.996	0.0144665
989.075	0.0144319
989.153	0.0144343
989.231	0.0145544
989.309	0.0144730
989.387	0.0144940
989.465	0.0144592
989.543	0.0144438
989.621	0.0144666
989.700	0.0143999
989.778	0.0144105
989.856	0.0144306
989.934	0.0143559
990.012	0.0145712
990.090	0.0145473
990.168	0.0144029
990.246	0.0143425
990.325	0.0143288
990.403	0.0144690
990.481	0.0143836
990.559	0.0144830
990.637	0.0144416
990.715	0.0143470
990.793	0.0143645
990.871	0.0144540
990.950	0.0143510
991.028	0.0142175
991.106	0.0143807
991.184	0.0144164
991.262	0.0143951
991.340	0.0144343
991.418	0.0143433
991.496	0.0144054
991.575	0.0143848
991.653	0.0143600
991.731	0.0143959
991.809	0.0143181
991.887	0.0142838
991.965	0.0143838
992.043	0.0143552
992.121	0.0145203
992.200	0.0143850
992.278	0.0144674
992.356	0.0145224
992.434	0.0143964
992.512	0.0144219
992.590	0.0144830
992.668	0.0145686
992.746	0.0144112
992.825	0.0145752
992.903	0.0144003
992.981	0.0143236
993.059	0.0143592
993.137	0.0144959
993.215	0.0144522
993.293	0.0144039
993.371	0.0145644
993.450	0.0145572
993.528	0.0144307
993.606	0.0143478
993.684	0.0143640
993.762	0.0144048
993.840	0.0142829
993.918	0.0143237
993.996	0.0144804
994.075	0.0144622
994.153	0.0144803
994.231	0.0143847
994.309	0.0142906
994.387	0.0143765
994.465	0.0143690
994.543	0.0141878
994.621	0.0144323
994.700	0.0143385
994.778	0.0142734
994.856	0.0143094
994.934	0.0143621
995.012	0.0144307
995.090	0.0143817
995.168	0.0144104
995.246	0.0144469
995.325	0.0144289
995.403	0.0145137
995.481	0.0144283
995.559	0.0145162
995.637	0.0143793
995.715	0.0143866
995.793	0.0143339
995.871	0.0144096
995.950	0.0143582
996.028	0.0142266
996.106	0.0144756
996.184	0.0143554
996.262	0.0144556
996.340	0.0144760
996.418	0.0145349
996.496	0.0145804
996.575	0.0145631
996.653	0.0145203
996.731	0.0144197
996.809	0.0143674
996.887	0.0144399
996.965	0.0143757
997.043	0.0143472
997.121	0.0143845
997.200	0.0143784
997.278	0.0142671
997.356	0.0142503
997.434	0.0142521
997.512	0.0142603
997.590	0.0144683
997.668	0.0143031
997.746	0.0143419
997.825	0.0143430
997.903	0.0142139
997.981	0.0143826
998.059	0.0143086
998.137	0.0141729
998.215	0.0143106
998.293	0.0143411
998.371	0.0143555
998.450	0.0144702
998.528	0.0143423
998.606	0.0144662
998.684	0.0144161
998.762	0.0143760
998.840	0.0143330
998.918	0.0144796
