05/04/2022	21:11:52	Ver.	4.1	UNKNOWN
Optical Delay	678.996401	Delta X		0.078125	Sweeps	1	Scan Rate	0/0
Coordinates	Axis 1	NaN	Axis 2	NaN	Axis 3	NaN	Axis 4	NaN	Axis 5	NaN	Axis 6	0.000000
TX Power	0.000000	RX Power	0.000000

678.996	0.0144600
679.075	0.0142894
679.153	0.0143350
679.231	0.0145607
679.309	0.0144411
679.387	0.0143604
679.465	0.0142934
679.543	0.0142676
679.621	0.0143241
679.700	0.0143401
679.778	0.0142694
679.856	0.0144424
679.934	0.0145188
680.012	0.0145055
680.090	0.0144241
680.168	0.0144637
680.246	0.0143497
680.325	0.0144498
680.403	0.0143182
680.481	0.0144658
680.559	0.0144434
680.637	0.0144753
680.715	0.0144992
680.793	0.0145802
680.871	0.0144704
680.950	0.0142834
681.028	0.0143171
681.106	0.0144513
681.184	0.0143681
681.262	0.0142857
681.340	0.0142113
681.418	0.0144894
681.496	0.0143167
681.575	0.0144337
681.653	0.0143828
681.731	0.0142556
681.809	0.0142661
681.887	0.0143774
681.965	0.0144661
682.043	0.0143751
682.121	0.0144539
682.200	0.0145216
682.278	0.0145499
682.356	0.0144514
682.434	0.0146554
682.512	0.0146549
682.590	0.0146478
682.668	0.0144991
682.746	0.0146229
682.825	0.0145544
682.903	0.0146913
682.981	0.0146250
683.059	0.0145462
683.137	0.0145187
683.215	0.0144180
683.293	0.0143195
683.371	0.0144121
683.450	0.0144978
683.528	0.0143660
683.606	0.0144047
683.684	0.0141808
683.762	0.0142483
683.840	0.0143350
683.918	0.0143192
683.996	0.0143011
684.075	0.0143460
684.153	0.0142305
684.231	0.0143407
684.309	0.0144299
684.387	0.0143387
684.465	0.0144337
684.543	0.0144524
684.621	0.0146623
684.700	0.0146215
684.778	0.0145448
684.856	0.0145290
684.934	0.0145786
685.012	0.0145633
685.090	0.0145929
685.168	0.0144553
685.246	0.0146401
685.325	0.0146411
685.403	0.0145518
685.481	0.0144724
685.559	0.0144286
685.637	0.0145398
685.715	0.0144092
685.793	0.0143537
685.871	0.0143214
685.950	0.0143600
686.028	0.0142417
686.106	0.0143031
686.184	0.0142879
686.262	0.0144002
686.340	0.0143078
686.418	0.0142474
686.496	0.0142720
686.575	0.0143516
686.653	0.0144393
686.731	0.0144201
686.809	0.0144550
686.887	0.0144293
686.965	0.0144082
687.043	0.0145539
687.121	0.0143964
687.200	0.0143553
687.278	0.0143347
687.356	0.0144547
687.434	0.0143652
687.512	0.0144489
687.590	0.0143697
687.668	0.0144376
687.746	0.0143147
687.825	0.0145083
687.903	0.0145924
687.981	0.0144340
688.059	0.0145432
688.137	0.0146743
688.215	0.0145795
688.293	0.0146298
688.371	0.0146369
688.450	0.0146349
688.528	0.0147052
688.606	0.0145474
688.684	0.0144688
688.762	0.0146146
688.840	0.0144467
688.918	0.0143297
688.996	0.0144925
689.075	0.0144444
689.153	0.0145217
689.231	0.0142819
689.309	0.0143711
689.387	0.0142439
689.465	0.0143231
689.543	0.0142774
689.621	0.0143633
689.700	0.0143906
689.778	0.0142902
689.856	0.0144724
689.934	0.0144482
690.012	0.0144993
690.090	0.0144725
690.168	0.0145898
690.246	0.0146818
690.325	0.0146970
690.403	0.0144873
690.481	0.0145096
690.559	0.0145320
690.637	0.0145568
690.715	0.0146113
690.793	0.0145213
690.871	0.0145084
690.950	0.0145670
691.028	0.0144949
691.106	0.0143806
691.184	0.0144163
691.262	0.0144028
691.340	0.0143314
691.418	0.0143105
691.496	0.0145144
691.575	0.0142905
691.653	0.0143501
691.731	0.0143195
691.809	0.0143871
691.887	0.0143407
691.965	0.0143405
692.043	0.0145722
692.121	0.0144186
692.200	0.0144412
692.278	0.0144989
692.356	0.0143503
692.434	0.0145228
692.512	0.0144672
692.590	0.0145723
692.668	0.0145399
692.746	0.0144369
692.825	0.0145265
692.903	0.0144704
692.981	0.0144540
693.059	0.0145132
693.137	0.0143871
693.215	0.0143002
693.293	0.0144555
693.371	0.0145527
693.450	0.0143690
693.528	0.0143941
693.606	0.0143158
693.684	0.0143343
693.762	0.0144632
693.840	0.0144270
693.918	0.0145004
693.996	0.0144971
694.075	0.0143755
694.153	0.0144391
694.231	0.0144489
694.309	0.0145651
694.387	0.0145573
694.465	0.0144277
694.543	0.0143507
694.621	0.0145587
694.700	0.0145657
694.778	0.0145759
694.856	0.0144470
694.934	0.0144676
695.012	0.0144556
695.090	0.0144324
695.168	0.0143452
695.246	0.0144633
695.325	0.0144947
695.403	0.0143669
695.481	0.0144804
695.559	0.0143045
695.637	0.0144757
695.715	0.0144460
695.793	0.0144897
695.871	0.0144365
695.950	0.0143284
696.028	0.0144755
696.106	0.0143539
696.184	0.0144439
696.262	0.0143526
696.340	0.0143246
696.418	0.0144563
696.496	0.0145132
696.575	0.0145776
696.653	0.0145500
696.731	0.0145010
696.809	0.0145657
696.887	0.0146241
696.965	0.0147235
697.043	0.0145602
697.121	0.0144920
697.200	0.0144913
697.278	0.0144374
697.356	0.0144250
697.434	0.0143684
697.512	0.0145245
697.590	0.0145607
697.668	0.0146058
697.746	0.0146247
697.825	0.0147041
697.903	0.0147789
697.981	0.0146355
698.059	0.0143668
698.137	0.0142368
698.215	0.0142262
698.293	0.0140358
698.371	0.0140100
698.450	0.0139871
698.528	0.0142096
698.606	0.0142235
698.684	0.0144249
698.762	0.0147063
698.840	0.0146844
698.918	0.0146168
698.996	0.0146159
699.075	0.0146397
699.153	0.0144865
699.231	0.0144023
699.309	0.0143649
699.387	0.0143512
699.465	0.0143808
699.543	0.0144921
699.621	0.0143587
699.700	0.0144728
699.778	0.0144605
699.856	0.0144582
699.934	0.0144834
700.012	0.0143953
700.090	0.0144655
700.168	0.0144971
700.246	0.0145340
700.325	0.0144688
700.403	0.0145415
700.481	0.0145846
700.559	0.0145065
700.637	0.0144815
700.715	0.0146039
700.793	0.0145899
700.871	0.0146050
700.950	0.0145190
701.028	0.0143600
701.106	0.0142696
701.184	0.0143620
701.262	0.0144095
701.340	0.0140753
701.418	0.0140281
701.496	0.0141814
701.575	0.0143568
701.653	0.0143033
701.731	0.0144710
701.809	0.0145792
701.887	0.0147975
701.965	0.0148956
702.043	0.0148260
702.121	0.0150828
702.200	0.0150389
702.278	0.0146105
702.356	0.0145514
702.434	0.0143599
702.512	0.0142100
702.590	0.0141828
702.668	0.0140327
702.746	0.0139452
702.825	0.0139189
702.903	0.0140895
702.981	0.0143292
703.059	0.0143229
703.137	0.0144790
703.215	0.0147803
703.293	0.0149108
703.371	0.0148932
703.450	0.0150368
703.528	0.0149081
703.606	0.0148108
703.684	0.0146551
703.762	0.0146120
703.840	0.0143011
703.918	0.0141174
703.996	0.0141570
704.075	0.0140727
704.153	0.0138302
704.231	0.0140737
704.309	0.0140921
704.387	0.0142226
704.465	0.0144791
704.543	0.0145898
704.621	0.0146836
704.700	0.0148283
704.778	0.0148549
704.856	0.0149422
704.934	0.0149261
705.012	0.0149284
705.090	0.0147340
705.168	0.0147113
705.246	0.0145387
705.325	0.0144512
705.403	0.0142359
705.481	0.0142152
705.559	0.0140472
705.637	0.0139580
705.715	0.0137614
705.793	0.0137774
705.871	0.0137957
705.950	0.0138851
706.028	0.0140910
706.106	0.0141370
706.184	0.0145395
706.262	0.0148077
706.340	0.0151278
706.418	0.0153082
706.496	0.0152279
706.575	0.0151089
706.653	0.0149460
706.731	0.0145554
706.809	0.0141769
706.887	0.0140439
706.965	0.0136044
707.043	0.0134754
707.121	0.0132523
707.200	0.0132888
707.278	0.0134467
707.356	0.0135793
707.434	0.0138837
707.512	0.0142260
707.590	0.0147004
707.668	0.0149471
707.746	0.0153545
707.825	0.0154501
707.903	0.0155634
707.981	0.0155637
708.059	0.0155968
708.137	0.0153620
708.215	0.0151723
708.293	0.0150349
708.371	0.0146818
708.450	0.0144317
708.528	0.0141611
708.606	0.0138663
708.684	0.0138445
708.762	0.0138988
708.840	0.0137289
708.918	0.0139275
708.996	0.0138745
709.075	0.0141470
709.153	0.0143970
709.231	0.0144601
709.309	0.0146472
709.387	0.0148692
709.465	0.0148711
709.543	0.0148538
709.621	0.0148411
709.700	0.0148174
709.778	0.0146522
709.856	0.0143139
709.934	0.0141914
710.012	0.0139611
710.090	0.0139285
710.168	0.0136316
710.246	0.0136783
710.325	0.0137008
710.403	0.0138749
710.481	0.0138980
710.559	0.0140127
710.637	0.0142619
710.715	0.0144515
710.793	0.0148711
710.871	0.0149123
710.950	0.0149480
711.028	0.0150961
711.106	0.0150083
711.184	0.0149357
711.262	0.0149706
711.340	0.0147066
711.418	0.0146315
711.496	0.0147799
711.575	0.0144296
711.653	0.0143756
711.731	0.0145107
711.809	0.0144377
711.887	0.0145467
711.965	0.0145475
712.043	0.0145122
712.121	0.0146944
712.200	0.0147080
712.278	0.0146966
712.356	0.0147167
712.434	0.0146626
712.512	0.0146848
712.590	0.0144843
712.668	0.0145303
712.746	0.0144689
712.825	0.0143842
712.903	0.0143565
712.981	0.0142061
713.059	0.0140680
713.137	0.0139300
713.215	0.0137647
713.293	0.0137681
713.371	0.0136888
713.450	0.0136675
713.528	0.0139169
713.606	0.0138089
713.684	0.0139249
713.762	0.0140495
713.840	0.0141008
713.918	0.0142432
713.996	0.0141942
714.075	0.0142649
714.153	0.0145330
714.231	0.0146399
714.309	0.0149570
714.387	0.0152129
714.465	0.0152554
714.543	0.0154175
714.621	0.0154705
714.700	0.0154300
714.778	0.0152435
714.856	0.0152799
714.934	0.0151759
715.012	0.0150147
715.090	0.0146423
715.168	0.0146719
715.246	0.0143889
715.325	0.0141983
715.403	0.0141853
715.481	0.0139983
715.559	0.0139622
715.637	0.0140591
715.715	0.0141351
715.793	0.0140574
715.871	0.0141979
715.950	0.0142446
716.028	0.0145650
716.106	0.0147041
716.184	0.0148506
716.262	0.0148637
716.340	0.0149173
716.418	0.0147988
716.496	0.0148282
716.575	0.0146015
716.653	0.0145114
716.731	0.0142728
716.809	0.0141557
716.887	0.0140687
716.965	0.0139576
717.043	0.0139719
717.121	0.0140759
717.200	0.0139400
717.278	0.0140224
717.356	0.0141022
717.434	0.0141720
717.512	0.0143967
717.590	0.0143125
717.668	0.0142567
717.746	0.0143510
717.825	0.0143864
717.903	0.0145572
717.981	0.0145973
718.059	0.0145469
718.137	0.0146877
718.215	0.0148972
718.293	0.0149208
718.371	0.0150494
718.450	0.0150477
718.528	0.0149377
718.606	0.0151400
718.684	0.0149823
718.762	0.0150402
718.840	0.0148714
718.918	0.0147855
718.996	0.0147671
719.075	0.0144986
719.153	0.0143052
719.231	0.0143430
719.309	0.0143578
719.387	0.0143852
719.465	0.0143464
719.543	0.0143107
719.621	0.0143359
719.700	0.0144336
719.778	0.0145109
719.856	0.0145169
719.934	0.0144979
720.012	0.0143552
720.090	0.0143267
720.168	0.0142921
720.246	0.0141669
720.325	0.0143464
720.403	0.0142680
720.481	0.0141513
720.559	0.0141862
720.637	0.0141906
720.715	0.0141913
720.793	0.0141862
720.871	0.0140043
720.950	0.0140855
721.028	0.0141262
721.106	0.0142782
721.184	0.0142537
721.262	0.0142361
721.340	0.0144518
721.418	0.0144751
721.496	0.0144862
721.575	0.0146801
721.653	0.0146341
721.731	0.0145682
721.809	0.0147247
721.887	0.0147080
721.965	0.0149787
722.043	0.0148936
722.121	0.0149677
722.200	0.0150696
722.278	0.0150725
722.356	0.0150516
722.434	0.0152126
722.512	0.0150226
722.590	0.0149068
722.668	0.0147860
722.746	0.0146309
722.825	0.0144636
722.903	0.0144612
722.981	0.0142438
723.059	0.0142461
723.137	0.0140352
723.215	0.0140984
723.293	0.0140802
723.371	0.0140227
723.450	0.0140713
723.528	0.0140713
723.606	0.0141238
723.684	0.0141277
723.762	0.0141280
723.840	0.0143493
723.918	0.0144173
723.996	0.0143190
724.075	0.0145442
724.153	0.0145407
724.231	0.0144286
724.309	0.0142163
724.387	0.0143011
724.465	0.0142717
724.543	0.0144418
724.621	0.0142913
724.700	0.0144394
724.778	0.0144382
724.856	0.0143463
724.934	0.0144070
725.012	0.0145615
725.090	0.0144341
725.168	0.0144544
725.246	0.0145967
725.325	0.0144255
725.403	0.0144894
725.481	0.0145303
725.559	0.0144926
725.637	0.0144111
725.715	0.0144539
725.793	0.0145818
725.871	0.0144736
725.950	0.0143748
726.028	0.0143200
726.106	0.0144305
726.184	0.0146782
726.262	0.0143999
726.340	0.0146302
726.418	0.0146449
726.496	0.0144756
726.575	0.0146941
726.653	0.0148252
726.731	0.0147656
726.809	0.0146678
726.887	0.0147612
726.965	0.0147274
727.043	0.0145524
727.121	0.0143097
727.200	0.0143462
727.278	0.0143613
727.356	0.0142039
727.434	0.0141795
727.512	0.0141690
727.590	0.0142194
727.668	0.0141521
727.746	0.0141744
727.825	0.0140809
727.903	0.0141032
727.981	0.0141542
728.059	0.0141518
728.137	0.0143378
728.215	0.0144389
728.293	0.0144651
728.371	0.0144870
728.450	0.0146361
728.528	0.0146407
728.606	0.0147075
728.684	0.0147880
728.762	0.0147455
728.840	0.0147205
728.918	0.0145571
728.996	0.0145524
729.075	0.0146552
729.153	0.0146380
729.231	0.0144546
729.309	0.0144460
729.387	0.0146731
729.465	0.0145457
729.543	0.0146292
729.621	0.0145152
729.700	0.0146513
729.778	0.0145502
729.856	0.0144101
729.934	0.0141750
730.012	0.0142036
730.090	0.0143237
730.168	0.0141237
730.246	0.0139865
730.325	0.0138827
730.403	0.0141189
730.481	0.0140621
730.559	0.0140392
730.637	0.0141495
730.715	0.0142851
730.793	0.0143922
730.871	0.0146075
730.950	0.0146825
731.028	0.0146967
731.106	0.0146948
731.184	0.0147552
731.262	0.0146593
731.340	0.0146969
731.418	0.0145979
731.496	0.0145940
731.575	0.0145625
731.653	0.0144347
731.731	0.0143797
731.809	0.0144171
731.887	0.0144477
731.965	0.0144702
732.043	0.0144379
732.121	0.0144741
732.200	0.0146069
732.278	0.0145737
732.356	0.0146561
732.434	0.0145888
732.512	0.0146438
732.590	0.0147359
732.668	0.0148009
732.746	0.0146761
732.825	0.0144910
732.903	0.0143456
732.981	0.0143995
733.059	0.0144423
733.137	0.0142877
733.215	0.0142730
733.293	0.0143097
733.371	0.0143080
733.450	0.0142850
733.528	0.0143235
733.606	0.0143044
733.684	0.0143492
733.762	0.0143320
733.840	0.0143331
733.918	0.0143985
733.996	0.0142863
734.075	0.0143801
734.153	0.0142722
734.231	0.0143157
734.309	0.0143465
734.387	0.0142308
734.465	0.0142758
734.543	0.0142879
734.621	0.0142668
734.700	0.0143244
734.778	0.0143488
734.856	0.0143320
734.934	0.0144067
735.012	0.0143824
735.090	0.0145223
735.168	0.0147004
735.246	0.0147216
735.325	0.0146101
735.403	0.0147747
735.481	0.0147389
735.559	0.0148820
735.637	0.0147928
735.715	0.0147900
735.793	0.0147714
735.871	0.0147395
735.950	0.0147368
736.028	0.0146357
736.106	0.0144936
736.184	0.0146314
736.262	0.0145948
736.340	0.0145831
736.418	0.0145048
736.496	0.0144358
736.575	0.0144288
736.653	0.0143771
736.731	0.0142920
736.809	0.0144603
736.887	0.0144038
736.965	0.0144707
737.043	0.0142998
737.121	0.0143176
737.200	0.0144534
737.278	0.0144263
737.356	0.0143618
737.434	0.0143629
737.512	0.0142889
737.590	0.0142438
737.668	0.0141958
737.746	0.0141512
737.825	0.0140128
737.903	0.0140559
737.981	0.0139640
738.059	0.0140348
738.137	0.0141185
738.215	0.0143133
738.293	0.0143350
738.371	0.0144380
738.450	0.0142731
738.528	0.0145387
738.606	0.0147454
738.684	0.0147981
738.762	0.0148397
738.840	0.0149348
738.918	0.0151699
738.996	0.0149477
739.075	0.0150856
739.153	0.0150274
739.231	0.0149342
739.309	0.0150120
739.387	0.0148663
739.465	0.0147871
739.543	0.0148792
739.621	0.0145947
739.700	0.0145419
739.778	0.0145014
739.856	0.0143864
739.934	0.0145165
740.012	0.0144042
740.090	0.0144681
740.168	0.0144887
740.246	0.0144530
740.325	0.0146526
740.403	0.0147613
740.481	0.0147149
740.559	0.0145759
740.637	0.0145934
740.715	0.0144839
740.793	0.0143639
740.871	0.0143908
740.950	0.0144454
741.028	0.0143450
741.106	0.0142617
741.184	0.0142117
741.262	0.0142068
741.340	0.0141857
741.418	0.0141550
741.496	0.0142828
741.575	0.0140574
741.653	0.0141064
741.731	0.0142366
741.809	0.0143481
741.887	0.0142772
741.965	0.0141840
742.043	0.0142506
742.121	0.0143311
742.200	0.0143374
742.278	0.0142336
742.356	0.0142607
742.434	0.0142643
742.512	0.0145248
742.590	0.0144949
742.668	0.0143831
742.746	0.0145050
742.825	0.0146304
742.903	0.0146439
742.981	0.0147435
743.059	0.0149004
743.137	0.0148643
743.215	0.0149001
743.293	0.0148991
743.371	0.0148794
743.450	0.0147883
743.528	0.0148394
743.606	0.0146345
743.684	0.0145969
743.762	0.0145698
743.840	0.0144189
743.918	0.0143663
743.996	0.0143806
744.075	0.0142885
744.153	0.0142571
744.231	0.0142408
744.309	0.0142298
744.387	0.0142829
744.465	0.0143748
744.543	0.0143795
744.621	0.0144589
744.700	0.0144373
744.778	0.0145148
744.856	0.0144091
744.934	0.0144615
745.012	0.0143640
745.090	0.0144217
745.168	0.0144213
745.246	0.0143988
745.325	0.0143867
745.403	0.0141924
745.481	0.0141855
745.559	0.0142265
745.637	0.0142666
745.715	0.0142782
745.793	0.0143067
745.871	0.0143776
745.950	0.0142851
746.028	0.0144403
746.106	0.0143313
746.184	0.0144266
746.262	0.0145020
746.340	0.0146407
746.418	0.0145393
746.496	0.0145526
746.575	0.0148217
746.653	0.0146307
746.731	0.0146076
746.809	0.0147398
746.887	0.0145878
746.965	0.0144215
747.043	0.0144147
747.121	0.0145594
747.200	0.0145958
747.278	0.0143291
747.356	0.0142831
747.434	0.0143008
747.512	0.0144342
747.590	0.0143832
747.668	0.0142394
747.746	0.0143812
747.825	0.0143399
747.903	0.0144121
747.981	0.0143379
748.059	0.0143707
748.137	0.0143316
748.215	0.0142622
748.293	0.0142122
748.371	0.0142453
748.450	0.0143270
748.528	0.0144547
748.606	0.0144211
748.684	0.0143408
748.762	0.0143211
748.840	0.0144650
748.918	0.0144045
748.996	0.0144563
749.075	0.0144103
749.153	0.0144701
749.231	0.0144678
749.309	0.0144374
749.387	0.0145572
749.465	0.0146142
749.543	0.0146167
749.621	0.0144200
749.700	0.0144700
749.778	0.0145447
749.856	0.0144360
749.934	0.0142447
750.012	0.0144724
750.090	0.0143757
750.168	0.0143597
750.246	0.0143620
750.325	0.0142381
750.403	0.0143228
750.481	0.0142647
750.559	0.0143721
750.637	0.0144773
750.715	0.0142132
750.793	0.0144405
750.871	0.0144692
750.950	0.0144702
751.028	0.0144941
751.106	0.0145249
751.184	0.0146159
751.262	0.0145890
751.340	0.0145646
751.418	0.0145920
751.496	0.0144199
751.575	0.0144039
751.653	0.0143903
751.731	0.0143188
751.809	0.0142943
751.887	0.0143179
751.965	0.0144038
752.043	0.0142844
752.121	0.0142530
752.200	0.0143115
752.278	0.0143025
752.356	0.0143644
752.434	0.0143781
752.512	0.0144125
752.590	0.0145634
752.668	0.0144346
752.746	0.0146307
752.825	0.0145912
752.903	0.0146706
752.981	0.0146058
753.059	0.0145058
753.137	0.0146264
753.215	0.0146513
753.293	0.0145531
753.371	0.0145667
753.450	0.0147349
753.528	0.0145609
753.606	0.0144183
753.684	0.0147105
753.762	0.0145998
753.840	0.0145499
753.918	0.0145924
753.996	0.0145571
754.075	0.0145022
754.153	0.0144710
754.231	0.0143524
754.309	0.0144489
754.387	0.0145688
754.465	0.0143922
754.543	0.0144299
754.621	0.0143191
754.700	0.0143438
754.778	0.0144196
754.856	0.0143322
754.934	0.0143865
755.012	0.0144079
755.090	0.0143486
755.168	0.0144450
755.246	0.0144410
755.325	0.0144586
755.403	0.0145991
755.481	0.0144230
755.559	0.0145316
755.637	0.0145194
755.715	0.0144791
755.793	0.0144450
755.871	0.0143996
755.950	0.0143217
756.028	0.0143111
756.106	0.0143610
756.184	0.0144546
756.262	0.0144482
756.340	0.0145232
756.418	0.0145207
756.496	0.0144499
756.575	0.0145620
756.653	0.0146164
756.731	0.0144638
756.809	0.0145854
756.887	0.0146513
756.965	0.0146767
757.043	0.0146766
757.121	0.0147212
757.200	0.0146807
757.278	0.0146638
757.356	0.0147009
757.434	0.0145699
757.512	0.0146119
757.590	0.0147332
757.668	0.0145329
757.746	0.0145030
757.825	0.0145181
757.903	0.0144520
757.981	0.0144849
758.059	0.0145116
758.137	0.0146038
758.215	0.0144444
758.293	0.0144703
758.371	0.0143100
758.450	0.0142568
758.528	0.0143936
758.606	0.0144157
758.684	0.0144486
758.762	0.0144098
758.840	0.0143912
758.918	0.0144518
758.996	0.0144096
759.075	0.0144447
759.153	0.0145277
759.231	0.0144563
759.309	0.0144584
759.387	0.0143782
759.465	0.0144394
759.543	0.0142892
759.621	0.0144681
759.700	0.0144383
759.778	0.0143758
759.856	0.0145264
759.934	0.0143359
760.012	0.0143544
760.090	0.0145181
760.168	0.0143449
760.246	0.0144680
760.325	0.0144986
760.403	0.0144383
760.481	0.0145435
760.559	0.0144954
760.637	0.0145719
760.715	0.0144568
760.793	0.0146015
760.871	0.0145644
760.950	0.0144775
761.028	0.0146114
761.106	0.0145484
761.184	0.0142796
761.262	0.0143510
761.340	0.0145431
761.418	0.0145330
761.496	0.0144038
761.575	0.0144065
761.653	0.0143465
761.731	0.0143731
761.809	0.0144749
761.887	0.0142978
761.965	0.0144243
762.043	0.0144155
762.121	0.0145235
762.200	0.0145061
762.278	0.0143419
762.356	0.0143443
762.434	0.0142172
762.512	0.0144334
762.590	0.0143285
762.668	0.0143595
762.746	0.0142700
762.825	0.0141950
762.903	0.0142770
762.981	0.0143355
763.059	0.0143324
763.137	0.0143536
763.215	0.0143678
763.293	0.0145872
763.371	0.0144411
763.450	0.0143905
763.528	0.0144479
763.606	0.0144455
763.684	0.0144185
763.762	0.0144678
763.840	0.0143298
763.918	0.0143821
763.996	0.0143966
764.075	0.0145790
764.153	0.0146839
764.231	0.0145081
764.309	0.0143416
764.387	0.0145516
764.465	0.0145685
764.543	0.0145530
764.621	0.0146413
764.700	0.0146049
764.778	0.0143675
764.856	0.0143771
764.934	0.0145930
765.012	0.0145313
765.090	0.0144063
765.168	0.0143954
765.246	0.0144702
765.325	0.0142933
765.403	0.0143113
765.481	0.0143768
765.559	0.0143857
765.637	0.0144222
765.715	0.0143828
765.793	0.0143010
765.871	0.0143914
765.950	0.0144160
766.028	0.0142648
766.106	0.0143661
766.184	0.0141917
766.262	0.0144064
766.340	0.0144223
766.418	0.0143689
766.496	0.0144386
766.575	0.0143447
766.653	0.0143408
766.731	0.0142572
766.809	0.0143495
766.887	0.0145119
766.965	0.0144805
767.043	0.0144083
767.121	0.0145847
767.200	0.0142780
767.278	0.0144440
767.356	0.0146022
767.434	0.0145118
767.512	0.0143837
767.590	0.0146365
767.668	0.0146964
767.746	0.0144810
767.825	0.0145499
767.903	0.0144328
767.981	0.0145367
768.059	0.0142982
768.137	0.0143741
768.215	0.0145576
768.293	0.0144563
768.371	0.0143669
768.450	0.0144065
768.528	0.0144797
768.606	0.0144003
768.684	0.0144678
768.762	0.0144482
768.840	0.0144263
768.918	0.0143256
768.996	0.0145024
769.075	0.0144695
769.153	0.0144764
769.231	0.0145924
769.309	0.0143647
769.387	0.0144075
769.465	0.0145626
769.543	0.0143922
769.621	0.0143739
769.700	0.0143576
769.778	0.0143267
769.856	0.0144986
769.934	0.0144463
770.012	0.0143111
770.090	0.0143874
770.168	0.0142724
770.246	0.0143306
770.325	0.0142809
770.403	0.0143132
770.481	0.0144078
770.559	0.0143284
770.637	0.0144610
770.715	0.0144521
770.793	0.0144490
770.871	0.0145647
770.950	0.0145210
771.028	0.0143642
771.106	0.0143684
771.184	0.0145070
771.262	0.0144713
771.340	0.0146266
771.418	0.0145163
771.496	0.0144811
771.575	0.0143670
771.653	0.0144295
771.731	0.0145218
771.809	0.0145393
771.887	0.0144889
771.965	0.0144168
772.043	0.0144666
772.121	0.0144381
772.200	0.0144561
772.278	0.0144898
772.356	0.0144347
772.434	0.0144392
772.512	0.0144184
772.590	0.0144506
772.668	0.0143752
772.746	0.0144193
772.825	0.0145419
772.903	0.0145392
772.981	0.0145319
773.059	0.0145692
773.137	0.0144635
773.215	0.0144631
773.293	0.0144154
773.371	0.0143908
773.450	0.0144261
773.528	0.0144999
773.606	0.0144231
773.684	0.0142873
773.762	0.0142949
773.840	0.0143567
773.918	0.0144267
773.996	0.0144382
774.075	0.0144540
774.153	0.0143138
774.231	0.0144534
774.309	0.0144172
774.387	0.0144725
774.465	0.0144952
774.543	0.0145313
774.621	0.0145317
774.700	0.0146390
774.778	0.0146716
774.856	0.0146853
774.934	0.0144943
775.012	0.0145719
775.090	0.0146048
775.168	0.0145352
775.246	0.0145627
775.325	0.0145824
775.403	0.0145914
775.481	0.0145554
775.559	0.0145018
775.637	0.0144045
775.715	0.0144382
775.793	0.0145299
775.871	0.0144620
775.950	0.0144562
776.028	0.0144927
776.106	0.0144987
776.184	0.0145119
776.262	0.0145437
776.340	0.0144682
776.418	0.0145473
776.496	0.0144334
776.575	0.0144189
776.653	0.0144169
776.731	0.0144665
776.809	0.0144601
776.887	0.0144061
776.965	0.0144981
777.043	0.0143053
777.121	0.0144416
777.200	0.0144333
777.278	0.0143819
777.356	0.0144022
777.434	0.0143509
777.512	0.0144664
777.590	0.0145547
777.668	0.0143870
777.746	0.0143616
777.825	0.0143000
777.903	0.0143931
777.981	0.0144314
778.059	0.0145621
778.137	0.0146158
778.215	0.0145034
778.293	0.0145251
778.371	0.0144417
778.450	0.0145044
778.528	0.0145908
778.606	0.0144878
778.684	0.0144885
778.762	0.0145195
778.840	0.0146297
778.918	0.0146028
778.996	0.0145669
779.075	0.0144074
779.153	0.0144656
779.231	0.0143741
779.309	0.0145570
779.387	0.0145759
779.465	0.0143231
779.543	0.0144881
779.621	0.0144320
779.700	0.0143865
779.778	0.0143282
779.856	0.0144958
779.934	0.0143185
780.012	0.0144599
780.090	0.0144936
780.168	0.0142909
780.246	0.0143349
780.325	0.0144681
780.403	0.0144585
780.481	0.0142899
780.559	0.0143721
780.637	0.0142554
780.715	0.0143332
780.793	0.0143221
780.871	0.0143931
780.950	0.0144147
781.028	0.0145103
781.106	0.0144522
781.184	0.0143323
781.262	0.0144968
781.340	0.0145165
781.418	0.0142281
781.496	0.0143629
781.575	0.0143172
781.653	0.0143719
781.731	0.0143858
781.809	0.0144741
781.887	0.0143742
781.965	0.0145737
782.043	0.0143712
782.121	0.0143739
782.200	0.0144923
782.278	0.0142989
782.356	0.0144405
782.434	0.0146165
782.512	0.0145348
782.590	0.0145129
782.668	0.0145681
782.746	0.0144828
782.825	0.0145456
782.903	0.0145786
782.981	0.0144976
783.059	0.0145592
783.137	0.0144435
783.215	0.0144600
783.293	0.0145642
783.371	0.0144304
783.450	0.0144771
783.528	0.0144534
783.606	0.0145116
783.684	0.0145598
783.762	0.0144264
783.840	0.0144471
783.918	0.0144296
783.996	0.0145576
784.075	0.0143757
784.153	0.0144548
784.231	0.0145413
784.309	0.0144815
784.387	0.0142817
784.465	0.0143771
784.543	0.0143154
784.621	0.0143083
784.700	0.0142892
784.778	0.0142849
784.856	0.0143449
784.934	0.0144003
785.012	0.0143031
785.090	0.0143649
785.168	0.0142837
785.246	0.0142159
785.325	0.0142505
785.403	0.0143090
785.481	0.0143339
785.559	0.0143493
785.637	0.0142757
785.715	0.0142002
785.793	0.0144392
785.871	0.0142857
785.950	0.0142276
786.028	0.0142548
786.106	0.0143265
786.184	0.0143909
786.262	0.0144373
786.340	0.0144017
786.418	0.0145016
786.496	0.0144893
786.575	0.0144086
786.653	0.0143950
786.731	0.0144634
786.809	0.0144746
786.887	0.0144318
786.965	0.0144815
787.043	0.0145625
787.121	0.0146101
787.200	0.0145545
787.278	0.0144788
787.356	0.0146253
787.434	0.0146201
787.512	0.0144024
787.590	0.0144919
787.668	0.0146019
787.746	0.0144736
787.825	0.0146033
787.903	0.0143891
787.981	0.0144423
788.059	0.0144312
788.137	0.0143117
788.215	0.0143997
788.293	0.0143890
788.371	0.0144464
788.450	0.0143988
788.528	0.0144407
788.606	0.0142492
788.684	0.0142982
788.762	0.0143375
788.840	0.0143411
788.918	0.0144878
788.996	0.0144018
789.075	0.0144346
789.153	0.0143414
789.231	0.0142828
789.309	0.0144345
789.387	0.0144636
789.465	0.0144615
789.543	0.0145709
789.621	0.0145013
789.700	0.0144276
789.778	0.0145139
789.856	0.0145715
789.934	0.0143327
790.012	0.0143872
790.090	0.0143692
790.168	0.0145364
790.246	0.0144821
790.325	0.0143203
790.403	0.0143768
790.481	0.0145518
790.559	0.0143974
790.637	0.0143939
790.715	0.0144634
790.793	0.0145876
790.871	0.0144970
790.950	0.0145776
791.028	0.0145286
791.106	0.0145614
791.184	0.0145222
791.262	0.0145960
791.340	0.0145172
791.418	0.0145001
791.496	0.0146060
791.575	0.0144593
791.653	0.0143904
791.731	0.0145557
791.809	0.0144197
791.887	0.0144510
791.965	0.0144415
792.043	0.0144889
792.121	0.0143569
792.200	0.0144284
792.278	0.0144154
792.356	0.0144796
792.434	0.0144234
792.512	0.0144523
792.590	0.0144756
792.668	0.0144028
792.746	0.0145250
792.825	0.0143768
792.903	0.0144102
792.981	0.0143501
793.059	0.0144450
793.137	0.0143832
793.215	0.0143692
793.293	0.0145763
793.371	0.0145172
793.450	0.0144691
793.528	0.0143469
793.606	0.0143501
793.684	0.0143777
793.762	0.0144384
793.840	0.0144098
793.918	0.0144927
793.996	0.0145693
794.075	0.0143890
794.153	0.0143811
794.231	0.0142519
794.309	0.0142920
794.387	0.0142918
794.465	0.0143565
794.543	0.0143910
794.621	0.0143683
794.700	0.0143843
794.778	0.0143779
794.856	0.0144524
794.934	0.0144554
795.012	0.0144153
795.090	0.0145689
795.168	0.0144523
795.246	0.0143830
795.325	0.0144593
795.403	0.0144601
795.481	0.0145503
795.559	0.0144667
795.637	0.0143394
795.715	0.0145450
795.793	0.0144198
795.871	0.0144462
795.950	0.0144931
796.028	0.0143342
796.106	0.0144067
796.184	0.0144981
796.262	0.0144779
796.340	0.0145940
796.418	0.0144999
796.496	0.0145509
796.575	0.0145679
796.653	0.0145360
796.731	0.0145866
796.809	0.0144348
796.887	0.0145247
796.965	0.0144502
797.043	0.0144675
797.121	0.0144794
797.200	0.0143593
797.278	0.0144537
797.356	0.0144027
797.434	0.0144303
797.512	0.0144321
797.590	0.0143814
797.668	0.0144811
797.746	0.0143919
797.825	0.0144250
797.903	0.0145443
797.981	0.0143901
798.059	0.0144210
798.137	0.0143362
798.215	0.0142955
798.293	0.0145393
798.371	0.0143227
798.450	0.0144488
798.528	0.0144695
798.606	0.0144281
798.684	0.0145663
798.762	0.0144772
798.840	0.0143740
798.918	0.0144725
798.996	0.0145327
799.075	0.0145020
799.153	0.0145737
799.231	0.0145707
799.309	0.0145306
799.387	0.0143844
799.465	0.0145379
799.543	0.0145460
799.621	0.0144713
799.700	0.0144134
799.778	0.0144279
799.856	0.0144770
799.934	0.0145181
800.012	0.0143311
800.090	0.0144791
800.168	0.0144604
800.246	0.0143808
800.325	0.0142880
800.403	0.0144357
800.481	0.0143009
800.559	0.0143945
800.637	0.0143642
800.715	0.0145610
800.793	0.0144922
800.871	0.0143466
800.950	0.0144054
801.028	0.0145509
801.106	0.0144791
801.184	0.0143668
801.262	0.0144202
801.340	0.0143762
801.418	0.0144698
801.496	0.0144402
801.575	0.0143965
801.653	0.0143830
801.731	0.0145551
801.809	0.0144402
801.887	0.0144302
801.965	0.0145354
802.043	0.0144297
802.121	0.0144448
802.200	0.0143987
802.278	0.0142985
802.356	0.0144653
802.434	0.0144212
802.512	0.0144251
802.590	0.0145451
802.668	0.0143713
802.746	0.0143941
802.825	0.0144066
802.903	0.0143079
802.981	0.0144530
803.059	0.0145000
803.137	0.0143989
803.215	0.0144263
803.293	0.0143674
803.371	0.0145121
803.450	0.0144187
803.528	0.0144859
803.606	0.0144062
803.684	0.0143501
803.762	0.0144175
803.840	0.0143793
803.918	0.0143884
803.996	0.0144182
804.075	0.0144654
804.153	0.0143987
804.231	0.0143681
804.309	0.0144546
804.387	0.0144701
804.465	0.0144403
804.543	0.0143266
804.621	0.0143503
804.700	0.0144486
804.778	0.0144515
804.856	0.0142937
804.934	0.0144337
805.012	0.0145522
805.090	0.0145480
805.168	0.0144748
805.246	0.0143427
805.325	0.0144418
805.403	0.0144136
805.481	0.0144432
805.559	0.0143717
805.637	0.0143683
805.715	0.0143110
805.793	0.0143791
805.871	0.0142866
805.950	0.0143154
806.028	0.0144596
806.106	0.0144262
806.184	0.0143193
806.262	0.0144315
806.340	0.0143153
806.418	0.0144999
806.496	0.0144670
806.575	0.0143354
806.653	0.0144103
806.731	0.0144299
806.809	0.0145196
806.887	0.0143486
806.965	0.0145508
807.043	0.0145726
807.121	0.0144299
807.200	0.0145237
807.278	0.0144516
807.356	0.0144497
807.434	0.0144218
807.512	0.0144645
807.590	0.0144649
807.668	0.0145615
807.746	0.0144612
807.825	0.0144278
807.903	0.0144224
807.981	0.0145074
808.059	0.0145541
808.137	0.0144681
808.215	0.0143892
808.293	0.0143491
808.371	0.0144058
808.450	0.0144597
808.528	0.0142722
808.606	0.0143423
808.684	0.0143697
808.762	0.0143275
808.840	0.0143121
808.918	0.0144121
808.996	0.0143127
809.075	0.0144318
809.153	0.0143977
809.231	0.0142632
809.309	0.0143615
809.387	0.0143633
809.465	0.0143013
809.543	0.0143655
809.621	0.0143063
809.700	0.0143014
809.778	0.0144547
809.856	0.0143929
809.934	0.0142958
810.012	0.0143898
810.090	0.0144454
810.168	0.0144693
810.246	0.0143713
810.325	0.0145635
810.403	0.0143737
810.481	0.0143599
810.559	0.0145237
810.637	0.0144872
810.715	0.0145287
810.793	0.0145115
810.871	0.0145619
810.950	0.0146335
811.028	0.0146298
811.106	0.0146166
811.184	0.0145197
811.262	0.0144868
811.340	0.0145354
811.418	0.0146123
811.496	0.0145493
811.575	0.0144680
811.653	0.0146743
811.731	0.0144884
811.809	0.0144375
811.887	0.0145081
811.965	0.0144151
812.043	0.0144567
812.121	0.0145327
812.200	0.0143427
812.278	0.0143732
812.356	0.0144118
812.434	0.0145122
812.512	0.0143493
812.590	0.0143818
812.668	0.0143011
812.746	0.0144491
812.825	0.0144247
812.903	0.0143346
812.981	0.0143503
813.059	0.0144498
813.137	0.0143752
813.215	0.0143560
813.293	0.0142731
813.371	0.0144620
813.450	0.0143110
813.528	0.0143961
813.606	0.0145441
813.684	0.0143959
813.762	0.0143430
813.840	0.0143062
813.918	0.0144202
813.996	0.0144255
814.075	0.0144340
814.153	0.0145238
814.231	0.0145177
814.309	0.0144405
814.387	0.0144630
814.465	0.0145329
814.543	0.0144955
814.621	0.0144884
814.700	0.0145919
814.778	0.0143714
814.856	0.0144450
814.934	0.0145734
815.012	0.0145113
815.090	0.0144640
815.168	0.0144508
815.246	0.0143974
815.325	0.0144787
815.403	0.0143270
815.481	0.0146027
815.559	0.0145024
815.637	0.0144318
815.715	0.0143709
815.793	0.0144151
815.871	0.0143877
815.950	0.0143335
816.028	0.0143691
816.106	0.0142297
816.184	0.0143045
816.262	0.0143006
816.340	0.0143371
816.418	0.0143384
816.496	0.0143781
816.575	0.0144133
816.653	0.0144381
816.731	0.0143366
816.809	0.0143218
816.887	0.0144188
816.965	0.0144225
817.043	0.0145113
817.121	0.0145692
817.200	0.0144415
817.278	0.0143078
817.356	0.0145975
817.434	0.0146375
817.512	0.0144078
817.590	0.0144370
817.668	0.0145747
817.746	0.0144775
817.825	0.0144782
817.903	0.0145087
817.981	0.0145337
818.059	0.0143852
818.137	0.0145090
818.215	0.0145536
818.293	0.0146085
818.371	0.0144752
818.450	0.0144013
818.528	0.0143126
818.606	0.0144036
818.684	0.0144177
818.762	0.0144240
818.840	0.0144804
818.918	0.0145212
818.996	0.0145077
819.075	0.0144107
819.153	0.0144955
819.231	0.0143916
819.309	0.0144769
819.387	0.0144969
819.465	0.0145214
819.543	0.0144933
819.621	0.0145832
819.700	0.0144857
819.778	0.0144215
819.856	0.0145249
819.934	0.0144405
820.012	0.0144785
820.090	0.0144031
820.168	0.0144672
820.246	0.0144607
820.325	0.0144394
820.403	0.0145516
820.481	0.0145152
820.559	0.0144825
820.637	0.0144519
820.715	0.0143983
820.793	0.0143822
820.871	0.0142583
820.950	0.0143430
821.028	0.0143284
821.106	0.0144617
821.184	0.0144790
821.262	0.0144565
821.340	0.0145348
821.418	0.0145201
821.496	0.0144728
821.575	0.0144868
821.653	0.0143960
821.731	0.0143655
821.809	0.0144077
821.887	0.0144721
821.965	0.0144452
822.043	0.0143260
822.121	0.0144874
822.200	0.0144761
822.278	0.0144527
822.356	0.0145083
822.434	0.0144887
822.512	0.0143796
822.590	0.0144884
822.668	0.0145937
822.746	0.0144732
822.825	0.0144324
822.903	0.0144806
822.981	0.0144548
823.059	0.0143629
823.137	0.0144437
823.215	0.0144907
823.293	0.0144622
823.371	0.0144736
823.450	0.0143837
823.528	0.0144519
823.606	0.0145846
823.684	0.0143756
823.762	0.0144275
823.840	0.0144053
823.918	0.0144946
823.996	0.0143176
824.075	0.0143441
824.153	0.0144648
824.231	0.0144283
824.309	0.0144203
824.387	0.0143918
824.465	0.0143627
824.543	0.0145094
824.621	0.0144835
824.700	0.0144249
824.778	0.0144148
824.856	0.0142980
824.934	0.0143346
825.012	0.0144440
825.090	0.0144305
825.168	0.0143880
825.246	0.0143466
825.325	0.0143771
825.403	0.0143251
825.481	0.0143800
825.559	0.0144797
825.637	0.0143632
825.715	0.0144761
825.793	0.0143728
825.871	0.0144444
825.950	0.0145896
826.028	0.0144752
826.106	0.0144568
826.184	0.0144338
826.262	0.0142828
826.340	0.0143817
826.418	0.0144422
826.496	0.0144456
826.575	0.0143580
826.653	0.0143812
826.731	0.0144883
826.809	0.0143739
826.887	0.0143835
826.965	0.0146200
827.043	0.0144405
827.121	0.0144857
827.200	0.0143696
827.278	0.0144239
827.356	0.0145097
827.434	0.0144378
827.512	0.0144315
827.590	0.0144618
827.668	0.0144884
827.746	0.0145510
827.825	0.0144889
827.903	0.0145192
827.981	0.0144415
828.059	0.0144292
828.137	0.0144164
828.215	0.0144263
828.293	0.0145584
828.371	0.0143165
828.450	0.0145063
828.528	0.0144303
828.606	0.0143574
828.684	0.0142980
828.762	0.0143016
828.840	0.0143766
828.918	0.0144193
828.996	0.0144952
829.075	0.0144366
829.153	0.0143743
829.231	0.0143049
829.309	0.0142865
829.387	0.0143823
829.465	0.0146441
829.543	0.0145049
829.621	0.0142562
829.700	0.0143633
829.778	0.0142746
829.856	0.0143900
829.934	0.0143173
830.012	0.0143925
830.090	0.0144265
830.168	0.0145277
830.246	0.0144234
830.325	0.0143665
830.403	0.0144289
830.481	0.0144449
830.559	0.0144662
830.637	0.0143847
830.715	0.0143728
830.793	0.0143775
830.871	0.0143978
830.950	0.0144643
831.028	0.0143580
831.106	0.0144395
831.184	0.0144690
831.262	0.0143130
831.340	0.0144221
831.418	0.0145354
831.496	0.0143313
831.575	0.0144141
831.653	0.0145385
831.731	0.0145022
831.809	0.0144671
831.887	0.0144173
831.965	0.0143014
832.043	0.0144218
832.121	0.0145939
832.200	0.0145264
832.278	0.0143832
832.356	0.0145541
832.434	0.0145149
832.512	0.0142879
832.590	0.0145376
832.668	0.0144749
832.746	0.0143687
832.825	0.0144851
832.903	0.0145272
832.981	0.0143861
833.059	0.0143502
833.137	0.0144688
833.215	0.0144328
833.293	0.0145338
833.371	0.0145638
833.450	0.0145107
833.528	0.0145628
833.606	0.0145627
833.684	0.0144506
833.762	0.0145068
833.840	0.0145606
833.918	0.0144558
833.996	0.0144736
834.075	0.0144929
834.153	0.0144636
834.231	0.0144350
834.309	0.0143701
834.387	0.0144010
834.465	0.0144664
834.543	0.0143667
834.621	0.0142612
834.700	0.0143522
834.778	0.0144389
834.856	0.0144553
834.934	0.0143526
835.012	0.0144337
835.090	0.0145691
835.168	0.0145930
835.246	0.0145737
835.325	0.0145499
835.403	0.0145912
835.481	0.0145750
835.559	0.0145389
835.637	0.0145153
835.715	0.0144704
835.793	0.0145615
835.871	0.0144447
835.950	0.0145414
836.028	0.0145038
836.106	0.0145554
836.184	0.0143087
836.262	0.0143956
836.340	0.0143966
836.418	0.0144485
836.496	0.0143301
836.575	0.0143604
836.653	0.0143484
836.731	0.0144895
836.809	0.0144918
836.887	0.0143925
836.965	0.0144008
837.043	0.0144405
837.121	0.0145544
837.200	0.0144666
837.278	0.0145408
837.356	0.0145551
837.434	0.0144872
837.512	0.0145690
837.590	0.0144565
837.668	0.0144535
837.746	0.0144931
837.825	0.0146154
837.903	0.0144286
837.981	0.0145041
838.059	0.0144537
838.137	0.0145863
838.215	0.0144769
838.293	0.0144115
838.371	0.0143783
838.450	0.0145872
838.528	0.0143349
838.606	0.0144057
838.684	0.0144932
838.762	0.0143491
838.840	0.0144583
838.918	0.0145028
838.996	0.0144983
839.075	0.0144537
839.153	0.0145377
839.231	0.0145629
839.309	0.0143872
839.387	0.0144949
839.465	0.0145297
839.543	0.0143790
839.621	0.0144774
839.700	0.0144626
839.778	0.0145767
839.856	0.0144792
839.934	0.0145021
840.012	0.0143958
840.090	0.0143362
840.168	0.0142876
840.246	0.0144424
840.325	0.0143913
840.403	0.0144051
840.481	0.0143518
840.559	0.0143880
840.637	0.0144518
840.715	0.0144952
840.793	0.0143924
840.871	0.0144409
840.950	0.0144715
841.028	0.0144867
841.106	0.0145876
841.184	0.0144166
841.262	0.0146001
841.340	0.0144424
841.418	0.0145403
841.496	0.0147142
841.575	0.0146131
841.653	0.0145600
841.731	0.0146900
841.809	0.0144749
841.887	0.0145203
841.965	0.0145544
842.043	0.0143793
842.121	0.0144086
842.200	0.0143954
842.278	0.0144260
842.356	0.0143949
842.434	0.0144273
842.512	0.0143903
842.590	0.0143672
842.668	0.0143997
842.746	0.0144581
842.825	0.0144416
842.903	0.0144434
842.981	0.0143139
843.059	0.0143036
843.137	0.0143962
843.215	0.0143605
843.293	0.0143793
843.371	0.0145127
843.450	0.0143208
843.528	0.0143006
843.606	0.0144504
843.684	0.0144659
843.762	0.0142604
843.840	0.0143688
843.918	0.0143981
843.996	0.0144402
844.075	0.0144940
844.153	0.0144673
844.231	0.0144648
844.309	0.0143804
844.387	0.0145377
844.465	0.0144698
844.543	0.0144596
844.621	0.0146394
844.700	0.0144417
844.778	0.0144957
844.856	0.0144176
844.934	0.0143490
845.012	0.0144662
845.090	0.0144420
845.168	0.0143420
845.246	0.0143213
845.325	0.0144098
845.403	0.0145757
845.481	0.0143213
845.559	0.0145103
845.637	0.0145129
845.715	0.0144511
845.793	0.0145261
845.871	0.0143828
845.950	0.0142975
846.028	0.0144239
846.106	0.0143364
846.184	0.0144707
846.262	0.0144923
846.340	0.0144183
846.418	0.0145704
846.496	0.0143836
846.575	0.0144029
846.653	0.0145347
846.731	0.0143403
846.809	0.0144036
846.887	0.0144485
846.965	0.0144493
847.043	0.0145161
847.121	0.0144538
847.200	0.0146699
847.278	0.0146645
847.356	0.0143878
847.434	0.0143052
847.512	0.0143999
847.590	0.0144624
847.668	0.0143189
847.746	0.0144666
847.825	0.0145194
847.903	0.0145958
847.981	0.0143669
848.059	0.0143740
848.137	0.0145870
848.215	0.0145850
848.293	0.0145425
848.371	0.0144334
848.450	0.0143097
848.528	0.0144104
848.606	0.0145547
848.684	0.0144714
848.762	0.0144563
848.840	0.0143837
848.918	0.0144057
848.996	0.0146007
849.075	0.0147051
849.153	0.0145804
849.231	0.0143726
849.309	0.0145454
849.387	0.0146034
849.465	0.0145682
849.543	0.0145527
849.621	0.0146445
849.700	0.0144312
849.778	0.0143389
849.856	0.0144341
849.934	0.0146252
850.012	0.0145189
850.090	0.0144545
850.168	0.0144499
850.246	0.0144685
850.325	0.0143316
850.403	0.0143288
850.481	0.0144241
850.559	0.0144273
850.637	0.0145511
850.715	0.0144293
850.793	0.0144141
850.871	0.0145658
850.950	0.0144008
851.028	0.0143349
851.106	0.0143987
851.184	0.0146011
851.262	0.0146317
851.340	0.0144392
851.418	0.0144933
851.496	0.0145984
851.575	0.0144167
851.653	0.0144765
851.731	0.0144765
851.809	0.0145313
851.887	0.0145338
851.965	0.0145857
852.043	0.0144479
852.121	0.0144936
852.200	0.0144408
852.278	0.0144079
852.356	0.0144849
852.434	0.0144118
852.512	0.0144492
852.590	0.0144404
852.668	0.0143813
852.746	0.0142966
852.825	0.0144883
852.903	0.0144650
852.981	0.0142950
853.059	0.0144463
853.137	0.0145935
853.215	0.0144079
853.293	0.0143258
853.371	0.0143476
853.450	0.0144037
853.528	0.0144868
853.606	0.0143936
853.684	0.0143983
853.762	0.0144328
853.840	0.0145009
853.918	0.0144949
853.996	0.0144627
854.075	0.0144964
854.153	0.0144988
854.231	0.0144138
854.309	0.0143813
854.387	0.0145168
854.465	0.0144524
854.543	0.0144613
854.621	0.0144896
854.700	0.0143923
854.778	0.0144352
854.856	0.0144186
854.934	0.0142809
855.012	0.0142872
855.090	0.0144038
855.168	0.0144019
855.246	0.0144484
855.325	0.0144589
855.403	0.0143208
855.481	0.0143990
855.559	0.0143972
855.637	0.0145095
855.715	0.0145142
855.793	0.0144041
855.871	0.0144372
855.950	0.0144605
856.028	0.0144867
856.106	0.0144148
856.184	0.0143584
856.262	0.0145263
856.340	0.0145538
856.418	0.0145147
856.496	0.0145591
856.575	0.0146391
856.653	0.0144589
856.731	0.0145121
856.809	0.0144168
856.887	0.0143845
856.965	0.0145569
857.043	0.0145131
857.121	0.0144875
857.200	0.0143807
857.278	0.0143320
857.356	0.0145641
857.434	0.0145198
857.512	0.0144358
857.590	0.0144902
857.668	0.0144051
857.746	0.0143916
857.825	0.0144422
857.903	0.0145243
857.981	0.0145880
858.059	0.0144512
858.137	0.0144519
858.215	0.0144183
858.293	0.0144197
858.371	0.0144885
858.450	0.0143901
858.528	0.0145318
858.606	0.0144788
858.684	0.0144678
858.762	0.0144787
858.840	0.0145700
858.918	0.0144762
858.996	0.0144300
859.075	0.0144926
859.153	0.0145124
859.231	0.0144316
859.309	0.0145228
859.387	0.0144430
859.465	0.0144768
859.543	0.0144898
859.621	0.0145112
859.700	0.0144958
859.778	0.0145508
859.856	0.0143070
859.934	0.0144192
860.012	0.0145448
860.090	0.0144225
860.168	0.0144294
860.246	0.0144384
860.325	0.0144201
860.403	0.0144905
860.481	0.0145921
860.559	0.0145432
860.637	0.0144973
860.715	0.0145713
860.793	0.0145520
860.871	0.0145045
860.950	0.0144622
861.028	0.0145245
861.106	0.0145553
861.184	0.0145189
861.262	0.0144753
861.340	0.0144113
861.418	0.0144646
861.496	0.0145778
861.575	0.0144832
861.653	0.0144231
861.731	0.0145165
861.809	0.0143333
861.887	0.0144106
861.965	0.0143572
862.043	0.0144505
862.121	0.0143924
862.200	0.0144194
862.278	0.0144549
862.356	0.0143310
862.434	0.0143807
862.512	0.0145665
862.590	0.0144911
862.668	0.0142995
862.746	0.0142979
862.825	0.0144242
862.903	0.0143707
862.981	0.0143783
863.059	0.0144935
863.137	0.0144854
863.215	0.0144862
863.293	0.0144505
863.371	0.0144924
863.450	0.0144752
863.528	0.0144962
863.606	0.0144437
863.684	0.0144431
863.762	0.0145929
863.840	0.0144555
863.918	0.0143859
863.996	0.0143861
864.075	0.0144779
864.153	0.0144897
864.231	0.0143968
864.309	0.0143230
864.387	0.0145509
864.465	0.0145596
864.543	0.0145346
864.621	0.0143975
864.700	0.0144411
864.778	0.0144695
864.856	0.0145031
864.934	0.0143779
865.012	0.0145365
865.090	0.0146807
865.168	0.0146231
865.246	0.0145074
865.325	0.0145683
865.403	0.0146051
865.481	0.0144781
865.559	0.0145940
865.637	0.0144231
865.715	0.0144024
865.793	0.0144198
865.871	0.0144895
865.950	0.0143486
866.028	0.0142953
866.106	0.0143578
866.184	0.0144451
866.262	0.0143636
866.340	0.0143241
866.418	0.0144772
866.496	0.0143620
866.575	0.0142548
866.653	0.0143655
866.731	0.0143710
866.809	0.0144040
866.887	0.0143211
866.965	0.0144414
867.043	0.0142262
867.121	0.0143401
867.200	0.0144880
867.278	0.0145820
867.356	0.0143963
867.434	0.0144533
867.512	0.0145340
867.590	0.0144490
867.668	0.0143977
867.746	0.0145124
867.825	0.0144017
867.903	0.0145366
867.981	0.0145132
868.059	0.0144582
868.137	0.0143800
868.215	0.0145380
868.293	0.0143866
868.371	0.0146422
868.450	0.0145480
868.528	0.0144470
868.606	0.0143917
868.684	0.0144138
868.762	0.0144099
868.840	0.0145702
868.918	0.0145030
868.996	0.0144509
869.075	0.0144212
869.153	0.0144480
869.231	0.0143185
869.309	0.0144129
869.387	0.0143932
869.465	0.0144064
869.543	0.0144173
869.621	0.0143813
869.700	0.0144719
869.778	0.0144878
869.856	0.0144519
869.934	0.0145025
870.012	0.0144545
870.090	0.0144641
870.168	0.0144266
870.246	0.0143901
870.325	0.0144804
870.403	0.0145194
870.481	0.0145092
870.559	0.0145093
870.637	0.0145054
870.715	0.0145066
870.793	0.0144506
870.871	0.0144124
870.950	0.0143826
871.028	0.0143836
871.106	0.0144894
871.184	0.0144431
871.262	0.0143552
871.340	0.0143707
871.418	0.0143593
871.496	0.0144555
871.575	0.0144750
871.653	0.0144367
871.731	0.0144463
871.809	0.0144305
871.887	0.0142774
871.965	0.0144851
872.043	0.0145253
872.121	0.0144528
872.200	0.0145126
872.278	0.0144717
872.356	0.0144972
872.434	0.0145697
872.512	0.0144179
872.590	0.0144447
872.668	0.0144822
872.746	0.0144705
872.825	0.0143713
872.903	0.0145442
872.981	0.0144926
873.059	0.0145775
873.137	0.0143885
873.215	0.0144138
873.293	0.0144355
873.371	0.0145694
873.450	0.0143901
873.528	0.0143632
873.606	0.0143754
873.684	0.0144337
873.762	0.0145036
873.840	0.0144619
873.918	0.0144736
873.996	0.0145027
874.075	0.0143762
874.153	0.0144707
874.231	0.0146751
874.309	0.0145335
874.387	0.0144124
874.465	0.0145162
874.543	0.0145291
874.621	0.0145086
874.700	0.0146271
874.778	0.0145026
874.856	0.0145206
874.934	0.0144743
875.012	0.0144955
875.090	0.0144894
875.168	0.0144125
875.246	0.0145936
875.325	0.0144210
875.403	0.0143935
875.481	0.0144218
875.559	0.0144193
875.637	0.0144325
875.715	0.0143123
875.793	0.0143088
875.871	0.0143880
875.950	0.0144109
876.028	0.0144531
876.106	0.0145574
876.184	0.0145820
876.262	0.0146194
876.340	0.0144933
876.418	0.0145084
876.496	0.0145406
876.575	0.0146212
876.653	0.0145805
876.731	0.0145650
876.809	0.0145561
876.887	0.0144373
876.965	0.0145715
877.043	0.0146089
877.121	0.0145718
877.200	0.0145180
877.278	0.0144365
877.356	0.0144678
877.434	0.0144456
877.512	0.0143675
877.590	0.0144836
877.668	0.0145728
877.746	0.0145084
877.825	0.0143758
877.903	0.0145233
877.981	0.0144003
878.059	0.0144417
878.137	0.0145077
878.215	0.0146354
878.293	0.0143382
878.371	0.0143661
878.450	0.0143945
878.528	0.0145985
878.606	0.0145385
878.684	0.0144604
878.762	0.0145261
878.840	0.0144456
878.918	0.0144997
878.996	0.0145608
879.075	0.0145333
879.153	0.0145923
879.231	0.0146709
879.309	0.0144516
879.387	0.0145083
879.465	0.0145499
879.543	0.0144438
879.621	0.0144212
879.700	0.0145519
879.778	0.0145063
879.856	0.0145290
879.934	0.0144686
880.012	0.0145114
880.090	0.0146056
880.168	0.0145667
880.246	0.0145409
880.325	0.0145235
880.403	0.0145964
880.481	0.0145233
880.559	0.0143849
880.637	0.0146310
880.715	0.0144563
880.793	0.0144862
880.871	0.0144126
880.950	0.0144865
881.028	0.0145404
881.106	0.0144961
881.184	0.0144917
881.262	0.0144418
881.340	0.0144289
881.418	0.0145301
881.496	0.0144833
881.575	0.0144590
881.653	0.0144721
881.731	0.0145205
881.809	0.0144579
881.887	0.0144884
881.965	0.0147195
882.043	0.0145751
882.121	0.0145171
882.200	0.0144653
882.278	0.0145119
882.356	0.0145285
882.434	0.0146246
882.512	0.0146371
882.590	0.0146529
882.668	0.0144963
882.746	0.0144885
882.825	0.0144950
882.903	0.0144541
882.981	0.0143710
883.059	0.0143185
883.137	0.0142525
883.215	0.0144122
883.293	0.0144677
883.371	0.0143529
883.450	0.0143223
883.528	0.0144320
883.606	0.0143952
883.684	0.0144083
883.762	0.0144781
883.840	0.0143993
883.918	0.0144594
883.996	0.0144849
884.075	0.0144010
884.153	0.0145216
884.231	0.0145148
884.309	0.0145827
884.387	0.0145233
884.465	0.0144714
884.543	0.0144829
884.621	0.0145082
884.700	0.0145279
884.778	0.0144448
884.856	0.0144918
884.934	0.0144772
885.012	0.0143237
885.090	0.0143786
885.168	0.0143374
885.246	0.0143405
885.325	0.0143587
885.403	0.0144022
885.481	0.0144205
885.559	0.0144933
885.637	0.0143836
885.715	0.0144423
885.793	0.0142797
885.871	0.0143698
885.950	0.0144735
886.028	0.0144577
886.106	0.0143956
886.184	0.0143315
886.262	0.0143819
886.340	0.0143839
886.418	0.0143528
886.496	0.0144894
886.575	0.0145067
886.653	0.0144364
886.731	0.0144567
886.809	0.0143173
886.887	0.0144474
886.965	0.0144395
887.043	0.0143906
887.121	0.0145101
887.200	0.0143965
887.278	0.0144292
887.356	0.0144135
887.434	0.0145029
887.512	0.0144009
887.590	0.0143887
887.668	0.0145354
887.746	0.0146499
887.825	0.0144138
887.903	0.0143274
887.981	0.0143386
888.059	0.0144608
888.137	0.0144595
888.215	0.0143794
888.293	0.0145486
888.371	0.0144113
888.450	0.0143382
888.528	0.0144939
888.606	0.0144525
888.684	0.0145640
888.762	0.0144737
888.840	0.0144771
888.918	0.0144532
888.996	0.0144311
889.075	0.0144543
889.153	0.0143684
889.231	0.0144017
889.309	0.0144698
889.387	0.0145165
889.465	0.0144020
889.543	0.0144161
889.621	0.0144736
889.700	0.0143808
889.778	0.0143204
889.856	0.0142380
889.934	0.0143163
890.012	0.0142676
890.090	0.0143579
890.168	0.0144571
890.246	0.0145217
890.325	0.0145314
890.403	0.0143288
890.481	0.0144614
890.559	0.0145450
890.637	0.0145470
890.715	0.0145156
890.793	0.0145884
890.871	0.0145289
890.950	0.0145774
891.028	0.0145064
891.106	0.0144303
891.184	0.0144319
891.262	0.0144646
891.340	0.0143874
891.418	0.0144595
891.496	0.0143999
891.575	0.0144724
891.653	0.0145221
891.731	0.0144395
891.809	0.0143893
891.887	0.0144114
891.965	0.0144759
892.043	0.0145126
892.121	0.0146381
892.200	0.0144579
892.278	0.0144879
892.356	0.0144450
892.434	0.0143527
892.512	0.0144970
892.590	0.0145158
892.668	0.0144914
892.746	0.0144294
892.825	0.0143426
892.903	0.0144337
892.981	0.0145427
893.059	0.0145956
893.137	0.0145653
893.215	0.0145609
893.293	0.0145923
893.371	0.0144866
893.450	0.0146098
893.528	0.0146508
893.606	0.0147196
893.684	0.0145838
893.762	0.0146838
893.840	0.0145091
893.918	0.0145864
893.996	0.0144842
894.075	0.0142876
894.153	0.0143427
894.231	0.0144775
894.309	0.0143219
894.387	0.0143004
894.465	0.0142364
894.543	0.0144006
894.621	0.0145404
894.700	0.0144746
894.778	0.0144195
894.856	0.0144339
894.934	0.0144635
895.012	0.0144200
895.090	0.0144377
895.168	0.0145911
895.246	0.0144719
895.325	0.0144241
895.403	0.0144553
895.481	0.0145068
895.559	0.0145184
895.637	0.0144411
895.715	0.0144904
895.793	0.0144807
895.871	0.0145023
895.950	0.0143998
896.028	0.0143460
896.106	0.0144973
896.184	0.0144840
896.262	0.0145240
896.340	0.0145388
896.418	0.0144246
896.496	0.0145573
896.575	0.0145838
896.653	0.0144427
896.731	0.0145327
896.809	0.0144778
896.887	0.0144131
896.965	0.0144402
897.043	0.0145137
897.121	0.0145050
897.200	0.0145386
897.278	0.0144597
897.356	0.0145274
897.434	0.0144459
897.512	0.0144512
897.590	0.0145296
897.668	0.0145001
897.746	0.0144498
897.825	0.0145842
897.903	0.0145097
897.981	0.0145004
898.059	0.0146107
898.137	0.0147222
898.215	0.0146519
898.293	0.0145142
898.371	0.0146270
898.450	0.0145411
898.528	0.0145943
898.606	0.0147054
898.684	0.0144405
898.762	0.0145024
898.840	0.0144698
898.918	0.0142811
898.996	0.0143259
899.075	0.0145226
899.153	0.0145425
899.231	0.0144598
899.309	0.0144881
899.387	0.0145460
899.465	0.0144875
899.543	0.0145377
899.621	0.0145668
899.700	0.0145373
899.778	0.0144495
899.856	0.0145714
899.934	0.0144608
900.012	0.0145302
900.090	0.0144221
900.168	0.0146344
900.246	0.0143679
900.325	0.0143318
900.403	0.0144798
900.481	0.0144514
900.559	0.0143819
900.637	0.0143787
900.715	0.0143565
900.793	0.0143728
900.871	0.0145068
900.950	0.0144636
901.028	0.0145477
901.106	0.0145204
901.184	0.0145006
901.262	0.0145298
901.340	0.0145371
901.418	0.0145226
901.496	0.0144476
901.575	0.0145150
901.653	0.0144820
901.731	0.0144677
901.809	0.0145009
901.887	0.0145212
901.965	0.0145998
902.043	0.0144523
902.121	0.0144430
902.200	0.0144781
902.278	0.0145185
902.356	0.0145856
902.434	0.0145230
902.512	0.0144311
902.590	0.0144108
902.668	0.0144933
902.746	0.0145982
902.825	0.0145025
902.903	0.0144480
902.981	0.0144763
903.059	0.0144254
903.137	0.0145569
903.215	0.0144825
903.293	0.0145772
903.371	0.0144378
903.450	0.0145020
903.528	0.0144807
903.606	0.0144498
903.684	0.0142839
903.762	0.0145397
903.840	0.0145313
903.918	0.0145116
903.996	0.0144914
904.075	0.0144421
904.153	0.0144068
904.231	0.0144279
904.309	0.0145727
904.387	0.0145714
904.465	0.0145394
904.543	0.0145535
904.621	0.0146354
904.700	0.0144355
904.778	0.0144332
904.856	0.0145323
904.934	0.0144741
905.012	0.0144908
905.090	0.0144457
905.168	0.0145247
905.246	0.0144196
905.325	0.0144924
905.403	0.0144016
905.481	0.0143074
905.559	0.0143538
905.637	0.0142648
905.715	0.0144524
905.793	0.0144020
905.871	0.0146101
905.950	0.0147015
906.028	0.0145610
906.106	0.0145625
906.184	0.0146423
906.262	0.0146406
906.340	0.0146239
906.418	0.0145641
906.496	0.0146905
906.575	0.0145313
906.653	0.0144109
906.731	0.0145535
906.809	0.0143639
906.887	0.0145059
906.965	0.0144221
907.043	0.0142966
907.121	0.0144475
907.200	0.0142651
907.278	0.0142267
907.356	0.0142089
907.434	0.0143314
907.512	0.0145509
907.590	0.0145035
907.668	0.0143886
907.746	0.0145031
907.825	0.0143163
907.903	0.0144812
907.981	0.0145837
908.059	0.0144543
908.137	0.0145551
908.215	0.0145688
908.293	0.0144753
908.371	0.0144227
908.450	0.0143788
908.528	0.0143797
908.606	0.0142196
908.684	0.0143502
908.762	0.0143535
908.840	0.0143883
908.918	0.0143322
908.996	0.0143359
909.075	0.0144015
909.153	0.0145023
909.231	0.0144302
909.309	0.0144698
909.387	0.0144405
909.465	0.0145059
909.543	0.0145361
909.621	0.0144629
909.700	0.0146436
909.778	0.0144427
909.856	0.0144749
909.934	0.0143568
910.012	0.0143935
910.090	0.0143594
910.168	0.0144968
910.246	0.0143600
910.325	0.0144997
910.403	0.0144693
910.481	0.0144547
910.559	0.0142622
910.637	0.0143795
910.715	0.0144907
910.793	0.0143993
910.871	0.0143846
910.950	0.0144039
911.028	0.0143109
911.106	0.0142529
911.184	0.0142382
911.262	0.0143766
911.340	0.0143248
911.418	0.0143862
911.496	0.0143665
911.575	0.0143008
911.653	0.0144669
911.731	0.0145688
911.809	0.0144224
911.887	0.0142886
911.965	0.0145229
912.043	0.0145872
912.121	0.0144949
912.200	0.0145876
912.278	0.0145324
912.356	0.0145007
912.434	0.0145218
912.512	0.0143999
912.590	0.0144933
912.668	0.0145524
912.746	0.0143807
912.825	0.0143554
912.903	0.0143627
912.981	0.0142935
913.059	0.0143806
913.137	0.0145723
913.215	0.0144427
913.293	0.0144009
913.371	0.0144067
913.450	0.0142670
913.528	0.0143580
913.606	0.0143726
913.684	0.0144206
913.762	0.0142917
913.840	0.0144115
913.918	0.0143497
913.996	0.0144093
914.075	0.0142809
914.153	0.0143673
914.231	0.0145027
914.309	0.0144386
914.387	0.0143126
914.465	0.0143556
914.543	0.0143576
914.621	0.0143957
914.700	0.0145325
914.778	0.0142006
914.856	0.0143695
914.934	0.0144131
915.012	0.0144692
915.090	0.0143237
915.168	0.0142691
915.246	0.0143520
915.325	0.0144659
915.403	0.0145296
915.481	0.0146119
915.559	0.0145013
915.637	0.0144830
915.715	0.0144132
915.793	0.0144726
915.871	0.0144373
915.950	0.0145937
916.028	0.0144305
916.106	0.0143274
916.184	0.0145876
916.262	0.0143900
916.340	0.0146465
916.418	0.0144210
916.496	0.0143719
916.575	0.0144494
916.653	0.0144144
916.731	0.0143324
916.809	0.0145213
916.887	0.0145035
916.965	0.0144787
917.043	0.0146094
917.121	0.0143661
917.200	0.0143252
917.278	0.0145465
917.356	0.0142979
917.434	0.0142841
917.512	0.0144215
917.590	0.0143805
917.668	0.0144458
917.746	0.0144468
917.825	0.0145036
917.903	0.0144284
917.981	0.0143285
918.059	0.0144662
918.137	0.0145277
918.215	0.0143985
918.293	0.0145448
918.371	0.0144720
918.450	0.0144200
918.528	0.0145038
918.606	0.0144634
918.684	0.0144775
918.762	0.0143465
918.840	0.0144028
918.918	0.0144052
918.996	0.0143612
919.075	0.0144968
919.153	0.0145452
919.231	0.0144667
919.309	0.0144971
919.387	0.0144984
919.465	0.0144939
919.543	0.0145844
919.621	0.0144804
919.700	0.0144118
919.778	0.0145527
919.856	0.0145954
919.934	0.0146819
920.012	0.0146214
920.090	0.0146216
920.168	0.0146480
920.246	0.0146599
920.325	0.0145789
920.403	0.0145445
920.481	0.0144982
920.559	0.0144714
920.637	0.0146275
920.715	0.0145681
920.793	0.0144559
920.871	0.0145573
920.950	0.0146304
921.028	0.0145045
921.106	0.0145090
921.184	0.0144734
921.262	0.0145559
921.340	0.0144690
921.418	0.0143698
921.496	0.0144527
921.575	0.0145715
921.653	0.0145066
921.731	0.0145628
921.809	0.0144649
921.887	0.0144237
921.965	0.0143977
922.043	0.0144084
922.121	0.0143781
922.200	0.0143417
922.278	0.0145074
922.356	0.0145529
922.434	0.0144611
922.512	0.0145171
922.590	0.0145667
922.668	0.0143846
922.746	0.0145156
922.825	0.0145054
922.903	0.0145130
922.981	0.0144164
923.059	0.0144976
923.137	0.0144377
923.215	0.0145633
923.293	0.0145787
923.371	0.0144768
923.450	0.0144234
923.528	0.0144955
923.606	0.0144903
923.684	0.0145039
923.762	0.0145093
923.840	0.0145498
923.918	0.0146052
923.996	0.0144520
924.075	0.0144832
924.153	0.0144492
924.231	0.0145795
924.309	0.0143699
924.387	0.0144700
924.465	0.0146243
924.543	0.0143893
924.621	0.0145280
924.700	0.0143429
924.778	0.0143781
924.856	0.0143747
924.934	0.0144918
925.012	0.0145573
925.090	0.0146056
925.168	0.0143658
925.246	0.0145583
925.325	0.0143810
925.403	0.0146045
925.481	0.0144908
925.559	0.0145675
925.637	0.0144993
925.715	0.0144930
925.793	0.0145251
925.871	0.0144765
925.950	0.0144575
926.028	0.0144804
926.106	0.0145474
926.184	0.0145712
926.262	0.0144744
926.340	0.0145381
926.418	0.0145397
926.496	0.0145478
926.575	0.0144070
926.653	0.0144296
926.731	0.0145032
926.809	0.0145087
926.887	0.0143876
926.965	0.0144736
927.043	0.0145277
927.121	0.0143951
927.200	0.0145403
927.278	0.0144102
927.356	0.0144635
927.434	0.0145047
927.512	0.0144398
927.590	0.0144250
927.668	0.0143640
927.746	0.0144439
927.825	0.0143685
927.903	0.0144071
927.981	0.0144595
928.059	0.0144318
928.137	0.0144196
928.215	0.0143860
928.293	0.0142831
928.371	0.0143966
928.450	0.0143623
928.528	0.0143228
928.606	0.0144180
928.684	0.0144896
928.762	0.0146066
928.840	0.0143722
928.918	0.0143702
928.996	0.0145434
929.075	0.0144536
929.153	0.0146254
929.231	0.0146108
929.309	0.0144257
929.387	0.0144533
929.465	0.0144354
929.543	0.0144167
929.621	0.0144296
929.700	0.0145300
929.778	0.0144169
929.856	0.0145638
929.934	0.0147008
930.012	0.0143734
930.090	0.0144092
930.168	0.0143814
930.246	0.0145437
930.325	0.0146695
930.403	0.0144833
930.481	0.0143821
930.559	0.0144449
930.637	0.0143707
930.715	0.0144949
930.793	0.0144955
930.871	0.0146020
930.950	0.0143434
931.028	0.0144131
931.106	0.0144241
931.184	0.0144534
931.262	0.0144104
931.340	0.0142271
931.418	0.0144243
931.496	0.0142784
931.575	0.0144259
931.653	0.0144421
931.731	0.0142381
931.809	0.0144250
931.887	0.0144512
931.965	0.0144061
932.043	0.0144704
932.121	0.0145441
932.200	0.0144817
932.278	0.0143573
932.356	0.0145135
932.434	0.0145117
932.512	0.0144445
932.590	0.0144720
932.668	0.0144848
932.746	0.0144725
932.825	0.0143880
932.903	0.0143350
932.981	0.0143449
933.059	0.0145264
933.137	0.0144217
933.215	0.0144685
933.293	0.0143638
933.371	0.0145586
933.450	0.0144089
933.528	0.0144236
933.606	0.0145156
933.684	0.0145392
933.762	0.0145395
933.840	0.0145555
933.918	0.0145914
933.996	0.0145608
934.075	0.0144129
934.153	0.0146451
934.231	0.0145770
934.309	0.0145222
934.387	0.0144523
934.465	0.0144810
934.543	0.0144295
934.621	0.0144160
934.700	0.0143488
934.778	0.0144599
934.856	0.0145400
934.934	0.0144915
935.012	0.0144909
935.090	0.0143723
935.168	0.0144559
935.246	0.0143643
935.325	0.0144580
935.403	0.0144494
935.481	0.0144268
935.559	0.0143904
935.637	0.0145108
935.715	0.0144661
935.793	0.0144931
935.871	0.0144577
935.950	0.0145028
936.028	0.0143262
936.106	0.0145466
936.184	0.0144742
936.262	0.0143147
936.340	0.0144873
936.418	0.0144089
936.496	0.0143775
936.575	0.0143668
936.653	0.0144134
936.731	0.0144281
936.809	0.0144140
936.887	0.0143162
936.965	0.0143726
937.043	0.0143179
937.121	0.0144284
937.200	0.0143253
937.278	0.0143513
937.356	0.0143999
937.434	0.0142974
937.512	0.0144201
937.590	0.0144749
937.668	0.0144883
937.746	0.0144558
937.825	0.0145317
937.903	0.0144846
937.981	0.0145151
938.059	0.0145558
938.137	0.0143746
938.215	0.0145084
938.293	0.0144645
938.371	0.0144931
938.450	0.0145528
938.528	0.0144276
938.606	0.0146333
938.684	0.0145429
938.762	0.0144440
938.840	0.0143580
938.918	0.0144401
938.996	0.0144096
939.075	0.0143305
939.153	0.0144540
939.231	0.0145519
939.309	0.0143606
939.387	0.0143315
939.465	0.0144898
939.543	0.0143694
939.621	0.0142953
939.700	0.0143861
939.778	0.0143295
939.856	0.0144623
939.934	0.0143615
940.012	0.0143647
940.090	0.0141748
940.168	0.0144280
940.246	0.0143322
940.325	0.0144370
940.403	0.0144543
940.481	0.0143428
940.559	0.0145780
940.637	0.0146690
940.715	0.0145004
940.793	0.0143799
940.871	0.0144277
940.950	0.0145403
941.028	0.0145354
941.106	0.0143372
941.184	0.0144194
941.262	0.0144221
941.340	0.0144913
941.418	0.0144120
941.496	0.0145689
941.575	0.0144308
941.653	0.0144336
941.731	0.0143580
941.809	0.0144296
941.887	0.0142765
941.965	0.0145226
942.043	0.0144655
942.121	0.0145197
942.200	0.0145699
942.278	0.0144301
942.356	0.0143784
942.434	0.0145505
942.512	0.0144924
942.590	0.0143317
942.668	0.0143819
942.746	0.0144312
942.825	0.0144153
942.903	0.0143930
942.981	0.0145403
943.059	0.0143948
943.137	0.0143291
943.215	0.0144983
943.293	0.0144997
943.371	0.0145553
943.450	0.0144044
943.528	0.0144094
943.606	0.0143440
943.684	0.0144695
943.762	0.0145089
943.840	0.0145254
943.918	0.0143623
943.996	0.0144269
944.075	0.0143732
944.153	0.0144141
944.231	0.0145650
944.309	0.0145345
944.387	0.0144489
944.465	0.0145596
944.543	0.0143810
944.621	0.0144764
944.700	0.0144582
944.778	0.0143865
944.856	0.0144332
944.934	0.0144814
945.012	0.0143784
945.090	0.0143115
945.168	0.0144218
945.246	0.0142610
945.325	0.0143072
945.403	0.0145043
945.481	0.0144151
945.559	0.0143865
945.637	0.0143171
945.715	0.0143536
945.793	0.0144613
945.871	0.0144196
945.950	0.0143934
946.028	0.0143946
946.106	0.0143994
946.184	0.0144293
946.262	0.0145571
946.340	0.0145247
946.418	0.0144124
946.496	0.0144594
946.575	0.0144221
946.653	0.0145363
946.731	0.0146246
946.809	0.0145916
946.887	0.0143814
946.965	0.0145329
947.043	0.0144586
947.121	0.0143694
947.200	0.0144143
947.278	0.0144710
947.356	0.0144856
947.434	0.0143880
947.512	0.0143156
947.590	0.0142757
947.668	0.0144848
947.746	0.0145010
947.825	0.0145359
947.903	0.0145808
947.981	0.0144296
948.059	0.0144156
948.137	0.0146218
948.215	0.0145348
948.293	0.0144868
948.371	0.0143944
948.450	0.0144508
948.528	0.0144296
948.606	0.0144568
948.684	0.0144695
948.762	0.0145220
948.840	0.0143927
948.918	0.0145096
948.996	0.0144715
949.075	0.0144426
949.153	0.0144625
949.231	0.0145329
949.309	0.0145336
949.387	0.0145143
949.465	0.0145258
949.543	0.0143465
949.621	0.0145791
949.700	0.0145232
949.778	0.0146212
949.856	0.0146402
949.934	0.0145000
950.012	0.0144440
950.090	0.0145777
950.168	0.0145597
950.246	0.0145079
950.325	0.0145642
950.403	0.0144648
950.481	0.0144614
950.559	0.0146116
950.637	0.0145647
950.715	0.0145634
950.793	0.0145334
950.871	0.0145973
950.950	0.0144748
951.028	0.0145597
951.106	0.0145044
951.184	0.0144909
951.262	0.0145353
951.340	0.0144625
951.418	0.0144471
951.496	0.0144105
951.575	0.0144521
951.653	0.0144445
951.731	0.0144157
951.809	0.0144280
951.887	0.0144158
951.965	0.0145232
952.043	0.0143734
952.121	0.0145675
952.200	0.0146430
952.278	0.0146639
952.356	0.0144915
952.434	0.0144640
952.512	0.0146187
952.590	0.0146866
952.668	0.0146180
952.746	0.0146981
952.825	0.0145882
952.903	0.0144934
952.981	0.0145635
953.059	0.0145159
953.137	0.0144981
953.215	0.0144958
953.293	0.0145113
953.371	0.0144599
953.450	0.0146199
953.528	0.0144523
953.606	0.0143787
953.684	0.0144147
953.762	0.0145900
953.840	0.0145778
953.918	0.0145898
953.996	0.0145341
954.075	0.0146888
954.153	0.0144377
954.231	0.0143556
954.309	0.0144065
954.387	0.0144642
954.465	0.0144186
954.543	0.0142799
954.621	0.0145248
954.700	0.0144700
954.778	0.0144880
954.856	0.0144491
954.934	0.0144494
955.012	0.0144408
955.090	0.0146322
955.168	0.0145182
955.246	0.0143835
955.325	0.0144245
955.403	0.0146209
955.481	0.0144547
955.559	0.0145235
955.637	0.0145308
955.715	0.0145248
955.793	0.0145530
955.871	0.0145102
955.950	0.0144872
956.028	0.0144711
956.106	0.0145065
956.184	0.0145723
956.262	0.0145152
956.340	0.0145273
956.418	0.0144399
956.496	0.0145206
956.575	0.0143237
956.653	0.0145525
956.731	0.0145264
956.809	0.0144099
956.887	0.0145457
956.965	0.0143810
957.043	0.0143312
957.121	0.0144541
957.200	0.0144304
957.278	0.0143524
957.356	0.0144807
957.434	0.0142858
957.512	0.0144357
957.590	0.0144687
957.668	0.0144445
957.746	0.0143758
957.825	0.0144250
957.903	0.0143540
957.981	0.0144632
958.059	0.0144020
958.137	0.0145181
958.215	0.0144962
958.293	0.0145251
958.371	0.0145037
958.450	0.0143533
958.528	0.0144831
958.606	0.0146004
958.684	0.0145153
958.762	0.0146008
958.840	0.0145757
958.918	0.0144756
958.996	0.0144961
959.075	0.0145623
959.153	0.0143962
959.231	0.0145638
959.309	0.0144586
959.387	0.0143950
959.465	0.0145952
959.543	0.0145997
959.621	0.0143113
959.700	0.0145719
959.778	0.0145707
959.856	0.0144798
959.934	0.0144479
960.012	0.0144554
960.090	0.0146114
960.168	0.0144540
960.246	0.0145394
960.325	0.0146608
960.403	0.0145716
960.481	0.0143833
960.559	0.0145028
960.637	0.0146264
960.715	0.0145096
960.793	0.0143763
960.871	0.0144600
960.950	0.0144597
961.028	0.0143390
961.106	0.0144920
961.184	0.0144507
961.262	0.0145012
961.340	0.0144476
961.418	0.0144013
961.496	0.0142625
961.575	0.0142712
961.653	0.0144774
961.731	0.0144247
961.809	0.0143296
961.887	0.0143401
961.965	0.0144810
962.043	0.0145065
962.121	0.0144375
962.200	0.0143481
962.278	0.0143536
962.356	0.0145026
962.434	0.0145060
962.512	0.0144595
962.590	0.0144713
962.668	0.0144157
962.746	0.0145731
962.825	0.0144353
962.903	0.0145210
962.981	0.0144651
963.059	0.0144743
963.137	0.0144932
963.215	0.0145612
963.293	0.0145238
963.371	0.0144257
963.450	0.0143931
963.528	0.0143478
963.606	0.0144205
963.684	0.0145827
963.762	0.0143398
963.840	0.0143590
963.918	0.0143654
963.996	0.0144053
964.075	0.0144647
964.153	0.0144585
964.231	0.0145112
964.309	0.0144276
964.387	0.0144646
964.465	0.0144781
964.543	0.0145783
964.621	0.0143953
964.700	0.0143883
964.778	0.0144605
964.856	0.0145049
964.934	0.0145533
965.012	0.0144411
965.090	0.0145135
965.168	0.0146108
965.246	0.0145132
965.325	0.0146176
965.403	0.0144096
965.481	0.0145000
965.559	0.0145972
965.637	0.0145645
965.715	0.0143830
965.793	0.0144067
965.871	0.0145202
965.950	0.0145645
966.028	0.0143902
966.106	0.0145657
966.184	0.0144982
966.262	0.0143700
966.340	0.0145540
966.418	0.0144829
966.496	0.0143307
966.575	0.0145013
966.653	0.0144276
966.731	0.0144002
966.809	0.0144420
966.887	0.0143835
966.965	0.0143063
967.043	0.0143215
967.121	0.0143895
967.200	0.0144837
967.278	0.0144687
967.356	0.0144920
967.434	0.0144532
967.512	0.0143072
967.590	0.0144330
967.668	0.0144801
967.746	0.0144964
967.825	0.0144981
967.903	0.0144727
967.981	0.0144790
968.059	0.0144316
968.137	0.0144032
968.215	0.0144231
968.293	0.0144215
968.371	0.0145536
968.450	0.0144570
968.528	0.0143565
968.606	0.0144760
968.684	0.0144385
968.762	0.0145364
968.840	0.0145530
968.918	0.0142586
968.996	0.0143484
969.075	0.0143834
969.153	0.0144083
969.231	0.0143504
969.309	0.0142386
969.387	0.0142469
969.465	0.0143563
969.543	0.0143184
969.621	0.0144424
969.700	0.0142697
969.778	0.0142999
969.856	0.0143526
969.934	0.0144304
970.012	0.0143825
970.090	0.0142171
970.168	0.0143917
970.246	0.0143933
970.325	0.0144681
970.403	0.0143153
970.481	0.0146322
970.559	0.0145831
970.637	0.0144354
970.715	0.0144723
970.793	0.0144290
970.871	0.0144115
970.950	0.0143565
971.028	0.0144348
971.106	0.0143370
971.184	0.0143685
971.262	0.0144640
971.340	0.0145130
971.418	0.0143642
971.496	0.0145102
971.575	0.0143058
971.653	0.0144238
971.731	0.0143871
971.809	0.0145046
971.887	0.0143661
971.965	0.0144084
972.043	0.0144345
972.121	0.0144392
972.200	0.0142625
972.278	0.0143584
972.356	0.0144553
972.434	0.0143811
972.512	0.0142657
972.590	0.0143946
972.668	0.0144435
972.746	0.0143066
972.825	0.0145835
972.903	0.0144411
972.981	0.0143940
973.059	0.0144259
973.137	0.0143808
973.215	0.0145330
973.293	0.0144228
973.371	0.0143865
973.450	0.0144851
973.528	0.0144901
973.606	0.0144366
973.684	0.0144413
973.762	0.0143180
973.840	0.0143507
973.918	0.0146470
973.996	0.0144729
974.075	0.0145887
974.153	0.0145403
974.231	0.0144174
974.309	0.0145824
974.387	0.0145522
974.465	0.0145157
974.543	0.0144359
974.621	0.0144453
974.700	0.0143620
974.778	0.0143867
974.856	0.0144617
974.934	0.0143745
975.012	0.0144043
975.090	0.0144908
975.168	0.0145007
975.246	0.0143320
975.325	0.0142694
975.403	0.0142632
975.481	0.0144592
975.559	0.0144295
975.637	0.0145959
975.715	0.0145736
975.793	0.0145941
975.871	0.0145004
975.950	0.0144498
976.028	0.0145623
976.106	0.0146016
976.184	0.0146198
976.262	0.0143127
976.340	0.0145360
976.418	0.0145995
976.496	0.0143814
976.575	0.0144078
976.653	0.0145392
976.731	0.0145420
976.809	0.0145644
976.887	0.0145303
976.965	0.0144227
977.043	0.0145176
977.121	0.0145544
977.200	0.0143741
977.278	0.0144419
977.356	0.0146518
977.434	0.0144659
977.512	0.0143695
977.590	0.0144654
977.668	0.0146124
977.746	0.0143490
977.825	0.0145111
977.903	0.0144096
977.981	0.0143996
978.059	0.0143198
978.137	0.0145824
978.215	0.0145489
978.293	0.0144810
978.371	0.0145019
978.450	0.0144527
978.528	0.0145171
978.606	0.0145459
978.684	0.0144796
978.762	0.0145836
978.840	0.0145129
978.918	0.0146149
978.996	0.0144653
979.075	0.0146562
979.153	0.0145350
979.231	0.0144886
979.309	0.0145808
979.387	0.0144678
979.465	0.0145319
979.543	0.0145528
979.621	0.0145013
979.700	0.0145900
979.778	0.0145552
979.856	0.0145032
979.934	0.0144707
980.012	0.0146306
980.090	0.0145354
980.168	0.0143760
980.246	0.0144988
980.325	0.0144236
980.403	0.0144106
980.481	0.0143771
980.559	0.0146146
980.637	0.0144665
980.715	0.0143968
980.793	0.0145596
980.871	0.0145178
980.950	0.0144155
981.028	0.0144774
981.106	0.0146053
981.184	0.0146117
981.262	0.0144998
981.340	0.0144963
981.418	0.0144056
981.496	0.0145902
981.575	0.0146056
981.653	0.0145653
981.731	0.0147007
981.809	0.0145701
981.887	0.0145095
981.965	0.0146547
982.043	0.0145918
982.121	0.0146268
982.200	0.0145721
982.278	0.0145932
982.356	0.0143565
982.434	0.0145959
982.512	0.0145012
982.590	0.0144370
982.668	0.0145534
982.746	0.0145025
982.825	0.0144493
982.903	0.0145831
982.981	0.0143847
983.059	0.0145175
983.137	0.0146151
983.215	0.0143506
983.293	0.0143449
983.371	0.0144745
983.450	0.0145207
983.528	0.0143932
983.606	0.0144381
983.684	0.0143295
983.762	0.0143952
983.840	0.0144135
983.918	0.0144753
983.996	0.0144009
984.075	0.0144661
984.153	0.0145152
984.231	0.0145033
984.309	0.0143893
984.387	0.0143959
984.465	0.0144909
984.543	0.0144684
984.621	0.0144086
984.700	0.0144139
984.778	0.0144143
984.856	0.0143970
984.934	0.0144392
985.012	0.0143903
985.090	0.0144932
985.168	0.0144143
985.246	0.0144600
985.325	0.0145029
985.403	0.0144865
985.481	0.0144150
985.559	0.0145489
985.637	0.0145100
985.715	0.0145290
985.793	0.0144117
985.871	0.0145189
985.950	0.0144653
986.028	0.0145679
986.106	0.0144852
986.184	0.0145379
986.262	0.0145679
986.340	0.0144883
986.418	0.0143494
986.496	0.0143684
986.575	0.0143616
986.653	0.0143732
986.731	0.0142981
986.809	0.0143644
986.887	0.0143369
986.965	0.0144077
987.043	0.0144151
987.121	0.0144576
987.200	0.0143568
987.278	0.0143353
987.356	0.0142999
987.434	0.0144480
987.512	0.0145098
987.590	0.0144641
987.668	0.0144945
987.746	0.0144672
987.825	0.0145714
987.903	0.0146052
987.981	0.0144276
988.059	0.0145621
988.137	0.0145026
988.215	0.0144151
988.293	0.0144126
988.371	0.0145195
988.450	0.0144468
988.528	0.0145566
988.606	0.0144355
988.684	0.0144505
988.762	0.0144291
988.840	0.0145795
988.918	0.0144714
988.996	0.0143984
989.075	0.0143782
989.153	0.0144349
989.231	0.0143051
989.309	0.0144539
989.387	0.0145464
989.465	0.0144260
989.543	0.0143361
989.621	0.0143710
989.700	0.0143716
989.778	0.0143539
989.856	0.0143200
989.934	0.0143415
990.012	0.0144167
990.090	0.0142747
990.168	0.0142769
990.246	0.0143713
990.325	0.0143617
990.403	0.0142603
990.481	0.0143494
990.559	0.0144310
990.637	0.0143480
990.715	0.0142302
990.793	0.0143251
990.871	0.0143538
990.950	0.0143738
991.028	0.0143040
991.106	0.0143330
991.184	0.0144451
991.262	0.0144199
991.340	0.0144185
991.418	0.0143354
991.496	0.0144629
991.575	0.0144053
991.653	0.0143723
991.731	0.0144367
991.809	0.0143468
991.887	0.0144851
991.965	0.0143916
992.043	0.0143888
992.121	0.0144991
992.200	0.0143508
992.278	0.0144711
992.356	0.0143763
992.434	0.0143881
992.512	0.0143085
992.590	0.0142514
992.668	0.0142841
992.746	0.0143831
992.825	0.0143709
992.903	0.0143566
992.981	0.0143267
993.059	0.0143819
993.137	0.0144356
993.215	0.0143117
993.293	0.0143572
993.371	0.0143171
993.450	0.0144370
993.528	0.0144740
993.606	0.0143859
993.684	0.0143058
993.762	0.0142353
993.840	0.0143977
993.918	0.0145184
993.996	0.0143476
994.075	0.0143703
994.153	0.0145042
994.231	0.0142785
994.309	0.0143567
994.387	0.0143930
994.465	0.0144057
994.543	0.0143406
994.621	0.0143831
994.700	0.0144611
994.778	0.0144373
994.856	0.0144736
994.934	0.0144813
995.012	0.0145461
995.090	0.0144444
995.168	0.0144416
995.246	0.0144785
995.325	0.0145947
995.403	0.0145177
995.481	0.0144861
995.559	0.0144849
995.637	0.0144643
995.715	0.0143028
995.793	0.0144226
995.871	0.0143171
995.950	0.0144070
996.028	0.0144144
996.106	0.0143015
996.184	0.0143623
996.262	0.0143078
996.340	0.0142977
996.418	0.0144465
996.496	0.0143509
996.575	0.0143710
996.653	0.0142300
996.731	0.0142844
996.809	0.0143910
996.887	0.0144002
996.965	0.0143378
997.043	0.0144694
997.121	0.0144501
997.200	0.0144213
997.278	0.0143866
997.356	0.0145174
997.434	0.0144339
997.512	0.0145436
997.590	0.0145179
997.668	0.0144065
997.746	0.0143768
997.825	0.0143053
997.903	0.0142097
997.981	0.0144913
998.059	0.0144340
998.137	0.0144032
998.215	0.0143202
998.293	0.0143944
998.371	0.0144209
998.450	0.0144328
998.528	0.0142858
998.606	0.0144427
998.684	0.0144503
998.762	0.0144184
998.840	0.0145973
998.918	0.0144434
