05/04/2022	21:12:12	Ver.	4.1	UNKNOWN
Optical Delay	678.996401	Delta X		0.078125	Sweeps	1	Scan Rate	0/0
Coordinates	Axis 1	NaN	Axis 2	NaN	Axis 3	NaN	Axis 4	NaN	Axis 5	NaN	Axis 6	0.000000
TX Power	0.000000	RX Power	0.000000

678.996	0.0141136
679.075	0.0141632
679.153	0.0140995
679.231	0.0140921
679.309	0.0140456
679.387	0.0141092
679.465	0.0140375
679.543	0.0141265
679.621	0.0140182
679.700	0.0140751
679.778	0.0140904
679.856	0.0139204
679.934	0.0139495
680.012	0.0139364
680.090	0.0138982
680.168	0.0139783
680.246	0.0140236
680.325	0.0140350
680.403	0.0140926
680.481	0.0141174
680.559	0.0143031
680.637	0.0142621
680.715	0.0141480
680.793	0.0143010
680.871	0.0142097
680.950	0.0143579
681.028	0.0143877
681.106	0.0143914
681.184	0.0143034
681.262	0.0141926
681.340	0.0141758
681.418	0.0142284
681.496	0.0140319
681.575	0.0140009
681.653	0.0140172
681.731	0.0139113
681.809	0.0140627
681.887	0.0139509
681.965	0.0139911
682.043	0.0139020
682.121	0.0139413
682.200	0.0139077
682.278	0.0139157
682.356	0.0139322
682.434	0.0139582
682.512	0.0139868
682.590	0.0139843
682.668	0.0140258
682.746	0.0141392
682.825	0.0140416
682.903	0.0141082
682.981	0.0141692
683.059	0.0141530
683.137	0.0141817
683.215	0.0142258
683.293	0.0142692
683.371	0.0142574
683.450	0.0143371
683.528	0.0143342
683.606	0.0142114
683.684	0.0142226
683.762	0.0142176
683.840	0.0141200
683.918	0.0142389
683.996	0.0142368
684.075	0.0141832
684.153	0.0139624
684.231	0.0140388
684.309	0.0139698
684.387	0.0139511
684.465	0.0137865
684.543	0.0139749
684.621	0.0141827
684.700	0.0139388
684.778	0.0139790
684.856	0.0140553
684.934	0.0139749
685.012	0.0141154
685.090	0.0142348
685.168	0.0141538
685.246	0.0141735
685.325	0.0141020
685.403	0.0140456
685.481	0.0141950
685.559	0.0141933
685.637	0.0141847
685.715	0.0140782
685.793	0.0141970
685.871	0.0142564
685.950	0.0141328
686.028	0.0141016
686.106	0.0141920
686.184	0.0142209
686.262	0.0141090
686.340	0.0142737
686.418	0.0143802
686.496	0.0143629
686.575	0.0143085
686.653	0.0143424
686.731	0.0143616
686.809	0.0142434
686.887	0.0142439
686.965	0.0143386
687.043	0.0140572
687.121	0.0141195
687.200	0.0141033
687.278	0.0140129
687.356	0.0139465
687.434	0.0138874
687.512	0.0140421
687.590	0.0140338
687.668	0.0139458
687.746	0.0140244
687.825	0.0140217
687.903	0.0140671
687.981	0.0140486
688.059	0.0142015
688.137	0.0141673
688.215	0.0142058
688.293	0.0142875
688.371	0.0142790
688.450	0.0141486
688.528	0.0142044
688.606	0.0142633
688.684	0.0143344
688.762	0.0142566
688.840	0.0143369
688.918	0.0141338
688.996	0.0142175
689.075	0.0142133
689.153	0.0141790
689.231	0.0142043
689.309	0.0141665
689.387	0.0141239
689.465	0.0140756
689.543	0.0141409
689.621	0.0141972
689.700	0.0138947
689.778	0.0138539
689.856	0.0140891
689.934	0.0140672
690.012	0.0140388
690.090	0.0140163
690.168	0.0139806
690.246	0.0141668
690.325	0.0140850
690.403	0.0140378
690.481	0.0142038
690.559	0.0141720
690.637	0.0142282
690.715	0.0141150
690.793	0.0141783
690.871	0.0141963
690.950	0.0141927
691.028	0.0141861
691.106	0.0142643
691.184	0.0142049
691.262	0.0141330
691.340	0.0141811
691.418	0.0139948
691.496	0.0141432
691.575	0.0141619
691.653	0.0141422
691.731	0.0140665
691.809	0.0140379
691.887	0.0140122
691.965	0.0140885
692.043	0.0142586
692.121	0.0141203
692.200	0.0140601
692.278	0.0140736
692.356	0.0142543
692.434	0.0142892
692.512	0.0141359
692.590	0.0141857
692.668	0.0142064
692.746	0.0142531
692.825	0.0143240
692.903	0.0142675
692.981	0.0142325
693.059	0.0142773
693.137	0.0141232
693.215	0.0142246
693.293	0.0141722
693.371	0.0141380
693.450	0.0140423
693.528	0.0141354
693.606	0.0140945
693.684	0.0140579
693.762	0.0141284
693.840	0.0139635
693.918	0.0141355
693.996	0.0141018
694.075	0.0140658
694.153	0.0140212
694.231	0.0140568
694.309	0.0139546
694.387	0.0140503
694.465	0.0140012
694.543	0.0140405
694.621	0.0139695
694.700	0.0141299
694.778	0.0140820
694.856	0.0142953
694.934	0.0141486
695.012	0.0143763
695.090	0.0144626
695.168	0.0143339
695.246	0.0142239
695.325	0.0142845
695.403	0.0141868
695.481	0.0142126
695.559	0.0141181
695.637	0.0140578
695.715	0.0141924
695.793	0.0141025
695.871	0.0141673
695.950	0.0140915
696.028	0.0140532
696.106	0.0142741
696.184	0.0141607
696.262	0.0141451
696.340	0.0141016
696.418	0.0139535
696.496	0.0140785
696.575	0.0139554
696.653	0.0139198
696.731	0.0141629
696.809	0.0141077
696.887	0.0141293
696.965	0.0142696
697.043	0.0143779
697.121	0.0143976
697.200	0.0142239
697.278	0.0142078
697.356	0.0140961
697.434	0.0139927
697.512	0.0138893
697.590	0.0138299
697.668	0.0138278
697.746	0.0137794
697.825	0.0140400
697.903	0.0141396
697.981	0.0143216
698.059	0.0143126
698.137	0.0141715
698.215	0.0141953
698.293	0.0143521
698.371	0.0142329
698.450	0.0140168
698.528	0.0140352
698.606	0.0140907
698.684	0.0140711
698.762	0.0139912
698.840	0.0139998
698.918	0.0141700
698.996	0.0140573
699.075	0.0142972
699.153	0.0141196
699.231	0.0141354
699.309	0.0140736
699.387	0.0140009
699.465	0.0141385
699.543	0.0141744
699.621	0.0140948
699.700	0.0143253
699.778	0.0142146
699.856	0.0142523
699.934	0.0144044
700.012	0.0144537
700.090	0.0143150
700.168	0.0143712
700.246	0.0142460
700.325	0.0140730
700.403	0.0140514
700.481	0.0138251
700.559	0.0138584
700.637	0.0136750
700.715	0.0134415
700.793	0.0136352
700.871	0.0138144
700.950	0.0140132
701.028	0.0141089
701.106	0.0141851
701.184	0.0143700
701.262	0.0144772
701.340	0.0145645
701.418	0.0146088
701.496	0.0143897
701.575	0.0146452
701.653	0.0145325
701.731	0.0144631
701.809	0.0141006
701.887	0.0141613
701.965	0.0138861
702.043	0.0136141
702.121	0.0136971
702.200	0.0135434
702.278	0.0135528
702.356	0.0137594
702.434	0.0138344
702.512	0.0140669
702.590	0.0142178
702.668	0.0143764
702.746	0.0146201
702.825	0.0147622
702.903	0.0147287
702.981	0.0146489
703.059	0.0145570
703.137	0.0144427
703.215	0.0141576
703.293	0.0140750
703.371	0.0137780
703.450	0.0136999
703.528	0.0136344
703.606	0.0132082
703.684	0.0132897
703.762	0.0135323
703.840	0.0137014
703.918	0.0139383
703.996	0.0142525
704.075	0.0141835
704.153	0.0143927
704.231	0.0146509
704.309	0.0147767
704.387	0.0147295
704.465	0.0147861
704.543	0.0147743
704.621	0.0148108
704.700	0.0147421
704.778	0.0145132
704.856	0.0142300
704.934	0.0139930
705.012	0.0137551
705.090	0.0134129
705.168	0.0131116
705.246	0.0129366
705.325	0.0129699
705.403	0.0130460
705.481	0.0132761
705.559	0.0135548
705.637	0.0138235
705.715	0.0143234
705.793	0.0147451
705.871	0.0148283
705.950	0.0148430
706.028	0.0150568
706.106	0.0148420
706.184	0.0146116
706.262	0.0144008
706.340	0.0139870
706.418	0.0138946
706.496	0.0134368
706.575	0.0135344
706.653	0.0134373
706.731	0.0135755
706.809	0.0136358
706.887	0.0136232
706.965	0.0139606
707.043	0.0141928
707.121	0.0144419
707.200	0.0146170
707.278	0.0149388
707.356	0.0150809
707.434	0.0152447
707.512	0.0151211
707.590	0.0150644
707.668	0.0151122
707.746	0.0148508
707.825	0.0146111
707.903	0.0142809
707.981	0.0141009
708.059	0.0136392
708.137	0.0136324
708.215	0.0135279
708.293	0.0134026
708.371	0.0134292
708.450	0.0134065
708.528	0.0135062
708.606	0.0134966
708.684	0.0137952
708.762	0.0139342
708.840	0.0139120
708.918	0.0142574
708.996	0.0143876
709.075	0.0143812
709.153	0.0143018
709.231	0.0143584
709.309	0.0142090
709.387	0.0143272
709.465	0.0142204
709.543	0.0140381
709.621	0.0139474
709.700	0.0140536
709.778	0.0138593
709.856	0.0138598
709.934	0.0139666
710.012	0.0140072
710.090	0.0141907
710.168	0.0142902
710.246	0.0143468
710.325	0.0144054
710.403	0.0144389
710.481	0.0145390
710.559	0.0143965
710.637	0.0146078
710.715	0.0144727
710.793	0.0143311
710.871	0.0144075
710.950	0.0143148
711.028	0.0143554
711.106	0.0142736
711.184	0.0140958
711.262	0.0141753
711.340	0.0141452
711.418	0.0141344
711.496	0.0141336
711.575	0.0140530
711.653	0.0141029
711.731	0.0139060
711.809	0.0139155
711.887	0.0139291
711.965	0.0138110
712.043	0.0139490
712.121	0.0139719
712.200	0.0141419
712.278	0.0140856
712.356	0.0138798
712.434	0.0139676
712.512	0.0141989
712.590	0.0139842
712.668	0.0139168
712.746	0.0138747
712.825	0.0140572
712.903	0.0139987
712.981	0.0140388
713.059	0.0138776
713.137	0.0139098
713.215	0.0137582
713.293	0.0137537
713.371	0.0137231
713.450	0.0135953
713.528	0.0135857
713.606	0.0136615
713.684	0.0138408
713.762	0.0140125
713.840	0.0142908
713.918	0.0144955
713.996	0.0147752
714.075	0.0149432
714.153	0.0150848
714.231	0.0152308
714.309	0.0151106
714.387	0.0151261
714.465	0.0149700
714.543	0.0148759
714.621	0.0146227
714.700	0.0142900
714.778	0.0142875
714.856	0.0138857
714.934	0.0137696
715.012	0.0135054
715.090	0.0134219
715.168	0.0132677
715.246	0.0132303
715.325	0.0132950
715.403	0.0134269
715.481	0.0134315
715.559	0.0136864
715.637	0.0138234
715.715	0.0140829
715.793	0.0142034
715.871	0.0142788
715.950	0.0143038
716.028	0.0142755
716.106	0.0143475
716.184	0.0142284
716.262	0.0143492
716.340	0.0142160
716.418	0.0141194
716.496	0.0139823
716.575	0.0139478
716.653	0.0139124
716.731	0.0138471
716.809	0.0136874
716.887	0.0138251
716.965	0.0138580
717.043	0.0138610
717.121	0.0139420
717.200	0.0136979
717.278	0.0138511
717.356	0.0138435
717.434	0.0139917
717.512	0.0140524
717.590	0.0141094
717.668	0.0142934
717.746	0.0146510
717.825	0.0146426
717.903	0.0148096
717.981	0.0148642
718.059	0.0148940
718.137	0.0147939
718.215	0.0148565
718.293	0.0148401
718.371	0.0146916
718.450	0.0142795
718.528	0.0141779
718.606	0.0140302
718.684	0.0139502
718.762	0.0136517
718.840	0.0136093
718.918	0.0135588
718.996	0.0135672
719.075	0.0135539
719.153	0.0136658
719.231	0.0136321
719.309	0.0136530
719.387	0.0137862
719.465	0.0137772
719.543	0.0139848
719.621	0.0140582
719.700	0.0140981
719.778	0.0141763
719.856	0.0142271
719.934	0.0142050
720.012	0.0142881
720.090	0.0141421
720.168	0.0139342
720.246	0.0138292
720.325	0.0139875
720.403	0.0138879
720.481	0.0139311
720.559	0.0140673
720.637	0.0139182
720.715	0.0139772
720.793	0.0140158
720.871	0.0142643
720.950	0.0142859
721.028	0.0142689
721.106	0.0143362
721.184	0.0143555
721.262	0.0144195
721.340	0.0142832
721.418	0.0144199
721.496	0.0145144
721.575	0.0145099
721.653	0.0145182
721.731	0.0146206
721.809	0.0146995
721.887	0.0147436
721.965	0.0145232
722.043	0.0144413
722.121	0.0143093
722.200	0.0141010
722.278	0.0141566
722.356	0.0140297
722.434	0.0138828
722.512	0.0138926
722.590	0.0135899
722.668	0.0136473
722.746	0.0139963
722.825	0.0137153
722.903	0.0138179
722.981	0.0138159
723.059	0.0139840
723.137	0.0137750
723.215	0.0139711
723.293	0.0138592
723.371	0.0138806
723.450	0.0140395
723.528	0.0140556
723.606	0.0138943
723.684	0.0139330
723.762	0.0141128
723.840	0.0139460
723.918	0.0139913
723.996	0.0141399
724.075	0.0140696
724.153	0.0141666
724.231	0.0141349
724.309	0.0142115
724.387	0.0143699
724.465	0.0143618
724.543	0.0142822
724.621	0.0142992
724.700	0.0142455
724.778	0.0142107
724.856	0.0142681
724.934	0.0142041
725.012	0.0141412
725.090	0.0141250
725.168	0.0140491
725.246	0.0141055
725.325	0.0139836
725.403	0.0139849
725.481	0.0139419
725.559	0.0138555
725.637	0.0140223
725.715	0.0141602
725.793	0.0141510
725.871	0.0143195
725.950	0.0143227
726.028	0.0143755
726.106	0.0144547
726.184	0.0146026
726.262	0.0144466
726.340	0.0144057
726.418	0.0142040
726.496	0.0142744
726.575	0.0141468
726.653	0.0139173
726.731	0.0138647
726.809	0.0137897
726.887	0.0136766
726.965	0.0136172
727.043	0.0135826
727.121	0.0137675
727.200	0.0135522
727.278	0.0135992
727.356	0.0136890
727.434	0.0135961
727.512	0.0138995
727.590	0.0139637
727.668	0.0140410
727.746	0.0143400
727.825	0.0142919
727.903	0.0143709
727.981	0.0144296
728.059	0.0143449
728.137	0.0144013
728.215	0.0143189
728.293	0.0144923
728.371	0.0142938
728.450	0.0142748
728.528	0.0143380
728.606	0.0144410
728.684	0.0143166
728.762	0.0143235
728.840	0.0141584
728.918	0.0142706
728.996	0.0141937
729.075	0.0141267
729.153	0.0142271
729.231	0.0140287
729.309	0.0139391
729.387	0.0138316
729.465	0.0139370
729.543	0.0138187
729.621	0.0137507
729.700	0.0137509
729.778	0.0137067
729.856	0.0137663
729.934	0.0137466
730.012	0.0138314
730.090	0.0138489
730.168	0.0138560
730.246	0.0141186
730.325	0.0143215
730.403	0.0143749
730.481	0.0144349
730.559	0.0144241
730.637	0.0145570
730.715	0.0144627
730.793	0.0145560
730.871	0.0143813
730.950	0.0143533
731.028	0.0142451
731.106	0.0142609
731.184	0.0142130
731.262	0.0142934
731.340	0.0143510
731.418	0.0141795
731.496	0.0139744
731.575	0.0140713
731.653	0.0140908
731.731	0.0141515
731.809	0.0141898
731.887	0.0141433
731.965	0.0142153
732.043	0.0141722
732.121	0.0142263
732.200	0.0140857
732.278	0.0140335
732.356	0.0141411
732.434	0.0142173
732.512	0.0140480
732.590	0.0139369
732.668	0.0139835
732.746	0.0139424
732.825	0.0138741
732.903	0.0140231
732.981	0.0141242
733.059	0.0140841
733.137	0.0139883
733.215	0.0140168
733.293	0.0141203
733.371	0.0141674
733.450	0.0142416
733.528	0.0141949
733.606	0.0141082
733.684	0.0141699
733.762	0.0140172
733.840	0.0141338
733.918	0.0141603
733.996	0.0139349
734.075	0.0139888
734.153	0.0138818
734.231	0.0137739
734.309	0.0137782
734.387	0.0140147
734.465	0.0141129
734.543	0.0140875
734.621	0.0140885
734.700	0.0144401
734.778	0.0144804
734.856	0.0144208
734.934	0.0147649
735.012	0.0145966
735.090	0.0146999
735.168	0.0147295
735.246	0.0145766
735.325	0.0145637
735.403	0.0145441
735.481	0.0146519
735.559	0.0144208
735.637	0.0143499
735.715	0.0142694
735.793	0.0141436
735.871	0.0140758
735.950	0.0138497
736.028	0.0140195
736.106	0.0139811
736.184	0.0139235
736.262	0.0138292
736.340	0.0139043
736.418	0.0139275
736.496	0.0139133
736.575	0.0140308
736.653	0.0139675
736.731	0.0139759
736.809	0.0140392
736.887	0.0138995
736.965	0.0139317
737.043	0.0140262
737.121	0.0140115
737.200	0.0139191
737.278	0.0138830
737.356	0.0138123
737.434	0.0139131
737.512	0.0138844
737.590	0.0137645
737.668	0.0138989
737.746	0.0139258
737.825	0.0140402
737.903	0.0141126
737.981	0.0142290
738.059	0.0142841
738.137	0.0144169
738.215	0.0143101
738.293	0.0144891
738.371	0.0146078
738.450	0.0144700
738.528	0.0145207
738.606	0.0144250
738.684	0.0145427
738.762	0.0145288
738.840	0.0146241
738.918	0.0143360
738.996	0.0141975
739.075	0.0142688
739.153	0.0142421
739.231	0.0141000
739.309	0.0140601
739.387	0.0141074
739.465	0.0139103
739.543	0.0138953
739.621	0.0140015
739.700	0.0140620
739.778	0.0140675
739.856	0.0141492
739.934	0.0141617
740.012	0.0141817
740.090	0.0141251
740.168	0.0140718
740.246	0.0139558
740.325	0.0141946
740.403	0.0140284
740.481	0.0139586
740.559	0.0140631
740.637	0.0139310
740.715	0.0139433
740.793	0.0139056
740.871	0.0138924
740.950	0.0137160
741.028	0.0138741
741.106	0.0138005
741.184	0.0137608
741.262	0.0138553
741.340	0.0138773
741.418	0.0138020
741.496	0.0138390
741.575	0.0138306
741.653	0.0138573
741.731	0.0138950
741.809	0.0138282
741.887	0.0139986
741.965	0.0138473
742.043	0.0138972
742.121	0.0141269
742.200	0.0141935
742.278	0.0140438
742.356	0.0142410
742.434	0.0143039
742.512	0.0144238
742.590	0.0145003
742.668	0.0144785
742.746	0.0144843
742.825	0.0144769
742.903	0.0145488
742.981	0.0144813
743.059	0.0145820
743.137	0.0144512
743.215	0.0142640
743.293	0.0140749
743.371	0.0140871
743.450	0.0140319
743.528	0.0139889
743.606	0.0138881
743.684	0.0139659
743.762	0.0138790
743.840	0.0139861
743.918	0.0140004
743.996	0.0139976
744.075	0.0140152
744.153	0.0139955
744.231	0.0139973
744.309	0.0140892
744.387	0.0139425
744.465	0.0140424
744.543	0.0141269
744.621	0.0140340
744.700	0.0141522
744.778	0.0138439
744.856	0.0139782
744.934	0.0140446
745.012	0.0139138
745.090	0.0138767
745.168	0.0138979
745.246	0.0138964
745.325	0.0138731
745.403	0.0140189
745.481	0.0140365
745.559	0.0140687
745.637	0.0141703
745.715	0.0141411
745.793	0.0142486
745.871	0.0142047
745.950	0.0141405
746.028	0.0140207
746.106	0.0141575
746.184	0.0142569
746.262	0.0142337
746.340	0.0142408
746.418	0.0141333
746.496	0.0141939
746.575	0.0141156
746.653	0.0141486
746.731	0.0140913
746.809	0.0141468
746.887	0.0140621
746.965	0.0140713
747.043	0.0142246
747.121	0.0141145
747.200	0.0141266
747.278	0.0141088
747.356	0.0140993
747.434	0.0140642
747.512	0.0142098
747.590	0.0140859
747.668	0.0141196
747.746	0.0139825
747.825	0.0140718
747.903	0.0140607
747.981	0.0141202
748.059	0.0141584
748.137	0.0141046
748.215	0.0141108
748.293	0.0141711
748.371	0.0140802
748.450	0.0141579
748.528	0.0141240
748.606	0.0140753
748.684	0.0141647
748.762	0.0141919
748.840	0.0141817
748.918	0.0141827
748.996	0.0141031
749.075	0.0142461
749.153	0.0141575
749.231	0.0141203
749.309	0.0139961
749.387	0.0139559
749.465	0.0139289
749.543	0.0140850
749.621	0.0140782
749.700	0.0139283
749.778	0.0138442
749.856	0.0139850
749.934	0.0139224
750.012	0.0140324
750.090	0.0140226
750.168	0.0138918
750.246	0.0141896
750.325	0.0142024
750.403	0.0141778
750.481	0.0142185
750.559	0.0142053
750.637	0.0142393
750.715	0.0143298
750.793	0.0142802
750.871	0.0141966
750.950	0.0142021
751.028	0.0142426
751.106	0.0142960
751.184	0.0140629
751.262	0.0141085
751.340	0.0140999
751.418	0.0141290
751.496	0.0139926
751.575	0.0139343
751.653	0.0140266
751.731	0.0141310
751.809	0.0141171
751.887	0.0140321
751.965	0.0142223
752.043	0.0141521
752.121	0.0141568
752.200	0.0140126
752.278	0.0142590
752.356	0.0143932
752.434	0.0143794
752.512	0.0143448
752.590	0.0142831
752.668	0.0144400
752.746	0.0142977
752.825	0.0142340
752.903	0.0141017
752.981	0.0141383
753.059	0.0144084
753.137	0.0143177
753.215	0.0142049
753.293	0.0139729
753.371	0.0140897
753.450	0.0141389
753.528	0.0141665
753.606	0.0141727
753.684	0.0139922
753.762	0.0139159
753.840	0.0139996
753.918	0.0140743
753.996	0.0139998
754.075	0.0139289
754.153	0.0140536
754.231	0.0140231
754.309	0.0141286
754.387	0.0141204
754.465	0.0140847
754.543	0.0141750
754.621	0.0140269
754.700	0.0140178
754.778	0.0141732
754.856	0.0142950
754.934	0.0141637
755.012	0.0141683
755.090	0.0142188
755.168	0.0142082
755.246	0.0142066
755.325	0.0142955
755.403	0.0142588
755.481	0.0140211
755.559	0.0141418
755.637	0.0141453
755.715	0.0142137
755.793	0.0140751
755.871	0.0142059
755.950	0.0140819
756.028	0.0140308
756.106	0.0141061
756.184	0.0141419
756.262	0.0140990
756.340	0.0141399
756.418	0.0142488
756.496	0.0141438
756.575	0.0141350
756.653	0.0143388
756.731	0.0141740
756.809	0.0141729
756.887	0.0141644
756.965	0.0140699
757.043	0.0142471
757.121	0.0141422
757.200	0.0141595
757.278	0.0140819
757.356	0.0139397
757.434	0.0140918
757.512	0.0140578
757.590	0.0138865
757.668	0.0138611
757.746	0.0139209
757.825	0.0140050
757.903	0.0140162
757.981	0.0140727
758.059	0.0140316
758.137	0.0140919
758.215	0.0140298
758.293	0.0141008
758.371	0.0142162
758.450	0.0141941
758.528	0.0139197
758.606	0.0141001
758.684	0.0141668
758.762	0.0141539
758.840	0.0139702
758.918	0.0141665
758.996	0.0142192
759.075	0.0140620
759.153	0.0140413
759.231	0.0141537
759.309	0.0139887
759.387	0.0139558
759.465	0.0141685
759.543	0.0140411
759.621	0.0140296
759.700	0.0141039
759.778	0.0142061
759.856	0.0141936
759.934	0.0140641
760.012	0.0141579
760.090	0.0141666
760.168	0.0142087
760.246	0.0141742
760.325	0.0141010
760.403	0.0140234
760.481	0.0140810
760.559	0.0141706
760.637	0.0142425
760.715	0.0140094
760.793	0.0140973
760.871	0.0140253
760.950	0.0140299
761.028	0.0139675
761.106	0.0139420
761.184	0.0139180
761.262	0.0139018
761.340	0.0140952
761.418	0.0140312
761.496	0.0139461
761.575	0.0139050
761.653	0.0140765
761.731	0.0140259
761.809	0.0139936
761.887	0.0139964
761.965	0.0141895
762.043	0.0140839
762.121	0.0140505
762.200	0.0140206
762.278	0.0139156
762.356	0.0140458
762.434	0.0141251
762.512	0.0141329
762.590	0.0140123
762.668	0.0140938
762.746	0.0141679
762.825	0.0141638
762.903	0.0142970
762.981	0.0142017
763.059	0.0141113
763.137	0.0142652
763.215	0.0142973
763.293	0.0142004
763.371	0.0142612
763.450	0.0140857
763.528	0.0142152
763.606	0.0142085
763.684	0.0142090
763.762	0.0141068
763.840	0.0143018
763.918	0.0143110
763.996	0.0143819
764.075	0.0141762
764.153	0.0141489
764.231	0.0142603
764.309	0.0141933
764.387	0.0142214
764.465	0.0141921
764.543	0.0141315
764.621	0.0141315
764.700	0.0140050
764.778	0.0139101
764.856	0.0141187
764.934	0.0140656
765.012	0.0140514
765.090	0.0140474
765.168	0.0139357
765.246	0.0140193
765.325	0.0141279
765.403	0.0141078
765.481	0.0140300
765.559	0.0140498
765.637	0.0138773
765.715	0.0141852
765.793	0.0141251
765.871	0.0139974
765.950	0.0140403
766.028	0.0141515
766.106	0.0141785
766.184	0.0141650
766.262	0.0141414
766.340	0.0143008
766.418	0.0141409
766.496	0.0142091
766.575	0.0142634
766.653	0.0141766
766.731	0.0142304
766.809	0.0143116
766.887	0.0141987
766.965	0.0141360
767.043	0.0142722
767.121	0.0141795
767.200	0.0142686
767.278	0.0142629
767.356	0.0141506
767.434	0.0141925
767.512	0.0142118
767.590	0.0141541
767.668	0.0141731
767.746	0.0140444
767.825	0.0142094
767.903	0.0140619
767.981	0.0141619
768.059	0.0142232
768.137	0.0142200
768.215	0.0141509
768.293	0.0140069
768.371	0.0141162
768.450	0.0140702
768.528	0.0140596
768.606	0.0141180
768.684	0.0142387
768.762	0.0141368
768.840	0.0141101
768.918	0.0139672
768.996	0.0141402
769.075	0.0140522
769.153	0.0140754
769.231	0.0140999
769.309	0.0141000
769.387	0.0139700
769.465	0.0140343
769.543	0.0141630
769.621	0.0141861
769.700	0.0140987
769.778	0.0141032
769.856	0.0142628
769.934	0.0142181
770.012	0.0141636
770.090	0.0142048
770.168	0.0142010
770.246	0.0140871
770.325	0.0144044
770.403	0.0142652
770.481	0.0142707
770.559	0.0141550
770.637	0.0143006
770.715	0.0142630
770.793	0.0143306
770.871	0.0144312
770.950	0.0143629
771.028	0.0143410
771.106	0.0142176
771.184	0.0142662
771.262	0.0143568
771.340	0.0141884
771.418	0.0141093
771.496	0.0142666
771.575	0.0142407
771.653	0.0142383
771.731	0.0142010
771.809	0.0141275
771.887	0.0140144
771.965	0.0140575
772.043	0.0142612
772.121	0.0141875
772.200	0.0142384
772.278	0.0141048
772.356	0.0139890
772.434	0.0139637
772.512	0.0140273
772.590	0.0140937
772.668	0.0142477
772.746	0.0140382
772.825	0.0140804
772.903	0.0141169
772.981	0.0141677
773.059	0.0140331
773.137	0.0139822
773.215	0.0140238
773.293	0.0141110
773.371	0.0140748
773.450	0.0141584
773.528	0.0140776
773.606	0.0140901
773.684	0.0140350
773.762	0.0138462
773.840	0.0141044
773.918	0.0141658
773.996	0.0141782
774.075	0.0142002
774.153	0.0140975
774.231	0.0141756
774.309	0.0143184
774.387	0.0142387
774.465	0.0142615
774.543	0.0141985
774.621	0.0141106
774.700	0.0143270
774.778	0.0141216
774.856	0.0141372
774.934	0.0142200
775.012	0.0142097
775.090	0.0141919
775.168	0.0141169
775.246	0.0143143
775.325	0.0142217
775.403	0.0142538
775.481	0.0143967
775.559	0.0140303
775.637	0.0141950
775.715	0.0142736
775.793	0.0141213
775.871	0.0140712
775.950	0.0141873
776.028	0.0141711
776.106	0.0141261
776.184	0.0140756
776.262	0.0141068
776.340	0.0140916
776.418	0.0139799
776.496	0.0139954
776.575	0.0140665
776.653	0.0140939
776.731	0.0141071
776.809	0.0141814
776.887	0.0140520
776.965	0.0141499
777.043	0.0141653
777.121	0.0140745
777.200	0.0139731
777.278	0.0139729
777.356	0.0140955
777.434	0.0141001
777.512	0.0140134
777.590	0.0141419
777.668	0.0140573
777.746	0.0141370
777.825	0.0141205
777.903	0.0141580
777.981	0.0140196
778.059	0.0140993
778.137	0.0141904
778.215	0.0141734
778.293	0.0141302
778.371	0.0142276
778.450	0.0142247
778.528	0.0140480
778.606	0.0141594
778.684	0.0142442
778.762	0.0141698
778.840	0.0141795
778.918	0.0142500
778.996	0.0143900
779.075	0.0141991
779.153	0.0142233
779.231	0.0141454
779.309	0.0141617
779.387	0.0141644
779.465	0.0140346
779.543	0.0139844
779.621	0.0140633
779.700	0.0140312
779.778	0.0141925
779.856	0.0141087
779.934	0.0139634
780.012	0.0139906
780.090	0.0139715
780.168	0.0138665
780.246	0.0139322
780.325	0.0140052
780.403	0.0140428
780.481	0.0140392
780.559	0.0139508
780.637	0.0140112
780.715	0.0140401
780.793	0.0140560
780.871	0.0141348
780.950	0.0140330
781.028	0.0140105
781.106	0.0143200
781.184	0.0141100
781.262	0.0140192
781.340	0.0140718
781.418	0.0141265
781.496	0.0142692
781.575	0.0140511
781.653	0.0139767
781.731	0.0140536
781.809	0.0142011
781.887	0.0141998
781.965	0.0142539
782.043	0.0141620
782.121	0.0142323
782.200	0.0142802
782.278	0.0141466
782.356	0.0142384
782.434	0.0142420
782.512	0.0141576
782.590	0.0141512
782.668	0.0140710
782.746	0.0141261
782.825	0.0140807
782.903	0.0142547
782.981	0.0143329
783.059	0.0141710
783.137	0.0142464
783.215	0.0142381
783.293	0.0142386
783.371	0.0142239
783.450	0.0141223
783.528	0.0142860
783.606	0.0142754
783.684	0.0141801
783.762	0.0141046
783.840	0.0142082
783.918	0.0140881
783.996	0.0139793
784.075	0.0140799
784.153	0.0140798
784.231	0.0139336
784.309	0.0140394
784.387	0.0139210
784.465	0.0139926
784.543	0.0140022
784.621	0.0139680
784.700	0.0139712
784.778	0.0139697
784.856	0.0140305
784.934	0.0140216
785.012	0.0139888
785.090	0.0140541
785.168	0.0140438
785.246	0.0140128
785.325	0.0140259
785.403	0.0142136
785.481	0.0140951
785.559	0.0140560
785.637	0.0141409
785.715	0.0140424
785.793	0.0140476
785.871	0.0140284
785.950	0.0140633
786.028	0.0141866
786.106	0.0141278
786.184	0.0140472
786.262	0.0141451
786.340	0.0143265
786.418	0.0142255
786.496	0.0142553
786.575	0.0143017
786.653	0.0142097
786.731	0.0141920
786.809	0.0141945
786.887	0.0142305
786.965	0.0141838
787.043	0.0142938
787.121	0.0142127
787.200	0.0143462
787.278	0.0142847
787.356	0.0141975
787.434	0.0142069
787.512	0.0141782
787.590	0.0143761
787.668	0.0141362
787.746	0.0143396
787.825	0.0143098
787.903	0.0144140
787.981	0.0141594
788.059	0.0141331
788.137	0.0141309
788.215	0.0142137
788.293	0.0141923
788.371	0.0142038
788.450	0.0141386
788.528	0.0141314
788.606	0.0140815
788.684	0.0142217
788.762	0.0141743
788.840	0.0141072
788.918	0.0141340
788.996	0.0142101
789.075	0.0140953
789.153	0.0140495
789.231	0.0141231
789.309	0.0141430
789.387	0.0142229
789.465	0.0140707
789.543	0.0141623
789.621	0.0140829
789.700	0.0140589
789.778	0.0140832
789.856	0.0141655
789.934	0.0140807
790.012	0.0140798
790.090	0.0142149
790.168	0.0140968
790.246	0.0141329
790.325	0.0140809
790.403	0.0141635
790.481	0.0141485
790.559	0.0142116
790.637	0.0142268
790.715	0.0143980
790.793	0.0141727
790.871	0.0139997
790.950	0.0140782
791.028	0.0142404
791.106	0.0141894
791.184	0.0141560
791.262	0.0141431
791.340	0.0141036
791.418	0.0142023
791.496	0.0140607
791.575	0.0139854
791.653	0.0140456
791.731	0.0140892
791.809	0.0142237
791.887	0.0140972
791.965	0.0141611
792.043	0.0141385
792.121	0.0141017
792.200	0.0139581
792.278	0.0143239
792.356	0.0142206
792.434	0.0140511
792.512	0.0141147
792.590	0.0141138
792.668	0.0142354
792.746	0.0142753
792.825	0.0141083
792.903	0.0141254
792.981	0.0141398
793.059	0.0141219
793.137	0.0142107
793.215	0.0140342
793.293	0.0140297
793.371	0.0141429
793.450	0.0139645
793.528	0.0138702
793.606	0.0138750
793.684	0.0140044
793.762	0.0140956
793.840	0.0140657
793.918	0.0141143
793.996	0.0141284
794.075	0.0141621
794.153	0.0140990
794.231	0.0140482
794.309	0.0141137
794.387	0.0142064
794.465	0.0142152
794.543	0.0141178
794.621	0.0141112
794.700	0.0142121
794.778	0.0142677
794.856	0.0141398
794.934	0.0141551
795.012	0.0140675
795.090	0.0141209
795.168	0.0141682
795.246	0.0141349
795.325	0.0141229
795.403	0.0142236
795.481	0.0141050
795.559	0.0142352
795.637	0.0141445
795.715	0.0140916
795.793	0.0142444
795.871	0.0141600
795.950	0.0141543
796.028	0.0141508
796.106	0.0140646
796.184	0.0142689
796.262	0.0141544
796.340	0.0140034
796.418	0.0141365
796.496	0.0139967
796.575	0.0140768
796.653	0.0140101
796.731	0.0139567
796.809	0.0140569
796.887	0.0140605
796.965	0.0140962
797.043	0.0141037
797.121	0.0142300
797.200	0.0141067
797.278	0.0140738
797.356	0.0141981
797.434	0.0141094
797.512	0.0141193
797.590	0.0140747
797.668	0.0140562
797.746	0.0141292
797.825	0.0141135
797.903	0.0141630
797.981	0.0142646
798.059	0.0142504
798.137	0.0140876
798.215	0.0140997
798.293	0.0141013
798.371	0.0140314
798.450	0.0141537
798.528	0.0141985
798.606	0.0141806
798.684	0.0141499
798.762	0.0142729
798.840	0.0141717
798.918	0.0141415
798.996	0.0142742
799.075	0.0141460
799.153	0.0142573
799.231	0.0142113
799.309	0.0142788
799.387	0.0142030
799.465	0.0141884
799.543	0.0141914
799.621	0.0140656
799.700	0.0142317
799.778	0.0141483
799.856	0.0139984
799.934	0.0142956
800.012	0.0141705
800.090	0.0141608
800.168	0.0140969
800.246	0.0141348
800.325	0.0141595
800.403	0.0139962
800.481	0.0140443
800.559	0.0141544
800.637	0.0141335
800.715	0.0142115
800.793	0.0142474
800.871	0.0141724
800.950	0.0142532
801.028	0.0141273
801.106	0.0141096
801.184	0.0141409
801.262	0.0141879
801.340	0.0141204
801.418	0.0140596
801.496	0.0140894
801.575	0.0140963
801.653	0.0140107
801.731	0.0140035
801.809	0.0138667
801.887	0.0139421
801.965	0.0140105
802.043	0.0141361
802.121	0.0140551
802.200	0.0140797
802.278	0.0141520
802.356	0.0141154
802.434	0.0140884
802.512	0.0142061
802.590	0.0141668
802.668	0.0141000
802.746	0.0141172
802.825	0.0142672
802.903	0.0142472
802.981	0.0142677
803.059	0.0141403
803.137	0.0141441
803.215	0.0143024
803.293	0.0143002
803.371	0.0140793
803.450	0.0141441
803.528	0.0143050
803.606	0.0142049
803.684	0.0143230
803.762	0.0140074
803.840	0.0142268
803.918	0.0141759
803.996	0.0141117
804.075	0.0142193
804.153	0.0140625
804.231	0.0141911
804.309	0.0142512
804.387	0.0141376
804.465	0.0140752
804.543	0.0140258
804.621	0.0141577
804.700	0.0141447
804.778	0.0140325
804.856	0.0141387
804.934	0.0142118
805.012	0.0140272
805.090	0.0141126
805.168	0.0140587
805.246	0.0139100
805.325	0.0142695
805.403	0.0142941
805.481	0.0141638
805.559	0.0141283
805.637	0.0141376
805.715	0.0141991
805.793	0.0141574
805.871	0.0140729
805.950	0.0140416
806.028	0.0142559
806.106	0.0141055
806.184	0.0141678
806.262	0.0141127
806.340	0.0141972
806.418	0.0142439
806.496	0.0143387
806.575	0.0142426
806.653	0.0143069
806.731	0.0141148
806.809	0.0142633
806.887	0.0142239
806.965	0.0142581
807.043	0.0143876
807.121	0.0142419
807.200	0.0143084
807.278	0.0142115
807.356	0.0142424
807.434	0.0142017
807.512	0.0140955
807.590	0.0142512
807.668	0.0140959
807.746	0.0141841
807.825	0.0141555
807.903	0.0141280
807.981	0.0139267
808.059	0.0141125
808.137	0.0138904
808.215	0.0139590
808.293	0.0140430
808.371	0.0139736
808.450	0.0140851
808.528	0.0140696
808.606	0.0141070
808.684	0.0141125
808.762	0.0141332
808.840	0.0141289
808.918	0.0140894
808.996	0.0140813
809.075	0.0141066
809.153	0.0140432
809.231	0.0140244
809.309	0.0141741
809.387	0.0142566
809.465	0.0142364
809.543	0.0141002
809.621	0.0143026
809.700	0.0141361
809.778	0.0141412
809.856	0.0142547
809.934	0.0141720
810.012	0.0140577
810.090	0.0141499
810.168	0.0142316
810.246	0.0142087
810.325	0.0142542
810.403	0.0142549
810.481	0.0142379
810.559	0.0139902
810.637	0.0140977
810.715	0.0141331
810.793	0.0140682
810.871	0.0141394
810.950	0.0142405
811.028	0.0142248
811.106	0.0141666
811.184	0.0141623
811.262	0.0141216
811.340	0.0141420
811.418	0.0140932
811.496	0.0141353
811.575	0.0141824
811.653	0.0140727
811.731	0.0141566
811.809	0.0140331
811.887	0.0140671
811.965	0.0141138
812.043	0.0141530
812.121	0.0140546
812.200	0.0140298
812.278	0.0140694
812.356	0.0141541
812.434	0.0141235
812.512	0.0140399
812.590	0.0140827
812.668	0.0141617
812.746	0.0141248
812.825	0.0141721
812.903	0.0141573
812.981	0.0141357
813.059	0.0142277
813.137	0.0142084
813.215	0.0140907
813.293	0.0141683
813.371	0.0141031
813.450	0.0141794
813.528	0.0141315
813.606	0.0142854
813.684	0.0142356
813.762	0.0140953
813.840	0.0141183
813.918	0.0141490
813.996	0.0140331
814.075	0.0140748
814.153	0.0140696
814.231	0.0141096
814.309	0.0142188
814.387	0.0140561
814.465	0.0141505
814.543	0.0140236
814.621	0.0141233
814.700	0.0141869
814.778	0.0139864
814.856	0.0141199
814.934	0.0142203
815.012	0.0142109
815.090	0.0141631
815.168	0.0142054
815.246	0.0140845
815.325	0.0141359
815.403	0.0141905
815.481	0.0141318
815.559	0.0141742
815.637	0.0140661
815.715	0.0140102
815.793	0.0140942
815.871	0.0142236
815.950	0.0141270
816.028	0.0141631
816.106	0.0139586
816.184	0.0140524
816.262	0.0140772
816.340	0.0140609
816.418	0.0139960
816.496	0.0140421
816.575	0.0140699
816.653	0.0140239
816.731	0.0140217
816.809	0.0139649
816.887	0.0140006
816.965	0.0140459
817.043	0.0141502
817.121	0.0141606
817.200	0.0140476
817.278	0.0141556
817.356	0.0140878
817.434	0.0140607
817.512	0.0141704
817.590	0.0142105
817.668	0.0142103
817.746	0.0141615
817.825	0.0141515
817.903	0.0140623
817.981	0.0142641
818.059	0.0141444
818.137	0.0141216
818.215	0.0141682
818.293	0.0141038
818.371	0.0141191
818.450	0.0142200
818.528	0.0141576
818.606	0.0139996
818.684	0.0140202
818.762	0.0141023
818.840	0.0139910
818.918	0.0141153
818.996	0.0140837
819.075	0.0140447
819.153	0.0140085
819.231	0.0140833
819.309	0.0140540
819.387	0.0140443
819.465	0.0141238
819.543	0.0140508
819.621	0.0142635
819.700	0.0140488
819.778	0.0140104
819.856	0.0140627
819.934	0.0141338
820.012	0.0140622
820.090	0.0140907
820.168	0.0141512
820.246	0.0140842
820.325	0.0141151
820.403	0.0141350
820.481	0.0140833
820.559	0.0140712
820.637	0.0141652
820.715	0.0142052
820.793	0.0141767
820.871	0.0140650
820.950	0.0141237
821.028	0.0141682
821.106	0.0141502
821.184	0.0141041
821.262	0.0142436
821.340	0.0140880
821.418	0.0140622
821.496	0.0140697
821.575	0.0140614
821.653	0.0141163
821.731	0.0141751
821.809	0.0141898
821.887	0.0141502
821.965	0.0140617
822.043	0.0142248
822.121	0.0141528
822.200	0.0140954
822.278	0.0142913
822.356	0.0141061
822.434	0.0140902
822.512	0.0140427
822.590	0.0141441
822.668	0.0141654
822.746	0.0141068
822.825	0.0138923
822.903	0.0140936
822.981	0.0140357
823.059	0.0140081
823.137	0.0142365
823.215	0.0140673
823.293	0.0139291
823.371	0.0140717
823.450	0.0141096
823.528	0.0140329
823.606	0.0140229
823.684	0.0140620
823.762	0.0142196
823.840	0.0139837
823.918	0.0140254
823.996	0.0141367
824.075	0.0141006
824.153	0.0140858
824.231	0.0141586
824.309	0.0141261
824.387	0.0141390
824.465	0.0142598
824.543	0.0141457
824.621	0.0141899
824.700	0.0140961
824.778	0.0141787
824.856	0.0141267
824.934	0.0140965
825.012	0.0142268
825.090	0.0143206
825.168	0.0141492
825.246	0.0141228
825.325	0.0141386
825.403	0.0139922
825.481	0.0142085
825.559	0.0141276
825.637	0.0141232
825.715	0.0141017
825.793	0.0140240
825.871	0.0140286
825.950	0.0140459
826.028	0.0141100
826.106	0.0141115
826.184	0.0141772
826.262	0.0142903
826.340	0.0141316
826.418	0.0141687
826.496	0.0141755
826.575	0.0141800
826.653	0.0141089
826.731	0.0141710
826.809	0.0141350
826.887	0.0141249
826.965	0.0139886
827.043	0.0141280
827.121	0.0139919
827.200	0.0140840
827.278	0.0142695
827.356	0.0141988
827.434	0.0141319
827.512	0.0139900
827.590	0.0141039
827.668	0.0141606
827.746	0.0140881
827.825	0.0141599
827.903	0.0140822
827.981	0.0142164
828.059	0.0142292
828.137	0.0141190
828.215	0.0142956
828.293	0.0141763
828.371	0.0141982
828.450	0.0141891
828.528	0.0141776
828.606	0.0140527
828.684	0.0141756
828.762	0.0141803
828.840	0.0140598
828.918	0.0140808
828.996	0.0140400
829.075	0.0141422
829.153	0.0140682
829.231	0.0141066
829.309	0.0139619
829.387	0.0141204
829.465	0.0140713
829.543	0.0140908
829.621	0.0141196
829.700	0.0140419
829.778	0.0141164
829.856	0.0140244
829.934	0.0141885
830.012	0.0141914
830.090	0.0140716
830.168	0.0139414
830.246	0.0140443
830.325	0.0141116
830.403	0.0143023
830.481	0.0141619
830.559	0.0140915
830.637	0.0140064
830.715	0.0140733
830.793	0.0142545
830.871	0.0140707
830.950	0.0140327
831.028	0.0141805
831.106	0.0142645
831.184	0.0142929
831.262	0.0143864
831.340	0.0143259
831.418	0.0144018
831.496	0.0142265
831.575	0.0141760
831.653	0.0143048
831.731	0.0142143
831.809	0.0142998
831.887	0.0142176
831.965	0.0141745
832.043	0.0142481
832.121	0.0141200
832.200	0.0141856
832.278	0.0141727
832.356	0.0140739
832.434	0.0142508
832.512	0.0140433
832.590	0.0140234
832.668	0.0140273
832.746	0.0140738
832.825	0.0140273
832.903	0.0141240
832.981	0.0140185
833.059	0.0142329
833.137	0.0141206
833.215	0.0142397
833.293	0.0142026
833.371	0.0141026
833.450	0.0142655
833.528	0.0140677
833.606	0.0140464
833.684	0.0142786
833.762	0.0141022
833.840	0.0140054
833.918	0.0140951
833.996	0.0141242
834.075	0.0139977
834.153	0.0140227
834.231	0.0141211
834.309	0.0141229
834.387	0.0140968
834.465	0.0141761
834.543	0.0141664
834.621	0.0140333
834.700	0.0141127
834.778	0.0141075
834.856	0.0141045
834.934	0.0141912
835.012	0.0141363
835.090	0.0141016
835.168	0.0140969
835.246	0.0140691
835.325	0.0142122
835.403	0.0140686
835.481	0.0140327
835.559	0.0140511
835.637	0.0140200
835.715	0.0141639
835.793	0.0139370
835.871	0.0140657
835.950	0.0141664
836.028	0.0142315
836.106	0.0141649
836.184	0.0140847
836.262	0.0140918
836.340	0.0141113
836.418	0.0141728
836.496	0.0140769
836.575	0.0140831
836.653	0.0142634
836.731	0.0141909
836.809	0.0140741
836.887	0.0140991
836.965	0.0141118
837.043	0.0142480
837.121	0.0142480
837.200	0.0141916
837.278	0.0141156
837.356	0.0141232
837.434	0.0141164
837.512	0.0140974
837.590	0.0141419
837.668	0.0141142
837.746	0.0138816
837.825	0.0139392
837.903	0.0139385
837.981	0.0140384
838.059	0.0138292
838.137	0.0139644
838.215	0.0140689
838.293	0.0140200
838.371	0.0138844
838.450	0.0141654
838.528	0.0139443
838.606	0.0140316
838.684	0.0140344
838.762	0.0140359
838.840	0.0139687
838.918	0.0141682
838.996	0.0141946
839.075	0.0141000
839.153	0.0141634
839.231	0.0142655
839.309	0.0140756
839.387	0.0140541
839.465	0.0140620
839.543	0.0141974
839.621	0.0142056
839.700	0.0140838
839.778	0.0139619
839.856	0.0141063
839.934	0.0141489
840.012	0.0141030
840.090	0.0140791
840.168	0.0142058
840.246	0.0140651
840.325	0.0142326
840.403	0.0141199
840.481	0.0139563
840.559	0.0141766
840.637	0.0142007
840.715	0.0139755
840.793	0.0140260
840.871	0.0140854
840.950	0.0141106
841.028	0.0142979
841.106	0.0141493
841.184	0.0141580
841.262	0.0141012
841.340	0.0141744
841.418	0.0140343
841.496	0.0140934
841.575	0.0140771
841.653	0.0141200
841.731	0.0141988
841.809	0.0141290
841.887	0.0140211
841.965	0.0140475
842.043	0.0141727
842.121	0.0141837
842.200	0.0141740
842.278	0.0139754
842.356	0.0141427
842.434	0.0141145
842.512	0.0140681
842.590	0.0140337
842.668	0.0140512
842.746	0.0139571
842.825	0.0141458
842.903	0.0140508
842.981	0.0140300
843.059	0.0140668
843.137	0.0139742
843.215	0.0141073
843.293	0.0140929
843.371	0.0142406
843.450	0.0140865
843.528	0.0141004
843.606	0.0141231
843.684	0.0140675
843.762	0.0140375
843.840	0.0140766
843.918	0.0140275
843.996	0.0140205
844.075	0.0141209
844.153	0.0142736
844.231	0.0141529
844.309	0.0141556
844.387	0.0141824
844.465	0.0141523
844.543	0.0140939
844.621	0.0142392
844.700	0.0143006
844.778	0.0141756
844.856	0.0141124
844.934	0.0141542
845.012	0.0142104
845.090	0.0139935
845.168	0.0140459
845.246	0.0142570
845.325	0.0142009
845.403	0.0141486
845.481	0.0140390
845.559	0.0141518
845.637	0.0140515
845.715	0.0140708
845.793	0.0140861
845.871	0.0141592
845.950	0.0140060
846.028	0.0140174
846.106	0.0140785
846.184	0.0141145
846.262	0.0141184
846.340	0.0141424
846.418	0.0140385
846.496	0.0141229
846.575	0.0140787
846.653	0.0140954
846.731	0.0141648
846.809	0.0140585
846.887	0.0141953
846.965	0.0139981
847.043	0.0141588
847.121	0.0141691
847.200	0.0141563
847.278	0.0142479
847.356	0.0142448
847.434	0.0142946
847.512	0.0141293
847.590	0.0142377
847.668	0.0140331
847.746	0.0141451
847.825	0.0142883
847.903	0.0142214
847.981	0.0143323
848.059	0.0142038
848.137	0.0141232
848.215	0.0140823
848.293	0.0141854
848.371	0.0140970
848.450	0.0142380
848.528	0.0142422
848.606	0.0141383
848.684	0.0141061
848.762	0.0141170
848.840	0.0140414
848.918	0.0141705
848.996	0.0142233
849.075	0.0140034
849.153	0.0142197
849.231	0.0143134
849.309	0.0141140
849.387	0.0141483
849.465	0.0143402
849.543	0.0142978
849.621	0.0141623
849.700	0.0141688
849.778	0.0139501
849.856	0.0140717
849.934	0.0141743
850.012	0.0141196
850.090	0.0141459
850.168	0.0141516
850.246	0.0140476
850.325	0.0141486
850.403	0.0141682
850.481	0.0141653
850.559	0.0141406
850.637	0.0140725
850.715	0.0140279
850.793	0.0141397
850.871	0.0140389
850.950	0.0141698
851.028	0.0140628
851.106	0.0142055
851.184	0.0140987
851.262	0.0141620
851.340	0.0141184
851.418	0.0141850
851.496	0.0142027
851.575	0.0141810
851.653	0.0142279
851.731	0.0141739
851.809	0.0143257
851.887	0.0140841
851.965	0.0141010
852.043	0.0143082
852.121	0.0140027
852.200	0.0141859
852.278	0.0141760
852.356	0.0141909
852.434	0.0140434
852.512	0.0141005
852.590	0.0142203
852.668	0.0140299
852.746	0.0141048
852.825	0.0140819
852.903	0.0140896
852.981	0.0140276
853.059	0.0140901
853.137	0.0142185
853.215	0.0140622
853.293	0.0141294
853.371	0.0139420
853.450	0.0141033
853.528	0.0142682
853.606	0.0141636
853.684	0.0141618
853.762	0.0141825
853.840	0.0140593
853.918	0.0140561
853.996	0.0140635
854.075	0.0141167
854.153	0.0141689
854.231	0.0141165
854.309	0.0141610
854.387	0.0141396
854.465	0.0140981
854.543	0.0139690
854.621	0.0139007
854.700	0.0139041
854.778	0.0141271
854.856	0.0140833
854.934	0.0139037
855.012	0.0141045
855.090	0.0141220
855.168	0.0140951
855.246	0.0139913
855.325	0.0142089
855.403	0.0140354
855.481	0.0140812
855.559	0.0141145
855.637	0.0141161
855.715	0.0141918
855.793	0.0141598
855.871	0.0141503
855.950	0.0143946
856.028	0.0142951
856.106	0.0142767
856.184	0.0141357
856.262	0.0141833
856.340	0.0142507
856.418	0.0142378
856.496	0.0142033
856.575	0.0142081
856.653	0.0141702
856.731	0.0141832
856.809	0.0140882
856.887	0.0142210
856.965	0.0141757
857.043	0.0140298
857.121	0.0140298
857.200	0.0140884
857.278	0.0139482
857.356	0.0139615
857.434	0.0140452
857.512	0.0140795
857.590	0.0140094
857.668	0.0139618
857.746	0.0139769
857.825	0.0139577
857.903	0.0139428
857.981	0.0141548
858.059	0.0141744
858.137	0.0140186
858.215	0.0140159
858.293	0.0140276
858.371	0.0140210
858.450	0.0141180
858.528	0.0140350
858.606	0.0139985
858.684	0.0141212
858.762	0.0141179
858.840	0.0139688
858.918	0.0141859
858.996	0.0140785
859.075	0.0140417
859.153	0.0140791
859.231	0.0140860
859.309	0.0141283
859.387	0.0141259
859.465	0.0141632
859.543	0.0139783
859.621	0.0141788
859.700	0.0139780
859.778	0.0140519
859.856	0.0141225
859.934	0.0141879
860.012	0.0140332
860.090	0.0139644
860.168	0.0139986
860.246	0.0140899
860.325	0.0140457
860.403	0.0140708
860.481	0.0140370
860.559	0.0141067
860.637	0.0140479
860.715	0.0141089
860.793	0.0140604
860.871	0.0139829
860.950	0.0140751
861.028	0.0140161
861.106	0.0139812
861.184	0.0140779
861.262	0.0140845
861.340	0.0140116
861.418	0.0139765
861.496	0.0139996
861.575	0.0140614
861.653	0.0140291
861.731	0.0141453
861.809	0.0140187
861.887	0.0139608
861.965	0.0139373
862.043	0.0140368
862.121	0.0140797
862.200	0.0140826
862.278	0.0140013
862.356	0.0139317
862.434	0.0141658
862.512	0.0141398
862.590	0.0141011
862.668	0.0140409
862.746	0.0140897
862.825	0.0141535
862.903	0.0141536
862.981	0.0141389
863.059	0.0142674
863.137	0.0141296
863.215	0.0141592
863.293	0.0142030
863.371	0.0141205
863.450	0.0141525
863.528	0.0141399
863.606	0.0140884
863.684	0.0140164
863.762	0.0141312
863.840	0.0141873
863.918	0.0141117
863.996	0.0142386
864.075	0.0141798
864.153	0.0140960
864.231	0.0141640
864.309	0.0140813
864.387	0.0141211
864.465	0.0141533
864.543	0.0140697
864.621	0.0140176
864.700	0.0140372
864.778	0.0140510
864.856	0.0142223
864.934	0.0140511
865.012	0.0140655
865.090	0.0140884
865.168	0.0140944
865.246	0.0141745
865.325	0.0141629
865.403	0.0141041
865.481	0.0141249
865.559	0.0141232
865.637	0.0141533
865.715	0.0141750
865.793	0.0140318
865.871	0.0139857
865.950	0.0141044
866.028	0.0142201
866.106	0.0141201
866.184	0.0141906
866.262	0.0141599
866.340	0.0141376
866.418	0.0141676
866.496	0.0141492
866.575	0.0141086
866.653	0.0140843
866.731	0.0142048
866.809	0.0141048
866.887	0.0141276
866.965	0.0142081
867.043	0.0141500
867.121	0.0141879
867.200	0.0141431
867.278	0.0141199
867.356	0.0142279
867.434	0.0142019
867.512	0.0142688
867.590	0.0144022
867.668	0.0142200
867.746	0.0140636
867.825	0.0142092
867.903	0.0142188
867.981	0.0142664
868.059	0.0141933
868.137	0.0143649
868.215	0.0142602
868.293	0.0142645
868.371	0.0141242
868.450	0.0141906
868.528	0.0142272
868.606	0.0142447
868.684	0.0143121
868.762	0.0141241
868.840	0.0139763
868.918	0.0141840
868.996	0.0140980
869.075	0.0141976
869.153	0.0141835
869.231	0.0141817
869.309	0.0140361
869.387	0.0140092
869.465	0.0141648
869.543	0.0141593
869.621	0.0139796
869.700	0.0140980
869.778	0.0141857
869.856	0.0141644
869.934	0.0141284
870.012	0.0141123
870.090	0.0139877
870.168	0.0140467
870.246	0.0142295
870.325	0.0141558
870.403	0.0141037
870.481	0.0142701
870.559	0.0142171
870.637	0.0140084
870.715	0.0142535
870.793	0.0141090
870.871	0.0141560
870.950	0.0141264
871.028	0.0143515
871.106	0.0141286
871.184	0.0140870
871.262	0.0141257
871.340	0.0140693
871.418	0.0141474
871.496	0.0141282
871.575	0.0141681
871.653	0.0140203
871.731	0.0141562
871.809	0.0141206
871.887	0.0140768
871.965	0.0141680
872.043	0.0141429
872.121	0.0141263
872.200	0.0141769
872.278	0.0141920
872.356	0.0140878
872.434	0.0142838
872.512	0.0142059
872.590	0.0142436
872.668	0.0142342
872.746	0.0142416
872.825	0.0142141
872.903	0.0141206
872.981	0.0141223
873.059	0.0141962
873.137	0.0139717
873.215	0.0140996
873.293	0.0141004
873.371	0.0140488
873.450	0.0140139
873.528	0.0140966
873.606	0.0141839
873.684	0.0140952
873.762	0.0140594
873.840	0.0140431
873.918	0.0141698
873.996	0.0141134
874.075	0.0141203
874.153	0.0141386
874.231	0.0139807
874.309	0.0140732
874.387	0.0142014
874.465	0.0140968
874.543	0.0141853
874.621	0.0141756
874.700	0.0140676
874.778	0.0141067
874.856	0.0141840
874.934	0.0141835
875.012	0.0142289
875.090	0.0141187
875.168	0.0140749
875.246	0.0140819
875.325	0.0140950
875.403	0.0141760
875.481	0.0141308
875.559	0.0140281
875.637	0.0141760
875.715	0.0140816
875.793	0.0140782
875.871	0.0142915
875.950	0.0141258
876.028	0.0141161
876.106	0.0140042
876.184	0.0141417
876.262	0.0140784
876.340	0.0140368
876.418	0.0141081
876.496	0.0141016
876.575	0.0141032
876.653	0.0141821
876.731	0.0141208
876.809	0.0142142
876.887	0.0141516
876.965	0.0142007
877.043	0.0142672
877.121	0.0140482
877.200	0.0142358
877.278	0.0143378
877.356	0.0142849
877.434	0.0141622
877.512	0.0141002
877.590	0.0140362
877.668	0.0142774
877.746	0.0142333
877.825	0.0141161
877.903	0.0142252
877.981	0.0140508
878.059	0.0142266
878.137	0.0142470
878.215	0.0141316
878.293	0.0142664
878.371	0.0139729
878.450	0.0140971
878.528	0.0140883
878.606	0.0140498
878.684	0.0142334
878.762	0.0140701
878.840	0.0142542
878.918	0.0142539
878.996	0.0142127
879.075	0.0141947
879.153	0.0139983
879.231	0.0140147
879.309	0.0140302
879.387	0.0140256
879.465	0.0141741
879.543	0.0142192
879.621	0.0140796
879.700	0.0140551
879.778	0.0142952
879.856	0.0142031
879.934	0.0141487
880.012	0.0140916
880.090	0.0141319
880.168	0.0141483
880.246	0.0141634
880.325	0.0141003
880.403	0.0140757
880.481	0.0142010
880.559	0.0140077
880.637	0.0140013
880.715	0.0139984
880.793	0.0139791
880.871	0.0141320
880.950	0.0139955
881.028	0.0141555
881.106	0.0140308
881.184	0.0140650
881.262	0.0140505
881.340	0.0139418
881.418	0.0139315
881.496	0.0139908
881.575	0.0139014
881.653	0.0141364
881.731	0.0139622
881.809	0.0139004
881.887	0.0140334
881.965	0.0141906
882.043	0.0140392
882.121	0.0141026
882.200	0.0140340
882.278	0.0139677
882.356	0.0142480
882.434	0.0140236
882.512	0.0141819
882.590	0.0139886
882.668	0.0142123
882.746	0.0141403
882.825	0.0141383
882.903	0.0141445
882.981	0.0140383
883.059	0.0141440
883.137	0.0141730
883.215	0.0140794
883.293	0.0140923
883.371	0.0139760
883.450	0.0140517
883.528	0.0140974
883.606	0.0139774
883.684	0.0139988
883.762	0.0141616
883.840	0.0141776
883.918	0.0140717
883.996	0.0140058
884.075	0.0140424
884.153	0.0141340
884.231	0.0140588
884.309	0.0141503
884.387	0.0139897
884.465	0.0141505
884.543	0.0141446
884.621	0.0141337
884.700	0.0140778
884.778	0.0139775
884.856	0.0139325
884.934	0.0139181
885.012	0.0140717
885.090	0.0140191
885.168	0.0140242
885.246	0.0140706
885.325	0.0139470
885.403	0.0139522
885.481	0.0140250
885.559	0.0140342
885.637	0.0140042
885.715	0.0139665
885.793	0.0139372
885.871	0.0140108
885.950	0.0140491
886.028	0.0139560
886.106	0.0140186
886.184	0.0140759
886.262	0.0140315
886.340	0.0140122
886.418	0.0140717
886.496	0.0141148
886.575	0.0141496
886.653	0.0141037
886.731	0.0141277
886.809	0.0141508
886.887	0.0139370
886.965	0.0141265
887.043	0.0141992
887.121	0.0141842
887.200	0.0140345
887.278	0.0140607
887.356	0.0140475
887.434	0.0139805
887.512	0.0141135
887.590	0.0141493
887.668	0.0142133
887.746	0.0141529
887.825	0.0141753
887.903	0.0142381
887.981	0.0140833
888.059	0.0140264
888.137	0.0141114
888.215	0.0140981
888.293	0.0141472
888.371	0.0141004
888.450	0.0141991
888.528	0.0142316
888.606	0.0141548
888.684	0.0141579
888.762	0.0141211
888.840	0.0140908
888.918	0.0140774
888.996	0.0141943
889.075	0.0140927
889.153	0.0142288
889.231	0.0140160
889.309	0.0140616
889.387	0.0140995
889.465	0.0141683
889.543	0.0141026
889.621	0.0141711
889.700	0.0143202
889.778	0.0142621
889.856	0.0142142
889.934	0.0141503
890.012	0.0141656
890.090	0.0142249
890.168	0.0140711
890.246	0.0141384
890.325	0.0140471
890.403	0.0142089
890.481	0.0140396
890.559	0.0141002
890.637	0.0140946
890.715	0.0140054
890.793	0.0141860
890.871	0.0140736
890.950	0.0140450
891.028	0.0142343
891.106	0.0141634
891.184	0.0142686
891.262	0.0142383
891.340	0.0142451
891.418	0.0141689
891.496	0.0140958
891.575	0.0142092
891.653	0.0141956
891.731	0.0141478
891.809	0.0143104
891.887	0.0142517
891.965	0.0141050
892.043	0.0142113
892.121	0.0143222
892.200	0.0140721
892.278	0.0141692
892.356	0.0140819
892.434	0.0141798
892.512	0.0142954
892.590	0.0141730
892.668	0.0141360
892.746	0.0140336
892.825	0.0140900
892.903	0.0140762
892.981	0.0141159
893.059	0.0143600
893.137	0.0141034
893.215	0.0140199
893.293	0.0139611
893.371	0.0140308
893.450	0.0140978
893.528	0.0140262
893.606	0.0140940
893.684	0.0140744
893.762	0.0141030
893.840	0.0141287
893.918	0.0141499
893.996	0.0142704
894.075	0.0142609
894.153	0.0142001
894.231	0.0142595
894.309	0.0142789
894.387	0.0141390
894.465	0.0142690
894.543	0.0141965
894.621	0.0141285
894.700	0.0140988
894.778	0.0141102
894.856	0.0140350
894.934	0.0141683
895.012	0.0141289
895.090	0.0140494
895.168	0.0140704
895.246	0.0140157
895.325	0.0142155
895.403	0.0141015
895.481	0.0142028
895.559	0.0140449
895.637	0.0141785
895.715	0.0140679
895.793	0.0141697
895.871	0.0141119
895.950	0.0141274
896.028	0.0140942
896.106	0.0140800
896.184	0.0141999
896.262	0.0142093
896.340	0.0141424
896.418	0.0141062
896.496	0.0142028
896.575	0.0140998
896.653	0.0141308
896.731	0.0141099
896.809	0.0141637
896.887	0.0140033
896.965	0.0140514
897.043	0.0140836
897.121	0.0140928
897.200	0.0140945
897.278	0.0141544
897.356	0.0141222
897.434	0.0142035
897.512	0.0142146
897.590	0.0141577
897.668	0.0142625
897.746	0.0142229
897.825	0.0142479
897.903	0.0142876
897.981	0.0141702
898.059	0.0141809
898.137	0.0140169
898.215	0.0141215
898.293	0.0139309
898.371	0.0140405
898.450	0.0141560
898.528	0.0141184
898.606	0.0140593
898.684	0.0140416
898.762	0.0141643
898.840	0.0142026
898.918	0.0140874
898.996	0.0140066
899.075	0.0141813
899.153	0.0141403
899.231	0.0141989
899.309	0.0141656
899.387	0.0141733
899.465	0.0139867
899.543	0.0140456
899.621	0.0141800
899.700	0.0140600
899.778	0.0141145
899.856	0.0140637
899.934	0.0141589
900.012	0.0141814
900.090	0.0140498
900.168	0.0139370
900.246	0.0139375
900.325	0.0140769
900.403	0.0139874
900.481	0.0139738
900.559	0.0140942
900.637	0.0141148
900.715	0.0141140
900.793	0.0140837
900.871	0.0141478
900.950	0.0141190
901.028	0.0141216
901.106	0.0141589
901.184	0.0142374
901.262	0.0142329
901.340	0.0142202
901.418	0.0141177
901.496	0.0140673
901.575	0.0140991
901.653	0.0140044
901.731	0.0140884
901.809	0.0141574
901.887	0.0140203
901.965	0.0141069
902.043	0.0140904
902.121	0.0140676
902.200	0.0140479
902.278	0.0141926
902.356	0.0141821
902.434	0.0141475
902.512	0.0140503
902.590	0.0141528
902.668	0.0140936
902.746	0.0141180
902.825	0.0142532
902.903	0.0141557
902.981	0.0142206
903.059	0.0140671
903.137	0.0140608
903.215	0.0140198
903.293	0.0141469
903.371	0.0140987
903.450	0.0140909
903.528	0.0141514
903.606	0.0140971
903.684	0.0139657
903.762	0.0140665
903.840	0.0141334
903.918	0.0141495
903.996	0.0142192
904.075	0.0142072
904.153	0.0142926
904.231	0.0142222
904.309	0.0141700
904.387	0.0141784
904.465	0.0141471
904.543	0.0141491
904.621	0.0142877
904.700	0.0143594
904.778	0.0142283
904.856	0.0142098
904.934	0.0140965
905.012	0.0140448
905.090	0.0141539
905.168	0.0141372
905.246	0.0140120
905.325	0.0140326
905.403	0.0140648
905.481	0.0140662
905.559	0.0141486
905.637	0.0139429
905.715	0.0140804
905.793	0.0140250
905.871	0.0141900
905.950	0.0143290
906.028	0.0142324
906.106	0.0139987
906.184	0.0140295
906.262	0.0141834
906.340	0.0139499
906.418	0.0137401
906.496	0.0139063
906.575	0.0139903
906.653	0.0139296
906.731	0.0138840
906.809	0.0140088
906.887	0.0138193
906.965	0.0140527
907.043	0.0140656
907.121	0.0140714
907.200	0.0140711
907.278	0.0141109
907.356	0.0143570
907.434	0.0141763
907.512	0.0141782
907.590	0.0143192
907.668	0.0142916
907.746	0.0142553
907.825	0.0141281
907.903	0.0141921
907.981	0.0141333
908.059	0.0140881
908.137	0.0140973
908.215	0.0140226
908.293	0.0141787
908.371	0.0140991
908.450	0.0140182
908.528	0.0141625
908.606	0.0142048
908.684	0.0141017
908.762	0.0139650
908.840	0.0139737
908.918	0.0140656
908.996	0.0141316
909.075	0.0140313
909.153	0.0140123
909.231	0.0140135
909.309	0.0140482
909.387	0.0142178
909.465	0.0141525
909.543	0.0142465
909.621	0.0141560
909.700	0.0141711
909.778	0.0143330
909.856	0.0141250
909.934	0.0142142
910.012	0.0142282
910.090	0.0142449
910.168	0.0141606
910.246	0.0140581
910.325	0.0141089
910.403	0.0139580
910.481	0.0139397
910.559	0.0140589
910.637	0.0140420
910.715	0.0140485
910.793	0.0140893
910.871	0.0141339
910.950	0.0140558
911.028	0.0138964
911.106	0.0139679
911.184	0.0141535
911.262	0.0141053
911.340	0.0140939
911.418	0.0141938
911.496	0.0140932
911.575	0.0141194
911.653	0.0140359
911.731	0.0140829
911.809	0.0140794
911.887	0.0138843
911.965	0.0139464
912.043	0.0140116
912.121	0.0140762
912.200	0.0140920
912.278	0.0139539
912.356	0.0138478
912.434	0.0139857
912.512	0.0140545
912.590	0.0140878
912.668	0.0140374
912.746	0.0141586
912.825	0.0139030
912.903	0.0139710
912.981	0.0140162
913.059	0.0139780
913.137	0.0140266
913.215	0.0141177
913.293	0.0141153
913.371	0.0141021
913.450	0.0142184
913.528	0.0140983
913.606	0.0140919
913.684	0.0142003
913.762	0.0141650
913.840	0.0141093
913.918	0.0140617
913.996	0.0141018
914.075	0.0140891
914.153	0.0142943
914.231	0.0141616
914.309	0.0142037
914.387	0.0140910
914.465	0.0141328
914.543	0.0140977
914.621	0.0140960
914.700	0.0141021
914.778	0.0141556
914.856	0.0141246
914.934	0.0141017
915.012	0.0141597
915.090	0.0142535
915.168	0.0140829
915.246	0.0140891
915.325	0.0140216
915.403	0.0140702
915.481	0.0141856
915.559	0.0142318
915.637	0.0141773
915.715	0.0142685
915.793	0.0142671
915.871	0.0140693
915.950	0.0140517
916.028	0.0142428
916.106	0.0141693
916.184	0.0141850
916.262	0.0141902
916.340	0.0140897
916.418	0.0140231
916.496	0.0140340
916.575	0.0141496
916.653	0.0141315
916.731	0.0140084
916.809	0.0140815
916.887	0.0140907
916.965	0.0141330
917.043	0.0141838
917.121	0.0140302
917.200	0.0140176
917.278	0.0140857
917.356	0.0142200
917.434	0.0140757
917.512	0.0139518
917.590	0.0140943
917.668	0.0141093
917.746	0.0141614
917.825	0.0141500
917.903	0.0143648
917.981	0.0141899
918.059	0.0141283
918.137	0.0142366
918.215	0.0142184
918.293	0.0141282
918.371	0.0140345
918.450	0.0142088
918.528	0.0141640
918.606	0.0140358
918.684	0.0142270
918.762	0.0141736
918.840	0.0141708
918.918	0.0142111
918.996	0.0141348
919.075	0.0143192
919.153	0.0141885
919.231	0.0142860
919.309	0.0141606
919.387	0.0141218
919.465	0.0142460
919.543	0.0141375
919.621	0.0141647
919.700	0.0142852
919.778	0.0142335
919.856	0.0141450
919.934	0.0141660
920.012	0.0141418
920.090	0.0141426
920.168	0.0141147
920.246	0.0142613
920.325	0.0140739
920.403	0.0141864
920.481	0.0140514
920.559	0.0141766
920.637	0.0142456
920.715	0.0140763
920.793	0.0139871
920.871	0.0141418
920.950	0.0142430
921.028	0.0140025
921.106	0.0140675
921.184	0.0141289
921.262	0.0140493
921.340	0.0140726
921.418	0.0140310
921.496	0.0139960
921.575	0.0140870
921.653	0.0140453
921.731	0.0141528
921.809	0.0141497
921.887	0.0140063
921.965	0.0140955
922.043	0.0140921
922.121	0.0140273
922.200	0.0142712
922.278	0.0140472
922.356	0.0140793
922.434	0.0142282
922.512	0.0141268
922.590	0.0140647
922.668	0.0140925
922.746	0.0141042
922.825	0.0141873
922.903	0.0140431
922.981	0.0140740
923.059	0.0141845
923.137	0.0139494
923.215	0.0140850
923.293	0.0142238
923.371	0.0141318
923.450	0.0141592
923.528	0.0140862
923.606	0.0141597
923.684	0.0139692
923.762	0.0140524
923.840	0.0142408
923.918	0.0142389
923.996	0.0140784
924.075	0.0142387
924.153	0.0140737
924.231	0.0140708
924.309	0.0140341
924.387	0.0142021
924.465	0.0141338
924.543	0.0141357
924.621	0.0140173
924.700	0.0141938
924.778	0.0141992
924.856	0.0139965
924.934	0.0141225
925.012	0.0143040
925.090	0.0141600
925.168	0.0140876
925.246	0.0141705
925.325	0.0140943
925.403	0.0140735
925.481	0.0141085
925.559	0.0141621
925.637	0.0139256
925.715	0.0140993
925.793	0.0139983
925.871	0.0140667
925.950	0.0141474
926.028	0.0140468
926.106	0.0140587
926.184	0.0139754
926.262	0.0141048
926.340	0.0141206
926.418	0.0142258
926.496	0.0141486
926.575	0.0140423
926.653	0.0141151
926.731	0.0140623
926.809	0.0141618
926.887	0.0140707
926.965	0.0140764
927.043	0.0140141
927.121	0.0141792
927.200	0.0140865
927.278	0.0141093
927.356	0.0141049
927.434	0.0139223
927.512	0.0139101
927.590	0.0141400
927.668	0.0140602
927.746	0.0140675
927.825	0.0140594
927.903	0.0141011
927.981	0.0140567
928.059	0.0139823
928.137	0.0140404
928.215	0.0139587
928.293	0.0142391
928.371	0.0141800
928.450	0.0139742
928.528	0.0141001
928.606	0.0141381
928.684	0.0141387
928.762	0.0140160
928.840	0.0141333
928.918	0.0141566
928.996	0.0141430
929.075	0.0140590
929.153	0.0140858
929.231	0.0140257
929.309	0.0140244
929.387	0.0140884
929.465	0.0140936
929.543	0.0142217
929.621	0.0141260
929.700	0.0141068
929.778	0.0141383
929.856	0.0141463
929.934	0.0141103
930.012	0.0141701
930.090	0.0140191
930.168	0.0141289
930.246	0.0140787
930.325	0.0140996
930.403	0.0139759
930.481	0.0140078
930.559	0.0140340
930.637	0.0140480
930.715	0.0140164
930.793	0.0139843
930.871	0.0141074
930.950	0.0139729
931.028	0.0139096
931.106	0.0139703
931.184	0.0141196
931.262	0.0140594
931.340	0.0140221
931.418	0.0141135
931.496	0.0140753
931.575	0.0140106
931.653	0.0139857
931.731	0.0139300
931.809	0.0141613
931.887	0.0141261
931.965	0.0139742
932.043	0.0141148
932.121	0.0139845
932.200	0.0141230
932.278	0.0141333
932.356	0.0138744
932.434	0.0139219
932.512	0.0141942
932.590	0.0141505
932.668	0.0141131
932.746	0.0141061
932.825	0.0141959
932.903	0.0140495
932.981	0.0140664
933.059	0.0141492
933.137	0.0141135
933.215	0.0142194
933.293	0.0141735
933.371	0.0141205
933.450	0.0140138
933.528	0.0140828
933.606	0.0141323
933.684	0.0140427
933.762	0.0140462
933.840	0.0141269
933.918	0.0141525
933.996	0.0139965
934.075	0.0141551
934.153	0.0141293
934.231	0.0140200
934.309	0.0140672
934.387	0.0139540
934.465	0.0140398
934.543	0.0142133
934.621	0.0140708
934.700	0.0140289
934.778	0.0140810
934.856	0.0141045
934.934	0.0140765
935.012	0.0141405
935.090	0.0141171
935.168	0.0139886
935.246	0.0140556
935.325	0.0140142
935.403	0.0141880
935.481	0.0141592
935.559	0.0141098
935.637	0.0141693
935.715	0.0140469
935.793	0.0140717
935.871	0.0141624
935.950	0.0142812
936.028	0.0141544
936.106	0.0140618
936.184	0.0140826
936.262	0.0140132
936.340	0.0141360
936.418	0.0141797
936.496	0.0141702
936.575	0.0140771
936.653	0.0141910
936.731	0.0141262
936.809	0.0140283
936.887	0.0141241
936.965	0.0140298
937.043	0.0140079
937.121	0.0140249
937.200	0.0140340
937.278	0.0140599
937.356	0.0140916
937.434	0.0141748
937.512	0.0140527
937.590	0.0139362
937.668	0.0139321
937.746	0.0141753
937.825	0.0141422
937.903	0.0140449
937.981	0.0139990
938.059	0.0139807
938.137	0.0139816
938.215	0.0140331
938.293	0.0141196
938.371	0.0139206
938.450	0.0140255
938.528	0.0141779
938.606	0.0140650
938.684	0.0138730
938.762	0.0140050
938.840	0.0140901
938.918	0.0139622
938.996	0.0139239
939.075	0.0139777
939.153	0.0140241
939.231	0.0140614
939.309	0.0139943
939.387	0.0140230
939.465	0.0140679
939.543	0.0141752
939.621	0.0141349
939.700	0.0142469
939.778	0.0140833
939.856	0.0141557
939.934	0.0140905
940.012	0.0141814
940.090	0.0140128
940.168	0.0141080
940.246	0.0142042
940.325	0.0140202
940.403	0.0139910
940.481	0.0139307
940.559	0.0140324
940.637	0.0140370
940.715	0.0138870
940.793	0.0139562
940.871	0.0141447
940.950	0.0140113
941.028	0.0141449
941.106	0.0140834
941.184	0.0141189
941.262	0.0140675
941.340	0.0141159
941.418	0.0141213
941.496	0.0142124
941.575	0.0141605
941.653	0.0140241
941.731	0.0140539
941.809	0.0142219
941.887	0.0142525
941.965	0.0142081
942.043	0.0140704
942.121	0.0140936
942.200	0.0141095
942.278	0.0141409
942.356	0.0140854
942.434	0.0141440
942.512	0.0141410
942.590	0.0141325
942.668	0.0140149
942.746	0.0141824
942.825	0.0141228
942.903	0.0141101
942.981	0.0142187
943.059	0.0142461
943.137	0.0142218
943.215	0.0141785
943.293	0.0140173
943.371	0.0141401
943.450	0.0140091
943.528	0.0141708
943.606	0.0142161
943.684	0.0142974
943.762	0.0141453
943.840	0.0142093
943.918	0.0142593
943.996	0.0140694
944.075	0.0141637
944.153	0.0140806
944.231	0.0141109
944.309	0.0141557
944.387	0.0140991
944.465	0.0141212
944.543	0.0140418
944.621	0.0140481
944.700	0.0141894
944.778	0.0143327
944.856	0.0142438
944.934	0.0140659
945.012	0.0142091
945.090	0.0142503
945.168	0.0142311
945.246	0.0141520
945.325	0.0141830
945.403	0.0141208
945.481	0.0141536
945.559	0.0143351
945.637	0.0140633
945.715	0.0142127
945.793	0.0141167
945.871	0.0141647
945.950	0.0142068
946.028	0.0142104
946.106	0.0140972
946.184	0.0140685
946.262	0.0141780
946.340	0.0140400
946.418	0.0139819
946.496	0.0140966
946.575	0.0140435
946.653	0.0141819
946.731	0.0140732
946.809	0.0139828
946.887	0.0142445
946.965	0.0141090
947.043	0.0142181
947.121	0.0141830
947.200	0.0141244
947.278	0.0143089
947.356	0.0141947
947.434	0.0141071
947.512	0.0142445
947.590	0.0142243
947.668	0.0140179
947.746	0.0140530
947.825	0.0141920
947.903	0.0141537
947.981	0.0141009
948.059	0.0139731
948.137	0.0142461
948.215	0.0141599
948.293	0.0141332
948.371	0.0140488
948.450	0.0140996
948.528	0.0141139
948.606	0.0142484
948.684	0.0142462
948.762	0.0139834
948.840	0.0141190
948.918	0.0141216
948.996	0.0140661
949.075	0.0140637
949.153	0.0141044
949.231	0.0141831
949.309	0.0141756
949.387	0.0141959
949.465	0.0140656
949.543	0.0140450
949.621	0.0141306
949.700	0.0139896
949.778	0.0140998
949.856	0.0140970
949.934	0.0139600
950.012	0.0141257
950.090	0.0141589
950.168	0.0141611
950.246	0.0140308
950.325	0.0141759
950.403	0.0139821
950.481	0.0140179
950.559	0.0141715
950.637	0.0140382
950.715	0.0141685
950.793	0.0140309
950.871	0.0140520
950.950	0.0141800
951.028	0.0140073
951.106	0.0140971
951.184	0.0142392
951.262	0.0141421
951.340	0.0141039
951.418	0.0141720
951.496	0.0141373
951.575	0.0142146
951.653	0.0141637
951.731	0.0141738
951.809	0.0142085
951.887	0.0142058
951.965	0.0141856
952.043	0.0142250
952.121	0.0140258
952.200	0.0140412
952.278	0.0141398
952.356	0.0140649
952.434	0.0140733
952.512	0.0140315
952.590	0.0140855
952.668	0.0141870
952.746	0.0140179
952.825	0.0141498
952.903	0.0140691
952.981	0.0141073
953.059	0.0141929
953.137	0.0141070
953.215	0.0140140
953.293	0.0141963
953.371	0.0142089
953.450	0.0140946
953.528	0.0141650
953.606	0.0141589
953.684	0.0141106
953.762	0.0141544
953.840	0.0141530
953.918	0.0142753
953.996	0.0141598
954.075	0.0140664
954.153	0.0141685
954.231	0.0140897
954.309	0.0139986
954.387	0.0141294
954.465	0.0141286
954.543	0.0141081
954.621	0.0141338
954.700	0.0141668
954.778	0.0140580
954.856	0.0141778
954.934	0.0141284
955.012	0.0139980
955.090	0.0139274
955.168	0.0141815
955.246	0.0141310
955.325	0.0141531
955.403	0.0139726
955.481	0.0140943
955.559	0.0141699
955.637	0.0139566
955.715	0.0141972
955.793	0.0141201
955.871	0.0140747
955.950	0.0141659
956.028	0.0141218
956.106	0.0140784
956.184	0.0139581
956.262	0.0140304
956.340	0.0141913
956.418	0.0141013
956.496	0.0142127
956.575	0.0141069
956.653	0.0140540
956.731	0.0141402
956.809	0.0142242
956.887	0.0141530
956.965	0.0141476
957.043	0.0140063
957.121	0.0140110
957.200	0.0142339
957.278	0.0141528
957.356	0.0140658
957.434	0.0141628
957.512	0.0140372
957.590	0.0140307
957.668	0.0140846
957.746	0.0141598
957.825	0.0139964
957.903	0.0140928
957.981	0.0142381
958.059	0.0140657
958.137	0.0141544
958.215	0.0141277
958.293	0.0141197
958.371	0.0140959
958.450	0.0140814
958.528	0.0142141
958.606	0.0141683
958.684	0.0141377
958.762	0.0143263
958.840	0.0141930
958.918	0.0140847
958.996	0.0140903
959.075	0.0141343
959.153	0.0142332
959.231	0.0140765
959.309	0.0142204
959.387	0.0141861
959.465	0.0140961
959.543	0.0139967
959.621	0.0140852
959.700	0.0141517
959.778	0.0142312
959.856	0.0141160
959.934	0.0139512
960.012	0.0141463
960.090	0.0140986
960.168	0.0141100
960.246	0.0141075
960.325	0.0141055
960.403	0.0140705
960.481	0.0140221
960.559	0.0140279
960.637	0.0140440
960.715	0.0140449
960.793	0.0139836
960.871	0.0140553
960.950	0.0139742
961.028	0.0140443
961.106	0.0140229
961.184	0.0140968
961.262	0.0140012
961.340	0.0140926
961.418	0.0141227
961.496	0.0140293
961.575	0.0139985
961.653	0.0140243
961.731	0.0139817
961.809	0.0139870
961.887	0.0139862
961.965	0.0141016
962.043	0.0141842
962.121	0.0140530
962.200	0.0141003
962.278	0.0141517
962.356	0.0140709
962.434	0.0141850
962.512	0.0141561
962.590	0.0140799
962.668	0.0140734
962.746	0.0141064
962.825	0.0141625
962.903	0.0141610
962.981	0.0140746
963.059	0.0140805
963.137	0.0141978
963.215	0.0141799
963.293	0.0140563
963.371	0.0140934
963.450	0.0141100
963.528	0.0142503
963.606	0.0140588
963.684	0.0141402
963.762	0.0142080
963.840	0.0140994
963.918	0.0140340
963.996	0.0141029
964.075	0.0141408
964.153	0.0141702
964.231	0.0142735
964.309	0.0141259
964.387	0.0140823
964.465	0.0140420
964.543	0.0140200
964.621	0.0140996
964.700	0.0141450
964.778	0.0142046
964.856	0.0140149
964.934	0.0138554
965.012	0.0139622
965.090	0.0141010
965.168	0.0141628
965.246	0.0140762
965.325	0.0140159
965.403	0.0140696
965.481	0.0140355
965.559	0.0141344
965.637	0.0140461
965.715	0.0141171
965.793	0.0142513
965.871	0.0142112
965.950	0.0141921
966.028	0.0141628
966.106	0.0141341
966.184	0.0144092
966.262	0.0141583
966.340	0.0143338
966.418	0.0143070
966.496	0.0140097
966.575	0.0141798
966.653	0.0141557
966.731	0.0140668
966.809	0.0141540
966.887	0.0142101
966.965	0.0142435
967.043	0.0141506
967.121	0.0139904
967.200	0.0140462
967.278	0.0140456
967.356	0.0139970
967.434	0.0141649
967.512	0.0139867
967.590	0.0140364
967.668	0.0139742
967.746	0.0139356
967.825	0.0140603
967.903	0.0139945
967.981	0.0139361
968.059	0.0141792
968.137	0.0141899
968.215	0.0142346
968.293	0.0142276
968.371	0.0141554
968.450	0.0141767
968.528	0.0141685
968.606	0.0141978
968.684	0.0141057
968.762	0.0140100
968.840	0.0141879
968.918	0.0141859
968.996	0.0141919
969.075	0.0143550
969.153	0.0142014
969.231	0.0142721
969.309	0.0140887
969.387	0.0140876
969.465	0.0141132
969.543	0.0140879
969.621	0.0141593
969.700	0.0140269
969.778	0.0139861
969.856	0.0140136
969.934	0.0142169
970.012	0.0141193
970.090	0.0140585
970.168	0.0142183
970.246	0.0140814
970.325	0.0141850
970.403	0.0141949
970.481	0.0141346
970.559	0.0141531
970.637	0.0141170
970.715	0.0142022
970.793	0.0141254
970.871	0.0140635
970.950	0.0141467
971.028	0.0141365
971.106	0.0141341
971.184	0.0141004
971.262	0.0141079
971.340	0.0141092
971.418	0.0140701
971.496	0.0141898
971.575	0.0140485
971.653	0.0141931
971.731	0.0141621
971.809	0.0142262
971.887	0.0141554
971.965	0.0140629
972.043	0.0142355
972.121	0.0142158
972.200	0.0141742
972.278	0.0141520
972.356	0.0141897
972.434	0.0142540
972.512	0.0140562
972.590	0.0142670
972.668	0.0142067
972.746	0.0141570
972.825	0.0142570
972.903	0.0141869
972.981	0.0141181
973.059	0.0139931
973.137	0.0140192
973.215	0.0140303
973.293	0.0140565
973.371	0.0139999
973.450	0.0140768
973.528	0.0141126
973.606	0.0141655
973.684	0.0141445
973.762	0.0141988
973.840	0.0142471
973.918	0.0141958
973.996	0.0142028
974.075	0.0141751
974.153	0.0142832
974.231	0.0141949
974.309	0.0143035
974.387	0.0141953
974.465	0.0142261
974.543	0.0141134
974.621	0.0141444
974.700	0.0142795
974.778	0.0141293
974.856	0.0141380
974.934	0.0142594
975.012	0.0141462
975.090	0.0139620
975.168	0.0141695
975.246	0.0141579
975.325	0.0142587
975.403	0.0142783
975.481	0.0140609
975.559	0.0141077
975.637	0.0140338
975.715	0.0141251
975.793	0.0141842
975.871	0.0140303
975.950	0.0140358
976.028	0.0140506
976.106	0.0141444
976.184	0.0140611
976.262	0.0140788
976.340	0.0142217
976.418	0.0140860
976.496	0.0141174
976.575	0.0140839
976.653	0.0141323
976.731	0.0142707
976.809	0.0142989
976.887	0.0140955
976.965	0.0141283
977.043	0.0143511
977.121	0.0143073
977.200	0.0141717
977.278	0.0142121
977.356	0.0141065
977.434	0.0143185
977.512	0.0142978
977.590	0.0141099
977.668	0.0142168
977.746	0.0143041
977.825	0.0141090
977.903	0.0141736
977.981	0.0141874
978.059	0.0140947
978.137	0.0142050
978.215	0.0142538
978.293	0.0141327
978.371	0.0140762
978.450	0.0141196
978.528	0.0141203
978.606	0.0141103
978.684	0.0139789
978.762	0.0140195
978.840	0.0139796
978.918	0.0140629
978.996	0.0139602
979.075	0.0140563
979.153	0.0140648
979.231	0.0140031
979.309	0.0141604
979.387	0.0139572
979.465	0.0140997
979.543	0.0142296
979.621	0.0141317
979.700	0.0142046
979.778	0.0142632
979.856	0.0140962
979.934	0.0141490
980.012	0.0140999
980.090	0.0141383
980.168	0.0143379
980.246	0.0141724
980.325	0.0141518
980.403	0.0141677
980.481	0.0140968
980.559	0.0140626
980.637	0.0139285
980.715	0.0139967
980.793	0.0140670
980.871	0.0140486
980.950	0.0141153
981.028	0.0141713
981.106	0.0139471
981.184	0.0141595
981.262	0.0141992
981.340	0.0142053
981.418	0.0141061
981.496	0.0141171
981.575	0.0140611
981.653	0.0141740
981.731	0.0141395
981.809	0.0140549
981.887	0.0140964
981.965	0.0141160
982.043	0.0141898
982.121	0.0140951
982.200	0.0141375
982.278	0.0142444
982.356	0.0141352
982.434	0.0141951
982.512	0.0141241
982.590	0.0141805
982.668	0.0140193
982.746	0.0140533
982.825	0.0140826
982.903	0.0142382
982.981	0.0140949
983.059	0.0140849
983.137	0.0140517
983.215	0.0141425
983.293	0.0140509
983.371	0.0139249
983.450	0.0140010
983.528	0.0142474
983.606	0.0141850
983.684	0.0141788
983.762	0.0142681
983.840	0.0142583
983.918	0.0140550
983.996	0.0141177
984.075	0.0142612
984.153	0.0141680
984.231	0.0140987
984.309	0.0140134
984.387	0.0141956
984.465	0.0141427
984.543	0.0141322
984.621	0.0141068
984.700	0.0140129
984.778	0.0140001
984.856	0.0140754
984.934	0.0139851
985.012	0.0139995
985.090	0.0139822
985.168	0.0140516
985.246	0.0140304
985.325	0.0141412
985.403	0.0141070
985.481	0.0140890
985.559	0.0141319
985.637	0.0141573
985.715	0.0140677
985.793	0.0140494
985.871	0.0141852
985.950	0.0140437
986.028	0.0140002
986.106	0.0141123
986.184	0.0141644
986.262	0.0141927
986.340	0.0141620
986.418	0.0140919
986.496	0.0140397
986.575	0.0140079
986.653	0.0139429
986.731	0.0139831
986.809	0.0140673
986.887	0.0140379
986.965	0.0139922
987.043	0.0141045
987.121	0.0140559
987.200	0.0139944
987.278	0.0140581
987.356	0.0139448
987.434	0.0139964
987.512	0.0140981
987.590	0.0140208
987.668	0.0139676
987.746	0.0141019
987.825	0.0141344
987.903	0.0140060
987.981	0.0140524
988.059	0.0140569
988.137	0.0141020
988.215	0.0141579
988.293	0.0139761
988.371	0.0139866
988.450	0.0139655
988.528	0.0140550
988.606	0.0140509
988.684	0.0140936
988.762	0.0141570
988.840	0.0141282
988.918	0.0141199
988.996	0.0140639
989.075	0.0141496
989.153	0.0141560
989.231	0.0142091
989.309	0.0140501
989.387	0.0140118
989.465	0.0140698
989.543	0.0141646
989.621	0.0140253
989.700	0.0141791
989.778	0.0140979
989.856	0.0141790
989.934	0.0141173
990.012	0.0140290
990.090	0.0141117
990.168	0.0141750
990.246	0.0142187
990.325	0.0141267
990.403	0.0139521
990.481	0.0140405
990.559	0.0140765
990.637	0.0139765
990.715	0.0139716
990.793	0.0140395
990.871	0.0141049
990.950	0.0140614
991.028	0.0140013
991.106	0.0140928
991.184	0.0140999
991.262	0.0139962
991.340	0.0141723
991.418	0.0141167
991.496	0.0140784
991.575	0.0141994
991.653	0.0141689
991.731	0.0140893
991.809	0.0142131
991.887	0.0142567
991.965	0.0141924
992.043	0.0142727
992.121	0.0143010
992.200	0.0140331
992.278	0.0142303
992.356	0.0141084
992.434	0.0141244
992.512	0.0142546
992.590	0.0141607
992.668	0.0142233
992.746	0.0141733
992.825	0.0140784
992.903	0.0140942
992.981	0.0142683
993.059	0.0141253
993.137	0.0141400
993.215	0.0142053
993.293	0.0141814
993.371	0.0142535
993.450	0.0142591
993.528	0.0142326
993.606	0.0141219
993.684	0.0141365
993.762	0.0141411
993.840	0.0142076
993.918	0.0141775
993.996	0.0141156
994.075	0.0141747
994.153	0.0140600
994.231	0.0140214
994.309	0.0141186
994.387	0.0141045
994.465	0.0140987
994.543	0.0141463
994.621	0.0141220
994.700	0.0141502
994.778	0.0141981
994.856	0.0141732
994.934	0.0142232
995.012	0.0140611
995.090	0.0142400
995.168	0.0143236
995.246	0.0142603
995.325	0.0143280
995.403	0.0142783
995.481	0.0142765
995.559	0.0142050
995.637	0.0142966
995.715	0.0142948
995.793	0.0142226
995.871	0.0141698
995.950	0.0140895
996.028	0.0140798
996.106	0.0141489
996.184	0.0141510
996.262	0.0140244
996.340	0.0141577
996.418	0.0140954
996.496	0.0141283
996.575	0.0141110
996.653	0.0141583
996.731	0.0141921
996.809	0.0141727
996.887	0.0141787
996.965	0.0141009
997.043	0.0140755
997.121	0.0142599
997.200	0.0141617
997.278	0.0141561
997.356	0.0140540
997.434	0.0141740
997.512	0.0140779
997.590	0.0141366
997.668	0.0141389
997.746	0.0141058
997.825	0.0140614
997.903	0.0142185
997.981	0.0141894
998.059	0.0142029
998.137	0.0141979
998.215	0.0142134
998.293	0.0142542
998.371	0.0141075
998.450	0.0142782
998.528	0.0142219
998.606	0.0141129
998.684	0.0144054
998.762	0.0142155
998.840	0.0141760
998.918	0.0142301
