05/04/2022	21:18:38	Ver.	4.1	UNKNOWN
Optical Delay	678.996401	Delta X		0.078125	Sweeps	1	Scan Rate	0/0
Coordinates	Axis 1	NaN	Axis 2	NaN	Axis 3	NaN	Axis 4	NaN	Axis 5	NaN	Axis 6	0.000000
TX Power	0.000000	RX Power	0.000000

678.996	0.0145179
679.075	0.0143798
679.153	0.0143412
679.231	0.0143346
679.309	0.0142465
679.387	0.0141884
679.465	0.0142860
679.543	0.0142257
679.621	0.0141888
679.700	0.0142632
679.778	0.0141256
679.856	0.0142658
679.934	0.0142635
680.012	0.0144255
680.090	0.0143091
680.168	0.0144770
680.246	0.0144671
680.325	0.0144221
680.403	0.0144771
680.481	0.0147276
680.559	0.0145996
680.637	0.0145669
680.715	0.0146227
680.793	0.0147372
680.871	0.0147014
680.950	0.0147257
681.028	0.0145488
681.106	0.0147110
681.184	0.0147192
681.262	0.0145398
681.340	0.0145355
681.418	0.0146151
681.496	0.0145501
681.575	0.0144048
681.653	0.0143134
681.731	0.0143261
681.809	0.0144731
681.887	0.0144745
681.965	0.0143641
682.043	0.0143857
682.121	0.0143491
682.200	0.0145136
682.278	0.0144276
682.356	0.0143181
682.434	0.0143842
682.512	0.0144397
682.590	0.0144655
682.668	0.0143971
682.746	0.0145483
682.825	0.0144438
682.903	0.0144487
682.981	0.0144202
683.059	0.0145109
683.137	0.0144891
683.215	0.0145032
683.293	0.0144625
683.371	0.0145227
683.450	0.0143976
683.528	0.0144752
683.606	0.0145860
683.684	0.0146687
683.762	0.0145153
683.840	0.0147633
683.918	0.0146304
683.996	0.0146449
684.075	0.0147469
684.153	0.0148325
684.231	0.0148504
684.309	0.0145782
684.387	0.0145528
684.465	0.0146631
684.543	0.0144202
684.621	0.0144375
684.700	0.0143739
684.778	0.0143788
684.856	0.0143774
684.934	0.0143928
685.012	0.0142423
685.090	0.0142533
685.168	0.0143015
685.246	0.0142502
685.325	0.0144081
685.403	0.0143878
685.481	0.0144910
685.559	0.0145574
685.637	0.0145691
685.715	0.0145206
685.793	0.0145227
685.871	0.0146844
685.950	0.0145897
686.028	0.0147670
686.106	0.0146186
686.184	0.0146082
686.262	0.0145356
686.340	0.0145197
686.418	0.0145763
686.496	0.0144728
686.575	0.0146570
686.653	0.0145734
686.731	0.0145567
686.809	0.0145736
686.887	0.0144382
686.965	0.0144233
687.043	0.0146152
687.121	0.0142450
687.200	0.0143597
687.278	0.0143687
687.356	0.0143290
687.434	0.0143939
687.512	0.0144962
687.590	0.0144280
687.668	0.0143906
687.746	0.0143864
687.825	0.0146595
687.903	0.0145178
687.981	0.0145454
688.059	0.0144553
688.137	0.0145495
688.215	0.0146203
688.293	0.0145634
688.371	0.0146160
688.450	0.0145752
688.528	0.0146383
688.606	0.0145879
688.684	0.0144801
688.762	0.0144627
688.840	0.0143606
688.918	0.0144120
688.996	0.0143940
689.075	0.0144078
689.153	0.0143388
689.231	0.0144144
689.309	0.0143243
689.387	0.0145261
689.465	0.0143490
689.543	0.0143882
689.621	0.0143671
689.700	0.0146133
689.778	0.0144343
689.856	0.0144680
689.934	0.0144287
690.012	0.0145889
690.090	0.0146410
690.168	0.0145363
690.246	0.0145828
690.325	0.0146133
690.403	0.0146290
690.481	0.0145058
690.559	0.0145576
690.637	0.0146239
690.715	0.0145666
690.793	0.0145399
690.871	0.0143377
690.950	0.0144949
691.028	0.0145308
691.106	0.0144341
691.184	0.0144069
691.262	0.0145069
691.340	0.0144746
691.418	0.0145271
691.496	0.0145328
691.575	0.0143314
691.653	0.0143152
691.731	0.0142948
691.809	0.0144405
691.887	0.0145773
691.965	0.0142960
692.043	0.0143554
692.121	0.0145205
692.200	0.0144320
692.278	0.0145353
692.356	0.0147585
692.434	0.0145433
692.512	0.0144971
692.590	0.0146061
692.668	0.0145847
692.746	0.0145262
692.825	0.0145803
692.903	0.0147038
692.981	0.0145254
693.059	0.0146328
693.137	0.0146683
693.215	0.0144762
693.293	0.0145696
693.371	0.0144720
693.450	0.0144457
693.528	0.0143375
693.606	0.0144455
693.684	0.0143464
693.762	0.0142892
693.840	0.0143546
693.918	0.0143221
693.996	0.0143953
694.075	0.0144084
694.153	0.0143454
694.231	0.0145042
694.309	0.0145058
694.387	0.0145281
694.465	0.0145512
694.543	0.0146294
694.621	0.0146416
694.700	0.0143830
694.778	0.0143768
694.856	0.0144578
694.934	0.0144582
695.012	0.0146938
695.090	0.0147217
695.168	0.0145224
695.246	0.0146567
695.325	0.0145272
695.403	0.0145416
695.481	0.0144560
695.559	0.0144334
695.637	0.0144052
695.715	0.0143022
695.793	0.0143485
695.871	0.0144473
695.950	0.0145382
696.028	0.0145740
696.106	0.0144973
696.184	0.0144824
696.262	0.0146072
696.340	0.0145564
696.418	0.0145208
696.496	0.0144501
696.575	0.0144572
696.653	0.0145292
696.731	0.0143339
696.809	0.0144159
696.887	0.0144409
696.965	0.0145668
697.043	0.0144424
697.121	0.0143293
697.200	0.0143189
697.278	0.0143999
697.356	0.0145375
697.434	0.0143383
697.512	0.0143973
697.590	0.0144644
697.668	0.0144428
697.746	0.0146087
697.825	0.0145099
697.903	0.0145675
697.981	0.0145750
698.059	0.0146255
698.137	0.0146945
698.215	0.0145050
698.293	0.0146230
698.371	0.0144776
698.450	0.0144379
698.528	0.0143859
698.606	0.0143079
698.684	0.0143011
698.762	0.0144161
698.840	0.0145594
698.918	0.0145408
698.996	0.0147099
699.075	0.0144729
699.153	0.0146055
699.231	0.0146739
699.309	0.0146387
699.387	0.0143889
699.465	0.0144011
699.543	0.0141900
699.621	0.0140629
699.700	0.0141077
699.778	0.0141547
699.856	0.0141828
699.934	0.0144118
700.012	0.0142902
700.090	0.0145564
700.168	0.0146949
700.246	0.0146257
700.325	0.0145170
700.403	0.0145444
700.481	0.0145040
700.559	0.0144613
700.637	0.0144643
700.715	0.0144206
700.793	0.0144303
700.871	0.0142901
700.950	0.0142738
701.028	0.0142889
701.106	0.0144261
701.184	0.0143044
701.262	0.0142928
701.340	0.0142084
701.418	0.0140228
701.496	0.0141273
701.575	0.0143185
701.653	0.0143871
701.731	0.0145652
701.809	0.0146897
701.887	0.0149548
701.965	0.0150944
702.043	0.0151487
702.121	0.0150560
702.200	0.0149142
702.278	0.0146357
702.356	0.0143818
702.434	0.0140696
702.512	0.0137392
702.590	0.0135532
702.668	0.0136257
702.746	0.0135914
702.825	0.0137668
702.903	0.0138068
702.981	0.0140472
703.059	0.0143663
703.137	0.0146293
703.215	0.0148554
703.293	0.0151468
703.371	0.0154565
703.450	0.0152660
703.528	0.0154745
703.606	0.0150513
703.684	0.0148061
703.762	0.0147548
703.840	0.0142683
703.918	0.0141873
703.996	0.0138567
704.075	0.0137230
704.153	0.0136869
704.231	0.0135509
704.309	0.0136298
704.387	0.0135355
704.465	0.0138204
704.543	0.0140779
704.621	0.0142841
704.700	0.0145721
704.778	0.0148700
704.856	0.0150578
704.934	0.0152962
705.012	0.0154801
705.090	0.0156509
705.168	0.0155757
705.246	0.0154037
705.325	0.0150605
705.403	0.0146317
705.481	0.0143969
705.559	0.0138730
705.637	0.0135383
705.715	0.0133982
705.793	0.0132829
705.871	0.0134220
705.950	0.0135250
706.028	0.0136655
706.106	0.0140067
706.184	0.0143629
706.262	0.0145367
706.340	0.0149389
706.418	0.0151757
706.496	0.0151582
706.575	0.0151938
706.653	0.0152431
706.731	0.0150269
706.809	0.0149851
706.887	0.0148870
706.965	0.0146590
707.043	0.0145590
707.121	0.0144611
707.200	0.0142631
707.278	0.0142214
707.356	0.0141386
707.434	0.0141700
707.512	0.0141872
707.590	0.0142329
707.668	0.0143492
707.746	0.0143008
707.825	0.0142746
707.903	0.0146345
707.981	0.0146011
708.059	0.0146552
708.137	0.0148205
708.215	0.0149102
708.293	0.0149447
708.371	0.0149284
708.450	0.0148074
708.528	0.0146762
708.606	0.0144518
708.684	0.0142408
708.762	0.0139230
708.840	0.0136741
708.918	0.0136205
708.996	0.0137096
709.075	0.0135789
709.153	0.0138326
709.231	0.0140200
709.309	0.0139928
709.387	0.0142378
709.465	0.0143278
709.543	0.0146726
709.621	0.0149309
709.700	0.0151318
709.778	0.0153754
709.856	0.0152869
709.934	0.0152106
710.012	0.0151193
710.090	0.0152451
710.168	0.0150111
710.246	0.0148226
710.325	0.0146738
710.403	0.0145717
710.481	0.0145007
710.559	0.0142862
710.637	0.0140797
710.715	0.0142310
710.793	0.0141486
710.871	0.0139787
710.950	0.0140015
711.028	0.0140987
711.106	0.0142569
711.184	0.0143459
711.262	0.0143687
711.340	0.0145528
711.418	0.0147959
711.496	0.0147482
711.575	0.0148697
711.653	0.0149408
711.731	0.0149235
711.809	0.0149323
711.887	0.0147328
711.965	0.0146050
712.043	0.0144889
712.121	0.0143062
712.200	0.0141016
712.278	0.0140085
712.356	0.0138081
712.434	0.0135803
712.512	0.0138885
712.590	0.0136565
712.668	0.0138174
712.746	0.0137490
712.825	0.0139467
712.903	0.0140118
712.981	0.0143022
713.059	0.0144613
713.137	0.0147183
713.215	0.0149998
713.293	0.0151492
713.371	0.0152274
713.450	0.0151743
713.528	0.0152593
713.606	0.0153033
713.684	0.0151403
713.762	0.0150041
713.840	0.0148205
713.918	0.0145360
713.996	0.0144700
714.075	0.0141937
714.153	0.0139920
714.231	0.0139769
714.309	0.0137898
714.387	0.0138142
714.465	0.0137965
714.543	0.0139395
714.621	0.0142515
714.700	0.0143311
714.778	0.0146821
714.856	0.0148017
714.934	0.0150924
715.012	0.0152014
715.090	0.0155216
715.168	0.0155512
715.246	0.0154561
715.325	0.0153284
715.403	0.0152007
715.481	0.0148894
715.559	0.0146982
715.637	0.0144561
715.715	0.0142215
715.793	0.0139163
715.871	0.0137150
715.950	0.0137241
716.028	0.0135902
716.106	0.0136259
716.184	0.0136443
716.262	0.0134998
716.340	0.0135785
716.418	0.0136845
716.496	0.0138594
716.575	0.0140340
716.653	0.0141846
716.731	0.0143674
716.809	0.0144565
716.887	0.0147069
716.965	0.0149107
717.043	0.0149088
717.121	0.0149209
717.200	0.0150390
717.278	0.0149950
717.356	0.0149879
717.434	0.0149651
717.512	0.0151175
717.590	0.0150945
717.668	0.0148981
717.746	0.0148537
717.825	0.0147739
717.903	0.0147852
717.981	0.0145345
718.059	0.0145699
718.137	0.0145998
718.215	0.0143325
718.293	0.0141881
718.371	0.0140881
718.450	0.0140250
718.528	0.0140893
718.606	0.0139430
718.684	0.0142384
718.762	0.0142528
718.840	0.0143251
718.918	0.0141801
718.996	0.0144204
719.075	0.0144497
719.153	0.0144762
719.231	0.0144513
719.309	0.0146124
719.387	0.0147926
719.465	0.0145487
719.543	0.0147034
719.621	0.0147451
719.700	0.0146913
719.778	0.0145197
719.856	0.0146003
719.934	0.0144511
720.012	0.0142917
720.090	0.0143314
720.168	0.0141964
720.246	0.0140466
720.325	0.0141134
720.403	0.0142146
720.481	0.0142532
720.559	0.0142971
720.637	0.0142005
720.715	0.0143338
720.793	0.0144398
720.871	0.0144263
720.950	0.0145418
721.028	0.0147027
721.106	0.0145726
721.184	0.0146276
721.262	0.0147096
721.340	0.0148225
721.418	0.0147528
721.496	0.0147655
721.575	0.0146660
721.653	0.0146091
721.731	0.0147009
721.809	0.0145399
721.887	0.0147221
721.965	0.0147028
722.043	0.0146520
722.121	0.0146805
722.200	0.0147421
722.278	0.0148017
722.356	0.0146414
722.434	0.0145668
722.512	0.0145300
722.590	0.0145158
722.668	0.0141698
722.746	0.0142348
722.825	0.0143138
722.903	0.0141805
722.981	0.0142590
723.059	0.0141389
723.137	0.0140628
723.215	0.0141390
723.293	0.0141483
723.371	0.0142744
723.450	0.0141872
723.528	0.0142044
723.606	0.0145399
723.684	0.0146526
723.762	0.0145377
723.840	0.0146238
723.918	0.0147220
723.996	0.0146357
724.075	0.0145728
724.153	0.0145432
724.231	0.0145264
724.309	0.0145122
724.387	0.0142561
724.465	0.0141987
724.543	0.0142396
724.621	0.0142580
724.700	0.0142913
724.778	0.0143027
724.856	0.0143732
724.934	0.0145455
725.012	0.0147056
725.090	0.0148586
725.168	0.0147935
725.246	0.0150017
725.325	0.0150713
725.403	0.0151037
725.481	0.0148861
725.559	0.0147551
725.637	0.0146974
725.715	0.0147377
725.793	0.0144884
725.871	0.0142152
725.950	0.0142483
726.028	0.0141321
726.106	0.0139663
726.184	0.0141463
726.262	0.0141674
726.340	0.0139750
726.418	0.0140816
726.496	0.0142673
726.575	0.0143240
726.653	0.0144414
726.731	0.0143607
726.809	0.0143500
726.887	0.0143416
726.965	0.0145060
727.043	0.0144421
727.121	0.0144330
727.200	0.0145441
727.278	0.0145068
727.356	0.0144322
727.434	0.0144892
727.512	0.0143439
727.590	0.0143523
727.668	0.0145525
727.746	0.0144966
727.825	0.0146146
727.903	0.0144926
727.981	0.0145613
728.059	0.0145200
728.137	0.0144465
728.215	0.0147154
728.293	0.0146268
728.371	0.0145266
728.450	0.0145195
728.528	0.0144252
728.606	0.0143259
728.684	0.0142611
728.762	0.0142702
728.840	0.0143198
728.918	0.0144121
728.996	0.0143927
729.075	0.0144170
729.153	0.0145023
729.231	0.0145541
729.309	0.0145720
729.387	0.0145460
729.465	0.0145518
729.543	0.0146140
729.621	0.0146043
729.700	0.0144800
729.778	0.0145424
729.856	0.0145551
729.934	0.0144365
730.012	0.0143395
730.090	0.0143903
730.168	0.0144087
730.246	0.0143842
730.325	0.0142594
730.403	0.0143450
730.481	0.0143137
730.559	0.0143536
730.637	0.0142685
730.715	0.0142059
730.793	0.0143102
730.871	0.0143470
730.950	0.0142917
731.028	0.0144784
731.106	0.0143272
731.184	0.0144618
731.262	0.0145950
731.340	0.0145358
731.418	0.0147524
731.496	0.0147134
731.575	0.0148097
731.653	0.0147959
731.731	0.0148244
731.809	0.0147835
731.887	0.0148646
731.965	0.0148520
732.043	0.0149066
732.121	0.0147510
732.200	0.0145515
732.278	0.0147034
732.356	0.0146029
732.434	0.0145056
732.512	0.0144608
732.590	0.0143593
732.668	0.0142267
732.746	0.0142217
732.825	0.0142576
732.903	0.0142208
732.981	0.0142326
733.059	0.0142596
733.137	0.0141635
733.215	0.0141768
733.293	0.0141649
733.371	0.0143089
733.450	0.0142191
733.528	0.0144283
733.606	0.0144227
733.684	0.0144911
733.762	0.0145392
733.840	0.0145981
733.918	0.0146606
733.996	0.0147057
734.075	0.0147540
734.153	0.0146870
734.231	0.0147080
734.309	0.0147556
734.387	0.0147942
734.465	0.0145672
734.543	0.0147681
734.621	0.0144878
734.700	0.0144477
734.778	0.0144335
734.856	0.0144477
734.934	0.0142443
735.012	0.0142579
735.090	0.0141452
735.168	0.0140589
735.246	0.0142526
735.325	0.0142863
735.403	0.0143289
735.481	0.0144306
735.559	0.0146471
735.637	0.0147122
735.715	0.0147729
735.793	0.0149678
735.871	0.0149983
735.950	0.0149802
736.028	0.0150950
736.106	0.0150847
736.184	0.0149733
736.262	0.0148029
736.340	0.0149215
736.418	0.0147102
736.496	0.0144926
736.575	0.0143241
736.653	0.0143030
736.731	0.0142563
736.809	0.0141457
736.887	0.0140146
736.965	0.0141032
737.043	0.0140096
737.121	0.0140588
737.200	0.0139936
737.278	0.0139690
737.356	0.0140473
737.434	0.0140984
737.512	0.0142715
737.590	0.0143155
737.668	0.0143874
737.746	0.0143292
737.825	0.0144341
737.903	0.0146182
737.981	0.0146143
738.059	0.0145629
738.137	0.0146103
738.215	0.0146586
738.293	0.0146123
738.371	0.0145986
738.450	0.0147578
738.528	0.0146226
738.606	0.0146662
738.684	0.0146468
738.762	0.0146525
738.840	0.0146849
738.918	0.0147253
738.996	0.0148277
739.075	0.0147316
739.153	0.0148507
739.231	0.0145435
739.309	0.0146043
739.387	0.0147549
739.465	0.0146417
739.543	0.0145499
739.621	0.0145599
739.700	0.0146237
739.778	0.0145734
739.856	0.0145623
739.934	0.0144937
740.012	0.0143174
740.090	0.0143999
740.168	0.0145100
740.246	0.0143354
740.325	0.0143966
740.403	0.0142780
740.481	0.0143930
740.559	0.0143296
740.637	0.0143423
740.715	0.0143953
740.793	0.0144164
740.871	0.0144646
740.950	0.0144574
741.028	0.0144250
741.106	0.0142361
741.184	0.0144293
741.262	0.0143671
741.340	0.0144932
741.418	0.0144250
741.496	0.0145118
741.575	0.0144762
741.653	0.0143765
741.731	0.0144355
741.809	0.0144750
741.887	0.0145406
741.965	0.0145586
742.043	0.0144320
742.121	0.0144296
742.200	0.0143386
742.278	0.0142540
742.356	0.0141570
742.434	0.0143616
742.512	0.0144367
742.590	0.0144251
742.668	0.0142865
742.746	0.0143256
742.825	0.0144398
742.903	0.0145595
742.981	0.0144673
743.059	0.0146275
743.137	0.0146971
743.215	0.0147444
743.293	0.0147913
743.371	0.0148341
743.450	0.0149010
743.528	0.0149583
743.606	0.0149145
743.684	0.0148547
743.762	0.0148053
743.840	0.0150435
743.918	0.0146737
743.996	0.0146712
744.075	0.0147384
744.153	0.0146484
744.231	0.0146799
744.309	0.0143837
744.387	0.0144064
744.465	0.0142144
744.543	0.0143208
744.621	0.0143385
744.700	0.0143262
744.778	0.0142645
744.856	0.0141804
744.934	0.0143316
745.012	0.0141866
745.090	0.0142121
745.168	0.0142535
745.246	0.0143401
745.325	0.0141469
745.403	0.0143320
745.481	0.0142682
745.559	0.0142731
745.637	0.0144674
745.715	0.0144492
745.793	0.0143065
745.871	0.0144521
745.950	0.0144495
746.028	0.0144244
746.106	0.0144318
746.184	0.0145235
746.262	0.0145099
746.340	0.0146488
746.418	0.0145713
746.496	0.0145682
746.575	0.0145487
746.653	0.0144234
746.731	0.0144210
746.809	0.0145238
746.887	0.0143598
746.965	0.0144473
747.043	0.0144685
747.121	0.0144131
747.200	0.0145864
747.278	0.0144920
747.356	0.0144176
747.434	0.0144235
747.512	0.0144672
747.590	0.0144315
747.668	0.0143694
747.746	0.0144097
747.825	0.0146310
747.903	0.0145725
747.981	0.0147641
748.059	0.0146465
748.137	0.0146556
748.215	0.0145581
748.293	0.0147497
748.371	0.0147832
748.450	0.0146098
748.528	0.0145947
748.606	0.0145649
748.684	0.0146611
748.762	0.0146297
748.840	0.0146535
748.918	0.0145537
748.996	0.0144178
749.075	0.0144984
749.153	0.0143979
749.231	0.0143610
749.309	0.0142644
749.387	0.0142594
749.465	0.0142548
749.543	0.0141549
749.621	0.0142834
749.700	0.0143738
749.778	0.0143196
749.856	0.0143275
749.934	0.0143550
750.012	0.0142855
750.090	0.0143680
750.168	0.0143372
750.246	0.0143711
750.325	0.0143835
750.403	0.0144778
750.481	0.0144572
750.559	0.0144483
750.637	0.0145858
750.715	0.0145647
750.793	0.0146581
750.871	0.0146508
750.950	0.0145678
751.028	0.0146006
751.106	0.0146073
751.184	0.0146878
751.262	0.0147079
751.340	0.0147402
751.418	0.0147529
751.496	0.0146573
751.575	0.0146483
751.653	0.0146553
751.731	0.0146327
751.809	0.0144460
751.887	0.0145988
751.965	0.0143986
752.043	0.0145724
752.121	0.0145670
752.200	0.0145090
752.278	0.0146118
752.356	0.0144570
752.434	0.0145747
752.512	0.0146398
752.590	0.0145997
752.668	0.0145285
752.746	0.0145718
752.825	0.0146355
752.903	0.0145478
752.981	0.0145705
753.059	0.0146082
753.137	0.0145650
753.215	0.0144540
753.293	0.0145094
753.371	0.0144634
753.450	0.0145174
753.528	0.0145913
753.606	0.0145532
753.684	0.0144388
753.762	0.0146721
753.840	0.0144675
753.918	0.0143386
753.996	0.0145107
754.075	0.0144639
754.153	0.0144257
754.231	0.0144803
754.309	0.0144509
754.387	0.0143739
754.465	0.0143817
754.543	0.0142978
754.621	0.0143399
754.700	0.0143202
754.778	0.0143787
754.856	0.0144921
754.934	0.0143382
755.012	0.0144228
755.090	0.0145264
755.168	0.0144798
755.246	0.0145714
755.325	0.0144335
755.403	0.0146638
755.481	0.0147763
755.559	0.0147116
755.637	0.0147295
755.715	0.0147983
755.793	0.0148235
755.871	0.0146489
755.950	0.0147736
756.028	0.0146105
756.106	0.0145969
756.184	0.0146188
756.262	0.0146616
756.340	0.0147173
756.418	0.0145546
756.496	0.0144229
756.575	0.0144622
756.653	0.0144102
756.731	0.0142872
756.809	0.0144872
756.887	0.0143569
756.965	0.0143795
757.043	0.0144280
757.121	0.0143919
757.200	0.0143874
757.278	0.0143713
757.356	0.0144430
757.434	0.0143894
757.512	0.0144596
757.590	0.0144840
757.668	0.0143111
757.746	0.0143089
757.825	0.0143707
757.903	0.0144595
757.981	0.0142537
758.059	0.0142375
758.137	0.0143222
758.215	0.0144585
758.293	0.0144028
758.371	0.0143126
758.450	0.0144363
758.528	0.0145065
758.606	0.0145425
758.684	0.0146879
758.762	0.0145272
758.840	0.0145039
758.918	0.0145783
758.996	0.0146734
759.075	0.0145603
759.153	0.0146225
759.231	0.0146274
759.309	0.0144034
759.387	0.0143719
759.465	0.0145065
759.543	0.0146259
759.621	0.0145309
759.700	0.0144345
759.778	0.0144841
759.856	0.0144810
759.934	0.0145183
760.012	0.0143967
760.090	0.0145084
760.168	0.0143787
760.246	0.0143871
760.325	0.0145090
760.403	0.0145399
760.481	0.0143958
760.559	0.0144170
760.637	0.0143451
760.715	0.0143037
760.793	0.0144373
760.871	0.0144109
760.950	0.0143932
761.028	0.0144605
761.106	0.0144449
761.184	0.0144755
761.262	0.0143005
761.340	0.0145242
761.418	0.0144562
761.496	0.0143595
761.575	0.0143874
761.653	0.0144385
761.731	0.0143925
761.809	0.0144263
761.887	0.0143766
761.965	0.0143423
762.043	0.0144085
762.121	0.0144205
762.200	0.0142549
762.278	0.0143927
762.356	0.0143554
762.434	0.0143500
762.512	0.0143577
762.590	0.0144893
762.668	0.0144104
762.746	0.0144089
762.825	0.0145603
762.903	0.0145695
762.981	0.0146230
763.059	0.0144360
763.137	0.0144701
763.215	0.0145569
763.293	0.0147556
763.371	0.0146951
763.450	0.0147107
763.528	0.0146578
763.606	0.0145944
763.684	0.0144480
763.762	0.0145354
763.840	0.0146304
763.918	0.0144790
763.996	0.0145589
764.075	0.0145269
764.153	0.0145463
764.231	0.0145015
764.309	0.0145025
764.387	0.0145816
764.465	0.0144833
764.543	0.0144079
764.621	0.0145255
764.700	0.0143925
764.778	0.0143191
764.856	0.0144323
764.934	0.0145142
765.012	0.0143428
765.090	0.0142194
765.168	0.0144819
765.246	0.0143375
765.325	0.0143275
765.403	0.0143693
765.481	0.0143244
765.559	0.0144193
765.637	0.0144592
765.715	0.0145287
765.793	0.0144495
765.871	0.0143580
765.950	0.0143236
766.028	0.0143542
766.106	0.0143816
766.184	0.0143872
766.262	0.0142878
766.340	0.0144409
766.418	0.0142577
766.496	0.0144998
766.575	0.0146816
766.653	0.0144391
766.731	0.0145555
766.809	0.0145865
766.887	0.0145118
766.965	0.0145779
767.043	0.0144983
767.121	0.0146275
767.200	0.0145871
767.278	0.0145988
767.356	0.0145087
767.434	0.0145845
767.512	0.0146556
767.590	0.0145991
767.668	0.0145980
767.746	0.0145734
767.825	0.0145551
767.903	0.0144287
767.981	0.0144720
768.059	0.0145929
768.137	0.0146838
768.215	0.0145973
768.293	0.0145034
768.371	0.0145441
768.450	0.0146255
768.528	0.0146314
768.606	0.0144253
768.684	0.0144305
768.762	0.0143587
768.840	0.0144940
768.918	0.0146366
768.996	0.0143496
769.075	0.0142558
769.153	0.0142874
769.231	0.0143687
769.309	0.0143380
769.387	0.0143815
769.465	0.0142712
769.543	0.0142015
769.621	0.0144357
769.700	0.0143880
769.778	0.0143504
769.856	0.0144712
769.934	0.0143758
770.012	0.0144018
770.090	0.0143703
770.168	0.0145038
770.246	0.0143118
770.325	0.0144907
770.403	0.0145287
770.481	0.0144925
770.559	0.0144663
770.637	0.0146727
770.715	0.0145562
770.793	0.0145475
770.871	0.0144968
770.950	0.0146207
771.028	0.0145460
771.106	0.0145330
771.184	0.0145614
771.262	0.0145781
771.340	0.0145967
771.418	0.0145859
771.496	0.0145948
771.575	0.0146836
771.653	0.0144563
771.731	0.0145412
771.809	0.0146097
771.887	0.0145624
771.965	0.0145354
772.043	0.0144410
772.121	0.0146010
772.200	0.0145502
772.278	0.0145493
772.356	0.0145478
772.434	0.0146727
772.512	0.0145583
772.590	0.0145280
772.668	0.0144393
772.746	0.0144157
772.825	0.0144736
772.903	0.0141905
772.981	0.0143613
773.059	0.0144418
773.137	0.0143287
773.215	0.0143199
773.293	0.0143829
773.371	0.0144062
773.450	0.0142885
773.528	0.0142982
773.606	0.0143935
773.684	0.0144523
773.762	0.0144213
773.840	0.0144891
773.918	0.0144932
773.996	0.0145380
774.075	0.0145602
774.153	0.0144387
774.231	0.0143751
774.309	0.0145782
774.387	0.0145937
774.465	0.0145821
774.543	0.0145103
774.621	0.0145732
774.700	0.0145823
774.778	0.0147187
774.856	0.0147678
774.934	0.0145068
775.012	0.0146104
775.090	0.0146164
775.168	0.0147148
775.246	0.0145625
775.325	0.0145930
775.403	0.0146291
775.481	0.0146419
775.559	0.0146086
775.637	0.0145717
775.715	0.0147095
775.793	0.0145930
775.871	0.0145040
775.950	0.0145380
776.028	0.0146089
776.106	0.0145226
776.184	0.0145232
776.262	0.0145017
776.340	0.0145811
776.418	0.0146987
776.496	0.0146861
776.575	0.0146240
776.653	0.0143894
776.731	0.0145937
776.809	0.0145399
776.887	0.0143251
776.965	0.0144474
777.043	0.0145077
777.121	0.0144276
777.200	0.0143280
777.278	0.0143176
777.356	0.0143646
777.434	0.0144664
777.512	0.0143474
777.590	0.0141964
777.668	0.0143280
777.746	0.0144204
777.825	0.0143424
777.903	0.0142604
777.981	0.0144287
778.059	0.0144440
778.137	0.0143196
778.215	0.0142526
778.293	0.0143787
778.371	0.0144431
778.450	0.0143979
778.528	0.0144871
778.606	0.0144216
778.684	0.0144307
778.762	0.0144219
778.840	0.0145054
778.918	0.0144389
778.996	0.0145595
779.075	0.0146122
779.153	0.0146473
779.231	0.0145284
779.309	0.0145923
779.387	0.0146525
779.465	0.0147217
779.543	0.0144881
779.621	0.0145343
779.700	0.0145933
779.778	0.0145016
779.856	0.0144878
779.934	0.0146382
780.012	0.0145802
780.090	0.0145461
780.168	0.0145438
780.246	0.0145869
780.325	0.0144179
780.403	0.0145234
780.481	0.0144785
780.559	0.0145900
780.637	0.0146022
780.715	0.0144538
780.793	0.0145612
780.871	0.0144313
780.950	0.0143817
781.028	0.0143495
781.106	0.0143671
781.184	0.0144359
781.262	0.0143707
781.340	0.0144488
781.418	0.0143387
781.496	0.0141588
781.575	0.0143130
781.653	0.0143067
781.731	0.0143367
781.809	0.0142043
781.887	0.0142333
781.965	0.0144517
782.043	0.0143277
782.121	0.0144885
782.200	0.0143123
782.278	0.0144772
782.356	0.0143999
782.434	0.0143313
782.512	0.0144596
782.590	0.0144685
782.668	0.0144486
782.746	0.0143834
782.825	0.0145189
782.903	0.0145830
782.981	0.0145132
783.059	0.0144557
783.137	0.0143704
783.215	0.0145280
783.293	0.0146331
783.371	0.0143887
783.450	0.0145285
783.528	0.0145692
783.606	0.0144584
783.684	0.0145372
783.762	0.0146391
783.840	0.0144960
783.918	0.0146190
783.996	0.0145948
784.075	0.0145699
784.153	0.0145868
784.231	0.0147862
784.309	0.0145863
784.387	0.0145398
784.465	0.0145686
784.543	0.0146019
784.621	0.0145799
784.700	0.0144936
784.778	0.0145113
784.856	0.0144413
784.934	0.0144650
785.012	0.0144656
785.090	0.0143159
785.168	0.0143371
785.246	0.0143274
785.325	0.0143386
785.403	0.0143906
785.481	0.0144137
785.559	0.0144360
785.637	0.0144161
785.715	0.0143891
785.793	0.0143702
785.871	0.0143844
785.950	0.0143614
786.028	0.0144296
786.106	0.0143584
786.184	0.0145718
786.262	0.0144761
786.340	0.0144205
786.418	0.0145728
786.496	0.0145288
786.575	0.0144423
786.653	0.0144663
786.731	0.0146517
786.809	0.0146100
786.887	0.0145444
786.965	0.0146543
787.043	0.0146073
787.121	0.0145662
787.200	0.0145543
787.278	0.0145278
787.356	0.0146423
787.434	0.0146511
787.512	0.0144546
787.590	0.0145597
787.668	0.0145898
787.746	0.0145107
787.825	0.0146490
787.903	0.0144054
787.981	0.0144914
788.059	0.0145836
788.137	0.0144200
788.215	0.0143826
788.293	0.0144951
788.371	0.0145004
788.450	0.0144344
788.528	0.0144987
788.606	0.0145631
788.684	0.0144134
788.762	0.0143698
788.840	0.0145464
788.918	0.0145665
788.996	0.0145210
789.075	0.0144584
789.153	0.0144203
789.231	0.0143909
789.309	0.0143271
789.387	0.0144453
789.465	0.0144473
789.543	0.0143954
789.621	0.0144585
789.700	0.0145163
789.778	0.0145222
789.856	0.0143761
789.934	0.0145834
790.012	0.0144319
790.090	0.0144080
790.168	0.0144141
790.246	0.0145084
790.325	0.0144995
790.403	0.0143524
790.481	0.0144014
790.559	0.0143743
790.637	0.0145218
790.715	0.0144938
790.793	0.0145438
790.871	0.0145293
790.950	0.0145515
791.028	0.0145316
791.106	0.0146707
791.184	0.0145320
791.262	0.0146830
791.340	0.0146299
791.418	0.0145885
791.496	0.0145615
791.575	0.0145879
791.653	0.0145508
791.731	0.0146159
791.809	0.0146550
791.887	0.0145672
791.965	0.0146722
792.043	0.0147099
792.121	0.0146190
792.200	0.0146008
792.278	0.0146383
792.356	0.0147896
792.434	0.0146005
792.512	0.0145267
792.590	0.0146350
792.668	0.0144854
792.746	0.0143999
792.825	0.0145641
792.903	0.0145801
792.981	0.0143600
793.059	0.0145075
793.137	0.0144199
793.215	0.0143134
793.293	0.0144257
793.371	0.0142905
793.450	0.0143549
793.528	0.0142873
793.606	0.0145195
793.684	0.0145397
793.762	0.0144750
793.840	0.0142647
793.918	0.0144195
793.996	0.0143449
794.075	0.0143665
794.153	0.0143718
794.231	0.0144735
794.309	0.0143958
794.387	0.0143759
794.465	0.0143426
794.543	0.0144466
794.621	0.0143971
794.700	0.0143789
794.778	0.0143825
794.856	0.0144927
794.934	0.0144025
795.012	0.0144550
795.090	0.0145628
795.168	0.0144177
795.246	0.0144158
795.325	0.0144963
795.403	0.0145383
795.481	0.0144618
795.559	0.0143177
795.637	0.0144629
795.715	0.0146362
795.793	0.0143976
795.871	0.0144232
795.950	0.0144518
796.028	0.0144793
796.106	0.0144446
796.184	0.0144537
796.262	0.0146585
796.340	0.0145235
796.418	0.0145152
796.496	0.0144684
796.575	0.0144547
796.653	0.0143221
796.731	0.0144886
796.809	0.0144828
796.887	0.0145174
796.965	0.0143871
797.043	0.0145382
797.121	0.0144346
797.200	0.0144153
797.278	0.0144347
797.356	0.0144071
797.434	0.0144076
797.512	0.0144527
797.590	0.0142919
797.668	0.0143415
797.746	0.0144164
797.825	0.0145166
797.903	0.0143576
797.981	0.0143207
798.059	0.0145060
798.137	0.0144077
798.215	0.0143487
798.293	0.0145580
798.371	0.0145493
798.450	0.0146188
798.528	0.0145056
798.606	0.0143887
798.684	0.0145623
798.762	0.0146017
798.840	0.0143811
798.918	0.0145007
798.996	0.0146091
799.075	0.0143897
799.153	0.0144562
799.231	0.0144966
799.309	0.0145314
799.387	0.0146264
799.465	0.0146014
799.543	0.0145621
799.621	0.0145027
799.700	0.0144569
799.778	0.0144622
799.856	0.0145099
799.934	0.0144664
800.012	0.0143670
800.090	0.0144326
800.168	0.0143511
800.246	0.0143045
800.325	0.0145274
800.403	0.0144310
800.481	0.0143849
800.559	0.0145265
800.637	0.0145374
800.715	0.0145242
800.793	0.0144799
800.871	0.0146487
800.950	0.0146542
801.028	0.0144434
801.106	0.0144483
801.184	0.0145989
801.262	0.0144607
801.340	0.0144330
801.418	0.0144072
801.496	0.0144779
801.575	0.0144778
801.653	0.0143630
801.731	0.0144978
801.809	0.0142963
801.887	0.0145538
801.965	0.0142373
802.043	0.0142973
802.121	0.0144217
802.200	0.0144090
802.278	0.0143880
802.356	0.0142815
802.434	0.0144143
802.512	0.0144894
802.590	0.0144066
802.668	0.0144219
802.746	0.0145948
802.825	0.0145159
802.903	0.0145057
802.981	0.0145042
803.059	0.0145090
803.137	0.0145302
803.215	0.0145393
803.293	0.0144746
803.371	0.0143628
803.450	0.0144327
803.528	0.0145600
803.606	0.0144439
803.684	0.0143964
803.762	0.0143865
803.840	0.0144275
803.918	0.0144480
803.996	0.0143076
804.075	0.0144209
804.153	0.0143579
804.231	0.0143756
804.309	0.0143138
804.387	0.0143342
804.465	0.0143764
804.543	0.0142635
804.621	0.0143412
804.700	0.0143916
804.778	0.0143662
804.856	0.0143215
804.934	0.0143681
805.012	0.0143713
805.090	0.0144417
805.168	0.0144135
805.246	0.0142574
805.325	0.0144682
805.403	0.0144518
805.481	0.0142409
805.559	0.0142968
805.637	0.0145532
805.715	0.0144877
805.793	0.0145521
805.871	0.0144202
805.950	0.0144753
806.028	0.0144305
806.106	0.0143740
806.184	0.0145920
806.262	0.0143980
806.340	0.0143883
806.418	0.0144606
806.496	0.0145734
806.575	0.0144234
806.653	0.0145469
806.731	0.0146626
806.809	0.0145949
806.887	0.0145352
806.965	0.0144427
807.043	0.0145795
807.121	0.0146061
807.200	0.0146789
807.278	0.0145145
807.356	0.0145101
807.434	0.0146091
807.512	0.0146091
807.590	0.0144807
807.668	0.0145631
807.746	0.0144881
807.825	0.0145990
807.903	0.0145753
807.981	0.0144180
808.059	0.0145776
808.137	0.0144610
808.215	0.0144198
808.293	0.0143449
808.371	0.0143015
808.450	0.0144272
808.528	0.0143911
808.606	0.0142429
808.684	0.0143951
808.762	0.0143236
808.840	0.0142645
808.918	0.0143121
808.996	0.0144150
809.075	0.0144544
809.153	0.0145499
809.231	0.0143008
809.309	0.0143854
809.387	0.0144102
809.465	0.0143226
809.543	0.0144838
809.621	0.0144386
809.700	0.0144282
809.778	0.0144713
809.856	0.0145954
809.934	0.0144072
810.012	0.0145498
810.090	0.0146191
810.168	0.0145214
810.246	0.0145298
810.325	0.0145528
810.403	0.0145609
810.481	0.0146432
810.559	0.0145635
810.637	0.0145829
810.715	0.0146035
810.793	0.0145552
810.871	0.0145667
810.950	0.0145123
811.028	0.0145023
811.106	0.0145709
811.184	0.0144163
811.262	0.0144093
811.340	0.0145226
811.418	0.0145959
811.496	0.0145571
811.575	0.0145094
811.653	0.0143927
811.731	0.0143797
811.809	0.0144392
811.887	0.0144863
811.965	0.0143919
812.043	0.0143749
812.121	0.0142962
812.200	0.0144355
812.278	0.0145282
812.356	0.0145459
812.434	0.0144284
812.512	0.0144293
812.590	0.0146266
812.668	0.0146973
812.746	0.0146422
812.825	0.0145272
812.903	0.0145078
812.981	0.0145310
813.059	0.0145861
813.137	0.0145791
813.215	0.0145597
813.293	0.0145619
813.371	0.0145762
813.450	0.0144613
813.528	0.0145767
813.606	0.0144544
813.684	0.0144093
813.762	0.0144920
813.840	0.0144915
813.918	0.0144824
813.996	0.0145189
814.075	0.0144065
814.153	0.0143414
814.231	0.0144177
814.309	0.0143507
814.387	0.0145236
814.465	0.0144936
814.543	0.0144300
814.621	0.0143555
814.700	0.0142801
814.778	0.0144515
814.856	0.0143233
814.934	0.0144789
815.012	0.0145100
815.090	0.0144532
815.168	0.0145078
815.246	0.0144673
815.325	0.0144130
815.403	0.0144730
815.481	0.0145685
815.559	0.0143575
815.637	0.0146034
815.715	0.0145485
815.793	0.0144131
815.871	0.0145093
815.950	0.0143688
816.028	0.0143677
816.106	0.0144451
816.184	0.0144248
816.262	0.0144604
816.340	0.0145433
816.418	0.0144884
816.496	0.0145490
816.575	0.0143446
816.653	0.0142896
816.731	0.0143993
816.809	0.0144274
816.887	0.0143509
816.965	0.0143317
817.043	0.0145036
817.121	0.0145544
817.200	0.0144702
817.278	0.0144923
817.356	0.0145267
817.434	0.0145345
817.512	0.0145349
817.590	0.0145435
817.668	0.0146307
817.746	0.0145315
817.825	0.0144565
817.903	0.0146364
817.981	0.0145738
818.059	0.0145480
818.137	0.0145714
818.215	0.0144498
818.293	0.0145009
818.371	0.0146280
818.450	0.0145480
818.528	0.0145907
818.606	0.0146230
818.684	0.0145014
818.762	0.0145332
818.840	0.0144154
818.918	0.0144134
818.996	0.0145709
819.075	0.0145414
819.153	0.0145400
819.231	0.0144267
819.309	0.0143817
819.387	0.0142975
819.465	0.0144242
819.543	0.0145243
819.621	0.0144365
819.700	0.0144764
819.778	0.0143727
819.856	0.0146265
819.934	0.0144721
820.012	0.0145330
820.090	0.0146151
820.168	0.0144737
820.246	0.0145245
820.325	0.0144951
820.403	0.0145028
820.481	0.0145129
820.559	0.0143005
820.637	0.0144436
820.715	0.0144767
820.793	0.0143459
820.871	0.0144216
820.950	0.0143681
821.028	0.0144670
821.106	0.0144656
821.184	0.0143417
821.262	0.0144650
821.340	0.0144984
821.418	0.0144992
821.496	0.0144807
821.575	0.0145159
821.653	0.0144885
821.731	0.0143816
821.809	0.0144088
821.887	0.0144074
821.965	0.0144224
822.043	0.0145153
822.121	0.0145519
822.200	0.0144172
822.278	0.0145050
822.356	0.0145541
822.434	0.0144492
822.512	0.0143913
822.590	0.0144765
822.668	0.0143240
822.746	0.0143541
822.825	0.0143954
822.903	0.0143934
822.981	0.0143726
823.059	0.0143917
823.137	0.0144413
823.215	0.0145207
823.293	0.0142973
823.371	0.0142696
823.450	0.0142532
823.528	0.0143480
823.606	0.0143246
823.684	0.0142402
823.762	0.0142777
823.840	0.0143910
823.918	0.0143641
823.996	0.0143652
824.075	0.0143719
824.153	0.0143493
824.231	0.0143257
824.309	0.0143329
824.387	0.0144147
824.465	0.0142528
824.543	0.0142657
824.621	0.0142439
824.700	0.0142766
824.778	0.0142199
824.856	0.0141956
824.934	0.0143946
825.012	0.0143481
825.090	0.0143762
825.168	0.0143728
825.246	0.0143257
825.325	0.0142770
825.403	0.0144124
825.481	0.0143874
825.559	0.0143126
825.637	0.0144063
825.715	0.0143863
825.793	0.0144863
825.871	0.0143906
825.950	0.0145032
826.028	0.0144936
826.106	0.0145757
826.184	0.0144268
826.262	0.0144516
826.340	0.0144837
826.418	0.0143932
826.496	0.0145393
826.575	0.0145443
826.653	0.0143608
826.731	0.0143388
826.809	0.0144495
826.887	0.0144102
826.965	0.0143517
827.043	0.0144562
827.121	0.0144350
827.200	0.0143678
827.278	0.0145686
827.356	0.0144341
827.434	0.0144823
827.512	0.0144771
827.590	0.0144352
827.668	0.0144805
827.746	0.0144666
827.825	0.0144575
827.903	0.0143893
827.981	0.0144301
828.059	0.0145100
828.137	0.0145553
828.215	0.0145718
828.293	0.0144926
828.371	0.0144733
828.450	0.0145303
828.528	0.0145249
828.606	0.0145329
828.684	0.0144373
828.762	0.0144493
828.840	0.0143100
828.918	0.0145795
828.996	0.0144026
829.075	0.0143326
829.153	0.0144137
829.231	0.0143798
829.309	0.0143255
829.387	0.0143933
829.465	0.0143083
829.543	0.0142429
829.621	0.0142867
829.700	0.0142927
829.778	0.0142447
829.856	0.0144520
829.934	0.0143862
830.012	0.0144289
830.090	0.0143657
830.168	0.0144329
830.246	0.0145257
830.325	0.0144979
830.403	0.0144572
830.481	0.0145678
830.559	0.0143709
830.637	0.0145970
830.715	0.0145577
830.793	0.0145889
830.871	0.0144428
830.950	0.0143778
831.028	0.0144075
831.106	0.0145512
831.184	0.0144982
831.262	0.0145757
831.340	0.0146043
831.418	0.0145586
831.496	0.0145760
831.575	0.0144856
831.653	0.0145605
831.731	0.0145432
831.809	0.0145304
831.887	0.0145953
831.965	0.0145882
832.043	0.0146352
832.121	0.0146156
832.200	0.0145963
832.278	0.0145094
832.356	0.0145214
832.434	0.0145281
832.512	0.0145473
832.590	0.0145222
832.668	0.0144396
832.746	0.0145841
832.825	0.0144891
832.903	0.0145339
832.981	0.0145150
833.059	0.0144632
833.137	0.0144819
833.215	0.0143684
833.293	0.0143993
833.371	0.0143658
833.450	0.0144046
833.528	0.0144345
833.606	0.0144567
833.684	0.0145067
833.762	0.0145212
833.840	0.0143401
833.918	0.0143768
833.996	0.0146381
834.075	0.0145034
834.153	0.0145712
834.231	0.0145637
834.309	0.0144064
834.387	0.0144503
834.465	0.0144200
834.543	0.0144654
834.621	0.0145596
834.700	0.0145263
834.778	0.0144699
834.856	0.0144768
834.934	0.0144959
835.012	0.0144236
835.090	0.0143752
835.168	0.0145279
835.246	0.0144025
835.325	0.0144683
835.403	0.0145056
835.481	0.0144576
835.559	0.0144565
835.637	0.0144440
835.715	0.0145428
835.793	0.0144324
835.871	0.0144113
835.950	0.0144362
836.028	0.0144705
836.106	0.0145998
836.184	0.0144644
836.262	0.0145649
836.340	0.0146493
836.418	0.0145068
836.496	0.0145890
836.575	0.0147321
836.653	0.0145547
836.731	0.0145361
836.809	0.0145734
836.887	0.0144766
836.965	0.0145248
837.043	0.0145599
837.121	0.0144112
837.200	0.0144205
837.278	0.0142745
837.356	0.0143815
837.434	0.0145101
837.512	0.0144783
837.590	0.0144060
837.668	0.0142942
837.746	0.0143989
837.825	0.0143569
837.903	0.0144597
837.981	0.0142978
838.059	0.0143519
838.137	0.0143809
838.215	0.0145465
838.293	0.0144103
838.371	0.0143272
838.450	0.0143966
838.528	0.0145910
838.606	0.0145178
838.684	0.0144414
838.762	0.0144245
838.840	0.0145073
838.918	0.0144605
838.996	0.0145663
839.075	0.0144958
839.153	0.0144810
839.231	0.0143631
839.309	0.0145226
839.387	0.0145273
839.465	0.0145169
839.543	0.0144389
839.621	0.0144400
839.700	0.0144399
839.778	0.0145377
839.856	0.0145125
839.934	0.0144165
840.012	0.0144353
840.090	0.0144907
840.168	0.0144830
840.246	0.0145525
840.325	0.0145911
840.403	0.0145069
840.481	0.0144439
840.559	0.0144695
840.637	0.0143974
840.715	0.0144093
840.793	0.0144629
840.871	0.0143807
840.950	0.0143912
841.028	0.0144545
841.106	0.0145333
841.184	0.0144682
841.262	0.0143285
841.340	0.0144186
841.418	0.0145979
841.496	0.0143831
841.575	0.0144231
841.653	0.0144439
841.731	0.0144125
841.809	0.0145963
841.887	0.0145071
841.965	0.0145657
842.043	0.0144458
842.121	0.0144099
842.200	0.0145603
842.278	0.0145188
842.356	0.0144578
842.434	0.0145978
842.512	0.0145367
842.590	0.0144173
842.668	0.0143728
842.746	0.0144106
842.825	0.0144729
842.903	0.0145376
842.981	0.0145834
843.059	0.0144551
843.137	0.0144928
843.215	0.0146010
843.293	0.0143892
843.371	0.0143610
843.450	0.0144721
843.528	0.0143323
843.606	0.0144852
843.684	0.0143881
843.762	0.0144862
843.840	0.0144073
843.918	0.0145044
843.996	0.0145708
844.075	0.0144362
844.153	0.0145325
844.231	0.0144531
844.309	0.0144612
844.387	0.0145460
844.465	0.0144514
844.543	0.0145331
844.621	0.0145720
844.700	0.0143731
844.778	0.0144123
844.856	0.0144087
844.934	0.0144975
845.012	0.0144165
845.090	0.0144069
845.168	0.0144228
845.246	0.0143852
845.325	0.0144583
845.403	0.0144901
845.481	0.0143240
845.559	0.0143791
845.637	0.0143490
845.715	0.0144278
845.793	0.0144051
845.871	0.0142476
845.950	0.0143674
846.028	0.0143141
846.106	0.0143480
846.184	0.0142912
846.262	0.0143255
846.340	0.0144974
846.418	0.0143749
846.496	0.0143920
846.575	0.0144120
846.653	0.0143338
846.731	0.0143697
846.809	0.0142707
846.887	0.0143850
846.965	0.0144623
847.043	0.0143806
847.121	0.0143889
847.200	0.0145506
847.278	0.0144558
847.356	0.0144577
847.434	0.0144289
847.512	0.0144576
847.590	0.0145576
847.668	0.0145672
847.746	0.0146893
847.825	0.0145266
847.903	0.0145187
847.981	0.0144581
848.059	0.0144820
848.137	0.0145866
848.215	0.0144704
848.293	0.0144289
848.371	0.0145747
848.450	0.0145367
848.528	0.0145296
848.606	0.0146526
848.684	0.0146584
848.762	0.0145370
848.840	0.0145964
848.918	0.0145596
848.996	0.0144913
849.075	0.0142838
849.153	0.0144435
849.231	0.0144266
849.309	0.0143726
849.387	0.0144265
849.465	0.0145936
849.543	0.0144523
849.621	0.0143460
849.700	0.0144910
849.778	0.0143700
849.856	0.0143969
849.934	0.0143986
850.012	0.0143582
850.090	0.0143115
850.168	0.0143929
850.246	0.0144118
850.325	0.0142938
850.403	0.0144102
850.481	0.0144733
850.559	0.0144274
850.637	0.0144846
850.715	0.0144918
850.793	0.0143649
850.871	0.0144205
850.950	0.0144286
851.028	0.0146333
851.106	0.0143957
851.184	0.0144559
851.262	0.0143727
851.340	0.0142889
851.418	0.0143945
851.496	0.0144769
851.575	0.0145055
851.653	0.0144045
851.731	0.0145956
851.809	0.0146338
851.887	0.0145314
851.965	0.0144562
852.043	0.0144868
852.121	0.0145296
852.200	0.0144315
852.278	0.0144110
852.356	0.0144152
852.434	0.0144919
852.512	0.0144437
852.590	0.0144842
852.668	0.0144916
852.746	0.0144707
852.825	0.0145556
852.903	0.0145094
852.981	0.0145512
853.059	0.0144704
853.137	0.0145000
853.215	0.0145171
853.293	0.0145693
853.371	0.0144985
853.450	0.0144714
853.528	0.0146355
853.606	0.0145442
853.684	0.0145660
853.762	0.0144976
853.840	0.0145979
853.918	0.0145560
853.996	0.0144775
854.075	0.0144332
854.153	0.0143647
854.231	0.0145978
854.309	0.0145442
854.387	0.0143863
854.465	0.0144189
854.543	0.0145518
854.621	0.0144465
854.700	0.0144910
854.778	0.0144540
854.856	0.0144478
854.934	0.0144503
855.012	0.0145618
855.090	0.0144503
855.168	0.0145020
855.246	0.0145857
855.325	0.0145599
855.403	0.0144659
855.481	0.0143861
855.559	0.0145725
855.637	0.0145396
855.715	0.0144605
855.793	0.0145611
855.871	0.0145115
855.950	0.0145186
856.028	0.0144946
856.106	0.0143850
856.184	0.0145629
856.262	0.0145406
856.340	0.0144323
856.418	0.0145663
856.496	0.0145689
856.575	0.0145243
856.653	0.0145482
856.731	0.0145576
856.809	0.0146106
856.887	0.0145328
856.965	0.0144725
857.043	0.0145668
857.121	0.0145257
857.200	0.0145396
857.278	0.0145622
857.356	0.0144898
857.434	0.0145755
857.512	0.0145350
857.590	0.0146153
857.668	0.0144339
857.746	0.0144319
857.825	0.0145057
857.903	0.0144647
857.981	0.0145621
858.059	0.0144491
858.137	0.0143648
858.215	0.0143741
858.293	0.0146026
858.371	0.0145213
858.450	0.0144584
858.528	0.0145284
858.606	0.0145477
858.684	0.0143605
858.762	0.0142854
858.840	0.0143661
858.918	0.0143904
858.996	0.0144398
859.075	0.0145628
859.153	0.0145356
859.231	0.0144745
859.309	0.0144991
859.387	0.0145260
859.465	0.0145581
859.543	0.0145870
859.621	0.0146033
859.700	0.0146846
859.778	0.0145987
859.856	0.0145483
859.934	0.0146874
860.012	0.0146094
860.090	0.0146101
860.168	0.0145377
860.246	0.0146884
860.325	0.0146526
860.403	0.0144354
860.481	0.0144504
860.559	0.0144431
860.637	0.0144819
860.715	0.0144447
860.793	0.0145985
860.871	0.0145201
860.950	0.0144193
861.028	0.0144592
861.106	0.0144846
861.184	0.0144180
861.262	0.0143667
861.340	0.0144125
861.418	0.0143717
861.496	0.0144181
861.575	0.0143398
861.653	0.0142694
861.731	0.0143344
861.809	0.0143888
861.887	0.0143798
861.965	0.0143472
862.043	0.0143888
862.121	0.0142609
862.200	0.0144586
862.278	0.0143732
862.356	0.0145171
862.434	0.0145211
862.512	0.0144191
862.590	0.0145432
862.668	0.0145436
862.746	0.0144370
862.825	0.0144920
862.903	0.0144285
862.981	0.0144122
863.059	0.0144884
863.137	0.0146002
863.215	0.0146069
863.293	0.0144689
863.371	0.0145931
863.450	0.0146324
863.528	0.0143758
863.606	0.0144708
863.684	0.0145284
863.762	0.0145629
863.840	0.0144592
863.918	0.0143683
863.996	0.0145976
864.075	0.0145834
864.153	0.0144545
864.231	0.0145551
864.309	0.0143417
864.387	0.0145232
864.465	0.0145190
864.543	0.0143803
864.621	0.0145423
864.700	0.0144295
864.778	0.0143682
864.856	0.0144881
864.934	0.0146029
865.012	0.0144451
865.090	0.0143127
865.168	0.0144131
865.246	0.0145364
865.325	0.0144936
865.403	0.0145376
865.481	0.0145461
865.559	0.0144146
865.637	0.0144503
865.715	0.0145569
865.793	0.0144717
865.871	0.0144215
865.950	0.0143819
866.028	0.0142965
866.106	0.0143235
866.184	0.0144709
866.262	0.0144330
866.340	0.0144898
866.418	0.0145048
866.496	0.0144079
866.575	0.0143849
866.653	0.0143274
866.731	0.0144844
866.809	0.0145125
866.887	0.0144624
866.965	0.0144759
867.043	0.0146681
867.121	0.0146049
867.200	0.0143684
867.278	0.0145604
867.356	0.0145348
867.434	0.0144619
867.512	0.0143786
867.590	0.0145049
867.668	0.0144960
867.746	0.0144826
867.825	0.0143825
867.903	0.0144847
867.981	0.0145203
868.059	0.0144724
868.137	0.0145434
868.215	0.0146624
868.293	0.0145300
868.371	0.0144977
868.450	0.0144746
868.528	0.0143888
868.606	0.0143896
868.684	0.0143069
868.762	0.0142874
868.840	0.0145097
868.918	0.0146208
868.996	0.0144106
869.075	0.0145796
869.153	0.0144760
869.231	0.0144267
869.309	0.0144270
869.387	0.0145327
869.465	0.0144303
869.543	0.0142973
869.621	0.0144902
869.700	0.0146006
869.778	0.0142063
869.856	0.0142907
869.934	0.0145476
870.012	0.0144046
870.090	0.0144654
870.168	0.0146095
870.246	0.0143922
870.325	0.0144424
870.403	0.0144541
870.481	0.0144067
870.559	0.0146019
870.637	0.0145232
870.715	0.0145542
870.793	0.0144327
870.871	0.0143579
870.950	0.0145857
871.028	0.0145301
871.106	0.0144283
871.184	0.0143819
871.262	0.0145041
871.340	0.0144885
871.418	0.0143845
871.496	0.0146134
871.575	0.0146236
871.653	0.0144865
871.731	0.0145645
871.809	0.0146396
871.887	0.0146245
871.965	0.0144234
872.043	0.0145026
872.121	0.0145827
872.200	0.0148164
872.278	0.0145591
872.356	0.0145456
872.434	0.0144543
872.512	0.0144793
872.590	0.0146270
872.668	0.0145358
872.746	0.0143786
872.825	0.0144402
872.903	0.0144294
872.981	0.0144805
873.059	0.0144151
873.137	0.0144052
873.215	0.0144706
873.293	0.0145432
873.371	0.0144114
873.450	0.0145669
873.528	0.0144418
873.606	0.0144806
873.684	0.0145297
873.762	0.0145664
873.840	0.0144499
873.918	0.0146899
873.996	0.0146101
874.075	0.0145280
874.153	0.0144621
874.231	0.0145533
874.309	0.0144250
874.387	0.0145452
874.465	0.0146193
874.543	0.0146404
874.621	0.0145842
874.700	0.0146248
874.778	0.0146023
874.856	0.0146139
874.934	0.0146296
875.012	0.0145748
875.090	0.0145045
875.168	0.0145200
875.246	0.0145500
875.325	0.0143861
875.403	0.0145055
875.481	0.0145226
875.559	0.0145595
875.637	0.0144971
875.715	0.0145452
875.793	0.0145998
875.871	0.0144609
875.950	0.0145136
876.028	0.0145428
876.106	0.0144747
876.184	0.0144867
876.262	0.0145155
876.340	0.0146115
876.418	0.0144002
876.496	0.0144961
876.575	0.0146058
876.653	0.0144945
876.731	0.0144228
876.809	0.0145337
876.887	0.0145703
876.965	0.0145502
877.043	0.0146288
877.121	0.0144344
877.200	0.0144827
877.278	0.0145168
877.356	0.0145155
877.434	0.0144122
877.512	0.0145680
877.590	0.0145572
877.668	0.0144745
877.746	0.0143154
877.825	0.0144540
877.903	0.0145499
877.981	0.0145363
878.059	0.0145158
878.137	0.0144229
878.215	0.0144878
878.293	0.0144789
878.371	0.0145213
878.450	0.0145171
878.528	0.0143907
878.606	0.0144968
878.684	0.0145094
878.762	0.0144393
878.840	0.0145188
878.918	0.0144994
878.996	0.0145434
879.075	0.0145901
879.153	0.0144942
879.231	0.0145824
879.309	0.0145963
879.387	0.0145635
879.465	0.0145370
879.543	0.0145415
879.621	0.0145667
879.700	0.0147264
879.778	0.0144934
879.856	0.0145351
879.934	0.0144425
880.012	0.0145002
880.090	0.0145184
880.168	0.0146247
880.246	0.0146011
880.325	0.0143674
880.403	0.0144354
880.481	0.0144572
880.559	0.0145193
880.637	0.0145348
880.715	0.0145599
880.793	0.0144337
880.871	0.0144312
880.950	0.0145000
881.028	0.0145163
881.106	0.0144054
881.184	0.0144852
881.262	0.0143894
881.340	0.0144977
881.418	0.0144873
881.496	0.0145638
881.575	0.0144612
881.653	0.0143015
881.731	0.0144712
881.809	0.0144228
881.887	0.0144244
881.965	0.0144522
882.043	0.0145195
882.121	0.0145409
882.200	0.0144275
882.278	0.0144522
882.356	0.0145851
882.434	0.0144154
882.512	0.0144344
882.590	0.0145012
882.668	0.0143774
882.746	0.0144930
882.825	0.0144344
882.903	0.0144351
882.981	0.0144231
883.059	0.0144133
883.137	0.0143586
883.215	0.0143654
883.293	0.0143996
883.371	0.0143362
883.450	0.0145476
883.528	0.0146375
883.606	0.0145148
883.684	0.0145327
883.762	0.0143027
883.840	0.0143801
883.918	0.0144409
883.996	0.0143862
884.075	0.0144350
884.153	0.0144592
884.231	0.0144328
884.309	0.0142596
884.387	0.0144751
884.465	0.0144041
884.543	0.0144149
884.621	0.0143862
884.700	0.0143984
884.778	0.0143861
884.856	0.0144540
884.934	0.0144447
885.012	0.0145071
885.090	0.0144260
885.168	0.0144539
885.246	0.0144641
885.325	0.0145616
885.403	0.0144130
885.481	0.0144447
885.559	0.0145266
885.637	0.0144179
885.715	0.0144294
885.793	0.0143740
885.871	0.0144139
885.950	0.0143893
886.028	0.0144160
886.106	0.0143690
886.184	0.0143613
886.262	0.0143180
886.340	0.0144175
886.418	0.0143876
886.496	0.0143966
886.575	0.0145268
886.653	0.0144186
886.731	0.0145430
886.809	0.0145052
886.887	0.0143348
886.965	0.0144781
887.043	0.0145654
887.121	0.0144805
887.200	0.0145195
887.278	0.0145486
887.356	0.0144633
887.434	0.0144036
887.512	0.0143024
887.590	0.0144453
887.668	0.0143698
887.746	0.0143515
887.825	0.0144333
887.903	0.0143887
887.981	0.0144009
888.059	0.0145163
888.137	0.0144394
888.215	0.0144604
888.293	0.0145022
888.371	0.0145524
888.450	0.0143616
888.528	0.0144456
888.606	0.0146187
888.684	0.0144115
888.762	0.0144411
888.840	0.0144138
888.918	0.0145433
888.996	0.0144270
889.075	0.0144640
889.153	0.0144528
889.231	0.0144551
889.309	0.0145379
889.387	0.0145503
889.465	0.0145157
889.543	0.0144764
889.621	0.0145901
889.700	0.0145956
889.778	0.0145947
889.856	0.0145336
889.934	0.0144218
890.012	0.0144290
890.090	0.0144131
890.168	0.0142995
890.246	0.0144563
890.325	0.0144287
890.403	0.0144493
890.481	0.0144367
890.559	0.0144924
890.637	0.0146595
890.715	0.0146118
890.793	0.0145338
890.871	0.0145183
890.950	0.0145592
891.028	0.0146922
891.106	0.0146880
891.184	0.0145467
891.262	0.0142876
891.340	0.0146042
891.418	0.0145693
891.496	0.0145379
891.575	0.0144692
891.653	0.0144578
891.731	0.0144199
891.809	0.0144687
891.887	0.0145437
891.965	0.0144977
892.043	0.0144833
892.121	0.0145256
892.200	0.0145186
892.278	0.0145914
892.356	0.0144738
892.434	0.0144344
892.512	0.0145122
892.590	0.0144199
892.668	0.0145475
892.746	0.0146288
892.825	0.0144683
892.903	0.0145420
892.981	0.0145229
893.059	0.0144117
893.137	0.0143005
893.215	0.0144503
893.293	0.0144434
893.371	0.0143229
893.450	0.0143259
893.528	0.0144865
893.606	0.0144514
893.684	0.0145403
893.762	0.0144544
893.840	0.0145630
893.918	0.0146189
893.996	0.0144150
894.075	0.0144733
894.153	0.0144308
894.231	0.0143975
894.309	0.0143690
894.387	0.0143661
894.465	0.0143550
894.543	0.0144182
894.621	0.0144307
894.700	0.0144603
894.778	0.0145679
894.856	0.0145419
894.934	0.0145242
895.012	0.0146661
895.090	0.0146461
895.168	0.0145911
895.246	0.0145560
895.325	0.0145043
895.403	0.0144369
895.481	0.0145782
895.559	0.0144534
895.637	0.0144147
895.715	0.0145911
895.793	0.0143763
895.871	0.0142984
895.950	0.0143703
896.028	0.0144454
896.106	0.0142464
896.184	0.0144666
896.262	0.0144771
896.340	0.0144860
896.418	0.0143929
896.496	0.0145428
896.575	0.0145586
896.653	0.0145098
896.731	0.0146400
896.809	0.0146332
896.887	0.0146001
896.965	0.0146130
897.043	0.0144724
897.121	0.0144699
897.200	0.0144192
897.278	0.0144886
897.356	0.0144640
897.434	0.0144238
897.512	0.0144724
897.590	0.0144151
897.668	0.0143546
897.746	0.0144540
897.825	0.0143948
897.903	0.0143632
897.981	0.0144481
898.059	0.0145920
898.137	0.0144500
898.215	0.0144578
898.293	0.0145170
898.371	0.0144143
898.450	0.0143797
898.528	0.0143432
898.606	0.0144901
898.684	0.0144849
898.762	0.0143825
898.840	0.0145043
898.918	0.0144501
898.996	0.0144707
899.075	0.0145201
899.153	0.0144112
899.231	0.0144086
899.309	0.0144932
899.387	0.0144844
899.465	0.0146023
899.543	0.0146115
899.621	0.0145004
899.700	0.0145274
899.778	0.0145415
899.856	0.0145251
899.934	0.0144012
900.012	0.0145157
900.090	0.0145710
900.168	0.0146016
900.246	0.0144710
900.325	0.0146357
900.403	0.0145882
900.481	0.0145374
900.559	0.0146358
900.637	0.0144460
900.715	0.0143407
900.793	0.0143751
900.871	0.0144919
900.950	0.0144701
901.028	0.0144614
901.106	0.0144859
901.184	0.0145104
901.262	0.0145327
901.340	0.0144458
901.418	0.0144969
901.496	0.0144621
901.575	0.0146793
901.653	0.0146043
901.731	0.0144902
901.809	0.0145629
901.887	0.0146252
901.965	0.0146933
902.043	0.0146709
902.121	0.0146236
902.200	0.0145354
902.278	0.0144122
902.356	0.0144453
902.434	0.0144969
902.512	0.0143081
902.590	0.0142519
902.668	0.0144611
902.746	0.0145729
902.825	0.0143134
902.903	0.0144704
902.981	0.0143893
903.059	0.0143681
903.137	0.0144137
903.215	0.0144613
903.293	0.0144905
903.371	0.0143063
903.450	0.0145861
903.528	0.0145239
903.606	0.0144906
903.684	0.0144547
903.762	0.0145605
903.840	0.0145082
903.918	0.0143060
903.996	0.0143650
904.075	0.0143528
904.153	0.0143242
904.231	0.0144503
904.309	0.0144067
904.387	0.0142468
904.465	0.0144699
904.543	0.0144027
904.621	0.0144026
904.700	0.0145374
904.778	0.0145671
904.856	0.0145428
904.934	0.0145010
905.012	0.0146818
905.090	0.0146124
905.168	0.0145802
905.246	0.0146654
905.325	0.0145821
905.403	0.0144937
905.481	0.0146304
905.559	0.0146342
905.637	0.0143900
905.715	0.0143826
905.793	0.0143038
905.871	0.0143864
905.950	0.0143618
906.028	0.0142711
906.106	0.0143654
906.184	0.0144642
906.262	0.0143468
906.340	0.0143340
906.418	0.0144735
906.496	0.0144893
906.575	0.0144101
906.653	0.0145224
906.731	0.0146349
906.809	0.0145668
906.887	0.0144801
906.965	0.0145826
907.043	0.0145660
907.121	0.0145888
907.200	0.0145358
907.278	0.0143999
907.356	0.0145297
907.434	0.0145666
907.512	0.0144846
907.590	0.0143734
907.668	0.0143308
907.746	0.0144656
907.825	0.0145467
907.903	0.0143769
907.981	0.0143829
908.059	0.0143717
908.137	0.0142866
908.215	0.0142965
908.293	0.0143445
908.371	0.0143764
908.450	0.0145265
908.528	0.0143112
908.606	0.0144859
908.684	0.0145284
908.762	0.0145273
908.840	0.0144241
908.918	0.0145081
908.996	0.0145282
909.075	0.0144412
909.153	0.0144658
909.231	0.0145219
909.309	0.0143333
909.387	0.0145148
909.465	0.0145468
909.543	0.0145278
909.621	0.0144855
909.700	0.0144754
909.778	0.0144240
909.856	0.0143971
909.934	0.0145463
910.012	0.0143757
910.090	0.0145084
910.168	0.0144270
910.246	0.0143063
910.325	0.0143714
910.403	0.0143255
910.481	0.0144453
910.559	0.0145290
910.637	0.0145515
910.715	0.0145940
910.793	0.0147079
910.871	0.0145747
910.950	0.0145775
911.028	0.0146066
911.106	0.0145470
911.184	0.0146301
911.262	0.0145860
911.340	0.0146144
911.418	0.0145788
911.496	0.0144942
911.575	0.0144999
911.653	0.0144578
911.731	0.0143803
911.809	0.0143785
911.887	0.0142828
911.965	0.0145143
912.043	0.0144593
912.121	0.0144861
912.200	0.0144141
912.278	0.0144850
912.356	0.0143320
912.434	0.0144942
912.512	0.0145112
912.590	0.0145638
912.668	0.0144674
912.746	0.0145911
912.825	0.0147755
912.903	0.0146439
912.981	0.0144517
913.059	0.0145396
913.137	0.0146248
913.215	0.0146532
913.293	0.0145848
913.371	0.0145493
913.450	0.0144314
913.528	0.0145765
913.606	0.0145352
913.684	0.0143359
913.762	0.0143193
913.840	0.0145309
913.918	0.0147182
913.996	0.0144540
914.075	0.0145783
914.153	0.0145776
914.231	0.0145457
914.309	0.0146088
914.387	0.0145678
914.465	0.0143661
914.543	0.0143510
914.621	0.0146174
914.700	0.0144703
914.778	0.0143444
914.856	0.0145327
914.934	0.0145219
915.012	0.0144820
915.090	0.0144043
915.168	0.0143468
915.246	0.0144299
915.325	0.0144305
915.403	0.0144220
915.481	0.0145214
915.559	0.0145285
915.637	0.0147018
915.715	0.0147025
915.793	0.0145675
915.871	0.0143625
915.950	0.0145174
916.028	0.0146119
916.106	0.0145081
916.184	0.0145293
916.262	0.0146257
916.340	0.0146055
916.418	0.0144293
916.496	0.0144456
916.575	0.0143923
916.653	0.0145275
916.731	0.0145901
916.809	0.0145638
916.887	0.0144979
916.965	0.0144950
917.043	0.0144382
917.121	0.0145161
917.200	0.0145158
917.278	0.0144553
917.356	0.0143758
917.434	0.0145154
917.512	0.0144553
917.590	0.0143376
917.668	0.0144870
917.746	0.0143263
917.825	0.0142998
917.903	0.0143883
917.981	0.0144533
918.059	0.0145730
918.137	0.0144956
918.215	0.0144823
918.293	0.0143349
918.371	0.0144942
918.450	0.0144910
918.528	0.0145259
918.606	0.0146009
918.684	0.0145691
918.762	0.0146162
918.840	0.0146724
918.918	0.0144975
918.996	0.0145367
919.075	0.0145889
919.153	0.0143417
919.231	0.0145293
919.309	0.0145123
919.387	0.0145169
919.465	0.0146056
919.543	0.0144173
919.621	0.0144103
919.700	0.0146815
919.778	0.0145877
919.856	0.0146397
919.934	0.0145380
920.012	0.0144478
920.090	0.0144994
920.168	0.0144672
920.246	0.0143874
920.325	0.0145521
920.403	0.0144324
920.481	0.0142841
920.559	0.0145409
920.637	0.0143918
920.715	0.0144136
920.793	0.0146038
920.871	0.0145502
920.950	0.0145810
921.028	0.0145853
921.106	0.0144310
921.184	0.0144250
921.262	0.0144891
921.340	0.0145601
921.418	0.0144924
921.496	0.0144701
921.575	0.0145232
921.653	0.0144271
921.731	0.0145067
921.809	0.0145010
921.887	0.0144725
921.965	0.0145957
922.043	0.0142616
922.121	0.0145347
922.200	0.0144373
922.278	0.0143002
922.356	0.0145048
922.434	0.0144659
922.512	0.0144616
922.590	0.0144980
922.668	0.0144653
922.746	0.0143908
922.825	0.0144786
922.903	0.0143890
922.981	0.0143999
923.059	0.0143816
923.137	0.0144477
923.215	0.0144163
923.293	0.0143890
923.371	0.0142406
923.450	0.0144196
923.528	0.0144496
923.606	0.0145081
923.684	0.0144913
923.762	0.0144214
923.840	0.0144073
923.918	0.0143147
923.996	0.0143363
924.075	0.0144069
924.153	0.0145684
924.231	0.0143797
924.309	0.0142656
924.387	0.0143209
924.465	0.0144202
924.543	0.0143896
924.621	0.0143896
924.700	0.0144960
924.778	0.0144330
924.856	0.0143453
924.934	0.0142958
925.012	0.0144315
925.090	0.0142866
925.168	0.0144300
925.246	0.0142972
925.325	0.0143803
925.403	0.0142990
925.481	0.0143858
925.559	0.0143549
925.637	0.0143753
925.715	0.0144496
925.793	0.0143929
925.871	0.0144823
925.950	0.0144573
926.028	0.0144054
926.106	0.0145229
926.184	0.0144585
926.262	0.0144414
926.340	0.0144830
926.418	0.0145256
926.496	0.0144396
926.575	0.0143565
926.653	0.0144794
926.731	0.0144556
926.809	0.0143499
926.887	0.0144087
926.965	0.0143488
927.043	0.0142970
927.121	0.0144029
927.200	0.0145138
927.278	0.0143743
927.356	0.0144983
927.434	0.0142857
927.512	0.0144765
927.590	0.0144709
927.668	0.0144399
927.746	0.0144465
927.825	0.0144534
927.903	0.0144238
927.981	0.0144128
928.059	0.0143919
928.137	0.0144514
928.215	0.0143915
928.293	0.0144632
928.371	0.0142883
928.450	0.0144102
928.528	0.0144809
928.606	0.0144279
928.684	0.0144078
928.762	0.0143969
928.840	0.0143774
928.918	0.0144250
928.996	0.0144896
929.075	0.0144032
929.153	0.0144362
929.231	0.0143911
929.309	0.0143573
929.387	0.0144452
929.465	0.0143970
929.543	0.0145881
929.621	0.0146282
929.700	0.0143967
929.778	0.0144553
929.856	0.0144594
929.934	0.0145558
930.012	0.0145357
930.090	0.0144846
930.168	0.0144734
930.246	0.0144734
930.325	0.0144464
930.403	0.0144755
930.481	0.0144538
930.559	0.0144737
930.637	0.0144664
930.715	0.0145544
930.793	0.0144841
930.871	0.0145123
930.950	0.0146224
931.028	0.0147272
931.106	0.0145929
931.184	0.0145824
931.262	0.0146108
931.340	0.0144968
931.418	0.0145646
931.496	0.0145084
931.575	0.0143858
931.653	0.0143573
931.731	0.0145390
931.809	0.0146256
931.887	0.0144681
931.965	0.0143597
932.043	0.0144878
932.121	0.0144592
932.200	0.0145082
932.278	0.0144403
932.356	0.0145217
932.434	0.0144238
932.512	0.0145501
932.590	0.0145407
932.668	0.0146915
932.746	0.0145596
932.825	0.0147146
932.903	0.0145500
932.981	0.0145813
933.059	0.0145118
933.137	0.0145797
933.215	0.0145856
933.293	0.0145964
933.371	0.0144966
933.450	0.0145944
933.528	0.0144589
933.606	0.0144421
933.684	0.0145161
933.762	0.0146270
933.840	0.0145025
933.918	0.0144983
933.996	0.0144765
934.075	0.0145999
934.153	0.0145526
934.231	0.0144766
934.309	0.0145998
934.387	0.0145705
934.465	0.0144534
934.543	0.0144965
934.621	0.0145138
934.700	0.0146032
934.778	0.0146010
934.856	0.0145885
934.934	0.0144347
935.012	0.0144311
935.090	0.0144640
935.168	0.0145848
935.246	0.0145892
935.325	0.0145895
935.403	0.0146033
935.481	0.0144691
935.559	0.0144697
935.637	0.0145981
935.715	0.0144900
935.793	0.0145181
935.871	0.0145657
935.950	0.0144485
936.028	0.0144283
936.106	0.0143484
936.184	0.0143237
936.262	0.0145222
936.340	0.0145856
936.418	0.0145798
936.496	0.0146017
936.575	0.0145377
936.653	0.0143971
936.731	0.0144676
936.809	0.0146162
936.887	0.0145255
936.965	0.0145804
937.043	0.0146010
937.121	0.0145872
937.200	0.0145395
937.278	0.0145246
937.356	0.0146770
937.434	0.0145923
937.512	0.0144544
937.590	0.0144922
937.668	0.0144498
937.746	0.0145488
937.825	0.0144506
937.903	0.0144765
937.981	0.0144025
938.059	0.0144260
938.137	0.0145396
938.215	0.0144021
938.293	0.0144672
938.371	0.0145049
938.450	0.0144839
938.528	0.0146088
938.606	0.0146031
938.684	0.0145699
938.762	0.0145180
938.840	0.0145354
938.918	0.0145611
938.996	0.0144398
939.075	0.0146062
939.153	0.0144920
939.231	0.0145741
939.309	0.0143784
939.387	0.0145695
939.465	0.0144353
939.543	0.0145807
939.621	0.0145593
939.700	0.0145399
939.778	0.0145058
939.856	0.0144977
939.934	0.0146486
940.012	0.0145745
940.090	0.0144421
940.168	0.0145954
940.246	0.0145362
940.325	0.0145051
940.403	0.0144820
940.481	0.0144349
940.559	0.0145207
940.637	0.0144759
940.715	0.0144144
940.793	0.0144274
940.871	0.0142981
940.950	0.0144334
941.028	0.0145055
941.106	0.0143529
941.184	0.0143992
941.262	0.0142542
941.340	0.0143189
941.418	0.0145419
941.496	0.0142934
941.575	0.0145858
941.653	0.0144411
941.731	0.0144038
941.809	0.0145522
941.887	0.0144370
941.965	0.0143752
942.043	0.0144405
942.121	0.0144614
942.200	0.0145010
942.278	0.0145394
942.356	0.0145265
942.434	0.0145190
942.512	0.0144151
942.590	0.0144863
942.668	0.0144527
942.746	0.0144568
942.825	0.0144677
942.903	0.0145332
942.981	0.0145145
943.059	0.0145437
943.137	0.0144882
943.215	0.0144125
943.293	0.0145579
943.371	0.0144544
943.450	0.0145571
943.528	0.0144334
943.606	0.0145432
943.684	0.0145593
943.762	0.0144970
943.840	0.0145197
943.918	0.0145594
943.996	0.0145706
944.075	0.0145717
944.153	0.0143685
944.231	0.0144527
944.309	0.0144419
944.387	0.0144418
944.465	0.0145719
944.543	0.0145314
944.621	0.0145069
944.700	0.0143109
944.778	0.0144654
944.856	0.0145051
944.934	0.0144323
945.012	0.0145027
945.090	0.0145305
945.168	0.0145329
945.246	0.0145232
945.325	0.0145885
945.403	0.0144553
945.481	0.0144809
945.559	0.0144643
945.637	0.0145002
945.715	0.0144697
945.793	0.0143567
945.871	0.0144904
945.950	0.0144617
946.028	0.0143635
946.106	0.0145157
946.184	0.0144794
946.262	0.0144128
946.340	0.0144733
946.418	0.0143502
946.496	0.0144393
946.575	0.0144068
946.653	0.0144316
946.731	0.0144200
946.809	0.0144569
946.887	0.0145016
946.965	0.0143387
947.043	0.0144595
947.121	0.0142829
947.200	0.0144206
947.278	0.0144494
947.356	0.0144994
947.434	0.0144692
947.512	0.0143952
947.590	0.0144431
947.668	0.0145097
947.746	0.0144164
947.825	0.0144433
947.903	0.0144949
947.981	0.0145161
948.059	0.0143358
948.137	0.0143844
948.215	0.0144572
948.293	0.0146052
948.371	0.0144962
948.450	0.0145319
948.528	0.0144487
948.606	0.0144796
948.684	0.0144392
948.762	0.0144578
948.840	0.0145905
948.918	0.0145187
948.996	0.0144426
949.075	0.0143645
949.153	0.0143793
949.231	0.0145654
949.309	0.0144387
949.387	0.0144170
949.465	0.0143564
949.543	0.0142827
949.621	0.0144651
949.700	0.0144191
949.778	0.0144171
949.856	0.0143689
949.934	0.0143664
950.012	0.0145552
950.090	0.0143518
950.168	0.0143825
950.246	0.0145101
950.325	0.0146165
950.403	0.0145155
950.481	0.0143965
950.559	0.0145569
950.637	0.0145255
950.715	0.0145792
950.793	0.0144695
950.871	0.0143119
950.950	0.0144653
951.028	0.0144936
951.106	0.0144709
951.184	0.0143557
951.262	0.0144816
951.340	0.0145869
951.418	0.0145106
951.496	0.0144290
951.575	0.0144476
951.653	0.0144018
951.731	0.0145494
951.809	0.0145956
951.887	0.0145841
951.965	0.0145638
952.043	0.0145244
952.121	0.0145193
952.200	0.0144576
952.278	0.0143948
952.356	0.0144204
952.434	0.0144797
952.512	0.0144894
952.590	0.0145933
952.668	0.0145472
952.746	0.0144472
952.825	0.0144435
952.903	0.0145502
952.981	0.0144056
953.059	0.0144996
953.137	0.0143565
953.215	0.0144628
953.293	0.0144314
953.371	0.0144697
953.450	0.0145151
953.528	0.0144883
953.606	0.0146149
953.684	0.0143646
953.762	0.0145588
953.840	0.0145293
953.918	0.0147141
953.996	0.0146476
954.075	0.0145712
954.153	0.0146226
954.231	0.0144648
954.309	0.0145045
954.387	0.0145663
954.465	0.0144748
954.543	0.0144266
954.621	0.0144553
954.700	0.0144052
954.778	0.0145216
954.856	0.0144432
954.934	0.0145434
955.012	0.0144201
955.090	0.0145252
955.168	0.0144186
955.246	0.0146211
955.325	0.0145237
955.403	0.0145287
955.481	0.0145416
955.559	0.0146598
955.637	0.0145479
955.715	0.0144672
955.793	0.0146073
955.871	0.0144302
955.950	0.0144157
956.028	0.0143627
956.106	0.0143787
956.184	0.0144672
956.262	0.0145907
956.340	0.0145679
956.418	0.0144522
956.496	0.0145506
956.575	0.0145811
956.653	0.0144572
956.731	0.0144823
956.809	0.0145930
956.887	0.0146210
956.965	0.0143235
957.043	0.0145120
957.121	0.0145468
957.200	0.0145151
957.278	0.0145653
957.356	0.0145672
957.434	0.0144839
957.512	0.0145466
957.590	0.0144530
957.668	0.0146165
957.746	0.0145602
957.825	0.0145135
957.903	0.0144707
957.981	0.0143652
958.059	0.0145927
958.137	0.0144772
958.215	0.0145484
958.293	0.0145259
958.371	0.0146555
958.450	0.0145486
958.528	0.0146056
958.606	0.0144092
958.684	0.0144383
958.762	0.0144867
958.840	0.0146381
958.918	0.0146157
958.996	0.0144706
959.075	0.0144534
959.153	0.0145170
959.231	0.0146267
959.309	0.0146171
959.387	0.0145297
959.465	0.0145236
959.543	0.0144842
959.621	0.0144596
959.700	0.0145076
959.778	0.0145491
959.856	0.0143574
959.934	0.0144546
960.012	0.0146098
960.090	0.0144833
960.168	0.0145114
960.246	0.0145128
960.325	0.0145377
960.403	0.0145339
960.481	0.0145610
960.559	0.0144753
960.637	0.0145263
960.715	0.0145753
960.793	0.0146426
960.871	0.0146031
960.950	0.0145219
961.028	0.0146963
961.106	0.0144305
961.184	0.0145596
961.262	0.0146925
961.340	0.0146186
961.418	0.0144946
961.496	0.0146289
961.575	0.0146289
961.653	0.0145266
961.731	0.0143391
961.809	0.0143237
961.887	0.0144086
961.965	0.0144209
962.043	0.0143945
962.121	0.0144122
962.200	0.0145113
962.278	0.0144382
962.356	0.0144141
962.434	0.0143519
962.512	0.0144180
962.590	0.0144474
962.668	0.0145701
962.746	0.0146393
962.825	0.0144717
962.903	0.0146181
962.981	0.0144592
963.059	0.0144628
963.137	0.0145686
963.215	0.0145740
963.293	0.0145208
963.371	0.0145670
963.450	0.0145725
963.528	0.0145876
963.606	0.0145502
963.684	0.0145581
963.762	0.0146365
963.840	0.0144722
963.918	0.0145695
963.996	0.0143938
964.075	0.0145284
964.153	0.0145345
964.231	0.0143668
964.309	0.0143606
964.387	0.0144062
964.465	0.0144250
964.543	0.0143937
964.621	0.0142746
964.700	0.0143611
964.778	0.0143243
964.856	0.0143279
964.934	0.0143487
965.012	0.0143040
965.090	0.0144872
965.168	0.0145127
965.246	0.0142895
965.325	0.0145557
965.403	0.0145559
965.481	0.0145023
965.559	0.0145606
965.637	0.0146861
965.715	0.0146255
965.793	0.0144926
965.871	0.0144040
965.950	0.0145869
966.028	0.0145549
966.106	0.0145132
966.184	0.0144388
966.262	0.0144500
966.340	0.0144276
966.418	0.0144067
966.496	0.0144629
966.575	0.0146258
966.653	0.0145230
966.731	0.0144991
966.809	0.0144171
966.887	0.0144881
966.965	0.0144353
967.043	0.0144942
967.121	0.0145046
967.200	0.0144090
967.278	0.0145085
967.356	0.0146371
967.434	0.0145100
967.512	0.0143500
967.590	0.0145062
967.668	0.0145012
967.746	0.0144639
967.825	0.0143382
967.903	0.0144735
967.981	0.0144095
968.059	0.0144975
968.137	0.0145113
968.215	0.0144634
968.293	0.0145167
968.371	0.0145197
968.450	0.0143680
968.528	0.0144176
968.606	0.0145869
968.684	0.0144597
968.762	0.0144037
968.840	0.0144073
968.918	0.0145152
968.996	0.0144977
969.075	0.0145243
969.153	0.0143777
969.231	0.0144169
969.309	0.0144276
969.387	0.0144288
969.465	0.0145373
969.543	0.0145125
969.621	0.0144315
969.700	0.0144125
969.778	0.0144985
969.856	0.0142986
969.934	0.0143200
970.012	0.0144582
970.090	0.0144606
970.168	0.0143614
970.246	0.0143288
970.325	0.0142537
970.403	0.0143635
970.481	0.0143770
970.559	0.0143708
970.637	0.0142010
970.715	0.0143886
970.793	0.0144119
970.871	0.0143165
970.950	0.0142287
971.028	0.0144207
971.106	0.0144290
971.184	0.0144514
971.262	0.0144094
971.340	0.0145368
971.418	0.0145477
971.496	0.0146320
971.575	0.0145521
971.653	0.0145210
971.731	0.0145544
971.809	0.0145100
971.887	0.0144860
971.965	0.0144305
972.043	0.0144254
972.121	0.0144259
972.200	0.0143436
972.278	0.0144296
972.356	0.0142663
972.434	0.0142886
972.512	0.0142947
972.590	0.0143260
972.668	0.0142896
972.746	0.0144022
972.825	0.0144500
972.903	0.0143937
972.981	0.0143913
973.059	0.0143801
973.137	0.0142822
973.215	0.0144186
973.293	0.0144125
973.371	0.0145084
973.450	0.0144337
973.528	0.0145318
973.606	0.0144717
973.684	0.0145428
973.762	0.0145703
973.840	0.0144158
973.918	0.0144350
973.996	0.0145951
974.075	0.0144051
974.153	0.0144946
974.231	0.0144762
974.309	0.0145375
974.387	0.0145023
974.465	0.0144439
974.543	0.0143831
974.621	0.0144472
974.700	0.0145855
974.778	0.0144840
974.856	0.0144424
974.934	0.0144005
975.012	0.0144968
975.090	0.0145210
975.168	0.0144447
975.246	0.0144315
975.325	0.0145608
975.403	0.0146255
975.481	0.0145325
975.559	0.0146001
975.637	0.0144604
975.715	0.0144908
975.793	0.0144319
975.871	0.0144680
975.950	0.0143991
976.028	0.0144168
976.106	0.0144125
976.184	0.0143892
976.262	0.0143580
976.340	0.0143803
976.418	0.0144322
976.496	0.0144171
976.575	0.0143946
976.653	0.0143959
976.731	0.0145051
976.809	0.0145532
976.887	0.0144704
976.965	0.0145184
977.043	0.0146072
977.121	0.0144975
977.200	0.0146223
977.278	0.0145655
977.356	0.0145879
977.434	0.0147079
977.512	0.0145315
977.590	0.0145305
977.668	0.0146339
977.746	0.0145848
977.825	0.0144192
977.903	0.0147149
977.981	0.0145219
978.059	0.0144885
978.137	0.0144506
978.215	0.0144973
978.293	0.0144845
978.371	0.0146134
978.450	0.0144382
978.528	0.0145562
978.606	0.0143910
978.684	0.0143233
978.762	0.0144640
978.840	0.0144209
978.918	0.0145050
978.996	0.0145158
979.075	0.0144487
979.153	0.0145833
979.231	0.0145220
979.309	0.0145295
979.387	0.0145477
979.465	0.0145965
979.543	0.0145882
979.621	0.0145756
979.700	0.0146504
979.778	0.0146321
979.856	0.0146292
979.934	0.0145332
980.012	0.0144375
980.090	0.0145359
980.168	0.0145173
980.246	0.0144711
980.325	0.0145870
980.403	0.0145414
980.481	0.0144331
980.559	0.0143986
980.637	0.0144451
980.715	0.0144673
980.793	0.0144028
980.871	0.0144579
980.950	0.0143195
981.028	0.0143772
981.106	0.0144112
981.184	0.0145099
981.262	0.0145473
981.340	0.0144257
981.418	0.0143990
981.496	0.0144289
981.575	0.0144566
981.653	0.0144199
981.731	0.0145727
981.809	0.0146717
981.887	0.0145527
981.965	0.0146044
982.043	0.0145329
982.121	0.0145469
982.200	0.0146070
982.278	0.0144899
982.356	0.0145579
982.434	0.0144086
982.512	0.0145271
982.590	0.0144050
982.668	0.0145585
982.746	0.0144886
982.825	0.0144281
982.903	0.0145100
982.981	0.0144518
983.059	0.0143981
983.137	0.0145127
983.215	0.0146188
983.293	0.0144708
983.371	0.0144055
983.450	0.0144486
983.528	0.0145750
983.606	0.0144455
983.684	0.0143461
983.762	0.0143738
983.840	0.0144820
983.918	0.0145240
983.996	0.0145075
984.075	0.0146750
984.153	0.0145511
984.231	0.0145935
984.309	0.0145132
984.387	0.0144105
984.465	0.0144995
984.543	0.0144228
984.621	0.0145223
984.700	0.0145384
984.778	0.0145510
984.856	0.0144246
984.934	0.0143832
985.012	0.0142770
985.090	0.0143718
985.168	0.0144337
985.246	0.0144116
985.325	0.0144873
985.403	0.0143327
985.481	0.0144073
985.559	0.0144593
985.637	0.0144164
985.715	0.0143423
985.793	0.0143779
985.871	0.0143974
985.950	0.0144130
986.028	0.0144161
986.106	0.0144055
986.184	0.0144211
986.262	0.0144788
986.340	0.0145090
986.418	0.0145350
986.496	0.0144349
986.575	0.0144797
986.653	0.0144560
986.731	0.0144289
986.809	0.0145201
986.887	0.0145757
986.965	0.0145139
987.043	0.0143964
987.121	0.0145015
987.200	0.0144344
987.278	0.0144588
987.356	0.0143941
987.434	0.0142912
987.512	0.0144897
987.590	0.0143741
987.668	0.0143367
987.746	0.0143201
987.825	0.0144898
987.903	0.0143845
987.981	0.0144753
988.059	0.0144756
988.137	0.0143827
988.215	0.0144800
988.293	0.0145210
988.371	0.0143863
988.450	0.0143691
988.528	0.0143807
988.606	0.0143125
988.684	0.0143105
988.762	0.0143492
988.840	0.0143145
988.918	0.0143951
988.996	0.0144219
989.075	0.0144733
989.153	0.0142973
989.231	0.0144540
989.309	0.0144271
989.387	0.0144318
989.465	0.0144406
989.543	0.0145924
989.621	0.0144128
989.700	0.0143565
989.778	0.0144461
989.856	0.0145263
989.934	0.0145011
990.012	0.0145599
990.090	0.0145975
990.168	0.0145325
990.246	0.0145094
990.325	0.0144732
990.403	0.0144061
990.481	0.0144183
990.559	0.0145284
990.637	0.0143799
990.715	0.0145858
990.793	0.0143518
990.871	0.0144331
990.950	0.0145242
991.028	0.0142935
991.106	0.0144422
991.184	0.0144902
991.262	0.0143668
991.340	0.0146297
991.418	0.0145895
991.496	0.0145016
991.575	0.0144603
991.653	0.0145017
991.731	0.0145437
991.809	0.0145535
991.887	0.0144823
991.965	0.0144050
992.043	0.0145171
992.121	0.0147087
992.200	0.0145413
992.278	0.0144013
992.356	0.0145821
992.434	0.0143999
992.512	0.0144629
992.590	0.0145911
992.668	0.0145409
992.746	0.0145309
992.825	0.0145971
992.903	0.0144619
992.981	0.0144592
993.059	0.0144112
993.137	0.0145670
993.215	0.0145055
993.293	0.0146454
993.371	0.0145792
993.450	0.0146367
993.528	0.0144307
993.606	0.0144999
993.684	0.0143793
993.762	0.0143192
993.840	0.0142985
993.918	0.0143246
993.996	0.0144849
994.075	0.0145425
994.153	0.0144229
994.231	0.0145060
994.309	0.0144093
994.387	0.0145187
994.465	0.0144347
994.543	0.0143601
994.621	0.0144695
994.700	0.0144147
994.778	0.0145165
994.856	0.0145777
994.934	0.0144699
995.012	0.0143610
995.090	0.0144467
995.168	0.0142448
995.246	0.0144553
995.325	0.0144695
995.403	0.0144987
995.481	0.0144779
995.559	0.0144443
995.637	0.0145435
995.715	0.0145893
995.793	0.0145393
995.871	0.0145107
995.950	0.0145399
996.028	0.0146899
996.106	0.0145341
996.184	0.0144836
996.262	0.0146174
996.340	0.0145609
996.418	0.0146580
996.496	0.0144874
996.575	0.0145567
996.653	0.0145350
996.731	0.0144378
996.809	0.0144096
996.887	0.0144176
996.965	0.0144900
997.043	0.0144579
997.121	0.0144670
997.200	0.0143526
997.278	0.0144778
997.356	0.0144393
997.434	0.0145789
997.512	0.0143275
997.590	0.0143385
997.668	0.0144702
997.746	0.0143124
997.825	0.0144661
997.903	0.0144860
997.981	0.0144678
998.059	0.0144260
998.137	0.0145691
998.215	0.0144892
998.293	0.0143256
998.371	0.0144933
998.450	0.0144984
998.528	0.0146233
998.606	0.0144059
998.684	0.0146364
998.762	0.0144028
998.840	0.0146076
998.918	0.0145085
