05/04/2022	21:19:28	Ver.	4.1	UNKNOWN
Optical Delay	678.996401	Delta X		0.078125	Sweeps	1	Scan Rate	0/0
Coordinates	Axis 1	NaN	Axis 2	NaN	Axis 3	NaN	Axis 4	NaN	Axis 5	NaN	Axis 6	0.000000
TX Power	0.000000	RX Power	0.000000

678.996	0.0146288
679.075	0.0143636
679.153	0.0143948
679.231	0.0145694
679.309	0.0144878
679.387	0.0144926
679.465	0.0144949
679.543	0.0146170
679.621	0.0147077
679.700	0.0146809
679.778	0.0146126
679.856	0.0147530
679.934	0.0146204
680.012	0.0147666
680.090	0.0146364
680.168	0.0145377
680.246	0.0145934
680.325	0.0146529
680.403	0.0145200
680.481	0.0145587
680.559	0.0146265
680.637	0.0146180
680.715	0.0146542
680.793	0.0146306
680.871	0.0147319
680.950	0.0148164
681.028	0.0147721
681.106	0.0148524
681.184	0.0148631
681.262	0.0148743
681.340	0.0148169
681.418	0.0149059
681.496	0.0149466
681.575	0.0147507
681.653	0.0146495
681.731	0.0144940
681.809	0.0144684
681.887	0.0145580
681.965	0.0144883
682.043	0.0143842
682.121	0.0143322
682.200	0.0144614
682.278	0.0143057
682.356	0.0143539
682.434	0.0146190
682.512	0.0145577
682.590	0.0146493
682.668	0.0147807
682.746	0.0146892
682.825	0.0146822
682.903	0.0147025
682.981	0.0148545
683.059	0.0148563
683.137	0.0148109
683.215	0.0148405
683.293	0.0148051
683.371	0.0147909
683.450	0.0148366
683.528	0.0148423
683.606	0.0148374
683.684	0.0148515
683.762	0.0147453
683.840	0.0146433
683.918	0.0147398
683.996	0.0145370
684.075	0.0146613
684.153	0.0146174
684.231	0.0145969
684.309	0.0145809
684.387	0.0144863
684.465	0.0146107
684.543	0.0145248
684.621	0.0145459
684.700	0.0145719
684.778	0.0145011
684.856	0.0145485
684.934	0.0146349
685.012	0.0145944
685.090	0.0146909
685.168	0.0147256
685.246	0.0147017
685.325	0.0147328
685.403	0.0146700
685.481	0.0147490
685.559	0.0147499
685.637	0.0146962
685.715	0.0147269
685.793	0.0146570
685.871	0.0147206
685.950	0.0147502
686.028	0.0147261
686.106	0.0146267
686.184	0.0145229
686.262	0.0144448
686.340	0.0145372
686.418	0.0144170
686.496	0.0143940
686.575	0.0146691
686.653	0.0145296
686.731	0.0144830
686.809	0.0146631
686.887	0.0146651
686.965	0.0145948
687.043	0.0147074
687.121	0.0146980
687.200	0.0147054
687.278	0.0146947
687.356	0.0146658
687.434	0.0147549
687.512	0.0147642
687.590	0.0145301
687.668	0.0146087
687.746	0.0145848
687.825	0.0145731
687.903	0.0146690
687.981	0.0144985
688.059	0.0145455
688.137	0.0145605
688.215	0.0145013
688.293	0.0145502
688.371	0.0145686
688.450	0.0144596
688.528	0.0144116
688.606	0.0144819
688.684	0.0145679
688.762	0.0144343
688.840	0.0145084
688.918	0.0145898
688.996	0.0146472
689.075	0.0145315
689.153	0.0144233
689.231	0.0145808
689.309	0.0146000
689.387	0.0146862
689.465	0.0148141
689.543	0.0146441
689.621	0.0147806
689.700	0.0146884
689.778	0.0146171
689.856	0.0146575
689.934	0.0148293
690.012	0.0148058
690.090	0.0147878
690.168	0.0147305
690.246	0.0146280
690.325	0.0146590
690.403	0.0144932
690.481	0.0144977
690.559	0.0144230
690.637	0.0144309
690.715	0.0144373
690.793	0.0143690
690.871	0.0144807
690.950	0.0144233
691.028	0.0144219
691.106	0.0144714
691.184	0.0145057
691.262	0.0145167
691.340	0.0145453
691.418	0.0147086
691.496	0.0146024
691.575	0.0146284
691.653	0.0145387
691.731	0.0145207
691.809	0.0145992
691.887	0.0146867
691.965	0.0145516
692.043	0.0146429
692.121	0.0146595
692.200	0.0146179
692.278	0.0144897
692.356	0.0145266
692.434	0.0147018
692.512	0.0147444
692.590	0.0146391
692.668	0.0146996
692.746	0.0147173
692.825	0.0146674
692.903	0.0146923
692.981	0.0147237
693.059	0.0146714
693.137	0.0146260
693.215	0.0144424
693.293	0.0146931
693.371	0.0145622
693.450	0.0144530
693.528	0.0143639
693.606	0.0145399
693.684	0.0144327
693.762	0.0144496
693.840	0.0145711
693.918	0.0146131
693.996	0.0147857
694.075	0.0147195
694.153	0.0147751
694.231	0.0146550
694.309	0.0146228
694.387	0.0147268
694.465	0.0147224
694.543	0.0145451
694.621	0.0146417
694.700	0.0146519
694.778	0.0144431
694.856	0.0144270
694.934	0.0144997
695.012	0.0144278
695.090	0.0144443
695.168	0.0144601
695.246	0.0145011
695.325	0.0145885
695.403	0.0145731
695.481	0.0149364
695.559	0.0148104
695.637	0.0146943
695.715	0.0147015
695.793	0.0146865
695.871	0.0147298
695.950	0.0145153
696.028	0.0145481
696.106	0.0146044
696.184	0.0146587
696.262	0.0145023
696.340	0.0144287
696.418	0.0144919
696.496	0.0144381
696.575	0.0144503
696.653	0.0143584
696.731	0.0144076
696.809	0.0146154
696.887	0.0146607
696.965	0.0147697
697.043	0.0148126
697.121	0.0148579
697.200	0.0149013
697.278	0.0150741
697.356	0.0149956
697.434	0.0148859
697.512	0.0147192
697.590	0.0145152
697.668	0.0142889
697.746	0.0143379
697.825	0.0142564
697.903	0.0142755
697.981	0.0141293
698.059	0.0143669
698.137	0.0144986
698.215	0.0144691
698.293	0.0147817
698.371	0.0148073
698.450	0.0149920
698.528	0.0149400
698.606	0.0148886
698.684	0.0148735
698.762	0.0146886
698.840	0.0145567
698.918	0.0144048
698.996	0.0143436
699.075	0.0141907
699.153	0.0143458
699.231	0.0142437
699.309	0.0143542
699.387	0.0143773
699.465	0.0145314
699.543	0.0146776
699.621	0.0146700
699.700	0.0146875
699.778	0.0147079
699.856	0.0149034
699.934	0.0150153
700.012	0.0150108
700.090	0.0151398
700.168	0.0151555
700.246	0.0152985
700.325	0.0152171
700.403	0.0151051
700.481	0.0148055
700.559	0.0145770
700.637	0.0142339
700.715	0.0140807
700.793	0.0138311
700.871	0.0138878
700.950	0.0137640
701.028	0.0138702
701.106	0.0142327
701.184	0.0144005
701.262	0.0149174
701.340	0.0151204
701.418	0.0153810
701.496	0.0155524
701.575	0.0155762
701.653	0.0156010
701.731	0.0154888
701.809	0.0151394
701.887	0.0148547
701.965	0.0145036
702.043	0.0143124
702.121	0.0141425
702.200	0.0139525
702.278	0.0138448
702.356	0.0138236
702.434	0.0138891
702.512	0.0142535
702.590	0.0143642
702.668	0.0144070
702.746	0.0146992
702.825	0.0149654
702.903	0.0151965
702.981	0.0152668
703.059	0.0152020
703.137	0.0152622
703.215	0.0152331
703.293	0.0150844
703.371	0.0150050
703.450	0.0147208
703.528	0.0145805
703.606	0.0143628
703.684	0.0140670
703.762	0.0140141
703.840	0.0138743
703.918	0.0136572
703.996	0.0136288
704.075	0.0137964
704.153	0.0141318
704.231	0.0143907
704.309	0.0146552
704.387	0.0147883
704.465	0.0152757
704.543	0.0153541
704.621	0.0154884
704.700	0.0155605
704.778	0.0155072
704.856	0.0153146
704.934	0.0151011
705.012	0.0147259
705.090	0.0146004
705.168	0.0143531
705.246	0.0142719
705.325	0.0139902
705.403	0.0139661
705.481	0.0142505
705.559	0.0142971
705.637	0.0144463
705.715	0.0143411
705.793	0.0144418
705.871	0.0145615
705.950	0.0146104
706.028	0.0144045
706.106	0.0147005
706.184	0.0147258
706.262	0.0149364
706.340	0.0150319
706.418	0.0149747
706.496	0.0150647
706.575	0.0150922
706.653	0.0148639
706.731	0.0148537
706.809	0.0149022
706.887	0.0146656
706.965	0.0145995
707.043	0.0144958
707.121	0.0144730
707.200	0.0145449
707.278	0.0144540
707.356	0.0146458
707.434	0.0145960
707.512	0.0147704
707.590	0.0147546
707.668	0.0148971
707.746	0.0149593
707.825	0.0149223
707.903	0.0146896
707.981	0.0145653
708.059	0.0144639
708.137	0.0144543
708.215	0.0144032
708.293	0.0144035
708.371	0.0144296
708.450	0.0143521
708.528	0.0143591
708.606	0.0145576
708.684	0.0144990
708.762	0.0143901
708.840	0.0144255
708.918	0.0144861
708.996	0.0144248
709.075	0.0146184
709.153	0.0146281
709.231	0.0148742
709.309	0.0150011
709.387	0.0150267
709.465	0.0149878
709.543	0.0150713
709.621	0.0151185
709.700	0.0152441
709.778	0.0152239
709.856	0.0151010
709.934	0.0149658
710.012	0.0148558
710.090	0.0147886
710.168	0.0144884
710.246	0.0142694
710.325	0.0141611
710.403	0.0140211
710.481	0.0138646
710.559	0.0137620
710.637	0.0138136
710.715	0.0139296
710.793	0.0139114
710.871	0.0138767
710.950	0.0141954
711.028	0.0143887
711.106	0.0146237
711.184	0.0148023
711.262	0.0150942
711.340	0.0153127
711.418	0.0152973
711.496	0.0152398
711.575	0.0152239
711.653	0.0152234
711.731	0.0150761
711.809	0.0147991
711.887	0.0148232
711.965	0.0144460
712.043	0.0144644
712.121	0.0140840
712.200	0.0140639
712.278	0.0140734
712.356	0.0139658
712.434	0.0140045
712.512	0.0140832
712.590	0.0140485
712.668	0.0140382
712.746	0.0141121
712.825	0.0142873
712.903	0.0143354
712.981	0.0145712
713.059	0.0147492
713.137	0.0149928
713.215	0.0151157
713.293	0.0154901
713.371	0.0154891
713.450	0.0155393
713.528	0.0155978
713.606	0.0153200
713.684	0.0151513
713.762	0.0148896
713.840	0.0145801
713.918	0.0142032
713.996	0.0139739
714.075	0.0138503
714.153	0.0136764
714.231	0.0135996
714.309	0.0137045
714.387	0.0138232
714.465	0.0141054
714.543	0.0143097
714.621	0.0144469
714.700	0.0146224
714.778	0.0148782
714.856	0.0149892
714.934	0.0151209
715.012	0.0151843
715.090	0.0151582
715.168	0.0152361
715.246	0.0149428
715.325	0.0149685
715.403	0.0148547
715.481	0.0146051
715.559	0.0144350
715.637	0.0143825
715.715	0.0141518
715.793	0.0139449
715.871	0.0138197
715.950	0.0140742
716.028	0.0141235
716.106	0.0141326
716.184	0.0142698
716.262	0.0144650
716.340	0.0143814
716.418	0.0143130
716.496	0.0144054
716.575	0.0144988
716.653	0.0145468
716.731	0.0146085
716.809	0.0147122
716.887	0.0147931
716.965	0.0148623
717.043	0.0151374
717.121	0.0151631
717.200	0.0152450
717.278	0.0152997
717.356	0.0152458
717.434	0.0152840
717.512	0.0151183
717.590	0.0148634
717.668	0.0148370
717.746	0.0147877
717.825	0.0146922
717.903	0.0146667
717.981	0.0146163
718.059	0.0144310
718.137	0.0141917
718.215	0.0141260
718.293	0.0141127
718.371	0.0140722
718.450	0.0140467
718.528	0.0139825
718.606	0.0141608
718.684	0.0142719
718.762	0.0142456
718.840	0.0146358
718.918	0.0145778
718.996	0.0146364
719.075	0.0147556
719.153	0.0146098
719.231	0.0149021
719.309	0.0150177
719.387	0.0149012
719.465	0.0147324
719.543	0.0146910
719.621	0.0149237
719.700	0.0149332
719.778	0.0146667
719.856	0.0146054
719.934	0.0146161
720.012	0.0146257
720.090	0.0145124
720.168	0.0145650
720.246	0.0146743
720.325	0.0146072
720.403	0.0145399
720.481	0.0147235
720.559	0.0146983
720.637	0.0146146
720.715	0.0148270
720.793	0.0147987
720.871	0.0148501
720.950	0.0147622
721.028	0.0146717
721.106	0.0147665
721.184	0.0148174
721.262	0.0147701
721.340	0.0147861
721.418	0.0148904
721.496	0.0149291
721.575	0.0148900
721.653	0.0148463
721.731	0.0147471
721.809	0.0149883
721.887	0.0148490
721.965	0.0149111
722.043	0.0147395
722.121	0.0146451
722.200	0.0146088
722.278	0.0145990
722.356	0.0144543
722.434	0.0143186
722.512	0.0140990
722.590	0.0141479
722.668	0.0138815
722.746	0.0137664
722.825	0.0138181
722.903	0.0138988
722.981	0.0141076
723.059	0.0144109
723.137	0.0143932
723.215	0.0146073
723.293	0.0147809
723.371	0.0150674
723.450	0.0151514
723.528	0.0152293
723.606	0.0152056
723.684	0.0151897
723.762	0.0150967
723.840	0.0150416
723.918	0.0149944
723.996	0.0148627
724.075	0.0144734
724.153	0.0144536
724.231	0.0145392
724.309	0.0144971
724.387	0.0144102
724.465	0.0145297
724.543	0.0146187
724.621	0.0145488
724.700	0.0146087
724.778	0.0146552
724.856	0.0147096
724.934	0.0146983
725.012	0.0147179
725.090	0.0148505
725.168	0.0147947
725.246	0.0145631
725.325	0.0146920
725.403	0.0147089
725.481	0.0147603
725.559	0.0145119
725.637	0.0146535
725.715	0.0147237
725.793	0.0146049
725.871	0.0147098
725.950	0.0147702
726.028	0.0147630
726.106	0.0146474
726.184	0.0147813
726.262	0.0144740
726.340	0.0145415
726.418	0.0145993
726.496	0.0144673
726.575	0.0144617
726.653	0.0145577
726.731	0.0142588
726.809	0.0142445
726.887	0.0143924
726.965	0.0142713
727.043	0.0142416
727.121	0.0142514
727.200	0.0143587
727.278	0.0144225
727.356	0.0144653
727.434	0.0146592
727.512	0.0147162
727.590	0.0146989
727.668	0.0147237
727.746	0.0148080
727.825	0.0148761
727.903	0.0149652
727.981	0.0148892
728.059	0.0146906
728.137	0.0147507
728.215	0.0148582
728.293	0.0146366
728.371	0.0147439
728.450	0.0148249
728.528	0.0146630
728.606	0.0147446
728.684	0.0147701
728.762	0.0146529
728.840	0.0146287
728.918	0.0145056
728.996	0.0143952
729.075	0.0144070
729.153	0.0143345
729.231	0.0143768
729.309	0.0143897
729.387	0.0143720
729.465	0.0144163
729.543	0.0142625
729.621	0.0142671
729.700	0.0143155
729.778	0.0143993
729.856	0.0146040
729.934	0.0145914
730.012	0.0148080
730.090	0.0147769
730.168	0.0148747
730.246	0.0150253
730.325	0.0148107
730.403	0.0148926
730.481	0.0148190
730.559	0.0147756
730.637	0.0146416
730.715	0.0146153
730.793	0.0145461
730.871	0.0145232
730.950	0.0145579
731.028	0.0145421
731.106	0.0143016
731.184	0.0143330
731.262	0.0144402
731.340	0.0143567
731.418	0.0145135
731.496	0.0146069
731.575	0.0146336
731.653	0.0145814
731.731	0.0144937
731.809	0.0147363
731.887	0.0148022
731.965	0.0148426
732.043	0.0148611
732.121	0.0147405
732.200	0.0148593
732.278	0.0147826
732.356	0.0146899
732.434	0.0145063
732.512	0.0144316
732.590	0.0144326
732.668	0.0144267
732.746	0.0143452
732.825	0.0143127
732.903	0.0142548
732.981	0.0142003
733.059	0.0142183
733.137	0.0143246
733.215	0.0142159
733.293	0.0143567
733.371	0.0142731
733.450	0.0142901
733.528	0.0145016
733.606	0.0145761
733.684	0.0145472
733.762	0.0146162
733.840	0.0146815
733.918	0.0147755
733.996	0.0148360
734.075	0.0147545
734.153	0.0148522
734.231	0.0150034
734.309	0.0148872
734.387	0.0149477
734.465	0.0149362
734.543	0.0147124
734.621	0.0145469
734.700	0.0145610
734.778	0.0145811
734.856	0.0144499
734.934	0.0145313
735.012	0.0144500
735.090	0.0145252
735.168	0.0145588
735.246	0.0145225
735.325	0.0145586
735.403	0.0145452
735.481	0.0145530
735.559	0.0145221
735.637	0.0146630
735.715	0.0147011
735.793	0.0145514
735.871	0.0147232
735.950	0.0147509
736.028	0.0145486
736.106	0.0146239
736.184	0.0146314
736.262	0.0147024
736.340	0.0145538
736.418	0.0144397
736.496	0.0144836
736.575	0.0143179
736.653	0.0144269
736.731	0.0145063
736.809	0.0143189
736.887	0.0143140
736.965	0.0142513
737.043	0.0141788
737.121	0.0142192
737.200	0.0142647
737.278	0.0143821
737.356	0.0143476
737.434	0.0145988
737.512	0.0145220
737.590	0.0144570
737.668	0.0145063
737.746	0.0146539
737.825	0.0147749
737.903	0.0146492
737.981	0.0147597
738.059	0.0147926
738.137	0.0148997
738.215	0.0150317
738.293	0.0148254
738.371	0.0150010
738.450	0.0149348
738.528	0.0146855
738.606	0.0147724
738.684	0.0148548
738.762	0.0146988
738.840	0.0146798
738.918	0.0147133
738.996	0.0147423
739.075	0.0145787
739.153	0.0146260
739.231	0.0146459
739.309	0.0144896
739.387	0.0146841
739.465	0.0147488
739.543	0.0147607
739.621	0.0147242
739.700	0.0146196
739.778	0.0145799
739.856	0.0145644
739.934	0.0145726
740.012	0.0146017
740.090	0.0145421
740.168	0.0144286
740.246	0.0145110
740.325	0.0144078
740.403	0.0145193
740.481	0.0145562
740.559	0.0146001
740.637	0.0143520
740.715	0.0142895
740.793	0.0145255
740.871	0.0145087
740.950	0.0145383
741.028	0.0146104
741.106	0.0145249
741.184	0.0146581
741.262	0.0145398
741.340	0.0145952
741.418	0.0146153
741.496	0.0146854
741.575	0.0146201
741.653	0.0145977
741.731	0.0146270
741.809	0.0146005
741.887	0.0147491
741.965	0.0146782
742.043	0.0146782
742.121	0.0145473
742.200	0.0146478
742.278	0.0145908
742.356	0.0145339
742.434	0.0146438
742.512	0.0145567
742.590	0.0146233
742.668	0.0145364
742.746	0.0145568
742.825	0.0147281
742.903	0.0148427
742.981	0.0148064
743.059	0.0147459
743.137	0.0148708
743.215	0.0148990
743.293	0.0149324
743.371	0.0148377
743.450	0.0148197
743.528	0.0148182
743.606	0.0149117
743.684	0.0148749
743.762	0.0147842
743.840	0.0147887
743.918	0.0146413
743.996	0.0145743
744.075	0.0146692
744.153	0.0146189
744.231	0.0145135
744.309	0.0145518
744.387	0.0144009
744.465	0.0144162
744.543	0.0144538
744.621	0.0145008
744.700	0.0144157
744.778	0.0143488
744.856	0.0143883
744.934	0.0145110
745.012	0.0144144
745.090	0.0143201
745.168	0.0145296
745.246	0.0143956
745.325	0.0144688
745.403	0.0145697
745.481	0.0145093
745.559	0.0144498
745.637	0.0144951
745.715	0.0143764
745.793	0.0145856
745.871	0.0144048
745.950	0.0146406
746.028	0.0146701
746.106	0.0146606
746.184	0.0147669
746.262	0.0147758
746.340	0.0145931
746.418	0.0147278
746.496	0.0147038
746.575	0.0148013
746.653	0.0147535
746.731	0.0145636
746.809	0.0145891
746.887	0.0145163
746.965	0.0145627
747.043	0.0144695
747.121	0.0146453
747.200	0.0146954
747.278	0.0143394
747.356	0.0145690
747.434	0.0146706
747.512	0.0147160
747.590	0.0146485
747.668	0.0145154
747.746	0.0147394
747.825	0.0146976
747.903	0.0146313
747.981	0.0147557
748.059	0.0147083
748.137	0.0145427
748.215	0.0146158
748.293	0.0147179
748.371	0.0145824
748.450	0.0146347
748.528	0.0146320
748.606	0.0145064
748.684	0.0145557
748.762	0.0145944
748.840	0.0145410
748.918	0.0144073
748.996	0.0143922
749.075	0.0143634
749.153	0.0144033
749.231	0.0143136
749.309	0.0142239
749.387	0.0144648
749.465	0.0142784
749.543	0.0143102
749.621	0.0143210
749.700	0.0144226
749.778	0.0144479
749.856	0.0144623
749.934	0.0143610
750.012	0.0144688
750.090	0.0144508
750.168	0.0145454
750.246	0.0145773
750.325	0.0146011
750.403	0.0147337
750.481	0.0148119
750.559	0.0148132
750.637	0.0148186
750.715	0.0149621
750.793	0.0149259
750.871	0.0146278
750.950	0.0148383
751.028	0.0148512
751.106	0.0147379
751.184	0.0147546
751.262	0.0146036
751.340	0.0147211
751.418	0.0147853
751.496	0.0146532
751.575	0.0147678
751.653	0.0146938
751.731	0.0145452
751.809	0.0147359
751.887	0.0146984
751.965	0.0145763
752.043	0.0144345
752.121	0.0145604
752.200	0.0146505
752.278	0.0145580
752.356	0.0145955
752.434	0.0145337
752.512	0.0145444
752.590	0.0145236
752.668	0.0144080
752.746	0.0144527
752.825	0.0143681
752.903	0.0144231
752.981	0.0144949
753.059	0.0143667
753.137	0.0144154
753.215	0.0144299
753.293	0.0142896
753.371	0.0143273
753.450	0.0144680
753.528	0.0143651
753.606	0.0143713
753.684	0.0145738
753.762	0.0145768
753.840	0.0144558
753.918	0.0144843
753.996	0.0145336
754.075	0.0144279
754.153	0.0144653
754.231	0.0145016
754.309	0.0145756
754.387	0.0144414
754.465	0.0145386
754.543	0.0144678
754.621	0.0145306
754.700	0.0145953
754.778	0.0145604
754.856	0.0147178
754.934	0.0145197
755.012	0.0145406
755.090	0.0146951
755.168	0.0146712
755.246	0.0147195
755.325	0.0148821
755.403	0.0147090
755.481	0.0148153
755.559	0.0148280
755.637	0.0147352
755.715	0.0148510
755.793	0.0148154
755.871	0.0147610
755.950	0.0148540
756.028	0.0145839
756.106	0.0147086
756.184	0.0146626
756.262	0.0144299
756.340	0.0146142
756.418	0.0144557
756.496	0.0145406
756.575	0.0145640
756.653	0.0145390
756.731	0.0143664
756.809	0.0143554
756.887	0.0144305
756.965	0.0144050
757.043	0.0143968
757.121	0.0143793
757.200	0.0143668
757.278	0.0143473
757.356	0.0143282
757.434	0.0144110
757.512	0.0144701
757.590	0.0144572
757.668	0.0144744
757.746	0.0145527
757.825	0.0146133
757.903	0.0146734
757.981	0.0145175
758.059	0.0145536
758.137	0.0145899
758.215	0.0145026
758.293	0.0146751
758.371	0.0146313
758.450	0.0146860
758.528	0.0148793
758.606	0.0147050
758.684	0.0147397
758.762	0.0148031
758.840	0.0147195
758.918	0.0147450
758.996	0.0148110
759.075	0.0145900
759.153	0.0146075
759.231	0.0148411
759.309	0.0146310
759.387	0.0147021
759.465	0.0146880
759.543	0.0146379
759.621	0.0145721
759.700	0.0147849
759.778	0.0146186
759.856	0.0146162
759.934	0.0145563
760.012	0.0145050
760.090	0.0144707
760.168	0.0144679
760.246	0.0144357
760.325	0.0144189
760.403	0.0143864
760.481	0.0145251
760.559	0.0145071
760.637	0.0144269
760.715	0.0145219
760.793	0.0144682
760.871	0.0145028
760.950	0.0145474
761.028	0.0145609
761.106	0.0146293
761.184	0.0145537
761.262	0.0145113
761.340	0.0145383
761.418	0.0145010
761.496	0.0146015
761.575	0.0146553
761.653	0.0145150
761.731	0.0144917
761.809	0.0145322
761.887	0.0145607
761.965	0.0145293
762.043	0.0144978
762.121	0.0145744
762.200	0.0146973
762.278	0.0145111
762.356	0.0146555
762.434	0.0146692
762.512	0.0146864
762.590	0.0147178
762.668	0.0147500
762.746	0.0148199
762.825	0.0148632
762.903	0.0147962
762.981	0.0148228
763.059	0.0149939
763.137	0.0148918
763.215	0.0148302
763.293	0.0149110
763.371	0.0148622
763.450	0.0147688
763.528	0.0148723
763.606	0.0147612
763.684	0.0148441
763.762	0.0147906
763.840	0.0147172
763.918	0.0147971
763.996	0.0146683
764.075	0.0144996
764.153	0.0145678
764.231	0.0146220
764.309	0.0143946
764.387	0.0144513
764.465	0.0145576
764.543	0.0145460
764.621	0.0144608
764.700	0.0145294
764.778	0.0144519
764.856	0.0145242
764.934	0.0145545
765.012	0.0144868
765.090	0.0144382
765.168	0.0143484
765.246	0.0144077
765.325	0.0144209
765.403	0.0145596
765.481	0.0145119
765.559	0.0144286
765.637	0.0145238
765.715	0.0145617
765.793	0.0144352
765.871	0.0144331
765.950	0.0145728
766.028	0.0144424
766.106	0.0145653
766.184	0.0147565
766.262	0.0145585
766.340	0.0145824
766.418	0.0146700
766.496	0.0146564
766.575	0.0146436
766.653	0.0147134
766.731	0.0148095
766.809	0.0145960
766.887	0.0146516
766.965	0.0145823
767.043	0.0147278
767.121	0.0146430
767.200	0.0146688
767.278	0.0146526
767.356	0.0146151
767.434	0.0147373
767.512	0.0147343
767.590	0.0147518
767.668	0.0148786
767.746	0.0148160
767.825	0.0148590
767.903	0.0146813
767.981	0.0147844
768.059	0.0145433
768.137	0.0145763
768.215	0.0146181
768.293	0.0146647
768.371	0.0145806
768.450	0.0145707
768.528	0.0145737
768.606	0.0144564
768.684	0.0144143
768.762	0.0145663
768.840	0.0145631
768.918	0.0144124
768.996	0.0143695
769.075	0.0143811
769.153	0.0144032
769.231	0.0144871
769.309	0.0144286
769.387	0.0144130
769.465	0.0144318
769.543	0.0144868
769.621	0.0146410
769.700	0.0145229
769.778	0.0144483
769.856	0.0144968
769.934	0.0144599
770.012	0.0145338
770.090	0.0144201
770.168	0.0145538
770.246	0.0146659
770.325	0.0145329
770.403	0.0145926
770.481	0.0145699
770.559	0.0146332
770.637	0.0145905
770.715	0.0146756
770.793	0.0146535
770.871	0.0146658
770.950	0.0148040
771.028	0.0147708
771.106	0.0146302
771.184	0.0147697
771.262	0.0146601
771.340	0.0149219
771.418	0.0147323
771.496	0.0145940
771.575	0.0146318
771.653	0.0146931
771.731	0.0147188
771.809	0.0147063
771.887	0.0146049
771.965	0.0146301
772.043	0.0147326
772.121	0.0146466
772.200	0.0147247
772.278	0.0144921
772.356	0.0145863
772.434	0.0144659
772.512	0.0144444
772.590	0.0143988
772.668	0.0146346
772.746	0.0146507
772.825	0.0145760
772.903	0.0145915
772.981	0.0145978
773.059	0.0144250
773.137	0.0144553
773.215	0.0146111
773.293	0.0145171
773.371	0.0144921
773.450	0.0144902
773.528	0.0144268
773.606	0.0145482
773.684	0.0145480
773.762	0.0146440
773.840	0.0145158
773.918	0.0145053
773.996	0.0145275
774.075	0.0144395
774.153	0.0144213
774.231	0.0144527
774.309	0.0145453
774.387	0.0147209
774.465	0.0143874
774.543	0.0144933
774.621	0.0144761
774.700	0.0144622
774.778	0.0146281
774.856	0.0145161
774.934	0.0145596
775.012	0.0145751
775.090	0.0144816
775.168	0.0146518
775.246	0.0146822
775.325	0.0144732
775.403	0.0146812
775.481	0.0146649
775.559	0.0146603
775.637	0.0145207
775.715	0.0146025
775.793	0.0146397
775.871	0.0146387
775.950	0.0146408
776.028	0.0147179
776.106	0.0146844
776.184	0.0147044
776.262	0.0146278
776.340	0.0146344
776.418	0.0144530
776.496	0.0146004
776.575	0.0145944
776.653	0.0146592
776.731	0.0144599
776.809	0.0144993
776.887	0.0145699
776.965	0.0144574
777.043	0.0145147
777.121	0.0145920
777.200	0.0144023
777.278	0.0144535
777.356	0.0143701
777.434	0.0145300
777.512	0.0144537
777.590	0.0144942
777.668	0.0144803
777.746	0.0146831
777.825	0.0145476
777.903	0.0146729
777.981	0.0145055
778.059	0.0145940
778.137	0.0145629
778.215	0.0146376
778.293	0.0146555
778.371	0.0146482
778.450	0.0146786
778.528	0.0147280
778.606	0.0146846
778.684	0.0147169
778.762	0.0147381
778.840	0.0147723
778.918	0.0147057
778.996	0.0147115
779.075	0.0148238
779.153	0.0146999
779.231	0.0147941
779.309	0.0147733
779.387	0.0147880
779.465	0.0148291
779.543	0.0147688
779.621	0.0146838
779.700	0.0147231
779.778	0.0146854
779.856	0.0146487
779.934	0.0147387
780.012	0.0145992
780.090	0.0146864
780.168	0.0146925
780.246	0.0145728
780.325	0.0145415
780.403	0.0145414
780.481	0.0146629
780.559	0.0146195
780.637	0.0145991
780.715	0.0145716
780.793	0.0143850
780.871	0.0146344
780.950	0.0147521
781.028	0.0144590
781.106	0.0143858
781.184	0.0145300
781.262	0.0144670
781.340	0.0144373
781.418	0.0145618
781.496	0.0144007
781.575	0.0144416
781.653	0.0144772
781.731	0.0144086
781.809	0.0144295
781.887	0.0145866
781.965	0.0146335
782.043	0.0145470
782.121	0.0146903
782.200	0.0145915
782.278	0.0144952
782.356	0.0145074
782.434	0.0147774
782.512	0.0146228
782.590	0.0145068
782.668	0.0147192
782.746	0.0146410
782.825	0.0145787
782.903	0.0145834
782.981	0.0145467
783.059	0.0146172
783.137	0.0146410
783.215	0.0147119
783.293	0.0145472
783.371	0.0147640
783.450	0.0145788
783.528	0.0146616
783.606	0.0146186
783.684	0.0146618
783.762	0.0146790
783.840	0.0145683
783.918	0.0146549
783.996	0.0148367
784.075	0.0146950
784.153	0.0146848
784.231	0.0146416
784.309	0.0146532
784.387	0.0146951
784.465	0.0146796
784.543	0.0145877
784.621	0.0146652
784.700	0.0145986
784.778	0.0144838
784.856	0.0144863
784.934	0.0145652
785.012	0.0145514
785.090	0.0143411
785.168	0.0145119
785.246	0.0144963
785.325	0.0145097
785.403	0.0143983
785.481	0.0145592
785.559	0.0145153
785.637	0.0145280
785.715	0.0145699
785.793	0.0145849
785.871	0.0146478
785.950	0.0146026
786.028	0.0146298
786.106	0.0146269
786.184	0.0145802
786.262	0.0145916
786.340	0.0147995
786.418	0.0146101
786.496	0.0146899
786.575	0.0147514
786.653	0.0145393
786.731	0.0147338
786.809	0.0148889
786.887	0.0146850
786.965	0.0147012
787.043	0.0147472
787.121	0.0146200
787.200	0.0146095
787.278	0.0148839
787.356	0.0146886
787.434	0.0147405
787.512	0.0148306
787.590	0.0146297
787.668	0.0146228
787.746	0.0146510
787.825	0.0145856
787.903	0.0147291
787.981	0.0147188
788.059	0.0146577
788.137	0.0147045
788.215	0.0146938
788.293	0.0145959
788.371	0.0147142
788.450	0.0145986
788.528	0.0144701
788.606	0.0145143
788.684	0.0146097
788.762	0.0145665
788.840	0.0146526
788.918	0.0145005
788.996	0.0146191
789.075	0.0145325
789.153	0.0145882
789.231	0.0144387
789.309	0.0145605
789.387	0.0145883
789.465	0.0146209
789.543	0.0146234
789.621	0.0146046
789.700	0.0146545
789.778	0.0146399
789.856	0.0144640
789.934	0.0144728
790.012	0.0145566
790.090	0.0146630
790.168	0.0145440
790.246	0.0145842
790.325	0.0146204
790.403	0.0145792
790.481	0.0146323
790.559	0.0144660
790.637	0.0145721
790.715	0.0145251
790.793	0.0145828
790.871	0.0145026
790.950	0.0145829
791.028	0.0146613
791.106	0.0146117
791.184	0.0146408
791.262	0.0145936
791.340	0.0146613
791.418	0.0147953
791.496	0.0146761
791.575	0.0147072
791.653	0.0146156
791.731	0.0149323
791.809	0.0146688
791.887	0.0146870
791.965	0.0145782
792.043	0.0146095
792.121	0.0145211
792.200	0.0144230
792.278	0.0147125
792.356	0.0146936
792.434	0.0146341
792.512	0.0144804
792.590	0.0145681
792.668	0.0145995
792.746	0.0146230
792.825	0.0145015
792.903	0.0145410
792.981	0.0146284
793.059	0.0144131
793.137	0.0145988
793.215	0.0146329
793.293	0.0146685
793.371	0.0145235
793.450	0.0146442
793.528	0.0146213
793.606	0.0146254
793.684	0.0146870
793.762	0.0146549
793.840	0.0146049
793.918	0.0145590
793.996	0.0146089
794.075	0.0146706
794.153	0.0146499
794.231	0.0144627
794.309	0.0145927
794.387	0.0146751
794.465	0.0146452
794.543	0.0145735
794.621	0.0146369
794.700	0.0146974
794.778	0.0147229
794.856	0.0145533
794.934	0.0145522
795.012	0.0146083
795.090	0.0145748
795.168	0.0147262
795.246	0.0146278
795.325	0.0146363
795.403	0.0146014
795.481	0.0145640
795.559	0.0146231
795.637	0.0145007
795.715	0.0146320
795.793	0.0146858
795.871	0.0146751
795.950	0.0146700
796.028	0.0146100
796.106	0.0145743
796.184	0.0146516
796.262	0.0146033
796.340	0.0146296
796.418	0.0145255
796.496	0.0145506
796.575	0.0144778
796.653	0.0145355
796.731	0.0144982
796.809	0.0145061
796.887	0.0144582
796.965	0.0145872
797.043	0.0144930
797.121	0.0145289
797.200	0.0145629
797.278	0.0145426
797.356	0.0145123
797.434	0.0145065
797.512	0.0146302
797.590	0.0146409
797.668	0.0146674
797.746	0.0146147
797.825	0.0147465
797.903	0.0146652
797.981	0.0147979
798.059	0.0146946
798.137	0.0147329
798.215	0.0146299
798.293	0.0146133
798.371	0.0147267
798.450	0.0147289
798.528	0.0147556
798.606	0.0146600
798.684	0.0146658
798.762	0.0148073
798.840	0.0147740
798.918	0.0146362
798.996	0.0146047
799.075	0.0147960
799.153	0.0146471
799.231	0.0146514
799.309	0.0147528
799.387	0.0146471
799.465	0.0146355
799.543	0.0146994
799.621	0.0145638
799.700	0.0147739
799.778	0.0147072
799.856	0.0146325
799.934	0.0147277
800.012	0.0147198
800.090	0.0145510
800.168	0.0147634
800.246	0.0147232
800.325	0.0147530
800.403	0.0147671
800.481	0.0146800
800.559	0.0146592
800.637	0.0147002
800.715	0.0146373
800.793	0.0147070
800.871	0.0147091
800.950	0.0145934
801.028	0.0144945
801.106	0.0144925
801.184	0.0146107
801.262	0.0147068
801.340	0.0145254
801.418	0.0146450
801.496	0.0145219
801.575	0.0146895
801.653	0.0145718
801.731	0.0146129
801.809	0.0145999
801.887	0.0147710
801.965	0.0146250
802.043	0.0146313
802.121	0.0147612
802.200	0.0146139
802.278	0.0146085
802.356	0.0144821
802.434	0.0146646
802.512	0.0147399
802.590	0.0145718
802.668	0.0144755
802.746	0.0146431
802.825	0.0146829
802.903	0.0145705
802.981	0.0146566
803.059	0.0146604
803.137	0.0146024
803.215	0.0147131
803.293	0.0146785
803.371	0.0147270
803.450	0.0147220
803.528	0.0145052
803.606	0.0146429
803.684	0.0146252
803.762	0.0145698
803.840	0.0144822
803.918	0.0146849
803.996	0.0145100
804.075	0.0145474
804.153	0.0144621
804.231	0.0145329
804.309	0.0145377
804.387	0.0146436
804.465	0.0146292
804.543	0.0146986
804.621	0.0146166
804.700	0.0145331
804.778	0.0146062
804.856	0.0145232
804.934	0.0145609
805.012	0.0146119
805.090	0.0145652
805.168	0.0146194
805.246	0.0146616
805.325	0.0144500
805.403	0.0146313
805.481	0.0147337
805.559	0.0145168
805.637	0.0145194
805.715	0.0145536
805.793	0.0146147
805.871	0.0146747
805.950	0.0145141
806.028	0.0146915
806.106	0.0146066
806.184	0.0146228
806.262	0.0147120
806.340	0.0146619
806.418	0.0146050
806.496	0.0147027
806.575	0.0147034
806.653	0.0146017
806.731	0.0145884
806.809	0.0146244
806.887	0.0146823
806.965	0.0145667
807.043	0.0145473
807.121	0.0148105
807.200	0.0146658
807.278	0.0145667
807.356	0.0146892
807.434	0.0147224
807.512	0.0145991
807.590	0.0147050
807.668	0.0146418
807.746	0.0145084
807.825	0.0145831
807.903	0.0146628
807.981	0.0146558
808.059	0.0147333
808.137	0.0145684
808.215	0.0144995
808.293	0.0146249
808.371	0.0145923
808.450	0.0144933
808.528	0.0146089
808.606	0.0145083
808.684	0.0144022
808.762	0.0145605
808.840	0.0146387
808.918	0.0144627
808.996	0.0144479
809.075	0.0143855
809.153	0.0145094
809.231	0.0146535
809.309	0.0144106
809.387	0.0145209
809.465	0.0144662
809.543	0.0146332
809.621	0.0144957
809.700	0.0146217
809.778	0.0146303
809.856	0.0145664
809.934	0.0145485
810.012	0.0145574
810.090	0.0146326
810.168	0.0146899
810.246	0.0147003
810.325	0.0145658
810.403	0.0147167
810.481	0.0146929
810.559	0.0146686
810.637	0.0145895
810.715	0.0146037
810.793	0.0145732
810.871	0.0146225
810.950	0.0146226
811.028	0.0144225
811.106	0.0145369
811.184	0.0144737
811.262	0.0145067
811.340	0.0145997
811.418	0.0144295
811.496	0.0146570
811.575	0.0145831
811.653	0.0146203
811.731	0.0144518
811.809	0.0145239
811.887	0.0144896
811.965	0.0145496
812.043	0.0146540
812.121	0.0146254
812.200	0.0146376
812.278	0.0145197
812.356	0.0146831
812.434	0.0145541
812.512	0.0145511
812.590	0.0147158
812.668	0.0147195
812.746	0.0146259
812.825	0.0146922
812.903	0.0145045
812.981	0.0146265
813.059	0.0146434
813.137	0.0145114
813.215	0.0144321
813.293	0.0145701
813.371	0.0145374
813.450	0.0146085
813.528	0.0146414
813.606	0.0145734
813.684	0.0145639
813.762	0.0143935
813.840	0.0145323
813.918	0.0146087
813.996	0.0147313
814.075	0.0146815
814.153	0.0146298
814.231	0.0147261
814.309	0.0146069
814.387	0.0147409
814.465	0.0146581
814.543	0.0146735
814.621	0.0146934
814.700	0.0148250
814.778	0.0146743
814.856	0.0145981
814.934	0.0145567
815.012	0.0146915
815.090	0.0147412
815.168	0.0147279
815.246	0.0146442
815.325	0.0145419
815.403	0.0144939
815.481	0.0146165
815.559	0.0145271
815.637	0.0145441
815.715	0.0144842
815.793	0.0145303
815.871	0.0146534
815.950	0.0145555
816.028	0.0145376
816.106	0.0144736
816.184	0.0145389
816.262	0.0146976
816.340	0.0146869
816.418	0.0146113
816.496	0.0146011
816.575	0.0145401
816.653	0.0146583
816.731	0.0146503
816.809	0.0146069
816.887	0.0146148
816.965	0.0146404
817.043	0.0146230
817.121	0.0146950
817.200	0.0146292
817.278	0.0146540
817.356	0.0145443
817.434	0.0146686
817.512	0.0146880
817.590	0.0145167
817.668	0.0146964
817.746	0.0145873
817.825	0.0144100
817.903	0.0145448
817.981	0.0145645
818.059	0.0146289
818.137	0.0146024
818.215	0.0145593
818.293	0.0145284
818.371	0.0145316
818.450	0.0146548
818.528	0.0145184
818.606	0.0145111
818.684	0.0146179
818.762	0.0146428
818.840	0.0146636
818.918	0.0147038
818.996	0.0144823
819.075	0.0144822
819.153	0.0146104
819.231	0.0146117
819.309	0.0147560
819.387	0.0146737
819.465	0.0145923
819.543	0.0147162
819.621	0.0145916
819.700	0.0147463
819.778	0.0146886
819.856	0.0147587
819.934	0.0148548
820.012	0.0145800
820.090	0.0145898
820.168	0.0146146
820.246	0.0146293
820.325	0.0147933
820.403	0.0145856
820.481	0.0145464
820.559	0.0146675
820.637	0.0145087
820.715	0.0146893
820.793	0.0146230
820.871	0.0145636
820.950	0.0144207
821.028	0.0144619
821.106	0.0145269
821.184	0.0145013
821.262	0.0145298
821.340	0.0146152
821.418	0.0146395
821.496	0.0145741
821.575	0.0146368
821.653	0.0145869
821.731	0.0146857
821.809	0.0147128
821.887	0.0146188
821.965	0.0145947
822.043	0.0145901
822.121	0.0145564
822.200	0.0145813
822.278	0.0146603
822.356	0.0146915
822.434	0.0145844
822.512	0.0146863
822.590	0.0146495
822.668	0.0145245
822.746	0.0145148
822.825	0.0145010
822.903	0.0145064
822.981	0.0145818
823.059	0.0147087
823.137	0.0145484
823.215	0.0145382
823.293	0.0145805
823.371	0.0146365
823.450	0.0145476
823.528	0.0145360
823.606	0.0145419
823.684	0.0145999
823.762	0.0145811
823.840	0.0146252
823.918	0.0146030
823.996	0.0145290
824.075	0.0144478
824.153	0.0144672
824.231	0.0146699
824.309	0.0146531
824.387	0.0146516
824.465	0.0146233
824.543	0.0145683
824.621	0.0146597
824.700	0.0145374
824.778	0.0144833
824.856	0.0145057
824.934	0.0146827
825.012	0.0146711
825.090	0.0146049
825.168	0.0147222
825.246	0.0146940
825.325	0.0146835
825.403	0.0146365
825.481	0.0145926
825.559	0.0145760
825.637	0.0146254
825.715	0.0145134
825.793	0.0146165
825.871	0.0144641
825.950	0.0144843
826.028	0.0146112
826.106	0.0146348
826.184	0.0146666
826.262	0.0145839
826.340	0.0144726
826.418	0.0146813
826.496	0.0145487
826.575	0.0144907
826.653	0.0146005
826.731	0.0145808
826.809	0.0146938
826.887	0.0147432
826.965	0.0147013
827.043	0.0145945
827.121	0.0145064
827.200	0.0146164
827.278	0.0146293
827.356	0.0146161
827.434	0.0146956
827.512	0.0145039
827.590	0.0145902
827.668	0.0146487
827.746	0.0145638
827.825	0.0146272
827.903	0.0147540
827.981	0.0146363
828.059	0.0145781
828.137	0.0146687
828.215	0.0146692
828.293	0.0146109
828.371	0.0147348
828.450	0.0146143
828.528	0.0146419
828.606	0.0146897
828.684	0.0144114
828.762	0.0145319
828.840	0.0146558
828.918	0.0146725
828.996	0.0144663
829.075	0.0145747
829.153	0.0146915
829.231	0.0144774
829.309	0.0145388
829.387	0.0143825
829.465	0.0146639
829.543	0.0145507
829.621	0.0145327
829.700	0.0145878
829.778	0.0145990
829.856	0.0147754
829.934	0.0146206
830.012	0.0145065
830.090	0.0146944
830.168	0.0146493
830.246	0.0145746
830.325	0.0146556
830.403	0.0145250
830.481	0.0146569
830.559	0.0146635
830.637	0.0147113
830.715	0.0145015
830.793	0.0146428
830.871	0.0145626
830.950	0.0146196
831.028	0.0146474
831.106	0.0145669
831.184	0.0145290
831.262	0.0146264
831.340	0.0146140
831.418	0.0146686
831.496	0.0146392
831.575	0.0147150
831.653	0.0144624
831.731	0.0146039
831.809	0.0145461
831.887	0.0144891
831.965	0.0145018
832.043	0.0145457
832.121	0.0144257
832.200	0.0144487
832.278	0.0143702
832.356	0.0146297
832.434	0.0145328
832.512	0.0145585
832.590	0.0144312
832.668	0.0144850
832.746	0.0144851
832.825	0.0144416
832.903	0.0143262
832.981	0.0146246
833.059	0.0145538
833.137	0.0144897
833.215	0.0144762
833.293	0.0145705
833.371	0.0144463
833.450	0.0145273
833.528	0.0145175
833.606	0.0143877
833.684	0.0146539
833.762	0.0146769
833.840	0.0146649
833.918	0.0146007
833.996	0.0146355
834.075	0.0146418
834.153	0.0146476
834.231	0.0146565
834.309	0.0146774
834.387	0.0146810
834.465	0.0144418
834.543	0.0144200
834.621	0.0147515
834.700	0.0146159
834.778	0.0146277
834.856	0.0145759
834.934	0.0146161
835.012	0.0145715
835.090	0.0146445
835.168	0.0146528
835.246	0.0146176
835.325	0.0145546
835.403	0.0145887
835.481	0.0146652
835.559	0.0145929
835.637	0.0147173
835.715	0.0145165
835.793	0.0147176
835.871	0.0146535
835.950	0.0145552
836.028	0.0146011
836.106	0.0146084
836.184	0.0144278
836.262	0.0147417
836.340	0.0147024
836.418	0.0146163
836.496	0.0145972
836.575	0.0144617
836.653	0.0145457
836.731	0.0145947
836.809	0.0145650
836.887	0.0143795
836.965	0.0145688
837.043	0.0144745
837.121	0.0144791
837.200	0.0143842
837.278	0.0145297
837.356	0.0144669
837.434	0.0144125
837.512	0.0144458
837.590	0.0145705
837.668	0.0145947
837.746	0.0145492
837.825	0.0145716
837.903	0.0145351
837.981	0.0145483
838.059	0.0146291
838.137	0.0146101
838.215	0.0146526
838.293	0.0145879
838.371	0.0145918
838.450	0.0146661
838.528	0.0147197
838.606	0.0147266
838.684	0.0147357
838.762	0.0146111
838.840	0.0145087
838.918	0.0147041
838.996	0.0147241
839.075	0.0146302
839.153	0.0146049
839.231	0.0146350
839.309	0.0145913
839.387	0.0146692
839.465	0.0145651
839.543	0.0146665
839.621	0.0146504
839.700	0.0147294
839.778	0.0146008
839.856	0.0145034
839.934	0.0146192
840.012	0.0145331
840.090	0.0146350
840.168	0.0148165
840.246	0.0146381
840.325	0.0145847
840.403	0.0146176
840.481	0.0146996
840.559	0.0147079
840.637	0.0146248
840.715	0.0146652
840.793	0.0146320
840.871	0.0145514
840.950	0.0146324
841.028	0.0146751
841.106	0.0144881
841.184	0.0144095
841.262	0.0146072
841.340	0.0146721
841.418	0.0145350
841.496	0.0146365
841.575	0.0145432
841.653	0.0144196
841.731	0.0146209
841.809	0.0144621
841.887	0.0145573
841.965	0.0146797
842.043	0.0146223
842.121	0.0147282
842.200	0.0146590
842.278	0.0146725
842.356	0.0146906
842.434	0.0147357
842.512	0.0145821
842.590	0.0146334
842.668	0.0147392
842.746	0.0145155
842.825	0.0145937
842.903	0.0146429
842.981	0.0146291
843.059	0.0145341
843.137	0.0145322
843.215	0.0146750
843.293	0.0145477
843.371	0.0145045
843.450	0.0146294
843.528	0.0146246
843.606	0.0145454
843.684	0.0146232
843.762	0.0145413
843.840	0.0146124
843.918	0.0145640
843.996	0.0145242
844.075	0.0146615
844.153	0.0146027
844.231	0.0146263
844.309	0.0146857
844.387	0.0146131
844.465	0.0146457
844.543	0.0147150
844.621	0.0145766
844.700	0.0145645
844.778	0.0145280
844.856	0.0144981
844.934	0.0147418
845.012	0.0145957
845.090	0.0145847
845.168	0.0146992
845.246	0.0145107
845.325	0.0146009
845.403	0.0144859
845.481	0.0146227
845.559	0.0145321
845.637	0.0146172
845.715	0.0145979
845.793	0.0147363
845.871	0.0146526
845.950	0.0145837
846.028	0.0146368
846.106	0.0147015
846.184	0.0146075
846.262	0.0145305
846.340	0.0145836
846.418	0.0145487
846.496	0.0146710
846.575	0.0148278
846.653	0.0147466
846.731	0.0147601
846.809	0.0147163
846.887	0.0146899
846.965	0.0146947
847.043	0.0147302
847.121	0.0146139
847.200	0.0145895
847.278	0.0147126
847.356	0.0146708
847.434	0.0146363
847.512	0.0146542
847.590	0.0147049
847.668	0.0146418
847.746	0.0145296
847.825	0.0146092
847.903	0.0145395
847.981	0.0145592
848.059	0.0147637
848.137	0.0146075
848.215	0.0146703
848.293	0.0146165
848.371	0.0146689
848.450	0.0147839
848.528	0.0145554
848.606	0.0145720
848.684	0.0145469
848.762	0.0147163
848.840	0.0147090
848.918	0.0145439
848.996	0.0144825
849.075	0.0145183
849.153	0.0145261
849.231	0.0146103
849.309	0.0144707
849.387	0.0144936
849.465	0.0146382
849.543	0.0145430
849.621	0.0144053
849.700	0.0145021
849.778	0.0146275
849.856	0.0146037
849.934	0.0144216
850.012	0.0144773
850.090	0.0147052
850.168	0.0145159
850.246	0.0145934
850.325	0.0146822
850.403	0.0146142
850.481	0.0145564
850.559	0.0147143
850.637	0.0147752
850.715	0.0146577
850.793	0.0146014
850.871	0.0147498
850.950	0.0147459
851.028	0.0147363
851.106	0.0146413
851.184	0.0145885
851.262	0.0145726
851.340	0.0146371
851.418	0.0146657
851.496	0.0147009
851.575	0.0146098
851.653	0.0145943
851.731	0.0147070
851.809	0.0145342
851.887	0.0147121
851.965	0.0145874
852.043	0.0146061
852.121	0.0144978
852.200	0.0146310
852.278	0.0146211
852.356	0.0146471
852.434	0.0146667
852.512	0.0147666
852.590	0.0146753
852.668	0.0145129
852.746	0.0148281
852.825	0.0146480
852.903	0.0146857
852.981	0.0146477
853.059	0.0146099
853.137	0.0146125
853.215	0.0145821
853.293	0.0146421
853.371	0.0146120
853.450	0.0145947
853.528	0.0147066
853.606	0.0145412
853.684	0.0145988
853.762	0.0145291
853.840	0.0146347
853.918	0.0145536
853.996	0.0145575
854.075	0.0145802
854.153	0.0145506
854.231	0.0145377
854.309	0.0146785
854.387	0.0147054
854.465	0.0146805
854.543	0.0148343
854.621	0.0147630
854.700	0.0146928
854.778	0.0146881
854.856	0.0146954
854.934	0.0146454
855.012	0.0147056
855.090	0.0146160
855.168	0.0147115
855.246	0.0146575
855.325	0.0146632
855.403	0.0145982
855.481	0.0145982
855.559	0.0146662
855.637	0.0144733
855.715	0.0146025
855.793	0.0145402
855.871	0.0145385
855.950	0.0144534
856.028	0.0146589
856.106	0.0147428
856.184	0.0145274
856.262	0.0145135
856.340	0.0146094
856.418	0.0146637
856.496	0.0145564
856.575	0.0145813
856.653	0.0146455
856.731	0.0146391
856.809	0.0146267
856.887	0.0145927
856.965	0.0147975
857.043	0.0145065
857.121	0.0146219
857.200	0.0147173
857.278	0.0145998
857.356	0.0146633
857.434	0.0144402
857.512	0.0145192
857.590	0.0146696
857.668	0.0144151
857.746	0.0144919
857.825	0.0146102
857.903	0.0144927
857.981	0.0144698
858.059	0.0147107
858.137	0.0145300
858.215	0.0143897
858.293	0.0144853
858.371	0.0145139
858.450	0.0146465
858.528	0.0144920
858.606	0.0145483
858.684	0.0145529
858.762	0.0144408
858.840	0.0145319
858.918	0.0145683
858.996	0.0146274
859.075	0.0144598
859.153	0.0145274
859.231	0.0145564
859.309	0.0145745
859.387	0.0145390
859.465	0.0146752
859.543	0.0147633
859.621	0.0146729
859.700	0.0145863
859.778	0.0145882
859.856	0.0145661
859.934	0.0145304
860.012	0.0146169
860.090	0.0147658
860.168	0.0147236
860.246	0.0145043
860.325	0.0143848
860.403	0.0146251
860.481	0.0148418
860.559	0.0147240
860.637	0.0145530
860.715	0.0147140
860.793	0.0145648
860.871	0.0146062
860.950	0.0145949
861.028	0.0147585
861.106	0.0145502
861.184	0.0144653
861.262	0.0145731
861.340	0.0146487
861.418	0.0145087
861.496	0.0145226
861.575	0.0145544
861.653	0.0146564
861.731	0.0147077
861.809	0.0145430
861.887	0.0145903
861.965	0.0146484
862.043	0.0145995
862.121	0.0147767
862.200	0.0146557
862.278	0.0145783
862.356	0.0146365
862.434	0.0145857
862.512	0.0146526
862.590	0.0146126
862.668	0.0145372
862.746	0.0147405
862.825	0.0148277
862.903	0.0147037
862.981	0.0146635
863.059	0.0146147
863.137	0.0146657
863.215	0.0147605
863.293	0.0146002
863.371	0.0146716
863.450	0.0146937
863.528	0.0147742
863.606	0.0147372
863.684	0.0146522
863.762	0.0148517
863.840	0.0146959
863.918	0.0146898
863.996	0.0145611
864.075	0.0147704
864.153	0.0147017
864.231	0.0147585
864.309	0.0148091
864.387	0.0146864
864.465	0.0146355
864.543	0.0146279
864.621	0.0144630
864.700	0.0144822
864.778	0.0145837
864.856	0.0146772
864.934	0.0145059
865.012	0.0144498
865.090	0.0145789
865.168	0.0146159
865.246	0.0145404
865.325	0.0145046
865.403	0.0145557
865.481	0.0146360
865.559	0.0146528
865.637	0.0146692
865.715	0.0146571
865.793	0.0146661
865.871	0.0146201
865.950	0.0146724
866.028	0.0146079
866.106	0.0146550
866.184	0.0146790
866.262	0.0147311
866.340	0.0146935
866.418	0.0146766
866.496	0.0147053
866.575	0.0146960
866.653	0.0145994
866.731	0.0146867
866.809	0.0148183
866.887	0.0146368
866.965	0.0145823
867.043	0.0146917
867.121	0.0146416
867.200	0.0146319
867.278	0.0145794
867.356	0.0145161
867.434	0.0146018
867.512	0.0145712
867.590	0.0146157
867.668	0.0145013
867.746	0.0145767
867.825	0.0146128
867.903	0.0146271
867.981	0.0146144
868.059	0.0147007
868.137	0.0146949
868.215	0.0147971
868.293	0.0146522
868.371	0.0145966
868.450	0.0147449
868.528	0.0148764
868.606	0.0147262
868.684	0.0146694
868.762	0.0146487
868.840	0.0148168
868.918	0.0147638
868.996	0.0146210
869.075	0.0147988
869.153	0.0146387
869.231	0.0146971
869.309	0.0147044
869.387	0.0146387
869.465	0.0145606
869.543	0.0146098
869.621	0.0146801
869.700	0.0146563
869.778	0.0145946
869.856	0.0146107
869.934	0.0147184
870.012	0.0146151
870.090	0.0145641
870.168	0.0146862
870.246	0.0145835
870.325	0.0146014
870.403	0.0145213
870.481	0.0146445
870.559	0.0145543
870.637	0.0145829
870.715	0.0146089
870.793	0.0146774
870.871	0.0146851
870.950	0.0146183
871.028	0.0145911
871.106	0.0146586
871.184	0.0146929
871.262	0.0147393
871.340	0.0147359
871.418	0.0146758
871.496	0.0145360
871.575	0.0145839
871.653	0.0146390
871.731	0.0145388
871.809	0.0146434
871.887	0.0146494
871.965	0.0146597
872.043	0.0146005
872.121	0.0145625
872.200	0.0144882
872.278	0.0145811
872.356	0.0144816
872.434	0.0145605
872.512	0.0145358
872.590	0.0145453
872.668	0.0144629
872.746	0.0145136
872.825	0.0145425
872.903	0.0146708
872.981	0.0145728
873.059	0.0145969
873.137	0.0145511
873.215	0.0146333
873.293	0.0146310
873.371	0.0145534
873.450	0.0145107
873.528	0.0144489
873.606	0.0145303
873.684	0.0145470
873.762	0.0144839
873.840	0.0145139
873.918	0.0145957
873.996	0.0143729
874.075	0.0146265
874.153	0.0146587
874.231	0.0146768
874.309	0.0145493
874.387	0.0146236
874.465	0.0145590
874.543	0.0145558
874.621	0.0145975
874.700	0.0146445
874.778	0.0145504
874.856	0.0144525
874.934	0.0145486
875.012	0.0146259
875.090	0.0145351
875.168	0.0145840
875.246	0.0146152
875.325	0.0144357
875.403	0.0146053
875.481	0.0147868
875.559	0.0146096
875.637	0.0145287
875.715	0.0145871
875.793	0.0146111
875.871	0.0147182
875.950	0.0146436
876.028	0.0146371
876.106	0.0144502
876.184	0.0144955
876.262	0.0146149
876.340	0.0145855
876.418	0.0145962
876.496	0.0145661
876.575	0.0146334
876.653	0.0146365
876.731	0.0146082
876.809	0.0146099
876.887	0.0145366
876.965	0.0146635
877.043	0.0145907
877.121	0.0145798
877.200	0.0146313
877.278	0.0145931
877.356	0.0145665
877.434	0.0145831
877.512	0.0145939
877.590	0.0146228
877.668	0.0145364
877.746	0.0145379
877.825	0.0146593
877.903	0.0144070
877.981	0.0145932
878.059	0.0146223
878.137	0.0147476
878.215	0.0146873
878.293	0.0145636
878.371	0.0147594
878.450	0.0146828
878.528	0.0146254
878.606	0.0147366
878.684	0.0147771
878.762	0.0145769
878.840	0.0145918
878.918	0.0145004
878.996	0.0146839
879.075	0.0146266
879.153	0.0145785
879.231	0.0145184
879.309	0.0145518
879.387	0.0145750
879.465	0.0144459
879.543	0.0144655
879.621	0.0145038
879.700	0.0145219
879.778	0.0145181
879.856	0.0145820
879.934	0.0145875
880.012	0.0145445
880.090	0.0144368
880.168	0.0146494
880.246	0.0146471
880.325	0.0145734
880.403	0.0146242
880.481	0.0146027
880.559	0.0146483
880.637	0.0146284
880.715	0.0146888
880.793	0.0145451
880.871	0.0146803
880.950	0.0146753
881.028	0.0145424
881.106	0.0144191
881.184	0.0145935
881.262	0.0146538
881.340	0.0145473
881.418	0.0145080
881.496	0.0145642
881.575	0.0146136
881.653	0.0144422
881.731	0.0145870
881.809	0.0145867
881.887	0.0145708
881.965	0.0145621
882.043	0.0145589
882.121	0.0145789
882.200	0.0146617
882.278	0.0146427
882.356	0.0146439
882.434	0.0147482
882.512	0.0146419
882.590	0.0146093
882.668	0.0145734
882.746	0.0146966
882.825	0.0145988
882.903	0.0145717
882.981	0.0144209
883.059	0.0146901
883.137	0.0147511
883.215	0.0147060
883.293	0.0146143
883.371	0.0144171
883.450	0.0144376
883.528	0.0144967
883.606	0.0145770
883.684	0.0146964
883.762	0.0146760
883.840	0.0146118
883.918	0.0146581
883.996	0.0147617
884.075	0.0145960
884.153	0.0146902
884.231	0.0146014
884.309	0.0146301
884.387	0.0145740
884.465	0.0145531
884.543	0.0145856
884.621	0.0145580
884.700	0.0145110
884.778	0.0145856
884.856	0.0146169
884.934	0.0145131
885.012	0.0144305
885.090	0.0145374
885.168	0.0145612
885.246	0.0145673
885.325	0.0145435
885.403	0.0146655
885.481	0.0146418
885.559	0.0144990
885.637	0.0146835
885.715	0.0147671
885.793	0.0147681
885.871	0.0145402
885.950	0.0146355
886.028	0.0146649
886.106	0.0147042
886.184	0.0146967
886.262	0.0147033
886.340	0.0146365
886.418	0.0147289
886.496	0.0145408
886.575	0.0146580
886.653	0.0145844
886.731	0.0146605
886.809	0.0145023
886.887	0.0146072
886.965	0.0145869
887.043	0.0146115
887.121	0.0146282
887.200	0.0146513
887.278	0.0145966
887.356	0.0147656
887.434	0.0146762
887.512	0.0145492
887.590	0.0147389
887.668	0.0147050
887.746	0.0145888
887.825	0.0146441
887.903	0.0145277
887.981	0.0145770
888.059	0.0145145
888.137	0.0144987
888.215	0.0145403
888.293	0.0145920
888.371	0.0144757
888.450	0.0145336
888.528	0.0145302
888.606	0.0145886
888.684	0.0145653
888.762	0.0145989
888.840	0.0147132
888.918	0.0145251
888.996	0.0145316
889.075	0.0147534
889.153	0.0147633
889.231	0.0145615
889.309	0.0146148
889.387	0.0145985
889.465	0.0146248
889.543	0.0146659
889.621	0.0145139
889.700	0.0146035
889.778	0.0146287
889.856	0.0145348
889.934	0.0145930
890.012	0.0145142
890.090	0.0146335
890.168	0.0146860
890.246	0.0146185
890.325	0.0146653
890.403	0.0145385
890.481	0.0146452
890.559	0.0145193
890.637	0.0146100
890.715	0.0146210
890.793	0.0146996
890.871	0.0146606
890.950	0.0146336
891.028	0.0145415
891.106	0.0145254
891.184	0.0146024
891.262	0.0147005
891.340	0.0146897
891.418	0.0147906
891.496	0.0146366
891.575	0.0146704
891.653	0.0147382
891.731	0.0147257
891.809	0.0147443
891.887	0.0148026
891.965	0.0146700
892.043	0.0146301
892.121	0.0148193
892.200	0.0145791
892.278	0.0145420
892.356	0.0145455
892.434	0.0144967
892.512	0.0146023
892.590	0.0144612
892.668	0.0145939
892.746	0.0145522
892.825	0.0145052
892.903	0.0147004
892.981	0.0147232
893.059	0.0147105
893.137	0.0147158
893.215	0.0148734
893.293	0.0147822
893.371	0.0145808
893.450	0.0148508
893.528	0.0145992
893.606	0.0145944
893.684	0.0145572
893.762	0.0147005
893.840	0.0145844
893.918	0.0145514
893.996	0.0145947
894.075	0.0145150
894.153	0.0146485
894.231	0.0146918
894.309	0.0146110
894.387	0.0147346
894.465	0.0147655
894.543	0.0146591
894.621	0.0147282
894.700	0.0145648
894.778	0.0146201
894.856	0.0146431
894.934	0.0146192
895.012	0.0147520
895.090	0.0146733
895.168	0.0145107
895.246	0.0146340
895.325	0.0145858
895.403	0.0146889
895.481	0.0145753
895.559	0.0146368
895.637	0.0145700
895.715	0.0145495
895.793	0.0144727
895.871	0.0148163
895.950	0.0143929
896.028	0.0146426
896.106	0.0145656
896.184	0.0146284
896.262	0.0146058
896.340	0.0146305
896.418	0.0146255
896.496	0.0146542
896.575	0.0144822
896.653	0.0147367
896.731	0.0148756
896.809	0.0147539
896.887	0.0145747
896.965	0.0146140
897.043	0.0146037
897.121	0.0145949
897.200	0.0146437
897.278	0.0144724
897.356	0.0145187
897.434	0.0147200
897.512	0.0146272
897.590	0.0147599
897.668	0.0146732
897.746	0.0145793
897.825	0.0146003
897.903	0.0146863
897.981	0.0145989
898.059	0.0146696
898.137	0.0147192
898.215	0.0146704
898.293	0.0146794
898.371	0.0146908
898.450	0.0146113
898.528	0.0145885
898.606	0.0146329
898.684	0.0146589
898.762	0.0146455
898.840	0.0146648
898.918	0.0145039
898.996	0.0146724
899.075	0.0145942
899.153	0.0147430
899.231	0.0146101
899.309	0.0146561
899.387	0.0146749
899.465	0.0146538
899.543	0.0145323
899.621	0.0145817
899.700	0.0146027
899.778	0.0147064
899.856	0.0144236
899.934	0.0145672
900.012	0.0147066
900.090	0.0146574
900.168	0.0145803
900.246	0.0147005
900.325	0.0145675
900.403	0.0147693
900.481	0.0146996
900.559	0.0146389
900.637	0.0147201
900.715	0.0147210
900.793	0.0147102
900.871	0.0146870
900.950	0.0146112
901.028	0.0146940
901.106	0.0146739
901.184	0.0146830
901.262	0.0146387
901.340	0.0146264
901.418	0.0146887
901.496	0.0146223
901.575	0.0148009
901.653	0.0147919
901.731	0.0147337
901.809	0.0146244
901.887	0.0145130
901.965	0.0145401
902.043	0.0144843
902.121	0.0144568
902.200	0.0144262
902.278	0.0144415
902.356	0.0143269
902.434	0.0143196
902.512	0.0144489
902.590	0.0144374
902.668	0.0143932
902.746	0.0144975
902.825	0.0145509
902.903	0.0144960
902.981	0.0146512
903.059	0.0146207
903.137	0.0146387
903.215	0.0146115
903.293	0.0144853
903.371	0.0144862
903.450	0.0145616
903.528	0.0145541
903.606	0.0146088
903.684	0.0146586
903.762	0.0143782
903.840	0.0145045
903.918	0.0145767
903.996	0.0145425
904.075	0.0145596
904.153	0.0145503
904.231	0.0144023
904.309	0.0144476
904.387	0.0145671
904.465	0.0147124
904.543	0.0146400
904.621	0.0145142
904.700	0.0145033
904.778	0.0147259
904.856	0.0147353
904.934	0.0146973
905.012	0.0145824
905.090	0.0146035
905.168	0.0146441
905.246	0.0147158
905.325	0.0145619
905.403	0.0144738
905.481	0.0146699
905.559	0.0146108
905.637	0.0144557
905.715	0.0145128
905.793	0.0144875
905.871	0.0145995
905.950	0.0144543
906.028	0.0144701
906.106	0.0145584
906.184	0.0145518
906.262	0.0145853
906.340	0.0146872
906.418	0.0146439
906.496	0.0146642
906.575	0.0147013
906.653	0.0146014
906.731	0.0147778
906.809	0.0147485
906.887	0.0147790
906.965	0.0146162
907.043	0.0147054
907.121	0.0147570
907.200	0.0147202
907.278	0.0146891
907.356	0.0146201
907.434	0.0146429
907.512	0.0147469
907.590	0.0147355
907.668	0.0144350
907.746	0.0146549
907.825	0.0146141
907.903	0.0145113
907.981	0.0146676
908.059	0.0144267
908.137	0.0146472
908.215	0.0146442
908.293	0.0145930
908.371	0.0146400
908.450	0.0145582
908.528	0.0145798
908.606	0.0145582
908.684	0.0145800
908.762	0.0146259
908.840	0.0146556
908.918	0.0147575
908.996	0.0148257
909.075	0.0147939
909.153	0.0147090
909.231	0.0146459
909.309	0.0146502
909.387	0.0146729
909.465	0.0145950
909.543	0.0147080
909.621	0.0146757
909.700	0.0145650
909.778	0.0145648
909.856	0.0147245
909.934	0.0145915
910.012	0.0144585
910.090	0.0144717
910.168	0.0144873
910.246	0.0144378
910.325	0.0144964
910.403	0.0144495
910.481	0.0146648
910.559	0.0145660
910.637	0.0146232
910.715	0.0146249
910.793	0.0145267
910.871	0.0148165
910.950	0.0146529
911.028	0.0146617
911.106	0.0145358
911.184	0.0147414
911.262	0.0146354
911.340	0.0144840
911.418	0.0145091
911.496	0.0144182
911.575	0.0143855
911.653	0.0144836
911.731	0.0144543
911.809	0.0144817
911.887	0.0144556
911.965	0.0145232
912.043	0.0148001
912.121	0.0143942
912.200	0.0144375
912.278	0.0145625
912.356	0.0145518
912.434	0.0146375
912.512	0.0145565
912.590	0.0145135
912.668	0.0145187
912.746	0.0145962
912.825	0.0145920
912.903	0.0147250
912.981	0.0146796
913.059	0.0146404
913.137	0.0146861
913.215	0.0146098
913.293	0.0146613
913.371	0.0145609
913.450	0.0146870
913.528	0.0147018
913.606	0.0146056
913.684	0.0147034
913.762	0.0146317
913.840	0.0146040
913.918	0.0146219
913.996	0.0145021
914.075	0.0147223
914.153	0.0146233
914.231	0.0145075
914.309	0.0145868
914.387	0.0146516
914.465	0.0146307
914.543	0.0145083
914.621	0.0144011
914.700	0.0147147
914.778	0.0146603
914.856	0.0146114
914.934	0.0147251
915.012	0.0147208
915.090	0.0146882
915.168	0.0147684
915.246	0.0147121
915.325	0.0146987
915.403	0.0148508
915.481	0.0147695
915.559	0.0145496
915.637	0.0146960
915.715	0.0146066
915.793	0.0145940
915.871	0.0148190
915.950	0.0146781
916.028	0.0146171
916.106	0.0145840
916.184	0.0147020
916.262	0.0145801
916.340	0.0145791
916.418	0.0148079
916.496	0.0147180
916.575	0.0147076
916.653	0.0148118
916.731	0.0146846
916.809	0.0145475
916.887	0.0146077
916.965	0.0146973
917.043	0.0148087
917.121	0.0146986
917.200	0.0146095
917.278	0.0146689
917.356	0.0147303
917.434	0.0146537
917.512	0.0146105
917.590	0.0145520
917.668	0.0145542
917.746	0.0147153
917.825	0.0147177
917.903	0.0147102
917.981	0.0146310
918.059	0.0146711
918.137	0.0146845
918.215	0.0145801
918.293	0.0146124
918.371	0.0147886
918.450	0.0147464
918.528	0.0145610
918.606	0.0146022
918.684	0.0145861
918.762	0.0146066
918.840	0.0146169
918.918	0.0146850
918.996	0.0147066
919.075	0.0145832
919.153	0.0145522
919.231	0.0146600
919.309	0.0146693
919.387	0.0145863
919.465	0.0146016
919.543	0.0146453
919.621	0.0146140
919.700	0.0147696
919.778	0.0146621
919.856	0.0145816
919.934	0.0145883
920.012	0.0146636
920.090	0.0146430
920.168	0.0145533
920.246	0.0146412
920.325	0.0146340
920.403	0.0146469
920.481	0.0145941
920.559	0.0145347
920.637	0.0145875
920.715	0.0146859
920.793	0.0144942
920.871	0.0145237
920.950	0.0146484
921.028	0.0146489
921.106	0.0147253
921.184	0.0146095
921.262	0.0146240
921.340	0.0145525
921.418	0.0146046
921.496	0.0146465
921.575	0.0146839
921.653	0.0145296
921.731	0.0145548
921.809	0.0146603
921.887	0.0147402
921.965	0.0147131
922.043	0.0147047
922.121	0.0146755
922.200	0.0145532
922.278	0.0144386
922.356	0.0146473
922.434	0.0146287
922.512	0.0146327
922.590	0.0146763
922.668	0.0146680
922.746	0.0144295
922.825	0.0146364
922.903	0.0145349
922.981	0.0145940
923.059	0.0146048
923.137	0.0146148
923.215	0.0147569
923.293	0.0144926
923.371	0.0145930
923.450	0.0145354
923.528	0.0147766
923.606	0.0147505
923.684	0.0144894
923.762	0.0147042
923.840	0.0146586
923.918	0.0146307
923.996	0.0146211
924.075	0.0145920
924.153	0.0146185
924.231	0.0146125
924.309	0.0146213
924.387	0.0146130
924.465	0.0146431
924.543	0.0145925
924.621	0.0146082
924.700	0.0146392
924.778	0.0145170
924.856	0.0146018
924.934	0.0146167
925.012	0.0144812
925.090	0.0146194
925.168	0.0146744
925.246	0.0145834
925.325	0.0146790
925.403	0.0147607
925.481	0.0147041
925.559	0.0146128
925.637	0.0146161
925.715	0.0145943
925.793	0.0146616
925.871	0.0146449
925.950	0.0145995
926.028	0.0146373
926.106	0.0146690
926.184	0.0146874
926.262	0.0145490
926.340	0.0144807
926.418	0.0145279
926.496	0.0145287
926.575	0.0145668
926.653	0.0146561
926.731	0.0145408
926.809	0.0144621
926.887	0.0143800
926.965	0.0144482
927.043	0.0145434
927.121	0.0145225
927.200	0.0145918
927.278	0.0145776
927.356	0.0145634
927.434	0.0144818
927.512	0.0145391
927.590	0.0144734
927.668	0.0146797
927.746	0.0145938
927.825	0.0145718
927.903	0.0145342
927.981	0.0145368
928.059	0.0145502
928.137	0.0145744
928.215	0.0144809
928.293	0.0145660
928.371	0.0145749
928.450	0.0145287
928.528	0.0144518
928.606	0.0144595
928.684	0.0145245
928.762	0.0145535
928.840	0.0145557
928.918	0.0145147
928.996	0.0144619
929.075	0.0144309
929.153	0.0146096
929.231	0.0146270
929.309	0.0145364
929.387	0.0147421
929.465	0.0145723
929.543	0.0145812
929.621	0.0146817
929.700	0.0147733
929.778	0.0145516
929.856	0.0147048
929.934	0.0147454
930.012	0.0147836
930.090	0.0144911
930.168	0.0146819
930.246	0.0146127
930.325	0.0145566
930.403	0.0145209
930.481	0.0144848
930.559	0.0146519
930.637	0.0146227
930.715	0.0145484
930.793	0.0145731
930.871	0.0145307
930.950	0.0146770
931.028	0.0146842
931.106	0.0146484
931.184	0.0147118
931.262	0.0146629
931.340	0.0146695
931.418	0.0147330
931.496	0.0145683
931.575	0.0146380
931.653	0.0147865
931.731	0.0147333
931.809	0.0145892
931.887	0.0145734
931.965	0.0145926
932.043	0.0146609
932.121	0.0145024
932.200	0.0146419
932.278	0.0146392
932.356	0.0146091
932.434	0.0145319
932.512	0.0146956
932.590	0.0145959
932.668	0.0145430
932.746	0.0146310
932.825	0.0146954
932.903	0.0144823
932.981	0.0146454
933.059	0.0146349
933.137	0.0147101
933.215	0.0146789
933.293	0.0146618
933.371	0.0146181
933.450	0.0146986
933.528	0.0146481
933.606	0.0145594
933.684	0.0145322
933.762	0.0144543
933.840	0.0145952
933.918	0.0146322
933.996	0.0144629
934.075	0.0144144
934.153	0.0144825
934.231	0.0146284
934.309	0.0145036
934.387	0.0145486
934.465	0.0145920
934.543	0.0145882
934.621	0.0145829
934.700	0.0147216
934.778	0.0148067
934.856	0.0146076
934.934	0.0145461
935.012	0.0146947
935.090	0.0147720
935.168	0.0145996
935.246	0.0145660
935.325	0.0146882
935.403	0.0145813
935.481	0.0145613
935.559	0.0144677
935.637	0.0147273
935.715	0.0146111
935.793	0.0145638
935.871	0.0145026
935.950	0.0145563
936.028	0.0146423
936.106	0.0145573
936.184	0.0146109
936.262	0.0145480
936.340	0.0145025
936.418	0.0145361
936.496	0.0144966
936.575	0.0144314
936.653	0.0145338
936.731	0.0145872
936.809	0.0146794
936.887	0.0145975
936.965	0.0146236
937.043	0.0145461
937.121	0.0146835
937.200	0.0145575
937.278	0.0146455
937.356	0.0145090
937.434	0.0145265
937.512	0.0145997
937.590	0.0147173
937.668	0.0145228
937.746	0.0145587
937.825	0.0146587
937.903	0.0145923
937.981	0.0146325
938.059	0.0146473
938.137	0.0145678
938.215	0.0146970
938.293	0.0146267
938.371	0.0144058
938.450	0.0146733
938.528	0.0145679
938.606	0.0145995
938.684	0.0146295
938.762	0.0147185
938.840	0.0145856
938.918	0.0146902
938.996	0.0146667
939.075	0.0146125
939.153	0.0147377
939.231	0.0145254
939.309	0.0147385
939.387	0.0146912
939.465	0.0146706
939.543	0.0145733
939.621	0.0146067
939.700	0.0146367
939.778	0.0146800
939.856	0.0146646
939.934	0.0146457
940.012	0.0146654
940.090	0.0146373
940.168	0.0147123
940.246	0.0146256
940.325	0.0146700
940.403	0.0146126
940.481	0.0144782
940.559	0.0145105
940.637	0.0146264
940.715	0.0145380
940.793	0.0145369
940.871	0.0146587
940.950	0.0145612
941.028	0.0145098
941.106	0.0146764
941.184	0.0147586
941.262	0.0147323
941.340	0.0146482
941.418	0.0146142
941.496	0.0145892
941.575	0.0146301
941.653	0.0146464
941.731	0.0146853
941.809	0.0146354
941.887	0.0145966
941.965	0.0146439
942.043	0.0147270
942.121	0.0145284
942.200	0.0146053
942.278	0.0146618
942.356	0.0147242
942.434	0.0144858
942.512	0.0145937
942.590	0.0147299
942.668	0.0145417
942.746	0.0146872
942.825	0.0147156
942.903	0.0146509
942.981	0.0147523
943.059	0.0147645
943.137	0.0145512
943.215	0.0147128
943.293	0.0147237
943.371	0.0147336
943.450	0.0145358
943.528	0.0146735
943.606	0.0146954
943.684	0.0146057
943.762	0.0146526
943.840	0.0146708
943.918	0.0146243
943.996	0.0145622
944.075	0.0146058
944.153	0.0145599
944.231	0.0145770
944.309	0.0145669
944.387	0.0146761
944.465	0.0146552
944.543	0.0146935
944.621	0.0145596
944.700	0.0147524
944.778	0.0145805
944.856	0.0146859
944.934	0.0147141
945.012	0.0147549
945.090	0.0147981
945.168	0.0146033
945.246	0.0146703
945.325	0.0147585
945.403	0.0148387
945.481	0.0147327
945.559	0.0147292
945.637	0.0145866
945.715	0.0146485
945.793	0.0147099
945.871	0.0147675
945.950	0.0146200
946.028	0.0145975
946.106	0.0145689
946.184	0.0147157
946.262	0.0147808
946.340	0.0145801
946.418	0.0145763
946.496	0.0146669
946.575	0.0146789
946.653	0.0146838
946.731	0.0146687
946.809	0.0145824
946.887	0.0146040
946.965	0.0145728
947.043	0.0146743
947.121	0.0147212
947.200	0.0147464
947.278	0.0147214
947.356	0.0147956
947.434	0.0145863
947.512	0.0146729
947.590	0.0146684
947.668	0.0147200
947.746	0.0146452
947.825	0.0145236
947.903	0.0147068
947.981	0.0146301
948.059	0.0146492
948.137	0.0146561
948.215	0.0146075
948.293	0.0144889
948.371	0.0146651
948.450	0.0145843
948.528	0.0145445
948.606	0.0145091
948.684	0.0146915
948.762	0.0145926
948.840	0.0146478
948.918	0.0145486
948.996	0.0145347
949.075	0.0145592
949.153	0.0145625
949.231	0.0146633
949.309	0.0146498
949.387	0.0146148
949.465	0.0145032
949.543	0.0145313
949.621	0.0144614
949.700	0.0145338
949.778	0.0146016
949.856	0.0146255
949.934	0.0144668
950.012	0.0145452
950.090	0.0145499
950.168	0.0146182
950.246	0.0145762
950.325	0.0145212
950.403	0.0146786
950.481	0.0146931
950.559	0.0147180
950.637	0.0146428
950.715	0.0145930
950.793	0.0146396
950.871	0.0145057
950.950	0.0146416
951.028	0.0146727
951.106	0.0145360
951.184	0.0145663
951.262	0.0145939
951.340	0.0146580
951.418	0.0145476
951.496	0.0146111
951.575	0.0146033
951.653	0.0146956
951.731	0.0144432
951.809	0.0145681
951.887	0.0146040
951.965	0.0146018
952.043	0.0144820
952.121	0.0146265
952.200	0.0146233
952.278	0.0146725
952.356	0.0146342
952.434	0.0144201
952.512	0.0143518
952.590	0.0144964
952.668	0.0144899
952.746	0.0144989
952.825	0.0145210
952.903	0.0145854
952.981	0.0145943
953.059	0.0144987
953.137	0.0145637
953.215	0.0144679
953.293	0.0145532
953.371	0.0144444
953.450	0.0144695
953.528	0.0146421
953.606	0.0147054
953.684	0.0146170
953.762	0.0145428
953.840	0.0145614
953.918	0.0146104
953.996	0.0145650
954.075	0.0144476
954.153	0.0144973
954.231	0.0145413
954.309	0.0145707
954.387	0.0148251
954.465	0.0146603
954.543	0.0144466
954.621	0.0146430
954.700	0.0146788
954.778	0.0145835
954.856	0.0146123
954.934	0.0145343
955.012	0.0145775
955.090	0.0146464
955.168	0.0147057
955.246	0.0146334
955.325	0.0145455
955.403	0.0144691
955.481	0.0144499
955.559	0.0144673
955.637	0.0144699
955.715	0.0145380
955.793	0.0146518
955.871	0.0146088
955.950	0.0145753
956.028	0.0144038
956.106	0.0144382
956.184	0.0144359
956.262	0.0144888
956.340	0.0145084
956.418	0.0145390
956.496	0.0144998
956.575	0.0145892
956.653	0.0147012
956.731	0.0144903
956.809	0.0145893
956.887	0.0145295
956.965	0.0147047
957.043	0.0145600
957.121	0.0146214
957.200	0.0145438
957.278	0.0145280
957.356	0.0146421
957.434	0.0145780
957.512	0.0145558
957.590	0.0145361
957.668	0.0145470
957.746	0.0144998
957.825	0.0146305
957.903	0.0146284
957.981	0.0146623
958.059	0.0145611
958.137	0.0145016
958.215	0.0147497
958.293	0.0146390
958.371	0.0145452
958.450	0.0144778
958.528	0.0145672
958.606	0.0144662
958.684	0.0145389
958.762	0.0146138
958.840	0.0144443
958.918	0.0143105
958.996	0.0144998
959.075	0.0144156
959.153	0.0145221
959.231	0.0144422
959.309	0.0143985
959.387	0.0143523
959.465	0.0145417
959.543	0.0146032
959.621	0.0145278
959.700	0.0144939
959.778	0.0144363
959.856	0.0144524
959.934	0.0145383
960.012	0.0145415
960.090	0.0145863
960.168	0.0145912
960.246	0.0146809
960.325	0.0146424
960.403	0.0144943
960.481	0.0145930
960.559	0.0145260
960.637	0.0146043
960.715	0.0144465
960.793	0.0145040
960.871	0.0146619
960.950	0.0145488
961.028	0.0145257
961.106	0.0146471
961.184	0.0145021
961.262	0.0144283
961.340	0.0145154
961.418	0.0144894
961.496	0.0145090
961.575	0.0145442
961.653	0.0144291
961.731	0.0145884
961.809	0.0146050
961.887	0.0144912
961.965	0.0146222
962.043	0.0146735
962.121	0.0146468
962.200	0.0146945
962.278	0.0147046
962.356	0.0146386
962.434	0.0146080
962.512	0.0147397
962.590	0.0148449
962.668	0.0146431
962.746	0.0145653
962.825	0.0147015
962.903	0.0146273
962.981	0.0145924
963.059	0.0145539
963.137	0.0145845
963.215	0.0144453
963.293	0.0146092
963.371	0.0146518
963.450	0.0144284
963.528	0.0145859
963.606	0.0145796
963.684	0.0145074
963.762	0.0144991
963.840	0.0144723
963.918	0.0145142
963.996	0.0146076
964.075	0.0144706
964.153	0.0145344
964.231	0.0144537
964.309	0.0146144
964.387	0.0146562
964.465	0.0145579
964.543	0.0148368
964.621	0.0148066
964.700	0.0146578
964.778	0.0146488
964.856	0.0147174
964.934	0.0147720
965.012	0.0145712
965.090	0.0146544
965.168	0.0146814
965.246	0.0146013
965.325	0.0146706
965.403	0.0146317
965.481	0.0146908
965.559	0.0147968
965.637	0.0148190
965.715	0.0147256
965.793	0.0147539
965.871	0.0145659
965.950	0.0145813
966.028	0.0147306
966.106	0.0147061
966.184	0.0147852
966.262	0.0147323
966.340	0.0147749
966.418	0.0148314
966.496	0.0146844
966.575	0.0147063
966.653	0.0147353
966.731	0.0147060
966.809	0.0146104
966.887	0.0146383
966.965	0.0146735
967.043	0.0146463
967.121	0.0146379
967.200	0.0145170
967.278	0.0145798
967.356	0.0145651
967.434	0.0144534
967.512	0.0144589
967.590	0.0145306
967.668	0.0144732
967.746	0.0144526
967.825	0.0145813
967.903	0.0144854
967.981	0.0144699
968.059	0.0145911
968.137	0.0145767
968.215	0.0145753
968.293	0.0146574
968.371	0.0145881
968.450	0.0146039
968.528	0.0147128
968.606	0.0145556
968.684	0.0145522
968.762	0.0146611
968.840	0.0147160
968.918	0.0146333
968.996	0.0145396
969.075	0.0146970
969.153	0.0146281
969.231	0.0145959
969.309	0.0145753
969.387	0.0144736
969.465	0.0146307
969.543	0.0146322
969.621	0.0146097
969.700	0.0147074
969.778	0.0145193
969.856	0.0145797
969.934	0.0146288
970.012	0.0146008
970.090	0.0144930
970.168	0.0146342
970.246	0.0146846
970.325	0.0146468
970.403	0.0147031
970.481	0.0145737
970.559	0.0145243
970.637	0.0146683
970.715	0.0145981
970.793	0.0145697
970.871	0.0146764
970.950	0.0146586
971.028	0.0145057
971.106	0.0147385
971.184	0.0145839
971.262	0.0146441
971.340	0.0147859
971.418	0.0146497
971.496	0.0146165
971.575	0.0146668
971.653	0.0147531
971.731	0.0146082
971.809	0.0147158
971.887	0.0146755
971.965	0.0144483
972.043	0.0147560
972.121	0.0146392
972.200	0.0145730
972.278	0.0146854
972.356	0.0146523
972.434	0.0146574
972.512	0.0146173
972.590	0.0145498
972.668	0.0147604
972.746	0.0145480
972.825	0.0145769
972.903	0.0145202
972.981	0.0145267
973.059	0.0145242
973.137	0.0145013
973.215	0.0145359
973.293	0.0146391
973.371	0.0146420
973.450	0.0146385
973.528	0.0145251
973.606	0.0143703
973.684	0.0145547
973.762	0.0146049
973.840	0.0146320
973.918	0.0146812
973.996	0.0145676
974.075	0.0145230
974.153	0.0145650
974.231	0.0144412
974.309	0.0146709
974.387	0.0146580
974.465	0.0147702
974.543	0.0145884
974.621	0.0145183
974.700	0.0146271
974.778	0.0147735
974.856	0.0147408
974.934	0.0146396
975.012	0.0144879
975.090	0.0145937
975.168	0.0145506
975.246	0.0145261
975.325	0.0146104
975.403	0.0144522
975.481	0.0144986
975.559	0.0144621
975.637	0.0143443
975.715	0.0144782
975.793	0.0145155
975.871	0.0145727
975.950	0.0145028
976.028	0.0144441
976.106	0.0144022
976.184	0.0145436
976.262	0.0144732
976.340	0.0146309
976.418	0.0147642
976.496	0.0146751
976.575	0.0147382
976.653	0.0146512
976.731	0.0146655
976.809	0.0146513
976.887	0.0146622
976.965	0.0146629
977.043	0.0147916
977.121	0.0146582
977.200	0.0146973
977.278	0.0145515
977.356	0.0146291
977.434	0.0146253
977.512	0.0147042
977.590	0.0146368
977.668	0.0146353
977.746	0.0144835
977.825	0.0145493
977.903	0.0145363
977.981	0.0145997
978.059	0.0145232
978.137	0.0144452
978.215	0.0145587
978.293	0.0145964
978.371	0.0145967
978.450	0.0146620
978.528	0.0146208
978.606	0.0145583
978.684	0.0147137
978.762	0.0144612
978.840	0.0145671
978.918	0.0146315
978.996	0.0146781
979.075	0.0145768
979.153	0.0145280
979.231	0.0147288
979.309	0.0146533
979.387	0.0145574
979.465	0.0146313
979.543	0.0148080
979.621	0.0145665
979.700	0.0145457
979.778	0.0145855
979.856	0.0144732
979.934	0.0146408
980.012	0.0146198
980.090	0.0146168
980.168	0.0145635
980.246	0.0146243
980.325	0.0146761
980.403	0.0144892
980.481	0.0145331
980.559	0.0145824
980.637	0.0145881
980.715	0.0144724
980.793	0.0144655
980.871	0.0146701
980.950	0.0144991
981.028	0.0145512
981.106	0.0146132
981.184	0.0146613
981.262	0.0147041
981.340	0.0146789
981.418	0.0147163
981.496	0.0145734
981.575	0.0146937
981.653	0.0147266
981.731	0.0146742
981.809	0.0145250
981.887	0.0144382
981.965	0.0144307
982.043	0.0146095
982.121	0.0144961
982.200	0.0144772
982.278	0.0146850
982.356	0.0144675
982.434	0.0145439
982.512	0.0145915
982.590	0.0145863
982.668	0.0146052
982.746	0.0146061
982.825	0.0145136
982.903	0.0145439
982.981	0.0145714
983.059	0.0146911
983.137	0.0146704
983.215	0.0146643
983.293	0.0145197
983.371	0.0144157
983.450	0.0145737
983.528	0.0146153
983.606	0.0147150
983.684	0.0147146
983.762	0.0145613
983.840	0.0146565
983.918	0.0146381
983.996	0.0146233
984.075	0.0146159
984.153	0.0146506
984.231	0.0145730
984.309	0.0146623
984.387	0.0145681
984.465	0.0145934
984.543	0.0147211
984.621	0.0145783
984.700	0.0145225
984.778	0.0147588
984.856	0.0145771
984.934	0.0146426
985.012	0.0146264
985.090	0.0146321
985.168	0.0146133
985.246	0.0145634
985.325	0.0146764
985.403	0.0145649
985.481	0.0146626
985.559	0.0146293
985.637	0.0146333
985.715	0.0146062
985.793	0.0145129
985.871	0.0145276
985.950	0.0146137
986.028	0.0144690
986.106	0.0146186
986.184	0.0146558
986.262	0.0146680
986.340	0.0145975
986.418	0.0145519
986.496	0.0145840
986.575	0.0146081
986.653	0.0146106
986.731	0.0146202
986.809	0.0147627
986.887	0.0146412
986.965	0.0147742
987.043	0.0147443
987.121	0.0146710
987.200	0.0145209
987.278	0.0146832
987.356	0.0146663
987.434	0.0146708
987.512	0.0147322
987.590	0.0145467
987.668	0.0144839
987.746	0.0145510
987.825	0.0147009
987.903	0.0144231
987.981	0.0144955
988.059	0.0145629
988.137	0.0147038
988.215	0.0144279
988.293	0.0144493
988.371	0.0145462
988.450	0.0146217
988.528	0.0147527
988.606	0.0146268
988.684	0.0146748
988.762	0.0145695
988.840	0.0146300
988.918	0.0146812
988.996	0.0146987
989.075	0.0146658
989.153	0.0147616
989.231	0.0147603
989.309	0.0145919
989.387	0.0146035
989.465	0.0147723
989.543	0.0146521
989.621	0.0146069
989.700	0.0145648
989.778	0.0146099
989.856	0.0145521
989.934	0.0145146
990.012	0.0146507
990.090	0.0145779
990.168	0.0145277
990.246	0.0144936
990.325	0.0144290
990.403	0.0146226
990.481	0.0146514
990.559	0.0146652
990.637	0.0145492
990.715	0.0145530
990.793	0.0145004
990.871	0.0145940
990.950	0.0146303
991.028	0.0146386
991.106	0.0145164
991.184	0.0146014
991.262	0.0147429
991.340	0.0145502
991.418	0.0146787
991.496	0.0146202
991.575	0.0146525
991.653	0.0146572
991.731	0.0145644
991.809	0.0145354
991.887	0.0145389
991.965	0.0144755
992.043	0.0145507
992.121	0.0144905
992.200	0.0145529
992.278	0.0146221
992.356	0.0145432
992.434	0.0146121
992.512	0.0146095
992.590	0.0146538
992.668	0.0146513
992.746	0.0146131
992.825	0.0148793
992.903	0.0146040
992.981	0.0146354
993.059	0.0147075
993.137	0.0145464
993.215	0.0147135
993.293	0.0147375
993.371	0.0146825
993.450	0.0144977
993.528	0.0146127
993.606	0.0147004
993.684	0.0147405
993.762	0.0147042
993.840	0.0146136
993.918	0.0146198
993.996	0.0146687
994.075	0.0147536
994.153	0.0146542
994.231	0.0146057
994.309	0.0146092
994.387	0.0146015
994.465	0.0146931
994.543	0.0146215
994.621	0.0145277
994.700	0.0145165
994.778	0.0146358
994.856	0.0144478
994.934	0.0144782
995.012	0.0146166
995.090	0.0144612
995.168	0.0145761
995.246	0.0146413
995.325	0.0145798
995.403	0.0146247
995.481	0.0146226
995.559	0.0146152
995.637	0.0147614
995.715	0.0148230
995.793	0.0147923
995.871	0.0147314
995.950	0.0147566
996.028	0.0147286
996.106	0.0146628
996.184	0.0145325
996.262	0.0144843
996.340	0.0146169
996.418	0.0145374
996.496	0.0145897
996.575	0.0144353
996.653	0.0144619
996.731	0.0144397
996.809	0.0143527
996.887	0.0145123
996.965	0.0144918
997.043	0.0145164
997.121	0.0144664
997.200	0.0145178
997.278	0.0144582
997.356	0.0146563
997.434	0.0146272
997.512	0.0146193
997.590	0.0145607
997.668	0.0147340
997.746	0.0147067
997.825	0.0146356
997.903	0.0145897
997.981	0.0146211
998.059	0.0146616
998.137	0.0145485
998.215	0.0146143
998.293	0.0145929
998.371	0.0146552
998.450	0.0146622
998.528	0.0145303
998.606	0.0144772
998.684	0.0145626
998.762	0.0145814
998.840	0.0145914
998.918	0.0146531
