05/04/2022	21:20:03	Ver.	4.1	UNKNOWN
Optical Delay	678.996401	Delta X		0.078125	Sweeps	1	Scan Rate	0/0
Coordinates	Axis 1	NaN	Axis 2	NaN	Axis 3	NaN	Axis 4	NaN	Axis 5	NaN	Axis 6	0.000000
TX Power	0.000000	RX Power	0.000000

678.996	0.0145797
679.075	0.0145740
679.153	0.0147360
679.231	0.0146410
679.309	0.0144707
679.387	0.0144965
679.465	0.0143470
679.543	0.0142618
679.621	0.0143112
679.700	0.0142908
679.778	0.0141722
679.856	0.0141886
679.934	0.0143118
680.012	0.0143034
680.090	0.0143711
680.168	0.0145237
680.246	0.0145039
680.325	0.0144411
680.403	0.0145689
680.481	0.0146808
680.559	0.0147290
680.637	0.0146810
680.715	0.0145865
680.793	0.0148189
680.871	0.0146745
680.950	0.0146925
681.028	0.0146349
681.106	0.0147202
681.184	0.0145978
681.262	0.0146269
681.340	0.0146603
681.418	0.0145995
681.496	0.0145771
681.575	0.0144948
681.653	0.0144917
681.731	0.0145576
681.809	0.0144781
681.887	0.0144696
681.965	0.0143943
682.043	0.0143748
682.121	0.0144639
682.200	0.0145016
682.278	0.0146459
682.356	0.0146439
682.434	0.0144892
682.512	0.0146420
682.590	0.0146050
682.668	0.0146869
682.746	0.0145760
682.825	0.0145740
682.903	0.0146181
682.981	0.0147375
683.059	0.0145927
683.137	0.0145892
683.215	0.0145143
683.293	0.0145619
683.371	0.0146172
683.450	0.0143826
683.528	0.0146341
683.606	0.0144858
683.684	0.0145673
683.762	0.0144765
683.840	0.0144061
683.918	0.0144807
683.996	0.0145355
684.075	0.0144061
684.153	0.0143887
684.231	0.0144987
684.309	0.0145364
684.387	0.0145018
684.465	0.0146857
684.543	0.0146169
684.621	0.0146236
684.700	0.0145123
684.778	0.0146193
684.856	0.0146933
684.934	0.0146842
685.012	0.0146548
685.090	0.0147125
685.168	0.0145963
685.246	0.0145859
685.325	0.0146774
685.403	0.0145602
685.481	0.0144247
685.559	0.0146262
685.637	0.0144878
685.715	0.0145058
685.793	0.0144836
685.871	0.0144064
685.950	0.0144342
686.028	0.0144006
686.106	0.0144823
686.184	0.0144976
686.262	0.0144783
686.340	0.0144668
686.418	0.0144198
686.496	0.0144859
686.575	0.0144629
686.653	0.0144231
686.731	0.0145476
686.809	0.0146283
686.887	0.0144981
686.965	0.0146642
687.043	0.0147052
687.121	0.0146580
687.200	0.0147672
687.278	0.0146132
687.356	0.0146365
687.434	0.0146560
687.512	0.0147329
687.590	0.0146349
687.668	0.0147635
687.746	0.0147232
687.825	0.0146985
687.903	0.0146812
687.981	0.0145925
688.059	0.0146986
688.137	0.0145755
688.215	0.0146940
688.293	0.0146239
688.371	0.0145250
688.450	0.0145210
688.528	0.0145734
688.606	0.0146043
688.684	0.0144260
688.762	0.0145449
688.840	0.0146845
688.918	0.0145509
688.996	0.0145779
689.075	0.0145202
689.153	0.0145161
689.231	0.0147957
689.309	0.0145555
689.387	0.0147341
689.465	0.0146835
689.543	0.0147224
689.621	0.0146518
689.700	0.0145583
689.778	0.0146946
689.856	0.0146106
689.934	0.0146474
690.012	0.0147772
690.090	0.0147089
690.168	0.0146703
690.246	0.0146812
690.325	0.0147353
690.403	0.0146916
690.481	0.0146124
690.559	0.0144850
690.637	0.0144635
690.715	0.0146326
690.793	0.0145722
690.871	0.0144392
690.950	0.0145213
691.028	0.0144178
691.106	0.0145207
691.184	0.0144070
691.262	0.0144673
691.340	0.0144365
691.418	0.0145303
691.496	0.0147298
691.575	0.0143782
691.653	0.0145747
691.731	0.0145934
691.809	0.0147008
691.887	0.0145689
691.965	0.0145082
692.043	0.0146423
692.121	0.0147417
692.200	0.0147510
692.278	0.0146122
692.356	0.0145578
692.434	0.0145776
692.512	0.0145164
692.590	0.0145262
692.668	0.0146320
692.746	0.0146068
692.825	0.0145616
692.903	0.0145400
692.981	0.0144209
693.059	0.0145834
693.137	0.0145522
693.215	0.0145404
693.293	0.0144519
693.371	0.0146113
693.450	0.0147369
693.528	0.0146107
693.606	0.0145538
693.684	0.0146479
693.762	0.0145898
693.840	0.0146808
693.918	0.0145469
693.996	0.0144337
694.075	0.0145859
694.153	0.0143162
694.231	0.0144134
694.309	0.0145375
694.387	0.0143545
694.465	0.0145258
694.543	0.0147015
694.621	0.0146934
694.700	0.0147837
694.778	0.0146231
694.856	0.0147119
694.934	0.0146656
695.012	0.0146973
695.090	0.0147504
695.168	0.0146387
695.246	0.0146630
695.325	0.0146317
695.403	0.0145365
695.481	0.0143490
695.559	0.0144814
695.637	0.0141534
695.715	0.0140866
695.793	0.0141647
695.871	0.0141373
695.950	0.0141908
696.028	0.0143551
696.106	0.0143597
696.184	0.0143952
696.262	0.0147199
696.340	0.0148318
696.418	0.0149924
696.496	0.0151119
696.575	0.0151939
696.653	0.0151243
696.731	0.0150891
696.809	0.0149814
696.887	0.0149334
696.965	0.0146720
697.043	0.0144054
697.121	0.0143426
697.200	0.0142165
697.278	0.0141560
697.356	0.0141424
697.434	0.0140608
697.512	0.0142272
697.590	0.0142602
697.668	0.0145111
697.746	0.0146559
697.825	0.0147506
697.903	0.0149999
697.981	0.0149152
698.059	0.0150787
698.137	0.0148694
698.215	0.0147641
698.293	0.0147077
698.371	0.0145013
698.450	0.0143700
698.528	0.0143181
698.606	0.0142168
698.684	0.0140207
698.762	0.0140567
698.840	0.0141132
698.918	0.0142275
698.996	0.0142504
699.075	0.0144714
699.153	0.0146243
699.231	0.0146954
699.309	0.0147681
699.387	0.0151316
699.465	0.0152312
699.543	0.0154570
699.621	0.0155046
699.700	0.0154890
699.778	0.0154704
699.856	0.0152763
699.934	0.0151851
700.012	0.0146239
700.090	0.0142973
700.168	0.0140050
700.246	0.0137361
700.325	0.0134409
700.403	0.0133581
700.481	0.0134795
700.559	0.0135241
700.637	0.0139009
700.715	0.0139570
700.793	0.0144651
700.871	0.0149279
700.950	0.0151720
701.028	0.0153396
701.106	0.0155661
701.184	0.0154892
701.262	0.0154842
701.340	0.0154127
701.418	0.0151511
701.496	0.0148438
701.575	0.0146420
701.653	0.0142763
701.731	0.0140134
701.809	0.0139629
701.887	0.0137817
701.965	0.0137182
702.043	0.0138178
702.121	0.0140942
702.200	0.0142069
702.278	0.0142487
702.356	0.0146477
702.434	0.0147399
702.512	0.0148431
702.590	0.0150603
702.668	0.0152118
702.746	0.0151962
702.825	0.0151520
702.903	0.0151923
702.981	0.0149290
703.059	0.0149081
703.137	0.0148557
703.215	0.0144600
703.293	0.0143255
703.371	0.0139817
703.450	0.0139039
703.528	0.0138482
703.606	0.0136526
703.684	0.0137186
703.762	0.0137976
703.840	0.0138829
703.918	0.0141270
703.996	0.0146291
704.075	0.0146735
704.153	0.0150322
704.231	0.0150851
704.309	0.0151305
704.387	0.0151577
704.465	0.0151384
704.543	0.0150297
704.621	0.0146629
704.700	0.0144896
704.778	0.0144160
704.856	0.0144456
704.934	0.0144758
705.012	0.0143704
705.090	0.0142232
705.168	0.0143345
705.246	0.0144077
705.325	0.0144753
705.403	0.0145032
705.481	0.0145537
705.559	0.0143509
705.637	0.0143583
705.715	0.0145795
705.793	0.0144555
705.871	0.0144685
705.950	0.0146096
706.028	0.0147099
706.106	0.0148006
706.184	0.0146981
706.262	0.0146900
706.340	0.0146433
706.418	0.0144275
706.496	0.0143782
706.575	0.0143920
706.653	0.0143443
706.731	0.0140895
706.809	0.0142702
706.887	0.0143964
706.965	0.0145950
707.043	0.0146925
707.121	0.0147544
707.200	0.0148829
707.278	0.0150594
707.356	0.0150994
707.434	0.0148898
707.512	0.0148672
707.590	0.0148190
707.668	0.0147345
707.746	0.0146614
707.825	0.0145444
707.903	0.0145644
707.981	0.0144906
708.059	0.0146021
708.137	0.0144047
708.215	0.0144160
708.293	0.0143066
708.371	0.0142880
708.450	0.0141296
708.528	0.0140692
708.606	0.0141738
708.684	0.0139999
708.762	0.0141789
708.840	0.0144653
708.918	0.0146344
708.996	0.0147511
709.075	0.0150973
709.153	0.0152728
709.231	0.0154803
709.309	0.0156158
709.387	0.0156656
709.465	0.0154809
709.543	0.0154296
709.621	0.0151968
709.700	0.0151379
709.778	0.0147514
709.856	0.0144682
709.934	0.0141273
710.012	0.0140067
710.090	0.0138140
710.168	0.0137141
710.246	0.0136051
710.325	0.0136018
710.403	0.0136338
710.481	0.0137677
710.559	0.0138763
710.637	0.0138631
710.715	0.0140723
710.793	0.0143608
710.871	0.0144029
710.950	0.0145338
711.028	0.0149745
711.106	0.0151371
711.184	0.0152685
711.262	0.0152843
711.340	0.0153777
711.418	0.0154343
711.496	0.0154706
711.575	0.0153767
711.653	0.0151839
711.731	0.0150467
711.809	0.0150055
711.887	0.0149250
711.965	0.0145488
712.043	0.0143398
712.121	0.0140718
712.200	0.0138776
712.278	0.0137855
712.356	0.0136282
712.434	0.0134835
712.512	0.0137390
712.590	0.0139023
712.668	0.0140260
712.746	0.0141427
712.825	0.0145910
712.903	0.0149486
712.981	0.0150132
713.059	0.0154552
713.137	0.0153053
713.215	0.0154415
713.293	0.0153765
713.371	0.0153622
713.450	0.0151208
713.528	0.0148690
713.606	0.0146072
713.684	0.0145145
713.762	0.0142905
713.840	0.0143041
713.918	0.0140970
713.996	0.0140166
714.075	0.0140135
714.153	0.0141094
714.231	0.0140898
714.309	0.0141391
714.387	0.0142867
714.465	0.0144061
714.543	0.0145101
714.621	0.0144534
714.700	0.0146451
714.778	0.0146789
714.856	0.0147910
714.934	0.0149223
715.012	0.0149049
715.090	0.0148105
715.168	0.0150897
715.246	0.0149150
715.325	0.0148712
715.403	0.0148093
715.481	0.0148798
715.559	0.0148823
715.637	0.0149499
715.715	0.0148307
715.793	0.0147208
715.871	0.0146430
715.950	0.0144898
716.028	0.0142414
716.106	0.0142650
716.184	0.0141527
716.262	0.0140952
716.340	0.0141108
716.418	0.0142519
716.496	0.0142920
716.575	0.0143339
716.653	0.0147322
716.731	0.0145654
716.809	0.0145699
716.887	0.0147070
716.965	0.0148944
717.043	0.0149148
717.121	0.0148917
717.200	0.0149982
717.278	0.0149417
717.356	0.0149097
717.434	0.0148698
717.512	0.0148221
717.590	0.0148009
717.668	0.0146961
717.746	0.0146037
717.825	0.0144423
717.903	0.0143757
717.981	0.0142924
718.059	0.0141849
718.137	0.0141587
718.215	0.0141678
718.293	0.0142268
718.371	0.0140540
718.450	0.0141387
718.528	0.0141695
718.606	0.0142412
718.684	0.0142197
718.762	0.0144219
718.840	0.0144969
718.918	0.0146460
718.996	0.0145026
719.075	0.0146131
719.153	0.0147305
719.231	0.0148112
719.309	0.0147366
719.387	0.0148037
719.465	0.0148037
719.543	0.0147665
719.621	0.0148061
719.700	0.0147784
719.778	0.0148051
719.856	0.0148357
719.934	0.0147308
720.012	0.0147390
720.090	0.0147363
720.168	0.0146841
720.246	0.0145796
720.325	0.0145578
720.403	0.0144569
720.481	0.0144441
720.559	0.0143526
720.637	0.0143430
720.715	0.0143961
720.793	0.0142562
720.871	0.0143632
720.950	0.0145244
721.028	0.0145551
721.106	0.0146098
721.184	0.0146477
721.262	0.0147208
721.340	0.0147849
721.418	0.0148692
721.496	0.0149213
721.575	0.0147472
721.653	0.0146252
721.731	0.0147464
721.809	0.0145953
721.887	0.0143988
721.965	0.0143578
722.043	0.0141979
722.121	0.0141169
722.200	0.0139392
722.278	0.0138578
722.356	0.0138557
722.434	0.0136950
722.512	0.0138863
722.590	0.0139362
722.668	0.0140206
722.746	0.0142581
722.825	0.0144849
722.903	0.0146813
722.981	0.0148486
723.059	0.0149400
723.137	0.0150527
723.215	0.0151012
723.293	0.0150984
723.371	0.0150483
723.450	0.0149818
723.528	0.0149369
723.606	0.0148324
723.684	0.0148820
723.762	0.0148074
723.840	0.0146627
723.918	0.0148175
723.996	0.0147611
724.075	0.0146660
724.153	0.0146057
724.231	0.0145509
724.309	0.0144544
724.387	0.0143549
724.465	0.0142954
724.543	0.0142989
724.621	0.0143645
724.700	0.0142029
724.778	0.0141906
724.856	0.0141275
724.934	0.0140730
725.012	0.0141688
725.090	0.0141338
725.168	0.0145173
725.246	0.0145845
725.325	0.0146709
725.403	0.0146998
725.481	0.0148907
725.559	0.0148985
725.637	0.0149010
725.715	0.0149564
725.793	0.0150340
725.871	0.0148345
725.950	0.0149236
726.028	0.0147122
726.106	0.0146952
726.184	0.0146095
726.262	0.0143702
726.340	0.0143259
726.418	0.0141807
726.496	0.0141663
726.575	0.0138684
726.653	0.0138965
726.731	0.0140748
726.809	0.0141566
726.887	0.0140665
726.965	0.0142036
727.043	0.0144175
727.121	0.0143703
727.200	0.0145382
727.278	0.0146651
727.356	0.0146056
727.434	0.0146605
727.512	0.0147834
727.590	0.0146584
727.668	0.0148236
727.746	0.0150325
727.825	0.0147135
727.903	0.0146967
727.981	0.0147114
728.059	0.0148232
728.137	0.0147799
728.215	0.0147420
728.293	0.0147001
728.371	0.0146697
728.450	0.0146974
728.528	0.0146024
728.606	0.0147318
728.684	0.0145631
728.762	0.0144653
728.840	0.0143948
728.918	0.0143581
728.996	0.0142412
729.075	0.0141646
729.153	0.0141936
729.231	0.0143276
729.309	0.0142520
729.387	0.0143785
729.465	0.0144468
729.543	0.0144855
729.621	0.0143913
729.700	0.0147114
729.778	0.0146893
729.856	0.0149368
729.934	0.0151492
730.012	0.0150931
730.090	0.0151110
730.168	0.0150526
730.246	0.0152694
730.325	0.0150227
730.403	0.0150238
730.481	0.0149280
730.559	0.0149368
730.637	0.0147409
730.715	0.0144321
730.793	0.0144488
730.871	0.0144164
730.950	0.0143176
731.028	0.0142840
731.106	0.0142387
731.184	0.0140546
731.262	0.0141780
731.340	0.0143528
731.418	0.0144418
731.496	0.0144717
731.575	0.0145554
731.653	0.0147373
731.731	0.0148593
731.809	0.0146763
731.887	0.0148252
731.965	0.0148006
732.043	0.0148777
732.121	0.0148251
732.200	0.0147651
732.278	0.0148025
732.356	0.0146037
732.434	0.0145998
732.512	0.0145644
732.590	0.0145065
732.668	0.0143560
732.746	0.0143223
732.825	0.0142839
732.903	0.0143061
732.981	0.0142095
733.059	0.0143807
733.137	0.0142725
733.215	0.0144002
733.293	0.0145477
733.371	0.0145590
733.450	0.0145728
733.528	0.0146461
733.606	0.0147148
733.684	0.0148767
733.762	0.0149254
733.840	0.0148899
733.918	0.0147944
733.996	0.0147375
734.075	0.0146365
734.153	0.0146310
734.231	0.0146291
734.309	0.0147777
734.387	0.0145601
734.465	0.0145375
734.543	0.0145285
734.621	0.0145251
734.700	0.0145554
734.778	0.0147689
734.856	0.0147005
734.934	0.0146921
735.012	0.0146079
735.090	0.0147424
735.168	0.0145942
735.246	0.0146207
735.325	0.0145364
735.403	0.0145686
735.481	0.0146233
735.559	0.0146025
735.637	0.0144950
735.715	0.0144879
735.793	0.0144675
735.871	0.0146425
735.950	0.0145517
736.028	0.0144785
736.106	0.0145264
736.184	0.0145293
736.262	0.0143452
736.340	0.0144061
736.418	0.0145383
736.496	0.0143620
736.575	0.0145105
736.653	0.0144174
736.731	0.0143151
736.809	0.0144279
736.887	0.0143195
736.965	0.0142651
737.043	0.0144148
737.121	0.0144488
737.200	0.0143238
737.278	0.0143739
737.356	0.0145622
737.434	0.0146313
737.512	0.0145786
737.590	0.0147136
737.668	0.0147659
737.746	0.0147543
737.825	0.0148293
737.903	0.0148497
737.981	0.0148695
738.059	0.0150990
738.137	0.0150214
738.215	0.0147757
738.293	0.0147487
738.371	0.0146365
738.450	0.0146063
738.528	0.0144885
738.606	0.0144125
738.684	0.0144418
738.762	0.0143671
738.840	0.0142891
738.918	0.0143420
738.996	0.0144893
739.075	0.0143274
739.153	0.0144730
739.231	0.0146222
739.309	0.0143745
739.387	0.0144066
739.465	0.0146558
739.543	0.0145568
739.621	0.0144715
739.700	0.0146449
739.778	0.0146603
739.856	0.0145469
739.934	0.0145792
740.012	0.0145969
740.090	0.0144195
740.168	0.0145668
740.246	0.0144550
740.325	0.0145287
740.403	0.0143954
740.481	0.0142975
740.559	0.0142636
740.637	0.0142820
740.715	0.0144062
740.793	0.0142754
740.871	0.0143886
740.950	0.0144356
741.028	0.0143425
741.106	0.0144276
741.184	0.0144631
741.262	0.0145105
741.340	0.0146129
741.418	0.0145116
741.496	0.0145406
741.575	0.0145411
741.653	0.0145694
741.731	0.0145766
741.809	0.0147281
741.887	0.0145876
741.965	0.0147128
742.043	0.0144653
742.121	0.0146120
742.200	0.0147681
742.278	0.0146314
742.356	0.0145897
742.434	0.0146725
742.512	0.0144295
742.590	0.0144424
742.668	0.0146342
742.746	0.0146101
742.825	0.0146036
742.903	0.0144083
742.981	0.0145844
743.059	0.0146148
743.137	0.0145457
743.215	0.0144740
743.293	0.0144764
743.371	0.0143106
743.450	0.0144241
743.528	0.0144648
743.606	0.0145454
743.684	0.0144690
743.762	0.0145104
743.840	0.0144273
743.918	0.0144088
743.996	0.0143209
744.075	0.0144232
744.153	0.0145101
744.231	0.0145226
744.309	0.0146372
744.387	0.0144279
744.465	0.0144846
744.543	0.0145737
744.621	0.0145284
744.700	0.0143716
744.778	0.0143461
744.856	0.0144590
744.934	0.0145850
745.012	0.0144279
745.090	0.0143458
745.168	0.0143627
745.246	0.0144685
745.325	0.0145081
745.403	0.0146075
745.481	0.0144270
745.559	0.0145531
745.637	0.0145506
745.715	0.0145741
745.793	0.0147239
745.871	0.0147402
745.950	0.0148167
746.028	0.0147265
746.106	0.0148445
746.184	0.0148232
746.262	0.0147232
746.340	0.0146169
746.418	0.0146770
746.496	0.0147706
746.575	0.0146996
746.653	0.0147680
746.731	0.0146929
746.809	0.0146122
746.887	0.0146963
746.965	0.0146447
747.043	0.0144859
747.121	0.0147301
747.200	0.0147200
747.278	0.0146787
747.356	0.0146265
747.434	0.0145888
747.512	0.0146137
747.590	0.0146368
747.668	0.0145516
747.746	0.0145490
747.825	0.0145950
747.903	0.0145565
747.981	0.0144465
748.059	0.0145921
748.137	0.0144232
748.215	0.0144252
748.293	0.0146085
748.371	0.0144397
748.450	0.0144261
748.528	0.0145954
748.606	0.0145960
748.684	0.0145820
748.762	0.0144798
748.840	0.0143277
748.918	0.0142950
748.996	0.0142753
749.075	0.0143498
749.153	0.0142382
749.231	0.0144980
749.309	0.0144482
749.387	0.0144560
749.465	0.0143265
749.543	0.0144138
749.621	0.0144249
749.700	0.0145827
749.778	0.0146964
749.856	0.0145915
749.934	0.0145075
750.012	0.0146263
750.090	0.0146584
750.168	0.0147312
750.246	0.0146355
750.325	0.0146380
750.403	0.0147166
750.481	0.0147244
750.559	0.0147318
750.637	0.0146620
750.715	0.0147514
750.793	0.0147110
750.871	0.0146518
750.950	0.0147199
751.028	0.0147655
751.106	0.0147701
751.184	0.0147559
751.262	0.0147751
751.340	0.0148186
751.418	0.0147717
751.496	0.0146557
751.575	0.0147118
751.653	0.0146607
751.731	0.0147522
751.809	0.0146925
751.887	0.0145989
751.965	0.0146503
752.043	0.0146867
752.121	0.0145430
752.200	0.0145778
752.278	0.0146185
752.356	0.0144544
752.434	0.0145091
752.512	0.0144657
752.590	0.0145406
752.668	0.0144967
752.746	0.0144405
752.825	0.0144657
752.903	0.0144457
752.981	0.0143977
753.059	0.0143210
753.137	0.0143253
753.215	0.0145303
753.293	0.0144805
753.371	0.0145256
753.450	0.0145417
753.528	0.0145767
753.606	0.0146245
753.684	0.0146231
753.762	0.0146291
753.840	0.0147463
753.918	0.0146887
753.996	0.0147328
754.075	0.0146732
754.153	0.0145847
754.231	0.0146839
754.309	0.0146162
754.387	0.0146712
754.465	0.0146502
754.543	0.0145483
754.621	0.0146418
754.700	0.0145792
754.778	0.0146529
754.856	0.0146824
754.934	0.0145643
755.012	0.0145908
755.090	0.0145914
755.168	0.0145781
755.246	0.0146168
755.325	0.0145236
755.403	0.0145859
755.481	0.0146194
755.559	0.0146446
755.637	0.0144904
755.715	0.0145342
755.793	0.0146867
755.871	0.0145271
755.950	0.0145017
756.028	0.0146107
756.106	0.0144765
756.184	0.0143356
756.262	0.0143633
756.340	0.0146693
756.418	0.0143298
756.496	0.0142715
756.575	0.0143454
756.653	0.0145003
756.731	0.0144164
756.809	0.0144317
756.887	0.0144991
756.965	0.0143801
757.043	0.0144382
757.121	0.0145353
757.200	0.0144501
757.278	0.0144368
757.356	0.0144572
757.434	0.0144872
757.512	0.0144893
757.590	0.0144936
757.668	0.0144276
757.746	0.0144534
757.825	0.0146627
757.903	0.0145937
757.981	0.0147130
758.059	0.0145728
758.137	0.0146446
758.215	0.0146342
758.293	0.0147381
758.371	0.0147181
758.450	0.0145004
758.528	0.0147845
758.606	0.0148065
758.684	0.0147434
758.762	0.0147625
758.840	0.0147707
758.918	0.0147307
758.996	0.0147710
759.075	0.0146484
759.153	0.0145991
759.231	0.0148341
759.309	0.0146171
759.387	0.0145760
759.465	0.0145112
759.543	0.0145842
759.621	0.0144357
759.700	0.0145129
759.778	0.0145834
759.856	0.0144562
759.934	0.0145769
760.012	0.0144682
760.090	0.0144599
760.168	0.0145412
760.246	0.0145164
760.325	0.0144470
760.403	0.0144379
760.481	0.0144920
760.559	0.0145409
760.637	0.0145240
760.715	0.0144997
760.793	0.0145374
760.871	0.0144776
760.950	0.0146115
761.028	0.0144796
761.106	0.0145999
761.184	0.0145330
761.262	0.0145289
761.340	0.0144785
761.418	0.0144768
761.496	0.0145319
761.575	0.0145878
761.653	0.0145225
761.731	0.0144802
761.809	0.0145298
761.887	0.0145021
761.965	0.0144398
762.043	0.0145677
762.121	0.0146065
762.200	0.0145237
762.278	0.0145647
762.356	0.0145463
762.434	0.0145616
762.512	0.0147195
762.590	0.0147409
762.668	0.0147321
762.746	0.0146729
762.825	0.0146735
762.903	0.0146909
762.981	0.0148203
763.059	0.0147014
763.137	0.0146046
763.215	0.0145612
763.293	0.0145488
763.371	0.0146090
763.450	0.0147303
763.528	0.0146468
763.606	0.0144958
763.684	0.0144527
763.762	0.0144708
763.840	0.0145459
763.918	0.0142399
763.996	0.0144222
764.075	0.0146024
764.153	0.0144305
764.231	0.0144567
764.309	0.0144553
764.387	0.0145892
764.465	0.0144102
764.543	0.0143449
764.621	0.0143456
764.700	0.0144768
764.778	0.0145037
764.856	0.0143906
764.934	0.0143584
765.012	0.0142779
765.090	0.0145147
765.168	0.0145030
765.246	0.0145258
765.325	0.0144913
765.403	0.0144597
765.481	0.0144297
765.559	0.0144823
765.637	0.0145965
765.715	0.0145470
765.793	0.0144354
765.871	0.0146094
765.950	0.0146676
766.028	0.0146609
766.106	0.0145766
766.184	0.0148244
766.262	0.0147382
766.340	0.0147967
766.418	0.0146488
766.496	0.0147530
766.575	0.0148429
766.653	0.0147063
766.731	0.0147063
766.809	0.0147872
766.887	0.0147385
766.965	0.0146363
767.043	0.0146282
767.121	0.0147120
767.200	0.0147576
767.278	0.0147963
767.356	0.0148116
767.434	0.0146826
767.512	0.0147752
767.590	0.0147056
767.668	0.0146436
767.746	0.0147183
767.825	0.0148073
767.903	0.0146664
767.981	0.0147451
768.059	0.0148443
768.137	0.0146783
768.215	0.0146113
768.293	0.0146532
768.371	0.0145809
768.450	0.0147007
768.528	0.0145000
768.606	0.0146297
768.684	0.0145306
768.762	0.0144985
768.840	0.0146564
768.918	0.0144359
768.996	0.0144434
769.075	0.0145937
769.153	0.0145342
769.231	0.0145390
769.309	0.0145298
769.387	0.0144073
769.465	0.0145301
769.543	0.0144460
769.621	0.0144534
769.700	0.0143204
769.778	0.0145274
769.856	0.0145547
769.934	0.0144397
770.012	0.0145894
770.090	0.0145184
770.168	0.0143140
770.246	0.0145570
770.325	0.0146925
770.403	0.0146236
770.481	0.0145557
770.559	0.0144887
770.637	0.0145828
770.715	0.0145811
770.793	0.0146769
770.871	0.0146901
770.950	0.0146060
771.028	0.0145597
771.106	0.0146767
771.184	0.0146503
771.262	0.0145171
771.340	0.0146036
771.418	0.0146236
771.496	0.0145865
771.575	0.0145501
771.653	0.0145654
771.731	0.0144460
771.809	0.0144751
771.887	0.0144386
771.965	0.0144931
772.043	0.0145515
772.121	0.0144906
772.200	0.0144815
772.278	0.0143769
772.356	0.0144883
772.434	0.0143817
772.512	0.0143501
772.590	0.0145185
772.668	0.0144765
772.746	0.0143974
772.825	0.0145285
772.903	0.0145406
772.981	0.0143941
773.059	0.0145268
773.137	0.0144788
773.215	0.0145241
773.293	0.0145298
773.371	0.0145139
773.450	0.0146247
773.528	0.0145190
773.606	0.0145528
773.684	0.0146529
773.762	0.0146107
773.840	0.0145723
773.918	0.0145855
773.996	0.0146383
774.075	0.0146047
774.153	0.0145669
774.231	0.0146181
774.309	0.0146399
774.387	0.0146165
774.465	0.0146475
774.543	0.0147337
774.621	0.0146345
774.700	0.0146595
774.778	0.0146672
774.856	0.0145698
774.934	0.0147665
775.012	0.0146949
775.090	0.0146833
775.168	0.0146803
775.246	0.0146513
775.325	0.0148512
775.403	0.0144475
775.481	0.0145480
775.559	0.0145980
775.637	0.0145943
775.715	0.0145815
775.793	0.0147851
775.871	0.0147082
775.950	0.0146204
776.028	0.0146675
776.106	0.0146151
776.184	0.0145222
776.262	0.0146786
776.340	0.0144669
776.418	0.0146392
776.496	0.0146036
776.575	0.0147052
776.653	0.0144946
776.731	0.0145015
776.809	0.0145780
776.887	0.0144855
776.965	0.0144289
777.043	0.0144164
777.121	0.0146143
777.200	0.0145748
777.278	0.0145428
777.356	0.0144125
777.434	0.0145423
777.512	0.0145045
777.590	0.0145671
777.668	0.0146044
777.746	0.0145354
777.825	0.0146975
777.903	0.0146788
777.981	0.0144544
778.059	0.0146407
778.137	0.0146404
778.215	0.0145500
778.293	0.0145898
778.371	0.0147870
778.450	0.0146352
778.528	0.0148474
778.606	0.0147260
778.684	0.0146431
778.762	0.0147293
778.840	0.0147203
778.918	0.0146442
778.996	0.0148767
779.075	0.0148598
779.153	0.0147520
779.231	0.0146699
779.309	0.0146528
779.387	0.0146725
779.465	0.0146475
779.543	0.0145868
779.621	0.0145400
779.700	0.0144626
779.778	0.0144878
779.856	0.0145186
779.934	0.0145734
780.012	0.0144944
780.090	0.0144485
780.168	0.0145327
780.246	0.0144096
780.325	0.0143697
780.403	0.0145094
780.481	0.0144688
780.559	0.0145114
780.637	0.0145559
780.715	0.0145345
780.793	0.0146629
780.871	0.0145007
780.950	0.0144577
781.028	0.0144270
781.106	0.0146281
781.184	0.0143729
781.262	0.0144453
781.340	0.0143694
781.418	0.0146216
781.496	0.0143709
781.575	0.0145328
781.653	0.0145156
781.731	0.0144348
781.809	0.0145033
781.887	0.0146712
781.965	0.0145809
782.043	0.0144048
782.121	0.0145548
782.200	0.0147813
782.278	0.0145820
782.356	0.0145628
782.434	0.0144008
782.512	0.0146295
782.590	0.0145979
782.668	0.0145486
782.746	0.0146670
782.825	0.0145959
782.903	0.0145502
782.981	0.0146001
783.059	0.0146349
783.137	0.0146134
783.215	0.0146117
783.293	0.0147295
783.371	0.0147965
783.450	0.0146391
783.528	0.0145444
783.606	0.0146382
783.684	0.0146078
783.762	0.0147039
783.840	0.0145807
783.918	0.0144962
783.996	0.0146252
784.075	0.0146246
784.153	0.0146111
784.231	0.0145284
784.309	0.0145409
784.387	0.0145673
784.465	0.0145530
784.543	0.0145205
784.621	0.0146156
784.700	0.0145237
784.778	0.0143970
784.856	0.0144182
784.934	0.0145425
785.012	0.0145731
785.090	0.0144517
785.168	0.0145011
785.246	0.0144978
785.325	0.0145175
785.403	0.0145190
785.481	0.0146201
785.559	0.0145132
785.637	0.0146519
785.715	0.0144653
785.793	0.0146200
785.871	0.0145465
785.950	0.0144885
786.028	0.0145390
786.106	0.0146027
786.184	0.0145200
786.262	0.0145272
786.340	0.0146392
786.418	0.0146769
786.496	0.0147013
786.575	0.0144871
786.653	0.0146232
786.731	0.0147578
786.809	0.0146600
786.887	0.0146516
786.965	0.0145757
787.043	0.0146633
787.121	0.0146287
787.200	0.0145731
787.278	0.0145917
787.356	0.0145527
787.434	0.0145430
787.512	0.0146506
787.590	0.0146898
787.668	0.0144872
787.746	0.0145576
787.825	0.0147443
787.903	0.0147097
787.981	0.0145784
788.059	0.0147421
788.137	0.0146632
788.215	0.0147733
788.293	0.0146931
788.371	0.0146302
788.450	0.0145971
788.528	0.0147036
788.606	0.0147308
788.684	0.0146559
788.762	0.0145919
788.840	0.0146999
788.918	0.0146503
788.996	0.0146626
789.075	0.0147072
789.153	0.0145785
789.231	0.0145542
789.309	0.0145664
789.387	0.0146751
789.465	0.0145258
789.543	0.0146703
789.621	0.0146782
789.700	0.0145776
789.778	0.0146788
789.856	0.0147131
789.934	0.0147684
790.012	0.0147945
790.090	0.0146619
790.168	0.0146577
790.246	0.0147404
790.325	0.0147902
790.403	0.0146407
790.481	0.0145708
790.559	0.0146575
790.637	0.0146342
790.715	0.0146452
790.793	0.0145780
790.871	0.0146990
790.950	0.0146422
791.028	0.0146822
791.106	0.0145782
791.184	0.0145750
791.262	0.0145393
791.340	0.0146170
791.418	0.0145280
791.496	0.0145335
791.575	0.0145629
791.653	0.0144096
791.731	0.0143565
791.809	0.0144567
791.887	0.0143728
791.965	0.0144463
792.043	0.0144773
792.121	0.0145650
792.200	0.0144626
792.278	0.0144806
792.356	0.0144962
792.434	0.0142917
792.512	0.0144569
792.590	0.0146476
792.668	0.0147014
792.746	0.0145782
792.825	0.0144192
792.903	0.0144913
792.981	0.0145734
793.059	0.0145497
793.137	0.0145626
793.215	0.0145905
793.293	0.0145461
793.371	0.0145715
793.450	0.0145574
793.528	0.0146079
793.606	0.0145615
793.684	0.0145342
793.762	0.0145614
793.840	0.0144279
793.918	0.0145029
793.996	0.0145757
794.075	0.0147035
794.153	0.0145922
794.231	0.0144431
794.309	0.0145967
794.387	0.0145564
794.465	0.0146232
794.543	0.0145406
794.621	0.0144933
794.700	0.0145374
794.778	0.0145155
794.856	0.0144519
794.934	0.0144920
795.012	0.0146673
795.090	0.0145454
795.168	0.0145528
795.246	0.0145601
795.325	0.0145396
795.403	0.0145053
795.481	0.0146220
795.559	0.0145868
795.637	0.0147045
795.715	0.0146520
795.793	0.0147284
795.871	0.0147248
795.950	0.0146724
796.028	0.0146275
796.106	0.0146683
796.184	0.0145375
796.262	0.0146120
796.340	0.0145131
796.418	0.0144182
796.496	0.0144292
796.575	0.0144748
796.653	0.0144359
796.731	0.0145425
796.809	0.0144397
796.887	0.0144087
796.965	0.0144222
797.043	0.0145407
797.121	0.0143487
797.200	0.0143672
797.278	0.0144519
797.356	0.0143549
797.434	0.0145435
797.512	0.0144695
797.590	0.0144756
797.668	0.0145780
797.746	0.0145114
797.825	0.0145707
797.903	0.0146691
797.981	0.0145608
798.059	0.0144210
798.137	0.0144312
798.215	0.0146227
798.293	0.0146546
798.371	0.0145507
798.450	0.0145662
798.528	0.0145448
798.606	0.0144788
798.684	0.0144916
798.762	0.0145903
798.840	0.0145972
798.918	0.0145399
798.996	0.0145940
799.075	0.0146277
799.153	0.0145815
799.231	0.0146040
799.309	0.0144798
799.387	0.0144798
799.465	0.0145428
799.543	0.0144449
799.621	0.0146171
799.700	0.0144836
799.778	0.0145378
799.856	0.0145248
799.934	0.0143909
800.012	0.0142329
800.090	0.0143822
800.168	0.0144646
800.246	0.0144173
800.325	0.0144125
800.403	0.0144907
800.481	0.0143758
800.559	0.0144473
800.637	0.0144624
800.715	0.0144751
800.793	0.0145369
800.871	0.0144719
800.950	0.0145554
801.028	0.0145895
801.106	0.0145353
801.184	0.0146172
801.262	0.0145966
801.340	0.0146557
801.418	0.0146411
801.496	0.0145367
801.575	0.0145818
801.653	0.0146165
801.731	0.0145051
801.809	0.0146095
801.887	0.0144871
801.965	0.0144935
802.043	0.0145341
802.121	0.0145216
802.200	0.0143818
802.278	0.0146421
802.356	0.0146474
802.434	0.0146042
802.512	0.0144353
802.590	0.0146575
802.668	0.0146777
802.746	0.0145509
802.825	0.0145484
802.903	0.0146162
802.981	0.0146944
803.059	0.0147516
803.137	0.0146429
803.215	0.0146595
803.293	0.0146339
803.371	0.0144966
803.450	0.0144537
803.528	0.0145456
803.606	0.0145803
803.684	0.0146172
803.762	0.0146209
803.840	0.0145444
803.918	0.0145467
803.996	0.0145470
804.075	0.0145181
804.153	0.0145768
804.231	0.0145895
804.309	0.0144413
804.387	0.0144314
804.465	0.0146220
804.543	0.0146542
804.621	0.0144866
804.700	0.0147610
804.778	0.0146326
804.856	0.0146080
804.934	0.0146848
805.012	0.0146960
805.090	0.0145784
805.168	0.0144711
805.246	0.0146478
805.325	0.0145495
805.403	0.0144390
805.481	0.0145342
805.559	0.0146148
805.637	0.0145087
805.715	0.0145393
805.793	0.0144950
805.871	0.0144744
805.950	0.0143962
806.028	0.0144266
806.106	0.0145330
806.184	0.0144917
806.262	0.0144539
806.340	0.0143839
806.418	0.0145244
806.496	0.0143005
806.575	0.0144697
806.653	0.0143462
806.731	0.0145423
806.809	0.0145118
806.887	0.0146237
806.965	0.0146758
807.043	0.0145523
807.121	0.0146143
807.200	0.0146672
807.278	0.0146313
807.356	0.0145529
807.434	0.0147367
807.512	0.0148208
807.590	0.0145426
807.668	0.0146876
807.746	0.0147001
807.825	0.0145760
807.903	0.0146663
807.981	0.0145181
808.059	0.0148067
808.137	0.0147547
808.215	0.0146874
808.293	0.0147087
808.371	0.0145023
808.450	0.0146341
808.528	0.0146480
808.606	0.0146270
808.684	0.0144956
808.762	0.0146776
808.840	0.0146175
808.918	0.0145269
808.996	0.0145955
809.075	0.0145569
809.153	0.0146504
809.231	0.0146360
809.309	0.0145274
809.387	0.0145560
809.465	0.0146835
809.543	0.0146775
809.621	0.0146853
809.700	0.0146304
809.778	0.0145918
809.856	0.0146610
809.934	0.0147563
810.012	0.0145560
810.090	0.0147646
810.168	0.0147278
810.246	0.0145985
810.325	0.0146133
810.403	0.0146408
810.481	0.0147600
810.559	0.0147295
810.637	0.0147254
810.715	0.0145605
810.793	0.0147480
810.871	0.0146603
810.950	0.0145709
811.028	0.0146526
811.106	0.0146043
811.184	0.0145198
811.262	0.0145972
811.340	0.0145879
811.418	0.0146313
811.496	0.0146465
811.575	0.0145463
811.653	0.0145850
811.731	0.0146396
811.809	0.0145409
811.887	0.0146230
811.965	0.0146529
812.043	0.0146310
812.121	0.0145573
812.200	0.0146615
812.278	0.0147438
812.356	0.0146230
812.434	0.0145416
812.512	0.0146976
812.590	0.0146313
812.668	0.0147038
812.746	0.0146697
812.825	0.0146140
812.903	0.0147751
812.981	0.0147002
813.059	0.0145957
813.137	0.0146313
813.215	0.0145146
813.293	0.0146132
813.371	0.0145689
813.450	0.0146990
813.528	0.0146761
813.606	0.0145045
813.684	0.0144976
813.762	0.0145383
813.840	0.0145199
813.918	0.0144118
813.996	0.0145589
814.075	0.0145215
814.153	0.0145116
814.231	0.0145685
814.309	0.0145590
814.387	0.0145409
814.465	0.0145940
814.543	0.0147548
814.621	0.0145835
814.700	0.0144337
814.778	0.0145605
814.856	0.0146112
814.934	0.0145654
815.012	0.0143710
815.090	0.0146004
815.168	0.0145486
815.246	0.0145867
815.325	0.0145506
815.403	0.0146079
815.481	0.0145592
815.559	0.0145016
815.637	0.0143291
815.715	0.0143825
815.793	0.0145296
815.871	0.0144150
815.950	0.0144579
816.028	0.0146152
816.106	0.0146085
816.184	0.0144793
816.262	0.0145851
816.340	0.0145758
816.418	0.0145416
816.496	0.0144353
816.575	0.0146969
816.653	0.0147107
816.731	0.0145113
816.809	0.0146880
816.887	0.0145991
816.965	0.0145381
817.043	0.0145872
817.121	0.0145362
817.200	0.0144882
817.278	0.0145461
817.356	0.0145560
817.434	0.0145554
817.512	0.0145444
817.590	0.0146563
817.668	0.0145242
817.746	0.0144710
817.825	0.0144029
817.903	0.0145705
817.981	0.0145453
818.059	0.0145133
818.137	0.0145865
818.215	0.0145592
818.293	0.0145663
818.371	0.0145183
818.450	0.0145003
818.528	0.0144566
818.606	0.0144895
818.684	0.0144563
818.762	0.0144433
818.840	0.0144492
818.918	0.0144753
818.996	0.0144370
819.075	0.0146720
819.153	0.0146557
819.231	0.0143897
819.309	0.0146700
819.387	0.0145502
819.465	0.0146109
819.543	0.0147848
819.621	0.0146757
819.700	0.0146700
819.778	0.0146149
819.856	0.0145569
819.934	0.0147119
820.012	0.0146494
820.090	0.0146436
820.168	0.0145362
820.246	0.0146311
820.325	0.0146157
820.403	0.0144253
820.481	0.0146281
820.559	0.0145671
820.637	0.0145098
820.715	0.0144571
820.793	0.0145326
820.871	0.0143050
820.950	0.0144804
821.028	0.0145010
821.106	0.0142944
821.184	0.0143835
821.262	0.0144252
821.340	0.0144971
821.418	0.0145306
821.496	0.0144190
821.575	0.0144860
821.653	0.0146106
821.731	0.0145737
821.809	0.0146077
821.887	0.0145497
821.965	0.0145082
822.043	0.0145077
822.121	0.0146593
822.200	0.0145874
822.278	0.0146004
822.356	0.0145139
822.434	0.0145933
822.512	0.0146336
822.590	0.0144879
822.668	0.0146204
822.746	0.0145649
822.825	0.0143525
822.903	0.0145287
822.981	0.0145798
823.059	0.0144940
823.137	0.0144903
823.215	0.0145486
823.293	0.0145995
823.371	0.0146092
823.450	0.0145316
823.528	0.0146341
823.606	0.0145456
823.684	0.0145332
823.762	0.0146105
823.840	0.0144965
823.918	0.0145605
823.996	0.0146061
824.075	0.0145291
824.153	0.0145428
824.231	0.0146088
824.309	0.0145930
824.387	0.0146693
824.465	0.0145069
824.543	0.0146141
824.621	0.0146501
824.700	0.0145938
824.778	0.0146098
824.856	0.0145896
824.934	0.0146742
825.012	0.0146280
825.090	0.0147552
825.168	0.0145960
825.246	0.0146516
825.325	0.0146368
825.403	0.0146604
825.481	0.0145781
825.559	0.0146515
825.637	0.0145562
825.715	0.0144920
825.793	0.0144418
825.871	0.0144994
825.950	0.0144777
826.028	0.0144073
826.106	0.0145777
826.184	0.0144774
826.262	0.0144475
826.340	0.0145301
826.418	0.0146173
826.496	0.0145345
826.575	0.0145585
826.653	0.0144775
826.731	0.0145510
826.809	0.0144683
826.887	0.0144526
826.965	0.0144236
827.043	0.0145950
827.121	0.0144965
827.200	0.0145270
827.278	0.0144491
827.356	0.0143978
827.434	0.0145271
827.512	0.0146508
827.590	0.0145998
827.668	0.0145445
827.746	0.0146362
827.825	0.0146291
827.903	0.0147713
827.981	0.0146403
828.059	0.0146264
828.137	0.0148476
828.215	0.0145547
828.293	0.0146002
828.371	0.0147091
828.450	0.0146511
828.528	0.0145506
828.606	0.0145106
828.684	0.0144533
828.762	0.0145869
828.840	0.0144254
828.918	0.0144011
828.996	0.0145543
829.075	0.0145000
829.153	0.0145522
829.231	0.0146023
829.309	0.0145722
829.387	0.0144395
829.465	0.0145572
829.543	0.0146312
829.621	0.0145620
829.700	0.0145482
829.778	0.0144484
829.856	0.0143749
829.934	0.0144244
830.012	0.0146274
830.090	0.0145048
830.168	0.0146026
830.246	0.0145640
830.325	0.0146243
830.403	0.0146634
830.481	0.0145402
830.559	0.0145625
830.637	0.0145320
830.715	0.0145686
830.793	0.0145201
830.871	0.0146508
830.950	0.0146811
831.028	0.0145647
831.106	0.0144872
831.184	0.0145759
831.262	0.0146951
831.340	0.0145756
831.418	0.0145005
831.496	0.0146089
831.575	0.0145476
831.653	0.0143935
831.731	0.0146144
831.809	0.0144759
831.887	0.0145821
831.965	0.0144482
832.043	0.0145666
832.121	0.0146455
832.200	0.0144609
832.278	0.0145519
832.356	0.0144492
832.434	0.0145600
832.512	0.0146302
832.590	0.0145834
832.668	0.0146687
832.746	0.0146389
832.825	0.0145362
832.903	0.0145135
832.981	0.0143667
833.059	0.0144552
833.137	0.0145380
833.215	0.0145377
833.293	0.0147068
833.371	0.0145148
833.450	0.0144643
833.528	0.0146542
833.606	0.0144898
833.684	0.0146912
833.762	0.0146473
833.840	0.0145922
833.918	0.0146199
833.996	0.0146967
834.075	0.0147028
834.153	0.0146935
834.231	0.0146099
834.309	0.0146844
834.387	0.0145161
834.465	0.0145598
834.543	0.0145592
834.621	0.0147971
834.700	0.0147276
834.778	0.0146308
834.856	0.0146696
834.934	0.0146267
835.012	0.0147084
835.090	0.0147691
835.168	0.0147610
835.246	0.0146742
835.325	0.0146436
835.403	0.0145879
835.481	0.0144681
835.559	0.0146046
835.637	0.0145131
835.715	0.0145314
835.793	0.0145635
835.871	0.0145832
835.950	0.0145609
836.028	0.0146014
836.106	0.0145020
836.184	0.0144734
836.262	0.0145663
836.340	0.0146698
836.418	0.0146190
836.496	0.0146716
836.575	0.0146949
836.653	0.0145669
836.731	0.0145827
836.809	0.0146966
836.887	0.0145952
836.965	0.0145711
837.043	0.0145639
837.121	0.0145578
837.200	0.0146716
837.278	0.0146027
837.356	0.0145851
837.434	0.0143496
837.512	0.0144477
837.590	0.0145570
837.668	0.0145702
837.746	0.0145089
837.825	0.0145512
837.903	0.0145853
837.981	0.0145067
838.059	0.0145551
838.137	0.0146262
838.215	0.0146992
838.293	0.0145811
838.371	0.0145277
838.450	0.0145729
838.528	0.0146422
838.606	0.0144365
838.684	0.0145029
838.762	0.0144289
838.840	0.0144500
838.918	0.0145042
838.996	0.0143436
839.075	0.0145435
839.153	0.0147243
839.231	0.0145612
839.309	0.0144681
839.387	0.0143939
839.465	0.0145223
839.543	0.0146175
839.621	0.0144522
839.700	0.0146290
839.778	0.0145805
839.856	0.0145462
839.934	0.0145445
840.012	0.0145708
840.090	0.0145586
840.168	0.0146190
840.246	0.0145538
840.325	0.0145392
840.403	0.0145487
840.481	0.0146066
840.559	0.0144880
840.637	0.0144942
840.715	0.0145158
840.793	0.0144418
840.871	0.0144929
840.950	0.0145377
841.028	0.0143913
841.106	0.0145445
841.184	0.0145562
841.262	0.0144029
841.340	0.0145168
841.418	0.0144749
841.496	0.0145057
841.575	0.0145197
841.653	0.0145975
841.731	0.0144976
841.809	0.0144694
841.887	0.0145373
841.965	0.0146113
842.043	0.0146145
842.121	0.0144701
842.200	0.0146421
842.278	0.0146405
842.356	0.0146916
842.434	0.0146174
842.512	0.0145785
842.590	0.0146568
842.668	0.0145429
842.746	0.0146658
842.825	0.0146793
842.903	0.0146001
842.981	0.0147034
843.059	0.0146106
843.137	0.0145518
843.215	0.0145516
843.293	0.0146484
843.371	0.0145382
843.450	0.0146022
843.528	0.0145621
843.606	0.0145913
843.684	0.0145094
843.762	0.0145250
843.840	0.0146400
843.918	0.0146599
843.996	0.0145109
844.075	0.0145555
844.153	0.0144753
844.231	0.0146333
844.309	0.0146531
844.387	0.0146104
844.465	0.0146030
844.543	0.0145231
844.621	0.0147195
844.700	0.0146792
844.778	0.0145473
844.856	0.0145391
844.934	0.0145287
845.012	0.0146452
845.090	0.0145654
845.168	0.0145908
845.246	0.0145508
845.325	0.0145226
845.403	0.0145348
845.481	0.0146716
845.559	0.0145991
845.637	0.0146221
845.715	0.0145683
845.793	0.0145007
845.871	0.0144419
845.950	0.0146795
846.028	0.0146246
846.106	0.0145142
846.184	0.0145312
846.262	0.0146909
846.340	0.0145534
846.418	0.0145747
846.496	0.0144681
846.575	0.0146966
846.653	0.0146352
846.731	0.0144505
846.809	0.0145560
846.887	0.0145330
846.965	0.0146305
847.043	0.0146947
847.121	0.0146297
847.200	0.0146533
847.278	0.0146519
847.356	0.0145141
847.434	0.0145271
847.512	0.0146008
847.590	0.0146191
847.668	0.0145895
847.746	0.0145984
847.825	0.0146381
847.903	0.0144409
847.981	0.0145387
848.059	0.0145071
848.137	0.0145583
848.215	0.0145219
848.293	0.0144547
848.371	0.0144823
848.450	0.0145515
848.528	0.0144824
848.606	0.0144122
848.684	0.0144823
848.762	0.0144748
848.840	0.0144896
848.918	0.0144451
848.996	0.0144795
849.075	0.0144289
849.153	0.0145022
849.231	0.0146054
849.309	0.0144890
849.387	0.0145025
849.465	0.0147443
849.543	0.0147032
849.621	0.0144632
849.700	0.0144541
849.778	0.0146830
849.856	0.0145351
849.934	0.0145162
850.012	0.0146177
850.090	0.0146404
850.168	0.0146430
850.246	0.0146474
850.325	0.0147445
850.403	0.0145737
850.481	0.0146317
850.559	0.0146587
850.637	0.0145650
850.715	0.0145422
850.793	0.0146086
850.871	0.0146618
850.950	0.0145931
851.028	0.0145893
851.106	0.0148391
851.184	0.0146148
851.262	0.0146343
851.340	0.0146996
851.418	0.0145555
851.496	0.0146046
851.575	0.0145678
851.653	0.0147556
851.731	0.0147253
851.809	0.0146838
851.887	0.0147123
851.965	0.0147417
852.043	0.0146376
852.121	0.0146178
852.200	0.0146143
852.278	0.0146323
852.356	0.0146284
852.434	0.0147052
852.512	0.0146631
852.590	0.0144997
852.668	0.0147028
852.746	0.0145339
852.825	0.0146585
852.903	0.0146134
852.981	0.0145161
853.059	0.0144594
853.137	0.0144525
853.215	0.0143797
853.293	0.0145898
853.371	0.0145904
853.450	0.0144396
853.528	0.0144141
853.606	0.0145393
853.684	0.0146354
853.762	0.0146808
853.840	0.0145973
853.918	0.0145793
853.996	0.0147073
854.075	0.0146538
854.153	0.0146496
854.231	0.0147401
854.309	0.0146011
854.387	0.0146298
854.465	0.0146780
854.543	0.0146593
854.621	0.0146942
854.700	0.0146081
854.778	0.0145954
854.856	0.0146694
854.934	0.0146418
855.012	0.0145815
855.090	0.0145721
855.168	0.0146687
855.246	0.0146939
855.325	0.0144997
855.403	0.0145579
855.481	0.0147083
855.559	0.0146302
855.637	0.0145319
855.715	0.0146533
855.793	0.0146625
855.871	0.0145640
855.950	0.0145292
856.028	0.0147169
856.106	0.0147346
856.184	0.0146770
856.262	0.0146149
856.340	0.0146502
856.418	0.0147564
856.496	0.0146451
856.575	0.0146798
856.653	0.0145507
856.731	0.0146975
856.809	0.0146050
856.887	0.0146687
856.965	0.0147125
857.043	0.0146830
857.121	0.0146809
857.200	0.0146660
857.278	0.0145053
857.356	0.0146505
857.434	0.0146471
857.512	0.0147240
857.590	0.0147112
857.668	0.0146196
857.746	0.0146407
857.825	0.0146495
857.903	0.0146600
857.981	0.0146799
858.059	0.0146030
858.137	0.0146120
858.215	0.0146991
858.293	0.0146949
858.371	0.0146679
858.450	0.0145264
858.528	0.0146246
858.606	0.0146289
858.684	0.0146506
858.762	0.0146166
858.840	0.0146908
858.918	0.0146102
858.996	0.0146041
859.075	0.0146884
859.153	0.0146584
859.231	0.0146084
859.309	0.0145580
859.387	0.0144507
859.465	0.0145985
859.543	0.0144643
859.621	0.0145262
859.700	0.0145011
859.778	0.0146317
859.856	0.0146231
859.934	0.0145440
860.012	0.0144614
860.090	0.0145362
860.168	0.0145893
860.246	0.0144991
860.325	0.0145448
860.403	0.0144859
860.481	0.0145382
860.559	0.0145326
860.637	0.0144874
860.715	0.0144957
860.793	0.0143639
860.871	0.0144332
860.950	0.0144585
861.028	0.0144292
861.106	0.0144951
861.184	0.0145544
861.262	0.0145413
861.340	0.0145052
861.418	0.0144362
861.496	0.0145757
861.575	0.0146017
861.653	0.0144640
861.731	0.0145218
861.809	0.0144717
861.887	0.0145148
861.965	0.0144637
862.043	0.0145625
862.121	0.0145628
862.200	0.0143890
862.278	0.0144931
862.356	0.0143922
862.434	0.0145319
862.512	0.0144877
862.590	0.0144559
862.668	0.0143533
862.746	0.0144288
862.825	0.0144970
862.903	0.0145403
862.981	0.0144189
863.059	0.0144967
863.137	0.0144996
863.215	0.0143284
863.293	0.0145065
863.371	0.0145749
863.450	0.0144950
863.528	0.0145167
863.606	0.0147551
863.684	0.0145324
863.762	0.0146243
863.840	0.0145007
863.918	0.0145785
863.996	0.0146365
864.075	0.0145963
864.153	0.0145424
864.231	0.0144624
864.309	0.0146288
864.387	0.0144386
864.465	0.0144120
864.543	0.0145721
864.621	0.0145836
864.700	0.0143916
864.778	0.0143346
864.856	0.0145187
864.934	0.0146267
865.012	0.0143392
865.090	0.0145472
865.168	0.0145947
865.246	0.0144019
865.325	0.0143834
865.403	0.0146067
865.481	0.0144496
865.559	0.0143542
865.637	0.0145909
865.715	0.0145950
865.793	0.0145305
865.871	0.0145856
865.950	0.0146937
866.028	0.0146135
866.106	0.0147656
866.184	0.0147009
866.262	0.0148420
866.340	0.0146469
866.418	0.0146519
866.496	0.0146635
866.575	0.0146177
866.653	0.0146445
866.731	0.0147018
866.809	0.0145705
866.887	0.0145687
866.965	0.0145874
867.043	0.0145251
867.121	0.0145290
867.200	0.0145820
867.278	0.0146761
867.356	0.0144530
867.434	0.0145711
867.512	0.0145608
867.590	0.0145660
867.668	0.0144899
867.746	0.0145644
867.825	0.0146261
867.903	0.0145477
867.981	0.0144032
868.059	0.0145804
868.137	0.0146552
868.215	0.0146135
868.293	0.0147151
868.371	0.0146035
868.450	0.0147336
868.528	0.0147071
868.606	0.0147350
868.684	0.0146490
868.762	0.0146906
868.840	0.0146130
868.918	0.0145484
868.996	0.0146986
869.075	0.0145621
869.153	0.0146540
869.231	0.0146573
869.309	0.0147028
869.387	0.0145972
869.465	0.0146787
869.543	0.0146828
869.621	0.0145817
869.700	0.0146629
869.778	0.0144660
869.856	0.0145549
869.934	0.0145100
870.012	0.0144910
870.090	0.0145869
870.168	0.0144810
870.246	0.0145255
870.325	0.0146802
870.403	0.0145879
870.481	0.0145496
870.559	0.0145473
870.637	0.0144450
870.715	0.0145183
870.793	0.0146436
870.871	0.0145255
870.950	0.0145068
871.028	0.0144676
871.106	0.0144393
871.184	0.0145581
871.262	0.0144068
871.340	0.0144675
871.418	0.0145763
871.496	0.0146384
871.575	0.0143855
871.653	0.0144773
871.731	0.0145751
871.809	0.0144894
871.887	0.0145578
871.965	0.0145739
872.043	0.0144470
872.121	0.0145171
872.200	0.0145242
872.278	0.0146165
872.356	0.0146888
872.434	0.0147359
872.512	0.0146416
872.590	0.0146336
872.668	0.0145982
872.746	0.0146370
872.825	0.0146985
872.903	0.0146053
872.981	0.0146923
873.059	0.0145026
873.137	0.0145879
873.215	0.0144315
873.293	0.0144122
873.371	0.0145371
873.450	0.0145436
873.528	0.0144935
873.606	0.0145727
873.684	0.0145250
873.762	0.0145758
873.840	0.0144084
873.918	0.0144838
873.996	0.0146514
874.075	0.0144691
874.153	0.0145856
874.231	0.0144753
874.309	0.0145060
874.387	0.0146040
874.465	0.0145701
874.543	0.0144881
874.621	0.0144038
874.700	0.0145504
874.778	0.0145086
874.856	0.0145392
874.934	0.0145177
875.012	0.0144953
875.090	0.0144799
875.168	0.0146066
875.246	0.0146027
875.325	0.0145184
875.403	0.0146134
875.481	0.0144637
875.559	0.0147417
875.637	0.0146426
875.715	0.0146144
875.793	0.0145817
875.871	0.0146384
875.950	0.0146880
876.028	0.0145969
876.106	0.0145965
876.184	0.0145468
876.262	0.0144561
876.340	0.0145244
876.418	0.0145972
876.496	0.0145258
876.575	0.0144707
876.653	0.0144644
876.731	0.0144827
876.809	0.0145475
876.887	0.0145609
876.965	0.0145065
877.043	0.0144601
877.121	0.0145448
877.200	0.0145872
877.278	0.0146498
877.356	0.0146244
877.434	0.0145688
877.512	0.0146084
877.590	0.0146046
877.668	0.0144849
877.746	0.0146128
877.825	0.0145434
877.903	0.0146076
877.981	0.0146853
878.059	0.0144863
878.137	0.0145944
878.215	0.0147002
878.293	0.0146979
878.371	0.0144858
878.450	0.0146335
878.528	0.0145907
878.606	0.0146689
878.684	0.0144934
878.762	0.0145200
878.840	0.0146603
878.918	0.0146425
878.996	0.0145917
879.075	0.0146801
879.153	0.0145689
879.231	0.0146459
879.309	0.0145498
879.387	0.0146401
879.465	0.0146268
879.543	0.0144936
879.621	0.0144675
879.700	0.0144846
879.778	0.0145537
879.856	0.0146479
879.934	0.0146150
880.012	0.0144489
880.090	0.0145067
880.168	0.0145168
880.246	0.0145465
880.325	0.0145615
880.403	0.0145238
880.481	0.0145780
880.559	0.0145326
880.637	0.0145546
880.715	0.0145626
880.793	0.0145146
880.871	0.0145632
880.950	0.0146554
881.028	0.0146631
881.106	0.0145677
881.184	0.0145781
881.262	0.0145886
881.340	0.0144817
881.418	0.0144458
881.496	0.0145406
881.575	0.0146170
881.653	0.0146542
881.731	0.0146851
881.809	0.0145354
881.887	0.0145555
881.965	0.0144572
882.043	0.0146041
882.121	0.0145665
882.200	0.0144868
882.278	0.0144940
882.356	0.0144842
882.434	0.0145226
882.512	0.0146600
882.590	0.0146873
882.668	0.0145355
882.746	0.0144849
882.825	0.0145431
882.903	0.0144524
882.981	0.0146426
883.059	0.0147688
883.137	0.0145661
883.215	0.0146270
883.293	0.0145164
883.371	0.0145587
883.450	0.0147034
883.528	0.0145885
883.606	0.0146483
883.684	0.0146989
883.762	0.0144917
883.840	0.0146009
883.918	0.0145972
883.996	0.0144343
884.075	0.0144258
884.153	0.0145173
884.231	0.0145354
884.309	0.0145543
884.387	0.0145037
884.465	0.0145065
884.543	0.0145657
884.621	0.0145929
884.700	0.0143972
884.778	0.0145298
884.856	0.0147185
884.934	0.0145153
885.012	0.0144813
885.090	0.0145976
885.168	0.0144155
885.246	0.0143980
885.325	0.0145634
885.403	0.0145633
885.481	0.0143956
885.559	0.0144779
885.637	0.0144617
885.715	0.0145957
885.793	0.0145312
885.871	0.0143050
885.950	0.0144096
886.028	0.0144022
886.106	0.0144868
886.184	0.0145745
886.262	0.0145323
886.340	0.0145069
886.418	0.0145823
886.496	0.0146083
886.575	0.0146724
886.653	0.0146220
886.731	0.0146417
886.809	0.0145562
886.887	0.0147331
886.965	0.0146088
887.043	0.0145713
887.121	0.0145013
887.200	0.0145532
887.278	0.0145597
887.356	0.0146309
887.434	0.0146109
887.512	0.0144711
887.590	0.0145730
887.668	0.0146428
887.746	0.0145411
887.825	0.0147068
887.903	0.0146972
887.981	0.0145181
888.059	0.0146325
888.137	0.0146429
888.215	0.0147116
888.293	0.0146912
888.371	0.0147191
888.450	0.0146710
888.528	0.0145832
888.606	0.0146691
888.684	0.0146523
888.762	0.0145774
888.840	0.0145383
888.918	0.0145441
888.996	0.0145604
889.075	0.0146311
889.153	0.0146553
889.231	0.0146088
889.309	0.0147454
889.387	0.0146608
889.465	0.0148357
889.543	0.0146630
889.621	0.0147310
889.700	0.0146910
889.778	0.0147253
889.856	0.0145863
889.934	0.0146982
890.012	0.0145815
890.090	0.0145188
890.168	0.0146374
890.246	0.0146062
890.325	0.0145520
890.403	0.0146050
890.481	0.0144707
890.559	0.0146666
890.637	0.0146626
890.715	0.0148298
890.793	0.0147210
890.871	0.0144595
890.950	0.0145631
891.028	0.0146901
891.106	0.0146964
891.184	0.0146968
891.262	0.0146489
891.340	0.0146552
891.418	0.0146100
891.496	0.0146445
891.575	0.0147189
891.653	0.0144604
891.731	0.0143636
891.809	0.0143983
891.887	0.0144847
891.965	0.0144981
892.043	0.0144529
892.121	0.0145375
892.200	0.0145403
892.278	0.0143807
892.356	0.0145213
892.434	0.0145958
892.512	0.0145292
892.590	0.0145963
892.668	0.0146430
892.746	0.0147043
892.825	0.0147200
892.903	0.0146611
892.981	0.0146077
893.059	0.0146858
893.137	0.0145618
893.215	0.0145194
893.293	0.0144949
893.371	0.0144637
893.450	0.0143162
893.528	0.0143555
893.606	0.0143128
893.684	0.0144625
893.762	0.0144350
893.840	0.0145502
893.918	0.0145664
893.996	0.0144408
894.075	0.0146024
894.153	0.0145776
894.231	0.0144810
894.309	0.0146290
894.387	0.0145634
894.465	0.0143492
894.543	0.0146171
894.621	0.0145821
894.700	0.0144781
894.778	0.0145808
894.856	0.0145267
894.934	0.0145795
895.012	0.0146091
895.090	0.0144690
895.168	0.0145222
895.246	0.0143592
895.325	0.0144407
895.403	0.0144394
895.481	0.0146007
895.559	0.0146314
895.637	0.0144756
895.715	0.0146142
895.793	0.0145592
895.871	0.0146834
895.950	0.0146468
896.028	0.0147468
896.106	0.0146429
896.184	0.0147060
896.262	0.0145520
896.340	0.0145712
896.418	0.0145699
896.496	0.0145887
896.575	0.0144836
896.653	0.0144666
896.731	0.0145033
896.809	0.0145193
896.887	0.0144975
896.965	0.0143262
897.043	0.0144218
897.121	0.0143619
897.200	0.0143466
897.278	0.0144101
897.356	0.0144610
897.434	0.0146325
897.512	0.0143736
897.590	0.0145190
897.668	0.0145240
897.746	0.0145264
897.825	0.0145371
897.903	0.0146693
897.981	0.0144340
898.059	0.0144154
898.137	0.0144762
898.215	0.0145171
898.293	0.0145522
898.371	0.0145625
898.450	0.0144788
898.528	0.0144136
898.606	0.0145959
898.684	0.0146046
898.762	0.0144214
898.840	0.0143835
898.918	0.0145228
898.996	0.0145221
899.075	0.0144736
899.153	0.0143237
899.231	0.0144772
899.309	0.0144197
899.387	0.0143959
899.465	0.0145364
899.543	0.0145558
899.621	0.0143395
899.700	0.0143728
899.778	0.0144293
899.856	0.0143833
899.934	0.0143996
900.012	0.0144758
900.090	0.0144836
900.168	0.0143806
900.246	0.0142659
900.325	0.0142949
900.403	0.0144142
900.481	0.0143215
900.559	0.0143798
900.637	0.0144948
900.715	0.0144640
900.793	0.0144122
900.871	0.0144104
900.950	0.0144212
901.028	0.0145515
901.106	0.0145208
901.184	0.0144724
901.262	0.0144678
901.340	0.0144027
901.418	0.0144473
901.496	0.0144315
901.575	0.0143785
901.653	0.0144369
901.731	0.0143150
901.809	0.0143896
901.887	0.0144338
901.965	0.0145006
902.043	0.0143862
902.121	0.0145612
902.200	0.0143973
902.278	0.0144157
902.356	0.0144685
902.434	0.0146027
902.512	0.0146549
902.590	0.0145963
902.668	0.0145824
902.746	0.0144596
902.825	0.0144891
902.903	0.0146617
902.981	0.0145051
903.059	0.0144992
903.137	0.0147130
903.215	0.0146232
903.293	0.0146206
903.371	0.0146548
903.450	0.0145194
903.528	0.0146584
903.606	0.0145888
903.684	0.0143896
903.762	0.0144516
903.840	0.0145199
903.918	0.0145354
903.996	0.0146278
904.075	0.0144647
904.153	0.0145294
904.231	0.0147775
904.309	0.0144875
904.387	0.0144141
904.465	0.0146037
904.543	0.0147358
904.621	0.0146650
904.700	0.0147321
904.778	0.0146004
904.856	0.0146849
904.934	0.0146169
905.012	0.0146329
905.090	0.0145963
905.168	0.0145537
905.246	0.0145549
905.325	0.0146445
905.403	0.0146080
905.481	0.0144662
905.559	0.0145826
905.637	0.0145865
905.715	0.0143317
905.793	0.0144151
905.871	0.0145187
905.950	0.0145903
906.028	0.0144901
906.106	0.0144550
906.184	0.0144495
906.262	0.0146134
906.340	0.0147078
906.418	0.0145956
906.496	0.0146836
906.575	0.0146597
906.653	0.0147153
906.731	0.0146854
906.809	0.0147398
906.887	0.0146612
906.965	0.0147403
907.043	0.0148212
907.121	0.0147424
907.200	0.0145730
907.278	0.0147533
907.356	0.0146350
907.434	0.0146536
907.512	0.0146331
907.590	0.0146745
907.668	0.0146711
907.746	0.0145412
907.825	0.0145398
907.903	0.0144926
907.981	0.0146141
908.059	0.0144936
908.137	0.0144739
908.215	0.0144933
908.293	0.0146508
908.371	0.0146283
908.450	0.0145210
908.528	0.0146254
908.606	0.0146004
908.684	0.0146151
908.762	0.0146600
908.840	0.0145843
908.918	0.0145330
908.996	0.0146488
909.075	0.0147183
909.153	0.0145589
909.231	0.0145953
909.309	0.0145582
909.387	0.0144532
909.465	0.0145309
909.543	0.0144791
909.621	0.0144801
909.700	0.0145782
909.778	0.0145906
909.856	0.0144524
909.934	0.0145765
910.012	0.0144693
910.090	0.0146649
910.168	0.0145558
910.246	0.0144567
910.325	0.0145589
910.403	0.0144936
910.481	0.0145167
910.559	0.0144198
910.637	0.0144463
910.715	0.0144311
910.793	0.0145916
910.871	0.0145496
910.950	0.0147280
911.028	0.0146463
911.106	0.0146104
911.184	0.0144888
911.262	0.0145645
911.340	0.0144897
911.418	0.0146595
911.496	0.0146129
911.575	0.0145626
911.653	0.0145554
911.731	0.0145372
911.809	0.0145285
911.887	0.0145037
911.965	0.0145158
912.043	0.0144894
912.121	0.0143553
912.200	0.0146513
912.278	0.0146223
912.356	0.0144791
912.434	0.0145918
912.512	0.0145022
912.590	0.0145464
912.668	0.0145956
912.746	0.0144953
912.825	0.0145514
912.903	0.0146731
912.981	0.0145249
913.059	0.0146144
913.137	0.0146633
913.215	0.0146967
913.293	0.0146888
913.371	0.0145428
913.450	0.0146532
913.528	0.0144510
913.606	0.0145680
913.684	0.0146371
913.762	0.0145094
913.840	0.0146741
913.918	0.0146253
913.996	0.0144848
914.075	0.0145645
914.153	0.0145779
914.231	0.0146338
914.309	0.0147693
914.387	0.0145801
914.465	0.0145476
914.543	0.0147163
914.621	0.0146393
914.700	0.0147877
914.778	0.0147194
914.856	0.0146956
914.934	0.0147343
915.012	0.0145419
915.090	0.0146081
915.168	0.0147401
915.246	0.0146075
915.325	0.0145490
915.403	0.0145011
915.481	0.0145171
915.559	0.0146002
915.637	0.0145606
915.715	0.0145172
915.793	0.0147207
915.871	0.0147047
915.950	0.0145258
916.028	0.0144393
916.106	0.0146101
916.184	0.0146240
916.262	0.0145145
916.340	0.0144918
916.418	0.0144479
916.496	0.0144466
916.575	0.0144799
916.653	0.0145918
916.731	0.0146349
916.809	0.0146146
916.887	0.0146332
916.965	0.0144728
917.043	0.0145993
917.121	0.0146198
917.200	0.0145599
917.278	0.0144631
917.356	0.0146449
917.434	0.0144685
917.512	0.0144131
917.590	0.0144155
917.668	0.0145644
917.746	0.0145560
917.825	0.0145333
917.903	0.0144293
917.981	0.0144698
918.059	0.0143915
918.137	0.0143993
918.215	0.0144347
918.293	0.0144688
918.371	0.0143916
918.450	0.0144596
918.528	0.0146342
918.606	0.0145813
918.684	0.0144591
918.762	0.0145577
918.840	0.0144609
918.918	0.0145332
918.996	0.0145248
919.075	0.0146288
919.153	0.0145589
919.231	0.0146188
919.309	0.0145415
919.387	0.0146095
919.465	0.0144875
919.543	0.0146471
919.621	0.0147377
919.700	0.0145765
919.778	0.0144890
919.856	0.0145325
919.934	0.0146395
920.012	0.0145265
920.090	0.0145547
920.168	0.0144557
920.246	0.0145572
920.325	0.0145684
920.403	0.0146624
920.481	0.0145039
920.559	0.0144410
920.637	0.0145361
920.715	0.0144880
920.793	0.0144778
920.871	0.0145304
920.950	0.0145004
921.028	0.0145176
921.106	0.0145023
921.184	0.0145664
921.262	0.0145968
921.340	0.0145045
921.418	0.0145882
921.496	0.0147147
921.575	0.0145898
921.653	0.0145473
921.731	0.0146191
921.809	0.0145611
921.887	0.0145292
921.965	0.0146049
922.043	0.0145674
922.121	0.0143844
922.200	0.0144469
922.278	0.0144861
922.356	0.0143393
922.434	0.0143681
922.512	0.0144233
922.590	0.0143784
922.668	0.0143974
922.746	0.0143203
922.825	0.0142990
922.903	0.0145226
922.981	0.0143966
923.059	0.0143191
923.137	0.0142902
923.215	0.0144341
923.293	0.0143125
923.371	0.0145921
923.450	0.0145005
923.528	0.0145562
923.606	0.0146798
923.684	0.0145670
923.762	0.0142567
923.840	0.0144411
923.918	0.0146307
923.996	0.0144424
924.075	0.0144643
924.153	0.0144035
924.231	0.0144964
924.309	0.0142752
924.387	0.0143650
924.465	0.0144602
924.543	0.0144587
924.621	0.0144771
924.700	0.0143097
924.778	0.0142617
924.856	0.0143767
924.934	0.0144570
925.012	0.0144189
925.090	0.0143438
925.168	0.0143956
925.246	0.0145635
925.325	0.0144762
925.403	0.0143073
925.481	0.0144272
925.559	0.0145103
925.637	0.0145766
925.715	0.0144440
925.793	0.0142712
925.871	0.0144334
925.950	0.0144935
926.028	0.0144572
926.106	0.0143595
926.184	0.0146078
926.262	0.0145450
926.340	0.0143351
926.418	0.0144228
926.496	0.0145963
926.575	0.0145670
926.653	0.0145164
926.731	0.0145275
926.809	0.0146159
926.887	0.0145188
926.965	0.0146001
927.043	0.0145498
927.121	0.0145921
927.200	0.0145343
927.278	0.0144280
927.356	0.0144877
927.434	0.0145380
927.512	0.0144574
927.590	0.0145081
927.668	0.0145982
927.746	0.0145052
927.825	0.0144251
927.903	0.0146278
927.981	0.0145715
928.059	0.0145605
928.137	0.0145520
928.215	0.0145759
928.293	0.0144672
928.371	0.0144074
928.450	0.0146464
928.528	0.0146152
928.606	0.0144569
928.684	0.0145377
928.762	0.0144979
928.840	0.0145525
928.918	0.0145058
928.996	0.0145428
929.075	0.0145954
929.153	0.0146114
929.231	0.0144115
929.309	0.0145905
929.387	0.0145222
929.465	0.0145635
929.543	0.0145441
929.621	0.0145737
929.700	0.0146265
929.778	0.0145103
929.856	0.0145403
929.934	0.0145673
930.012	0.0145677
930.090	0.0146456
930.168	0.0145671
930.246	0.0145568
930.325	0.0144334
930.403	0.0144209
930.481	0.0144414
930.559	0.0145387
930.637	0.0146918
930.715	0.0145412
930.793	0.0146130
930.871	0.0145345
930.950	0.0146619
931.028	0.0146236
931.106	0.0146561
931.184	0.0146146
931.262	0.0146303
931.340	0.0146630
931.418	0.0145811
931.496	0.0147687
931.575	0.0146616
931.653	0.0145999
931.731	0.0146091
931.809	0.0145258
931.887	0.0146360
931.965	0.0145189
932.043	0.0144813
932.121	0.0145779
932.200	0.0146538
932.278	0.0145703
932.356	0.0145202
932.434	0.0146879
932.512	0.0146429
932.590	0.0144802
932.668	0.0146621
932.746	0.0145799
932.825	0.0146293
932.903	0.0146387
932.981	0.0144516
933.059	0.0147305
933.137	0.0146500
933.215	0.0145293
933.293	0.0145754
933.371	0.0144356
933.450	0.0145758
933.528	0.0146310
933.606	0.0146468
933.684	0.0144781
933.762	0.0145307
933.840	0.0146981
933.918	0.0146562
933.996	0.0145259
934.075	0.0145391
934.153	0.0145936
934.231	0.0146630
934.309	0.0145344
934.387	0.0145441
934.465	0.0144257
934.543	0.0146104
934.621	0.0145638
934.700	0.0146455
934.778	0.0145599
934.856	0.0146342
934.934	0.0146713
935.012	0.0147173
935.090	0.0145447
935.168	0.0147391
935.246	0.0145416
935.325	0.0146186
935.403	0.0146644
935.481	0.0146145
935.559	0.0147755
935.637	0.0148170
935.715	0.0147123
935.793	0.0146949
935.871	0.0146752
935.950	0.0146426
936.028	0.0146400
936.106	0.0147100
936.184	0.0147132
936.262	0.0146785
936.340	0.0146888
936.418	0.0146302
936.496	0.0148275
936.575	0.0147615
936.653	0.0145871
936.731	0.0146583
936.809	0.0147682
936.887	0.0146236
936.965	0.0145959
937.043	0.0145561
937.121	0.0146603
937.200	0.0146357
937.278	0.0146238
937.356	0.0145982
937.434	0.0146070
937.512	0.0146513
937.590	0.0146098
937.668	0.0146142
937.746	0.0144547
937.825	0.0145776
937.903	0.0144193
937.981	0.0146056
938.059	0.0144942
938.137	0.0145868
938.215	0.0146087
938.293	0.0145750
938.371	0.0146234
938.450	0.0145163
938.528	0.0144901
938.606	0.0144357
938.684	0.0144905
938.762	0.0144757
938.840	0.0145698
938.918	0.0148365
938.996	0.0146149
939.075	0.0145063
939.153	0.0144555
939.231	0.0145505
939.309	0.0145636
939.387	0.0146507
939.465	0.0145768
939.543	0.0145838
939.621	0.0145776
939.700	0.0145127
939.778	0.0145950
939.856	0.0145468
939.934	0.0145643
940.012	0.0146597
940.090	0.0146033
940.168	0.0145468
940.246	0.0146278
940.325	0.0145663
940.403	0.0145908
940.481	0.0145341
940.559	0.0146511
940.637	0.0146331
940.715	0.0146095
940.793	0.0145387
940.871	0.0145971
940.950	0.0144888
941.028	0.0145850
941.106	0.0146556
941.184	0.0146149
941.262	0.0144695
941.340	0.0144587
941.418	0.0144015
941.496	0.0143884
941.575	0.0145145
941.653	0.0145607
941.731	0.0143952
941.809	0.0144941
941.887	0.0144450
941.965	0.0145658
942.043	0.0143752
942.121	0.0144833
942.200	0.0145373
942.278	0.0144904
942.356	0.0145007
942.434	0.0144627
942.512	0.0145470
942.590	0.0146419
942.668	0.0145810
942.746	0.0145581
942.825	0.0143985
942.903	0.0145916
942.981	0.0145922
943.059	0.0145455
943.137	0.0145248
943.215	0.0145351
943.293	0.0144461
943.371	0.0145454
943.450	0.0144571
943.528	0.0144511
943.606	0.0143338
943.684	0.0143023
943.762	0.0144896
943.840	0.0144717
943.918	0.0144164
943.996	0.0144173
944.075	0.0144167
944.153	0.0144344
944.231	0.0144571
944.309	0.0145148
944.387	0.0146558
944.465	0.0145722
944.543	0.0144965
944.621	0.0144778
944.700	0.0144769
944.778	0.0145956
944.856	0.0147716
944.934	0.0146746
945.012	0.0145867
945.090	0.0146537
945.168	0.0145618
945.246	0.0143835
945.325	0.0144701
945.403	0.0146162
945.481	0.0145520
945.559	0.0145608
945.637	0.0146086
945.715	0.0146088
945.793	0.0146152
945.871	0.0146696
945.950	0.0143610
946.028	0.0144483
946.106	0.0143593
946.184	0.0145621
946.262	0.0145217
946.340	0.0145554
946.418	0.0145925
946.496	0.0143860
946.575	0.0144053
946.653	0.0145668
946.731	0.0145293
946.809	0.0145135
946.887	0.0144890
946.965	0.0144435
947.043	0.0144949
947.121	0.0144518
947.200	0.0144500
947.278	0.0145350
947.356	0.0144038
947.434	0.0144025
947.512	0.0144515
947.590	0.0144991
947.668	0.0145406
947.746	0.0144060
947.825	0.0144003
947.903	0.0143322
947.981	0.0145966
948.059	0.0145705
948.137	0.0143852
948.215	0.0144779
948.293	0.0143739
948.371	0.0143232
948.450	0.0145963
948.528	0.0145167
948.606	0.0144170
948.684	0.0144724
948.762	0.0142688
948.840	0.0143092
948.918	0.0145121
948.996	0.0144292
949.075	0.0144405
949.153	0.0145060
949.231	0.0145084
949.309	0.0143903
949.387	0.0144093
949.465	0.0145370
949.543	0.0144560
949.621	0.0144420
949.700	0.0143909
949.778	0.0144807
949.856	0.0144894
949.934	0.0144930
950.012	0.0144887
950.090	0.0145006
950.168	0.0145139
950.246	0.0147074
950.325	0.0145634
950.403	0.0145415
950.481	0.0145078
950.559	0.0145866
950.637	0.0145494
950.715	0.0146051
950.793	0.0145123
950.871	0.0146107
950.950	0.0144982
951.028	0.0144846
951.106	0.0146026
951.184	0.0146580
951.262	0.0146585
951.340	0.0145351
951.418	0.0145623
951.496	0.0146023
951.575	0.0146996
951.653	0.0146416
951.731	0.0144620
951.809	0.0145415
951.887	0.0145489
951.965	0.0145849
952.043	0.0146018
952.121	0.0145634
952.200	0.0145081
952.278	0.0144699
952.356	0.0145107
952.434	0.0146043
952.512	0.0146149
952.590	0.0144853
952.668	0.0145568
952.746	0.0146206
952.825	0.0144647
952.903	0.0144407
952.981	0.0145219
953.059	0.0143723
953.137	0.0145358
953.215	0.0144295
953.293	0.0145065
953.371	0.0145371
953.450	0.0143705
953.528	0.0144782
953.606	0.0145019
953.684	0.0144155
953.762	0.0145197
953.840	0.0145106
953.918	0.0142967
953.996	0.0144321
954.075	0.0147199
954.153	0.0145654
954.231	0.0145210
954.309	0.0145806
954.387	0.0146258
954.465	0.0147256
954.543	0.0147585
954.621	0.0145303
954.700	0.0146706
954.778	0.0146758
954.856	0.0147437
954.934	0.0146449
955.012	0.0146068
955.090	0.0145836
955.168	0.0147978
955.246	0.0146900
955.325	0.0146716
955.403	0.0145896
955.481	0.0145782
955.559	0.0145667
955.637	0.0146762
955.715	0.0147472
955.793	0.0146201
955.871	0.0147120
955.950	0.0147422
956.028	0.0147774
956.106	0.0144614
956.184	0.0145868
956.262	0.0144937
956.340	0.0145295
956.418	0.0144661
956.496	0.0144754
956.575	0.0145059
956.653	0.0145851
956.731	0.0144322
956.809	0.0144228
956.887	0.0145844
956.965	0.0145740
957.043	0.0143996
957.121	0.0143982
957.200	0.0145944
957.278	0.0147009
957.356	0.0145090
957.434	0.0146780
957.512	0.0147256
957.590	0.0147028
957.668	0.0145673
957.746	0.0145436
957.825	0.0146548
957.903	0.0146767
957.981	0.0146374
958.059	0.0145827
958.137	0.0146886
958.215	0.0146678
958.293	0.0146169
958.371	0.0145126
958.450	0.0143752
958.528	0.0146503
958.606	0.0146494
958.684	0.0144955
958.762	0.0144598
958.840	0.0145735
958.918	0.0145201
958.996	0.0144920
959.075	0.0144601
959.153	0.0145060
959.231	0.0144970
959.309	0.0145818
959.387	0.0146209
959.465	0.0145960
959.543	0.0145798
959.621	0.0145930
959.700	0.0146798
959.778	0.0146676
959.856	0.0146603
959.934	0.0145538
960.012	0.0145580
960.090	0.0146096
960.168	0.0145485
960.246	0.0146146
960.325	0.0145544
960.403	0.0146867
960.481	0.0146501
960.559	0.0146451
960.637	0.0145978
960.715	0.0146693
960.793	0.0146650
960.871	0.0146805
960.950	0.0144038
961.028	0.0144778
961.106	0.0145927
961.184	0.0144584
961.262	0.0145093
961.340	0.0145943
961.418	0.0146244
961.496	0.0146316
961.575	0.0144894
961.653	0.0145460
961.731	0.0144540
961.809	0.0146581
961.887	0.0147021
961.965	0.0146348
962.043	0.0146130
962.121	0.0145525
962.200	0.0146642
962.278	0.0146551
962.356	0.0146599
962.434	0.0147224
962.512	0.0147134
962.590	0.0145824
962.668	0.0145836
962.746	0.0147451
962.825	0.0145372
962.903	0.0146151
962.981	0.0145237
963.059	0.0145465
963.137	0.0146432
963.215	0.0146317
963.293	0.0145638
963.371	0.0144466
963.450	0.0145705
963.528	0.0144898
963.606	0.0144191
963.684	0.0146041
963.762	0.0145032
963.840	0.0145405
963.918	0.0145967
963.996	0.0146017
964.075	0.0144800
964.153	0.0145671
964.231	0.0144157
964.309	0.0145419
964.387	0.0144354
964.465	0.0144710
964.543	0.0144427
964.621	0.0144000
964.700	0.0142642
964.778	0.0143600
964.856	0.0143565
964.934	0.0143569
965.012	0.0144308
965.090	0.0143588
965.168	0.0144620
965.246	0.0144788
965.325	0.0144179
965.403	0.0145399
965.481	0.0145033
965.559	0.0144756
965.637	0.0145457
965.715	0.0144991
965.793	0.0146381
965.871	0.0147358
965.950	0.0146072
966.028	0.0146867
966.106	0.0143979
966.184	0.0147063
966.262	0.0146074
966.340	0.0145634
966.418	0.0145766
966.496	0.0145383
966.575	0.0145061
966.653	0.0145409
966.731	0.0145112
966.809	0.0144254
966.887	0.0144488
966.965	0.0144318
967.043	0.0144482
967.121	0.0144085
967.200	0.0143462
967.278	0.0144553
967.356	0.0145425
967.434	0.0144544
967.512	0.0145618
967.590	0.0144895
967.668	0.0145313
967.746	0.0145048
967.825	0.0146066
967.903	0.0145227
967.981	0.0145288
968.059	0.0145884
968.137	0.0145117
968.215	0.0145182
968.293	0.0145267
968.371	0.0144572
968.450	0.0144155
968.528	0.0145048
968.606	0.0145807
968.684	0.0145594
968.762	0.0145692
968.840	0.0145458
968.918	0.0146229
968.996	0.0145975
969.075	0.0143415
969.153	0.0145138
969.231	0.0144324
969.309	0.0145866
969.387	0.0145333
969.465	0.0145516
969.543	0.0145496
969.621	0.0144769
969.700	0.0145834
969.778	0.0145045
969.856	0.0146020
969.934	0.0145453
970.012	0.0145959
970.090	0.0145750
970.168	0.0145240
970.246	0.0145823
970.325	0.0145258
970.403	0.0145815
970.481	0.0145570
970.559	0.0144247
970.637	0.0145223
970.715	0.0145213
970.793	0.0145282
970.871	0.0145192
970.950	0.0143326
971.028	0.0144408
971.106	0.0145643
971.184	0.0144721
971.262	0.0144939
971.340	0.0145596
971.418	0.0145308
971.496	0.0145457
971.575	0.0145240
971.653	0.0146320
971.731	0.0147015
971.809	0.0147221
971.887	0.0145733
971.965	0.0146004
972.043	0.0146469
972.121	0.0146258
972.200	0.0145432
972.278	0.0145054
972.356	0.0145754
972.434	0.0145734
972.512	0.0145532
972.590	0.0145281
972.668	0.0144478
972.746	0.0144109
972.825	0.0146088
972.903	0.0144547
972.981	0.0143925
973.059	0.0144832
973.137	0.0144680
973.215	0.0144227
973.293	0.0144389
973.371	0.0144688
973.450	0.0146988
973.528	0.0145845
973.606	0.0145789
973.684	0.0146908
973.762	0.0145054
973.840	0.0144798
973.918	0.0146597
973.996	0.0145564
974.075	0.0146076
974.153	0.0146583
974.231	0.0146129
974.309	0.0146593
974.387	0.0146487
974.465	0.0147196
974.543	0.0145279
974.621	0.0146807
974.700	0.0146128
974.778	0.0145618
974.856	0.0143684
974.934	0.0145348
975.012	0.0143867
975.090	0.0145872
975.168	0.0145752
975.246	0.0145898
975.325	0.0145238
975.403	0.0146106
975.481	0.0143922
975.559	0.0145039
975.637	0.0144825
975.715	0.0143712
975.793	0.0145943
975.871	0.0145571
975.950	0.0146178
976.028	0.0144854
976.106	0.0146635
976.184	0.0146380
976.262	0.0144804
976.340	0.0145239
976.418	0.0145464
976.496	0.0145995
976.575	0.0146701
976.653	0.0146440
976.731	0.0146196
976.809	0.0145193
976.887	0.0145716
976.965	0.0144845
977.043	0.0144749
977.121	0.0144952
977.200	0.0146635
977.278	0.0146080
977.356	0.0144498
977.434	0.0146511
977.512	0.0146236
977.590	0.0144646
977.668	0.0146508
977.746	0.0145536
977.825	0.0145840
977.903	0.0145908
977.981	0.0143986
978.059	0.0145821
978.137	0.0145795
978.215	0.0144773
978.293	0.0146021
978.371	0.0145602
978.450	0.0145422
978.528	0.0146499
978.606	0.0144460
978.684	0.0143529
978.762	0.0145527
978.840	0.0144640
978.918	0.0145329
978.996	0.0145695
979.075	0.0145555
979.153	0.0145590
979.231	0.0147102
979.309	0.0145802
979.387	0.0144939
979.465	0.0144598
979.543	0.0144350
979.621	0.0144411
979.700	0.0144189
979.778	0.0144307
979.856	0.0144209
979.934	0.0144437
980.012	0.0144335
980.090	0.0144516
980.168	0.0144618
980.246	0.0144547
980.325	0.0143818
980.403	0.0144765
980.481	0.0144462
980.559	0.0145959
980.637	0.0144495
980.715	0.0145041
980.793	0.0146714
980.871	0.0145248
980.950	0.0145589
981.028	0.0145589
981.106	0.0145276
981.184	0.0146069
981.262	0.0144021
981.340	0.0144788
981.418	0.0146291
981.496	0.0144448
981.575	0.0144466
981.653	0.0144772
981.731	0.0145738
981.809	0.0145041
981.887	0.0145458
981.965	0.0143784
982.043	0.0145788
982.121	0.0145358
982.200	0.0146088
982.278	0.0145239
982.356	0.0144644
982.434	0.0144736
982.512	0.0144505
982.590	0.0143438
982.668	0.0143858
982.746	0.0146815
982.825	0.0145223
982.903	0.0145418
982.981	0.0144756
983.059	0.0144948
983.137	0.0144044
983.215	0.0144804
983.293	0.0145089
983.371	0.0145026
983.450	0.0144643
983.528	0.0145137
983.606	0.0144370
983.684	0.0146490
983.762	0.0145270
983.840	0.0146160
983.918	0.0145079
983.996	0.0145591
984.075	0.0145345
984.153	0.0146342
984.231	0.0146165
984.309	0.0145247
984.387	0.0146512
984.465	0.0145968
984.543	0.0146155
984.621	0.0145776
984.700	0.0147337
984.778	0.0146159
984.856	0.0145172
984.934	0.0144752
985.012	0.0145576
985.090	0.0145197
985.168	0.0145901
985.246	0.0145102
985.325	0.0144427
985.403	0.0144227
985.481	0.0144341
985.559	0.0144281
985.637	0.0144161
985.715	0.0144957
985.793	0.0144621
985.871	0.0144398
985.950	0.0144131
986.028	0.0146415
986.106	0.0144993
986.184	0.0144900
986.262	0.0144242
986.340	0.0146197
986.418	0.0145669
986.496	0.0144856
986.575	0.0145843
986.653	0.0146978
986.731	0.0146658
986.809	0.0146294
986.887	0.0145288
986.965	0.0146865
987.043	0.0145359
987.121	0.0145604
987.200	0.0146762
987.278	0.0146502
987.356	0.0144471
987.434	0.0144544
987.512	0.0146535
987.590	0.0144817
987.668	0.0145003
987.746	0.0143894
987.825	0.0145583
987.903	0.0145483
987.981	0.0144516
988.059	0.0145133
988.137	0.0144837
988.215	0.0144846
988.293	0.0144361
988.371	0.0147122
988.450	0.0146088
988.528	0.0144756
988.606	0.0146573
988.684	0.0145062
988.762	0.0145777
988.840	0.0145762
988.918	0.0145760
988.996	0.0147065
989.075	0.0146919
989.153	0.0145632
989.231	0.0146204
989.309	0.0144782
989.387	0.0145863
989.465	0.0145371
989.543	0.0145825
989.621	0.0146107
989.700	0.0144554
989.778	0.0145639
989.856	0.0144599
989.934	0.0145910
990.012	0.0145873
990.090	0.0146458
990.168	0.0145755
990.246	0.0145921
990.325	0.0146050
990.403	0.0146932
990.481	0.0145322
990.559	0.0145542
990.637	0.0147217
990.715	0.0146314
990.793	0.0146073
990.871	0.0146137
990.950	0.0146843
991.028	0.0146521
991.106	0.0145778
991.184	0.0145277
991.262	0.0146340
991.340	0.0147446
991.418	0.0146593
991.496	0.0145885
991.575	0.0144859
991.653	0.0146426
991.731	0.0145507
991.809	0.0145556
991.887	0.0146782
991.965	0.0145576
992.043	0.0145638
992.121	0.0146833
992.200	0.0144176
992.278	0.0146196
992.356	0.0146277
992.434	0.0146211
992.512	0.0146190
992.590	0.0147187
992.668	0.0146048
992.746	0.0145047
992.825	0.0148192
992.903	0.0147099
992.981	0.0147318
993.059	0.0146940
993.137	0.0146210
993.215	0.0145898
993.293	0.0147800
993.371	0.0146133
993.450	0.0147037
993.528	0.0146105
993.606	0.0146117
993.684	0.0145852
993.762	0.0145747
993.840	0.0145339
993.918	0.0145546
993.996	0.0145115
994.075	0.0143204
994.153	0.0145798
994.231	0.0145364
994.309	0.0146080
994.387	0.0143926
994.465	0.0144663
994.543	0.0144440
994.621	0.0145071
994.700	0.0144444
994.778	0.0145601
994.856	0.0145145
994.934	0.0144582
995.012	0.0144561
995.090	0.0144406
995.168	0.0146267
995.246	0.0145222
995.325	0.0145076
995.403	0.0146079
995.481	0.0145556
995.559	0.0144577
995.637	0.0145110
995.715	0.0144437
995.793	0.0144942
995.871	0.0143876
995.950	0.0144685
996.028	0.0144069
996.106	0.0143584
996.184	0.0145618
996.262	0.0145160
996.340	0.0144318
996.418	0.0144414
996.496	0.0145837
996.575	0.0145252
996.653	0.0144997
996.731	0.0142812
996.809	0.0146467
996.887	0.0147092
996.965	0.0145225
997.043	0.0144743
997.121	0.0145882
997.200	0.0146356
997.278	0.0145720
997.356	0.0145725
997.434	0.0144118
997.512	0.0145003
997.590	0.0147178
997.668	0.0143774
997.746	0.0144538
997.825	0.0144527
997.903	0.0146666
997.981	0.0146488
998.059	0.0144695
998.137	0.0145967
998.215	0.0146277
998.293	0.0145759
998.371	0.0145499
998.450	0.0146195
998.528	0.0145284
998.606	0.0143948
998.684	0.0144698
998.762	0.0145779
998.840	0.0143869
998.918	0.0145105
