05/04/2022	21:20:28	Ver.	4.1	UNKNOWN
Optical Delay	678.996401	Delta X		0.078125	Sweeps	1	Scan Rate	0/0
Coordinates	Axis 1	NaN	Axis 2	NaN	Axis 3	NaN	Axis 4	NaN	Axis 5	NaN	Axis 6	0.000000
TX Power	0.000000	RX Power	0.000000

678.996	0.0147505
679.075	0.0144825
679.153	0.0146673
679.231	0.0147449
679.309	0.0147679
679.387	0.0147173
679.465	0.0147649
679.543	0.0147008
679.621	0.0147559
679.700	0.0149947
679.778	0.0149249
679.856	0.0148775
679.934	0.0146857
680.012	0.0148055
680.090	0.0147961
680.168	0.0148936
680.246	0.0147701
680.325	0.0145827
680.403	0.0147442
680.481	0.0147015
680.559	0.0146873
680.637	0.0145895
680.715	0.0146984
680.793	0.0144650
680.871	0.0144254
680.950	0.0145975
681.028	0.0146539
681.106	0.0145898
681.184	0.0145658
681.262	0.0146159
681.340	0.0144505
681.418	0.0146618
681.496	0.0145096
681.575	0.0145996
681.653	0.0145497
681.731	0.0148043
681.809	0.0147729
681.887	0.0146819
681.965	0.0147842
682.043	0.0146979
682.121	0.0147654
682.200	0.0146957
682.278	0.0146893
682.356	0.0146255
682.434	0.0147196
682.512	0.0146637
682.590	0.0146059
682.668	0.0147123
682.746	0.0145299
682.825	0.0145386
682.903	0.0147005
682.981	0.0146863
683.059	0.0146965
683.137	0.0147031
683.215	0.0146279
683.293	0.0146513
683.371	0.0148011
683.450	0.0147672
683.528	0.0148488
683.606	0.0149452
683.684	0.0149015
683.762	0.0148948
683.840	0.0149905
683.918	0.0147607
683.996	0.0148181
684.075	0.0149113
684.153	0.0148823
684.231	0.0147380
684.309	0.0149130
684.387	0.0148282
684.465	0.0148612
684.543	0.0147572
684.621	0.0147845
684.700	0.0146471
684.778	0.0147256
684.856	0.0146903
684.934	0.0146896
685.012	0.0146496
685.090	0.0146809
685.168	0.0145962
685.246	0.0146096
685.325	0.0145554
685.403	0.0145660
685.481	0.0146702
685.559	0.0144946
685.637	0.0146399
685.715	0.0147022
685.793	0.0147057
685.871	0.0148019
685.950	0.0147490
686.028	0.0148070
686.106	0.0147326
686.184	0.0148562
686.262	0.0148946
686.340	0.0148284
686.418	0.0147626
686.496	0.0149091
686.575	0.0148521
686.653	0.0148055
686.731	0.0146552
686.809	0.0148341
686.887	0.0148079
686.965	0.0147739
687.043	0.0147513
687.121	0.0146204
687.200	0.0146619
687.278	0.0147617
687.356	0.0147355
687.434	0.0146945
687.512	0.0145541
687.590	0.0147241
687.668	0.0146949
687.746	0.0146563
687.825	0.0146809
687.903	0.0147618
687.981	0.0146251
688.059	0.0145992
688.137	0.0145476
688.215	0.0144874
688.293	0.0148481
688.371	0.0146831
688.450	0.0147228
688.528	0.0147408
688.606	0.0147576
688.684	0.0147694
688.762	0.0147872
688.840	0.0149008
688.918	0.0150392
688.996	0.0148309
689.075	0.0148701
689.153	0.0148078
689.231	0.0147766
689.309	0.0148119
689.387	0.0148143
689.465	0.0146592
689.543	0.0147245
689.621	0.0146529
689.700	0.0148921
689.778	0.0145503
689.856	0.0146440
689.934	0.0146967
690.012	0.0145059
690.090	0.0144501
690.168	0.0146354
690.246	0.0146022
690.325	0.0145224
690.403	0.0147018
690.481	0.0147255
690.559	0.0147211
690.637	0.0147559
690.715	0.0147626
690.793	0.0147605
690.871	0.0147044
690.950	0.0146736
691.028	0.0147993
691.106	0.0147533
691.184	0.0148608
691.262	0.0147649
691.340	0.0147742
691.418	0.0149094
691.496	0.0148546
691.575	0.0147308
691.653	0.0146880
691.731	0.0148012
691.809	0.0148155
691.887	0.0146275
691.965	0.0147709
692.043	0.0147282
692.121	0.0146526
692.200	0.0146738
692.278	0.0147620
692.356	0.0148211
692.434	0.0146212
692.512	0.0145848
692.590	0.0147586
692.668	0.0146475
692.746	0.0146371
692.825	0.0146162
692.903	0.0146459
692.981	0.0147128
693.059	0.0148214
693.137	0.0148067
693.215	0.0148316
693.293	0.0148772
693.371	0.0146952
693.450	0.0148161
693.528	0.0147283
693.606	0.0148141
693.684	0.0147797
693.762	0.0146574
693.840	0.0144959
693.918	0.0144460
693.996	0.0146047
694.075	0.0145275
694.153	0.0146171
694.231	0.0146407
694.309	0.0146727
694.387	0.0147366
694.465	0.0146062
694.543	0.0147442
694.621	0.0148758
694.700	0.0148536
694.778	0.0147546
694.856	0.0149137
694.934	0.0148366
695.012	0.0148952
695.090	0.0149567
695.168	0.0147805
695.246	0.0147394
695.325	0.0147686
695.403	0.0146722
695.481	0.0144675
695.559	0.0145092
695.637	0.0144611
695.715	0.0143043
695.793	0.0144071
695.871	0.0144746
695.950	0.0145370
696.028	0.0147128
696.106	0.0148119
696.184	0.0150038
696.262	0.0151619
696.340	0.0151833
696.418	0.0151229
696.496	0.0152044
696.575	0.0150550
696.653	0.0150693
696.731	0.0147745
696.809	0.0147273
696.887	0.0144251
696.965	0.0142123
697.043	0.0141776
697.121	0.0140434
697.200	0.0140215
697.278	0.0140073
697.356	0.0142355
697.434	0.0143638
697.512	0.0145461
697.590	0.0147610
697.668	0.0147533
697.746	0.0148702
697.825	0.0150121
697.903	0.0152376
697.981	0.0151002
698.059	0.0150670
698.137	0.0148465
698.215	0.0147637
698.293	0.0146367
698.371	0.0145782
698.450	0.0142517
698.528	0.0142809
698.606	0.0140729
698.684	0.0141595
698.762	0.0141712
698.840	0.0142260
698.918	0.0142375
698.996	0.0143218
699.075	0.0146543
699.153	0.0147829
699.231	0.0150219
699.309	0.0152577
699.387	0.0153536
699.465	0.0155141
699.543	0.0155611
699.621	0.0155292
699.700	0.0155969
699.778	0.0151846
699.856	0.0148734
699.934	0.0147115
700.012	0.0142281
700.090	0.0139626
700.168	0.0137136
700.246	0.0135603
700.325	0.0134449
700.403	0.0136186
700.481	0.0136292
700.559	0.0139022
700.637	0.0141421
700.715	0.0145404
700.793	0.0148962
700.871	0.0152164
700.950	0.0154951
701.028	0.0155202
701.106	0.0157226
701.184	0.0158593
701.262	0.0157982
701.340	0.0154426
701.418	0.0150607
701.496	0.0149438
701.575	0.0145389
701.653	0.0142465
701.731	0.0139792
701.809	0.0139681
701.887	0.0139078
701.965	0.0139123
702.043	0.0140021
702.121	0.0142033
702.200	0.0142312
702.278	0.0144939
702.356	0.0146956
702.434	0.0150867
702.512	0.0151089
702.590	0.0153868
702.668	0.0154603
702.746	0.0154229
702.825	0.0154568
702.903	0.0153988
702.981	0.0153704
703.059	0.0152567
703.137	0.0148202
703.215	0.0147746
703.293	0.0145026
703.371	0.0142786
703.450	0.0139828
703.528	0.0138591
703.606	0.0139653
703.684	0.0139985
703.762	0.0141194
703.840	0.0144571
703.918	0.0146883
703.996	0.0147926
704.075	0.0151425
704.153	0.0152937
704.231	0.0152254
704.309	0.0151470
704.387	0.0152701
704.465	0.0151280
704.543	0.0150395
704.621	0.0148262
704.700	0.0147314
704.778	0.0145609
704.856	0.0145466
704.934	0.0145231
705.012	0.0146182
705.090	0.0146060
705.168	0.0146170
705.246	0.0147821
705.325	0.0147765
705.403	0.0147005
705.481	0.0147903
705.559	0.0148872
705.637	0.0149281
705.715	0.0147903
705.793	0.0147999
705.871	0.0148944
705.950	0.0149940
706.028	0.0149859
706.106	0.0150089
706.184	0.0149969
706.262	0.0146724
706.340	0.0146513
706.418	0.0145020
706.496	0.0143102
706.575	0.0142900
706.653	0.0142303
706.731	0.0143791
706.809	0.0145012
706.887	0.0147334
706.965	0.0147434
707.043	0.0148868
707.121	0.0149699
707.200	0.0151022
707.278	0.0151411
707.356	0.0151479
707.434	0.0150547
707.512	0.0151273
707.590	0.0151251
707.668	0.0150899
707.746	0.0151006
707.825	0.0151092
707.903	0.0150733
707.981	0.0148804
708.059	0.0147972
708.137	0.0146468
708.215	0.0143034
708.293	0.0141222
708.371	0.0140397
708.450	0.0140296
708.528	0.0139065
708.606	0.0140646
708.684	0.0140607
708.762	0.0142496
708.840	0.0145631
708.918	0.0147186
708.996	0.0149474
709.075	0.0152624
709.153	0.0155650
709.231	0.0157175
709.309	0.0158167
709.387	0.0157259
709.465	0.0157469
709.543	0.0157040
709.621	0.0154122
709.700	0.0151192
709.778	0.0147806
709.856	0.0145879
709.934	0.0142728
710.012	0.0141374
710.090	0.0140186
710.168	0.0141520
710.246	0.0138020
710.325	0.0137600
710.403	0.0138397
710.481	0.0140003
710.559	0.0142142
710.637	0.0142753
710.715	0.0144041
710.793	0.0143578
710.871	0.0147130
710.950	0.0149023
711.028	0.0151176
711.106	0.0152023
711.184	0.0152029
711.262	0.0154765
711.340	0.0156665
711.418	0.0156662
711.496	0.0156302
711.575	0.0155744
711.653	0.0155763
711.731	0.0153783
711.809	0.0151562
711.887	0.0149361
711.965	0.0147573
712.043	0.0143610
712.121	0.0139706
712.200	0.0138137
712.278	0.0135358
712.356	0.0135663
712.434	0.0136332
712.512	0.0137433
712.590	0.0139955
712.668	0.0141421
712.746	0.0145180
712.825	0.0147655
712.903	0.0147865
712.981	0.0151748
713.059	0.0154357
713.137	0.0155572
713.215	0.0154640
713.293	0.0155274
713.371	0.0154265
713.450	0.0152535
713.528	0.0151749
713.606	0.0149683
713.684	0.0148869
713.762	0.0148245
713.840	0.0144926
713.918	0.0145386
713.996	0.0143393
714.075	0.0141475
714.153	0.0142573
714.231	0.0142531
714.309	0.0140991
714.387	0.0143369
714.465	0.0144167
714.543	0.0143306
714.621	0.0144199
714.700	0.0145952
714.778	0.0145902
714.856	0.0146876
714.934	0.0147820
715.012	0.0149338
715.090	0.0149419
715.168	0.0149940
715.246	0.0149004
715.325	0.0151403
715.403	0.0151297
715.481	0.0151849
715.559	0.0152943
715.637	0.0151920
715.715	0.0149612
715.793	0.0150484
715.871	0.0149010
715.950	0.0146329
716.028	0.0146003
716.106	0.0144462
716.184	0.0143457
716.262	0.0144518
716.340	0.0142914
716.418	0.0143981
716.496	0.0146151
716.575	0.0145789
716.653	0.0145501
716.731	0.0147366
716.809	0.0146895
716.887	0.0145725
716.965	0.0147195
717.043	0.0145547
717.121	0.0145189
717.200	0.0146628
717.278	0.0147626
717.356	0.0147300
717.434	0.0149787
717.512	0.0147535
717.590	0.0147795
717.668	0.0147265
717.746	0.0147226
717.825	0.0145425
717.903	0.0145742
717.981	0.0145529
718.059	0.0144035
718.137	0.0145673
718.215	0.0144952
718.293	0.0144440
718.371	0.0143904
718.450	0.0144307
718.528	0.0144096
718.606	0.0145074
718.684	0.0145240
718.762	0.0145672
718.840	0.0147673
718.918	0.0147763
718.996	0.0147154
719.075	0.0148942
719.153	0.0149315
719.231	0.0148686
719.309	0.0148882
719.387	0.0148456
719.465	0.0150328
719.543	0.0148698
719.621	0.0149403
719.700	0.0148134
719.778	0.0148929
719.856	0.0148294
719.934	0.0147958
720.012	0.0149352
720.090	0.0148023
720.168	0.0146469
720.246	0.0146001
720.325	0.0148014
720.403	0.0147063
720.481	0.0145069
720.559	0.0144867
720.637	0.0144022
720.715	0.0143624
720.793	0.0145103
720.871	0.0145374
720.950	0.0146384
721.028	0.0148000
721.106	0.0148165
721.184	0.0150141
721.262	0.0151246
721.340	0.0151948
721.418	0.0151504
721.496	0.0150849
721.575	0.0150616
721.653	0.0150047
721.731	0.0148695
721.809	0.0147908
721.887	0.0146210
721.965	0.0144633
722.043	0.0144820
722.121	0.0142132
722.200	0.0141197
722.278	0.0140538
722.356	0.0140398
722.434	0.0140055
722.512	0.0139384
722.590	0.0141957
722.668	0.0143617
722.746	0.0145387
722.825	0.0144698
722.903	0.0148727
722.981	0.0148786
723.059	0.0148939
723.137	0.0149791
723.215	0.0150015
723.293	0.0149390
723.371	0.0149339
723.450	0.0149873
723.528	0.0150304
723.606	0.0149966
723.684	0.0150237
723.762	0.0150555
723.840	0.0149979
723.918	0.0149829
723.996	0.0150661
724.075	0.0149875
724.153	0.0150019
724.231	0.0150251
724.309	0.0148698
724.387	0.0148758
724.465	0.0146181
724.543	0.0145499
724.621	0.0145246
724.700	0.0144667
724.778	0.0142818
724.856	0.0143724
724.934	0.0143806
725.012	0.0143627
725.090	0.0143228
725.168	0.0147112
725.246	0.0144562
725.325	0.0144749
725.403	0.0147805
725.481	0.0149669
725.559	0.0150590
725.637	0.0151550
725.715	0.0151485
725.793	0.0152425
725.871	0.0151374
725.950	0.0150793
726.028	0.0150471
726.106	0.0149510
726.184	0.0148587
726.262	0.0146329
726.340	0.0147154
726.418	0.0145209
726.496	0.0144054
726.575	0.0144135
726.653	0.0143101
726.731	0.0144101
726.809	0.0145674
726.887	0.0144400
726.965	0.0145784
727.043	0.0147261
727.121	0.0147332
727.200	0.0147969
727.278	0.0148711
727.356	0.0148534
727.434	0.0148532
727.512	0.0148145
727.590	0.0149112
727.668	0.0149757
727.746	0.0148677
727.825	0.0147549
727.903	0.0147439
727.981	0.0149018
728.059	0.0147805
728.137	0.0149583
728.215	0.0150475
728.293	0.0151459
728.371	0.0150339
728.450	0.0151093
728.528	0.0150305
728.606	0.0149213
728.684	0.0148349
728.762	0.0148827
728.840	0.0146931
728.918	0.0147286
728.996	0.0145660
729.075	0.0145114
729.153	0.0143523
729.231	0.0142207
729.309	0.0142947
729.387	0.0143263
729.465	0.0143901
729.543	0.0145222
729.621	0.0145393
729.700	0.0147434
729.778	0.0149554
729.856	0.0150950
729.934	0.0150426
730.012	0.0152088
730.090	0.0152059
730.168	0.0152692
730.246	0.0152022
730.325	0.0151148
730.403	0.0152602
730.481	0.0150278
730.559	0.0149813
730.637	0.0150199
730.715	0.0148552
730.793	0.0146148
730.871	0.0145821
730.950	0.0145126
731.028	0.0144250
731.106	0.0144317
731.184	0.0144654
731.262	0.0143534
731.340	0.0144669
731.418	0.0145937
731.496	0.0146085
731.575	0.0145840
731.653	0.0147572
731.731	0.0146531
731.809	0.0146687
731.887	0.0150877
731.965	0.0149626
732.043	0.0148085
732.121	0.0149007
732.200	0.0148200
732.278	0.0146825
732.356	0.0148509
732.434	0.0147761
732.512	0.0146479
732.590	0.0146362
732.668	0.0145489
732.746	0.0143633
732.825	0.0144617
732.903	0.0143381
732.981	0.0144556
733.059	0.0144193
733.137	0.0144978
733.215	0.0144534
733.293	0.0145486
733.371	0.0146336
733.450	0.0146994
733.528	0.0146544
733.606	0.0148804
733.684	0.0148566
733.762	0.0146820
733.840	0.0149477
733.918	0.0149535
733.996	0.0148360
734.075	0.0149688
734.153	0.0148305
734.231	0.0148203
734.309	0.0147658
734.387	0.0149543
734.465	0.0147265
734.543	0.0145813
734.621	0.0148392
734.700	0.0147268
734.778	0.0147814
734.856	0.0148009
734.934	0.0147950
735.012	0.0147080
735.090	0.0148844
735.168	0.0146172
735.246	0.0146680
735.325	0.0147375
735.403	0.0147794
735.481	0.0147234
735.559	0.0146214
735.637	0.0146188
735.715	0.0146767
735.793	0.0147331
735.871	0.0147382
735.950	0.0147356
736.028	0.0147323
736.106	0.0148003
736.184	0.0146415
736.262	0.0147027
736.340	0.0147487
736.418	0.0146964
736.496	0.0145581
736.575	0.0145493
736.653	0.0145561
736.731	0.0145359
736.809	0.0144816
736.887	0.0145089
736.965	0.0142890
737.043	0.0144381
737.121	0.0143584
737.200	0.0146545
737.278	0.0145592
737.356	0.0146323
737.434	0.0146706
737.512	0.0147604
737.590	0.0146624
737.668	0.0148787
737.746	0.0150794
737.825	0.0149744
737.903	0.0149384
737.981	0.0148899
738.059	0.0148428
738.137	0.0149942
738.215	0.0149548
738.293	0.0147762
738.371	0.0147690
738.450	0.0144656
738.528	0.0144603
738.606	0.0144927
738.684	0.0144397
738.762	0.0143964
738.840	0.0142123
738.918	0.0143427
738.996	0.0143320
739.075	0.0143195
739.153	0.0144572
739.231	0.0144626
739.309	0.0145370
739.387	0.0146819
739.465	0.0145508
739.543	0.0146828
739.621	0.0147124
739.700	0.0145335
739.778	0.0146965
739.856	0.0148777
739.934	0.0147558
740.012	0.0147050
740.090	0.0148579
740.168	0.0147959
740.246	0.0147115
740.325	0.0145658
740.403	0.0146475
740.481	0.0146129
740.559	0.0146976
740.637	0.0147031
740.715	0.0145464
740.793	0.0145614
740.871	0.0145605
740.950	0.0147078
741.028	0.0145978
741.106	0.0147157
741.184	0.0148105
741.262	0.0145795
741.340	0.0145868
741.418	0.0148686
741.496	0.0148638
741.575	0.0146396
741.653	0.0147626
741.731	0.0148359
741.809	0.0147511
741.887	0.0149747
741.965	0.0150506
742.043	0.0149750
742.121	0.0149843
742.200	0.0149618
742.278	0.0149728
742.356	0.0150225
742.434	0.0148856
742.512	0.0149818
742.590	0.0150150
742.668	0.0148544
742.746	0.0148061
742.825	0.0148345
742.903	0.0148670
742.981	0.0148088
743.059	0.0147510
743.137	0.0146835
743.215	0.0146617
743.293	0.0146947
743.371	0.0146083
743.450	0.0146313
743.528	0.0145504
743.606	0.0144930
743.684	0.0146143
743.762	0.0146487
743.840	0.0145699
743.918	0.0146026
743.996	0.0146265
744.075	0.0146610
744.153	0.0147113
744.231	0.0145965
744.309	0.0145594
744.387	0.0147234
744.465	0.0145661
744.543	0.0145251
744.621	0.0145508
744.700	0.0146742
744.778	0.0146639
744.856	0.0146888
744.934	0.0147321
745.012	0.0145010
745.090	0.0144004
745.168	0.0144856
745.246	0.0145197
745.325	0.0145350
745.403	0.0145670
745.481	0.0146725
745.559	0.0146034
745.637	0.0146749
745.715	0.0148082
745.793	0.0148308
745.871	0.0147890
745.950	0.0148515
746.028	0.0146867
746.106	0.0146671
746.184	0.0147582
746.262	0.0147351
746.340	0.0148183
746.418	0.0146917
746.496	0.0146475
746.575	0.0148959
746.653	0.0149587
746.731	0.0148020
746.809	0.0148590
746.887	0.0148541
746.965	0.0148795
747.043	0.0147723
747.121	0.0149914
747.200	0.0148374
747.278	0.0149625
747.356	0.0149039
747.434	0.0147466
747.512	0.0149206
747.590	0.0148190
747.668	0.0148004
747.746	0.0146215
747.825	0.0146526
747.903	0.0146994
747.981	0.0147021
748.059	0.0147675
748.137	0.0147370
748.215	0.0146477
748.293	0.0148288
748.371	0.0146337
748.450	0.0146478
748.528	0.0148005
748.606	0.0145887
748.684	0.0146786
748.762	0.0145389
748.840	0.0145483
748.918	0.0144469
748.996	0.0145617
749.075	0.0146113
749.153	0.0146837
749.231	0.0146121
749.309	0.0145719
749.387	0.0146572
749.465	0.0146468
749.543	0.0145631
749.621	0.0147115
749.700	0.0148447
749.778	0.0148132
749.856	0.0148236
749.934	0.0148042
750.012	0.0148468
750.090	0.0147866
750.168	0.0149454
750.246	0.0148492
750.325	0.0148792
750.403	0.0147092
750.481	0.0147751
750.559	0.0148317
750.637	0.0147170
750.715	0.0147590
750.793	0.0147421
750.871	0.0146953
750.950	0.0146561
751.028	0.0147158
751.106	0.0146655
751.184	0.0147103
751.262	0.0146431
751.340	0.0146855
751.418	0.0146843
751.496	0.0146276
751.575	0.0146344
751.653	0.0146395
751.731	0.0146615
751.809	0.0146313
751.887	0.0147318
751.965	0.0147874
752.043	0.0148269
752.121	0.0148248
752.200	0.0148436
752.278	0.0146686
752.356	0.0146076
752.434	0.0147247
752.512	0.0146681
752.590	0.0145932
752.668	0.0146627
752.746	0.0145485
752.825	0.0145238
752.903	0.0144254
752.981	0.0145322
753.059	0.0146748
753.137	0.0145444
753.215	0.0145844
753.293	0.0147490
753.371	0.0146230
753.450	0.0145176
753.528	0.0146934
753.606	0.0146642
753.684	0.0146433
753.762	0.0147899
753.840	0.0147414
753.918	0.0147262
753.996	0.0147617
754.075	0.0147785
754.153	0.0148254
754.231	0.0148192
754.309	0.0148043
754.387	0.0148933
754.465	0.0148183
754.543	0.0148048
754.621	0.0148322
754.700	0.0148955
754.778	0.0147134
754.856	0.0147221
754.934	0.0147975
755.012	0.0146441
755.090	0.0147366
755.168	0.0147689
755.246	0.0147287
755.325	0.0148331
755.403	0.0148824
755.481	0.0149643
755.559	0.0148955
755.637	0.0149902
755.715	0.0147866
755.793	0.0147652
755.871	0.0147392
755.950	0.0148071
756.028	0.0147251
756.106	0.0147034
756.184	0.0147710
756.262	0.0147198
756.340	0.0147156
756.418	0.0146973
756.496	0.0146613
756.575	0.0146238
756.653	0.0147249
756.731	0.0145711
756.809	0.0145867
756.887	0.0146240
756.965	0.0147750
757.043	0.0148718
757.121	0.0147294
757.200	0.0145666
757.278	0.0147295
757.356	0.0146973
757.434	0.0147639
757.512	0.0147409
757.590	0.0147650
757.668	0.0148063
757.746	0.0146825
757.825	0.0148217
757.903	0.0148743
757.981	0.0147980
758.059	0.0148335
758.137	0.0147382
758.215	0.0148253
758.293	0.0149285
758.371	0.0148406
758.450	0.0148299
758.528	0.0148910
758.606	0.0148558
758.684	0.0148663
758.762	0.0150017
758.840	0.0149358
758.918	0.0148351
758.996	0.0147658
759.075	0.0147314
759.153	0.0148383
759.231	0.0148772
759.309	0.0148070
759.387	0.0146758
759.465	0.0147355
759.543	0.0147093
759.621	0.0147781
759.700	0.0147182
759.778	0.0145570
759.856	0.0147919
759.934	0.0147730
760.012	0.0145775
760.090	0.0145374
760.168	0.0146301
760.246	0.0146597
760.325	0.0146751
760.403	0.0145824
760.481	0.0145541
760.559	0.0146014
760.637	0.0146763
760.715	0.0146725
760.793	0.0145264
760.871	0.0146598
760.950	0.0146461
761.028	0.0145335
761.106	0.0147693
761.184	0.0146342
761.262	0.0144866
761.340	0.0145427
761.418	0.0147508
761.496	0.0146674
761.575	0.0146252
761.653	0.0147372
761.731	0.0147217
761.809	0.0146506
761.887	0.0147834
761.965	0.0148550
762.043	0.0148717
762.121	0.0147649
762.200	0.0149167
762.278	0.0149765
762.356	0.0150117
762.434	0.0148707
762.512	0.0149342
762.590	0.0150128
762.668	0.0149986
762.746	0.0150246
762.825	0.0150768
762.903	0.0149451
762.981	0.0150657
763.059	0.0150056
763.137	0.0149070
763.215	0.0149557
763.293	0.0150281
763.371	0.0149352
763.450	0.0147858
763.528	0.0148823
763.606	0.0148687
763.684	0.0147141
763.762	0.0148488
763.840	0.0147972
763.918	0.0147779
763.996	0.0147631
764.075	0.0147380
764.153	0.0146716
764.231	0.0147357
764.309	0.0147313
764.387	0.0146588
764.465	0.0147242
764.543	0.0145684
764.621	0.0146293
764.700	0.0147177
764.778	0.0146468
764.856	0.0146233
764.934	0.0146944
765.012	0.0146324
765.090	0.0146363
765.168	0.0147306
765.246	0.0146967
765.325	0.0146753
765.403	0.0146656
765.481	0.0146895
765.559	0.0146833
765.637	0.0146170
765.715	0.0148159
765.793	0.0147163
765.871	0.0146521
765.950	0.0147684
766.028	0.0147559
766.106	0.0147481
766.184	0.0147866
766.262	0.0147363
766.340	0.0148000
766.418	0.0148695
766.496	0.0147686
766.575	0.0149053
766.653	0.0148486
766.731	0.0148183
766.809	0.0147707
766.887	0.0147327
766.965	0.0147682
767.043	0.0148800
767.121	0.0147805
767.200	0.0148149
767.278	0.0146339
767.356	0.0147046
767.434	0.0148711
767.512	0.0146538
767.590	0.0147054
767.668	0.0147309
767.746	0.0147323
767.825	0.0147852
767.903	0.0147633
767.981	0.0148102
768.059	0.0146770
768.137	0.0146602
768.215	0.0146426
768.293	0.0146864
768.371	0.0146176
768.450	0.0146577
768.528	0.0145940
768.606	0.0144942
768.684	0.0145024
768.762	0.0144105
768.840	0.0144411
768.918	0.0144631
768.996	0.0144344
769.075	0.0145811
769.153	0.0146332
769.231	0.0146025
769.309	0.0147040
769.387	0.0145855
769.465	0.0146597
769.543	0.0147490
769.621	0.0147204
769.700	0.0147461
769.778	0.0147337
769.856	0.0147672
769.934	0.0147670
770.012	0.0147440
770.090	0.0148280
770.168	0.0147072
770.246	0.0148520
770.325	0.0149078
770.403	0.0148142
770.481	0.0148831
770.559	0.0148375
770.637	0.0149170
770.715	0.0149982
770.793	0.0149022
770.871	0.0148718
770.950	0.0148110
771.028	0.0148324
771.106	0.0147230
771.184	0.0149060
771.262	0.0149245
771.340	0.0148714
771.418	0.0148882
771.496	0.0148187
771.575	0.0147647
771.653	0.0147932
771.731	0.0149007
771.809	0.0147620
771.887	0.0147722
771.965	0.0147272
772.043	0.0149193
772.121	0.0149244
772.200	0.0147271
772.278	0.0148268
772.356	0.0146098
772.434	0.0147079
772.512	0.0147612
772.590	0.0147207
772.668	0.0145815
772.746	0.0147049
772.825	0.0146974
772.903	0.0146808
772.981	0.0147163
773.059	0.0146545
773.137	0.0146614
773.215	0.0146551
773.293	0.0146213
773.371	0.0147481
773.450	0.0146804
773.528	0.0146972
773.606	0.0145488
773.684	0.0146858
773.762	0.0147340
773.840	0.0147789
773.918	0.0147039
773.996	0.0146523
774.075	0.0147598
774.153	0.0146898
774.231	0.0147729
774.309	0.0147562
774.387	0.0148285
774.465	0.0147986
774.543	0.0148704
774.621	0.0148894
774.700	0.0149285
774.778	0.0148910
774.856	0.0147792
774.934	0.0148439
775.012	0.0146931
775.090	0.0148116
775.168	0.0148189
775.246	0.0146928
775.325	0.0148151
775.403	0.0147365
775.481	0.0146662
775.559	0.0147651
775.637	0.0147427
775.715	0.0145631
775.793	0.0146162
775.871	0.0146242
775.950	0.0146598
776.028	0.0145872
776.106	0.0148127
776.184	0.0146227
776.262	0.0146746
776.340	0.0146754
776.418	0.0145898
776.496	0.0145214
776.575	0.0146687
776.653	0.0145354
776.731	0.0145703
776.809	0.0145363
776.887	0.0145258
776.965	0.0145270
777.043	0.0146066
777.121	0.0147038
777.200	0.0146072
777.278	0.0146146
777.356	0.0145897
777.434	0.0146196
777.512	0.0146646
777.590	0.0146278
777.668	0.0147054
777.746	0.0145747
777.825	0.0146756
777.903	0.0146968
777.981	0.0148309
778.059	0.0146775
778.137	0.0148816
778.215	0.0147906
778.293	0.0147153
778.371	0.0147601
778.450	0.0146362
778.528	0.0146387
778.606	0.0147242
778.684	0.0147573
778.762	0.0147907
778.840	0.0148824
778.918	0.0148658
778.996	0.0147126
779.075	0.0149044
779.153	0.0147362
779.231	0.0146812
779.309	0.0148331
779.387	0.0149478
779.465	0.0148429
779.543	0.0147326
779.621	0.0145635
779.700	0.0147157
779.778	0.0147220
779.856	0.0147084
779.934	0.0147014
780.012	0.0147793
780.090	0.0145676
780.168	0.0147626
780.246	0.0147519
780.325	0.0146252
780.403	0.0145998
780.481	0.0147094
780.559	0.0146813
780.637	0.0146553
780.715	0.0146088
780.793	0.0146749
780.871	0.0146913
780.950	0.0145168
781.028	0.0145442
781.106	0.0145802
781.184	0.0146083
781.262	0.0145628
781.340	0.0145748
781.418	0.0145919
781.496	0.0147013
781.575	0.0147143
781.653	0.0147708
781.731	0.0147670
781.809	0.0148010
781.887	0.0147137
781.965	0.0148277
782.043	0.0148853
782.121	0.0147121
782.200	0.0148360
782.278	0.0148363
782.356	0.0148351
782.434	0.0146642
782.512	0.0148950
782.590	0.0148380
782.668	0.0147295
782.746	0.0147723
782.825	0.0147277
782.903	0.0148209
782.981	0.0148131
783.059	0.0148570
783.137	0.0147559
783.215	0.0147371
783.293	0.0147932
783.371	0.0147122
783.450	0.0148721
783.528	0.0148844
783.606	0.0148286
783.684	0.0148258
783.762	0.0147582
783.840	0.0149136
783.918	0.0147980
783.996	0.0147501
784.075	0.0149169
784.153	0.0147906
784.231	0.0148782
784.309	0.0149417
784.387	0.0147192
784.465	0.0148256
784.543	0.0148247
784.621	0.0147629
784.700	0.0147764
784.778	0.0147052
784.856	0.0148206
784.934	0.0146572
785.012	0.0148251
785.090	0.0147281
785.168	0.0146870
785.246	0.0147089
785.325	0.0148273
785.403	0.0147050
785.481	0.0148559
785.559	0.0148737
785.637	0.0147015
785.715	0.0148619
785.793	0.0147620
785.871	0.0147765
785.950	0.0147964
786.028	0.0148586
786.106	0.0147258
786.184	0.0146745
786.262	0.0149866
786.340	0.0148650
786.418	0.0149210
786.496	0.0148826
786.575	0.0149393
786.653	0.0148203
786.731	0.0148371
786.809	0.0148662
786.887	0.0147895
786.965	0.0149174
787.043	0.0147721
787.121	0.0147755
787.200	0.0147605
787.278	0.0146230
787.356	0.0146588
787.434	0.0147302
787.512	0.0146328
787.590	0.0147035
787.668	0.0147730
787.746	0.0147282
787.825	0.0148789
787.903	0.0148426
787.981	0.0147859
788.059	0.0146856
788.137	0.0146801
788.215	0.0148949
788.293	0.0147481
788.371	0.0147034
788.450	0.0148699
788.528	0.0147775
788.606	0.0147127
788.684	0.0147517
788.762	0.0147632
788.840	0.0147166
788.918	0.0147302
788.996	0.0146255
789.075	0.0147634
789.153	0.0146519
789.231	0.0146303
789.309	0.0146307
789.387	0.0147552
789.465	0.0147242
789.543	0.0147264
789.621	0.0146648
789.700	0.0146186
789.778	0.0147054
789.856	0.0147158
789.934	0.0146468
790.012	0.0145961
790.090	0.0147059
790.168	0.0147218
790.246	0.0147864
790.325	0.0147673
790.403	0.0147708
790.481	0.0147318
790.559	0.0148296
790.637	0.0147993
790.715	0.0147100
790.793	0.0146513
790.871	0.0148150
790.950	0.0147501
791.028	0.0147563
791.106	0.0148158
791.184	0.0147836
791.262	0.0146733
791.340	0.0147131
791.418	0.0147958
791.496	0.0147028
791.575	0.0146091
791.653	0.0147544
791.731	0.0147638
791.809	0.0146925
791.887	0.0146049
791.965	0.0147664
792.043	0.0146988
792.121	0.0147018
792.200	0.0146545
792.278	0.0147614
792.356	0.0147355
792.434	0.0147433
792.512	0.0146986
792.590	0.0147278
792.668	0.0147338
792.746	0.0146857
792.825	0.0146922
792.903	0.0146822
792.981	0.0146684
793.059	0.0146370
793.137	0.0146318
793.215	0.0145754
793.293	0.0147050
793.371	0.0146417
793.450	0.0145731
793.528	0.0145780
793.606	0.0145049
793.684	0.0147334
793.762	0.0146356
793.840	0.0146151
793.918	0.0146208
793.996	0.0147249
794.075	0.0146981
794.153	0.0147422
794.231	0.0147474
794.309	0.0147445
794.387	0.0147897
794.465	0.0146148
794.543	0.0146568
794.621	0.0146904
794.700	0.0146524
794.778	0.0147070
794.856	0.0145769
794.934	0.0145974
795.012	0.0146888
795.090	0.0146306
795.168	0.0146294
795.246	0.0146063
795.325	0.0145445
795.403	0.0146239
795.481	0.0146256
795.559	0.0144489
795.637	0.0146184
795.715	0.0146622
795.793	0.0146470
795.871	0.0146597
795.950	0.0145086
796.028	0.0145368
796.106	0.0145176
796.184	0.0146497
796.262	0.0144730
796.340	0.0145461
796.418	0.0147316
796.496	0.0146038
796.575	0.0146437
796.653	0.0146036
796.731	0.0145267
796.809	0.0146291
796.887	0.0146047
796.965	0.0146458
797.043	0.0148015
797.121	0.0145898
797.200	0.0146456
797.278	0.0146610
797.356	0.0146388
797.434	0.0146883
797.512	0.0146857
797.590	0.0146240
797.668	0.0147118
797.746	0.0146924
797.825	0.0147541
797.903	0.0147446
797.981	0.0148748
798.059	0.0146638
798.137	0.0148525
798.215	0.0147213
798.293	0.0147659
798.371	0.0149603
798.450	0.0149115
798.528	0.0147527
798.606	0.0147581
798.684	0.0148995
798.762	0.0148129
798.840	0.0147545
798.918	0.0146636
798.996	0.0147553
799.075	0.0148494
799.153	0.0148596
799.231	0.0148389
799.309	0.0148608
799.387	0.0145140
799.465	0.0147088
799.543	0.0147614
799.621	0.0147883
799.700	0.0147262
799.778	0.0147468
799.856	0.0147602
799.934	0.0146685
800.012	0.0147845
800.090	0.0146893
800.168	0.0147515
800.246	0.0146969
800.325	0.0147746
800.403	0.0147610
800.481	0.0148959
800.559	0.0147758
800.637	0.0148191
800.715	0.0147442
800.793	0.0148705
800.871	0.0148068
800.950	0.0147430
801.028	0.0147213
801.106	0.0147216
801.184	0.0146063
801.262	0.0147226
801.340	0.0146178
801.418	0.0146893
801.496	0.0147636
801.575	0.0147115
801.653	0.0145367
801.731	0.0146051
801.809	0.0147542
801.887	0.0147647
801.965	0.0146703
802.043	0.0146490
802.121	0.0146983
802.200	0.0147999
802.278	0.0146310
802.356	0.0147509
802.434	0.0147120
802.512	0.0147440
802.590	0.0147633
802.668	0.0146802
802.746	0.0148177
802.825	0.0147177
802.903	0.0146990
802.981	0.0147630
803.059	0.0146899
803.137	0.0147505
803.215	0.0147049
803.293	0.0146308
803.371	0.0147189
803.450	0.0147191
803.528	0.0146604
803.606	0.0147636
803.684	0.0147603
803.762	0.0147378
803.840	0.0147987
803.918	0.0146560
803.996	0.0148490
804.075	0.0147197
804.153	0.0148615
804.231	0.0148526
804.309	0.0148611
804.387	0.0148000
804.465	0.0147504
804.543	0.0147990
804.621	0.0148038
804.700	0.0148203
804.778	0.0147166
804.856	0.0147172
804.934	0.0148829
805.012	0.0146357
805.090	0.0146190
805.168	0.0147589
805.246	0.0147556
805.325	0.0148009
805.403	0.0147577
805.481	0.0147207
805.559	0.0146181
805.637	0.0147675
805.715	0.0148996
805.793	0.0147887
805.871	0.0147330
805.950	0.0147643
806.028	0.0148020
806.106	0.0147806
806.184	0.0148206
806.262	0.0147269
806.340	0.0147283
806.418	0.0147822
806.496	0.0146651
806.575	0.0148161
806.653	0.0149473
806.731	0.0148054
806.809	0.0148602
806.887	0.0147826
806.965	0.0147126
807.043	0.0148605
807.121	0.0147771
807.200	0.0147286
807.278	0.0148246
807.356	0.0149850
807.434	0.0147781
807.512	0.0147094
807.590	0.0147005
807.668	0.0145872
807.746	0.0146399
807.825	0.0147110
807.903	0.0147260
807.981	0.0148457
808.059	0.0146870
808.137	0.0145605
808.215	0.0148507
808.293	0.0147251
808.371	0.0147692
808.450	0.0147426
808.528	0.0148464
808.606	0.0147574
808.684	0.0147987
808.762	0.0148148
808.840	0.0148664
808.918	0.0146671
808.996	0.0146124
809.075	0.0146939
809.153	0.0146705
809.231	0.0146853
809.309	0.0146970
809.387	0.0146843
809.465	0.0146388
809.543	0.0146713
809.621	0.0147194
809.700	0.0145372
809.778	0.0146274
809.856	0.0146826
809.934	0.0146535
810.012	0.0147564
810.090	0.0146466
810.168	0.0146602
810.246	0.0147591
810.325	0.0148410
810.403	0.0147849
810.481	0.0147556
810.559	0.0146400
810.637	0.0146140
810.715	0.0146264
810.793	0.0147414
810.871	0.0147400
810.950	0.0148177
811.028	0.0148020
811.106	0.0147593
811.184	0.0147421
811.262	0.0147189
811.340	0.0146312
811.418	0.0145877
811.496	0.0147295
811.575	0.0150713
811.653	0.0147392
811.731	0.0147137
811.809	0.0147620
811.887	0.0146829
811.965	0.0148353
812.043	0.0147569
812.121	0.0147226
812.200	0.0146008
812.278	0.0148116
812.356	0.0147438
812.434	0.0147321
812.512	0.0145987
812.590	0.0146044
812.668	0.0145619
812.746	0.0145815
812.825	0.0146213
812.903	0.0147620
812.981	0.0147483
813.059	0.0146204
813.137	0.0148529
813.215	0.0145526
813.293	0.0146652
813.371	0.0145985
813.450	0.0146041
813.528	0.0146063
813.606	0.0148025
813.684	0.0146564
813.762	0.0146637
813.840	0.0146384
813.918	0.0147215
813.996	0.0145969
814.075	0.0146532
814.153	0.0146481
814.231	0.0147882
814.309	0.0147861
814.387	0.0147414
814.465	0.0146420
814.543	0.0146231
814.621	0.0147801
814.700	0.0147703
814.778	0.0147446
814.856	0.0148289
814.934	0.0147784
815.012	0.0147433
815.090	0.0147021
815.168	0.0147164
815.246	0.0146807
815.325	0.0146751
815.403	0.0148035
815.481	0.0147275
815.559	0.0147153
815.637	0.0147445
815.715	0.0147015
815.793	0.0148392
815.871	0.0147821
815.950	0.0147129
816.028	0.0147865
816.106	0.0147950
816.184	0.0146574
816.262	0.0148270
816.340	0.0148440
816.418	0.0146468
816.496	0.0147704
816.575	0.0147443
816.653	0.0147005
816.731	0.0146616
816.809	0.0146455
816.887	0.0146005
816.965	0.0145664
817.043	0.0147147
817.121	0.0146279
817.200	0.0145531
817.278	0.0146740
817.356	0.0145846
817.434	0.0145770
817.512	0.0146357
817.590	0.0146492
817.668	0.0146191
817.746	0.0146106
817.825	0.0146758
817.903	0.0146552
817.981	0.0146283
818.059	0.0147227
818.137	0.0148756
818.215	0.0145950
818.293	0.0145649
818.371	0.0145567
818.450	0.0145816
818.528	0.0146393
818.606	0.0146478
818.684	0.0145471
818.762	0.0146943
818.840	0.0146854
818.918	0.0146886
818.996	0.0147803
819.075	0.0148287
819.153	0.0147777
819.231	0.0147208
819.309	0.0148728
819.387	0.0147220
819.465	0.0146888
819.543	0.0147927
819.621	0.0146463
819.700	0.0147262
819.778	0.0147430
819.856	0.0148000
819.934	0.0147182
820.012	0.0147670
820.090	0.0147700
820.168	0.0146545
820.246	0.0147466
820.325	0.0148389
820.403	0.0148549
820.481	0.0146497
820.559	0.0146253
820.637	0.0147250
820.715	0.0148478
820.793	0.0147710
820.871	0.0146654
820.950	0.0147784
821.028	0.0147810
821.106	0.0147689
821.184	0.0146647
821.262	0.0148447
821.340	0.0148480
821.418	0.0147199
821.496	0.0147425
821.575	0.0147287
821.653	0.0147658
821.731	0.0148675
821.809	0.0147189
821.887	0.0147717
821.965	0.0146996
822.043	0.0147668
822.121	0.0147650
822.200	0.0146650
822.278	0.0146502
822.356	0.0147806
822.434	0.0146813
822.512	0.0147036
822.590	0.0145956
822.668	0.0146735
822.746	0.0145971
822.825	0.0147059
822.903	0.0146529
822.981	0.0146931
823.059	0.0145730
823.137	0.0146367
823.215	0.0147620
823.293	0.0148653
823.371	0.0147823
823.450	0.0148145
823.528	0.0147895
823.606	0.0147459
823.684	0.0147487
823.762	0.0146999
823.840	0.0148174
823.918	0.0148799
823.996	0.0147906
824.075	0.0146970
824.153	0.0146896
824.231	0.0147980
824.309	0.0146627
824.387	0.0147057
824.465	0.0147480
824.543	0.0147209
824.621	0.0149177
824.700	0.0146745
824.778	0.0148264
824.856	0.0147281
824.934	0.0148215
825.012	0.0147846
825.090	0.0148949
825.168	0.0148341
825.246	0.0147690
825.325	0.0147647
825.403	0.0147414
825.481	0.0148268
825.559	0.0148155
825.637	0.0147128
825.715	0.0147301
825.793	0.0147141
825.871	0.0147607
825.950	0.0146796
826.028	0.0146702
826.106	0.0146780
826.184	0.0148055
826.262	0.0146796
826.340	0.0147610
826.418	0.0149171
826.496	0.0147403
826.575	0.0148344
826.653	0.0150224
826.731	0.0148572
826.809	0.0146869
826.887	0.0147944
826.965	0.0147009
827.043	0.0147134
827.121	0.0147676
827.200	0.0146827
827.278	0.0148515
827.356	0.0147738
827.434	0.0147401
827.512	0.0147417
827.590	0.0147035
827.668	0.0148098
827.746	0.0147743
827.825	0.0147717
827.903	0.0148501
827.981	0.0147332
828.059	0.0148355
828.137	0.0148334
828.215	0.0146843
828.293	0.0146464
828.371	0.0146548
828.450	0.0147237
828.528	0.0146405
828.606	0.0146671
828.684	0.0146165
828.762	0.0144863
828.840	0.0145993
828.918	0.0145811
828.996	0.0145142
829.075	0.0146993
829.153	0.0146425
829.231	0.0148051
829.309	0.0147576
829.387	0.0148357
829.465	0.0147980
829.543	0.0147392
829.621	0.0148344
829.700	0.0148030
829.778	0.0148212
829.856	0.0148731
829.934	0.0148403
830.012	0.0147838
830.090	0.0147223
830.168	0.0148766
830.246	0.0148937
830.325	0.0148090
830.403	0.0148248
830.481	0.0149068
830.559	0.0148908
830.637	0.0148780
830.715	0.0147657
830.793	0.0147650
830.871	0.0147741
830.950	0.0146819
831.028	0.0147834
831.106	0.0148429
831.184	0.0149206
831.262	0.0149196
831.340	0.0147142
831.418	0.0147348
831.496	0.0148145
831.575	0.0147288
831.653	0.0147826
831.731	0.0147860
831.809	0.0146435
831.887	0.0147626
831.965	0.0148560
832.043	0.0147280
832.121	0.0147479
832.200	0.0148574
832.278	0.0148083
832.356	0.0147327
832.434	0.0147631
832.512	0.0148196
832.590	0.0147494
832.668	0.0148219
832.746	0.0148133
832.825	0.0147251
832.903	0.0147837
832.981	0.0145892
833.059	0.0146845
833.137	0.0148167
833.215	0.0147553
833.293	0.0147533
833.371	0.0148166
833.450	0.0148946
833.528	0.0147893
833.606	0.0147440
833.684	0.0147399
833.762	0.0148217
833.840	0.0147293
833.918	0.0147359
833.996	0.0147198
834.075	0.0146605
834.153	0.0146640
834.231	0.0145992
834.309	0.0145773
834.387	0.0146085
834.465	0.0147035
834.543	0.0146336
834.621	0.0146298
834.700	0.0148055
834.778	0.0148096
834.856	0.0147711
834.934	0.0147359
835.012	0.0147631
835.090	0.0148331
835.168	0.0147025
835.246	0.0146918
835.325	0.0146882
835.403	0.0147298
835.481	0.0146144
835.559	0.0147407
835.637	0.0148140
835.715	0.0147791
835.793	0.0147479
835.871	0.0146014
835.950	0.0146275
836.028	0.0147092
836.106	0.0146876
836.184	0.0147249
836.262	0.0147019
836.340	0.0146846
836.418	0.0146638
836.496	0.0145837
836.575	0.0145975
836.653	0.0147435
836.731	0.0147079
836.809	0.0146321
836.887	0.0146950
836.965	0.0146204
837.043	0.0147231
837.121	0.0146832
837.200	0.0146675
837.278	0.0147527
837.356	0.0146471
837.434	0.0147431
837.512	0.0147142
837.590	0.0145943
837.668	0.0146942
837.746	0.0146490
837.825	0.0147127
837.903	0.0147908
837.981	0.0148058
838.059	0.0147122
838.137	0.0146857
838.215	0.0147218
838.293	0.0148962
838.371	0.0149058
838.450	0.0149131
838.528	0.0147589
838.606	0.0147395
838.684	0.0146792
838.762	0.0149459
838.840	0.0146933
838.918	0.0146947
838.996	0.0148355
839.075	0.0146895
839.153	0.0147717
839.231	0.0146427
839.309	0.0148061
839.387	0.0148306
839.465	0.0146658
839.543	0.0146665
839.621	0.0148265
839.700	0.0147987
839.778	0.0146725
839.856	0.0147949
839.934	0.0147598
840.012	0.0147063
840.090	0.0147540
840.168	0.0146705
840.246	0.0146545
840.325	0.0146313
840.403	0.0147050
840.481	0.0147552
840.559	0.0147131
840.637	0.0147541
840.715	0.0146875
840.793	0.0146362
840.871	0.0147292
840.950	0.0147754
841.028	0.0146164
841.106	0.0146510
841.184	0.0146613
841.262	0.0147161
841.340	0.0146191
841.418	0.0146094
841.496	0.0146262
841.575	0.0146513
841.653	0.0147751
841.731	0.0148040
841.809	0.0148769
841.887	0.0148291
841.965	0.0147575
842.043	0.0147870
842.121	0.0148132
842.200	0.0148064
842.278	0.0148083
842.356	0.0148640
842.434	0.0146755
842.512	0.0146804
842.590	0.0146789
842.668	0.0147286
842.746	0.0146455
842.825	0.0146080
842.903	0.0146746
842.981	0.0147422
843.059	0.0146107
843.137	0.0146826
843.215	0.0146708
843.293	0.0148161
843.371	0.0147170
843.450	0.0146249
843.528	0.0147543
843.606	0.0147674
843.684	0.0146167
843.762	0.0146503
843.840	0.0147646
843.918	0.0146960
843.996	0.0146516
844.075	0.0147613
844.153	0.0148481
844.231	0.0144898
844.309	0.0146506
844.387	0.0149146
844.465	0.0146709
844.543	0.0147257
844.621	0.0148545
844.700	0.0147581
844.778	0.0147588
844.856	0.0147868
844.934	0.0147225
845.012	0.0147760
845.090	0.0146283
845.168	0.0147328
845.246	0.0148223
845.325	0.0147382
845.403	0.0147411
845.481	0.0146943
845.559	0.0148170
845.637	0.0147824
845.715	0.0147427
845.793	0.0148400
845.871	0.0148230
845.950	0.0148831
846.028	0.0148257
846.106	0.0148286
846.184	0.0148409
846.262	0.0147604
846.340	0.0148522
846.418	0.0150053
846.496	0.0148951
846.575	0.0147366
846.653	0.0148022
846.731	0.0147940
846.809	0.0148790
846.887	0.0149644
846.965	0.0147513
847.043	0.0148363
847.121	0.0147430
847.200	0.0148130
847.278	0.0146619
847.356	0.0147194
847.434	0.0148787
847.512	0.0147671
847.590	0.0148418
847.668	0.0148401
847.746	0.0146856
847.825	0.0146202
847.903	0.0149275
847.981	0.0147784
848.059	0.0147281
848.137	0.0147929
848.215	0.0146884
848.293	0.0147085
848.371	0.0147529
848.450	0.0149081
848.528	0.0147348
848.606	0.0147933
848.684	0.0148489
848.762	0.0148209
848.840	0.0147313
848.918	0.0147289
848.996	0.0145867
849.075	0.0145878
849.153	0.0146689
849.231	0.0146680
849.309	0.0146608
849.387	0.0146712
849.465	0.0145492
849.543	0.0147658
849.621	0.0147124
849.700	0.0146446
849.778	0.0146254
849.856	0.0146923
849.934	0.0147025
850.012	0.0148120
850.090	0.0146843
850.168	0.0146861
850.246	0.0146877
850.325	0.0148132
850.403	0.0148846
850.481	0.0147658
850.559	0.0147568
850.637	0.0148480
850.715	0.0148933
850.793	0.0147799
850.871	0.0148801
850.950	0.0148080
851.028	0.0149590
851.106	0.0148244
851.184	0.0147744
851.262	0.0147685
851.340	0.0149454
851.418	0.0147366
851.496	0.0147547
851.575	0.0149338
851.653	0.0148717
851.731	0.0147699
851.809	0.0148266
851.887	0.0146825
851.965	0.0147208
852.043	0.0146103
852.121	0.0145077
852.200	0.0149007
852.278	0.0147285
852.356	0.0147031
852.434	0.0147977
852.512	0.0147884
852.590	0.0146635
852.668	0.0147781
852.746	0.0148604
852.825	0.0147749
852.903	0.0146527
852.981	0.0146681
853.059	0.0147944
853.137	0.0148193
853.215	0.0147626
853.293	0.0147778
853.371	0.0147833
853.450	0.0147986
853.528	0.0148074
853.606	0.0149644
853.684	0.0150148
853.762	0.0147221
853.840	0.0147618
853.918	0.0148729
853.996	0.0148611
854.075	0.0148782
854.153	0.0148493
854.231	0.0148676
854.309	0.0148234
854.387	0.0147014
854.465	0.0147247
854.543	0.0147694
854.621	0.0146895
854.700	0.0146653
854.778	0.0148183
854.856	0.0147056
854.934	0.0146455
855.012	0.0148154
855.090	0.0146861
855.168	0.0148682
855.246	0.0146978
855.325	0.0146117
855.403	0.0147134
855.481	0.0146891
855.559	0.0147562
855.637	0.0148785
855.715	0.0148953
855.793	0.0149105
855.871	0.0147829
855.950	0.0146854
856.028	0.0147250
856.106	0.0148286
856.184	0.0147620
856.262	0.0147327
856.340	0.0147289
856.418	0.0147100
856.496	0.0146000
856.575	0.0147119
856.653	0.0147076
856.731	0.0146494
856.809	0.0145968
856.887	0.0146487
856.965	0.0146596
857.043	0.0146818
857.121	0.0146301
857.200	0.0146902
857.278	0.0146277
857.356	0.0145850
857.434	0.0146565
857.512	0.0145168
857.590	0.0145433
857.668	0.0145855
857.746	0.0146527
857.825	0.0146000
857.903	0.0144882
857.981	0.0145543
858.059	0.0147246
858.137	0.0146431
858.215	0.0145950
858.293	0.0147712
858.371	0.0146439
858.450	0.0146205
858.528	0.0147274
858.606	0.0148058
858.684	0.0146037
858.762	0.0145629
858.840	0.0148454
858.918	0.0147813
858.996	0.0147530
859.075	0.0145818
859.153	0.0146527
859.231	0.0145692
859.309	0.0145861
859.387	0.0147404
859.465	0.0146733
859.543	0.0146542
859.621	0.0146640
859.700	0.0146078
859.778	0.0146571
859.856	0.0146215
859.934	0.0145251
860.012	0.0146459
860.090	0.0145702
860.168	0.0147360
860.246	0.0146834
860.325	0.0146936
860.403	0.0148414
860.481	0.0148000
860.559	0.0147266
860.637	0.0147827
860.715	0.0146609
860.793	0.0146571
860.871	0.0148073
860.950	0.0146658
861.028	0.0146725
861.106	0.0147578
861.184	0.0146554
861.262	0.0147766
861.340	0.0147849
861.418	0.0146947
861.496	0.0148415
861.575	0.0147214
861.653	0.0147157
861.731	0.0146312
861.809	0.0148985
861.887	0.0148814
861.965	0.0146798
862.043	0.0148782
862.121	0.0147958
862.200	0.0148153
862.278	0.0148540
862.356	0.0146236
862.434	0.0146580
862.512	0.0146789
862.590	0.0147791
862.668	0.0147121
862.746	0.0147987
862.825	0.0148917
862.903	0.0147434
862.981	0.0147468
863.059	0.0149184
863.137	0.0149215
863.215	0.0147926
863.293	0.0148662
863.371	0.0148974
863.450	0.0149501
863.528	0.0147095
863.606	0.0146198
863.684	0.0148011
863.762	0.0148297
863.840	0.0148421
863.918	0.0147506
863.996	0.0147182
864.075	0.0147129
864.153	0.0146633
864.231	0.0146548
864.309	0.0146689
864.387	0.0145628
864.465	0.0146762
864.543	0.0146507
864.621	0.0146368
864.700	0.0146125
864.778	0.0146662
864.856	0.0147200
864.934	0.0148051
865.012	0.0147513
865.090	0.0147948
865.168	0.0146168
865.246	0.0147174
865.325	0.0149444
865.403	0.0146815
865.481	0.0147547
865.559	0.0148454
865.637	0.0147302
865.715	0.0148145
865.793	0.0148175
865.871	0.0147896
865.950	0.0146130
866.028	0.0147816
866.106	0.0148569
866.184	0.0145923
866.262	0.0145876
866.340	0.0145609
866.418	0.0146603
866.496	0.0147775
866.575	0.0147247
866.653	0.0146000
866.731	0.0147851
866.809	0.0146442
866.887	0.0146758
866.965	0.0145953
867.043	0.0146642
867.121	0.0147430
867.200	0.0146473
867.278	0.0147996
867.356	0.0148854
867.434	0.0147769
867.512	0.0147989
867.590	0.0148029
867.668	0.0147952
867.746	0.0148534
867.825	0.0149335
867.903	0.0149178
867.981	0.0148042
868.059	0.0148004
868.137	0.0148420
868.215	0.0148348
868.293	0.0147370
868.371	0.0148275
868.450	0.0147996
868.528	0.0147613
868.606	0.0147852
868.684	0.0148370
868.762	0.0148919
868.840	0.0148501
868.918	0.0146992
868.996	0.0146310
869.075	0.0146737
869.153	0.0147840
869.231	0.0147302
869.309	0.0147304
869.387	0.0147518
869.465	0.0147783
869.543	0.0147017
869.621	0.0147596
869.700	0.0145964
869.778	0.0145907
869.856	0.0147271
869.934	0.0147478
870.012	0.0147195
870.090	0.0145924
870.168	0.0145220
870.246	0.0145510
870.325	0.0146165
870.403	0.0147063
870.481	0.0147172
870.559	0.0147746
870.637	0.0146570
870.715	0.0147584
870.793	0.0148049
870.871	0.0147961
870.950	0.0148934
871.028	0.0147597
871.106	0.0147625
871.184	0.0147832
871.262	0.0149181
871.340	0.0149124
871.418	0.0148169
871.496	0.0146674
871.575	0.0147141
871.653	0.0147209
871.731	0.0146133
871.809	0.0146220
871.887	0.0147523
871.965	0.0147270
872.043	0.0147022
872.121	0.0147764
872.200	0.0148241
872.278	0.0147602
872.356	0.0147453
872.434	0.0146868
872.512	0.0147444
872.590	0.0146543
872.668	0.0146825
872.746	0.0146941
872.825	0.0147469
872.903	0.0146406
872.981	0.0146457
873.059	0.0146006
873.137	0.0146755
873.215	0.0147852
873.293	0.0146275
873.371	0.0147612
873.450	0.0148488
873.528	0.0146844
873.606	0.0147702
873.684	0.0147338
873.762	0.0147447
873.840	0.0147763
873.918	0.0147164
873.996	0.0148225
874.075	0.0147388
874.153	0.0147224
874.231	0.0147196
874.309	0.0149071
874.387	0.0149444
874.465	0.0147357
874.543	0.0147968
874.621	0.0148318
874.700	0.0148384
874.778	0.0147369
874.856	0.0147069
874.934	0.0146970
875.012	0.0148074
875.090	0.0147246
875.168	0.0147785
875.246	0.0146436
875.325	0.0146215
875.403	0.0147052
875.481	0.0146940
875.559	0.0145900
875.637	0.0147758
875.715	0.0146712
875.793	0.0147079
875.871	0.0147259
875.950	0.0146603
876.028	0.0147358
876.106	0.0145878
876.184	0.0146632
876.262	0.0146735
876.340	0.0145913
876.418	0.0146678
876.496	0.0148650
876.575	0.0147170
876.653	0.0145654
876.731	0.0146199
876.809	0.0146834
876.887	0.0146056
876.965	0.0147879
877.043	0.0148436
877.121	0.0146922
877.200	0.0146631
877.278	0.0148701
877.356	0.0148102
877.434	0.0147126
877.512	0.0146867
877.590	0.0147415
877.668	0.0147131
877.746	0.0147553
877.825	0.0146583
877.903	0.0149007
877.981	0.0147731
878.059	0.0147024
878.137	0.0146016
878.215	0.0147107
878.293	0.0147208
878.371	0.0147579
878.450	0.0146935
878.528	0.0147922
878.606	0.0147880
878.684	0.0146822
878.762	0.0146751
878.840	0.0147455
878.918	0.0147175
878.996	0.0145464
879.075	0.0145392
879.153	0.0147091
879.231	0.0147107
879.309	0.0146747
879.387	0.0148039
879.465	0.0147678
879.543	0.0146878
879.621	0.0146317
879.700	0.0146412
879.778	0.0147692
879.856	0.0147305
879.934	0.0146540
880.012	0.0148398
880.090	0.0147169
880.168	0.0147739
880.246	0.0147689
880.325	0.0148233
880.403	0.0147663
880.481	0.0147646
880.559	0.0147595
880.637	0.0146756
880.715	0.0146030
880.793	0.0146496
880.871	0.0146424
880.950	0.0144939
881.028	0.0145712
881.106	0.0146595
881.184	0.0146494
881.262	0.0144998
881.340	0.0145942
881.418	0.0145055
881.496	0.0145558
881.575	0.0147800
881.653	0.0146983
881.731	0.0147329
881.809	0.0146716
881.887	0.0147036
881.965	0.0146551
882.043	0.0147607
882.121	0.0147651
882.200	0.0148928
882.278	0.0148138
882.356	0.0146747
882.434	0.0149253
882.512	0.0148978
882.590	0.0147518
882.668	0.0146861
882.746	0.0147713
882.825	0.0148105
882.903	0.0146729
882.981	0.0147858
883.059	0.0148425
883.137	0.0147371
883.215	0.0147928
883.293	0.0147417
883.371	0.0146923
883.450	0.0148051
883.528	0.0147995
883.606	0.0146972
883.684	0.0147426
883.762	0.0148627
883.840	0.0147756
883.918	0.0147919
883.996	0.0148269
884.075	0.0147163
884.153	0.0147702
884.231	0.0147865
884.309	0.0148032
884.387	0.0148807
884.465	0.0146471
884.543	0.0146911
884.621	0.0146846
884.700	0.0147952
884.778	0.0147253
884.856	0.0146761
884.934	0.0147803
885.012	0.0147676
885.090	0.0146630
885.168	0.0148606
885.246	0.0148704
885.325	0.0148225
885.403	0.0147558
885.481	0.0147878
885.559	0.0148000
885.637	0.0148471
885.715	0.0147747
885.793	0.0147585
885.871	0.0147468
885.950	0.0149233
886.028	0.0146791
886.106	0.0147649
886.184	0.0149650
886.262	0.0146848
886.340	0.0146850
886.418	0.0149096
886.496	0.0147806
886.575	0.0147722
886.653	0.0147849
886.731	0.0146932
886.809	0.0147598
886.887	0.0147504
886.965	0.0148639
887.043	0.0148914
887.121	0.0146555
887.200	0.0147964
887.278	0.0146970
887.356	0.0145450
887.434	0.0146372
887.512	0.0146539
887.590	0.0146972
887.668	0.0147269
887.746	0.0147401
887.825	0.0146844
887.903	0.0147266
887.981	0.0147443
888.059	0.0147730
888.137	0.0147372
888.215	0.0147318
888.293	0.0147157
888.371	0.0146151
888.450	0.0146176
888.528	0.0146910
888.606	0.0146456
888.684	0.0145821
888.762	0.0145664
888.840	0.0147054
888.918	0.0146935
888.996	0.0147002
889.075	0.0146687
889.153	0.0147566
889.231	0.0147728
889.309	0.0146606
889.387	0.0148272
889.465	0.0147405
889.543	0.0147158
889.621	0.0147570
889.700	0.0147576
889.778	0.0147789
889.856	0.0147094
889.934	0.0145863
890.012	0.0147741
890.090	0.0146037
890.168	0.0146394
890.246	0.0146375
890.325	0.0146570
890.403	0.0146299
890.481	0.0145931
890.559	0.0148444
890.637	0.0147919
890.715	0.0148078
890.793	0.0147493
890.871	0.0148796
890.950	0.0149336
891.028	0.0148561
891.106	0.0147247
891.184	0.0149149
891.262	0.0149825
891.340	0.0150043
891.418	0.0147641
891.496	0.0149480
891.575	0.0147912
891.653	0.0147639
891.731	0.0147314
891.809	0.0145371
891.887	0.0145454
891.965	0.0146492
892.043	0.0146104
892.121	0.0147529
892.200	0.0147797
892.278	0.0146601
892.356	0.0146586
892.434	0.0147923
892.512	0.0147842
892.590	0.0147606
892.668	0.0148025
892.746	0.0149996
892.825	0.0150144
892.903	0.0149353
892.981	0.0148850
893.059	0.0148301
893.137	0.0148515
893.215	0.0146767
893.293	0.0147445
893.371	0.0147228
893.450	0.0147005
893.528	0.0147257
893.606	0.0146131
893.684	0.0146632
893.762	0.0146710
893.840	0.0145849
893.918	0.0145157
893.996	0.0148335
894.075	0.0148243
894.153	0.0147915
894.231	0.0146896
894.309	0.0147223
894.387	0.0148127
894.465	0.0147418
894.543	0.0147172
894.621	0.0148721
894.700	0.0147233
894.778	0.0147849
894.856	0.0148293
894.934	0.0147723
895.012	0.0146693
895.090	0.0146497
895.168	0.0146996
895.246	0.0146377
895.325	0.0145140
895.403	0.0144794
895.481	0.0146098
895.559	0.0147021
895.637	0.0146747
895.715	0.0145943
895.793	0.0146328
895.871	0.0147083
895.950	0.0146996
896.028	0.0146952
896.106	0.0147471
896.184	0.0145437
896.262	0.0146169
896.340	0.0145644
896.418	0.0145218
896.496	0.0144147
896.575	0.0145171
896.653	0.0145109
896.731	0.0144502
896.809	0.0146928
896.887	0.0145016
896.965	0.0143317
897.043	0.0146614
897.121	0.0147366
897.200	0.0147607
897.278	0.0147703
897.356	0.0146880
897.434	0.0145869
897.512	0.0148479
897.590	0.0146594
897.668	0.0146029
897.746	0.0146428
897.825	0.0146543
897.903	0.0147199
897.981	0.0146458
898.059	0.0147379
898.137	0.0146235
898.215	0.0147015
898.293	0.0146435
898.371	0.0146814
898.450	0.0145698
898.528	0.0146717
898.606	0.0146631
898.684	0.0146764
898.762	0.0145821
898.840	0.0146572
898.918	0.0147021
898.996	0.0146782
899.075	0.0147044
899.153	0.0147417
899.231	0.0147570
899.309	0.0147777
899.387	0.0148019
899.465	0.0148116
899.543	0.0147015
899.621	0.0146445
899.700	0.0147171
899.778	0.0146564
899.856	0.0146066
899.934	0.0146839
900.012	0.0146946
900.090	0.0146577
900.168	0.0145901
900.246	0.0145981
900.325	0.0146518
900.403	0.0145448
900.481	0.0146048
900.559	0.0147472
900.637	0.0146957
900.715	0.0146830
900.793	0.0147654
900.871	0.0148420
900.950	0.0147064
901.028	0.0148592
901.106	0.0148908
901.184	0.0147747
901.262	0.0148687
901.340	0.0147247
901.418	0.0148595
901.496	0.0148173
901.575	0.0145724
901.653	0.0146926
901.731	0.0148155
901.809	0.0147182
901.887	0.0148362
901.965	0.0146181
902.043	0.0147917
902.121	0.0147835
902.200	0.0147295
902.278	0.0147276
902.356	0.0147631
902.434	0.0149617
902.512	0.0148365
902.590	0.0148965
902.668	0.0148199
902.746	0.0149701
902.825	0.0148735
902.903	0.0149934
902.981	0.0149770
903.059	0.0149648
903.137	0.0148066
903.215	0.0149042
903.293	0.0149587
903.371	0.0147689
903.450	0.0147539
903.528	0.0147414
903.606	0.0146886
903.684	0.0147152
903.762	0.0146649
903.840	0.0147024
903.918	0.0145985
903.996	0.0145515
904.075	0.0146931
904.153	0.0146723
904.231	0.0146886
904.309	0.0146159
904.387	0.0148120
904.465	0.0147202
904.543	0.0146378
904.621	0.0148834
904.700	0.0147636
904.778	0.0147598
904.856	0.0148949
904.934	0.0147889
905.012	0.0148529
905.090	0.0148589
905.168	0.0148150
905.246	0.0148026
905.325	0.0147492
905.403	0.0148753
905.481	0.0147916
905.559	0.0147154
905.637	0.0149338
905.715	0.0146821
905.793	0.0146025
905.871	0.0147457
905.950	0.0147457
906.028	0.0147559
906.106	0.0147240
906.184	0.0146738
906.262	0.0146547
906.340	0.0147452
906.418	0.0146889
906.496	0.0147256
906.575	0.0146367
906.653	0.0147608
906.731	0.0147665
906.809	0.0148991
906.887	0.0148302
906.965	0.0148492
907.043	0.0148846
907.121	0.0148499
907.200	0.0147919
907.278	0.0147215
907.356	0.0147991
907.434	0.0147331
907.512	0.0145886
907.590	0.0147334
907.668	0.0147750
907.746	0.0145949
907.825	0.0146407
907.903	0.0146246
907.981	0.0147234
908.059	0.0147041
908.137	0.0146758
908.215	0.0147176
908.293	0.0145368
908.371	0.0148199
908.450	0.0146045
908.528	0.0147925
908.606	0.0147205
908.684	0.0149004
908.762	0.0146281
908.840	0.0147421
908.918	0.0148037
908.996	0.0147327
909.075	0.0148042
909.153	0.0148034
909.231	0.0149525
909.309	0.0146869
909.387	0.0145513
909.465	0.0148592
909.543	0.0149084
909.621	0.0148661
909.700	0.0146913
909.778	0.0148663
909.856	0.0148921
909.934	0.0148731
910.012	0.0148489
910.090	0.0147148
910.168	0.0147274
910.246	0.0146433
910.325	0.0146495
910.403	0.0147272
910.481	0.0148042
910.559	0.0146897
910.637	0.0146752
910.715	0.0146484
910.793	0.0147364
910.871	0.0146500
910.950	0.0147469
911.028	0.0147555
911.106	0.0147281
911.184	0.0148132
911.262	0.0147370
911.340	0.0148394
911.418	0.0149258
911.496	0.0148609
911.575	0.0147552
911.653	0.0145757
911.731	0.0147224
911.809	0.0147123
911.887	0.0147803
911.965	0.0147076
912.043	0.0146828
912.121	0.0147080
912.200	0.0146120
912.278	0.0145422
912.356	0.0146597
912.434	0.0147271
912.512	0.0146941
912.590	0.0145631
912.668	0.0147353
912.746	0.0148192
912.825	0.0147797
912.903	0.0145289
912.981	0.0147812
913.059	0.0148917
913.137	0.0147350
913.215	0.0147805
913.293	0.0148315
913.371	0.0147551
913.450	0.0147266
913.528	0.0146962
913.606	0.0147065
913.684	0.0146204
913.762	0.0148216
913.840	0.0146747
913.918	0.0147354
913.996	0.0145692
914.075	0.0146601
914.153	0.0147080
914.231	0.0147784
914.309	0.0147864
914.387	0.0147652
914.465	0.0146707
914.543	0.0146964
914.621	0.0147809
914.700	0.0146707
914.778	0.0148547
914.856	0.0147372
914.934	0.0147652
915.012	0.0149168
915.090	0.0148616
915.168	0.0146951
915.246	0.0147136
915.325	0.0147539
915.403	0.0147772
915.481	0.0149574
915.559	0.0148387
915.637	0.0147875
915.715	0.0147672
915.793	0.0147382
915.871	0.0147164
915.950	0.0146809
916.028	0.0146787
916.106	0.0148788
916.184	0.0147566
916.262	0.0146673
916.340	0.0148012
916.418	0.0147172
916.496	0.0146892
916.575	0.0147332
916.653	0.0146993
916.731	0.0146758
916.809	0.0147632
916.887	0.0147170
916.965	0.0147675
917.043	0.0148135
917.121	0.0148521
917.200	0.0147417
917.278	0.0147864
917.356	0.0147781
917.434	0.0148233
917.512	0.0147292
917.590	0.0148159
917.668	0.0145865
917.746	0.0147327
917.825	0.0147427
917.903	0.0148624
917.981	0.0145055
918.059	0.0145655
918.137	0.0145595
918.215	0.0147050
918.293	0.0146899
918.371	0.0145220
918.450	0.0146633
918.528	0.0146931
918.606	0.0147295
918.684	0.0147108
918.762	0.0147559
918.840	0.0147128
918.918	0.0146619
918.996	0.0147602
919.075	0.0147935
919.153	0.0146044
919.231	0.0146938
919.309	0.0145788
919.387	0.0146204
919.465	0.0147950
919.543	0.0146210
919.621	0.0146587
919.700	0.0147232
919.778	0.0146001
919.856	0.0146031
919.934	0.0146362
920.012	0.0145702
920.090	0.0146408
920.168	0.0146561
920.246	0.0146665
920.325	0.0146433
920.403	0.0146909
920.481	0.0146207
920.559	0.0145622
920.637	0.0145680
920.715	0.0146197
920.793	0.0147324
920.871	0.0144510
920.950	0.0144855
921.028	0.0146500
921.106	0.0145589
921.184	0.0145419
921.262	0.0146883
921.340	0.0145077
921.418	0.0143990
921.496	0.0144801
921.575	0.0146148
921.653	0.0145847
921.731	0.0146215
921.809	0.0146580
921.887	0.0145211
921.965	0.0145961
922.043	0.0144878
922.121	0.0144836
922.200	0.0147401
922.278	0.0144747
922.356	0.0145862
922.434	0.0145905
922.512	0.0146978
922.590	0.0146442
922.668	0.0145772
922.746	0.0145753
922.825	0.0145478
922.903	0.0147363
922.981	0.0147750
923.059	0.0146193
923.137	0.0148037
923.215	0.0147421
923.293	0.0146933
923.371	0.0147468
923.450	0.0146793
923.528	0.0148084
923.606	0.0147075
923.684	0.0146039
923.762	0.0147066
923.840	0.0147489
923.918	0.0146401
923.996	0.0146724
924.075	0.0146847
924.153	0.0146835
924.231	0.0146712
924.309	0.0147450
924.387	0.0145746
924.465	0.0147364
924.543	0.0147758
924.621	0.0146718
924.700	0.0145320
924.778	0.0146642
924.856	0.0148063
924.934	0.0147854
925.012	0.0146980
925.090	0.0146438
925.168	0.0147476
925.246	0.0147572
925.325	0.0146371
925.403	0.0146048
925.481	0.0146866
925.559	0.0147434
925.637	0.0147668
925.715	0.0147809
925.793	0.0147474
925.871	0.0146796
925.950	0.0147107
926.028	0.0148064
926.106	0.0147612
926.184	0.0146574
926.262	0.0147785
926.340	0.0148446
926.418	0.0147910
926.496	0.0147235
926.575	0.0147284
926.653	0.0146564
926.731	0.0147231
926.809	0.0147070
926.887	0.0147379
926.965	0.0148335
927.043	0.0147224
927.121	0.0146307
927.200	0.0147488
927.278	0.0149773
927.356	0.0148709
927.434	0.0148154
927.512	0.0147803
927.590	0.0148318
927.668	0.0148006
927.746	0.0147837
927.825	0.0150256
927.903	0.0147543
927.981	0.0148169
928.059	0.0147212
928.137	0.0146680
928.215	0.0148022
928.293	0.0147130
928.371	0.0146819
928.450	0.0145853
928.528	0.0146957
928.606	0.0148468
928.684	0.0147646
928.762	0.0147757
928.840	0.0147036
928.918	0.0146255
928.996	0.0147738
929.075	0.0148945
929.153	0.0149410
929.231	0.0148325
929.309	0.0147844
929.387	0.0147017
929.465	0.0147597
929.543	0.0147203
929.621	0.0149170
929.700	0.0148580
929.778	0.0148240
929.856	0.0149119
929.934	0.0147919
930.012	0.0147245
930.090	0.0147797
930.168	0.0148302
930.246	0.0147053
930.325	0.0147618
930.403	0.0147466
930.481	0.0148929
930.559	0.0147697
930.637	0.0147106
930.715	0.0147604
930.793	0.0148497
930.871	0.0149865
930.950	0.0147869
931.028	0.0148109
931.106	0.0150834
931.184	0.0149934
931.262	0.0149707
931.340	0.0148897
931.418	0.0148975
931.496	0.0149518
931.575	0.0150153
931.653	0.0148776
931.731	0.0148554
931.809	0.0148211
931.887	0.0147659
931.965	0.0148262
932.043	0.0148640
932.121	0.0147574
932.200	0.0148853
932.278	0.0147988
932.356	0.0147131
932.434	0.0148499
932.512	0.0148242
932.590	0.0148636
932.668	0.0147475
932.746	0.0148051
932.825	0.0149487
932.903	0.0148515
932.981	0.0147160
933.059	0.0147937
933.137	0.0148009
933.215	0.0148634
933.293	0.0148212
933.371	0.0148407
933.450	0.0146655
933.528	0.0148013
933.606	0.0148817
933.684	0.0147215
933.762	0.0147989
933.840	0.0148125
933.918	0.0148624
933.996	0.0148584
934.075	0.0148289
934.153	0.0147834
934.231	0.0147888
934.309	0.0149062
934.387	0.0147425
934.465	0.0147576
934.543	0.0148022
934.621	0.0148139
934.700	0.0148231
934.778	0.0148757
934.856	0.0148761
934.934	0.0147016
935.012	0.0147810
935.090	0.0147752
935.168	0.0149100
935.246	0.0147573
935.325	0.0148611
935.403	0.0147561
935.481	0.0147446
935.559	0.0147491
935.637	0.0148489
935.715	0.0147015
935.793	0.0147191
935.871	0.0147087
935.950	0.0147802
936.028	0.0146928
936.106	0.0148582
936.184	0.0146972
936.262	0.0148598
936.340	0.0149441
936.418	0.0146159
936.496	0.0147308
936.575	0.0146601
936.653	0.0146288
936.731	0.0146355
936.809	0.0146001
936.887	0.0146727
936.965	0.0145812
937.043	0.0145434
937.121	0.0146490
937.200	0.0147826
937.278	0.0146892
937.356	0.0146632
937.434	0.0146666
937.512	0.0145646
937.590	0.0146267
937.668	0.0147440
937.746	0.0146454
937.825	0.0146499
937.903	0.0146473
937.981	0.0146024
938.059	0.0146416
938.137	0.0146410
938.215	0.0147939
938.293	0.0146990
938.371	0.0147992
938.450	0.0146938
938.528	0.0146981
938.606	0.0148561
938.684	0.0148007
938.762	0.0147771
938.840	0.0147478
938.918	0.0147160
938.996	0.0146754
939.075	0.0147232
939.153	0.0148291
939.231	0.0146899
939.309	0.0147267
939.387	0.0146867
939.465	0.0146043
939.543	0.0147474
939.621	0.0147196
939.700	0.0147557
939.778	0.0146054
939.856	0.0147488
939.934	0.0146376
940.012	0.0146812
940.090	0.0146665
940.168	0.0147768
940.246	0.0148065
940.325	0.0147189
940.403	0.0146769
940.481	0.0146989
940.559	0.0146682
940.637	0.0147923
940.715	0.0147942
940.793	0.0148162
940.871	0.0147572
940.950	0.0146449
941.028	0.0147321
941.106	0.0147447
941.184	0.0147438
941.262	0.0147652
941.340	0.0147031
941.418	0.0145667
941.496	0.0147543
941.575	0.0147946
941.653	0.0147602
941.731	0.0147265
941.809	0.0146904
941.887	0.0146667
941.965	0.0146092
942.043	0.0146584
942.121	0.0146647
942.200	0.0146073
942.278	0.0146819
942.356	0.0147399
942.434	0.0147498
942.512	0.0146113
942.590	0.0146339
942.668	0.0146661
942.746	0.0147085
942.825	0.0147021
942.903	0.0146391
942.981	0.0147118
943.059	0.0145699
943.137	0.0146520
943.215	0.0144963
943.293	0.0146252
943.371	0.0147015
943.450	0.0146110
943.528	0.0144746
943.606	0.0146568
943.684	0.0146379
943.762	0.0146818
943.840	0.0146918
943.918	0.0147273
943.996	0.0145811
944.075	0.0146342
944.153	0.0145629
944.231	0.0145338
944.309	0.0146945
944.387	0.0145841
944.465	0.0146220
944.543	0.0147143
944.621	0.0146100
944.700	0.0146618
944.778	0.0144578
944.856	0.0146513
944.934	0.0146215
945.012	0.0144966
945.090	0.0144910
945.168	0.0146646
945.246	0.0145996
945.325	0.0145181
945.403	0.0147277
945.481	0.0146497
945.559	0.0146443
945.637	0.0146579
945.715	0.0148014
945.793	0.0147260
945.871	0.0147081
945.950	0.0146703
946.028	0.0147495
946.106	0.0147375
946.184	0.0147134
946.262	0.0148191
946.340	0.0146999
946.418	0.0146974
946.496	0.0147794
946.575	0.0147930
946.653	0.0147659
946.731	0.0147615
946.809	0.0148843
946.887	0.0148054
946.965	0.0147587
947.043	0.0147182
947.121	0.0147517
947.200	0.0146602
947.278	0.0147347
947.356	0.0147068
947.434	0.0147211
947.512	0.0146525
947.590	0.0148146
947.668	0.0147392
947.746	0.0146111
947.825	0.0148169
947.903	0.0147612
947.981	0.0147501
948.059	0.0146819
948.137	0.0146674
948.215	0.0146700
948.293	0.0146389
948.371	0.0147591
948.450	0.0147907
948.528	0.0146391
948.606	0.0148105
948.684	0.0146788
948.762	0.0146368
948.840	0.0147205
948.918	0.0147694
948.996	0.0147108
949.075	0.0147598
949.153	0.0147595
949.231	0.0147637
949.309	0.0147616
949.387	0.0147391
949.465	0.0147076
949.543	0.0148634
949.621	0.0148221
949.700	0.0147995
949.778	0.0147736
949.856	0.0146231
949.934	0.0146396
950.012	0.0147265
950.090	0.0147731
950.168	0.0147559
950.246	0.0147698
950.325	0.0147356
950.403	0.0146575
950.481	0.0148106
950.559	0.0148650
950.637	0.0148381
950.715	0.0149522
950.793	0.0147448
950.871	0.0147233
950.950	0.0149129
951.028	0.0149786
951.106	0.0148539
951.184	0.0148868
951.262	0.0149000
951.340	0.0147989
951.418	0.0149506
951.496	0.0146725
951.575	0.0146854
951.653	0.0147762
951.731	0.0147894
951.809	0.0147977
951.887	0.0146539
951.965	0.0146019
952.043	0.0146677
952.121	0.0146096
952.200	0.0145572
952.278	0.0146389
952.356	0.0147357
952.434	0.0146988
952.512	0.0146100
952.590	0.0146810
952.668	0.0147065
952.746	0.0148130
952.825	0.0146688
952.903	0.0146725
952.981	0.0147465
953.059	0.0147865
953.137	0.0146609
953.215	0.0147517
953.293	0.0147463
953.371	0.0146959
953.450	0.0147294
953.528	0.0147851
953.606	0.0146661
953.684	0.0147826
953.762	0.0148344
953.840	0.0146957
953.918	0.0148880
953.996	0.0149058
954.075	0.0147785
954.153	0.0148115
954.231	0.0146253
954.309	0.0147520
954.387	0.0149613
954.465	0.0148395
954.543	0.0146265
954.621	0.0147316
954.700	0.0148215
954.778	0.0149149
954.856	0.0148043
954.934	0.0146342
955.012	0.0147124
955.090	0.0146706
955.168	0.0147547
955.246	0.0147161
955.325	0.0146959
955.403	0.0146216
955.481	0.0146739
955.559	0.0146545
955.637	0.0146064
955.715	0.0147143
955.793	0.0146843
955.871	0.0146580
955.950	0.0147018
956.028	0.0147224
956.106	0.0148092
956.184	0.0146769
956.262	0.0146832
956.340	0.0148429
956.418	0.0146841
956.496	0.0146339
956.575	0.0146230
956.653	0.0146874
956.731	0.0147169
956.809	0.0147751
956.887	0.0147832
956.965	0.0148038
957.043	0.0146810
957.121	0.0147627
957.200	0.0146513
957.278	0.0147470
957.356	0.0148348
957.434	0.0147826
957.512	0.0148359
957.590	0.0145362
957.668	0.0146266
957.746	0.0147517
957.825	0.0147073
957.903	0.0147272
957.981	0.0146658
958.059	0.0145845
958.137	0.0145023
958.215	0.0146040
958.293	0.0147674
958.371	0.0146952
958.450	0.0147595
958.528	0.0146896
958.606	0.0147350
958.684	0.0148087
958.762	0.0145910
958.840	0.0148054
958.918	0.0149023
958.996	0.0146330
959.075	0.0148315
959.153	0.0148620
959.231	0.0148098
959.309	0.0147548
959.387	0.0147164
959.465	0.0148132
959.543	0.0147550
959.621	0.0146989
959.700	0.0147631
959.778	0.0148636
959.856	0.0147062
959.934	0.0147546
960.012	0.0147543
960.090	0.0145991
960.168	0.0146832
960.246	0.0146924
960.325	0.0145811
960.403	0.0145529
960.481	0.0146563
960.559	0.0145926
960.637	0.0146237
960.715	0.0145581
960.793	0.0145638
960.871	0.0147049
960.950	0.0148563
961.028	0.0146949
961.106	0.0147224
961.184	0.0147112
961.262	0.0147321
961.340	0.0147206
961.418	0.0147985
961.496	0.0148252
961.575	0.0146886
961.653	0.0146667
961.731	0.0148234
961.809	0.0147290
961.887	0.0146952
961.965	0.0147304
962.043	0.0148222
962.121	0.0148154
962.200	0.0147062
962.278	0.0146796
962.356	0.0148521
962.434	0.0145988
962.512	0.0147305
962.590	0.0147418
962.668	0.0147661
962.746	0.0147914
962.825	0.0146630
962.903	0.0146780
962.981	0.0146749
963.059	0.0146909
963.137	0.0147625
963.215	0.0147485
963.293	0.0147636
963.371	0.0145805
963.450	0.0146799
963.528	0.0147118
963.606	0.0146497
963.684	0.0146857
963.762	0.0147633
963.840	0.0146687
963.918	0.0144905
963.996	0.0146465
964.075	0.0146432
964.153	0.0146673
964.231	0.0147764
964.309	0.0145695
964.387	0.0145447
964.465	0.0145460
964.543	0.0147428
964.621	0.0146841
964.700	0.0145432
964.778	0.0147564
964.856	0.0146820
964.934	0.0147877
965.012	0.0145775
965.090	0.0147341
965.168	0.0148244
965.246	0.0148672
965.325	0.0147095
965.403	0.0147538
965.481	0.0147500
965.559	0.0146889
965.637	0.0147242
965.715	0.0145229
965.793	0.0146857
965.871	0.0147718
965.950	0.0146138
966.028	0.0147343
966.106	0.0147601
966.184	0.0145533
966.262	0.0146143
966.340	0.0146492
966.418	0.0146004
966.496	0.0145515
966.575	0.0147272
966.653	0.0146574
966.731	0.0146667
966.809	0.0146639
966.887	0.0147048
966.965	0.0148730
967.043	0.0146943
967.121	0.0147173
967.200	0.0148009
967.278	0.0147050
967.356	0.0146676
967.434	0.0147892
967.512	0.0147088
967.590	0.0148658
967.668	0.0148121
967.746	0.0147411
967.825	0.0147553
967.903	0.0147073
967.981	0.0147441
968.059	0.0147240
968.137	0.0147912
968.215	0.0147387
968.293	0.0147088
968.371	0.0147131
968.450	0.0147163
968.528	0.0147411
968.606	0.0146351
968.684	0.0147960
968.762	0.0146770
968.840	0.0147495
968.918	0.0145865
968.996	0.0147483
969.075	0.0147016
969.153	0.0148381
969.231	0.0148481
969.309	0.0148457
969.387	0.0146593
969.465	0.0147333
969.543	0.0147182
969.621	0.0147313
969.700	0.0147615
969.778	0.0148501
969.856	0.0148546
969.934	0.0147948
970.012	0.0147821
970.090	0.0148589
970.168	0.0146664
970.246	0.0147247
970.325	0.0145947
970.403	0.0148280
970.481	0.0148418
970.559	0.0146987
970.637	0.0147565
970.715	0.0148550
970.793	0.0147031
970.871	0.0146883
970.950	0.0147345
971.028	0.0146944
971.106	0.0147298
971.184	0.0147157
971.262	0.0147383
971.340	0.0148002
971.418	0.0146667
971.496	0.0147513
971.575	0.0147166
971.653	0.0148138
971.731	0.0146113
971.809	0.0147044
971.887	0.0146907
971.965	0.0147295
972.043	0.0146272
972.121	0.0147624
972.200	0.0146487
972.278	0.0147382
972.356	0.0147115
972.434	0.0146419
972.512	0.0147390
972.590	0.0147767
972.668	0.0148436
972.746	0.0147282
972.825	0.0147087
972.903	0.0146871
972.981	0.0146717
973.059	0.0147220
973.137	0.0147918
973.215	0.0148901
973.293	0.0148017
973.371	0.0148006
973.450	0.0148916
973.528	0.0148199
973.606	0.0148397
973.684	0.0147946
973.762	0.0148836
973.840	0.0147823
973.918	0.0146254
973.996	0.0147876
974.075	0.0147558
974.153	0.0147845
974.231	0.0148677
974.309	0.0147005
974.387	0.0146369
974.465	0.0147253
974.543	0.0146662
974.621	0.0147494
974.700	0.0146606
974.778	0.0146202
974.856	0.0146613
974.934	0.0146969
975.012	0.0146737
975.090	0.0147045
975.168	0.0147551
975.246	0.0146444
975.325	0.0146556
975.403	0.0147272
975.481	0.0147240
975.559	0.0146781
975.637	0.0147554
975.715	0.0147009
975.793	0.0146777
975.871	0.0146761
975.950	0.0146949
976.028	0.0145969
976.106	0.0146118
976.184	0.0147116
976.262	0.0147137
976.340	0.0147694
976.418	0.0147645
976.496	0.0147238
976.575	0.0146803
976.653	0.0146145
976.731	0.0147413
976.809	0.0147954
976.887	0.0146530
976.965	0.0146557
977.043	0.0147327
977.121	0.0147960
977.200	0.0145139
977.278	0.0147273
977.356	0.0147181
977.434	0.0146159
977.512	0.0147480
977.590	0.0146094
977.668	0.0146816
977.746	0.0146889
977.825	0.0146918
977.903	0.0147005
977.981	0.0147937
978.059	0.0147655
978.137	0.0147091
978.215	0.0147688
978.293	0.0147549
978.371	0.0148293
978.450	0.0147797
978.528	0.0147557
978.606	0.0147035
978.684	0.0148151
978.762	0.0148277
978.840	0.0145901
978.918	0.0147131
978.996	0.0146861
979.075	0.0146333
979.153	0.0147031
979.231	0.0147951
979.309	0.0146801
979.387	0.0147343
979.465	0.0148039
979.543	0.0148098
979.621	0.0148555
979.700	0.0147668
979.778	0.0147861
979.856	0.0148824
979.934	0.0147644
980.012	0.0148540
980.090	0.0147195
980.168	0.0147588
980.246	0.0148511
980.325	0.0148495
980.403	0.0148198
980.481	0.0147562
980.559	0.0146534
980.637	0.0147805
980.715	0.0147429
980.793	0.0147543
980.871	0.0146508
980.950	0.0147599
981.028	0.0148507
981.106	0.0147503
981.184	0.0146757
981.262	0.0147778
981.340	0.0147111
981.418	0.0148362
981.496	0.0146527
981.575	0.0148006
981.653	0.0147247
981.731	0.0146915
981.809	0.0147520
981.887	0.0147859
981.965	0.0148360
982.043	0.0146648
982.121	0.0148000
982.200	0.0147617
982.278	0.0147873
982.356	0.0146898
982.434	0.0148758
982.512	0.0148028
982.590	0.0147581
982.668	0.0146874
982.746	0.0146848
982.825	0.0145975
982.903	0.0145808
982.981	0.0146571
983.059	0.0145853
983.137	0.0146727
983.215	0.0147145
983.293	0.0145484
983.371	0.0146698
983.450	0.0147519
983.528	0.0147158
983.606	0.0146202
983.684	0.0146834
983.762	0.0148614
983.840	0.0148180
983.918	0.0148406
983.996	0.0148642
984.075	0.0148035
984.153	0.0149389
984.231	0.0147442
984.309	0.0145070
984.387	0.0148187
984.465	0.0146725
984.543	0.0148066
984.621	0.0146927
984.700	0.0147624
984.778	0.0147680
984.856	0.0145549
984.934	0.0145914
985.012	0.0147593
985.090	0.0147076
985.168	0.0147069
985.246	0.0147340
985.325	0.0147234
985.403	0.0147105
985.481	0.0146896
985.559	0.0148548
985.637	0.0147344
985.715	0.0147096
985.793	0.0147071
985.871	0.0146589
985.950	0.0147577
986.028	0.0149698
986.106	0.0147785
986.184	0.0148139
986.262	0.0148431
986.340	0.0148679
986.418	0.0146848
986.496	0.0148099
986.575	0.0147608
986.653	0.0147906
986.731	0.0147742
986.809	0.0146421
986.887	0.0148140
986.965	0.0147704
987.043	0.0146494
987.121	0.0146907
987.200	0.0148779
987.278	0.0146935
987.356	0.0147400
987.434	0.0146989
987.512	0.0147733
987.590	0.0147490
987.668	0.0146543
987.746	0.0146432
987.825	0.0149331
987.903	0.0147922
987.981	0.0148733
988.059	0.0148474
988.137	0.0149045
988.215	0.0149376
988.293	0.0147935
988.371	0.0147776
988.450	0.0149299
988.528	0.0149242
988.606	0.0147850
988.684	0.0148612
988.762	0.0148495
988.840	0.0147591
988.918	0.0147526
988.996	0.0148486
989.075	0.0148051
989.153	0.0148921
989.231	0.0147629
989.309	0.0146450
989.387	0.0146529
989.465	0.0146796
989.543	0.0147025
989.621	0.0146507
989.700	0.0146951
989.778	0.0147455
989.856	0.0147990
989.934	0.0146509
990.012	0.0147760
990.090	0.0147514
990.168	0.0147367
990.246	0.0146926
990.325	0.0148309
990.403	0.0147771
990.481	0.0147771
990.559	0.0147165
990.637	0.0147753
990.715	0.0148464
990.793	0.0145420
990.871	0.0147533
990.950	0.0146138
991.028	0.0146882
991.106	0.0145622
991.184	0.0146687
991.262	0.0145807
991.340	0.0147439
991.418	0.0145975
991.496	0.0146902
991.575	0.0145583
991.653	0.0146220
991.731	0.0145351
991.809	0.0147338
991.887	0.0146839
991.965	0.0146849
992.043	0.0146646
992.121	0.0146352
992.200	0.0146607
992.278	0.0146571
992.356	0.0148135
992.434	0.0146986
992.512	0.0146802
992.590	0.0147026
992.668	0.0147256
992.746	0.0147492
992.825	0.0148573
992.903	0.0147417
992.981	0.0145858
993.059	0.0146880
993.137	0.0147392
993.215	0.0148344
993.293	0.0145820
993.371	0.0148780
993.450	0.0148512
993.528	0.0146221
993.606	0.0146494
993.684	0.0148034
993.762	0.0147559
993.840	0.0145934
993.918	0.0148022
993.996	0.0148189
994.075	0.0146437
994.153	0.0147935
994.231	0.0147810
994.309	0.0148145
994.387	0.0147996
994.465	0.0147757
994.543	0.0147674
994.621	0.0147115
994.700	0.0147130
994.778	0.0147532
994.856	0.0147181
994.934	0.0148466
995.012	0.0147275
995.090	0.0148671
995.168	0.0148291
995.246	0.0148402
995.325	0.0147991
995.403	0.0146835
995.481	0.0146385
995.559	0.0146577
995.637	0.0147163
995.715	0.0147028
995.793	0.0146117
995.871	0.0147306
995.950	0.0147478
996.028	0.0146667
996.106	0.0145428
996.184	0.0147863
996.262	0.0147002
996.340	0.0147548
996.418	0.0150516
996.496	0.0147204
996.575	0.0148135
996.653	0.0148579
996.731	0.0147304
996.809	0.0148457
996.887	0.0147633
996.965	0.0150234
997.043	0.0147887
997.121	0.0147462
997.200	0.0146886
997.278	0.0147373
997.356	0.0147563
997.434	0.0147802
997.512	0.0146813
997.590	0.0145433
997.668	0.0146117
997.746	0.0147266
997.825	0.0146823
997.903	0.0147095
997.981	0.0146788
998.059	0.0147797
998.137	0.0147755
998.215	0.0146289
998.293	0.0147191
998.371	0.0147514
998.450	0.0147942
998.528	0.0147039
998.606	0.0148052
998.684	0.0148230
998.762	0.0148958
998.840	0.0148323
998.918	0.0147202
