05/04/2022	21:20:58	Ver.	4.1	UNKNOWN
Optical Delay	678.996401	Delta X		0.078125	Sweeps	1	Scan Rate	0/0
Coordinates	Axis 1	NaN	Axis 2	NaN	Axis 3	NaN	Axis 4	NaN	Axis 5	NaN	Axis 6	0.000000
TX Power	0.000000	RX Power	0.000000

678.996	0.0143877
679.075	0.0144429
679.153	0.0142567
679.231	0.0144062
679.309	0.0143764
679.387	0.0143052
679.465	0.0143786
679.543	0.0144203
679.621	0.0142847
679.700	0.0142300
679.778	0.0142513
679.856	0.0142308
679.934	0.0141812
680.012	0.0142685
680.090	0.0142884
680.168	0.0143327
680.246	0.0144042
680.325	0.0143658
680.403	0.0144631
680.481	0.0144497
680.559	0.0143358
680.637	0.0143580
680.715	0.0143364
680.793	0.0144209
680.871	0.0144836
680.950	0.0143858
681.028	0.0144892
681.106	0.0143480
681.184	0.0142981
681.262	0.0144701
681.340	0.0143063
681.418	0.0142986
681.496	0.0143111
681.575	0.0142714
681.653	0.0142989
681.731	0.0144530
681.809	0.0142926
681.887	0.0142724
681.965	0.0143110
682.043	0.0143543
682.121	0.0141797
682.200	0.0144286
682.278	0.0144665
682.356	0.0142757
682.434	0.0145137
682.512	0.0143990
682.590	0.0144288
682.668	0.0144192
682.746	0.0143655
682.825	0.0144069
682.903	0.0144172
682.981	0.0145026
683.059	0.0145192
683.137	0.0144569
683.215	0.0144437
683.293	0.0144886
683.371	0.0142648
683.450	0.0143159
683.528	0.0144156
683.606	0.0143615
683.684	0.0142181
683.762	0.0141661
683.840	0.0143202
683.918	0.0143121
683.996	0.0141837
684.075	0.0142498
684.153	0.0142397
684.231	0.0144301
684.309	0.0143620
684.387	0.0143224
684.465	0.0143713
684.543	0.0143040
684.621	0.0144493
684.700	0.0144669
684.778	0.0145472
684.856	0.0144805
684.934	0.0144225
685.012	0.0144634
685.090	0.0143511
685.168	0.0145310
685.246	0.0144886
685.325	0.0144115
685.403	0.0144827
685.481	0.0144185
685.559	0.0142634
685.637	0.0142561
685.715	0.0142713
685.793	0.0143057
685.871	0.0143568
685.950	0.0144173
686.028	0.0144851
686.106	0.0143175
686.184	0.0141518
686.262	0.0143269
686.340	0.0142799
686.418	0.0142037
686.496	0.0143044
686.575	0.0142316
686.653	0.0142197
686.731	0.0143267
686.809	0.0144218
686.887	0.0142688
686.965	0.0142757
687.043	0.0143494
687.121	0.0144464
687.200	0.0144515
687.278	0.0144305
687.356	0.0142252
687.434	0.0143108
687.512	0.0143717
687.590	0.0144208
687.668	0.0144175
687.746	0.0143601
687.825	0.0145090
687.903	0.0143482
687.981	0.0144442
688.059	0.0144217
688.137	0.0143661
688.215	0.0143221
688.293	0.0144003
688.371	0.0144191
688.450	0.0144389
688.528	0.0143995
688.606	0.0142561
688.684	0.0143362
688.762	0.0142479
688.840	0.0143909
688.918	0.0142377
688.996	0.0143159
689.075	0.0142954
689.153	0.0143105
689.231	0.0142809
689.309	0.0143542
689.387	0.0145042
689.465	0.0143782
689.543	0.0142786
689.621	0.0144187
689.700	0.0143616
689.778	0.0144253
689.856	0.0143335
689.934	0.0144386
690.012	0.0144540
690.090	0.0143806
690.168	0.0144747
690.246	0.0144395
690.325	0.0143078
690.403	0.0142532
690.481	0.0142974
690.559	0.0143197
690.637	0.0144279
690.715	0.0142751
690.793	0.0142332
690.871	0.0143239
690.950	0.0142372
691.028	0.0141329
691.106	0.0142394
691.184	0.0142635
691.262	0.0141322
691.340	0.0142921
691.418	0.0142744
691.496	0.0142955
691.575	0.0142425
691.653	0.0142233
691.731	0.0143829
691.809	0.0142489
691.887	0.0144242
691.965	0.0145573
692.043	0.0143476
692.121	0.0144153
692.200	0.0143979
692.278	0.0142301
692.356	0.0141898
692.434	0.0142664
692.512	0.0142348
692.590	0.0142357
692.668	0.0142641
692.746	0.0141942
692.825	0.0142651
692.903	0.0143379
692.981	0.0140380
693.059	0.0143580
693.137	0.0142738
693.215	0.0141465
693.293	0.0141189
693.371	0.0141665
693.450	0.0142076
693.528	0.0141158
693.606	0.0140887
693.684	0.0140938
693.762	0.0141504
693.840	0.0141389
693.918	0.0142181
693.996	0.0143651
694.075	0.0142063
694.153	0.0144721
694.231	0.0144711
694.309	0.0143880
694.387	0.0146430
694.465	0.0146760
694.543	0.0145483
694.621	0.0146571
694.700	0.0145333
694.778	0.0144141
694.856	0.0144061
694.934	0.0143946
695.012	0.0140517
695.090	0.0141042
695.168	0.0140836
695.246	0.0139096
695.325	0.0138363
695.403	0.0137159
695.481	0.0139230
695.559	0.0139427
695.637	0.0140340
695.715	0.0141622
695.793	0.0142883
695.871	0.0143940
695.950	0.0146031
696.028	0.0148340
696.106	0.0147561
696.184	0.0148744
696.262	0.0147214
696.340	0.0147009
696.418	0.0146163
696.496	0.0143983
696.575	0.0142325
696.653	0.0139646
696.731	0.0138173
696.809	0.0138213
696.887	0.0137916
696.965	0.0138829
697.043	0.0140070
697.121	0.0139366
697.200	0.0141430
697.278	0.0144256
697.356	0.0145808
697.434	0.0145530
697.512	0.0147907
697.590	0.0148661
697.668	0.0149420
697.746	0.0148563
697.825	0.0148581
697.903	0.0147537
697.981	0.0147103
698.059	0.0145454
698.137	0.0141965
698.215	0.0141466
698.293	0.0138814
698.371	0.0136860
698.450	0.0136723
698.528	0.0138838
698.606	0.0137438
698.684	0.0140263
698.762	0.0141054
698.840	0.0142221
698.918	0.0145343
698.996	0.0147468
699.075	0.0150011
699.153	0.0150909
699.231	0.0152734
699.309	0.0153463
699.387	0.0151437
699.465	0.0151202
699.543	0.0149639
699.621	0.0145699
699.700	0.0143112
699.778	0.0140183
699.856	0.0138126
699.934	0.0135968
700.012	0.0133844
700.090	0.0133107
700.168	0.0132829
700.246	0.0134924
700.325	0.0137420
700.403	0.0140717
700.481	0.0142948
700.559	0.0146385
700.637	0.0148128
700.715	0.0152328
700.793	0.0154810
700.871	0.0154993
700.950	0.0154218
701.028	0.0153120
701.106	0.0149906
701.184	0.0146632
701.262	0.0146766
701.340	0.0142352
701.418	0.0139468
701.496	0.0136227
701.575	0.0134457
701.653	0.0134473
701.731	0.0134756
701.809	0.0137099
701.887	0.0137528
701.965	0.0140940
702.043	0.0143889
702.121	0.0145080
702.200	0.0148277
702.278	0.0147318
702.356	0.0152018
702.434	0.0152487
702.512	0.0153038
702.590	0.0153552
702.668	0.0152732
702.746	0.0149395
702.825	0.0149040
702.903	0.0144186
702.981	0.0142506
703.059	0.0140152
703.137	0.0136649
703.215	0.0135722
703.293	0.0134557
703.371	0.0134838
703.450	0.0135040
703.528	0.0137245
703.606	0.0139553
703.684	0.0143410
703.762	0.0146049
703.840	0.0147090
703.918	0.0149383
703.996	0.0149904
704.075	0.0149884
704.153	0.0149847
704.231	0.0146856
704.309	0.0146805
704.387	0.0144746
704.465	0.0142122
704.543	0.0141660
704.621	0.0143623
704.700	0.0140735
704.778	0.0139967
704.856	0.0140826
704.934	0.0141138
705.012	0.0141443
705.090	0.0143013
705.168	0.0142633
705.246	0.0144272
705.325	0.0145531
705.403	0.0146026
705.481	0.0145817
705.559	0.0146867
705.637	0.0147980
705.715	0.0147591
705.793	0.0147517
705.871	0.0145860
705.950	0.0145155
706.028	0.0145000
706.106	0.0142786
706.184	0.0140706
706.262	0.0139969
706.340	0.0139816
706.418	0.0138042
706.496	0.0138492
706.575	0.0140590
706.653	0.0139947
706.731	0.0140521
706.809	0.0142016
706.887	0.0143749
706.965	0.0144309
707.043	0.0144395
707.121	0.0145805
707.200	0.0145401
707.278	0.0147585
707.356	0.0148649
707.434	0.0150921
707.512	0.0150869
707.590	0.0151508
707.668	0.0151842
707.746	0.0149181
707.825	0.0146256
707.903	0.0145757
707.981	0.0142548
708.059	0.0138431
708.137	0.0135220
708.215	0.0133585
708.293	0.0133139
708.371	0.0131611
708.450	0.0131475
708.528	0.0134971
708.606	0.0138348
708.684	0.0140269
708.762	0.0142206
708.840	0.0145676
708.918	0.0148286
708.996	0.0151562
709.075	0.0154353
709.153	0.0153980
709.231	0.0152477
709.309	0.0153041
709.387	0.0152043
709.465	0.0148891
709.543	0.0146980
709.621	0.0144166
709.700	0.0143076
709.778	0.0141479
709.856	0.0137537
709.934	0.0138875
710.012	0.0138319
710.090	0.0135043
710.168	0.0134652
710.246	0.0136545
710.325	0.0135252
710.403	0.0135943
710.481	0.0136938
710.559	0.0137987
710.637	0.0137848
710.715	0.0140223
710.793	0.0141309
710.871	0.0142757
710.950	0.0144023
711.028	0.0146529
711.106	0.0146585
711.184	0.0149352
711.262	0.0150048
711.340	0.0150316
711.418	0.0151649
711.496	0.0151701
711.575	0.0150251
711.653	0.0148407
711.731	0.0146547
711.809	0.0143946
711.887	0.0139916
711.965	0.0137365
712.043	0.0135555
712.121	0.0135462
712.200	0.0135651
712.278	0.0134830
712.356	0.0135670
712.434	0.0137718
712.512	0.0138937
712.590	0.0141472
712.668	0.0143156
712.746	0.0143884
712.825	0.0144569
712.903	0.0145776
712.981	0.0147459
713.059	0.0144651
713.137	0.0144984
713.215	0.0146527
713.293	0.0144332
713.371	0.0144078
713.450	0.0143266
713.528	0.0142789
713.606	0.0142788
713.684	0.0141008
713.762	0.0141273
713.840	0.0142466
713.918	0.0142854
713.996	0.0140904
714.075	0.0141468
714.153	0.0140279
714.231	0.0140735
714.309	0.0141400
714.387	0.0141061
714.465	0.0142113
714.543	0.0141257
714.621	0.0142015
714.700	0.0143826
714.778	0.0145457
714.856	0.0144658
714.934	0.0146423
715.012	0.0146055
715.090	0.0148775
715.168	0.0148062
715.246	0.0148154
715.325	0.0147621
715.403	0.0147755
715.481	0.0147695
715.559	0.0147014
715.637	0.0145373
715.715	0.0145106
715.793	0.0142276
715.871	0.0140285
715.950	0.0141226
716.028	0.0139776
716.106	0.0138917
716.184	0.0138548
716.262	0.0138995
716.340	0.0140617
716.418	0.0140838
716.496	0.0140893
716.575	0.0140891
716.653	0.0141478
716.731	0.0142407
716.809	0.0141363
716.887	0.0141843
716.965	0.0142496
717.043	0.0142368
717.121	0.0143925
717.200	0.0143365
717.278	0.0143895
717.356	0.0145235
717.434	0.0145227
717.512	0.0144395
717.590	0.0146855
717.668	0.0145370
717.746	0.0144435
717.825	0.0143572
717.903	0.0144120
717.981	0.0141724
718.059	0.0143333
718.137	0.0140781
718.215	0.0139127
718.293	0.0140289
718.371	0.0140040
718.450	0.0139771
718.528	0.0139388
718.606	0.0141008
718.684	0.0141684
718.762	0.0143026
718.840	0.0144188
718.918	0.0145473
718.996	0.0145705
719.075	0.0145969
719.153	0.0147840
719.231	0.0148233
719.309	0.0147481
719.387	0.0148846
719.465	0.0148127
719.543	0.0148643
719.621	0.0147710
719.700	0.0147791
719.778	0.0146349
719.856	0.0145103
719.934	0.0145183
720.012	0.0145000
720.090	0.0144096
720.168	0.0142831
720.246	0.0141886
720.325	0.0142487
720.403	0.0142220
720.481	0.0141052
720.559	0.0141980
720.637	0.0141106
720.715	0.0142643
720.793	0.0143441
720.871	0.0143396
720.950	0.0145303
721.028	0.0146171
721.106	0.0147458
721.184	0.0148272
721.262	0.0146793
721.340	0.0147587
721.418	0.0146244
721.496	0.0146144
721.575	0.0145287
721.653	0.0144245
721.731	0.0143110
721.809	0.0141057
721.887	0.0142021
721.965	0.0141014
722.043	0.0139799
722.121	0.0138994
722.200	0.0137829
722.278	0.0138435
722.356	0.0138147
722.434	0.0139053
722.512	0.0139430
722.590	0.0141843
722.668	0.0142450
722.746	0.0142986
722.825	0.0143581
722.903	0.0143795
722.981	0.0143608
723.059	0.0143142
723.137	0.0144559
723.215	0.0144946
723.293	0.0145520
723.371	0.0144527
723.450	0.0145217
723.528	0.0146793
723.606	0.0146512
723.684	0.0146204
723.762	0.0149172
723.840	0.0148243
723.918	0.0148437
723.996	0.0148247
724.075	0.0147756
724.153	0.0145379
724.231	0.0146177
724.309	0.0143710
724.387	0.0143981
724.465	0.0142607
724.543	0.0141121
724.621	0.0139273
724.700	0.0138139
724.778	0.0137354
724.856	0.0136415
724.934	0.0138749
725.012	0.0138713
725.090	0.0139550
725.168	0.0140695
725.246	0.0142995
725.325	0.0143599
725.403	0.0144696
725.481	0.0145460
725.559	0.0145979
725.637	0.0147348
725.715	0.0146992
725.793	0.0147118
725.871	0.0147593
725.950	0.0147122
726.028	0.0145686
726.106	0.0145752
726.184	0.0144520
726.262	0.0142532
726.340	0.0143084
726.418	0.0143044
726.496	0.0142184
726.575	0.0142679
726.653	0.0140387
726.731	0.0141031
726.809	0.0143928
726.887	0.0141985
726.965	0.0143007
727.043	0.0143006
727.121	0.0141747
727.200	0.0142767
727.278	0.0141621
727.356	0.0141512
727.434	0.0140472
727.512	0.0142522
727.590	0.0141320
727.668	0.0142526
727.746	0.0143569
727.825	0.0142722
727.903	0.0143360
727.981	0.0144073
728.059	0.0146481
728.137	0.0146389
728.215	0.0146449
728.293	0.0147193
728.371	0.0147668
728.450	0.0147736
728.528	0.0146452
728.606	0.0146255
728.684	0.0144963
728.762	0.0142843
728.840	0.0142314
728.918	0.0141440
728.996	0.0140021
729.075	0.0138889
729.153	0.0137708
729.231	0.0138860
729.309	0.0139869
729.387	0.0138734
729.465	0.0140018
729.543	0.0141725
729.621	0.0142822
729.700	0.0142482
729.778	0.0144644
729.856	0.0146781
729.934	0.0146004
730.012	0.0146673
730.090	0.0148656
730.168	0.0146329
730.246	0.0147260
730.325	0.0146205
730.403	0.0145946
730.481	0.0144867
730.559	0.0144257
730.637	0.0144689
730.715	0.0144464
730.793	0.0142101
730.871	0.0141682
730.950	0.0142149
731.028	0.0142203
731.106	0.0141116
731.184	0.0139793
731.262	0.0141639
731.340	0.0142265
731.418	0.0141465
731.496	0.0142864
731.575	0.0144241
731.653	0.0143464
731.731	0.0142860
731.809	0.0143459
731.887	0.0142770
731.965	0.0144442
732.043	0.0142636
732.121	0.0144347
732.200	0.0142731
732.278	0.0143197
732.356	0.0142090
732.434	0.0141018
732.512	0.0139870
732.590	0.0140730
732.668	0.0141522
732.746	0.0141557
732.825	0.0142019
732.903	0.0140688
732.981	0.0140672
733.059	0.0140942
733.137	0.0142109
733.215	0.0144073
733.293	0.0144579
733.371	0.0143756
733.450	0.0144379
733.528	0.0144403
733.606	0.0145561
733.684	0.0144232
733.762	0.0143716
733.840	0.0143699
733.918	0.0144582
733.996	0.0143185
734.075	0.0142078
734.153	0.0142860
734.231	0.0142467
734.309	0.0142016
734.387	0.0142152
734.465	0.0142894
734.543	0.0141927
734.621	0.0143129
734.700	0.0143668
734.778	0.0142790
734.856	0.0142558
734.934	0.0143357
735.012	0.0144621
735.090	0.0143787
735.168	0.0143848
735.246	0.0144174
735.325	0.0144721
735.403	0.0144575
735.481	0.0144621
735.559	0.0145404
735.637	0.0145266
735.715	0.0144584
735.793	0.0145055
735.871	0.0145198
735.950	0.0145777
736.028	0.0145255
736.106	0.0143783
736.184	0.0143617
736.262	0.0142300
736.340	0.0142021
736.418	0.0141935
736.496	0.0142518
736.575	0.0141423
736.653	0.0140694
736.731	0.0140532
736.809	0.0142553
736.887	0.0141380
736.965	0.0140584
737.043	0.0142797
737.121	0.0142273
737.200	0.0143828
737.278	0.0143887
737.356	0.0144880
737.434	0.0145406
737.512	0.0146337
737.590	0.0147904
737.668	0.0148401
737.746	0.0146848
737.825	0.0148141
737.903	0.0146880
737.981	0.0148484
738.059	0.0145538
738.137	0.0144802
738.215	0.0144913
738.293	0.0143252
738.371	0.0143553
738.450	0.0143345
738.528	0.0141588
738.606	0.0141164
738.684	0.0142152
738.762	0.0141872
738.840	0.0140990
738.918	0.0141393
738.996	0.0140782
739.075	0.0142184
739.153	0.0141962
739.231	0.0141051
739.309	0.0142654
739.387	0.0141338
739.465	0.0143246
739.543	0.0142994
739.621	0.0142072
739.700	0.0143170
739.778	0.0142723
739.856	0.0142944
739.934	0.0143141
740.012	0.0142924
740.090	0.0145052
740.168	0.0145541
740.246	0.0144807
740.325	0.0143166
740.403	0.0144808
740.481	0.0143090
740.559	0.0143236
740.637	0.0142402
740.715	0.0143993
740.793	0.0142924
740.871	0.0143879
740.950	0.0143209
741.028	0.0143260
741.106	0.0142446
741.184	0.0141014
741.262	0.0143256
741.340	0.0141853
741.418	0.0143595
741.496	0.0142577
741.575	0.0141628
741.653	0.0143627
741.731	0.0143507
741.809	0.0145153
741.887	0.0145318
741.965	0.0145563
742.043	0.0145181
742.121	0.0145992
742.200	0.0145978
742.278	0.0146517
742.356	0.0144843
742.434	0.0146459
742.512	0.0146541
742.590	0.0145638
742.668	0.0146275
742.746	0.0144859
742.825	0.0145432
742.903	0.0143734
742.981	0.0142690
743.059	0.0141782
743.137	0.0143865
743.215	0.0143198
743.293	0.0141838
743.371	0.0143191
743.450	0.0144762
743.528	0.0142121
743.606	0.0142521
743.684	0.0141982
743.762	0.0143337
743.840	0.0142583
743.918	0.0140918
743.996	0.0141932
744.075	0.0142289
744.153	0.0141908
744.231	0.0142435
744.309	0.0142181
744.387	0.0143116
744.465	0.0142866
744.543	0.0142325
744.621	0.0141527
744.700	0.0143198
744.778	0.0142480
744.856	0.0143653
744.934	0.0142957
745.012	0.0144270
745.090	0.0142274
745.168	0.0141899
745.246	0.0143362
745.325	0.0143359
745.403	0.0142181
745.481	0.0143606
745.559	0.0143078
745.637	0.0141811
745.715	0.0142770
745.793	0.0141476
745.871	0.0142370
745.950	0.0143690
746.028	0.0143822
746.106	0.0142709
746.184	0.0142439
746.262	0.0142632
746.340	0.0143016
746.418	0.0143311
746.496	0.0144355
746.575	0.0142403
746.653	0.0141973
746.731	0.0143952
746.809	0.0142474
746.887	0.0144133
746.965	0.0142876
747.043	0.0143800
747.121	0.0145194
747.200	0.0143319
747.278	0.0144221
747.356	0.0143226
747.434	0.0143034
747.512	0.0142928
747.590	0.0142398
747.668	0.0143002
747.746	0.0141676
747.825	0.0142123
747.903	0.0144999
747.981	0.0142891
748.059	0.0142590
748.137	0.0144206
748.215	0.0143427
748.293	0.0142611
748.371	0.0142117
748.450	0.0141788
748.528	0.0140102
748.606	0.0141861
748.684	0.0140913
748.762	0.0140640
748.840	0.0139627
748.918	0.0140359
748.996	0.0141542
749.075	0.0140952
749.153	0.0140089
749.231	0.0141152
749.309	0.0142148
749.387	0.0143182
749.465	0.0144054
749.543	0.0143669
749.621	0.0145068
749.700	0.0143983
749.778	0.0143139
749.856	0.0143938
749.934	0.0146073
750.012	0.0144769
750.090	0.0144979
750.168	0.0143732
750.246	0.0145324
750.325	0.0144457
750.403	0.0143877
750.481	0.0143548
750.559	0.0143839
750.637	0.0143398
750.715	0.0143510
750.793	0.0143217
750.871	0.0143463
750.950	0.0143998
751.028	0.0143449
751.106	0.0144876
751.184	0.0142799
751.262	0.0143224
751.340	0.0144776
751.418	0.0142714
751.496	0.0143092
751.575	0.0142725
751.653	0.0144318
751.731	0.0142886
751.809	0.0143269
751.887	0.0144232
751.965	0.0143005
752.043	0.0142081
752.121	0.0143539
752.200	0.0144244
752.278	0.0142820
752.356	0.0143423
752.434	0.0142902
752.512	0.0142508
752.590	0.0141531
752.668	0.0142463
752.746	0.0141729
752.825	0.0140421
752.903	0.0140285
752.981	0.0141936
753.059	0.0141787
753.137	0.0141087
753.215	0.0140866
753.293	0.0141301
753.371	0.0140656
753.450	0.0141156
753.528	0.0141179
753.606	0.0140543
753.684	0.0143559
753.762	0.0142445
753.840	0.0143123
753.918	0.0143287
753.996	0.0143190
754.075	0.0143444
754.153	0.0144086
754.231	0.0142849
754.309	0.0144093
754.387	0.0144778
754.465	0.0144429
754.543	0.0142696
754.621	0.0144463
754.700	0.0145110
754.778	0.0145146
754.856	0.0145256
754.934	0.0145258
755.012	0.0144263
755.090	0.0144759
755.168	0.0144684
755.246	0.0143546
755.325	0.0143716
755.403	0.0144157
755.481	0.0143668
755.559	0.0143764
755.637	0.0142655
755.715	0.0144221
755.793	0.0143042
755.871	0.0143539
755.950	0.0144203
756.028	0.0142982
756.106	0.0143346
756.184	0.0143550
756.262	0.0144047
756.340	0.0143005
756.418	0.0143064
756.496	0.0143472
756.575	0.0143904
756.653	0.0142867
756.731	0.0141939
756.809	0.0143035
756.887	0.0144354
756.965	0.0144495
757.043	0.0143327
757.121	0.0142833
757.200	0.0145013
757.278	0.0145302
757.356	0.0144227
757.434	0.0143442
757.512	0.0143689
757.590	0.0145004
757.668	0.0142939
757.746	0.0144106
757.825	0.0145678
757.903	0.0145012
757.981	0.0145103
758.059	0.0143804
758.137	0.0145754
758.215	0.0145201
758.293	0.0145441
758.371	0.0146255
758.450	0.0145412
758.528	0.0145502
758.606	0.0145120
758.684	0.0144288
758.762	0.0144296
758.840	0.0143757
758.918	0.0144678
758.996	0.0146043
759.075	0.0144467
759.153	0.0145811
759.231	0.0144567
759.309	0.0143931
759.387	0.0144453
759.465	0.0142007
759.543	0.0143731
759.621	0.0141753
759.700	0.0143027
759.778	0.0142704
759.856	0.0142525
759.934	0.0142798
760.012	0.0142802
760.090	0.0142257
760.168	0.0141026
760.246	0.0141777
760.325	0.0141536
760.403	0.0141932
760.481	0.0141930
760.559	0.0143428
760.637	0.0141666
760.715	0.0142552
760.793	0.0142754
760.871	0.0141801
760.950	0.0141326
761.028	0.0142335
761.106	0.0142227
761.184	0.0142241
761.262	0.0141456
761.340	0.0142407
761.418	0.0141458
761.496	0.0142227
761.575	0.0141203
761.653	0.0143952
761.731	0.0143773
761.809	0.0143120
761.887	0.0143941
761.965	0.0142994
762.043	0.0143113
762.121	0.0143286
762.200	0.0142982
762.278	0.0144478
762.356	0.0144331
762.434	0.0143272
762.512	0.0143990
762.590	0.0145093
762.668	0.0143688
762.746	0.0144137
762.825	0.0144753
762.903	0.0142558
762.981	0.0143951
763.059	0.0144081
763.137	0.0143874
763.215	0.0141647
763.293	0.0142680
763.371	0.0143281
763.450	0.0142922
763.528	0.0141652
763.606	0.0143860
763.684	0.0143387
763.762	0.0142117
763.840	0.0142316
763.918	0.0141640
763.996	0.0142843
764.075	0.0142994
764.153	0.0142603
764.231	0.0141146
764.309	0.0142409
764.387	0.0143372
764.465	0.0142722
764.543	0.0142929
764.621	0.0142431
764.700	0.0141592
764.778	0.0142548
764.856	0.0142254
764.934	0.0142197
765.012	0.0143973
765.090	0.0143508
765.168	0.0142352
765.246	0.0141738
765.325	0.0142368
765.403	0.0142486
765.481	0.0142084
765.559	0.0143588
765.637	0.0142898
765.715	0.0142744
765.793	0.0144555
765.871	0.0144069
765.950	0.0143513
766.028	0.0144185
766.106	0.0145115
766.184	0.0145244
766.262	0.0144928
766.340	0.0145333
766.418	0.0145496
766.496	0.0145039
766.575	0.0145641
766.653	0.0146539
766.731	0.0145092
766.809	0.0145477
766.887	0.0145378
766.965	0.0143092
767.043	0.0144775
767.121	0.0143299
767.200	0.0142928
767.278	0.0143616
767.356	0.0144340
767.434	0.0144787
767.512	0.0143420
767.590	0.0142942
767.668	0.0143266
767.746	0.0143276
767.825	0.0143576
767.903	0.0142699
767.981	0.0143899
768.059	0.0143093
768.137	0.0141843
768.215	0.0141992
768.293	0.0141917
768.371	0.0142051
768.450	0.0142327
768.528	0.0139914
768.606	0.0140893
768.684	0.0141725
768.762	0.0141014
768.840	0.0141831
768.918	0.0142496
768.996	0.0142997
769.075	0.0142307
769.153	0.0143180
769.231	0.0142987
769.309	0.0142500
769.387	0.0143393
769.465	0.0144081
769.543	0.0143753
769.621	0.0142995
769.700	0.0142413
769.778	0.0143674
769.856	0.0142844
769.934	0.0141702
770.012	0.0142570
770.090	0.0144119
770.168	0.0143638
770.246	0.0142537
770.325	0.0142013
770.403	0.0142784
770.481	0.0144417
770.559	0.0143564
770.637	0.0143018
770.715	0.0144244
770.793	0.0144414
770.871	0.0143931
770.950	0.0144702
771.028	0.0145200
771.106	0.0144534
771.184	0.0144232
771.262	0.0143143
771.340	0.0144237
771.418	0.0143922
771.496	0.0144874
771.575	0.0143889
771.653	0.0142982
771.731	0.0143734
771.809	0.0142867
771.887	0.0143718
771.965	0.0143079
772.043	0.0142374
772.121	0.0142301
772.200	0.0141834
772.278	0.0142418
772.356	0.0142392
772.434	0.0142191
772.512	0.0142234
772.590	0.0141328
772.668	0.0141760
772.746	0.0141271
772.825	0.0141891
772.903	0.0142453
772.981	0.0141473
773.059	0.0142451
773.137	0.0142499
773.215	0.0142947
773.293	0.0143233
773.371	0.0143090
773.450	0.0143690
773.528	0.0142873
773.606	0.0141965
773.684	0.0142459
773.762	0.0144849
773.840	0.0144572
773.918	0.0143282
773.996	0.0143837
774.075	0.0144692
774.153	0.0144591
774.231	0.0143884
774.309	0.0144041
774.387	0.0142267
774.465	0.0143427
774.543	0.0141966
774.621	0.0145391
774.700	0.0143952
774.778	0.0142944
774.856	0.0143735
774.934	0.0142632
775.012	0.0143591
775.090	0.0144167
775.168	0.0143525
775.246	0.0143839
775.325	0.0143096
775.403	0.0143579
775.481	0.0143785
775.559	0.0142412
775.637	0.0142119
775.715	0.0142290
775.793	0.0142570
775.871	0.0143304
775.950	0.0143292
776.028	0.0141999
776.106	0.0144242
776.184	0.0144225
776.262	0.0142729
776.340	0.0143379
776.418	0.0143014
776.496	0.0143433
776.575	0.0143318
776.653	0.0143185
776.731	0.0142927
776.809	0.0143732
776.887	0.0142636
776.965	0.0141804
777.043	0.0142030
777.121	0.0142928
777.200	0.0143995
777.278	0.0142929
777.356	0.0142410
777.434	0.0143951
777.512	0.0142790
777.590	0.0144085
777.668	0.0142852
777.746	0.0144164
777.825	0.0143331
777.903	0.0143194
777.981	0.0146442
778.059	0.0144305
778.137	0.0145121
778.215	0.0143970
778.293	0.0145779
778.371	0.0145667
778.450	0.0145516
778.528	0.0145108
778.606	0.0145451
778.684	0.0145374
778.762	0.0144056
778.840	0.0145293
778.918	0.0144810
778.996	0.0144420
779.075	0.0144588
779.153	0.0144685
779.231	0.0143861
779.309	0.0144290
779.387	0.0145243
779.465	0.0143751
779.543	0.0142876
779.621	0.0143632
779.700	0.0144602
779.778	0.0143561
779.856	0.0144407
779.934	0.0143289
780.012	0.0142757
780.090	0.0143943
780.168	0.0143588
780.246	0.0143331
780.325	0.0144705
780.403	0.0145613
780.481	0.0143955
780.559	0.0142656
780.637	0.0144109
780.715	0.0143506
780.793	0.0144341
780.871	0.0143571
780.950	0.0143330
781.028	0.0143473
781.106	0.0143571
781.184	0.0144266
781.262	0.0142143
781.340	0.0142416
781.418	0.0144431
781.496	0.0143907
781.575	0.0142458
781.653	0.0142627
781.731	0.0143193
781.809	0.0144515
781.887	0.0144270
781.965	0.0144293
782.043	0.0143555
782.121	0.0144434
782.200	0.0143312
782.278	0.0142540
782.356	0.0143700
782.434	0.0144047
782.512	0.0144469
782.590	0.0145056
782.668	0.0143413
782.746	0.0141895
782.825	0.0143269
782.903	0.0144933
782.981	0.0143655
783.059	0.0143899
783.137	0.0143942
783.215	0.0144302
783.293	0.0144586
783.371	0.0144421
783.450	0.0144301
783.528	0.0144074
783.606	0.0142873
783.684	0.0142241
783.762	0.0143478
783.840	0.0143185
783.918	0.0143449
783.996	0.0142991
784.075	0.0143712
784.153	0.0142964
784.231	0.0143893
784.309	0.0143909
784.387	0.0142991
784.465	0.0142394
784.543	0.0144272
784.621	0.0142413
784.700	0.0142729
784.778	0.0143590
784.856	0.0144670
784.934	0.0143140
785.012	0.0142868
785.090	0.0145153
785.168	0.0143410
785.246	0.0143460
785.325	0.0143241
785.403	0.0143077
785.481	0.0143331
785.559	0.0144370
785.637	0.0143872
785.715	0.0143722
785.793	0.0144959
785.871	0.0144115
785.950	0.0143587
786.028	0.0143539
786.106	0.0145557
786.184	0.0144855
786.262	0.0143369
786.340	0.0143859
786.418	0.0143143
786.496	0.0143218
786.575	0.0144981
786.653	0.0143828
786.731	0.0143412
786.809	0.0143826
786.887	0.0143734
786.965	0.0144065
787.043	0.0143664
787.121	0.0143914
787.200	0.0143567
787.278	0.0142448
787.356	0.0143188
787.434	0.0143468
787.512	0.0143701
787.590	0.0143394
787.668	0.0144433
787.746	0.0144701
787.825	0.0144723
787.903	0.0143076
787.981	0.0143304
788.059	0.0143599
788.137	0.0144141
788.215	0.0143591
788.293	0.0142187
788.371	0.0142066
788.450	0.0141991
788.528	0.0142553
788.606	0.0142123
788.684	0.0142030
788.762	0.0143887
788.840	0.0140675
788.918	0.0142065
788.996	0.0141375
789.075	0.0141582
789.153	0.0140918
789.231	0.0142963
789.309	0.0141758
789.387	0.0142204
789.465	0.0141735
789.543	0.0141998
789.621	0.0141724
789.700	0.0142687
789.778	0.0142739
789.856	0.0142912
789.934	0.0142709
790.012	0.0141228
790.090	0.0140831
790.168	0.0143290
790.246	0.0142302
790.325	0.0142367
790.403	0.0143193
790.481	0.0142901
790.559	0.0143249
790.637	0.0142831
790.715	0.0142212
790.793	0.0142490
790.871	0.0143240
790.950	0.0143266
791.028	0.0143289
791.106	0.0143222
791.184	0.0143158
791.262	0.0142367
791.340	0.0141885
791.418	0.0141635
791.496	0.0144583
791.575	0.0143077
791.653	0.0141734
791.731	0.0142339
791.809	0.0141937
791.887	0.0143766
791.965	0.0143372
792.043	0.0142770
792.121	0.0142870
792.200	0.0143729
792.278	0.0142274
792.356	0.0143643
792.434	0.0142880
792.512	0.0141763
792.590	0.0143180
792.668	0.0141971
792.746	0.0140437
792.825	0.0144133
792.903	0.0144083
792.981	0.0143385
793.059	0.0143523
793.137	0.0143259
793.215	0.0143573
793.293	0.0143204
793.371	0.0142559
793.450	0.0143600
793.528	0.0143806
793.606	0.0143330
793.684	0.0144128
793.762	0.0144493
793.840	0.0144183
793.918	0.0143364
793.996	0.0143514
794.075	0.0143219
794.153	0.0142947
794.231	0.0143954
794.309	0.0143607
794.387	0.0144823
794.465	0.0143161
794.543	0.0143470
794.621	0.0144181
794.700	0.0143272
794.778	0.0143562
794.856	0.0142809
794.934	0.0143262
795.012	0.0144172
795.090	0.0142682
795.168	0.0142380
795.246	0.0143471
795.325	0.0144081
795.403	0.0142667
795.481	0.0143681
795.559	0.0144828
795.637	0.0141895
795.715	0.0143153
795.793	0.0143382
795.871	0.0141798
795.950	0.0142350
796.028	0.0143290
796.106	0.0143319
796.184	0.0142619
796.262	0.0143307
796.340	0.0142782
796.418	0.0141604
796.496	0.0143070
796.575	0.0141791
796.653	0.0143174
796.731	0.0143166
796.809	0.0142182
796.887	0.0142200
796.965	0.0141663
797.043	0.0142529
797.121	0.0143832
797.200	0.0142491
797.278	0.0142354
797.356	0.0142843
797.434	0.0143552
797.512	0.0143104
797.590	0.0142718
797.668	0.0142820
797.746	0.0144214
797.825	0.0143501
797.903	0.0143290
797.981	0.0144191
798.059	0.0144212
798.137	0.0142777
798.215	0.0144056
798.293	0.0144584
798.371	0.0145191
798.450	0.0144762
798.528	0.0145422
798.606	0.0145422
798.684	0.0145029
798.762	0.0145486
798.840	0.0146596
798.918	0.0146102
798.996	0.0145369
799.075	0.0144458
799.153	0.0144469
799.231	0.0143923
799.309	0.0143571
799.387	0.0143625
799.465	0.0144165
799.543	0.0144063
799.621	0.0144086
799.700	0.0143312
799.778	0.0143150
799.856	0.0143243
799.934	0.0143758
800.012	0.0143202
800.090	0.0144450
800.168	0.0144244
800.246	0.0143898
800.325	0.0145256
800.403	0.0143645
800.481	0.0144730
800.559	0.0144450
800.637	0.0145740
800.715	0.0143300
800.793	0.0144479
800.871	0.0143960
800.950	0.0145367
801.028	0.0144163
801.106	0.0143539
801.184	0.0142557
801.262	0.0144248
801.340	0.0144637
801.418	0.0142671
801.496	0.0144115
801.575	0.0143799
801.653	0.0144509
801.731	0.0144503
801.809	0.0144518
801.887	0.0144804
801.965	0.0142896
802.043	0.0143333
802.121	0.0143269
802.200	0.0144891
802.278	0.0145139
802.356	0.0144994
802.434	0.0145892
802.512	0.0144787
802.590	0.0146703
802.668	0.0145476
802.746	0.0144884
802.825	0.0144242
802.903	0.0144747
802.981	0.0145084
803.059	0.0143842
803.137	0.0144386
803.215	0.0143864
803.293	0.0144116
803.371	0.0144788
803.450	0.0144315
803.528	0.0143714
803.606	0.0143744
803.684	0.0144176
803.762	0.0144012
803.840	0.0143195
803.918	0.0142828
803.996	0.0143453
804.075	0.0143442
804.153	0.0141970
804.231	0.0144045
804.309	0.0143571
804.387	0.0142823
804.465	0.0142829
804.543	0.0143955
804.621	0.0142744
804.700	0.0143646
804.778	0.0143345
804.856	0.0144398
804.934	0.0143907
805.012	0.0143546
805.090	0.0143404
805.168	0.0142656
805.246	0.0143522
805.325	0.0142737
805.403	0.0143909
805.481	0.0144104
805.559	0.0142866
805.637	0.0142419
805.715	0.0143179
805.793	0.0144781
805.871	0.0142680
805.950	0.0143978
806.028	0.0142786
806.106	0.0144173
806.184	0.0144456
806.262	0.0143589
806.340	0.0143668
806.418	0.0144143
806.496	0.0143402
806.575	0.0143892
806.653	0.0143285
806.731	0.0143855
806.809	0.0144513
806.887	0.0142929
806.965	0.0142380
807.043	0.0142358
807.121	0.0143156
807.200	0.0142806
807.278	0.0144048
807.356	0.0143195
807.434	0.0142843
807.512	0.0142870
807.590	0.0141489
807.668	0.0143823
807.746	0.0143231
807.825	0.0143372
807.903	0.0144366
807.981	0.0142658
808.059	0.0142257
808.137	0.0144659
808.215	0.0143607
808.293	0.0142530
808.371	0.0141819
808.450	0.0144116
808.528	0.0143880
808.606	0.0144302
808.684	0.0144143
808.762	0.0143118
808.840	0.0142907
808.918	0.0143652
808.996	0.0144589
809.075	0.0142792
809.153	0.0142203
809.231	0.0142222
809.309	0.0142321
809.387	0.0141872
809.465	0.0141824
809.543	0.0142186
809.621	0.0143185
809.700	0.0143639
809.778	0.0144205
809.856	0.0145017
809.934	0.0144758
810.012	0.0144218
810.090	0.0144514
810.168	0.0144141
810.246	0.0144121
810.325	0.0144414
810.403	0.0145151
810.481	0.0144564
810.559	0.0143627
810.637	0.0144878
810.715	0.0143255
810.793	0.0142733
810.871	0.0144061
810.950	0.0143413
811.028	0.0141389
811.106	0.0141109
811.184	0.0141662
811.262	0.0141682
811.340	0.0142419
811.418	0.0141254
811.496	0.0141107
811.575	0.0143091
811.653	0.0142881
811.731	0.0142444
811.809	0.0142503
811.887	0.0143374
811.965	0.0142326
812.043	0.0143493
812.121	0.0142393
812.200	0.0142223
812.278	0.0142682
812.356	0.0143776
812.434	0.0143644
812.512	0.0143016
812.590	0.0143186
812.668	0.0142265
812.746	0.0143695
812.825	0.0143163
812.903	0.0142586
812.981	0.0142091
813.059	0.0142586
813.137	0.0142828
813.215	0.0142751
813.293	0.0141338
813.371	0.0140003
813.450	0.0141629
813.528	0.0139977
813.606	0.0142651
813.684	0.0142973
813.762	0.0142467
813.840	0.0142321
813.918	0.0143122
813.996	0.0142344
814.075	0.0144398
814.153	0.0143588
814.231	0.0143928
814.309	0.0144097
814.387	0.0143618
814.465	0.0144624
814.543	0.0144572
814.621	0.0145040
814.700	0.0144514
814.778	0.0145351
814.856	0.0143914
814.934	0.0143021
815.012	0.0144292
815.090	0.0143860
815.168	0.0143300
815.246	0.0141153
815.325	0.0142704
815.403	0.0142706
815.481	0.0142548
815.559	0.0142875
815.637	0.0142056
815.715	0.0141684
815.793	0.0142422
815.871	0.0141288
815.950	0.0141164
816.028	0.0142800
816.106	0.0142578
816.184	0.0141374
816.262	0.0141102
816.340	0.0142413
816.418	0.0143096
816.496	0.0145844
816.575	0.0142899
816.653	0.0141789
816.731	0.0142000
816.809	0.0143673
816.887	0.0143983
816.965	0.0142828
817.043	0.0142635
817.121	0.0142979
817.200	0.0143375
817.278	0.0143353
817.356	0.0144090
817.434	0.0143998
817.512	0.0144464
817.590	0.0144279
817.668	0.0143025
817.746	0.0143260
817.825	0.0143884
817.903	0.0144284
817.981	0.0143397
818.059	0.0144303
818.137	0.0143514
818.215	0.0143088
818.293	0.0141833
818.371	0.0144772
818.450	0.0144196
818.528	0.0143210
818.606	0.0144239
818.684	0.0142502
818.762	0.0142928
818.840	0.0142420
818.918	0.0142361
818.996	0.0143906
819.075	0.0144022
819.153	0.0143454
819.231	0.0142995
819.309	0.0143839
819.387	0.0142334
819.465	0.0144093
819.543	0.0142873
819.621	0.0143536
819.700	0.0143983
819.778	0.0144321
819.856	0.0143625
819.934	0.0144049
820.012	0.0142800
820.090	0.0142455
820.168	0.0143467
820.246	0.0144463
820.325	0.0144706
820.403	0.0143359
820.481	0.0144344
820.559	0.0142449
820.637	0.0142213
820.715	0.0143396
820.793	0.0144061
820.871	0.0143184
820.950	0.0143559
821.028	0.0142722
821.106	0.0143323
821.184	0.0143121
821.262	0.0143565
821.340	0.0143025
821.418	0.0143618
821.496	0.0143128
821.575	0.0143931
821.653	0.0144080
821.731	0.0142404
821.809	0.0142058
821.887	0.0144235
821.965	0.0143579
822.043	0.0144475
822.121	0.0142783
822.200	0.0141454
822.278	0.0143755
822.356	0.0143984
822.434	0.0143524
822.512	0.0142699
822.590	0.0141941
822.668	0.0143813
822.746	0.0144678
822.825	0.0144164
822.903	0.0143546
822.981	0.0144075
823.059	0.0142722
823.137	0.0143869
823.215	0.0144613
823.293	0.0144461
823.371	0.0143287
823.450	0.0143743
823.528	0.0144779
823.606	0.0143576
823.684	0.0143835
823.762	0.0143362
823.840	0.0143663
823.918	0.0143648
823.996	0.0142678
824.075	0.0142009
824.153	0.0142715
824.231	0.0142372
824.309	0.0143054
824.387	0.0143597
824.465	0.0143302
824.543	0.0143604
824.621	0.0143599
824.700	0.0143575
824.778	0.0143607
824.856	0.0144173
824.934	0.0144531
825.012	0.0143257
825.090	0.0143829
825.168	0.0143693
825.246	0.0143567
825.325	0.0142573
825.403	0.0145123
825.481	0.0144003
825.559	0.0142718
825.637	0.0142931
825.715	0.0144736
825.793	0.0144572
825.871	0.0144935
825.950	0.0143687
826.028	0.0144609
826.106	0.0143611
826.184	0.0143362
826.262	0.0143530
826.340	0.0142525
826.418	0.0145229
826.496	0.0144801
826.575	0.0144105
826.653	0.0142480
826.731	0.0142887
826.809	0.0143898
826.887	0.0142241
826.965	0.0143148
827.043	0.0142874
827.121	0.0143742
827.200	0.0142753
827.278	0.0141443
827.356	0.0143773
827.434	0.0143857
827.512	0.0142612
827.590	0.0142514
827.668	0.0142200
827.746	0.0143341
827.825	0.0143819
827.903	0.0143121
827.981	0.0144994
828.059	0.0144456
828.137	0.0143736
828.215	0.0142432
828.293	0.0143475
828.371	0.0142709
828.450	0.0144717
828.528	0.0144446
828.606	0.0141899
828.684	0.0143423
828.762	0.0142873
828.840	0.0144127
828.918	0.0143598
828.996	0.0143954
829.075	0.0140038
829.153	0.0143205
829.231	0.0143655
829.309	0.0143594
829.387	0.0143045
829.465	0.0141512
829.543	0.0142889
829.621	0.0144205
829.700	0.0143381
829.778	0.0142471
829.856	0.0141939
829.934	0.0143429
830.012	0.0142494
830.090	0.0142626
830.168	0.0143131
830.246	0.0142865
830.325	0.0143613
830.403	0.0142352
830.481	0.0142894
830.559	0.0143765
830.637	0.0144209
830.715	0.0144254
830.793	0.0142663
830.871	0.0142822
830.950	0.0143364
831.028	0.0143417
831.106	0.0144054
831.184	0.0144245
831.262	0.0143463
831.340	0.0142009
831.418	0.0142861
831.496	0.0143163
831.575	0.0142832
831.653	0.0144592
831.731	0.0143417
831.809	0.0143442
831.887	0.0142086
831.965	0.0142901
832.043	0.0143277
832.121	0.0143661
832.200	0.0143592
832.278	0.0144787
832.356	0.0143150
832.434	0.0142976
832.512	0.0143521
832.590	0.0141647
832.668	0.0142510
832.746	0.0143999
832.825	0.0143531
832.903	0.0143047
832.981	0.0145597
833.059	0.0143964
833.137	0.0143880
833.215	0.0142585
833.293	0.0142994
833.371	0.0142602
833.450	0.0143623
833.528	0.0145183
833.606	0.0142635
833.684	0.0142915
833.762	0.0142258
833.840	0.0142419
833.918	0.0144182
833.996	0.0144163
834.075	0.0140974
834.153	0.0141078
834.231	0.0143086
834.309	0.0144195
834.387	0.0144444
834.465	0.0143993
834.543	0.0143222
834.621	0.0144608
834.700	0.0143160
834.778	0.0143505
834.856	0.0143926
834.934	0.0144251
835.012	0.0142271
835.090	0.0143153
835.168	0.0143461
835.246	0.0143488
835.325	0.0143246
835.403	0.0142233
835.481	0.0143462
835.559	0.0143743
835.637	0.0143565
835.715	0.0143928
835.793	0.0143092
835.871	0.0143443
835.950	0.0143873
836.028	0.0142765
836.106	0.0143600
836.184	0.0143792
836.262	0.0143429
836.340	0.0144509
836.418	0.0143824
836.496	0.0143098
836.575	0.0143711
836.653	0.0144411
836.731	0.0142928
836.809	0.0142964
836.887	0.0144253
836.965	0.0143698
837.043	0.0142107
837.121	0.0142476
837.200	0.0143839
837.278	0.0144023
837.356	0.0143304
837.434	0.0143499
837.512	0.0143852
837.590	0.0142520
837.668	0.0142120
837.746	0.0142850
837.825	0.0144259
837.903	0.0142078
837.981	0.0142752
838.059	0.0142937
838.137	0.0143193
838.215	0.0144202
838.293	0.0142849
838.371	0.0143235
838.450	0.0143198
838.528	0.0143898
838.606	0.0142349
838.684	0.0142221
838.762	0.0143037
838.840	0.0141873
838.918	0.0142941
838.996	0.0141591
839.075	0.0143480
839.153	0.0142049
839.231	0.0141702
839.309	0.0141509
839.387	0.0143783
839.465	0.0142742
839.543	0.0142341
839.621	0.0143199
839.700	0.0143442
839.778	0.0143784
839.856	0.0142283
839.934	0.0142635
840.012	0.0142844
840.090	0.0142989
840.168	0.0145073
840.246	0.0142747
840.325	0.0143474
840.403	0.0144206
840.481	0.0144405
840.559	0.0143388
840.637	0.0143109
840.715	0.0143966
840.793	0.0143456
840.871	0.0143842
840.950	0.0144445
841.028	0.0144751
841.106	0.0144053
841.184	0.0142609
841.262	0.0142619
841.340	0.0143565
841.418	0.0142783
841.496	0.0141824
841.575	0.0143811
841.653	0.0142465
841.731	0.0142534
841.809	0.0142706
841.887	0.0144186
841.965	0.0144019
842.043	0.0143761
842.121	0.0144212
842.200	0.0143286
842.278	0.0144701
842.356	0.0144960
842.434	0.0144289
842.512	0.0143884
842.590	0.0142740
842.668	0.0144379
842.746	0.0144672
842.825	0.0143685
842.903	0.0145015
842.981	0.0144647
843.059	0.0143002
843.137	0.0143822
843.215	0.0144948
843.293	0.0145380
843.371	0.0144405
843.450	0.0145187
843.528	0.0142960
843.606	0.0142419
843.684	0.0144149
843.762	0.0143732
843.840	0.0143907
843.918	0.0142944
843.996	0.0142934
844.075	0.0143567
844.153	0.0143188
844.231	0.0143909
844.309	0.0143916
844.387	0.0142744
844.465	0.0144547
844.543	0.0144133
844.621	0.0142850
844.700	0.0143134
844.778	0.0143587
844.856	0.0143105
844.934	0.0144229
845.012	0.0144460
845.090	0.0144669
845.168	0.0144295
845.246	0.0144410
845.325	0.0144765
845.403	0.0144496
845.481	0.0143871
845.559	0.0144056
845.637	0.0144463
845.715	0.0143382
845.793	0.0145872
845.871	0.0144460
845.950	0.0144172
846.028	0.0143128
846.106	0.0142506
846.184	0.0144418
846.262	0.0144806
846.340	0.0144431
846.418	0.0144402
846.496	0.0143947
846.575	0.0144677
846.653	0.0144528
846.731	0.0143894
846.809	0.0144910
846.887	0.0144035
846.965	0.0145580
847.043	0.0144550
847.121	0.0143711
847.200	0.0143867
847.278	0.0144636
847.356	0.0144419
847.434	0.0144478
847.512	0.0145968
847.590	0.0145005
847.668	0.0144066
847.746	0.0143765
847.825	0.0144120
847.903	0.0143914
847.981	0.0143398
848.059	0.0142912
848.137	0.0143785
848.215	0.0142967
848.293	0.0142735
848.371	0.0144318
848.450	0.0143567
848.528	0.0143400
848.606	0.0143661
848.684	0.0144218
848.762	0.0143224
848.840	0.0144289
848.918	0.0142188
848.996	0.0143483
849.075	0.0144272
849.153	0.0143983
849.231	0.0143983
849.309	0.0143800
849.387	0.0143749
849.465	0.0143033
849.543	0.0142133
849.621	0.0143272
849.700	0.0144066
849.778	0.0142369
849.856	0.0142974
849.934	0.0143578
850.012	0.0144096
850.090	0.0143705
850.168	0.0143075
850.246	0.0143580
850.325	0.0142754
850.403	0.0143843
850.481	0.0142693
850.559	0.0142002
850.637	0.0143103
850.715	0.0141974
850.793	0.0142073
850.871	0.0142728
850.950	0.0143071
851.028	0.0142072
851.106	0.0141833
851.184	0.0142432
851.262	0.0142590
851.340	0.0142708
851.418	0.0143063
851.496	0.0142442
851.575	0.0142052
851.653	0.0142661
851.731	0.0142739
851.809	0.0143112
851.887	0.0143759
851.965	0.0143045
852.043	0.0142410
852.121	0.0142402
852.200	0.0141517
852.278	0.0141786
852.356	0.0143092
852.434	0.0142599
852.512	0.0142482
852.590	0.0142290
852.668	0.0142538
852.746	0.0141242
852.825	0.0141814
852.903	0.0142727
852.981	0.0140361
853.059	0.0141930
853.137	0.0142121
853.215	0.0142560
853.293	0.0140572
853.371	0.0141424
853.450	0.0141079
853.528	0.0142261
853.606	0.0141507
853.684	0.0143002
853.762	0.0142422
853.840	0.0141673
853.918	0.0142555
853.996	0.0141855
854.075	0.0142860
854.153	0.0144511
854.231	0.0144443
854.309	0.0141751
854.387	0.0142513
854.465	0.0145552
854.543	0.0142983
854.621	0.0141989
854.700	0.0142788
854.778	0.0141606
854.856	0.0142432
854.934	0.0142993
855.012	0.0143295
855.090	0.0141533
855.168	0.0142930
855.246	0.0142134
855.325	0.0142672
855.403	0.0144427
855.481	0.0143992
855.559	0.0144122
855.637	0.0143073
855.715	0.0145940
855.793	0.0143002
855.871	0.0143254
855.950	0.0143302
856.028	0.0143548
856.106	0.0144028
856.184	0.0143684
856.262	0.0144655
856.340	0.0143909
856.418	0.0142960
856.496	0.0143680
856.575	0.0142866
856.653	0.0144252
856.731	0.0144385
856.809	0.0142956
856.887	0.0142230
856.965	0.0143333
857.043	0.0143079
857.121	0.0142963
857.200	0.0144536
857.278	0.0143164
857.356	0.0143049
857.434	0.0143934
857.512	0.0142826
857.590	0.0143701
857.668	0.0143891
857.746	0.0144782
857.825	0.0142772
857.903	0.0145063
857.981	0.0143134
858.059	0.0142645
858.137	0.0144012
858.215	0.0145293
858.293	0.0144811
858.371	0.0142541
858.450	0.0143338
858.528	0.0143690
858.606	0.0143376
858.684	0.0144334
858.762	0.0145071
858.840	0.0144798
858.918	0.0143448
858.996	0.0143932
859.075	0.0142823
859.153	0.0142973
859.231	0.0142432
859.309	0.0142538
859.387	0.0142979
859.465	0.0142514
859.543	0.0142819
859.621	0.0141711
859.700	0.0142982
859.778	0.0142690
859.856	0.0141595
859.934	0.0142524
860.012	0.0142512
860.090	0.0142471
860.168	0.0142239
860.246	0.0141776
860.325	0.0142245
860.403	0.0141907
860.481	0.0143371
860.559	0.0143389
860.637	0.0141983
860.715	0.0142374
860.793	0.0143867
860.871	0.0141882
860.950	0.0140258
861.028	0.0142457
861.106	0.0142816
861.184	0.0143185
861.262	0.0142332
861.340	0.0144357
861.418	0.0144112
861.496	0.0143792
861.575	0.0145016
861.653	0.0144068
861.731	0.0143021
861.809	0.0143949
861.887	0.0144357
861.965	0.0142524
862.043	0.0142543
862.121	0.0143552
862.200	0.0143275
862.278	0.0144257
862.356	0.0142573
862.434	0.0142443
862.512	0.0142675
862.590	0.0143282
862.668	0.0142393
862.746	0.0142923
862.825	0.0143923
862.903	0.0143620
862.981	0.0142785
863.059	0.0142850
863.137	0.0141778
863.215	0.0144531
863.293	0.0143209
863.371	0.0143023
863.450	0.0142964
863.528	0.0144007
863.606	0.0144875
863.684	0.0143420
863.762	0.0143625
863.840	0.0143993
863.918	0.0144131
863.996	0.0143539
864.075	0.0143679
864.153	0.0142858
864.231	0.0143288
864.309	0.0143048
864.387	0.0142526
864.465	0.0143384
864.543	0.0143340
864.621	0.0142493
864.700	0.0141760
864.778	0.0142113
864.856	0.0142365
864.934	0.0143506
865.012	0.0142108
865.090	0.0143955
865.168	0.0143476
865.246	0.0141800
865.325	0.0141860
865.403	0.0142918
865.481	0.0142535
865.559	0.0141422
865.637	0.0142741
865.715	0.0144015
865.793	0.0141422
865.871	0.0144418
865.950	0.0142702
866.028	0.0143880
866.106	0.0143391
866.184	0.0144560
866.262	0.0144437
866.340	0.0144023
866.418	0.0144955
866.496	0.0142883
866.575	0.0143491
866.653	0.0143752
866.731	0.0143835
866.809	0.0143829
866.887	0.0142873
866.965	0.0143628
867.043	0.0144453
867.121	0.0142578
867.200	0.0144881
867.278	0.0144758
867.356	0.0143725
867.434	0.0143348
867.512	0.0144801
867.590	0.0143488
867.668	0.0142992
867.746	0.0145431
867.825	0.0143336
867.903	0.0142990
867.981	0.0143241
868.059	0.0143128
868.137	0.0143673
868.215	0.0143376
868.293	0.0143686
868.371	0.0143633
868.450	0.0142862
868.528	0.0143887
868.606	0.0144370
868.684	0.0141908
868.762	0.0142471
868.840	0.0143107
868.918	0.0143888
868.996	0.0142397
869.075	0.0142562
869.153	0.0144097
869.231	0.0143105
869.309	0.0144074
869.387	0.0143441
869.465	0.0142717
869.543	0.0143760
869.621	0.0143954
869.700	0.0143433
869.778	0.0143633
869.856	0.0143730
869.934	0.0143512
870.012	0.0143293
870.090	0.0143782
870.168	0.0144118
870.246	0.0143420
870.325	0.0143435
870.403	0.0144199
870.481	0.0142267
870.559	0.0143906
870.637	0.0144958
870.715	0.0142696
870.793	0.0141988
870.871	0.0144049
870.950	0.0143375
871.028	0.0143089
871.106	0.0144585
871.184	0.0142309
871.262	0.0141929
871.340	0.0144176
871.418	0.0143046
871.496	0.0141762
871.575	0.0141431
871.653	0.0142523
871.731	0.0142649
871.809	0.0142805
871.887	0.0142616
871.965	0.0143178
872.043	0.0143578
872.121	0.0142741
872.200	0.0142279
872.278	0.0143294
872.356	0.0144193
872.434	0.0144510
872.512	0.0144677
872.590	0.0142599
872.668	0.0142982
872.746	0.0145386
872.825	0.0143825
872.903	0.0142980
872.981	0.0143398
873.059	0.0144367
873.137	0.0144575
873.215	0.0143167
873.293	0.0143906
873.371	0.0142944
873.450	0.0143305
873.528	0.0143267
873.606	0.0143262
873.684	0.0142680
873.762	0.0144499
873.840	0.0144149
873.918	0.0143644
873.996	0.0143694
874.075	0.0143259
874.153	0.0143176
874.231	0.0142798
874.309	0.0141585
874.387	0.0144061
874.465	0.0143018
874.543	0.0141851
874.621	0.0141865
874.700	0.0142619
874.778	0.0143036
874.856	0.0143015
874.934	0.0142041
875.012	0.0141698
875.090	0.0142892
875.168	0.0142459
875.246	0.0143006
875.325	0.0142032
875.403	0.0141897
875.481	0.0143960
875.559	0.0142009
875.637	0.0143066
875.715	0.0143392
875.793	0.0143246
875.871	0.0142772
875.950	0.0142163
876.028	0.0142568
876.106	0.0143021
876.184	0.0143462
876.262	0.0142345
876.340	0.0141766
876.418	0.0142294
876.496	0.0142123
876.575	0.0143524
876.653	0.0142403
876.731	0.0142300
876.809	0.0144081
876.887	0.0143179
876.965	0.0142912
877.043	0.0142252
877.121	0.0142462
877.200	0.0143118
877.278	0.0142348
877.356	0.0145195
877.434	0.0143083
877.512	0.0143158
877.590	0.0143839
877.668	0.0143405
877.746	0.0143643
877.825	0.0143305
877.903	0.0143754
877.981	0.0143261
878.059	0.0142049
878.137	0.0142474
878.215	0.0144461
878.293	0.0143758
878.371	0.0143404
878.450	0.0143790
878.528	0.0143219
878.606	0.0143450
878.684	0.0143488
878.762	0.0144843
878.840	0.0142902
878.918	0.0142764
878.996	0.0143201
879.075	0.0144496
879.153	0.0144171
879.231	0.0144405
879.309	0.0144615
879.387	0.0144243
879.465	0.0143935
879.543	0.0144945
879.621	0.0144843
879.700	0.0144365
879.778	0.0143144
879.856	0.0143639
879.934	0.0143207
880.012	0.0144100
880.090	0.0143684
880.168	0.0143457
880.246	0.0142655
880.325	0.0143372
880.403	0.0144426
880.481	0.0144366
880.559	0.0144389
880.637	0.0144793
880.715	0.0144717
880.793	0.0144075
880.871	0.0143364
880.950	0.0142587
881.028	0.0143887
881.106	0.0143537
881.184	0.0143549
881.262	0.0143887
881.340	0.0143755
881.418	0.0144447
881.496	0.0143713
881.575	0.0143860
881.653	0.0143399
881.731	0.0144875
881.809	0.0143703
881.887	0.0142285
881.965	0.0143327
882.043	0.0144133
882.121	0.0143336
882.200	0.0144208
882.278	0.0142809
882.356	0.0143160
882.434	0.0143399
882.512	0.0143597
882.590	0.0143587
882.668	0.0143156
882.746	0.0142612
882.825	0.0142953
882.903	0.0140810
882.981	0.0141531
883.059	0.0141909
883.137	0.0143322
883.215	0.0142098
883.293	0.0142109
883.371	0.0141727
883.450	0.0140793
883.528	0.0141668
883.606	0.0142991
883.684	0.0142305
883.762	0.0143320
883.840	0.0142228
883.918	0.0141682
883.996	0.0141528
884.075	0.0143317
884.153	0.0142248
884.231	0.0142201
884.309	0.0143373
884.387	0.0142963
884.465	0.0143604
884.543	0.0143424
884.621	0.0143794
884.700	0.0140874
884.778	0.0142932
884.856	0.0142963
884.934	0.0143303
885.012	0.0143304
885.090	0.0143556
885.168	0.0143061
885.246	0.0143843
885.325	0.0143982
885.403	0.0142866
885.481	0.0142499
885.559	0.0143542
885.637	0.0143832
885.715	0.0143552
885.793	0.0142265
885.871	0.0143961
885.950	0.0142860
886.028	0.0143578
886.106	0.0142420
886.184	0.0144236
886.262	0.0143193
886.340	0.0144321
886.418	0.0143836
886.496	0.0143568
886.575	0.0143541
886.653	0.0144156
886.731	0.0143761
886.809	0.0143629
886.887	0.0144237
886.965	0.0144039
887.043	0.0142418
887.121	0.0143838
887.200	0.0145323
887.278	0.0142856
887.356	0.0144124
887.434	0.0144559
887.512	0.0143541
887.590	0.0143758
887.668	0.0143655
887.746	0.0144532
887.825	0.0144878
887.903	0.0144157
887.981	0.0142860
888.059	0.0143517
888.137	0.0142640
888.215	0.0142801
888.293	0.0142542
888.371	0.0142579
888.450	0.0142907
888.528	0.0142211
888.606	0.0142005
888.684	0.0143300
888.762	0.0144434
888.840	0.0144553
888.918	0.0143483
888.996	0.0143092
889.075	0.0142991
889.153	0.0144085
889.231	0.0142882
889.309	0.0142987
889.387	0.0144172
889.465	0.0143465
889.543	0.0143492
889.621	0.0142347
889.700	0.0144286
889.778	0.0142886
889.856	0.0141794
889.934	0.0141869
890.012	0.0143395
890.090	0.0143127
890.168	0.0141428
890.246	0.0141371
890.325	0.0142883
890.403	0.0142297
890.481	0.0141939
890.559	0.0143478
890.637	0.0141798
890.715	0.0142233
890.793	0.0143742
890.871	0.0142835
890.950	0.0142228
891.028	0.0142658
891.106	0.0141656
891.184	0.0141100
891.262	0.0142126
891.340	0.0141007
891.418	0.0142242
891.496	0.0141342
891.575	0.0141555
891.653	0.0141727
891.731	0.0140389
891.809	0.0141323
891.887	0.0142094
891.965	0.0142731
892.043	0.0142297
892.121	0.0142104
892.200	0.0143185
892.278	0.0143642
892.356	0.0142445
892.434	0.0142722
892.512	0.0144828
892.590	0.0145486
892.668	0.0144294
892.746	0.0143934
892.825	0.0144058
892.903	0.0142014
892.981	0.0142876
893.059	0.0144105
893.137	0.0142725
893.215	0.0143336
893.293	0.0142445
893.371	0.0143347
893.450	0.0141227
893.528	0.0144588
893.606	0.0144875
893.684	0.0143893
893.762	0.0144974
893.840	0.0144077
893.918	0.0143755
893.996	0.0144813
894.075	0.0145908
894.153	0.0144073
894.231	0.0143874
894.309	0.0142842
894.387	0.0143473
894.465	0.0141949
894.543	0.0144199
894.621	0.0143529
894.700	0.0141119
894.778	0.0141647
894.856	0.0142698
894.934	0.0140728
895.012	0.0142272
895.090	0.0142334
895.168	0.0141978
895.246	0.0142999
895.325	0.0141944
895.403	0.0142020
895.481	0.0141634
895.559	0.0142985
895.637	0.0144083
895.715	0.0143882
895.793	0.0145667
895.871	0.0145512
895.950	0.0144760
896.028	0.0143060
896.106	0.0141914
896.184	0.0142982
896.262	0.0143340
896.340	0.0142702
896.418	0.0142606
896.496	0.0144231
896.575	0.0142150
896.653	0.0143129
896.731	0.0144105
896.809	0.0143925
896.887	0.0144080
896.965	0.0142924
897.043	0.0143779
897.121	0.0145043
897.200	0.0143648
897.278	0.0145013
897.356	0.0144881
897.434	0.0143893
897.512	0.0143922
897.590	0.0144154
897.668	0.0143084
897.746	0.0144202
897.825	0.0143156
897.903	0.0142381
897.981	0.0142946
898.059	0.0143353
898.137	0.0143575
898.215	0.0142624
898.293	0.0142771
898.371	0.0143559
898.450	0.0142039
898.528	0.0142781
898.606	0.0143342
898.684	0.0143055
898.762	0.0143430
898.840	0.0144469
898.918	0.0144096
898.996	0.0143804
899.075	0.0144681
899.153	0.0143262
899.231	0.0144564
899.309	0.0144352
899.387	0.0144557
899.465	0.0143277
899.543	0.0143939
899.621	0.0143853
899.700	0.0144489
899.778	0.0141774
899.856	0.0141332
899.934	0.0140749
900.012	0.0141534
900.090	0.0141756
900.168	0.0140592
900.246	0.0142928
900.325	0.0144384
900.403	0.0143186
900.481	0.0142523
900.559	0.0143079
900.637	0.0144525
900.715	0.0144885
900.793	0.0143227
900.871	0.0142975
900.950	0.0142648
901.028	0.0141570
901.106	0.0142825
901.184	0.0142828
901.262	0.0143301
901.340	0.0142723
901.418	0.0141772
901.496	0.0142765
901.575	0.0143093
901.653	0.0143251
901.731	0.0142496
901.809	0.0142434
901.887	0.0143269
901.965	0.0143211
902.043	0.0142826
902.121	0.0143375
902.200	0.0143203
902.278	0.0143738
902.356	0.0144065
902.434	0.0142873
902.512	0.0143261
902.590	0.0143272
902.668	0.0144574
902.746	0.0144202
902.825	0.0144236
902.903	0.0144039
902.981	0.0144077
903.059	0.0143663
903.137	0.0145425
903.215	0.0145274
903.293	0.0143634
903.371	0.0143825
903.450	0.0145731
903.528	0.0143486
903.606	0.0142744
903.684	0.0143340
903.762	0.0142932
903.840	0.0142295
903.918	0.0143387
903.996	0.0142268
904.075	0.0143050
904.153	0.0143440
904.231	0.0143462
904.309	0.0142454
904.387	0.0143241
904.465	0.0142397
904.543	0.0145916
904.621	0.0144202
904.700	0.0142699
904.778	0.0144199
904.856	0.0144238
904.934	0.0145098
905.012	0.0145174
905.090	0.0143594
905.168	0.0144981
905.246	0.0144730
905.325	0.0143764
905.403	0.0144435
905.481	0.0144065
905.559	0.0144447
905.637	0.0143484
905.715	0.0142776
905.793	0.0144205
905.871	0.0143704
905.950	0.0142434
906.028	0.0144033
906.106	0.0143246
906.184	0.0141956
906.262	0.0141138
906.340	0.0143580
906.418	0.0143321
906.496	0.0144722
906.575	0.0143503
906.653	0.0144560
906.731	0.0144890
906.809	0.0143510
906.887	0.0143997
906.965	0.0144005
907.043	0.0143387
907.121	0.0143659
907.200	0.0143198
907.278	0.0142195
907.356	0.0143516
907.434	0.0143600
907.512	0.0142948
907.590	0.0141011
907.668	0.0142164
907.746	0.0143224
907.825	0.0143073
907.903	0.0141982
907.981	0.0142704
908.059	0.0144597
908.137	0.0142742
908.215	0.0143113
908.293	0.0142590
908.371	0.0142964
908.450	0.0143087
908.528	0.0142922
908.606	0.0143654
908.684	0.0144003
908.762	0.0143769
908.840	0.0142715
908.918	0.0142905
908.996	0.0143600
909.075	0.0143302
909.153	0.0143790
909.231	0.0142337
909.309	0.0142109
909.387	0.0143851
909.465	0.0143512
909.543	0.0142645
909.621	0.0144405
909.700	0.0143341
909.778	0.0142865
909.856	0.0143023
909.934	0.0143850
910.012	0.0144423
910.090	0.0144276
910.168	0.0143583
910.246	0.0142944
910.325	0.0142888
910.403	0.0144090
910.481	0.0144169
910.559	0.0142917
910.637	0.0142123
910.715	0.0143790
910.793	0.0143075
910.871	0.0144182
910.950	0.0143739
911.028	0.0143623
911.106	0.0143697
911.184	0.0144041
911.262	0.0142692
911.340	0.0144888
911.418	0.0143328
911.496	0.0143771
911.575	0.0143656
911.653	0.0143259
911.731	0.0144072
911.809	0.0143702
911.887	0.0143896
911.965	0.0143989
912.043	0.0141065
912.121	0.0142548
912.200	0.0142165
912.278	0.0143969
912.356	0.0143523
912.434	0.0142293
912.512	0.0143420
912.590	0.0142880
912.668	0.0141881
912.746	0.0143620
912.825	0.0144038
912.903	0.0143401
912.981	0.0142332
913.059	0.0144774
913.137	0.0143148
913.215	0.0143568
913.293	0.0142558
913.371	0.0141888
913.450	0.0141635
913.528	0.0142065
913.606	0.0142698
913.684	0.0144402
913.762	0.0143272
913.840	0.0143669
913.918	0.0143649
913.996	0.0143312
914.075	0.0143594
914.153	0.0143534
914.231	0.0142641
914.309	0.0144358
914.387	0.0143851
914.465	0.0143385
914.543	0.0143837
914.621	0.0143303
914.700	0.0141908
914.778	0.0141487
914.856	0.0142535
914.934	0.0143413
915.012	0.0142354
915.090	0.0142404
915.168	0.0141460
915.246	0.0141407
915.325	0.0143269
915.403	0.0141654
915.481	0.0142901
915.559	0.0143810
915.637	0.0144136
915.715	0.0142612
915.793	0.0142071
915.871	0.0142558
915.950	0.0143413
916.028	0.0141699
916.106	0.0142986
916.184	0.0142595
916.262	0.0141493
916.340	0.0141277
916.418	0.0142815
916.496	0.0143486
916.575	0.0142443
916.653	0.0142675
916.731	0.0141999
916.809	0.0141859
916.887	0.0143701
916.965	0.0142662
917.043	0.0142316
917.121	0.0143219
917.200	0.0143536
917.278	0.0143394
917.356	0.0142245
917.434	0.0142109
917.512	0.0142806
917.590	0.0142472
917.668	0.0142667
917.746	0.0144492
917.825	0.0142755
917.903	0.0143308
917.981	0.0143619
918.059	0.0143405
918.137	0.0142359
918.215	0.0142252
918.293	0.0143702
918.371	0.0144108
918.450	0.0144279
918.528	0.0142349
918.606	0.0143518
918.684	0.0145998
918.762	0.0143718
918.840	0.0143163
918.918	0.0144028
918.996	0.0145364
919.075	0.0144275
919.153	0.0142542
919.231	0.0143475
919.309	0.0142377
919.387	0.0143548
919.465	0.0142825
919.543	0.0144564
919.621	0.0142783
919.700	0.0142126
919.778	0.0142879
919.856	0.0143720
919.934	0.0143572
920.012	0.0144193
920.090	0.0143291
920.168	0.0143179
920.246	0.0141861
920.325	0.0142899
920.403	0.0142320
920.481	0.0142131
920.559	0.0143061
920.637	0.0141766
920.715	0.0142733
920.793	0.0143606
920.871	0.0141082
920.950	0.0142570
921.028	0.0142449
921.106	0.0141998
921.184	0.0141903
921.262	0.0142358
921.340	0.0142304
921.418	0.0144080
921.496	0.0142879
921.575	0.0143385
921.653	0.0145116
921.731	0.0142085
921.809	0.0144043
921.887	0.0144676
921.965	0.0143823
922.043	0.0143433
922.121	0.0141808
922.200	0.0143307
922.278	0.0143172
922.356	0.0142191
922.434	0.0142042
922.512	0.0143276
922.590	0.0141902
922.668	0.0142401
922.746	0.0143361
922.825	0.0143494
922.903	0.0142783
922.981	0.0144492
923.059	0.0142155
923.137	0.0142395
923.215	0.0143655
923.293	0.0142756
923.371	0.0143121
923.450	0.0143039
923.528	0.0143551
923.606	0.0143816
923.684	0.0143266
923.762	0.0143290
923.840	0.0143284
923.918	0.0142857
923.996	0.0140934
924.075	0.0143761
924.153	0.0142886
924.231	0.0142508
924.309	0.0142591
924.387	0.0144504
924.465	0.0143901
924.543	0.0142070
924.621	0.0143399
924.700	0.0143051
924.778	0.0144669
924.856	0.0144789
924.934	0.0144617
925.012	0.0143546
925.090	0.0142185
925.168	0.0143159
925.246	0.0144185
925.325	0.0143286
925.403	0.0142934
925.481	0.0142654
925.559	0.0143116
925.637	0.0145580
925.715	0.0143516
925.793	0.0143419
925.871	0.0145200
925.950	0.0145309
926.028	0.0144368
926.106	0.0146387
926.184	0.0144429
926.262	0.0144608
926.340	0.0143745
926.418	0.0144366
926.496	0.0144034
926.575	0.0144353
926.653	0.0143105
926.731	0.0143965
926.809	0.0145221
926.887	0.0144110
926.965	0.0144776
927.043	0.0144251
927.121	0.0143156
927.200	0.0142504
927.278	0.0144204
927.356	0.0143811
927.434	0.0145306
927.512	0.0144118
927.590	0.0143181
927.668	0.0144141
927.746	0.0143254
927.825	0.0144988
927.903	0.0143927
927.981	0.0143805
928.059	0.0143681
928.137	0.0144216
928.215	0.0144358
928.293	0.0143655
928.371	0.0142720
928.450	0.0142705
928.528	0.0144125
928.606	0.0144702
928.684	0.0143884
928.762	0.0144154
928.840	0.0143211
928.918	0.0144843
928.996	0.0144662
929.075	0.0144878
929.153	0.0144769
929.231	0.0144646
929.309	0.0143700
929.387	0.0143714
929.465	0.0144679
929.543	0.0143834
929.621	0.0143401
929.700	0.0144852
929.778	0.0144415
929.856	0.0144154
929.934	0.0143747
930.012	0.0144759
930.090	0.0145058
930.168	0.0141528
930.246	0.0143301
930.325	0.0143806
930.403	0.0143575
930.481	0.0143358
930.559	0.0143485
930.637	0.0143926
930.715	0.0144995
930.793	0.0143645
930.871	0.0144556
930.950	0.0143973
931.028	0.0145803
931.106	0.0144077
931.184	0.0144106
931.262	0.0145361
931.340	0.0143836
931.418	0.0142766
931.496	0.0143084
931.575	0.0142892
931.653	0.0144073
931.731	0.0144106
931.809	0.0142143
931.887	0.0143369
931.965	0.0142403
932.043	0.0143682
932.121	0.0142184
932.200	0.0141848
932.278	0.0142587
932.356	0.0142428
932.434	0.0143189
932.512	0.0142098
932.590	0.0142692
932.668	0.0143129
932.746	0.0142474
932.825	0.0143789
932.903	0.0143744
932.981	0.0143971
933.059	0.0143002
933.137	0.0142109
933.215	0.0143192
933.293	0.0142091
933.371	0.0144010
933.450	0.0143575
933.528	0.0144035
933.606	0.0142284
933.684	0.0142168
933.762	0.0143440
933.840	0.0143829
933.918	0.0142704
933.996	0.0142483
934.075	0.0142323
934.153	0.0142009
934.231	0.0143063
934.309	0.0144946
934.387	0.0142652
934.465	0.0141486
934.543	0.0142369
934.621	0.0142754
934.700	0.0141784
934.778	0.0142467
934.856	0.0143519
934.934	0.0141211
935.012	0.0143358
935.090	0.0143365
935.168	0.0142822
935.246	0.0143227
935.325	0.0143058
935.403	0.0143056
935.481	0.0143344
935.559	0.0143101
935.637	0.0144374
935.715	0.0144081
935.793	0.0143705
935.871	0.0143554
935.950	0.0143007
936.028	0.0143052
936.106	0.0142661
936.184	0.0145042
936.262	0.0143154
936.340	0.0143589
936.418	0.0142765
936.496	0.0143816
936.575	0.0142521
936.653	0.0143714
936.731	0.0143935
936.809	0.0142624
936.887	0.0142636
936.965	0.0143356
937.043	0.0142695
937.121	0.0142669
937.200	0.0141898
937.278	0.0142258
937.356	0.0143281
937.434	0.0144001
937.512	0.0143326
937.590	0.0142973
937.668	0.0143539
937.746	0.0141909
937.825	0.0141404
937.903	0.0142049
937.981	0.0143234
938.059	0.0142590
938.137	0.0141975
938.215	0.0142910
938.293	0.0142321
938.371	0.0142475
938.450	0.0143099
938.528	0.0141669
938.606	0.0142325
938.684	0.0142110
938.762	0.0143252
938.840	0.0142725
938.918	0.0142183
938.996	0.0142873
939.075	0.0142968
939.153	0.0142157
939.231	0.0142091
939.309	0.0141754
939.387	0.0142385
939.465	0.0143738
939.543	0.0142606
939.621	0.0142615
939.700	0.0142973
939.778	0.0143054
939.856	0.0142350
939.934	0.0143987
940.012	0.0142133
940.090	0.0145091
940.168	0.0143489
940.246	0.0143399
940.325	0.0143750
940.403	0.0144648
940.481	0.0144778
940.559	0.0144395
940.637	0.0143015
940.715	0.0144858
940.793	0.0144143
940.871	0.0143320
940.950	0.0143468
941.028	0.0142702
941.106	0.0143608
941.184	0.0143291
941.262	0.0143678
941.340	0.0143707
941.418	0.0143505
941.496	0.0143715
941.575	0.0143169
941.653	0.0143408
941.731	0.0143159
941.809	0.0143351
941.887	0.0143880
941.965	0.0142946
942.043	0.0143606
942.121	0.0143970
942.200	0.0143257
942.278	0.0143744
942.356	0.0144205
942.434	0.0142532
942.512	0.0142792
942.590	0.0143134
942.668	0.0143536
942.746	0.0142399
942.825	0.0144559
942.903	0.0143279
942.981	0.0144353
943.059	0.0142384
943.137	0.0143778
943.215	0.0144390
943.293	0.0142978
943.371	0.0144360
943.450	0.0142258
943.528	0.0144310
943.606	0.0143438
943.684	0.0142975
943.762	0.0143509
943.840	0.0144970
943.918	0.0142835
943.996	0.0142322
944.075	0.0143512
944.153	0.0143623
944.231	0.0144265
944.309	0.0142303
944.387	0.0143220
944.465	0.0144198
944.543	0.0142753
944.621	0.0143521
944.700	0.0143641
944.778	0.0144683
944.856	0.0145753
944.934	0.0143638
945.012	0.0143994
945.090	0.0145744
945.168	0.0143486
945.246	0.0143830
945.325	0.0143956
945.403	0.0145705
945.481	0.0146060
945.559	0.0144259
945.637	0.0145038
945.715	0.0144624
945.793	0.0144268
945.871	0.0145085
945.950	0.0142969
946.028	0.0143842
946.106	0.0143502
946.184	0.0142960
946.262	0.0144159
946.340	0.0143881
946.418	0.0144693
946.496	0.0143223
946.575	0.0143821
946.653	0.0144306
946.731	0.0142450
946.809	0.0143470
946.887	0.0143771
946.965	0.0144572
947.043	0.0143095
947.121	0.0143404
947.200	0.0143672
947.278	0.0144236
947.356	0.0144848
947.434	0.0142943
947.512	0.0144540
947.590	0.0143400
947.668	0.0143435
947.746	0.0143118
947.825	0.0142318
947.903	0.0143031
947.981	0.0143764
948.059	0.0144791
948.137	0.0143770
948.215	0.0144043
948.293	0.0144244
948.371	0.0146004
948.450	0.0142319
948.528	0.0143155
948.606	0.0143467
948.684	0.0143116
948.762	0.0144183
948.840	0.0143394
948.918	0.0144389
948.996	0.0145180
949.075	0.0143951
949.153	0.0144641
949.231	0.0143626
949.309	0.0144318
949.387	0.0146134
949.465	0.0144526
949.543	0.0145098
949.621	0.0144640
949.700	0.0143967
949.778	0.0144067
949.856	0.0144647
949.934	0.0144122
950.012	0.0143071
950.090	0.0143697
950.168	0.0145550
950.246	0.0142886
950.325	0.0143730
950.403	0.0143893
950.481	0.0143088
950.559	0.0142961
950.637	0.0143828
950.715	0.0143468
950.793	0.0141994
950.871	0.0142328
950.950	0.0143236
951.028	0.0144447
951.106	0.0143581
951.184	0.0142401
951.262	0.0143345
951.340	0.0144307
951.418	0.0143191
951.496	0.0142832
951.575	0.0142873
951.653	0.0143311
951.731	0.0143359
951.809	0.0143158
951.887	0.0142860
951.965	0.0143590
952.043	0.0143113
952.121	0.0143745
952.200	0.0144599
952.278	0.0144061
952.356	0.0142968
952.434	0.0142664
952.512	0.0145097
952.590	0.0144788
952.668	0.0144572
952.746	0.0144880
952.825	0.0145485
952.903	0.0144635
952.981	0.0142887
953.059	0.0143404
953.137	0.0145803
953.215	0.0144043
953.293	0.0144121
953.371	0.0143054
953.450	0.0143082
953.528	0.0143343
953.606	0.0143748
953.684	0.0142551
953.762	0.0141998
953.840	0.0142437
953.918	0.0143104
953.996	0.0142944
954.075	0.0141946
954.153	0.0144312
954.231	0.0142403
954.309	0.0143652
954.387	0.0143279
954.465	0.0142111
954.543	0.0143306
954.621	0.0142332
954.700	0.0143358
954.778	0.0142133
954.856	0.0142382
954.934	0.0143847
955.012	0.0144360
955.090	0.0143420
955.168	0.0143021
955.246	0.0144425
955.325	0.0144060
955.403	0.0143950
955.481	0.0144977
955.559	0.0144470
955.637	0.0144115
955.715	0.0143071
955.793	0.0142799
955.871	0.0144378
955.950	0.0142889
956.028	0.0143342
956.106	0.0143049
956.184	0.0141900
956.262	0.0143098
956.340	0.0142199
956.418	0.0143068
956.496	0.0142041
956.575	0.0142125
956.653	0.0141953
956.731	0.0142072
956.809	0.0142068
956.887	0.0143032
956.965	0.0142506
957.043	0.0143561
957.121	0.0143839
957.200	0.0141232
957.278	0.0143157
957.356	0.0144396
957.434	0.0143385
957.512	0.0144685
957.590	0.0145609
957.668	0.0143994
957.746	0.0144054
957.825	0.0145210
957.903	0.0142925
957.981	0.0143513
958.059	0.0144077
958.137	0.0143723
958.215	0.0143694
958.293	0.0143810
958.371	0.0143713
958.450	0.0142091
958.528	0.0144529
958.606	0.0142816
958.684	0.0142937
958.762	0.0142746
958.840	0.0143452
958.918	0.0144206
958.996	0.0142168
959.075	0.0141746
959.153	0.0143135
959.231	0.0142343
959.309	0.0143301
959.387	0.0142003
959.465	0.0143436
959.543	0.0143549
959.621	0.0142475
959.700	0.0143323
959.778	0.0143356
959.856	0.0144001
959.934	0.0144301
960.012	0.0142963
960.090	0.0144143
960.168	0.0143874
960.246	0.0142880
960.325	0.0142188
960.403	0.0143382
960.481	0.0143221
960.559	0.0142536
960.637	0.0142867
960.715	0.0143945
960.793	0.0142599
960.871	0.0142928
960.950	0.0143102
961.028	0.0144217
961.106	0.0144596
961.184	0.0143241
961.262	0.0143095
961.340	0.0143256
961.418	0.0143385
961.496	0.0143259
961.575	0.0143022
961.653	0.0142603
961.731	0.0142689
961.809	0.0143584
961.887	0.0143984
961.965	0.0143718
962.043	0.0142929
962.121	0.0143057
962.200	0.0142464
962.278	0.0142208
962.356	0.0143409
962.434	0.0143352
962.512	0.0143787
962.590	0.0142899
962.668	0.0142567
962.746	0.0141408
962.825	0.0142633
962.903	0.0143243
962.981	0.0142308
963.059	0.0143888
963.137	0.0143472
963.215	0.0142444
963.293	0.0143768
963.371	0.0143906
963.450	0.0143354
963.528	0.0143165
963.606	0.0143322
963.684	0.0143174
963.762	0.0143827
963.840	0.0144060
963.918	0.0144174
963.996	0.0144420
964.075	0.0143505
964.153	0.0144432
964.231	0.0143884
964.309	0.0144295
964.387	0.0143067
964.465	0.0142820
964.543	0.0142651
964.621	0.0143090
964.700	0.0143063
964.778	0.0142695
964.856	0.0142134
964.934	0.0142534
965.012	0.0142494
965.090	0.0142915
965.168	0.0143076
965.246	0.0141755
965.325	0.0142377
965.403	0.0143460
965.481	0.0144907
965.559	0.0142960
965.637	0.0143185
965.715	0.0143246
965.793	0.0142981
965.871	0.0144302
965.950	0.0144084
966.028	0.0143018
966.106	0.0143217
966.184	0.0144013
966.262	0.0143623
966.340	0.0142279
966.418	0.0143648
966.496	0.0142290
966.575	0.0143676
966.653	0.0143641
966.731	0.0143974
966.809	0.0143587
966.887	0.0142861
966.965	0.0144727
967.043	0.0143742
967.121	0.0143510
967.200	0.0142976
967.278	0.0144699
967.356	0.0145368
967.434	0.0143883
967.512	0.0143957
967.590	0.0143822
967.668	0.0143890
967.746	0.0143767
967.825	0.0144510
967.903	0.0144427
967.981	0.0143591
968.059	0.0143795
968.137	0.0143945
968.215	0.0143283
968.293	0.0143620
968.371	0.0142209
968.450	0.0143283
968.528	0.0144745
968.606	0.0143624
968.684	0.0143958
968.762	0.0144774
968.840	0.0143513
968.918	0.0144459
968.996	0.0142654
969.075	0.0142887
969.153	0.0143314
969.231	0.0144391
969.309	0.0141972
969.387	0.0143050
969.465	0.0142551
969.543	0.0143413
969.621	0.0143357
969.700	0.0143379
969.778	0.0144513
969.856	0.0142994
969.934	0.0143278
970.012	0.0143491
970.090	0.0144077
970.168	0.0144085
970.246	0.0144886
970.325	0.0142244
970.403	0.0143438
970.481	0.0143497
970.559	0.0142395
970.637	0.0143033
970.715	0.0142580
970.793	0.0142274
970.871	0.0140881
970.950	0.0142119
971.028	0.0141489
971.106	0.0141413
971.184	0.0142379
971.262	0.0141508
971.340	0.0142588
971.418	0.0144557
971.496	0.0144134
971.575	0.0143352
971.653	0.0144294
971.731	0.0143620
971.809	0.0143316
971.887	0.0143309
971.965	0.0143523
972.043	0.0143002
972.121	0.0142213
972.200	0.0141978
972.278	0.0142925
972.356	0.0142200
972.434	0.0143369
972.512	0.0143925
972.590	0.0143233
972.668	0.0143935
972.746	0.0142194
972.825	0.0142538
972.903	0.0143278
972.981	0.0142625
973.059	0.0142963
973.137	0.0144090
973.215	0.0143795
973.293	0.0144317
973.371	0.0142956
973.450	0.0142339
973.528	0.0142403
973.606	0.0143745
973.684	0.0142382
973.762	0.0143399
973.840	0.0142805
973.918	0.0143564
973.996	0.0143506
974.075	0.0143456
974.153	0.0143394
974.231	0.0143693
974.309	0.0142790
974.387	0.0143549
974.465	0.0143078
974.543	0.0141748
974.621	0.0143078
974.700	0.0143132
974.778	0.0142631
974.856	0.0143324
974.934	0.0142631
975.012	0.0143335
975.090	0.0142741
975.168	0.0141644
975.246	0.0142921
975.325	0.0143837
975.403	0.0143114
975.481	0.0141166
975.559	0.0142306
975.637	0.0143360
975.715	0.0142506
975.793	0.0143317
975.871	0.0143095
975.950	0.0142889
976.028	0.0143505
976.106	0.0142677
976.184	0.0143606
976.262	0.0142369
976.340	0.0142266
976.418	0.0142748
976.496	0.0143279
976.575	0.0142950
976.653	0.0143025
976.731	0.0143331
976.809	0.0143327
976.887	0.0142953
976.965	0.0142045
977.043	0.0143821
977.121	0.0143273
977.200	0.0144276
977.278	0.0143991
977.356	0.0143155
977.434	0.0143454
977.512	0.0142429
977.590	0.0141778
977.668	0.0143073
977.746	0.0141137
977.825	0.0141304
977.903	0.0142210
977.981	0.0142645
978.059	0.0141931
978.137	0.0141576
978.215	0.0142816
978.293	0.0142776
978.371	0.0142268
978.450	0.0142600
978.528	0.0143819
978.606	0.0143696
978.684	0.0144458
978.762	0.0143420
978.840	0.0142805
978.918	0.0142033
978.996	0.0142880
979.075	0.0143360
979.153	0.0142657
979.231	0.0143778
979.309	0.0143534
979.387	0.0143300
979.465	0.0141786
979.543	0.0143719
979.621	0.0142081
979.700	0.0142330
979.778	0.0142612
979.856	0.0142884
979.934	0.0142953
980.012	0.0142978
980.090	0.0143389
980.168	0.0143488
980.246	0.0144106
980.325	0.0142793
980.403	0.0142603
980.481	0.0143526
980.559	0.0143970
980.637	0.0142951
980.715	0.0144064
980.793	0.0143678
980.871	0.0143593
980.950	0.0143046
981.028	0.0143198
981.106	0.0143468
981.184	0.0144037
981.262	0.0143683
981.340	0.0142232
981.418	0.0144075
981.496	0.0143909
981.575	0.0143999
981.653	0.0143334
981.731	0.0145582
981.809	0.0143650
981.887	0.0144313
981.965	0.0144480
982.043	0.0144769
982.121	0.0144518
982.200	0.0145920
982.278	0.0145402
982.356	0.0144410
982.434	0.0143687
982.512	0.0144254
982.590	0.0144498
982.668	0.0144377
982.746	0.0143842
982.825	0.0141678
982.903	0.0143244
982.981	0.0144492
983.059	0.0142717
983.137	0.0143033
983.215	0.0143645
983.293	0.0142698
983.371	0.0142332
983.450	0.0142907
983.528	0.0143492
983.606	0.0142621
983.684	0.0143760
983.762	0.0143805
983.840	0.0143279
983.918	0.0143176
983.996	0.0142836
984.075	0.0143157
984.153	0.0141752
984.231	0.0142824
984.309	0.0144229
984.387	0.0143449
984.465	0.0144209
984.543	0.0143862
984.621	0.0143052
984.700	0.0143036
984.778	0.0143678
984.856	0.0143789
984.934	0.0143089
985.012	0.0141888
985.090	0.0144048
985.168	0.0142680
985.246	0.0143404
985.325	0.0142689
985.403	0.0142733
985.481	0.0141939
985.559	0.0141820
985.637	0.0143089
985.715	0.0142330
985.793	0.0141190
985.871	0.0141214
985.950	0.0141406
986.028	0.0142926
986.106	0.0142813
986.184	0.0141726
986.262	0.0141441
986.340	0.0142169
986.418	0.0141886
986.496	0.0141562
986.575	0.0143127
986.653	0.0142839
986.731	0.0141867
986.809	0.0142526
986.887	0.0143078
986.965	0.0144170
987.043	0.0142609
987.121	0.0142768
987.200	0.0142276
987.278	0.0142628
987.356	0.0142992
987.434	0.0143215
987.512	0.0142297
987.590	0.0142673
987.668	0.0143574
987.746	0.0142564
987.825	0.0143052
987.903	0.0144534
987.981	0.0143907
988.059	0.0144514
988.137	0.0144197
988.215	0.0143353
988.293	0.0144390
988.371	0.0144505
988.450	0.0143827
988.528	0.0144675
988.606	0.0143738
988.684	0.0144054
988.762	0.0143224
988.840	0.0143758
988.918	0.0144431
988.996	0.0143481
989.075	0.0142532
989.153	0.0143478
989.231	0.0143813
989.309	0.0145439
989.387	0.0143939
989.465	0.0143168
989.543	0.0143060
989.621	0.0142820
989.700	0.0143948
989.778	0.0142883
989.856	0.0144153
989.934	0.0142585
990.012	0.0143936
990.090	0.0143922
990.168	0.0143555
990.246	0.0143734
990.325	0.0143705
990.403	0.0144164
990.481	0.0144109
990.559	0.0144322
990.637	0.0143520
990.715	0.0143291
990.793	0.0144594
990.871	0.0145030
990.950	0.0146139
991.028	0.0143501
991.106	0.0143491
991.184	0.0144000
991.262	0.0144080
991.340	0.0144104
991.418	0.0143761
991.496	0.0143870
991.575	0.0143791
991.653	0.0143736
991.731	0.0143695
991.809	0.0144029
991.887	0.0143539
991.965	0.0143729
992.043	0.0142963
992.121	0.0142939
992.200	0.0143999
992.278	0.0142661
992.356	0.0143618
992.434	0.0142348
992.512	0.0143703
992.590	0.0141872
992.668	0.0143105
992.746	0.0143030
992.825	0.0144273
992.903	0.0144238
992.981	0.0144021
993.059	0.0142300
993.137	0.0143039
993.215	0.0143475
993.293	0.0143750
993.371	0.0143051
993.450	0.0144280
993.528	0.0143763
993.606	0.0142464
993.684	0.0142313
993.762	0.0143537
993.840	0.0142853
993.918	0.0141354
993.996	0.0142589
994.075	0.0143103
994.153	0.0142921
994.231	0.0141274
994.309	0.0142133
994.387	0.0141386
994.465	0.0142780
994.543	0.0141430
994.621	0.0141992
994.700	0.0143085
994.778	0.0143658
994.856	0.0143965
994.934	0.0143657
995.012	0.0142268
995.090	0.0143568
995.168	0.0142830
995.246	0.0142554
995.325	0.0142883
995.403	0.0143664
995.481	0.0142806
995.559	0.0142346
995.637	0.0142982
995.715	0.0141372
995.793	0.0142245
995.871	0.0144057
995.950	0.0143617
996.028	0.0142000
996.106	0.0141602
996.184	0.0141667
996.262	0.0142789
996.340	0.0141293
996.418	0.0142042
996.496	0.0141910
996.575	0.0141132
996.653	0.0142456
996.731	0.0142845
996.809	0.0143031
996.887	0.0144118
996.965	0.0142431
997.043	0.0144306
997.121	0.0145169
997.200	0.0143979
997.278	0.0143157
997.356	0.0144540
997.434	0.0143691
997.512	0.0145234
997.590	0.0143383
997.668	0.0144257
997.746	0.0144596
997.825	0.0142819
997.903	0.0145134
997.981	0.0143303
998.059	0.0143875
998.137	0.0142976
998.215	0.0144038
998.293	0.0143773
998.371	0.0142564
998.450	0.0142939
998.528	0.0142657
998.606	0.0143528
998.684	0.0143530
998.762	0.0143913
998.840	0.0143723
998.918	0.0142929
