05/04/2022	21:21:43	Ver.	4.1	UNKNOWN
Optical Delay	678.996401	Delta X		0.078125	Sweeps	1	Scan Rate	0/0
Coordinates	Axis 1	NaN	Axis 2	NaN	Axis 3	NaN	Axis 4	NaN	Axis 5	NaN	Axis 6	0.000000
TX Power	0.000000	RX Power	0.000000

678.996	0.0144809
679.075	0.0144572
679.153	0.0145099
679.231	0.0145583
679.309	0.0144134
679.387	0.0144915
679.465	0.0144846
679.543	0.0144506
679.621	0.0145627
679.700	0.0145601
679.778	0.0146829
679.856	0.0145358
679.934	0.0144579
680.012	0.0146857
680.090	0.0146619
680.168	0.0144604
680.246	0.0144798
680.325	0.0145214
680.403	0.0144527
680.481	0.0143666
680.559	0.0144677
680.637	0.0144070
680.715	0.0144328
680.793	0.0143216
680.871	0.0141735
680.950	0.0143007
681.028	0.0144684
681.106	0.0142966
681.184	0.0142638
681.262	0.0143229
681.340	0.0142995
681.418	0.0144061
681.496	0.0144157
681.575	0.0144251
681.653	0.0143773
681.731	0.0143598
681.809	0.0144393
681.887	0.0144706
681.965	0.0143977
682.043	0.0144071
682.121	0.0144978
682.200	0.0144553
682.278	0.0144964
682.356	0.0144305
682.434	0.0144314
682.512	0.0144121
682.590	0.0145412
682.668	0.0143925
682.746	0.0143794
682.825	0.0145631
682.903	0.0143450
682.981	0.0142429
683.059	0.0143147
683.137	0.0143024
683.215	0.0142655
683.293	0.0142245
683.371	0.0143118
683.450	0.0143595
683.528	0.0143649
683.606	0.0143374
683.684	0.0141000
683.762	0.0142305
683.840	0.0143320
683.918	0.0143266
683.996	0.0144608
684.075	0.0143577
684.153	0.0144637
684.231	0.0144090
684.309	0.0144128
684.387	0.0144444
684.465	0.0145576
684.543	0.0144761
684.621	0.0146497
684.700	0.0144700
684.778	0.0143656
684.856	0.0143858
684.934	0.0145581
685.012	0.0143877
685.090	0.0145947
685.168	0.0146460
685.246	0.0144948
685.325	0.0144803
685.403	0.0144820
685.481	0.0143967
685.559	0.0143787
685.637	0.0143272
685.715	0.0143089
685.793	0.0142865
685.871	0.0142635
685.950	0.0143830
686.028	0.0142442
686.106	0.0143243
686.184	0.0143923
686.262	0.0143791
686.340	0.0143419
686.418	0.0143487
686.496	0.0144286
686.575	0.0145043
686.653	0.0144286
686.731	0.0143848
686.809	0.0143363
686.887	0.0145016
686.965	0.0144196
687.043	0.0145007
687.121	0.0145287
687.200	0.0145284
687.278	0.0145527
687.356	0.0145442
687.434	0.0145606
687.512	0.0144112
687.590	0.0143545
687.668	0.0144823
687.746	0.0144194
687.825	0.0143517
687.903	0.0144325
687.981	0.0144263
688.059	0.0144647
688.137	0.0144625
688.215	0.0143813
688.293	0.0144078
688.371	0.0144746
688.450	0.0144346
688.528	0.0144267
688.606	0.0144508
688.684	0.0145335
688.762	0.0145271
688.840	0.0143495
688.918	0.0145148
688.996	0.0146127
689.075	0.0145988
689.153	0.0144964
689.231	0.0146166
689.309	0.0146068
689.387	0.0146181
689.465	0.0145967
689.543	0.0144978
689.621	0.0145081
689.700	0.0143944
689.778	0.0144218
689.856	0.0143652
689.934	0.0144371
690.012	0.0144270
690.090	0.0142743
690.168	0.0142910
690.246	0.0143740
690.325	0.0143531
690.403	0.0143364
690.481	0.0144116
690.559	0.0143121
690.637	0.0142725
690.715	0.0143874
690.793	0.0144019
690.871	0.0144009
690.950	0.0143338
691.028	0.0144530
691.106	0.0144773
691.184	0.0143832
691.262	0.0144642
691.340	0.0144445
691.418	0.0145363
691.496	0.0145126
691.575	0.0144810
691.653	0.0144091
691.731	0.0146370
691.809	0.0145995
691.887	0.0145605
691.965	0.0145870
692.043	0.0146834
692.121	0.0145554
692.200	0.0144550
692.278	0.0143941
692.356	0.0144550
692.434	0.0143784
692.512	0.0144341
692.590	0.0143078
692.668	0.0142419
692.746	0.0144193
692.825	0.0142696
692.903	0.0142499
692.981	0.0143695
693.059	0.0144070
693.137	0.0145401
693.215	0.0145195
693.293	0.0147599
693.371	0.0146133
693.450	0.0147801
693.528	0.0147853
693.606	0.0147172
693.684	0.0146256
693.762	0.0146914
693.840	0.0147549
693.918	0.0145351
693.996	0.0143795
694.075	0.0142464
694.153	0.0141502
694.231	0.0141487
694.309	0.0142127
694.387	0.0142310
694.465	0.0140918
694.543	0.0141703
694.621	0.0143525
694.700	0.0144812
694.778	0.0147025
694.856	0.0146786
694.934	0.0148990
695.012	0.0147829
695.090	0.0149728
695.168	0.0149526
695.246	0.0147878
695.325	0.0146716
695.403	0.0145084
695.481	0.0144797
695.559	0.0143225
695.637	0.0141924
695.715	0.0140355
695.793	0.0138318
695.871	0.0137797
695.950	0.0139010
696.028	0.0137389
696.106	0.0139169
696.184	0.0140456
696.262	0.0140168
696.340	0.0144441
696.418	0.0144975
696.496	0.0146528
696.575	0.0147195
696.653	0.0150217
696.731	0.0150585
696.809	0.0151474
696.887	0.0150991
696.965	0.0148930
697.043	0.0148830
697.121	0.0147250
697.200	0.0145761
697.278	0.0145486
697.356	0.0142544
697.434	0.0140008
697.512	0.0139156
697.590	0.0138089
697.668	0.0139181
697.746	0.0141322
697.825	0.0141965
697.903	0.0143295
697.981	0.0146519
698.059	0.0148240
698.137	0.0148805
698.215	0.0149369
698.293	0.0152457
698.371	0.0153493
698.450	0.0152438
698.528	0.0150532
698.606	0.0150205
698.684	0.0146723
698.762	0.0144899
698.840	0.0142871
698.918	0.0140336
698.996	0.0139253
699.075	0.0137260
699.153	0.0134468
699.231	0.0134202
699.309	0.0136395
699.387	0.0138258
699.465	0.0139368
699.543	0.0143046
699.621	0.0146809
699.700	0.0147552
699.778	0.0151621
699.856	0.0153533
699.934	0.0154955
700.012	0.0156299
700.090	0.0155190
700.168	0.0153256
700.246	0.0149700
700.325	0.0147758
700.403	0.0144283
700.481	0.0142090
700.559	0.0139454
700.637	0.0136064
700.715	0.0134495
700.793	0.0135168
700.871	0.0136279
700.950	0.0136922
701.028	0.0139130
701.106	0.0139892
701.184	0.0143665
701.262	0.0144982
701.340	0.0147870
701.418	0.0150441
701.496	0.0150938
701.575	0.0152020
701.653	0.0152355
701.731	0.0152630
701.809	0.0149817
701.887	0.0147022
701.965	0.0145724
702.043	0.0142329
702.121	0.0141113
702.200	0.0139178
702.278	0.0138196
702.356	0.0137717
702.434	0.0138017
702.512	0.0139095
702.590	0.0139662
702.668	0.0141232
702.746	0.0144176
702.825	0.0146253
702.903	0.0148972
702.981	0.0149657
703.059	0.0150118
703.137	0.0150238
703.215	0.0150151
703.293	0.0147963
703.371	0.0146497
703.450	0.0146374
703.528	0.0144772
703.606	0.0142950
703.684	0.0140507
703.762	0.0139322
703.840	0.0138366
703.918	0.0139557
703.996	0.0140142
704.075	0.0140021
704.153	0.0140672
704.231	0.0143636
704.309	0.0144994
704.387	0.0147008
704.465	0.0148801
704.543	0.0152164
704.621	0.0152574
704.700	0.0153400
704.778	0.0153232
704.856	0.0152213
704.934	0.0152965
705.012	0.0150671
705.090	0.0149187
705.168	0.0145837
705.246	0.0144059
705.325	0.0142563
705.403	0.0141081
705.481	0.0139356
705.559	0.0139140
705.637	0.0136755
705.715	0.0136287
705.793	0.0135677
705.871	0.0135913
705.950	0.0135967
706.028	0.0136643
706.106	0.0138047
706.184	0.0140973
706.262	0.0145033
706.340	0.0147129
706.418	0.0151192
706.496	0.0153974
706.575	0.0156017
706.653	0.0157829
706.731	0.0157137
706.809	0.0157622
706.887	0.0155437
706.965	0.0152739
707.043	0.0150862
707.121	0.0146651
707.200	0.0141786
707.278	0.0138889
707.356	0.0135293
707.434	0.0134032
707.512	0.0131660
707.590	0.0132207
707.668	0.0131369
707.746	0.0133562
707.825	0.0137836
707.903	0.0138290
707.981	0.0141157
708.059	0.0142929
708.137	0.0144914
708.215	0.0147997
708.293	0.0150213
708.371	0.0151461
708.450	0.0153341
708.528	0.0154594
708.606	0.0153819
708.684	0.0154671
708.762	0.0153107
708.840	0.0150791
708.918	0.0149306
708.996	0.0147350
709.075	0.0146788
709.153	0.0145893
709.231	0.0142780
709.309	0.0141045
709.387	0.0141615
709.465	0.0141090
709.543	0.0140868
709.621	0.0139893
709.700	0.0137287
709.778	0.0137169
709.856	0.0139086
709.934	0.0140936
710.012	0.0142940
710.090	0.0143342
710.168	0.0144373
710.246	0.0145444
710.325	0.0147707
710.403	0.0149596
710.481	0.0151793
710.559	0.0153432
710.637	0.0152771
710.715	0.0152522
710.793	0.0149537
710.871	0.0149747
710.950	0.0149717
711.028	0.0145037
711.106	0.0144376
711.184	0.0142822
711.262	0.0142286
711.340	0.0141431
711.418	0.0140684
711.496	0.0142660
711.575	0.0141907
711.653	0.0142071
711.731	0.0142946
711.809	0.0143819
711.887	0.0145815
711.965	0.0144581
712.043	0.0145131
712.121	0.0144608
712.200	0.0144466
712.278	0.0143904
712.356	0.0142284
712.434	0.0143008
712.512	0.0144599
712.590	0.0144730
712.668	0.0144482
712.746	0.0145855
712.825	0.0145459
712.903	0.0146906
712.981	0.0146844
713.059	0.0146870
713.137	0.0145295
713.215	0.0145041
713.293	0.0146667
713.371	0.0146075
713.450	0.0145934
713.528	0.0145338
713.606	0.0144028
713.684	0.0144379
713.762	0.0143814
713.840	0.0142467
713.918	0.0143583
713.996	0.0145032
714.075	0.0146935
714.153	0.0144996
714.231	0.0146220
714.309	0.0147555
714.387	0.0147713
714.465	0.0147617
714.543	0.0149139
714.621	0.0148743
714.700	0.0148207
714.778	0.0147765
714.856	0.0147857
714.934	0.0146026
715.012	0.0146495
715.090	0.0144309
715.168	0.0144279
715.246	0.0142931
715.325	0.0141673
715.403	0.0140849
715.481	0.0140125
715.559	0.0141208
715.637	0.0139800
715.715	0.0139473
715.793	0.0141695
715.871	0.0140288
715.950	0.0142411
716.028	0.0142073
716.106	0.0142111
716.184	0.0143330
716.262	0.0144712
716.340	0.0146334
716.418	0.0146219
716.496	0.0147590
716.575	0.0149350
716.653	0.0149847
716.731	0.0148717
716.809	0.0149154
716.887	0.0147826
716.965	0.0149989
717.043	0.0147565
717.121	0.0146992
717.200	0.0146198
717.278	0.0145053
717.356	0.0144013
717.434	0.0142694
717.512	0.0140354
717.590	0.0140919
717.668	0.0140313
717.746	0.0139756
717.825	0.0139050
717.903	0.0141678
717.981	0.0142637
718.059	0.0142582
718.137	0.0143253
718.215	0.0144801
718.293	0.0147436
718.371	0.0148618
718.450	0.0147623
718.528	0.0149053
718.606	0.0150120
718.684	0.0151599
718.762	0.0150744
718.840	0.0151353
718.918	0.0150299
718.996	0.0148180
719.075	0.0147898
719.153	0.0147588
719.231	0.0145621
719.309	0.0143858
719.387	0.0142647
719.465	0.0140775
719.543	0.0138775
719.621	0.0138441
719.700	0.0139588
719.778	0.0138331
719.856	0.0138922
719.934	0.0140881
720.012	0.0140200
720.090	0.0139772
720.168	0.0142831
720.246	0.0143418
720.325	0.0145737
720.403	0.0147375
720.481	0.0148732
720.559	0.0147755
720.637	0.0148419
720.715	0.0150159
720.793	0.0149512
720.871	0.0148915
720.950	0.0147886
721.028	0.0146915
721.106	0.0146004
721.184	0.0145705
721.262	0.0143214
721.340	0.0143549
721.418	0.0144855
721.496	0.0142355
721.575	0.0141705
721.653	0.0141866
721.731	0.0140791
721.809	0.0140149
721.887	0.0139713
721.965	0.0140022
722.043	0.0138914
722.121	0.0139701
722.200	0.0138830
722.278	0.0139806
722.356	0.0139453
722.434	0.0139152
722.512	0.0140292
722.590	0.0142115
722.668	0.0142979
722.746	0.0143737
722.825	0.0143925
722.903	0.0146930
722.981	0.0148236
723.059	0.0148063
723.137	0.0151149
723.215	0.0151311
723.293	0.0152155
723.371	0.0150465
723.450	0.0150193
723.528	0.0150816
723.606	0.0150489
723.684	0.0147227
723.762	0.0144440
723.840	0.0144919
723.918	0.0142430
723.996	0.0140189
724.075	0.0140577
724.153	0.0139592
724.231	0.0139704
724.309	0.0138278
724.387	0.0138290
724.465	0.0140226
724.543	0.0141319
724.621	0.0143595
724.700	0.0143266
724.778	0.0144809
724.856	0.0143816
724.934	0.0145251
725.012	0.0147984
725.090	0.0145422
725.168	0.0148439
725.246	0.0149021
725.325	0.0149364
725.403	0.0148450
725.481	0.0149953
725.559	0.0149979
725.637	0.0148567
725.715	0.0149043
725.793	0.0149558
725.871	0.0148351
725.950	0.0147862
726.028	0.0145831
726.106	0.0144649
726.184	0.0145309
726.262	0.0144319
726.340	0.0142154
726.418	0.0141325
726.496	0.0141930
726.575	0.0139906
726.653	0.0140603
726.731	0.0140761
726.809	0.0139952
726.887	0.0140784
726.965	0.0142970
727.043	0.0142963
727.121	0.0145349
727.200	0.0147020
727.278	0.0146868
727.356	0.0148512
727.434	0.0147631
727.512	0.0148988
727.590	0.0151666
727.668	0.0150906
727.746	0.0147952
727.825	0.0149285
727.903	0.0150037
727.981	0.0146824
728.059	0.0146371
728.137	0.0144157
728.215	0.0142738
728.293	0.0142339
728.371	0.0141262
728.450	0.0141488
728.528	0.0141653
728.606	0.0140598
728.684	0.0141216
728.762	0.0141381
728.840	0.0143250
728.918	0.0142817
728.996	0.0143755
729.075	0.0145019
729.153	0.0144548
729.231	0.0145481
729.309	0.0144855
729.387	0.0145119
729.465	0.0147188
729.543	0.0146472
729.621	0.0146590
729.700	0.0145887
729.778	0.0146851
729.856	0.0147029
729.934	0.0146085
730.012	0.0145464
730.090	0.0144556
730.168	0.0146446
730.246	0.0144646
730.325	0.0143681
730.403	0.0145539
730.481	0.0144736
730.559	0.0144119
730.637	0.0144722
730.715	0.0144516
730.793	0.0144042
730.871	0.0146039
730.950	0.0144449
731.028	0.0144521
731.106	0.0144232
731.184	0.0145654
731.262	0.0143833
731.340	0.0144086
731.418	0.0145715
731.496	0.0144894
731.575	0.0143752
731.653	0.0144646
731.731	0.0143595
731.809	0.0143798
731.887	0.0144613
731.965	0.0143558
732.043	0.0144255
732.121	0.0143848
732.200	0.0143936
732.278	0.0146409
732.356	0.0146342
732.434	0.0146850
732.512	0.0146007
732.590	0.0146741
732.668	0.0147481
732.746	0.0147747
732.825	0.0146640
732.903	0.0147740
732.981	0.0147048
733.059	0.0146431
733.137	0.0146545
733.215	0.0146503
733.293	0.0145205
733.371	0.0144469
733.450	0.0145227
733.528	0.0143828
733.606	0.0144035
733.684	0.0143304
733.762	0.0142713
733.840	0.0141708
733.918	0.0142564
733.996	0.0143177
734.075	0.0142418
734.153	0.0141298
734.231	0.0143278
734.309	0.0143629
734.387	0.0142757
734.465	0.0143694
734.543	0.0145119
734.621	0.0145138
734.700	0.0145930
734.778	0.0145013
734.856	0.0146783
734.934	0.0147289
735.012	0.0146673
735.090	0.0147855
735.168	0.0146471
735.246	0.0147047
735.325	0.0147089
735.403	0.0146977
735.481	0.0144031
735.559	0.0143955
735.637	0.0143861
735.715	0.0142831
735.793	0.0142410
735.871	0.0141545
735.950	0.0140319
736.028	0.0140938
736.106	0.0139704
736.184	0.0140653
736.262	0.0142802
736.340	0.0141509
736.418	0.0143510
736.496	0.0143793
736.575	0.0144821
736.653	0.0145425
736.731	0.0145895
736.809	0.0146233
736.887	0.0146355
736.965	0.0146464
737.043	0.0148721
737.121	0.0149072
737.200	0.0147216
737.278	0.0146872
737.356	0.0148104
737.434	0.0147887
737.512	0.0147820
737.590	0.0146391
737.668	0.0144789
737.746	0.0144691
737.825	0.0145881
737.903	0.0143475
737.981	0.0142369
738.059	0.0141825
738.137	0.0142755
738.215	0.0142476
738.293	0.0141527
738.371	0.0141705
738.450	0.0141393
738.528	0.0142074
738.606	0.0141987
738.684	0.0141597
738.762	0.0141376
738.840	0.0141817
738.918	0.0142465
738.996	0.0143369
739.075	0.0143582
739.153	0.0145135
739.231	0.0144022
739.309	0.0144310
739.387	0.0146325
739.465	0.0145341
739.543	0.0144984
739.621	0.0145640
739.700	0.0146072
739.778	0.0147552
739.856	0.0147459
739.934	0.0146836
740.012	0.0146450
740.090	0.0147430
740.168	0.0146496
740.246	0.0146688
740.325	0.0146140
740.403	0.0145893
740.481	0.0144827
740.559	0.0145050
740.637	0.0144187
740.715	0.0143390
740.793	0.0145014
740.871	0.0144419
740.950	0.0143951
741.028	0.0144836
741.106	0.0144029
741.184	0.0144742
741.262	0.0145707
741.340	0.0144711
741.418	0.0146080
741.496	0.0145925
741.575	0.0146317
741.653	0.0147218
741.731	0.0145815
741.809	0.0145875
741.887	0.0144666
741.965	0.0145425
742.043	0.0146037
742.121	0.0145269
742.200	0.0144533
742.278	0.0143512
742.356	0.0143719
742.434	0.0142696
742.512	0.0143425
742.590	0.0142804
742.668	0.0143801
742.746	0.0144411
742.825	0.0143988
742.903	0.0144252
742.981	0.0144171
743.059	0.0141998
743.137	0.0142346
743.215	0.0143281
743.293	0.0144020
743.371	0.0141778
743.450	0.0141964
743.528	0.0140957
743.606	0.0142681
743.684	0.0143114
743.762	0.0142279
743.840	0.0141962
743.918	0.0142899
743.996	0.0142699
744.075	0.0143362
744.153	0.0144659
744.231	0.0144529
744.309	0.0145070
744.387	0.0145133
744.465	0.0146719
744.543	0.0147289
744.621	0.0145759
744.700	0.0146735
744.778	0.0146488
744.856	0.0145915
744.934	0.0147078
745.012	0.0147990
745.090	0.0145972
745.168	0.0145637
745.246	0.0145455
745.325	0.0144733
745.403	0.0145676
745.481	0.0144788
745.559	0.0144265
745.637	0.0143887
745.715	0.0143377
745.793	0.0144689
745.871	0.0143473
745.950	0.0144456
746.028	0.0143687
746.106	0.0143407
746.184	0.0144299
746.262	0.0143490
746.340	0.0143269
746.418	0.0143835
746.496	0.0144704
746.575	0.0144724
746.653	0.0143114
746.731	0.0144422
746.809	0.0145390
746.887	0.0144444
746.965	0.0146086
747.043	0.0147325
747.121	0.0146341
747.200	0.0146010
747.278	0.0148380
747.356	0.0146680
747.434	0.0146542
747.512	0.0146392
747.590	0.0146685
747.668	0.0146451
747.746	0.0146146
747.825	0.0144636
747.903	0.0143359
747.981	0.0144989
748.059	0.0143368
748.137	0.0143961
748.215	0.0143172
748.293	0.0142911
748.371	0.0142561
748.450	0.0143069
748.528	0.0144358
748.606	0.0144204
748.684	0.0145902
748.762	0.0147235
748.840	0.0146353
748.918	0.0146889
748.996	0.0147251
749.075	0.0148164
749.153	0.0146687
749.231	0.0145964
749.309	0.0147443
749.387	0.0146458
749.465	0.0147102
749.543	0.0146818
749.621	0.0146169
749.700	0.0146416
749.778	0.0144671
749.856	0.0144787
749.934	0.0145029
750.012	0.0144860
750.090	0.0142659
750.168	0.0142626
750.246	0.0142867
750.325	0.0142795
750.403	0.0142775
750.481	0.0142798
750.559	0.0143316
750.637	0.0142821
750.715	0.0142652
750.793	0.0143658
750.871	0.0143074
750.950	0.0143645
751.028	0.0144429
751.106	0.0143425
751.184	0.0141879
751.262	0.0143684
751.340	0.0143414
751.418	0.0144896
751.496	0.0145005
751.575	0.0144118
751.653	0.0144052
751.731	0.0144562
751.809	0.0144000
751.887	0.0144998
751.965	0.0143748
752.043	0.0143356
752.121	0.0143718
752.200	0.0143854
752.278	0.0143884
752.356	0.0144416
752.434	0.0142864
752.512	0.0141216
752.590	0.0144931
752.668	0.0143570
752.746	0.0143489
752.825	0.0144038
752.903	0.0142804
752.981	0.0143439
753.059	0.0144690
753.137	0.0143333
753.215	0.0143117
753.293	0.0143394
753.371	0.0144715
753.450	0.0143658
753.528	0.0144842
753.606	0.0144982
753.684	0.0144664
753.762	0.0147268
753.840	0.0144841
753.918	0.0145992
753.996	0.0145557
754.075	0.0145884
754.153	0.0145892
754.231	0.0144596
754.309	0.0144557
754.387	0.0146223
754.465	0.0144863
754.543	0.0145940
754.621	0.0145963
754.700	0.0145488
754.778	0.0143704
754.856	0.0144017
754.934	0.0145409
755.012	0.0145596
755.090	0.0143304
755.168	0.0142537
755.246	0.0143585
755.325	0.0145326
755.403	0.0145146
755.481	0.0144678
755.559	0.0144704
755.637	0.0142700
755.715	0.0145035
755.793	0.0144338
755.871	0.0143901
755.950	0.0144923
756.028	0.0144649
756.106	0.0143565
756.184	0.0145506
756.262	0.0143513
756.340	0.0143607
756.418	0.0143842
756.496	0.0145307
756.575	0.0145581
756.653	0.0145267
756.731	0.0144937
756.809	0.0145123
756.887	0.0145041
756.965	0.0146188
757.043	0.0144720
757.121	0.0145747
757.200	0.0144160
757.278	0.0145365
757.356	0.0145043
757.434	0.0147247
757.512	0.0144787
757.590	0.0144572
757.668	0.0146480
757.746	0.0146154
757.825	0.0145457
757.903	0.0144897
757.981	0.0145975
758.059	0.0144522
758.137	0.0144371
758.215	0.0145452
758.293	0.0145552
758.371	0.0145023
758.450	0.0145695
758.528	0.0145748
758.606	0.0144379
758.684	0.0143061
758.762	0.0143719
758.840	0.0143193
758.918	0.0143793
758.996	0.0143900
759.075	0.0144331
759.153	0.0144201
759.231	0.0143242
759.309	0.0142180
759.387	0.0143854
759.465	0.0143412
759.543	0.0143304
759.621	0.0143326
759.700	0.0142783
759.778	0.0143336
759.856	0.0143645
759.934	0.0143919
760.012	0.0143481
760.090	0.0142395
760.168	0.0143790
760.246	0.0143931
760.325	0.0143781
760.403	0.0144647
760.481	0.0142582
760.559	0.0144242
760.637	0.0144396
760.715	0.0143085
760.793	0.0142524
760.871	0.0144000
760.950	0.0142991
761.028	0.0142561
761.106	0.0145181
761.184	0.0145773
761.262	0.0144195
761.340	0.0143820
761.418	0.0147260
761.496	0.0146277
761.575	0.0145914
761.653	0.0145988
761.731	0.0147366
761.809	0.0144833
761.887	0.0144906
761.965	0.0145421
762.043	0.0143724
762.121	0.0144466
762.200	0.0144763
762.278	0.0143634
762.356	0.0145021
762.434	0.0144630
762.512	0.0144505
762.590	0.0145193
762.668	0.0143184
762.746	0.0145524
762.825	0.0145380
762.903	0.0144817
762.981	0.0144904
763.059	0.0144848
763.137	0.0144344
763.215	0.0144820
763.293	0.0143092
763.371	0.0144392
763.450	0.0143044
763.528	0.0143161
763.606	0.0143266
763.684	0.0143656
763.762	0.0144950
763.840	0.0143243
763.918	0.0144315
763.996	0.0145012
764.075	0.0143600
764.153	0.0144273
764.231	0.0144236
764.309	0.0144469
764.387	0.0143556
764.465	0.0144682
764.543	0.0144013
764.621	0.0143213
764.700	0.0144221
764.778	0.0142799
764.856	0.0143776
764.934	0.0141986
765.012	0.0145550
765.090	0.0145345
765.168	0.0143821
765.246	0.0144424
765.325	0.0144408
765.403	0.0145782
765.481	0.0145709
765.559	0.0144793
765.637	0.0146030
765.715	0.0145087
765.793	0.0144802
765.871	0.0146413
765.950	0.0146081
766.028	0.0146879
766.106	0.0146310
766.184	0.0146460
766.262	0.0146206
766.340	0.0146233
766.418	0.0145276
766.496	0.0146254
766.575	0.0145025
766.653	0.0146456
766.731	0.0146588
766.809	0.0145637
766.887	0.0144297
766.965	0.0144479
767.043	0.0144953
767.121	0.0144672
767.200	0.0144928
767.278	0.0143659
767.356	0.0144333
767.434	0.0143948
767.512	0.0142592
767.590	0.0143283
767.668	0.0142586
767.746	0.0144189
767.825	0.0144346
767.903	0.0143839
767.981	0.0142918
768.059	0.0145660
768.137	0.0145116
768.215	0.0143874
768.293	0.0144865
768.371	0.0145442
768.450	0.0145561
768.528	0.0144836
768.606	0.0145607
768.684	0.0146589
768.762	0.0144724
768.840	0.0144286
768.918	0.0144617
768.996	0.0145351
769.075	0.0145638
769.153	0.0144550
769.231	0.0144070
769.309	0.0145985
769.387	0.0144856
769.465	0.0145240
769.543	0.0145899
769.621	0.0146517
769.700	0.0145713
769.778	0.0145054
769.856	0.0145165
769.934	0.0146985
770.012	0.0146285
770.090	0.0144573
770.168	0.0145757
770.246	0.0146654
770.325	0.0145908
770.403	0.0145584
770.481	0.0146894
770.559	0.0145625
770.637	0.0145718
770.715	0.0146114
770.793	0.0145905
770.871	0.0146040
770.950	0.0145473
771.028	0.0144318
771.106	0.0143884
771.184	0.0144973
771.262	0.0144590
771.340	0.0144090
771.418	0.0144572
771.496	0.0143802
771.575	0.0143285
771.653	0.0143111
771.731	0.0143661
771.809	0.0141826
771.887	0.0142983
771.965	0.0143321
772.043	0.0144618
772.121	0.0142603
772.200	0.0142794
772.278	0.0144273
772.356	0.0144199
772.434	0.0143317
772.512	0.0144578
772.590	0.0143744
772.668	0.0144923
772.746	0.0145173
772.825	0.0144584
772.903	0.0145802
772.981	0.0146182
773.059	0.0144561
773.137	0.0144527
773.215	0.0144518
773.293	0.0146414
773.371	0.0146312
773.450	0.0145391
773.528	0.0144678
773.606	0.0144689
773.684	0.0145026
773.762	0.0145573
773.840	0.0145776
773.918	0.0145904
773.996	0.0145408
774.075	0.0145618
774.153	0.0144939
774.231	0.0145731
774.309	0.0146562
774.387	0.0144876
774.465	0.0143498
774.543	0.0144788
774.621	0.0144443
774.700	0.0144821
774.778	0.0145416
774.856	0.0145396
774.934	0.0145392
775.012	0.0145763
775.090	0.0144246
775.168	0.0144412
775.246	0.0145915
775.325	0.0144491
775.403	0.0144023
775.481	0.0144392
775.559	0.0143958
775.637	0.0145329
775.715	0.0145846
775.793	0.0144907
775.871	0.0143365
775.950	0.0145659
776.028	0.0145772
776.106	0.0144732
776.184	0.0143824
776.262	0.0143891
776.340	0.0143256
776.418	0.0144408
776.496	0.0143374
776.575	0.0143417
776.653	0.0142313
776.731	0.0144303
776.809	0.0143871
776.887	0.0144324
776.965	0.0144688
777.043	0.0143983
777.121	0.0143951
777.200	0.0144312
777.278	0.0145396
777.356	0.0143639
777.434	0.0143591
777.512	0.0144373
777.590	0.0144076
777.668	0.0144684
777.746	0.0145238
777.825	0.0144183
777.903	0.0145589
777.981	0.0145176
778.059	0.0145545
778.137	0.0144043
778.215	0.0145165
778.293	0.0144707
778.371	0.0143156
778.450	0.0144525
778.528	0.0144199
778.606	0.0143098
778.684	0.0143378
778.762	0.0144070
778.840	0.0142844
778.918	0.0143844
778.996	0.0143937
779.075	0.0142484
779.153	0.0143268
779.231	0.0143298
779.309	0.0143607
779.387	0.0143916
779.465	0.0144406
779.543	0.0143421
779.621	0.0143304
779.700	0.0142876
779.778	0.0142377
779.856	0.0142952
779.934	0.0142752
780.012	0.0143880
780.090	0.0143963
780.168	0.0144254
780.246	0.0144086
780.325	0.0144878
780.403	0.0143318
780.481	0.0144127
780.559	0.0143322
780.637	0.0145557
780.715	0.0144478
780.793	0.0144958
780.871	0.0144972
780.950	0.0144904
781.028	0.0144331
781.106	0.0145477
781.184	0.0144544
781.262	0.0145943
781.340	0.0144289
781.418	0.0143124
781.496	0.0142197
781.575	0.0144849
781.653	0.0146080
781.731	0.0144415
781.809	0.0144812
781.887	0.0143893
781.965	0.0144994
782.043	0.0144307
782.121	0.0144928
782.200	0.0144922
782.278	0.0146099
782.356	0.0146777
782.434	0.0145970
782.512	0.0145419
782.590	0.0145184
782.668	0.0145700
782.746	0.0145512
782.825	0.0145737
782.903	0.0146518
782.981	0.0145335
783.059	0.0145813
783.137	0.0144675
783.215	0.0144803
783.293	0.0146320
783.371	0.0145165
783.450	0.0143716
783.528	0.0144825
783.606	0.0144162
783.684	0.0143832
783.762	0.0143914
783.840	0.0144121
783.918	0.0144769
783.996	0.0144431
784.075	0.0142915
784.153	0.0144965
784.231	0.0144898
784.309	0.0143562
784.387	0.0144460
784.465	0.0143433
784.543	0.0146356
784.621	0.0146224
784.700	0.0143452
784.778	0.0144989
784.856	0.0145274
784.934	0.0144234
785.012	0.0143974
785.090	0.0144781
785.168	0.0143551
785.246	0.0144339
785.325	0.0144878
785.403	0.0144263
785.481	0.0143998
785.559	0.0143671
785.637	0.0143565
785.715	0.0143597
785.793	0.0144037
785.871	0.0142964
785.950	0.0142822
786.028	0.0143855
786.106	0.0143551
786.184	0.0143143
786.262	0.0143066
786.340	0.0143562
786.418	0.0144321
786.496	0.0143516
786.575	0.0143436
786.653	0.0144288
786.731	0.0144689
786.809	0.0143417
786.887	0.0143459
786.965	0.0143803
787.043	0.0144110
787.121	0.0144144
787.200	0.0144846
787.278	0.0145417
787.356	0.0143288
787.434	0.0144009
787.512	0.0143513
787.590	0.0144337
787.668	0.0143450
787.746	0.0145647
787.825	0.0145349
787.903	0.0144019
787.981	0.0144565
788.059	0.0145638
788.137	0.0145713
788.215	0.0144272
788.293	0.0145409
788.371	0.0145836
788.450	0.0145537
788.528	0.0144936
788.606	0.0145711
788.684	0.0144601
788.762	0.0143670
788.840	0.0145290
788.918	0.0145927
788.996	0.0144572
789.075	0.0145644
789.153	0.0144563
789.231	0.0144428
789.309	0.0143158
789.387	0.0144605
789.465	0.0144602
789.543	0.0145255
789.621	0.0144512
789.700	0.0144913
789.778	0.0144212
789.856	0.0144735
789.934	0.0145228
790.012	0.0145280
790.090	0.0146861
790.168	0.0145738
790.246	0.0144984
790.325	0.0145631
790.403	0.0146442
790.481	0.0146402
790.559	0.0146048
790.637	0.0146583
790.715	0.0145288
790.793	0.0145926
790.871	0.0144748
790.950	0.0145358
791.028	0.0145789
791.106	0.0146378
791.184	0.0144810
791.262	0.0146002
791.340	0.0145609
791.418	0.0145177
791.496	0.0145066
791.575	0.0144012
791.653	0.0144965
791.731	0.0144902
791.809	0.0145498
791.887	0.0144701
791.965	0.0145084
792.043	0.0145393
792.121	0.0144378
792.200	0.0144373
792.278	0.0144866
792.356	0.0145130
792.434	0.0147053
792.512	0.0146112
792.590	0.0145504
792.668	0.0145423
792.746	0.0145427
792.825	0.0146170
792.903	0.0144511
792.981	0.0145382
793.059	0.0145470
793.137	0.0145000
793.215	0.0146558
793.293	0.0145175
793.371	0.0144252
793.450	0.0144516
793.528	0.0145601
793.606	0.0145505
793.684	0.0143477
793.762	0.0144753
793.840	0.0144065
793.918	0.0143538
793.996	0.0143598
794.075	0.0143364
794.153	0.0143526
794.231	0.0144760
794.309	0.0145530
794.387	0.0144081
794.465	0.0144849
794.543	0.0143809
794.621	0.0143219
794.700	0.0143632
794.778	0.0143911
794.856	0.0141450
794.934	0.0144054
795.012	0.0143805
795.090	0.0142770
795.168	0.0143044
795.246	0.0143314
795.325	0.0143798
795.403	0.0144515
795.481	0.0143346
795.559	0.0141888
795.637	0.0144344
795.715	0.0144502
795.793	0.0146062
795.871	0.0144543
795.950	0.0145566
796.028	0.0145490
796.106	0.0145321
796.184	0.0146802
796.262	0.0145048
796.340	0.0144844
796.418	0.0146330
796.496	0.0145721
796.575	0.0144785
796.653	0.0145423
796.731	0.0144698
796.809	0.0144392
796.887	0.0144882
796.965	0.0145152
797.043	0.0144806
797.121	0.0143594
797.200	0.0142941
797.278	0.0144655
797.356	0.0144569
797.434	0.0144217
797.512	0.0143585
797.590	0.0144671
797.668	0.0144656
797.746	0.0143994
797.825	0.0144427
797.903	0.0146647
797.981	0.0145612
798.059	0.0143569
798.137	0.0145509
798.215	0.0144911
798.293	0.0144146
798.371	0.0144373
798.450	0.0144920
798.528	0.0144747
798.606	0.0145159
798.684	0.0144036
798.762	0.0143937
798.840	0.0143608
798.918	0.0143335
798.996	0.0145472
799.075	0.0144678
799.153	0.0143701
799.231	0.0145179
799.309	0.0144826
799.387	0.0145102
799.465	0.0144254
799.543	0.0145147
799.621	0.0145730
799.700	0.0144979
799.778	0.0145341
799.856	0.0144772
799.934	0.0144588
800.012	0.0144386
800.090	0.0146174
800.168	0.0144582
800.246	0.0143274
800.325	0.0144501
800.403	0.0145592
800.481	0.0144353
800.559	0.0143291
800.637	0.0142946
800.715	0.0143152
800.793	0.0142867
800.871	0.0141916
800.950	0.0142483
801.028	0.0143229
801.106	0.0144406
801.184	0.0143056
801.262	0.0143602
801.340	0.0144202
801.418	0.0143282
801.496	0.0143499
801.575	0.0144547
801.653	0.0142297
801.731	0.0142433
801.809	0.0144212
801.887	0.0144238
801.965	0.0144924
802.043	0.0143642
802.121	0.0142812
802.200	0.0144810
802.278	0.0145560
802.356	0.0143545
802.434	0.0143399
802.512	0.0144774
802.590	0.0144004
802.668	0.0143958
802.746	0.0144482
802.825	0.0144416
802.903	0.0143880
802.981	0.0143841
803.059	0.0144978
803.137	0.0143669
803.215	0.0143610
803.293	0.0143994
803.371	0.0143665
803.450	0.0143517
803.528	0.0143348
803.606	0.0143852
803.684	0.0142830
803.762	0.0143494
803.840	0.0145319
803.918	0.0143802
803.996	0.0144123
804.075	0.0144523
804.153	0.0144860
804.231	0.0145016
804.309	0.0146071
804.387	0.0146208
804.465	0.0145258
804.543	0.0144755
804.621	0.0144128
804.700	0.0145378
804.778	0.0144624
804.856	0.0144213
804.934	0.0144224
805.012	0.0144725
805.090	0.0143623
805.168	0.0144039
805.246	0.0143638
805.325	0.0143973
805.403	0.0143859
805.481	0.0145967
805.559	0.0143460
805.637	0.0142308
805.715	0.0142391
805.793	0.0145716
805.871	0.0145057
805.950	0.0144262
806.028	0.0143447
806.106	0.0145434
806.184	0.0143935
806.262	0.0143801
806.340	0.0144482
806.418	0.0145760
806.496	0.0146105
806.575	0.0144451
806.653	0.0143813
806.731	0.0144695
806.809	0.0145409
806.887	0.0146697
806.965	0.0145958
807.043	0.0144685
807.121	0.0145161
807.200	0.0146925
807.278	0.0144944
807.356	0.0144739
807.434	0.0144173
807.512	0.0145589
807.590	0.0145579
807.668	0.0145351
807.746	0.0144654
807.825	0.0145393
807.903	0.0142496
807.981	0.0144632
808.059	0.0143916
808.137	0.0143856
808.215	0.0144303
808.293	0.0145889
808.371	0.0142733
808.450	0.0144305
808.528	0.0144110
808.606	0.0144084
808.684	0.0144395
808.762	0.0145496
808.840	0.0145271
808.918	0.0144157
808.996	0.0145707
809.075	0.0144736
809.153	0.0145196
809.231	0.0145409
809.309	0.0144286
809.387	0.0145001
809.465	0.0145037
809.543	0.0144759
809.621	0.0145203
809.700	0.0145103
809.778	0.0144776
809.856	0.0143938
809.934	0.0144829
810.012	0.0144759
810.090	0.0144386
810.168	0.0145428
810.246	0.0143613
810.325	0.0144575
810.403	0.0144814
810.481	0.0144225
810.559	0.0143637
810.637	0.0144866
810.715	0.0144395
810.793	0.0145033
810.871	0.0144917
810.950	0.0143755
811.028	0.0144492
811.106	0.0144507
811.184	0.0144415
811.262	0.0145415
811.340	0.0145175
811.418	0.0144049
811.496	0.0145972
811.575	0.0146124
811.653	0.0144296
811.731	0.0145096
811.809	0.0145042
811.887	0.0145341
811.965	0.0144331
812.043	0.0145351
812.121	0.0143866
812.200	0.0144525
812.278	0.0144225
812.356	0.0144151
812.434	0.0143444
812.512	0.0143533
812.590	0.0143893
812.668	0.0142800
812.746	0.0143132
812.825	0.0143360
812.903	0.0143491
812.981	0.0143124
813.059	0.0142882
813.137	0.0143311
813.215	0.0142726
813.293	0.0142532
813.371	0.0142920
813.450	0.0143703
813.528	0.0144376
813.606	0.0143707
813.684	0.0143890
813.762	0.0144303
813.840	0.0145100
813.918	0.0144400
813.996	0.0143098
814.075	0.0144936
814.153	0.0144665
814.231	0.0146120
814.309	0.0144994
814.387	0.0145950
814.465	0.0145397
814.543	0.0145055
814.621	0.0145554
814.700	0.0146200
814.778	0.0147083
814.856	0.0144412
814.934	0.0145274
815.012	0.0145870
815.090	0.0146390
815.168	0.0144554
815.246	0.0144671
815.325	0.0145290
815.403	0.0144068
815.481	0.0144679
815.559	0.0143938
815.637	0.0144226
815.715	0.0144778
815.793	0.0144037
815.871	0.0144053
815.950	0.0144559
816.028	0.0143882
816.106	0.0144085
816.184	0.0143698
816.262	0.0144502
816.340	0.0144138
816.418	0.0144101
816.496	0.0144536
816.575	0.0144550
816.653	0.0146815
816.731	0.0145694
816.809	0.0145038
816.887	0.0144681
816.965	0.0146541
817.043	0.0146513
817.121	0.0146811
817.200	0.0145267
817.278	0.0145349
817.356	0.0144959
817.434	0.0145468
817.512	0.0143900
817.590	0.0145268
817.668	0.0144259
817.746	0.0145227
817.825	0.0144164
817.903	0.0143615
817.981	0.0142268
818.059	0.0142082
818.137	0.0144118
818.215	0.0143820
818.293	0.0145129
818.371	0.0142802
818.450	0.0143594
818.528	0.0143864
818.606	0.0143858
818.684	0.0143941
818.762	0.0143385
818.840	0.0143343
818.918	0.0145004
818.996	0.0145300
819.075	0.0145527
819.153	0.0145445
819.231	0.0146297
819.309	0.0145860
819.387	0.0145376
819.465	0.0145383
819.543	0.0144167
819.621	0.0144720
819.700	0.0144804
819.778	0.0145489
819.856	0.0145050
819.934	0.0144621
820.012	0.0144047
820.090	0.0144954
820.168	0.0144122
820.246	0.0143936
820.325	0.0143161
820.403	0.0144558
820.481	0.0143698
820.559	0.0143611
820.637	0.0145407
820.715	0.0144753
820.793	0.0144195
820.871	0.0144834
820.950	0.0143773
821.028	0.0144530
821.106	0.0143633
821.184	0.0144399
821.262	0.0142795
821.340	0.0142263
821.418	0.0143882
821.496	0.0144524
821.575	0.0143511
821.653	0.0142702
821.731	0.0142860
821.809	0.0144527
821.887	0.0143626
821.965	0.0144423
822.043	0.0143652
822.121	0.0145022
822.200	0.0144194
822.278	0.0144282
822.356	0.0143996
822.434	0.0145468
822.512	0.0146412
822.590	0.0146193
822.668	0.0145359
822.746	0.0144428
822.825	0.0145439
822.903	0.0145476
822.981	0.0144768
823.059	0.0145677
823.137	0.0143338
823.215	0.0144376
823.293	0.0145464
823.371	0.0142669
823.450	0.0143967
823.528	0.0145119
823.606	0.0144476
823.684	0.0143917
823.762	0.0144107
823.840	0.0143619
823.918	0.0144553
823.996	0.0143699
824.075	0.0143640
824.153	0.0144748
824.231	0.0145203
824.309	0.0144775
824.387	0.0143603
824.465	0.0144611
824.543	0.0145006
824.621	0.0144799
824.700	0.0145015
824.778	0.0142808
824.856	0.0143739
824.934	0.0143820
825.012	0.0143559
825.090	0.0144411
825.168	0.0144533
825.246	0.0145330
825.325	0.0145363
825.403	0.0145309
825.481	0.0146080
825.559	0.0145325
825.637	0.0145835
825.715	0.0146288
825.793	0.0145319
825.871	0.0145640
825.950	0.0144702
826.028	0.0144208
826.106	0.0144594
826.184	0.0145152
826.262	0.0144478
826.340	0.0145393
826.418	0.0144323
826.496	0.0143527
826.575	0.0144702
826.653	0.0143228
826.731	0.0141942
826.809	0.0144098
826.887	0.0142503
826.965	0.0142553
827.043	0.0143913
827.121	0.0144347
827.200	0.0143416
827.278	0.0144733
827.356	0.0144742
827.434	0.0144183
827.512	0.0145186
827.590	0.0144609
827.668	0.0143122
827.746	0.0144209
827.825	0.0143451
827.903	0.0143924
827.981	0.0143245
828.059	0.0141871
828.137	0.0142369
828.215	0.0143758
828.293	0.0143118
828.371	0.0143763
828.450	0.0143792
828.528	0.0142965
828.606	0.0145053
828.684	0.0144054
828.762	0.0143845
828.840	0.0144464
828.918	0.0144832
828.996	0.0143822
829.075	0.0144705
829.153	0.0143725
829.231	0.0144545
829.309	0.0144515
829.387	0.0143589
829.465	0.0145556
829.543	0.0145412
829.621	0.0144899
829.700	0.0146014
829.778	0.0145239
829.856	0.0144840
829.934	0.0145043
830.012	0.0145486
830.090	0.0144876
830.168	0.0144962
830.246	0.0144856
830.325	0.0143906
830.403	0.0144632
830.481	0.0145121
830.559	0.0145152
830.637	0.0144119
830.715	0.0143922
830.793	0.0144942
830.871	0.0143276
830.950	0.0144688
831.028	0.0144814
831.106	0.0146020
831.184	0.0143357
831.262	0.0144620
831.340	0.0142198
831.418	0.0144669
831.496	0.0144772
831.575	0.0143097
831.653	0.0144323
831.731	0.0143405
831.809	0.0143790
831.887	0.0144852
831.965	0.0143343
832.043	0.0144476
832.121	0.0144421
832.200	0.0146014
832.278	0.0144784
832.356	0.0144497
832.434	0.0144252
832.512	0.0143442
832.590	0.0145490
832.668	0.0143605
832.746	0.0144299
832.825	0.0146273
832.903	0.0145058
832.981	0.0144763
833.059	0.0145768
833.137	0.0143876
833.215	0.0142707
833.293	0.0143472
833.371	0.0143447
833.450	0.0144363
833.528	0.0145261
833.606	0.0144396
833.684	0.0144290
833.762	0.0143997
833.840	0.0144424
833.918	0.0144798
833.996	0.0143916
834.075	0.0145375
834.153	0.0145917
834.231	0.0146141
834.309	0.0145960
834.387	0.0145277
834.465	0.0145407
834.543	0.0143918
834.621	0.0144267
834.700	0.0144587
834.778	0.0144827
834.856	0.0145912
834.934	0.0144354
835.012	0.0143708
835.090	0.0143049
835.168	0.0143574
835.246	0.0145193
835.325	0.0144574
835.403	0.0143856
835.481	0.0144661
835.559	0.0143970
835.637	0.0145336
835.715	0.0146435
835.793	0.0145292
835.871	0.0143774
835.950	0.0145231
836.028	0.0145638
836.106	0.0145258
836.184	0.0145640
836.262	0.0146057
836.340	0.0143442
836.418	0.0144190
836.496	0.0145823
836.575	0.0145903
836.653	0.0145782
836.731	0.0145174
836.809	0.0146337
836.887	0.0146036
836.965	0.0146194
837.043	0.0145155
837.121	0.0144219
837.200	0.0144935
837.278	0.0146372
837.356	0.0145331
837.434	0.0145576
837.512	0.0145810
837.590	0.0146084
837.668	0.0144296
837.746	0.0145535
837.825	0.0145759
837.903	0.0144847
837.981	0.0146439
838.059	0.0144566
838.137	0.0143886
838.215	0.0145288
838.293	0.0145094
838.371	0.0144507
838.450	0.0144726
838.528	0.0145291
838.606	0.0145604
838.684	0.0144514
838.762	0.0144086
838.840	0.0145110
838.918	0.0145151
838.996	0.0144626
839.075	0.0145897
839.153	0.0145599
839.231	0.0144044
839.309	0.0144558
839.387	0.0144901
839.465	0.0145988
839.543	0.0145567
839.621	0.0144338
839.700	0.0145058
839.778	0.0145378
839.856	0.0145770
839.934	0.0145587
840.012	0.0144141
840.090	0.0145783
840.168	0.0144682
840.246	0.0144972
840.325	0.0145570
840.403	0.0145216
840.481	0.0144569
840.559	0.0143652
840.637	0.0144133
840.715	0.0143782
840.793	0.0143347
840.871	0.0143391
840.950	0.0144659
841.028	0.0143720
841.106	0.0143668
841.184	0.0142965
841.262	0.0143179
841.340	0.0145010
841.418	0.0143324
841.496	0.0143153
841.575	0.0144020
841.653	0.0142648
841.731	0.0143465
841.809	0.0145248
841.887	0.0144032
841.965	0.0142861
842.043	0.0143420
842.121	0.0144218
842.200	0.0144011
842.278	0.0143725
842.356	0.0143676
842.434	0.0143834
842.512	0.0142635
842.590	0.0144772
842.668	0.0143630
842.746	0.0142445
842.825	0.0142951
842.903	0.0144145
842.981	0.0143863
843.059	0.0143187
843.137	0.0142432
843.215	0.0143076
843.293	0.0143999
843.371	0.0142956
843.450	0.0143179
843.528	0.0143299
843.606	0.0143122
843.684	0.0143464
843.762	0.0143259
843.840	0.0144450
843.918	0.0145436
843.996	0.0144689
844.075	0.0143306
844.153	0.0144031
844.231	0.0144955
844.309	0.0143962
844.387	0.0144701
844.465	0.0145037
844.543	0.0143456
844.621	0.0143433
844.700	0.0143787
844.778	0.0144920
844.856	0.0145651
844.934	0.0144288
845.012	0.0143906
845.090	0.0145296
845.168	0.0143813
845.246	0.0143810
845.325	0.0145121
845.403	0.0144602
845.481	0.0145142
845.559	0.0144821
845.637	0.0143713
845.715	0.0144897
845.793	0.0144248
845.871	0.0145257
845.950	0.0145031
846.028	0.0143602
846.106	0.0146412
846.184	0.0145881
846.262	0.0145717
846.340	0.0144885
846.418	0.0144381
846.496	0.0145738
846.575	0.0146339
846.653	0.0144733
846.731	0.0144938
846.809	0.0145169
846.887	0.0144851
846.965	0.0145954
847.043	0.0146080
847.121	0.0145084
847.200	0.0145486
847.278	0.0144273
847.356	0.0146036
847.434	0.0146884
847.512	0.0145742
847.590	0.0144143
847.668	0.0144263
847.746	0.0144253
847.825	0.0143500
847.903	0.0144105
847.981	0.0144954
848.059	0.0144818
848.137	0.0145287
848.215	0.0144041
848.293	0.0144849
848.371	0.0145415
848.450	0.0144772
848.528	0.0142933
848.606	0.0144301
848.684	0.0144588
848.762	0.0144682
848.840	0.0144001
848.918	0.0145735
848.996	0.0145621
849.075	0.0145869
849.153	0.0145419
849.231	0.0145023
849.309	0.0145728
849.387	0.0145916
849.465	0.0145464
849.543	0.0144855
849.621	0.0143670
849.700	0.0144195
849.778	0.0144633
849.856	0.0144402
849.934	0.0144170
850.012	0.0143247
850.090	0.0145126
850.168	0.0143097
850.246	0.0143448
850.325	0.0144659
850.403	0.0143713
850.481	0.0142612
850.559	0.0143468
850.637	0.0143594
850.715	0.0142965
850.793	0.0144671
850.871	0.0145475
850.950	0.0144172
851.028	0.0145007
851.106	0.0146337
851.184	0.0145939
851.262	0.0146499
851.340	0.0144613
851.418	0.0145216
851.496	0.0146881
851.575	0.0145161
851.653	0.0144662
851.731	0.0145374
851.809	0.0144755
851.887	0.0144099
851.965	0.0145381
852.043	0.0143851
852.121	0.0144942
852.200	0.0144671
852.278	0.0145466
852.356	0.0145089
852.434	0.0144438
852.512	0.0143079
852.590	0.0144607
852.668	0.0143837
852.746	0.0144060
852.825	0.0144233
852.903	0.0143954
852.981	0.0145249
853.059	0.0144396
853.137	0.0144915
853.215	0.0145441
853.293	0.0144003
853.371	0.0144292
853.450	0.0145101
853.528	0.0144978
853.606	0.0145408
853.684	0.0144672
853.762	0.0143678
853.840	0.0144763
853.918	0.0145490
853.996	0.0143031
854.075	0.0143561
854.153	0.0143497
854.231	0.0142884
854.309	0.0144970
854.387	0.0144192
854.465	0.0143851
854.543	0.0145013
854.621	0.0143423
854.700	0.0144792
854.778	0.0144541
854.856	0.0143699
854.934	0.0143844
855.012	0.0144791
855.090	0.0145770
855.168	0.0145489
855.246	0.0145954
855.325	0.0144813
855.403	0.0145774
855.481	0.0144849
855.559	0.0145093
855.637	0.0146152
855.715	0.0144579
855.793	0.0144479
855.871	0.0145609
855.950	0.0145032
856.028	0.0144457
856.106	0.0143823
856.184	0.0144617
856.262	0.0144690
856.340	0.0143853
856.418	0.0144443
856.496	0.0143840
856.575	0.0143687
856.653	0.0145220
856.731	0.0144819
856.809	0.0143973
856.887	0.0144633
856.965	0.0144831
857.043	0.0144427
857.121	0.0145335
857.200	0.0143264
857.278	0.0144709
857.356	0.0145547
857.434	0.0146068
857.512	0.0145118
857.590	0.0143799
857.668	0.0144894
857.746	0.0145645
857.825	0.0144688
857.903	0.0145251
857.981	0.0144739
858.059	0.0145851
858.137	0.0146690
858.215	0.0146202
858.293	0.0145849
858.371	0.0144949
858.450	0.0144383
858.528	0.0144833
858.606	0.0146326
858.684	0.0144960
858.762	0.0147086
858.840	0.0146181
858.918	0.0145361
858.996	0.0144179
859.075	0.0146155
859.153	0.0145616
859.231	0.0145358
859.309	0.0144308
859.387	0.0145654
859.465	0.0146107
859.543	0.0144050
859.621	0.0144646
859.700	0.0144262
859.778	0.0143060
859.856	0.0144003
859.934	0.0144206
860.012	0.0143836
860.090	0.0143964
860.168	0.0144304
860.246	0.0143802
860.325	0.0144489
860.403	0.0144978
860.481	0.0143494
860.559	0.0144582
860.637	0.0145300
860.715	0.0143959
860.793	0.0146555
860.871	0.0145082
860.950	0.0144476
861.028	0.0146014
861.106	0.0144729
861.184	0.0145438
861.262	0.0146860
861.340	0.0146089
861.418	0.0145719
861.496	0.0144993
861.575	0.0146149
861.653	0.0145376
861.731	0.0146152
861.809	0.0145264
861.887	0.0145422
861.965	0.0143849
862.043	0.0145332
862.121	0.0144945
862.200	0.0142857
862.278	0.0144871
862.356	0.0144223
862.434	0.0144290
862.512	0.0142876
862.590	0.0142799
862.668	0.0144691
862.746	0.0143984
862.825	0.0144719
862.903	0.0145123
862.981	0.0145213
863.059	0.0144346
863.137	0.0145045
863.215	0.0146190
863.293	0.0145352
863.371	0.0144650
863.450	0.0144278
863.528	0.0145362
863.606	0.0145064
863.684	0.0145216
863.762	0.0146027
863.840	0.0146177
863.918	0.0144480
863.996	0.0145661
864.075	0.0144315
864.153	0.0145071
864.231	0.0144342
864.309	0.0144997
864.387	0.0145429
864.465	0.0143340
864.543	0.0143333
864.621	0.0144415
864.700	0.0144514
864.778	0.0145233
864.856	0.0145030
864.934	0.0144956
865.012	0.0144762
865.090	0.0144451
865.168	0.0145404
865.246	0.0144572
865.325	0.0143039
865.403	0.0145631
865.481	0.0145479
865.559	0.0145826
865.637	0.0144788
865.715	0.0142965
865.793	0.0144115
865.871	0.0145483
865.950	0.0145399
866.028	0.0145312
866.106	0.0144894
866.184	0.0144130
866.262	0.0144512
866.340	0.0145016
866.418	0.0144698
866.496	0.0145708
866.575	0.0145055
866.653	0.0143997
866.731	0.0145708
866.809	0.0144390
866.887	0.0144799
866.965	0.0145435
867.043	0.0145424
867.121	0.0145190
867.200	0.0145064
867.278	0.0145862
867.356	0.0145179
867.434	0.0145381
867.512	0.0144880
867.590	0.0145111
867.668	0.0145332
867.746	0.0144440
867.825	0.0144378
867.903	0.0144038
867.981	0.0144438
868.059	0.0144706
868.137	0.0144413
868.215	0.0144435
868.293	0.0146922
868.371	0.0145038
868.450	0.0144380
868.528	0.0144690
868.606	0.0143879
868.684	0.0144755
868.762	0.0143573
868.840	0.0145240
868.918	0.0144762
868.996	0.0145069
869.075	0.0144520
869.153	0.0143925
869.231	0.0144125
869.309	0.0144556
869.387	0.0144685
869.465	0.0144825
869.543	0.0145872
869.621	0.0145991
869.700	0.0146452
869.778	0.0146070
869.856	0.0146141
869.934	0.0146149
870.012	0.0146227
870.090	0.0145821
870.168	0.0145086
870.246	0.0145646
870.325	0.0145470
870.403	0.0145722
870.481	0.0145866
870.559	0.0145695
870.637	0.0143618
870.715	0.0146164
870.793	0.0145551
870.871	0.0145776
870.950	0.0143836
871.028	0.0145364
871.106	0.0144598
871.184	0.0144956
871.262	0.0144492
871.340	0.0143527
871.418	0.0144553
871.496	0.0144851
871.575	0.0143546
871.653	0.0143214
871.731	0.0143764
871.809	0.0144314
871.887	0.0143126
871.965	0.0143110
872.043	0.0143092
872.121	0.0143384
872.200	0.0145753
872.278	0.0143922
872.356	0.0142144
872.434	0.0142989
872.512	0.0142731
872.590	0.0145352
872.668	0.0144493
872.746	0.0143378
872.825	0.0144753
872.903	0.0144556
872.981	0.0144028
873.059	0.0143368
873.137	0.0144333
873.215	0.0144757
873.293	0.0144048
873.371	0.0144291
873.450	0.0145457
873.528	0.0143885
873.606	0.0142519
873.684	0.0142522
873.762	0.0144833
873.840	0.0145126
873.918	0.0143814
873.996	0.0143085
874.075	0.0143970
874.153	0.0143071
874.231	0.0142857
874.309	0.0143401
874.387	0.0142889
874.465	0.0144395
874.543	0.0144321
874.621	0.0145346
874.700	0.0145219
874.778	0.0144347
874.856	0.0142957
874.934	0.0143387
875.012	0.0144369
875.090	0.0143272
875.168	0.0143469
875.246	0.0144477
875.325	0.0143923
875.403	0.0144627
875.481	0.0144736
875.559	0.0144721
875.637	0.0143376
875.715	0.0143027
875.793	0.0144678
875.871	0.0144533
875.950	0.0144184
876.028	0.0143732
876.106	0.0144379
876.184	0.0143248
876.262	0.0144280
876.340	0.0145213
876.418	0.0145866
876.496	0.0145248
876.575	0.0145682
876.653	0.0144839
876.731	0.0146079
876.809	0.0145636
876.887	0.0145662
876.965	0.0144394
877.043	0.0144500
877.121	0.0144711
877.200	0.0145409
877.278	0.0146163
877.356	0.0145716
877.434	0.0144991
877.512	0.0146085
877.590	0.0144615
877.668	0.0144048
877.746	0.0145538
877.825	0.0145010
877.903	0.0143752
877.981	0.0143639
878.059	0.0143484
878.137	0.0143215
878.215	0.0143465
878.293	0.0144071
878.371	0.0144486
878.450	0.0144709
878.528	0.0143135
878.606	0.0144512
878.684	0.0143987
878.762	0.0144636
878.840	0.0144609
878.918	0.0142915
878.996	0.0144431
879.075	0.0144889
879.153	0.0143496
879.231	0.0142874
879.309	0.0144523
879.387	0.0142641
879.465	0.0143085
879.543	0.0143397
879.621	0.0142597
879.700	0.0143513
879.778	0.0144285
879.856	0.0142934
879.934	0.0141910
880.012	0.0144572
880.090	0.0143399
880.168	0.0140732
880.246	0.0142471
880.325	0.0142668
880.403	0.0142951
880.481	0.0142587
880.559	0.0142935
880.637	0.0143826
880.715	0.0142858
880.793	0.0141891
880.871	0.0143074
880.950	0.0142976
881.028	0.0143608
881.106	0.0143745
881.184	0.0143762
881.262	0.0144874
881.340	0.0143835
881.418	0.0144624
881.496	0.0143304
881.575	0.0143138
881.653	0.0144395
881.731	0.0143980
881.809	0.0145326
881.887	0.0143603
881.965	0.0143430
882.043	0.0143829
882.121	0.0144641
882.200	0.0145723
882.278	0.0145809
882.356	0.0145255
882.434	0.0146164
882.512	0.0146278
882.590	0.0144546
882.668	0.0146502
882.746	0.0144839
882.825	0.0144762
882.903	0.0144488
882.981	0.0145404
883.059	0.0144321
883.137	0.0145621
883.215	0.0145674
883.293	0.0145004
883.371	0.0145099
883.450	0.0145060
883.528	0.0145217
883.606	0.0147040
883.684	0.0145818
883.762	0.0145139
883.840	0.0145786
883.918	0.0144700
883.996	0.0145488
884.075	0.0145901
884.153	0.0143970
884.231	0.0143435
884.309	0.0144267
884.387	0.0144118
884.465	0.0145650
884.543	0.0145374
884.621	0.0144445
884.700	0.0144746
884.778	0.0145343
884.856	0.0144852
884.934	0.0145492
885.012	0.0145791
885.090	0.0145580
885.168	0.0145206
885.246	0.0146113
885.325	0.0145744
885.403	0.0145827
885.481	0.0145707
885.559	0.0144881
885.637	0.0146703
885.715	0.0145818
885.793	0.0145014
885.871	0.0144439
885.950	0.0145470
886.028	0.0145541
886.106	0.0145437
886.184	0.0145529
886.262	0.0145203
886.340	0.0145658
886.418	0.0146973
886.496	0.0146959
886.575	0.0145947
886.653	0.0146790
886.731	0.0145882
886.809	0.0146900
886.887	0.0145992
886.965	0.0145319
887.043	0.0146001
887.121	0.0145756
887.200	0.0145809
887.278	0.0146419
887.356	0.0147000
887.434	0.0144467
887.512	0.0144844
887.590	0.0143997
887.668	0.0145495
887.746	0.0144260
887.825	0.0144908
887.903	0.0144874
887.981	0.0145228
888.059	0.0145023
888.137	0.0145759
888.215	0.0145939
888.293	0.0144113
888.371	0.0145660
888.450	0.0145081
888.528	0.0147527
888.606	0.0146085
888.684	0.0144906
888.762	0.0145282
888.840	0.0145227
888.918	0.0145810
888.996	0.0143482
889.075	0.0145156
889.153	0.0145451
889.231	0.0143894
889.309	0.0143237
889.387	0.0144705
889.465	0.0144728
889.543	0.0144489
889.621	0.0145608
889.700	0.0144652
889.778	0.0144579
889.856	0.0144896
889.934	0.0144250
890.012	0.0145367
890.090	0.0144386
890.168	0.0143691
890.246	0.0144096
890.325	0.0145676
890.403	0.0144603
890.481	0.0143691
890.559	0.0145120
890.637	0.0142768
890.715	0.0142915
890.793	0.0144106
890.871	0.0144105
890.950	0.0144558
891.028	0.0143201
891.106	0.0144505
891.184	0.0144025
891.262	0.0144504
891.340	0.0145492
891.418	0.0145355
891.496	0.0145560
891.575	0.0144764
891.653	0.0146613
891.731	0.0144466
891.809	0.0145053
891.887	0.0145631
891.965	0.0144833
892.043	0.0143954
892.121	0.0143337
892.200	0.0145157
892.278	0.0143365
892.356	0.0142326
892.434	0.0143996
892.512	0.0143395
892.590	0.0144535
892.668	0.0145036
892.746	0.0144434
892.825	0.0144705
892.903	0.0146715
892.981	0.0145026
893.059	0.0144788
893.137	0.0145256
893.215	0.0146502
893.293	0.0146407
893.371	0.0144808
893.450	0.0145971
893.528	0.0145242
893.606	0.0143834
893.684	0.0144389
893.762	0.0143421
893.840	0.0143829
893.918	0.0144006
893.996	0.0144346
894.075	0.0141698
894.153	0.0142222
894.231	0.0142743
894.309	0.0143401
894.387	0.0144534
894.465	0.0144422
894.543	0.0144921
894.621	0.0145383
894.700	0.0146071
894.778	0.0145369
894.856	0.0144650
894.934	0.0145430
895.012	0.0145792
895.090	0.0144652
895.168	0.0145376
895.246	0.0144038
895.325	0.0143320
895.403	0.0143651
895.481	0.0142979
895.559	0.0143332
895.637	0.0142852
895.715	0.0143092
895.793	0.0143417
895.871	0.0144395
895.950	0.0144942
896.028	0.0143027
896.106	0.0144508
896.184	0.0145699
896.262	0.0144822
896.340	0.0143175
896.418	0.0144546
896.496	0.0144334
896.575	0.0144530
896.653	0.0144717
896.731	0.0144764
896.809	0.0144826
896.887	0.0145120
896.965	0.0143784
897.043	0.0143389
897.121	0.0143247
897.200	0.0142223
897.278	0.0142765
897.356	0.0142709
897.434	0.0143575
897.512	0.0142189
897.590	0.0143905
897.668	0.0142341
897.746	0.0141813
897.825	0.0143285
897.903	0.0143008
897.981	0.0143433
898.059	0.0144306
898.137	0.0143498
898.215	0.0144581
898.293	0.0145584
898.371	0.0144196
898.450	0.0145576
898.528	0.0145734
898.606	0.0145547
898.684	0.0145810
898.762	0.0146019
898.840	0.0146329
898.918	0.0145175
898.996	0.0143104
899.075	0.0144377
899.153	0.0143993
899.231	0.0144698
899.309	0.0144185
899.387	0.0143931
899.465	0.0144183
899.543	0.0144662
899.621	0.0144825
899.700	0.0145831
899.778	0.0144407
899.856	0.0146088
899.934	0.0145807
900.012	0.0144983
900.090	0.0144467
900.168	0.0144928
900.246	0.0145371
900.325	0.0145649
900.403	0.0144503
900.481	0.0144051
900.559	0.0144950
900.637	0.0144981
900.715	0.0144740
900.793	0.0144236
900.871	0.0143537
900.950	0.0145306
901.028	0.0143302
901.106	0.0144217
901.184	0.0145219
901.262	0.0143949
901.340	0.0144373
901.418	0.0143962
901.496	0.0145753
901.575	0.0144115
901.653	0.0144389
901.731	0.0143727
901.809	0.0143080
901.887	0.0143078
901.965	0.0143494
902.043	0.0144256
902.121	0.0145528
902.200	0.0144667
902.278	0.0143933
902.356	0.0144139
902.434	0.0144732
902.512	0.0144002
902.590	0.0145863
902.668	0.0145436
902.746	0.0144654
902.825	0.0145331
902.903	0.0145467
902.981	0.0144068
903.059	0.0143827
903.137	0.0144046
903.215	0.0143188
903.293	0.0144123
903.371	0.0143915
903.450	0.0143803
903.528	0.0143095
903.606	0.0142540
903.684	0.0144403
903.762	0.0143596
903.840	0.0143469
903.918	0.0144682
903.996	0.0144516
904.075	0.0144648
904.153	0.0142937
904.231	0.0142355
904.309	0.0144665
904.387	0.0142977
904.465	0.0143626
904.543	0.0142280
904.621	0.0144171
904.700	0.0145129
904.778	0.0143830
904.856	0.0142773
904.934	0.0143095
905.012	0.0143550
905.090	0.0143024
905.168	0.0142303
905.246	0.0142799
905.325	0.0142625
905.403	0.0142461
905.481	0.0142540
905.559	0.0142299
905.637	0.0144009
905.715	0.0142246
905.793	0.0143170
905.871	0.0144140
905.950	0.0144115
906.028	0.0143445
906.106	0.0142461
906.184	0.0143764
906.262	0.0145628
906.340	0.0144267
906.418	0.0144256
906.496	0.0145036
906.575	0.0143374
906.653	0.0144850
906.731	0.0145041
906.809	0.0142683
906.887	0.0143841
906.965	0.0145111
907.043	0.0145025
907.121	0.0145549
907.200	0.0144704
907.278	0.0145372
907.356	0.0143710
907.434	0.0143948
907.512	0.0144788
907.590	0.0144055
907.668	0.0144600
907.746	0.0144421
907.825	0.0144585
907.903	0.0144669
907.981	0.0143597
908.059	0.0145233
908.137	0.0145335
908.215	0.0145879
908.293	0.0145898
908.371	0.0146432
908.450	0.0143999
908.528	0.0144474
908.606	0.0144480
908.684	0.0144593
908.762	0.0145918
908.840	0.0145896
908.918	0.0145345
908.996	0.0143882
909.075	0.0144469
909.153	0.0144787
909.231	0.0143943
909.309	0.0146162
909.387	0.0144756
909.465	0.0144180
909.543	0.0144698
909.621	0.0145377
909.700	0.0145317
909.778	0.0146461
909.856	0.0145195
909.934	0.0144169
910.012	0.0145203
910.090	0.0145642
910.168	0.0144170
910.246	0.0144682
910.325	0.0143907
910.403	0.0145001
910.481	0.0144036
910.559	0.0145835
910.637	0.0145795
910.715	0.0145326
910.793	0.0145728
910.871	0.0143886
910.950	0.0144186
911.028	0.0144421
911.106	0.0144814
911.184	0.0145503
911.262	0.0145129
911.340	0.0145135
911.418	0.0146251
911.496	0.0143472
911.575	0.0145555
911.653	0.0145365
911.731	0.0144720
911.809	0.0144096
911.887	0.0143705
911.965	0.0145085
912.043	0.0144769
912.121	0.0144554
912.200	0.0145576
912.278	0.0145238
912.356	0.0145672
912.434	0.0146156
912.512	0.0144869
912.590	0.0145885
912.668	0.0145650
912.746	0.0144682
912.825	0.0145547
912.903	0.0145860
912.981	0.0145317
913.059	0.0145060
913.137	0.0144508
913.215	0.0145993
913.293	0.0145973
913.371	0.0144910
913.450	0.0145053
913.528	0.0145467
913.606	0.0144749
913.684	0.0144842
913.762	0.0145114
913.840	0.0143849
913.918	0.0146297
913.996	0.0144556
914.075	0.0145057
914.153	0.0146416
914.231	0.0145683
914.309	0.0145851
914.387	0.0143727
914.465	0.0145802
914.543	0.0145456
914.621	0.0145697
914.700	0.0146487
914.778	0.0144177
914.856	0.0145876
914.934	0.0144595
915.012	0.0144463
915.090	0.0145770
915.168	0.0145926
915.246	0.0146642
915.325	0.0145167
915.403	0.0144379
915.481	0.0145507
915.559	0.0144786
915.637	0.0143753
915.715	0.0145252
915.793	0.0144467
915.871	0.0144199
915.950	0.0145168
916.028	0.0145032
916.106	0.0145444
916.184	0.0144457
916.262	0.0143756
916.340	0.0144168
916.418	0.0143855
916.496	0.0145145
916.575	0.0145918
916.653	0.0144456
916.731	0.0144787
916.809	0.0145930
916.887	0.0146010
916.965	0.0144884
917.043	0.0145820
917.121	0.0145055
917.200	0.0145322
917.278	0.0145381
917.356	0.0145050
917.434	0.0144181
917.512	0.0144859
917.590	0.0144650
917.668	0.0144149
917.746	0.0145820
917.825	0.0145094
917.903	0.0144669
917.981	0.0146011
918.059	0.0145535
918.137	0.0143784
918.215	0.0144480
918.293	0.0145142
918.371	0.0145641
918.450	0.0144620
918.528	0.0144442
918.606	0.0144722
918.684	0.0145387
918.762	0.0144341
918.840	0.0144550
918.918	0.0146877
918.996	0.0143924
919.075	0.0145670
919.153	0.0144799
919.231	0.0145324
919.309	0.0143281
919.387	0.0144592
919.465	0.0144779
919.543	0.0145701
919.621	0.0144189
919.700	0.0144134
919.778	0.0144294
919.856	0.0144506
919.934	0.0144696
920.012	0.0143824
920.090	0.0143284
920.168	0.0144464
920.246	0.0144074
920.325	0.0144289
920.403	0.0144486
920.481	0.0144859
920.559	0.0143569
920.637	0.0144459
920.715	0.0143934
920.793	0.0144307
920.871	0.0144921
920.950	0.0143581
921.028	0.0144007
921.106	0.0144217
921.184	0.0145412
921.262	0.0145638
921.340	0.0145831
921.418	0.0145275
921.496	0.0144418
921.575	0.0144617
921.653	0.0144211
921.731	0.0144353
921.809	0.0144071
921.887	0.0145147
921.965	0.0144727
922.043	0.0144604
922.121	0.0144150
922.200	0.0143952
922.278	0.0144332
922.356	0.0144287
922.434	0.0143519
922.512	0.0142760
922.590	0.0143935
922.668	0.0142677
922.746	0.0143472
922.825	0.0143808
922.903	0.0144082
922.981	0.0143644
923.059	0.0143536
923.137	0.0144173
923.215	0.0143463
923.293	0.0145130
923.371	0.0143253
923.450	0.0143449
923.528	0.0145511
923.606	0.0144913
923.684	0.0143528
923.762	0.0144321
923.840	0.0143643
923.918	0.0145820
923.996	0.0143830
924.075	0.0143840
924.153	0.0145006
924.231	0.0145944
924.309	0.0145161
924.387	0.0143694
924.465	0.0144588
924.543	0.0145040
924.621	0.0144231
924.700	0.0144804
924.778	0.0144682
924.856	0.0144792
924.934	0.0144807
925.012	0.0145589
925.090	0.0143981
925.168	0.0144470
925.246	0.0144179
925.325	0.0144830
925.403	0.0145483
925.481	0.0144973
925.559	0.0144698
925.637	0.0145253
925.715	0.0143792
925.793	0.0143581
925.871	0.0144149
925.950	0.0145167
926.028	0.0143856
926.106	0.0143913
926.184	0.0143769
926.262	0.0145463
926.340	0.0145029
926.418	0.0142789
926.496	0.0144949
926.575	0.0145464
926.653	0.0145172
926.731	0.0144186
926.809	0.0143480
926.887	0.0143837
926.965	0.0144513
927.043	0.0144182
927.121	0.0143286
927.200	0.0143480
927.278	0.0143649
927.356	0.0142714
927.434	0.0144137
927.512	0.0144343
927.590	0.0143636
927.668	0.0145306
927.746	0.0144564
927.825	0.0143712
927.903	0.0145111
927.981	0.0142487
928.059	0.0144049
928.137	0.0144736
928.215	0.0143880
928.293	0.0143179
928.371	0.0143904
928.450	0.0144318
928.528	0.0144386
928.606	0.0144650
928.684	0.0144565
928.762	0.0143976
928.840	0.0143837
928.918	0.0143775
928.996	0.0143596
929.075	0.0143124
929.153	0.0143761
929.231	0.0143913
929.309	0.0143205
929.387	0.0144827
929.465	0.0144362
929.543	0.0144082
929.621	0.0143398
929.700	0.0143475
929.778	0.0143363
929.856	0.0144926
929.934	0.0145232
930.012	0.0145059
930.090	0.0145581
930.168	0.0145460
930.246	0.0145871
930.325	0.0145605
930.403	0.0144964
930.481	0.0146305
930.559	0.0144856
930.637	0.0144748
930.715	0.0146322
930.793	0.0144643
930.871	0.0143813
930.950	0.0144967
931.028	0.0146421
931.106	0.0143298
931.184	0.0143259
931.262	0.0144130
931.340	0.0144514
931.418	0.0144149
931.496	0.0145741
931.575	0.0145512
931.653	0.0143186
931.731	0.0144570
931.809	0.0145135
931.887	0.0143414
931.965	0.0145383
932.043	0.0143931
932.121	0.0143846
932.200	0.0144540
932.278	0.0144878
932.356	0.0144159
932.434	0.0144897
932.512	0.0145178
932.590	0.0144688
932.668	0.0143665
932.746	0.0145019
932.825	0.0145209
932.903	0.0144740
932.981	0.0144225
933.059	0.0145126
933.137	0.0144886
933.215	0.0145306
933.293	0.0145070
933.371	0.0145511
933.450	0.0144335
933.528	0.0144646
933.606	0.0144822
933.684	0.0145320
933.762	0.0144752
933.840	0.0143806
933.918	0.0143861
933.996	0.0144789
934.075	0.0144909
934.153	0.0145196
934.231	0.0144268
934.309	0.0144228
934.387	0.0146529
934.465	0.0144952
934.543	0.0144958
934.621	0.0146236
934.700	0.0146368
934.778	0.0146279
934.856	0.0147481
934.934	0.0146973
935.012	0.0146438
935.090	0.0144435
935.168	0.0145770
935.246	0.0144688
935.325	0.0144312
935.403	0.0145553
935.481	0.0146560
935.559	0.0145842
935.637	0.0144917
935.715	0.0145167
935.793	0.0144159
935.871	0.0144857
935.950	0.0144809
936.028	0.0144451
936.106	0.0143672
936.184	0.0145653
936.262	0.0144830
936.340	0.0144128
936.418	0.0145219
936.496	0.0143999
936.575	0.0142779
936.653	0.0144537
936.731	0.0144936
936.809	0.0145171
936.887	0.0146075
936.965	0.0143493
937.043	0.0143788
937.121	0.0144931
937.200	0.0143781
937.278	0.0145545
937.356	0.0145403
937.434	0.0146106
937.512	0.0145438
937.590	0.0144899
937.668	0.0145171
937.746	0.0145248
937.825	0.0145851
937.903	0.0146404
937.981	0.0145841
938.059	0.0145538
938.137	0.0145456
938.215	0.0145368
938.293	0.0144828
938.371	0.0145559
938.450	0.0145390
938.528	0.0144661
938.606	0.0144933
938.684	0.0144859
938.762	0.0143828
938.840	0.0144216
938.918	0.0145178
938.996	0.0145130
939.075	0.0145318
939.153	0.0145304
939.231	0.0145868
939.309	0.0145234
939.387	0.0145255
939.465	0.0144610
939.543	0.0143249
939.621	0.0143957
939.700	0.0144134
939.778	0.0144724
939.856	0.0145139
939.934	0.0144757
940.012	0.0143724
940.090	0.0144057
940.168	0.0143967
940.246	0.0142945
940.325	0.0143478
940.403	0.0143752
940.481	0.0144094
940.559	0.0145452
940.637	0.0144797
940.715	0.0143158
940.793	0.0145337
940.871	0.0144006
940.950	0.0146303
941.028	0.0144986
941.106	0.0143504
941.184	0.0143948
941.262	0.0145236
941.340	0.0144309
941.418	0.0144176
941.496	0.0144931
941.575	0.0143714
941.653	0.0144494
941.731	0.0144915
941.809	0.0144530
941.887	0.0145115
941.965	0.0144867
942.043	0.0144579
942.121	0.0144354
942.200	0.0143651
942.278	0.0145276
942.356	0.0143787
942.434	0.0143477
942.512	0.0144891
942.590	0.0143773
942.668	0.0144179
942.746	0.0143945
942.825	0.0144828
942.903	0.0144134
942.981	0.0144513
943.059	0.0145184
943.137	0.0143584
943.215	0.0145646
943.293	0.0144088
943.371	0.0144247
943.450	0.0143323
943.528	0.0145377
943.606	0.0145120
943.684	0.0144796
943.762	0.0143655
943.840	0.0146053
943.918	0.0144449
943.996	0.0144698
944.075	0.0143551
944.153	0.0145052
944.231	0.0145025
944.309	0.0145238
944.387	0.0147327
944.465	0.0144332
944.543	0.0145920
944.621	0.0144690
944.700	0.0143354
944.778	0.0144726
944.856	0.0143836
944.934	0.0144913
945.012	0.0144890
945.090	0.0143919
945.168	0.0143684
945.246	0.0144908
945.325	0.0143755
945.403	0.0144219
945.481	0.0144541
945.559	0.0144888
945.637	0.0144477
945.715	0.0145419
945.793	0.0144858
945.871	0.0143632
945.950	0.0144131
946.028	0.0144813
946.106	0.0144442
946.184	0.0143226
946.262	0.0145099
946.340	0.0144968
946.418	0.0143971
946.496	0.0144775
946.575	0.0144773
946.653	0.0144501
946.731	0.0144916
946.809	0.0144600
946.887	0.0146000
946.965	0.0145487
947.043	0.0144798
947.121	0.0145127
947.200	0.0144839
947.278	0.0145108
947.356	0.0144580
947.434	0.0145673
947.512	0.0145098
947.590	0.0144860
947.668	0.0145853
947.746	0.0144525
947.825	0.0144209
947.903	0.0144255
947.981	0.0143910
948.059	0.0144482
948.137	0.0144618
948.215	0.0145471
948.293	0.0144751
948.371	0.0144209
948.450	0.0143941
948.528	0.0144247
948.606	0.0143608
948.684	0.0142982
948.762	0.0143826
948.840	0.0144439
948.918	0.0143763
948.996	0.0143710
949.075	0.0144668
949.153	0.0143874
949.231	0.0143207
949.309	0.0143269
949.387	0.0144163
949.465	0.0145623
949.543	0.0143732
949.621	0.0144352
949.700	0.0144307
949.778	0.0144920
949.856	0.0144431
949.934	0.0144567
950.012	0.0144536
950.090	0.0144204
950.168	0.0144298
950.246	0.0143875
950.325	0.0144470
950.403	0.0144504
950.481	0.0144194
950.559	0.0144247
950.637	0.0145314
950.715	0.0144371
950.793	0.0142447
950.871	0.0143292
950.950	0.0143651
951.028	0.0142944
951.106	0.0143364
951.184	0.0143941
951.262	0.0142754
951.340	0.0143894
951.418	0.0143307
951.496	0.0142669
951.575	0.0144456
951.653	0.0143794
951.731	0.0145703
951.809	0.0145384
951.887	0.0143892
951.965	0.0144247
952.043	0.0145093
952.121	0.0144672
952.200	0.0145690
952.278	0.0145822
952.356	0.0145211
952.434	0.0144994
952.512	0.0145107
952.590	0.0145863
952.668	0.0144035
952.746	0.0144193
952.825	0.0144951
952.903	0.0144260
952.981	0.0144804
953.059	0.0144113
953.137	0.0144467
953.215	0.0144405
953.293	0.0143221
953.371	0.0144255
953.450	0.0144547
953.528	0.0143005
953.606	0.0143996
953.684	0.0144401
953.762	0.0143759
953.840	0.0144290
953.918	0.0144413
953.996	0.0145547
954.075	0.0143932
954.153	0.0144497
954.231	0.0147086
954.309	0.0143205
954.387	0.0145764
954.465	0.0146358
954.543	0.0144443
954.621	0.0145303
954.700	0.0145192
954.778	0.0146730
954.856	0.0143676
954.934	0.0146630
955.012	0.0145761
955.090	0.0144830
955.168	0.0144201
955.246	0.0145312
955.325	0.0145913
955.403	0.0144125
955.481	0.0143526
955.559	0.0145887
955.637	0.0143814
955.715	0.0144928
955.793	0.0142782
955.871	0.0143486
955.950	0.0143123
956.028	0.0143759
956.106	0.0144300
956.184	0.0143958
956.262	0.0143757
956.340	0.0144950
956.418	0.0144373
956.496	0.0145155
956.575	0.0145499
956.653	0.0143698
956.731	0.0145510
956.809	0.0145548
956.887	0.0144592
956.965	0.0145052
957.043	0.0145484
957.121	0.0144924
957.200	0.0145747
957.278	0.0145917
957.356	0.0144711
957.434	0.0145210
957.512	0.0146168
957.590	0.0145451
957.668	0.0145560
957.746	0.0145908
957.825	0.0144677
957.903	0.0144332
957.981	0.0145142
958.059	0.0144801
958.137	0.0145335
958.215	0.0144819
958.293	0.0144492
958.371	0.0143349
958.450	0.0145454
958.528	0.0145193
958.606	0.0144537
958.684	0.0143761
958.762	0.0142699
958.840	0.0144124
958.918	0.0144073
958.996	0.0143658
959.075	0.0143588
959.153	0.0144057
959.231	0.0145163
959.309	0.0143667
959.387	0.0144829
959.465	0.0144295
959.543	0.0144314
959.621	0.0145081
959.700	0.0144083
959.778	0.0143221
959.856	0.0143076
959.934	0.0143147
960.012	0.0143878
960.090	0.0144107
960.168	0.0144757
960.246	0.0143494
960.325	0.0142774
960.403	0.0142922
960.481	0.0143700
960.559	0.0145306
960.637	0.0145461
960.715	0.0144733
960.793	0.0144672
960.871	0.0146101
960.950	0.0145710
961.028	0.0143282
961.106	0.0143452
961.184	0.0144337
961.262	0.0143725
961.340	0.0143513
961.418	0.0143774
961.496	0.0144670
961.575	0.0143101
961.653	0.0142368
961.731	0.0143273
961.809	0.0143481
961.887	0.0144352
961.965	0.0145058
962.043	0.0144229
962.121	0.0142369
962.200	0.0143990
962.278	0.0145838
962.356	0.0145802
962.434	0.0144615
962.512	0.0144393
962.590	0.0144253
962.668	0.0144685
962.746	0.0145949
962.825	0.0145449
962.903	0.0145788
962.981	0.0145074
963.059	0.0146297
963.137	0.0144673
963.215	0.0144550
963.293	0.0144313
963.371	0.0145633
963.450	0.0145492
963.528	0.0145390
963.606	0.0144435
963.684	0.0144459
963.762	0.0144256
963.840	0.0144497
963.918	0.0143668
963.996	0.0143878
964.075	0.0144085
964.153	0.0143992
964.231	0.0144622
964.309	0.0144837
964.387	0.0145306
964.465	0.0144893
964.543	0.0143620
964.621	0.0143262
964.700	0.0145216
964.778	0.0144083
964.856	0.0144048
964.934	0.0143446
965.012	0.0143198
965.090	0.0145724
965.168	0.0144647
965.246	0.0143395
965.325	0.0144396
965.403	0.0142487
965.481	0.0144498
965.559	0.0142216
965.637	0.0143627
965.715	0.0144790
965.793	0.0144509
965.871	0.0143503
965.950	0.0142894
966.028	0.0144761
966.106	0.0144583
966.184	0.0143804
966.262	0.0143834
966.340	0.0144142
966.418	0.0145175
966.496	0.0144348
966.575	0.0143810
966.653	0.0144022
966.731	0.0143502
966.809	0.0145622
966.887	0.0144061
966.965	0.0142728
967.043	0.0145683
967.121	0.0145626
967.200	0.0144842
967.278	0.0145371
967.356	0.0144127
967.434	0.0144180
967.512	0.0144437
967.590	0.0144843
967.668	0.0144370
967.746	0.0143378
967.825	0.0144453
967.903	0.0144854
967.981	0.0144071
968.059	0.0143745
968.137	0.0144303
968.215	0.0143527
968.293	0.0143994
968.371	0.0144460
968.450	0.0144369
968.528	0.0143161
968.606	0.0142636
968.684	0.0144626
968.762	0.0145539
968.840	0.0144451
968.918	0.0145345
968.996	0.0144185
969.075	0.0145429
969.153	0.0146578
969.231	0.0142960
969.309	0.0143588
969.387	0.0146218
969.465	0.0145047
969.543	0.0145618
969.621	0.0144390
969.700	0.0144987
969.778	0.0144805
969.856	0.0145416
969.934	0.0144897
970.012	0.0145564
970.090	0.0145658
970.168	0.0145210
970.246	0.0142972
970.325	0.0144570
970.403	0.0145113
970.481	0.0145990
970.559	0.0145815
970.637	0.0145268
970.715	0.0144683
970.793	0.0144573
970.871	0.0144888
970.950	0.0145330
971.028	0.0145795
971.106	0.0146035
971.184	0.0144804
971.262	0.0144324
971.340	0.0145483
971.418	0.0145462
971.496	0.0145297
971.575	0.0145349
971.653	0.0144115
971.731	0.0145966
971.809	0.0144681
971.887	0.0145811
971.965	0.0145448
972.043	0.0144841
972.121	0.0145098
972.200	0.0144034
972.278	0.0145625
972.356	0.0144568
972.434	0.0144905
972.512	0.0145705
972.590	0.0145023
972.668	0.0145041
972.746	0.0146044
972.825	0.0144708
972.903	0.0144773
972.981	0.0145020
973.059	0.0144682
973.137	0.0145031
973.215	0.0144624
973.293	0.0145747
973.371	0.0144228
973.450	0.0142681
973.528	0.0145210
973.606	0.0144690
973.684	0.0144888
973.762	0.0143997
973.840	0.0144290
973.918	0.0143512
973.996	0.0142673
974.075	0.0143504
974.153	0.0143818
974.231	0.0143749
974.309	0.0143192
974.387	0.0143194
974.465	0.0142756
974.543	0.0144089
974.621	0.0143175
974.700	0.0141627
974.778	0.0143951
974.856	0.0141846
974.934	0.0141802
975.012	0.0143786
975.090	0.0144096
975.168	0.0143420
975.246	0.0142089
975.325	0.0142512
975.403	0.0145552
975.481	0.0144660
975.559	0.0144390
975.637	0.0144204
975.715	0.0145182
975.793	0.0144778
975.871	0.0144266
975.950	0.0144411
976.028	0.0143991
976.106	0.0144199
976.184	0.0143262
976.262	0.0143230
976.340	0.0143901
976.418	0.0143520
976.496	0.0144426
976.575	0.0142549
976.653	0.0142270
976.731	0.0143721
976.809	0.0143082
976.887	0.0143683
976.965	0.0142937
977.043	0.0143719
977.121	0.0143092
977.200	0.0142770
977.278	0.0144122
977.356	0.0143713
977.434	0.0143993
977.512	0.0143504
977.590	0.0143932
977.668	0.0144260
977.746	0.0145244
977.825	0.0144127
977.903	0.0144309
977.981	0.0143475
978.059	0.0145289
978.137	0.0145119
978.215	0.0144312
978.293	0.0145341
978.371	0.0146069
978.450	0.0145521
978.528	0.0145464
978.606	0.0145309
978.684	0.0145001
978.762	0.0145473
978.840	0.0145696
978.918	0.0144715
978.996	0.0144477
979.075	0.0145577
979.153	0.0146259
979.231	0.0145250
979.309	0.0145581
979.387	0.0145372
979.465	0.0143296
979.543	0.0144836
979.621	0.0145188
979.700	0.0144991
979.778	0.0145264
979.856	0.0144904
979.934	0.0144392
980.012	0.0143019
980.090	0.0146363
980.168	0.0144834
980.246	0.0144238
980.325	0.0145500
980.403	0.0145695
980.481	0.0144700
980.559	0.0145482
980.637	0.0144666
980.715	0.0144592
980.793	0.0143652
980.871	0.0143554
980.950	0.0144350
981.028	0.0144781
981.106	0.0143768
981.184	0.0145337
981.262	0.0144400
981.340	0.0144565
981.418	0.0145093
981.496	0.0145403
981.575	0.0144576
981.653	0.0144972
981.731	0.0145567
981.809	0.0144106
981.887	0.0145480
981.965	0.0145517
982.043	0.0144126
982.121	0.0145453
982.200	0.0144511
982.278	0.0144434
982.356	0.0143834
982.434	0.0144506
982.512	0.0144496
982.590	0.0143459
982.668	0.0144014
982.746	0.0143031
982.825	0.0143230
982.903	0.0142964
982.981	0.0143351
983.059	0.0143028
983.137	0.0144079
983.215	0.0143678
983.293	0.0142946
983.371	0.0143135
983.450	0.0143848
983.528	0.0144100
983.606	0.0143730
983.684	0.0144392
983.762	0.0143745
983.840	0.0143356
983.918	0.0143967
983.996	0.0142903
984.075	0.0143430
984.153	0.0143600
984.231	0.0144171
984.309	0.0145298
984.387	0.0145119
984.465	0.0145425
984.543	0.0144123
984.621	0.0144505
984.700	0.0145851
984.778	0.0143970
984.856	0.0145000
984.934	0.0145585
985.012	0.0144548
985.090	0.0145001
985.168	0.0144651
985.246	0.0143553
985.325	0.0143945
985.403	0.0142989
985.481	0.0143858
985.559	0.0145776
985.637	0.0145909
985.715	0.0143772
985.793	0.0142664
985.871	0.0143986
985.950	0.0142842
986.028	0.0143832
986.106	0.0144867
986.184	0.0143159
986.262	0.0143674
986.340	0.0144978
986.418	0.0144286
986.496	0.0142764
986.575	0.0145472
986.653	0.0144948
986.731	0.0145567
986.809	0.0144918
986.887	0.0144534
986.965	0.0146289
987.043	0.0146471
987.121	0.0145007
987.200	0.0144572
987.278	0.0145777
987.356	0.0146559
987.434	0.0145946
987.512	0.0146117
987.590	0.0145393
987.668	0.0145953
987.746	0.0145597
987.825	0.0144964
987.903	0.0145345
987.981	0.0145578
988.059	0.0146027
988.137	0.0145631
988.215	0.0144861
988.293	0.0143949
988.371	0.0145204
988.450	0.0144823
988.528	0.0144266
988.606	0.0144729
988.684	0.0145927
988.762	0.0144454
988.840	0.0145542
988.918	0.0144206
988.996	0.0145203
989.075	0.0144657
989.153	0.0144019
989.231	0.0146812
989.309	0.0147134
989.387	0.0145634
989.465	0.0143916
989.543	0.0144987
989.621	0.0144597
989.700	0.0143990
989.778	0.0145348
989.856	0.0145026
989.934	0.0144308
990.012	0.0146361
990.090	0.0144308
990.168	0.0143946
990.246	0.0144913
990.325	0.0144231
990.403	0.0144225
990.481	0.0144994
990.559	0.0145135
990.637	0.0144666
990.715	0.0144590
990.793	0.0145799
990.871	0.0145003
990.950	0.0145708
991.028	0.0145306
991.106	0.0144367
991.184	0.0145509
991.262	0.0145441
991.340	0.0145264
991.418	0.0143508
991.496	0.0144112
991.575	0.0144257
991.653	0.0142883
991.731	0.0143298
991.809	0.0143244
991.887	0.0143701
991.965	0.0143443
992.043	0.0142989
992.121	0.0143843
992.200	0.0143567
992.278	0.0143716
992.356	0.0143209
992.434	0.0144753
992.512	0.0144354
992.590	0.0144101
992.668	0.0144296
992.746	0.0142767
992.825	0.0143720
992.903	0.0142804
992.981	0.0143981
993.059	0.0143334
993.137	0.0142075
993.215	0.0143088
993.293	0.0143970
993.371	0.0142796
993.450	0.0143745
993.528	0.0142890
993.606	0.0143637
993.684	0.0144035
993.762	0.0143085
993.840	0.0143958
993.918	0.0146288
993.996	0.0143983
994.075	0.0144174
994.153	0.0144483
994.231	0.0144668
994.309	0.0146429
994.387	0.0144548
994.465	0.0145133
994.543	0.0145626
994.621	0.0145192
994.700	0.0145383
994.778	0.0146112
994.856	0.0145017
994.934	0.0145045
995.012	0.0144468
995.090	0.0143764
995.168	0.0145255
995.246	0.0145518
995.325	0.0144431
995.403	0.0143447
995.481	0.0143243
995.559	0.0143197
995.637	0.0143404
995.715	0.0144522
995.793	0.0145004
995.871	0.0144291
995.950	0.0144675
996.028	0.0145150
996.106	0.0144336
996.184	0.0145794
996.262	0.0145182
996.340	0.0144926
996.418	0.0146591
996.496	0.0145101
996.575	0.0145449
996.653	0.0145002
996.731	0.0146204
996.809	0.0146167
996.887	0.0145795
996.965	0.0145409
997.043	0.0145481
997.121	0.0146228
997.200	0.0144974
997.278	0.0144743
997.356	0.0144643
997.434	0.0145567
997.512	0.0144570
997.590	0.0145077
997.668	0.0144277
997.746	0.0145007
997.825	0.0144287
997.903	0.0145297
997.981	0.0144855
998.059	0.0144173
998.137	0.0144144
998.215	0.0144003
998.293	0.0144386
998.371	0.0144560
998.450	0.0145336
998.528	0.0145380
998.606	0.0144630
998.684	0.0145673
998.762	0.0145639
998.840	0.0146422
998.918	0.0144989
