05/04/2022	21:22:03	Ver.	4.1	UNKNOWN
Optical Delay	678.996401	Delta X		0.078125	Sweeps	1	Scan Rate	0/0
Coordinates	Axis 1	NaN	Axis 2	NaN	Axis 3	NaN	Axis 4	NaN	Axis 5	NaN	Axis 6	0.000000
TX Power	0.000000	RX Power	0.000000

678.996	0.0143027
679.075	0.0142325
679.153	0.0143851
679.231	0.0142590
679.309	0.0141300
679.387	0.0141103
679.465	0.0141962
679.543	0.0142989
679.621	0.0142924
679.700	0.0142802
679.778	0.0142033
679.856	0.0143256
679.934	0.0142927
680.012	0.0143880
680.090	0.0143362
680.168	0.0143748
680.246	0.0143710
680.325	0.0142355
680.403	0.0145319
680.481	0.0144277
680.559	0.0144445
680.637	0.0145126
680.715	0.0144141
680.793	0.0145499
680.871	0.0144680
680.950	0.0145007
681.028	0.0143990
681.106	0.0144397
681.184	0.0144186
681.262	0.0143481
681.340	0.0144940
681.418	0.0144234
681.496	0.0143864
681.575	0.0142812
681.653	0.0142786
681.731	0.0142561
681.809	0.0142568
681.887	0.0143015
681.965	0.0142321
682.043	0.0142394
682.121	0.0142297
682.200	0.0141540
682.278	0.0143929
682.356	0.0144022
682.434	0.0142886
682.512	0.0143719
682.590	0.0143335
682.668	0.0144202
682.746	0.0144427
682.825	0.0145704
682.903	0.0144379
682.981	0.0143745
683.059	0.0144890
683.137	0.0144989
683.215	0.0144051
683.293	0.0144711
683.371	0.0143545
683.450	0.0145482
683.528	0.0143562
683.606	0.0143575
683.684	0.0144471
683.762	0.0144160
683.840	0.0143157
683.918	0.0143797
683.996	0.0143324
684.075	0.0143266
684.153	0.0143894
684.231	0.0142883
684.309	0.0144061
684.387	0.0142918
684.465	0.0141984
684.543	0.0144368
684.621	0.0143192
684.700	0.0143491
684.778	0.0144356
684.856	0.0143462
684.934	0.0142580
685.012	0.0144770
685.090	0.0144277
685.168	0.0145177
685.246	0.0145206
685.325	0.0144090
685.403	0.0144155
685.481	0.0144534
685.559	0.0144950
685.637	0.0145127
685.715	0.0146912
685.793	0.0146080
685.871	0.0146029
685.950	0.0144564
686.028	0.0143512
686.106	0.0142522
686.184	0.0143060
686.262	0.0142722
686.340	0.0142934
686.418	0.0143785
686.496	0.0142868
686.575	0.0142071
686.653	0.0145000
686.731	0.0143038
686.809	0.0143175
686.887	0.0144095
686.965	0.0143098
687.043	0.0143732
687.121	0.0144906
687.200	0.0145085
687.278	0.0144567
687.356	0.0145885
687.434	0.0145921
687.512	0.0145580
687.590	0.0145053
687.668	0.0144748
687.746	0.0145703
687.825	0.0145143
687.903	0.0144513
687.981	0.0143862
688.059	0.0144359
688.137	0.0143494
688.215	0.0143817
688.293	0.0144264
688.371	0.0143706
688.450	0.0142980
688.528	0.0142089
688.606	0.0142466
688.684	0.0141707
688.762	0.0142084
688.840	0.0141931
688.918	0.0141296
688.996	0.0142381
689.075	0.0142863
689.153	0.0141557
689.231	0.0142059
689.309	0.0143639
689.387	0.0143507
689.465	0.0142249
689.543	0.0142524
689.621	0.0142949
689.700	0.0143201
689.778	0.0142803
689.856	0.0143738
689.934	0.0142531
690.012	0.0142556
690.090	0.0143184
690.168	0.0142445
690.246	0.0143688
690.325	0.0143476
690.403	0.0142472
690.481	0.0142024
690.559	0.0143633
690.637	0.0142699
690.715	0.0142826
690.793	0.0142529
690.871	0.0143266
690.950	0.0143663
691.028	0.0143938
691.106	0.0143262
691.184	0.0142905
691.262	0.0144823
691.340	0.0144164
691.418	0.0144160
691.496	0.0144596
691.575	0.0142480
691.653	0.0142109
691.731	0.0143343
691.809	0.0142284
691.887	0.0142341
691.965	0.0141644
692.043	0.0142278
692.121	0.0142290
692.200	0.0143171
692.278	0.0144450
692.356	0.0142889
692.434	0.0144059
692.512	0.0144727
692.590	0.0145107
692.668	0.0145697
692.746	0.0144576
692.825	0.0144093
692.903	0.0144234
692.981	0.0146255
693.059	0.0146824
693.137	0.0144846
693.215	0.0144331
693.293	0.0145412
693.371	0.0142609
693.450	0.0141138
693.528	0.0140226
693.606	0.0140059
693.684	0.0139610
693.762	0.0138283
693.840	0.0139291
693.918	0.0138181
693.996	0.0139496
694.075	0.0138689
694.153	0.0140260
694.231	0.0142829
694.309	0.0145879
694.387	0.0144692
694.465	0.0146848
694.543	0.0146556
694.621	0.0146753
694.700	0.0146552
694.778	0.0147296
694.856	0.0145985
694.934	0.0144589
695.012	0.0142751
695.090	0.0142339
695.168	0.0140718
695.246	0.0139896
695.325	0.0137952
695.403	0.0137365
695.481	0.0138029
695.559	0.0138650
695.637	0.0138820
695.715	0.0140616
695.793	0.0142259
695.871	0.0143874
695.950	0.0143724
696.028	0.0146402
696.106	0.0148317
696.184	0.0147759
696.262	0.0147804
696.340	0.0148908
696.418	0.0149055
696.496	0.0148011
696.575	0.0146277
696.653	0.0146098
696.731	0.0143200
696.809	0.0143432
696.887	0.0142045
696.965	0.0138603
697.043	0.0137691
697.121	0.0139040
697.200	0.0137939
697.278	0.0139477
697.356	0.0139975
697.434	0.0142751
697.512	0.0144691
697.590	0.0146703
697.668	0.0147839
697.746	0.0149460
697.825	0.0149899
697.903	0.0150723
697.981	0.0151438
698.059	0.0151209
698.137	0.0149008
698.215	0.0147108
698.293	0.0145229
698.371	0.0144991
698.450	0.0139420
698.528	0.0136439
698.606	0.0135944
698.684	0.0134648
698.762	0.0134190
698.840	0.0135722
698.918	0.0136850
698.996	0.0139134
699.075	0.0141784
699.153	0.0144305
699.231	0.0146985
699.309	0.0148116
699.387	0.0150318
699.465	0.0151986
699.543	0.0152831
699.621	0.0151302
699.700	0.0151835
699.778	0.0148875
699.856	0.0146877
699.934	0.0143715
700.012	0.0141301
700.090	0.0137846
700.168	0.0136877
700.246	0.0136801
700.325	0.0136050
700.403	0.0135300
700.481	0.0136536
700.559	0.0138236
700.637	0.0140707
700.715	0.0143419
700.793	0.0146188
700.871	0.0147019
700.950	0.0149680
701.028	0.0151061
701.106	0.0150127
701.184	0.0149953
701.262	0.0149440
701.340	0.0146432
701.418	0.0144924
701.496	0.0141681
701.575	0.0140064
701.653	0.0137231
701.731	0.0134392
701.809	0.0137747
701.887	0.0138988
701.965	0.0137465
702.043	0.0141595
702.121	0.0143769
702.200	0.0145329
702.278	0.0147736
702.356	0.0149056
702.434	0.0150469
702.512	0.0150574
702.590	0.0150241
702.668	0.0150087
702.746	0.0148805
702.825	0.0147057
702.903	0.0144815
702.981	0.0144936
703.059	0.0143855
703.137	0.0141730
703.215	0.0139198
703.293	0.0138818
703.371	0.0137080
703.450	0.0137726
703.528	0.0139091
703.606	0.0139571
703.684	0.0138219
703.762	0.0141891
703.840	0.0142862
703.918	0.0146712
703.996	0.0147016
704.075	0.0150944
704.153	0.0151650
704.231	0.0151735
704.309	0.0152948
704.387	0.0153202
704.465	0.0152197
704.543	0.0151956
704.621	0.0150201
704.700	0.0148449
704.778	0.0146555
704.856	0.0145172
704.934	0.0143151
705.012	0.0142132
705.090	0.0139368
705.168	0.0136380
705.246	0.0135790
705.325	0.0135114
705.403	0.0133250
705.481	0.0132183
705.559	0.0131087
705.637	0.0132673
705.715	0.0135192
705.793	0.0137602
705.871	0.0140681
705.950	0.0146468
706.028	0.0151396
706.106	0.0154677
706.184	0.0158015
706.262	0.0158527
706.340	0.0158659
706.418	0.0158676
706.496	0.0155222
706.575	0.0151411
706.653	0.0149287
706.731	0.0145212
706.809	0.0141887
706.887	0.0139169
706.965	0.0135749
707.043	0.0133673
707.121	0.0132937
707.200	0.0132703
707.278	0.0132124
707.356	0.0133473
707.434	0.0134129
707.512	0.0136633
707.590	0.0139726
707.668	0.0140807
707.746	0.0141514
707.825	0.0145501
707.903	0.0147895
707.981	0.0148029
708.059	0.0149587
708.137	0.0151351
708.215	0.0151189
708.293	0.0151917
708.371	0.0152122
708.450	0.0151066
708.528	0.0149884
708.606	0.0148665
708.684	0.0146059
708.762	0.0143723
708.840	0.0143764
708.918	0.0142706
708.996	0.0140824
709.075	0.0139272
709.153	0.0138280
709.231	0.0137405
709.309	0.0136501
709.387	0.0137215
709.465	0.0137363
709.543	0.0135835
709.621	0.0138461
709.700	0.0139397
709.778	0.0140722
709.856	0.0144365
709.934	0.0146262
710.012	0.0147247
710.090	0.0148193
710.168	0.0149393
710.246	0.0150327
710.325	0.0151183
710.403	0.0150069
710.481	0.0147855
710.559	0.0145695
710.637	0.0145195
710.715	0.0144851
710.793	0.0143380
710.871	0.0142183
710.950	0.0142245
711.028	0.0141993
711.106	0.0141518
711.184	0.0141485
711.262	0.0140459
711.340	0.0142819
711.418	0.0141927
711.496	0.0142219
711.575	0.0143136
711.653	0.0142585
711.731	0.0140148
711.809	0.0140910
711.887	0.0141789
711.965	0.0140253
712.043	0.0138862
712.121	0.0140319
712.200	0.0141952
712.278	0.0142011
712.356	0.0141346
712.434	0.0142312
712.512	0.0143390
712.590	0.0144794
712.668	0.0145025
712.746	0.0146603
712.825	0.0144218
712.903	0.0147185
712.981	0.0145325
713.059	0.0145090
713.137	0.0145734
713.215	0.0143755
713.293	0.0144555
713.371	0.0144880
713.450	0.0143256
713.528	0.0143474
713.606	0.0142258
713.684	0.0143127
713.762	0.0143472
713.840	0.0143695
713.918	0.0144469
713.996	0.0143934
714.075	0.0145221
714.153	0.0145050
714.231	0.0145462
714.309	0.0145956
714.387	0.0143763
714.465	0.0145373
714.543	0.0144540
714.621	0.0143887
714.700	0.0142361
714.778	0.0142121
714.856	0.0140183
714.934	0.0139958
715.012	0.0138738
715.090	0.0138047
715.168	0.0138467
715.246	0.0137228
715.325	0.0137758
715.403	0.0136288
715.481	0.0139144
715.559	0.0138544
715.637	0.0140942
715.715	0.0142576
715.793	0.0144894
715.871	0.0144692
715.950	0.0147375
716.028	0.0148099
716.106	0.0149217
716.184	0.0148618
716.262	0.0148987
716.340	0.0149180
716.418	0.0149044
716.496	0.0148099
716.575	0.0146999
716.653	0.0145499
716.731	0.0145367
716.809	0.0143255
716.887	0.0143401
716.965	0.0140402
717.043	0.0139535
717.121	0.0139879
717.200	0.0139660
717.278	0.0137559
717.356	0.0136080
717.434	0.0136317
717.512	0.0136761
717.590	0.0136671
717.668	0.0137874
717.746	0.0139164
717.825	0.0141303
717.903	0.0142130
717.981	0.0143820
718.059	0.0146215
718.137	0.0148310
718.215	0.0148947
718.293	0.0149060
718.371	0.0151872
718.450	0.0152950
718.528	0.0151881
718.606	0.0150929
718.684	0.0150243
718.762	0.0149870
718.840	0.0148202
718.918	0.0146835
718.996	0.0146170
719.075	0.0142690
719.153	0.0140747
719.231	0.0140491
719.309	0.0138922
719.387	0.0136968
719.465	0.0135751
719.543	0.0135393
719.621	0.0136080
719.700	0.0138244
719.778	0.0137681
719.856	0.0140083
719.934	0.0143107
720.012	0.0144523
720.090	0.0146462
720.168	0.0146013
720.246	0.0147260
720.325	0.0146947
720.403	0.0149409
720.481	0.0148852
720.559	0.0149122
720.637	0.0148447
720.715	0.0147986
720.793	0.0147084
720.871	0.0146721
720.950	0.0146384
721.028	0.0146687
721.106	0.0145391
721.184	0.0145865
721.262	0.0144208
721.340	0.0143659
721.418	0.0143635
721.496	0.0141341
721.575	0.0139947
721.653	0.0140436
721.731	0.0139354
721.809	0.0141496
721.887	0.0138705
721.965	0.0137247
722.043	0.0138663
722.121	0.0139137
722.200	0.0139241
722.278	0.0139429
722.356	0.0139584
722.434	0.0142491
722.512	0.0143801
722.590	0.0145744
722.668	0.0147222
722.746	0.0149178
722.825	0.0148804
722.903	0.0152056
722.981	0.0152307
723.059	0.0154123
723.137	0.0152477
723.215	0.0151229
723.293	0.0150026
723.371	0.0149627
723.450	0.0147890
723.528	0.0145354
723.606	0.0143854
723.684	0.0141805
723.762	0.0139983
723.840	0.0139989
723.918	0.0138950
723.996	0.0138327
724.075	0.0138499
724.153	0.0136427
724.231	0.0137300
724.309	0.0138355
724.387	0.0139601
724.465	0.0137867
724.543	0.0139697
724.621	0.0142366
724.700	0.0142140
724.778	0.0143864
724.856	0.0145072
724.934	0.0145650
725.012	0.0147896
725.090	0.0147831
725.168	0.0148286
725.246	0.0147643
725.325	0.0150141
725.403	0.0150610
725.481	0.0148694
725.559	0.0149738
725.637	0.0146761
725.715	0.0145985
725.793	0.0145749
725.871	0.0144764
725.950	0.0142604
726.028	0.0141428
726.106	0.0140218
726.184	0.0139886
726.262	0.0139313
726.340	0.0138684
726.418	0.0139214
726.496	0.0141311
726.575	0.0139947
726.653	0.0140142
726.731	0.0143159
726.809	0.0144704
726.887	0.0145544
726.965	0.0146237
727.043	0.0146887
727.121	0.0148360
727.200	0.0148214
727.278	0.0148699
727.356	0.0148466
727.434	0.0148782
727.512	0.0147529
727.590	0.0147237
727.668	0.0146656
727.746	0.0146104
727.825	0.0143691
727.903	0.0141650
727.981	0.0143251
728.059	0.0142246
728.137	0.0141946
728.215	0.0142264
728.293	0.0141814
728.371	0.0142017
728.450	0.0143445
728.528	0.0142255
728.606	0.0141686
728.684	0.0142383
728.762	0.0143276
728.840	0.0143241
728.918	0.0142094
728.996	0.0143088
729.075	0.0143917
729.153	0.0144146
729.231	0.0143470
729.309	0.0142897
729.387	0.0143048
729.465	0.0142741
729.543	0.0143298
729.621	0.0143221
729.700	0.0144321
729.778	0.0143062
729.856	0.0143001
729.934	0.0143964
730.012	0.0145497
730.090	0.0143372
730.168	0.0142243
730.246	0.0143613
730.325	0.0145191
730.403	0.0145391
730.481	0.0144032
730.559	0.0144254
730.637	0.0144885
730.715	0.0144760
730.793	0.0144585
730.871	0.0143405
730.950	0.0143313
731.028	0.0142585
731.106	0.0142780
731.184	0.0142621
731.262	0.0141099
731.340	0.0140211
731.418	0.0140466
731.496	0.0141235
731.575	0.0140556
731.653	0.0141390
731.731	0.0141193
731.809	0.0141113
731.887	0.0141187
731.965	0.0142580
732.043	0.0142587
732.121	0.0144187
732.200	0.0144069
732.278	0.0145480
732.356	0.0145779
732.434	0.0145324
732.512	0.0145071
732.590	0.0144984
732.668	0.0144176
732.746	0.0146197
732.825	0.0145881
732.903	0.0145223
732.981	0.0145676
733.059	0.0145395
733.137	0.0143150
733.215	0.0143222
733.293	0.0143583
733.371	0.0143357
733.450	0.0142078
733.528	0.0142908
733.606	0.0142408
733.684	0.0141503
733.762	0.0140462
733.840	0.0140998
733.918	0.0139762
733.996	0.0141447
734.075	0.0142520
734.153	0.0142136
734.231	0.0142249
734.309	0.0142743
734.387	0.0145166
734.465	0.0145079
734.543	0.0146442
734.621	0.0146615
734.700	0.0146886
734.778	0.0146494
734.856	0.0146627
734.934	0.0147409
735.012	0.0145975
735.090	0.0146797
735.168	0.0145667
735.246	0.0144911
735.325	0.0142974
735.403	0.0142759
735.481	0.0141385
735.559	0.0140680
735.637	0.0140412
735.715	0.0139906
735.793	0.0139339
735.871	0.0139481
735.950	0.0140316
736.028	0.0139404
736.106	0.0140223
736.184	0.0140550
736.262	0.0140597
736.340	0.0140940
736.418	0.0143366
736.496	0.0144157
736.575	0.0143291
736.653	0.0144054
736.731	0.0144040
736.809	0.0143323
736.887	0.0144258
736.965	0.0145290
737.043	0.0145155
737.121	0.0145409
737.200	0.0144702
737.278	0.0144106
737.356	0.0143041
737.434	0.0144142
737.512	0.0143845
737.590	0.0142906
737.668	0.0142660
737.746	0.0141155
737.825	0.0142638
737.903	0.0142005
737.981	0.0142519
738.059	0.0140886
738.137	0.0139671
738.215	0.0141399
738.293	0.0141042
738.371	0.0139362
738.450	0.0140628
738.528	0.0141273
738.606	0.0139980
738.684	0.0141153
738.762	0.0141941
738.840	0.0141680
738.918	0.0142504
738.996	0.0144424
739.075	0.0144489
739.153	0.0145267
739.231	0.0144440
739.309	0.0145109
739.387	0.0144976
739.465	0.0146362
739.543	0.0146446
739.621	0.0145287
739.700	0.0146313
739.778	0.0146291
739.856	0.0145658
739.934	0.0145386
740.012	0.0143934
740.090	0.0144284
740.168	0.0144064
740.246	0.0144015
740.325	0.0144430
740.403	0.0143209
740.481	0.0142688
740.559	0.0143086
740.637	0.0144958
740.715	0.0143864
740.793	0.0143275
740.871	0.0144122
740.950	0.0142567
741.028	0.0144613
741.106	0.0144720
741.184	0.0145638
741.262	0.0144298
741.340	0.0144083
741.418	0.0145458
741.496	0.0145441
741.575	0.0146822
741.653	0.0145509
741.731	0.0145089
741.809	0.0145629
741.887	0.0144366
741.965	0.0144397
742.043	0.0144614
742.121	0.0144471
742.200	0.0145197
742.278	0.0145650
742.356	0.0144167
742.434	0.0143816
742.512	0.0145419
742.590	0.0143835
742.668	0.0143485
742.746	0.0143451
742.825	0.0143171
742.903	0.0143555
742.981	0.0142156
743.059	0.0141938
743.137	0.0141758
743.215	0.0140884
743.293	0.0141116
743.371	0.0141419
743.450	0.0139954
743.528	0.0139599
743.606	0.0141722
743.684	0.0141466
743.762	0.0142803
743.840	0.0144349
743.918	0.0143150
743.996	0.0144814
744.075	0.0146011
744.153	0.0146278
744.231	0.0145564
744.309	0.0146558
744.387	0.0146873
744.465	0.0146247
744.543	0.0147225
744.621	0.0146590
744.700	0.0145888
744.778	0.0145275
744.856	0.0145804
744.934	0.0144041
745.012	0.0145136
745.090	0.0143358
745.168	0.0142848
745.246	0.0143305
745.325	0.0142844
745.403	0.0141142
745.481	0.0141482
745.559	0.0142165
745.637	0.0140726
745.715	0.0140571
745.793	0.0140505
745.871	0.0139584
745.950	0.0139509
746.028	0.0141202
746.106	0.0141211
746.184	0.0141242
746.262	0.0140387
746.340	0.0142358
746.418	0.0143158
746.496	0.0143887
746.575	0.0145148
746.653	0.0144225
746.731	0.0144861
746.809	0.0144534
746.887	0.0144166
746.965	0.0144926
747.043	0.0146295
747.121	0.0145280
747.200	0.0144960
747.278	0.0143835
747.356	0.0142590
747.434	0.0141550
747.512	0.0142974
747.590	0.0143103
747.668	0.0141153
747.746	0.0141383
747.825	0.0140839
747.903	0.0142575
747.981	0.0142481
748.059	0.0141314
748.137	0.0142284
748.215	0.0143508
748.293	0.0144128
748.371	0.0143516
748.450	0.0143983
748.528	0.0144080
748.606	0.0143867
748.684	0.0145456
748.762	0.0145558
748.840	0.0145354
748.918	0.0145192
748.996	0.0147565
749.075	0.0147792
749.153	0.0145113
749.231	0.0146143
749.309	0.0145953
749.387	0.0145412
749.465	0.0144131
749.543	0.0144601
749.621	0.0143629
749.700	0.0144218
749.778	0.0144077
749.856	0.0143707
749.934	0.0143937
750.012	0.0143997
750.090	0.0141060
750.168	0.0143401
750.246	0.0143476
750.325	0.0142669
750.403	0.0143391
750.481	0.0141720
750.559	0.0141762
750.637	0.0143914
750.715	0.0143470
750.793	0.0142506
750.871	0.0143095
750.950	0.0142468
751.028	0.0144389
751.106	0.0142271
751.184	0.0143635
751.262	0.0143195
751.340	0.0143594
751.418	0.0143682
751.496	0.0144303
751.575	0.0143836
751.653	0.0143983
751.731	0.0144686
751.809	0.0145522
751.887	0.0144861
751.965	0.0145497
752.043	0.0145435
752.121	0.0143765
752.200	0.0144770
752.278	0.0143107
752.356	0.0142968
752.434	0.0143101
752.512	0.0143197
752.590	0.0142712
752.668	0.0143255
752.746	0.0142583
752.825	0.0142947
752.903	0.0142413
752.981	0.0142807
753.059	0.0142648
753.137	0.0142494
753.215	0.0142902
753.293	0.0143165
753.371	0.0143022
753.450	0.0144266
753.528	0.0143684
753.606	0.0143504
753.684	0.0145364
753.762	0.0143604
753.840	0.0142767
753.918	0.0143796
753.996	0.0143639
754.075	0.0143677
754.153	0.0143917
754.231	0.0143535
754.309	0.0142146
754.387	0.0142583
754.465	0.0143642
754.543	0.0143053
754.621	0.0141705
754.700	0.0141470
754.778	0.0141945
754.856	0.0143462
754.934	0.0142858
755.012	0.0142797
755.090	0.0141697
755.168	0.0143296
755.246	0.0142033
755.325	0.0142239
755.403	0.0142897
755.481	0.0142751
755.559	0.0143385
755.637	0.0142616
755.715	0.0143141
755.793	0.0142082
755.871	0.0142905
755.950	0.0142886
756.028	0.0142164
756.106	0.0144480
756.184	0.0144843
756.262	0.0142927
756.340	0.0142754
756.418	0.0143837
756.496	0.0142243
756.575	0.0143759
756.653	0.0144356
756.731	0.0144029
756.809	0.0144065
756.887	0.0144970
756.965	0.0144298
757.043	0.0145341
757.121	0.0144112
757.200	0.0143615
757.278	0.0143925
757.356	0.0144252
757.434	0.0145841
757.512	0.0143861
757.590	0.0144093
757.668	0.0142611
757.746	0.0143884
757.825	0.0142696
757.903	0.0143415
757.981	0.0142504
758.059	0.0142430
758.137	0.0143889
758.215	0.0143333
758.293	0.0143348
758.371	0.0142934
758.450	0.0142533
758.528	0.0142392
758.606	0.0142610
758.684	0.0142009
758.762	0.0142309
758.840	0.0144483
758.918	0.0142387
758.996	0.0141961
759.075	0.0142807
759.153	0.0143821
759.231	0.0141909
759.309	0.0143089
759.387	0.0144993
759.465	0.0144736
759.543	0.0144888
759.621	0.0144216
759.700	0.0142689
759.778	0.0143754
759.856	0.0144427
759.934	0.0143595
760.012	0.0144093
760.090	0.0143494
760.168	0.0142216
760.246	0.0142502
760.325	0.0142750
760.403	0.0142881
760.481	0.0143299
760.559	0.0142877
760.637	0.0143852
760.715	0.0143201
760.793	0.0143391
760.871	0.0143764
760.950	0.0145171
761.028	0.0146440
761.106	0.0143781
761.184	0.0145554
761.262	0.0145947
761.340	0.0145601
761.418	0.0145686
761.496	0.0144810
761.575	0.0146030
761.653	0.0144795
761.731	0.0146092
761.809	0.0144918
761.887	0.0145137
761.965	0.0144949
762.043	0.0144868
762.121	0.0144652
762.200	0.0143859
762.278	0.0143585
762.356	0.0144499
762.434	0.0145522
762.512	0.0144548
762.590	0.0143383
762.668	0.0143991
762.746	0.0144492
762.825	0.0144995
762.903	0.0143362
762.981	0.0142960
763.059	0.0141872
763.137	0.0143130
763.215	0.0141756
763.293	0.0143605
763.371	0.0142704
763.450	0.0143876
763.528	0.0143174
763.606	0.0142041
763.684	0.0143172
763.762	0.0144587
763.840	0.0143288
763.918	0.0143879
763.996	0.0144256
764.075	0.0143982
764.153	0.0144289
764.231	0.0143826
764.309	0.0144315
764.387	0.0143399
764.465	0.0145125
764.543	0.0144280
764.621	0.0143806
764.700	0.0144490
764.778	0.0145306
764.856	0.0146440
764.934	0.0145580
765.012	0.0143942
765.090	0.0145714
765.168	0.0144785
765.246	0.0144823
765.325	0.0145645
765.403	0.0144916
765.481	0.0145109
765.559	0.0145546
765.637	0.0144332
765.715	0.0142925
765.793	0.0143522
765.871	0.0143613
765.950	0.0142542
766.028	0.0143748
766.106	0.0144537
766.184	0.0143478
766.262	0.0145284
766.340	0.0144102
766.418	0.0143446
766.496	0.0143916
766.575	0.0143797
766.653	0.0144080
766.731	0.0143865
766.809	0.0144016
766.887	0.0143614
766.965	0.0143870
767.043	0.0142905
767.121	0.0144696
767.200	0.0142026
767.278	0.0143303
767.356	0.0142514
767.434	0.0141666
767.512	0.0142110
767.590	0.0141078
767.668	0.0143168
767.746	0.0142747
767.825	0.0142615
767.903	0.0141860
767.981	0.0142860
768.059	0.0142472
768.137	0.0143456
768.215	0.0143116
768.293	0.0144225
768.371	0.0143515
768.450	0.0143456
768.528	0.0143945
768.606	0.0142400
768.684	0.0142831
768.762	0.0143603
768.840	0.0144559
768.918	0.0143839
768.996	0.0143662
769.075	0.0143008
769.153	0.0143584
769.231	0.0145142
769.309	0.0143988
769.387	0.0144623
769.465	0.0144653
769.543	0.0144510
769.621	0.0145580
769.700	0.0146192
769.778	0.0145056
769.856	0.0146449
769.934	0.0147092
770.012	0.0145102
770.090	0.0144767
770.168	0.0145701
770.246	0.0145567
770.325	0.0144543
770.403	0.0144493
770.481	0.0144222
770.559	0.0144720
770.637	0.0144332
770.715	0.0144263
770.793	0.0143493
770.871	0.0143652
770.950	0.0142031
771.028	0.0141418
771.106	0.0143047
771.184	0.0143118
771.262	0.0142599
771.340	0.0141380
771.418	0.0141834
771.496	0.0140835
771.575	0.0141988
771.653	0.0141526
771.731	0.0141256
771.809	0.0142926
771.887	0.0142039
771.965	0.0142436
772.043	0.0141944
772.121	0.0142104
772.200	0.0141518
772.278	0.0142816
772.356	0.0142355
772.434	0.0141681
772.512	0.0143015
772.590	0.0143848
772.668	0.0143107
772.746	0.0142597
772.825	0.0141948
772.903	0.0143144
772.981	0.0142638
773.059	0.0143823
773.137	0.0142796
773.215	0.0142711
773.293	0.0142213
773.371	0.0143536
773.450	0.0142477
773.528	0.0142664
773.606	0.0143108
773.684	0.0143125
773.762	0.0144913
773.840	0.0144608
773.918	0.0144948
773.996	0.0143559
774.075	0.0144125
774.153	0.0143635
774.231	0.0144374
774.309	0.0142373
774.387	0.0143354
774.465	0.0143609
774.543	0.0142487
774.621	0.0144458
774.700	0.0144138
774.778	0.0144165
774.856	0.0144261
774.934	0.0143716
775.012	0.0142872
775.090	0.0143179
775.168	0.0143214
775.246	0.0142841
775.325	0.0143536
775.403	0.0143624
775.481	0.0143794
775.559	0.0142693
775.637	0.0143098
775.715	0.0143874
775.793	0.0143241
775.871	0.0143282
775.950	0.0143247
776.028	0.0144006
776.106	0.0142211
776.184	0.0143484
776.262	0.0143634
776.340	0.0144144
776.418	0.0142956
776.496	0.0144106
776.575	0.0144428
776.653	0.0145097
776.731	0.0144386
776.809	0.0144217
776.887	0.0144427
776.965	0.0144933
777.043	0.0144456
777.121	0.0142982
777.200	0.0143941
777.278	0.0145178
777.356	0.0144384
777.434	0.0145214
777.512	0.0144394
777.590	0.0144648
777.668	0.0144657
777.746	0.0143603
777.825	0.0143896
777.903	0.0144562
777.981	0.0143647
778.059	0.0143611
778.137	0.0144286
778.215	0.0144323
778.293	0.0143759
778.371	0.0143001
778.450	0.0143321
778.528	0.0143291
778.606	0.0143764
778.684	0.0143209
778.762	0.0142357
778.840	0.0143755
778.918	0.0142869
778.996	0.0143005
779.075	0.0143016
779.153	0.0144408
779.231	0.0143564
779.309	0.0142409
779.387	0.0142466
779.465	0.0142883
779.543	0.0143607
779.621	0.0143367
779.700	0.0142902
779.778	0.0142645
779.856	0.0142707
779.934	0.0142191
780.012	0.0142015
780.090	0.0141570
780.168	0.0143027
780.246	0.0142319
780.325	0.0143884
780.403	0.0143068
780.481	0.0143436
780.559	0.0142847
780.637	0.0143575
780.715	0.0143668
780.793	0.0142789
780.871	0.0143829
780.950	0.0143591
781.028	0.0142494
781.106	0.0143973
781.184	0.0142551
781.262	0.0143638
781.340	0.0143668
781.418	0.0145035
781.496	0.0144485
781.575	0.0143777
781.653	0.0143959
781.731	0.0144298
781.809	0.0144534
781.887	0.0143225
781.965	0.0144582
782.043	0.0144077
782.121	0.0143382
782.200	0.0144363
782.278	0.0145548
782.356	0.0144619
782.434	0.0145183
782.512	0.0145535
782.590	0.0144820
782.668	0.0145125
782.746	0.0144868
782.825	0.0144061
782.903	0.0144952
782.981	0.0143171
783.059	0.0144901
783.137	0.0144588
783.215	0.0142243
783.293	0.0143437
783.371	0.0144567
783.450	0.0144714
783.528	0.0144498
783.606	0.0143694
783.684	0.0144566
783.762	0.0144291
783.840	0.0144638
783.918	0.0143810
783.996	0.0143590
784.075	0.0144378
784.153	0.0144224
784.231	0.0143000
784.309	0.0143402
784.387	0.0144469
784.465	0.0144747
784.543	0.0144858
784.621	0.0143990
784.700	0.0144589
784.778	0.0144189
784.856	0.0143591
784.934	0.0145915
785.012	0.0145088
785.090	0.0144112
785.168	0.0144539
785.246	0.0143680
785.325	0.0144770
785.403	0.0145324
785.481	0.0143963
785.559	0.0144711
785.637	0.0143351
785.715	0.0141724
785.793	0.0142951
785.871	0.0143551
785.950	0.0143643
786.028	0.0142992
786.106	0.0143893
786.184	0.0142599
786.262	0.0144270
786.340	0.0144049
786.418	0.0143432
786.496	0.0143494
786.575	0.0144593
786.653	0.0144815
786.731	0.0143697
786.809	0.0144430
786.887	0.0144151
786.965	0.0142659
787.043	0.0143576
787.121	0.0143417
787.200	0.0144115
787.278	0.0142883
787.356	0.0142860
787.434	0.0143511
787.512	0.0143217
787.590	0.0143865
787.668	0.0144488
787.746	0.0141969
787.825	0.0142951
787.903	0.0143557
787.981	0.0142980
788.059	0.0142929
788.137	0.0143734
788.215	0.0143338
788.293	0.0142175
788.371	0.0142488
788.450	0.0143386
788.528	0.0143922
788.606	0.0142236
788.684	0.0142336
788.762	0.0143855
788.840	0.0143517
788.918	0.0142648
788.996	0.0143503
789.075	0.0143191
789.153	0.0145016
789.231	0.0144075
789.309	0.0142574
789.387	0.0143349
789.465	0.0143589
789.543	0.0142408
789.621	0.0143774
789.700	0.0143912
789.778	0.0141985
789.856	0.0143074
789.934	0.0142832
790.012	0.0142786
790.090	0.0143872
790.168	0.0143061
790.246	0.0143011
790.325	0.0142914
790.403	0.0142627
790.481	0.0144181
790.559	0.0144157
790.637	0.0143070
790.715	0.0144035
790.793	0.0144260
790.871	0.0143806
790.950	0.0142874
791.028	0.0144406
791.106	0.0143621
791.184	0.0143398
791.262	0.0142958
791.340	0.0141877
791.418	0.0142561
791.496	0.0144245
791.575	0.0143948
791.653	0.0142605
791.731	0.0144174
791.809	0.0142699
791.887	0.0142577
791.965	0.0142100
792.043	0.0142914
792.121	0.0144378
792.200	0.0143793
792.278	0.0143734
792.356	0.0142159
792.434	0.0143627
792.512	0.0142400
792.590	0.0142253
792.668	0.0142689
792.746	0.0143159
792.825	0.0143360
792.903	0.0142894
792.981	0.0143761
793.059	0.0143909
793.137	0.0142386
793.215	0.0142757
793.293	0.0143115
793.371	0.0142917
793.450	0.0143600
793.528	0.0144088
793.606	0.0143898
793.684	0.0142802
793.762	0.0143398
793.840	0.0144519
793.918	0.0144476
793.996	0.0145181
794.075	0.0144450
794.153	0.0144157
794.231	0.0144344
794.309	0.0143076
794.387	0.0143562
794.465	0.0143266
794.543	0.0143398
794.621	0.0144736
794.700	0.0143308
794.778	0.0143240
794.856	0.0141895
794.934	0.0143394
795.012	0.0143052
795.090	0.0141556
795.168	0.0141956
795.246	0.0143884
795.325	0.0145218
795.403	0.0143714
795.481	0.0143158
795.559	0.0143576
795.637	0.0143189
795.715	0.0144181
795.793	0.0143435
795.871	0.0143087
795.950	0.0142560
796.028	0.0144644
796.106	0.0144979
796.184	0.0142924
796.262	0.0143620
796.340	0.0143929
796.418	0.0141290
796.496	0.0142991
796.575	0.0144191
796.653	0.0143032
796.731	0.0143020
796.809	0.0143832
796.887	0.0142978
796.965	0.0143675
797.043	0.0144932
797.121	0.0144508
797.200	0.0145260
797.278	0.0144775
797.356	0.0142991
797.434	0.0145072
797.512	0.0143884
797.590	0.0143739
797.668	0.0144241
797.746	0.0143498
797.825	0.0142507
797.903	0.0143820
797.981	0.0142582
798.059	0.0141664
798.137	0.0142043
798.215	0.0143267
798.293	0.0144457
798.371	0.0142129
798.450	0.0143781
798.528	0.0144736
798.606	0.0144423
798.684	0.0144000
798.762	0.0143256
798.840	0.0143301
798.918	0.0143821
798.996	0.0143320
799.075	0.0143239
799.153	0.0143118
799.231	0.0143580
799.309	0.0144131
799.387	0.0143240
799.465	0.0143336
799.543	0.0143676
799.621	0.0142774
799.700	0.0142960
799.778	0.0143249
799.856	0.0142481
799.934	0.0141945
800.012	0.0142104
800.090	0.0142546
800.168	0.0141980
800.246	0.0143555
800.325	0.0142918
800.403	0.0143037
800.481	0.0143660
800.559	0.0143294
800.637	0.0143513
800.715	0.0143893
800.793	0.0145000
800.871	0.0142439
800.950	0.0144378
801.028	0.0144161
801.106	0.0143641
801.184	0.0144535
801.262	0.0145284
801.340	0.0144656
801.418	0.0144353
801.496	0.0144375
801.575	0.0144312
801.653	0.0145494
801.731	0.0144453
801.809	0.0143877
801.887	0.0142564
801.965	0.0141477
802.043	0.0144614
802.121	0.0144823
802.200	0.0143211
802.278	0.0144724
802.356	0.0145137
802.434	0.0144210
802.512	0.0144160
802.590	0.0143184
802.668	0.0143194
802.746	0.0143026
802.825	0.0143305
802.903	0.0143463
802.981	0.0143095
803.059	0.0142007
803.137	0.0144090
803.215	0.0143570
803.293	0.0143235
803.371	0.0143685
803.450	0.0143565
803.528	0.0143127
803.606	0.0142825
803.684	0.0144030
803.762	0.0143775
803.840	0.0145371
803.918	0.0144009
803.996	0.0143248
804.075	0.0143397
804.153	0.0142834
804.231	0.0142436
804.309	0.0145523
804.387	0.0143486
804.465	0.0143176
804.543	0.0144042
804.621	0.0142769
804.700	0.0142413
804.778	0.0143218
804.856	0.0142513
804.934	0.0142278
805.012	0.0143020
805.090	0.0143359
805.168	0.0144326
805.246	0.0144547
805.325	0.0143376
805.403	0.0143182
805.481	0.0142664
805.559	0.0144044
805.637	0.0143364
805.715	0.0143592
805.793	0.0144736
805.871	0.0144071
805.950	0.0143143
806.028	0.0142896
806.106	0.0143129
806.184	0.0143166
806.262	0.0143053
806.340	0.0143721
806.418	0.0141328
806.496	0.0143502
806.575	0.0142602
806.653	0.0143343
806.731	0.0142967
806.809	0.0142661
806.887	0.0142527
806.965	0.0143558
807.043	0.0143423
807.121	0.0143119
807.200	0.0143580
807.278	0.0143381
807.356	0.0143669
807.434	0.0143986
807.512	0.0143364
807.590	0.0143243
807.668	0.0143671
807.746	0.0143618
807.825	0.0143695
807.903	0.0144719
807.981	0.0144433
808.059	0.0143111
808.137	0.0143504
808.215	0.0143114
808.293	0.0143211
808.371	0.0142753
808.450	0.0143328
808.528	0.0143742
808.606	0.0142469
808.684	0.0142866
808.762	0.0145226
808.840	0.0143005
808.918	0.0143042
808.996	0.0143999
809.075	0.0143523
809.153	0.0143240
809.231	0.0143785
809.309	0.0142921
809.387	0.0143874
809.465	0.0144729
809.543	0.0144633
809.621	0.0144256
809.700	0.0143964
809.778	0.0144302
809.856	0.0144706
809.934	0.0144205
810.012	0.0145035
810.090	0.0143954
810.168	0.0144281
810.246	0.0144620
810.325	0.0142984
810.403	0.0142709
810.481	0.0144629
810.559	0.0143586
810.637	0.0142435
810.715	0.0142734
810.793	0.0142766
810.871	0.0143822
810.950	0.0142554
811.028	0.0142747
811.106	0.0142944
811.184	0.0142413
811.262	0.0142826
811.340	0.0143643
811.418	0.0143300
811.496	0.0142711
811.575	0.0143542
811.653	0.0143186
811.731	0.0143732
811.809	0.0142732
811.887	0.0143503
811.965	0.0142758
812.043	0.0143404
812.121	0.0142072
812.200	0.0144028
812.278	0.0142803
812.356	0.0142285
812.434	0.0143877
812.512	0.0143623
812.590	0.0143216
812.668	0.0143152
812.746	0.0142854
812.825	0.0142374
812.903	0.0144092
812.981	0.0143037
813.059	0.0142922
813.137	0.0143594
813.215	0.0142963
813.293	0.0141657
813.371	0.0143371
813.450	0.0143740
813.528	0.0142488
813.606	0.0140940
813.684	0.0141254
813.762	0.0143272
813.840	0.0142067
813.918	0.0142866
813.996	0.0141589
814.075	0.0142863
814.153	0.0143330
814.231	0.0143533
814.309	0.0142960
814.387	0.0142506
814.465	0.0143713
814.543	0.0143105
814.621	0.0141758
814.700	0.0143454
814.778	0.0142348
814.856	0.0143162
814.934	0.0143657
815.012	0.0142558
815.090	0.0143039
815.168	0.0143298
815.246	0.0143821
815.325	0.0142409
815.403	0.0142848
815.481	0.0143981
815.559	0.0143411
815.637	0.0142555
815.715	0.0144280
815.793	0.0144193
815.871	0.0144762
815.950	0.0144290
816.028	0.0143663
816.106	0.0143516
816.184	0.0143702
816.262	0.0144086
816.340	0.0144277
816.418	0.0143485
816.496	0.0144678
816.575	0.0142594
816.653	0.0143758
816.731	0.0142200
816.809	0.0143975
816.887	0.0142556
816.965	0.0144556
817.043	0.0144655
817.121	0.0142577
817.200	0.0144302
817.278	0.0142800
817.356	0.0143686
817.434	0.0142979
817.512	0.0143660
817.590	0.0144314
817.668	0.0143562
817.746	0.0144494
817.825	0.0143321
817.903	0.0144027
817.981	0.0143415
818.059	0.0142796
818.137	0.0142747
818.215	0.0142221
818.293	0.0143167
818.371	0.0142893
818.450	0.0142862
818.528	0.0143430
818.606	0.0143974
818.684	0.0143176
818.762	0.0143126
818.840	0.0143237
818.918	0.0143842
818.996	0.0143795
819.075	0.0143599
819.153	0.0143871
819.231	0.0143475
819.309	0.0143577
819.387	0.0143603
819.465	0.0142251
819.543	0.0144827
819.621	0.0143546
819.700	0.0142188
819.778	0.0144482
819.856	0.0143316
819.934	0.0143346
820.012	0.0143804
820.090	0.0143620
820.168	0.0144273
820.246	0.0143011
820.325	0.0142931
820.403	0.0141801
820.481	0.0142043
820.559	0.0143452
820.637	0.0143073
820.715	0.0143373
820.793	0.0141176
820.871	0.0141911
820.950	0.0141735
821.028	0.0141736
821.106	0.0141479
821.184	0.0140984
821.262	0.0141901
821.340	0.0143179
821.418	0.0140597
821.496	0.0142223
821.575	0.0141893
821.653	0.0142093
821.731	0.0143075
821.809	0.0143266
821.887	0.0142336
821.965	0.0142280
822.043	0.0142623
822.121	0.0143149
822.200	0.0144268
822.278	0.0143661
822.356	0.0143062
822.434	0.0143816
822.512	0.0141447
822.590	0.0142731
822.668	0.0143519
822.746	0.0142662
822.825	0.0142098
822.903	0.0141683
822.981	0.0142170
823.059	0.0143120
823.137	0.0144479
823.215	0.0143762
823.293	0.0141699
823.371	0.0143475
823.450	0.0143607
823.528	0.0145143
823.606	0.0145381
823.684	0.0144312
823.762	0.0144619
823.840	0.0145409
823.918	0.0144327
823.996	0.0144246
824.075	0.0145129
824.153	0.0144857
824.231	0.0142569
824.309	0.0145130
824.387	0.0144756
824.465	0.0143170
824.543	0.0142638
824.621	0.0143230
824.700	0.0142624
824.778	0.0143694
824.856	0.0142944
824.934	0.0143136
825.012	0.0142719
825.090	0.0144205
825.168	0.0142802
825.246	0.0142356
825.325	0.0143813
825.403	0.0143932
825.481	0.0144109
825.559	0.0142821
825.637	0.0143782
825.715	0.0143740
825.793	0.0144562
825.871	0.0143956
825.950	0.0144342
826.028	0.0143745
826.106	0.0142941
826.184	0.0143641
826.262	0.0143602
826.340	0.0143366
826.418	0.0143513
826.496	0.0143230
826.575	0.0142239
826.653	0.0142837
826.731	0.0143186
826.809	0.0142854
826.887	0.0144279
826.965	0.0142934
827.043	0.0143279
827.121	0.0142905
827.200	0.0143161
827.278	0.0143510
827.356	0.0143732
827.434	0.0144665
827.512	0.0144122
827.590	0.0144668
827.668	0.0144411
827.746	0.0143546
827.825	0.0143563
827.903	0.0144728
827.981	0.0142385
828.059	0.0144871
828.137	0.0145276
828.215	0.0144518
828.293	0.0143380
828.371	0.0143889
828.450	0.0144836
828.528	0.0143033
828.606	0.0143008
828.684	0.0143552
828.762	0.0143919
828.840	0.0143107
828.918	0.0143289
828.996	0.0143766
829.075	0.0142828
829.153	0.0143143
829.231	0.0143040
829.309	0.0142903
829.387	0.0144043
829.465	0.0144447
829.543	0.0143419
829.621	0.0144604
829.700	0.0146352
829.778	0.0144543
829.856	0.0145604
829.934	0.0144118
830.012	0.0144351
830.090	0.0145223
830.168	0.0144772
830.246	0.0144514
830.325	0.0144415
830.403	0.0144193
830.481	0.0145197
830.559	0.0144911
830.637	0.0144272
830.715	0.0143847
830.793	0.0144466
830.871	0.0144293
830.950	0.0144267
831.028	0.0143701
831.106	0.0144242
831.184	0.0145367
831.262	0.0144667
831.340	0.0142454
831.418	0.0144652
831.496	0.0142657
831.575	0.0143707
831.653	0.0142831
831.731	0.0142572
831.809	0.0144433
831.887	0.0143169
831.965	0.0144739
832.043	0.0142241
832.121	0.0144776
832.200	0.0144276
832.278	0.0143475
832.356	0.0144884
832.434	0.0143610
832.512	0.0144536
832.590	0.0145021
832.668	0.0144904
832.746	0.0143864
832.825	0.0143906
832.903	0.0143057
832.981	0.0144936
833.059	0.0142838
833.137	0.0142241
833.215	0.0143655
833.293	0.0143121
833.371	0.0143394
833.450	0.0143562
833.528	0.0142916
833.606	0.0143424
833.684	0.0142610
833.762	0.0143212
833.840	0.0144070
833.918	0.0143567
833.996	0.0142854
834.075	0.0142860
834.153	0.0143544
834.231	0.0144133
834.309	0.0143312
834.387	0.0142359
834.465	0.0142406
834.543	0.0143216
834.621	0.0141548
834.700	0.0142516
834.778	0.0142646
834.856	0.0143362
834.934	0.0141953
835.012	0.0142148
835.090	0.0141479
835.168	0.0141320
835.246	0.0142048
835.325	0.0142207
835.403	0.0143101
835.481	0.0144254
835.559	0.0143018
835.637	0.0140913
835.715	0.0143613
835.793	0.0142028
835.871	0.0142954
835.950	0.0142987
836.028	0.0142800
836.106	0.0141272
836.184	0.0140362
836.262	0.0142223
836.340	0.0141085
836.418	0.0141877
836.496	0.0141171
836.575	0.0141939
836.653	0.0142747
836.731	0.0141560
836.809	0.0141794
836.887	0.0141225
836.965	0.0142399
837.043	0.0142535
837.121	0.0143208
837.200	0.0141777
837.278	0.0141447
837.356	0.0142547
837.434	0.0142751
837.512	0.0143228
837.590	0.0144031
837.668	0.0142552
837.746	0.0142819
837.825	0.0142504
837.903	0.0143814
837.981	0.0144136
838.059	0.0143298
838.137	0.0142312
838.215	0.0143146
838.293	0.0144855
838.371	0.0142561
838.450	0.0144092
838.528	0.0142946
838.606	0.0144283
838.684	0.0141601
838.762	0.0143067
838.840	0.0144498
838.918	0.0144218
838.996	0.0144456
839.075	0.0141936
839.153	0.0142126
839.231	0.0143018
839.309	0.0142387
839.387	0.0143491
839.465	0.0144891
839.543	0.0143569
839.621	0.0144805
839.700	0.0144219
839.778	0.0143249
839.856	0.0144143
839.934	0.0145441
840.012	0.0145118
840.090	0.0144556
840.168	0.0144754
840.246	0.0144398
840.325	0.0145038
840.403	0.0145318
840.481	0.0145783
840.559	0.0144777
840.637	0.0143801
840.715	0.0143947
840.793	0.0144626
840.871	0.0144810
840.950	0.0143201
841.028	0.0143929
841.106	0.0143240
841.184	0.0143267
841.262	0.0143676
841.340	0.0143349
841.418	0.0143044
841.496	0.0144645
841.575	0.0143402
841.653	0.0143667
841.731	0.0144629
841.809	0.0144835
841.887	0.0143494
841.965	0.0144958
842.043	0.0143730
842.121	0.0143449
842.200	0.0143475
842.278	0.0144730
842.356	0.0143877
842.434	0.0143736
842.512	0.0143587
842.590	0.0142829
842.668	0.0144315
842.746	0.0143297
842.825	0.0142628
842.903	0.0142866
842.981	0.0142282
843.059	0.0142564
843.137	0.0142067
843.215	0.0142927
843.293	0.0143562
843.371	0.0143999
843.450	0.0142213
843.528	0.0142464
843.606	0.0143359
843.684	0.0143224
843.762	0.0142861
843.840	0.0143089
843.918	0.0142164
843.996	0.0143559
844.075	0.0142920
844.153	0.0144104
844.231	0.0142834
844.309	0.0144143
844.387	0.0143224
844.465	0.0143143
844.543	0.0144235
844.621	0.0144070
844.700	0.0142108
844.778	0.0143401
844.856	0.0143986
844.934	0.0143149
845.012	0.0144472
845.090	0.0143735
845.168	0.0143045
845.246	0.0143552
845.325	0.0143024
845.403	0.0143672
845.481	0.0142182
845.559	0.0142853
845.637	0.0143847
845.715	0.0142300
845.793	0.0143723
845.871	0.0142912
845.950	0.0143698
846.028	0.0142255
846.106	0.0143179
846.184	0.0143537
846.262	0.0143625
846.340	0.0143445
846.418	0.0142880
846.496	0.0143462
846.575	0.0141928
846.653	0.0142964
846.731	0.0143405
846.809	0.0143520
846.887	0.0144816
846.965	0.0144670
847.043	0.0142386
847.121	0.0143275
847.200	0.0142667
847.278	0.0144437
847.356	0.0143899
847.434	0.0144638
847.512	0.0143673
847.590	0.0142507
847.668	0.0142924
847.746	0.0143674
847.825	0.0142350
847.903	0.0143860
847.981	0.0144467
848.059	0.0144810
848.137	0.0143106
848.215	0.0142683
848.293	0.0144029
848.371	0.0143977
848.450	0.0143260
848.528	0.0143130
848.606	0.0143106
848.684	0.0142847
848.762	0.0143542
848.840	0.0143623
848.918	0.0143580
848.996	0.0142864
849.075	0.0143845
849.153	0.0143765
849.231	0.0142580
849.309	0.0142448
849.387	0.0145369
849.465	0.0143883
849.543	0.0142777
849.621	0.0143899
849.700	0.0142841
849.778	0.0142754
849.856	0.0144377
849.934	0.0143842
850.012	0.0143098
850.090	0.0141502
850.168	0.0143105
850.246	0.0143683
850.325	0.0143195
850.403	0.0142496
850.481	0.0143123
850.559	0.0143396
850.637	0.0144078
850.715	0.0142455
850.793	0.0142610
850.871	0.0143451
850.950	0.0143708
851.028	0.0143112
851.106	0.0143388
851.184	0.0143382
851.262	0.0141907
851.340	0.0143276
851.418	0.0144416
851.496	0.0145515
851.575	0.0143575
851.653	0.0144280
851.731	0.0143427
851.809	0.0143732
851.887	0.0142639
851.965	0.0144511
852.043	0.0144794
852.121	0.0143218
852.200	0.0143803
852.278	0.0143298
852.356	0.0143465
852.434	0.0143670
852.512	0.0144289
852.590	0.0143402
852.668	0.0142406
852.746	0.0143576
852.825	0.0143780
852.903	0.0143967
852.981	0.0143510
853.059	0.0143822
853.137	0.0144507
853.215	0.0142290
853.293	0.0144466
853.371	0.0145344
853.450	0.0144819
853.528	0.0145765
853.606	0.0143775
853.684	0.0143452
853.762	0.0144554
853.840	0.0144154
853.918	0.0143032
853.996	0.0145094
854.075	0.0143086
854.153	0.0142580
854.231	0.0144009
854.309	0.0144250
854.387	0.0143689
854.465	0.0143613
854.543	0.0143663
854.621	0.0144106
854.700	0.0144286
854.778	0.0143763
854.856	0.0143339
854.934	0.0142880
855.012	0.0143594
855.090	0.0145499
855.168	0.0143396
855.246	0.0143695
855.325	0.0142606
855.403	0.0143076
855.481	0.0143613
855.559	0.0142236
855.637	0.0142882
855.715	0.0144104
855.793	0.0142937
855.871	0.0143531
855.950	0.0144006
856.028	0.0142682
856.106	0.0143130
856.184	0.0144112
856.262	0.0143140
856.340	0.0142840
856.418	0.0143807
856.496	0.0143858
856.575	0.0144966
856.653	0.0144366
856.731	0.0143803
856.809	0.0142857
856.887	0.0145182
856.965	0.0143384
857.043	0.0143441
857.121	0.0144492
857.200	0.0145154
857.278	0.0144022
857.356	0.0144048
857.434	0.0143021
857.512	0.0143243
857.590	0.0143932
857.668	0.0144429
857.746	0.0143713
857.825	0.0143437
857.903	0.0143337
857.981	0.0143045
858.059	0.0142774
858.137	0.0143047
858.215	0.0143668
858.293	0.0143821
858.371	0.0143073
858.450	0.0142612
858.528	0.0142492
858.606	0.0141659
858.684	0.0142926
858.762	0.0143133
858.840	0.0143288
858.918	0.0142940
858.996	0.0143415
859.075	0.0144135
859.153	0.0144448
859.231	0.0144076
859.309	0.0144032
859.387	0.0144151
859.465	0.0144747
859.543	0.0144993
859.621	0.0144122
859.700	0.0145312
859.778	0.0144096
859.856	0.0144019
859.934	0.0144281
860.012	0.0144993
860.090	0.0145042
860.168	0.0144474
860.246	0.0143406
860.325	0.0141754
860.403	0.0143364
860.481	0.0144256
860.559	0.0143736
860.637	0.0142451
860.715	0.0144161
860.793	0.0144528
860.871	0.0143854
860.950	0.0143296
861.028	0.0143321
861.106	0.0143929
861.184	0.0144398
861.262	0.0144600
861.340	0.0143458
861.418	0.0144747
861.496	0.0144293
861.575	0.0145542
861.653	0.0146197
861.731	0.0145126
861.809	0.0144975
861.887	0.0144675
861.965	0.0145156
862.043	0.0145483
862.121	0.0146019
862.200	0.0144355
862.278	0.0143949
862.356	0.0145620
862.434	0.0146304
862.512	0.0145560
862.590	0.0143526
862.668	0.0144090
862.746	0.0144396
862.825	0.0142096
862.903	0.0144776
862.981	0.0144312
863.059	0.0144112
863.137	0.0143466
863.215	0.0144389
863.293	0.0143394
863.371	0.0144301
863.450	0.0143016
863.528	0.0143319
863.606	0.0145245
863.684	0.0144955
863.762	0.0145169
863.840	0.0144709
863.918	0.0144070
863.996	0.0143710
864.075	0.0144372
864.153	0.0144540
864.231	0.0143929
864.309	0.0145029
864.387	0.0143366
864.465	0.0144662
864.543	0.0144821
864.621	0.0144010
864.700	0.0143415
864.778	0.0144057
864.856	0.0143971
864.934	0.0146124
865.012	0.0145511
865.090	0.0144942
865.168	0.0145202
865.246	0.0145403
865.325	0.0144931
865.403	0.0145742
865.481	0.0145602
865.559	0.0145686
865.637	0.0143304
865.715	0.0143990
865.793	0.0144859
865.871	0.0144703
865.950	0.0144413
866.028	0.0143576
866.106	0.0143641
866.184	0.0143378
866.262	0.0144173
866.340	0.0143045
866.418	0.0141911
866.496	0.0143799
866.575	0.0143897
866.653	0.0144157
866.731	0.0143542
866.809	0.0142435
866.887	0.0141659
866.965	0.0143066
867.043	0.0143889
867.121	0.0142611
867.200	0.0142377
867.278	0.0142474
867.356	0.0143446
867.434	0.0143037
867.512	0.0142265
867.590	0.0141607
867.668	0.0142183
867.746	0.0142876
867.825	0.0143044
867.903	0.0143018
867.981	0.0143346
868.059	0.0143652
868.137	0.0143536
868.215	0.0143753
868.293	0.0143195
868.371	0.0143517
868.450	0.0143238
868.528	0.0143589
868.606	0.0143462
868.684	0.0142677
868.762	0.0143557
868.840	0.0144272
868.918	0.0143092
868.996	0.0142416
869.075	0.0142659
869.153	0.0142156
869.231	0.0143627
869.309	0.0143074
869.387	0.0143951
869.465	0.0144141
869.543	0.0143507
869.621	0.0143267
869.700	0.0143108
869.778	0.0143987
869.856	0.0143394
869.934	0.0143866
870.012	0.0144049
870.090	0.0143089
870.168	0.0143729
870.246	0.0143028
870.325	0.0143430
870.403	0.0142251
870.481	0.0142102
870.559	0.0143320
870.637	0.0144002
870.715	0.0143678
870.793	0.0143979
870.871	0.0142625
870.950	0.0144178
871.028	0.0143720
871.106	0.0144305
871.184	0.0143349
871.262	0.0144206
871.340	0.0143611
871.418	0.0143323
871.496	0.0144056
871.575	0.0141896
871.653	0.0143595
871.731	0.0143398
871.809	0.0142479
871.887	0.0143539
871.965	0.0143887
872.043	0.0142159
872.121	0.0143834
872.200	0.0143374
872.278	0.0142725
872.356	0.0143644
872.434	0.0143459
872.512	0.0142445
872.590	0.0143048
872.668	0.0143137
872.746	0.0143021
872.825	0.0142503
872.903	0.0142393
872.981	0.0143196
873.059	0.0144123
873.137	0.0142711
873.215	0.0142251
873.293	0.0142853
873.371	0.0142388
873.450	0.0143275
873.528	0.0142838
873.606	0.0142879
873.684	0.0142188
873.762	0.0141870
873.840	0.0141089
873.918	0.0143651
873.996	0.0142027
874.075	0.0142542
874.153	0.0142783
874.231	0.0142142
874.309	0.0142931
874.387	0.0142243
874.465	0.0141096
874.543	0.0142686
874.621	0.0143241
874.700	0.0142522
874.778	0.0142519
874.856	0.0142696
874.934	0.0143381
875.012	0.0143699
875.090	0.0143818
875.168	0.0142451
875.246	0.0141866
875.325	0.0143626
875.403	0.0143877
875.481	0.0143276
875.559	0.0143751
875.637	0.0142281
875.715	0.0144050
875.793	0.0143979
875.871	0.0143645
875.950	0.0144877
876.028	0.0143935
876.106	0.0143692
876.184	0.0143695
876.262	0.0144235
876.340	0.0144298
876.418	0.0143806
876.496	0.0144377
876.575	0.0143553
876.653	0.0143772
876.731	0.0145460
876.809	0.0144921
876.887	0.0144585
876.965	0.0143849
877.043	0.0144168
877.121	0.0144954
877.200	0.0143777
877.278	0.0144318
877.356	0.0143966
877.434	0.0142810
877.512	0.0144305
877.590	0.0144891
877.668	0.0144408
877.746	0.0145469
877.825	0.0144291
877.903	0.0143684
877.981	0.0143304
878.059	0.0144556
878.137	0.0145649
878.215	0.0145124
878.293	0.0144790
878.371	0.0143808
878.450	0.0144632
878.528	0.0143654
878.606	0.0144793
878.684	0.0144227
878.762	0.0144429
878.840	0.0144038
878.918	0.0143007
878.996	0.0143120
879.075	0.0142875
879.153	0.0142847
879.231	0.0142436
879.309	0.0144659
879.387	0.0144381
879.465	0.0143570
879.543	0.0144610
879.621	0.0145362
879.700	0.0144138
879.778	0.0144576
879.856	0.0143661
879.934	0.0144978
880.012	0.0144798
880.090	0.0143950
880.168	0.0145045
880.246	0.0144760
880.325	0.0145013
880.403	0.0144616
880.481	0.0144601
880.559	0.0144291
880.637	0.0145599
880.715	0.0145734
880.793	0.0145270
880.871	0.0146178
880.950	0.0145246
881.028	0.0144579
881.106	0.0144685
881.184	0.0144407
881.262	0.0142970
881.340	0.0144559
881.418	0.0144585
881.496	0.0143853
881.575	0.0143215
881.653	0.0144356
881.731	0.0144337
881.809	0.0144469
881.887	0.0145518
881.965	0.0145300
882.043	0.0143929
882.121	0.0143790
882.200	0.0144608
882.278	0.0144267
882.356	0.0143744
882.434	0.0144993
882.512	0.0143690
882.590	0.0144735
882.668	0.0144464
882.746	0.0143195
882.825	0.0143769
882.903	0.0144263
882.981	0.0144537
883.059	0.0144395
883.137	0.0145224
883.215	0.0145139
883.293	0.0144186
883.371	0.0143700
883.450	0.0144637
883.528	0.0143788
883.606	0.0145152
883.684	0.0144285
883.762	0.0143477
883.840	0.0142982
883.918	0.0144186
883.996	0.0144187
884.075	0.0142683
884.153	0.0143401
884.231	0.0143757
884.309	0.0143735
884.387	0.0143170
884.465	0.0143125
884.543	0.0142966
884.621	0.0142302
884.700	0.0142212
884.778	0.0143756
884.856	0.0143190
884.934	0.0143494
885.012	0.0142029
885.090	0.0142439
885.168	0.0144353
885.246	0.0143376
885.325	0.0143604
885.403	0.0143199
885.481	0.0143559
885.559	0.0144427
885.637	0.0144515
885.715	0.0144729
885.793	0.0144428
885.871	0.0145565
885.950	0.0144896
886.028	0.0145031
886.106	0.0146391
886.184	0.0146001
886.262	0.0146242
886.340	0.0146213
886.418	0.0145402
886.496	0.0145414
886.575	0.0145663
886.653	0.0144449
886.731	0.0143052
886.809	0.0143320
886.887	0.0143581
886.965	0.0143584
887.043	0.0143675
887.121	0.0143482
887.200	0.0143553
887.278	0.0143938
887.356	0.0143145
887.434	0.0143628
887.512	0.0144058
887.590	0.0143449
887.668	0.0143864
887.746	0.0143473
887.825	0.0143932
887.903	0.0144121
887.981	0.0143752
888.059	0.0145515
888.137	0.0143355
888.215	0.0143430
888.293	0.0143338
888.371	0.0143293
888.450	0.0144511
888.528	0.0144073
888.606	0.0144376
888.684	0.0143778
888.762	0.0143710
888.840	0.0143661
888.918	0.0145487
888.996	0.0144219
889.075	0.0144054
889.153	0.0142657
889.231	0.0144670
889.309	0.0143945
889.387	0.0143695
889.465	0.0143150
889.543	0.0143809
889.621	0.0142934
889.700	0.0143244
889.778	0.0142651
889.856	0.0143115
889.934	0.0141950
890.012	0.0141855
890.090	0.0142122
890.168	0.0140440
890.246	0.0141041
890.325	0.0141882
890.403	0.0143915
890.481	0.0142089
890.559	0.0142769
890.637	0.0143166
890.715	0.0142991
890.793	0.0144397
890.871	0.0143941
890.950	0.0143697
891.028	0.0144259
891.106	0.0143808
891.184	0.0142771
891.262	0.0143701
891.340	0.0143736
891.418	0.0142828
891.496	0.0143559
891.575	0.0142957
891.653	0.0142583
891.731	0.0141516
891.809	0.0140119
891.887	0.0141794
891.965	0.0142788
892.043	0.0143606
892.121	0.0142761
892.200	0.0144985
892.278	0.0143264
892.356	0.0143101
892.434	0.0143085
892.512	0.0143744
892.590	0.0143141
892.668	0.0144194
892.746	0.0145174
892.825	0.0142957
892.903	0.0143839
892.981	0.0144566
893.059	0.0144659
893.137	0.0143397
893.215	0.0143158
893.293	0.0143302
893.371	0.0143517
893.450	0.0143783
893.528	0.0144755
893.606	0.0143516
893.684	0.0143837
893.762	0.0144549
893.840	0.0144455
893.918	0.0145617
893.996	0.0145825
894.075	0.0145113
894.153	0.0145013
894.231	0.0144144
894.309	0.0143367
894.387	0.0145628
894.465	0.0146100
894.543	0.0142939
894.621	0.0142926
894.700	0.0142491
894.778	0.0142590
894.856	0.0141722
894.934	0.0141823
895.012	0.0140952
895.090	0.0143105
895.168	0.0143003
895.246	0.0142773
895.325	0.0142176
895.403	0.0141159
895.481	0.0142747
895.559	0.0143840
895.637	0.0142630
895.715	0.0142706
895.793	0.0144072
895.871	0.0144734
895.950	0.0144911
896.028	0.0143858
896.106	0.0142977
896.184	0.0143900
896.262	0.0143584
896.340	0.0143295
896.418	0.0144374
896.496	0.0142067
896.575	0.0143337
896.653	0.0144048
896.731	0.0142813
896.809	0.0141097
896.887	0.0140440
896.965	0.0140722
897.043	0.0143013
897.121	0.0141874
897.200	0.0141773
897.278	0.0143238
897.356	0.0142409
897.434	0.0142773
897.512	0.0142664
897.590	0.0142866
897.668	0.0144239
897.746	0.0144654
897.825	0.0143669
897.903	0.0143799
897.981	0.0144670
898.059	0.0144721
898.137	0.0144112
898.215	0.0144985
898.293	0.0143163
898.371	0.0142691
898.450	0.0142871
898.528	0.0142531
898.606	0.0141924
898.684	0.0141981
898.762	0.0141154
898.840	0.0139771
898.918	0.0141331
898.996	0.0140668
899.075	0.0142490
899.153	0.0141817
899.231	0.0141582
899.309	0.0141637
899.387	0.0141891
899.465	0.0140915
899.543	0.0142141
899.621	0.0142228
899.700	0.0143267
899.778	0.0142300
899.856	0.0143346
899.934	0.0142641
900.012	0.0143242
900.090	0.0143120
900.168	0.0143761
900.246	0.0143166
900.325	0.0144175
900.403	0.0142519
900.481	0.0141936
900.559	0.0143874
900.637	0.0143462
900.715	0.0143172
900.793	0.0142782
900.871	0.0142248
900.950	0.0143215
901.028	0.0142707
901.106	0.0143562
901.184	0.0142027
901.262	0.0142871
901.340	0.0142945
901.418	0.0144374
901.496	0.0142519
901.575	0.0142801
901.653	0.0143018
901.731	0.0142197
901.809	0.0143863
901.887	0.0143639
901.965	0.0142950
902.043	0.0143731
902.121	0.0144234
902.200	0.0144366
902.278	0.0144657
902.356	0.0145001
902.434	0.0144029
902.512	0.0144301
902.590	0.0143427
902.668	0.0144878
902.746	0.0143098
902.825	0.0144011
902.903	0.0144112
902.981	0.0144070
903.059	0.0143658
903.137	0.0142420
903.215	0.0141597
903.293	0.0143821
903.371	0.0143021
903.450	0.0143233
903.528	0.0142541
903.606	0.0144391
903.684	0.0142552
903.762	0.0143651
903.840	0.0144643
903.918	0.0143911
903.996	0.0144548
904.075	0.0144073
904.153	0.0144906
904.231	0.0143126
904.309	0.0143675
904.387	0.0142904
904.465	0.0144531
904.543	0.0143941
904.621	0.0143793
904.700	0.0143961
904.778	0.0143542
904.856	0.0142609
904.934	0.0141801
905.012	0.0142749
905.090	0.0143336
905.168	0.0143789
905.246	0.0142952
905.325	0.0142768
905.403	0.0144073
905.481	0.0144454
905.559	0.0146143
905.637	0.0145288
905.715	0.0145203
905.793	0.0145325
905.871	0.0143903
905.950	0.0144437
906.028	0.0143664
906.106	0.0144292
906.184	0.0143499
906.262	0.0142899
906.340	0.0144027
906.418	0.0143384
906.496	0.0143474
906.575	0.0142599
906.653	0.0143769
906.731	0.0143577
906.809	0.0141753
906.887	0.0143137
906.965	0.0144065
907.043	0.0144895
907.121	0.0143145
907.200	0.0144254
907.278	0.0143483
907.356	0.0142792
907.434	0.0144411
907.512	0.0145119
907.590	0.0145804
907.668	0.0143947
907.746	0.0145031
907.825	0.0146003
907.903	0.0144923
907.981	0.0145067
908.059	0.0144694
908.137	0.0144557
908.215	0.0145149
908.293	0.0143311
908.371	0.0144694
908.450	0.0145741
908.528	0.0143365
908.606	0.0143832
908.684	0.0144157
908.762	0.0144359
908.840	0.0144164
908.918	0.0144911
908.996	0.0144312
909.075	0.0142196
909.153	0.0144437
909.231	0.0145481
909.309	0.0144406
909.387	0.0144762
909.465	0.0144526
909.543	0.0145380
909.621	0.0145566
909.700	0.0145882
909.778	0.0144871
909.856	0.0145324
909.934	0.0143524
910.012	0.0145893
910.090	0.0144815
910.168	0.0144855
910.246	0.0144553
910.325	0.0144796
910.403	0.0143449
910.481	0.0142935
910.559	0.0143770
910.637	0.0143475
910.715	0.0143560
910.793	0.0142914
910.871	0.0145683
910.950	0.0144213
911.028	0.0143826
911.106	0.0143519
911.184	0.0143499
911.262	0.0144434
911.340	0.0144232
911.418	0.0145380
911.496	0.0144240
911.575	0.0143264
911.653	0.0145519
911.731	0.0145589
911.809	0.0144756
911.887	0.0142928
911.965	0.0144102
912.043	0.0145047
912.121	0.0143991
912.200	0.0145172
912.278	0.0143786
912.356	0.0143336
912.434	0.0144159
912.512	0.0144782
912.590	0.0144189
912.668	0.0143929
912.746	0.0142561
912.825	0.0143890
912.903	0.0143340
912.981	0.0143762
913.059	0.0143842
913.137	0.0143723
913.215	0.0143438
913.293	0.0142776
913.371	0.0141846
913.450	0.0143082
913.528	0.0143011
913.606	0.0142966
913.684	0.0143855
913.762	0.0144019
913.840	0.0142953
913.918	0.0143454
913.996	0.0144223
914.075	0.0143360
914.153	0.0143540
914.231	0.0144076
914.309	0.0144424
914.387	0.0143607
914.465	0.0143460
914.543	0.0143190
914.621	0.0144244
914.700	0.0144820
914.778	0.0144127
914.856	0.0143670
914.934	0.0143863
915.012	0.0145444
915.090	0.0144591
915.168	0.0144350
915.246	0.0142581
915.325	0.0143557
915.403	0.0142575
915.481	0.0142734
915.559	0.0143059
915.637	0.0141933
915.715	0.0141161
915.793	0.0141527
915.871	0.0142896
915.950	0.0141880
916.028	0.0141589
916.106	0.0141879
916.184	0.0142401
916.262	0.0142580
916.340	0.0141584
916.418	0.0142311
916.496	0.0141843
916.575	0.0143226
916.653	0.0144873
916.731	0.0143894
916.809	0.0143812
916.887	0.0144696
916.965	0.0144466
917.043	0.0144921
917.121	0.0146255
917.200	0.0144891
917.278	0.0144244
917.356	0.0144514
917.434	0.0144494
917.512	0.0143924
917.590	0.0143575
917.668	0.0142952
917.746	0.0142705
917.825	0.0142341
917.903	0.0142392
917.981	0.0141997
918.059	0.0142593
918.137	0.0141183
918.215	0.0141480
918.293	0.0141526
918.371	0.0142480
918.450	0.0143153
918.528	0.0142477
918.606	0.0142702
918.684	0.0143884
918.762	0.0144418
918.840	0.0142001
918.918	0.0144002
918.996	0.0143525
919.075	0.0143100
919.153	0.0143262
919.231	0.0144947
919.309	0.0144544
919.387	0.0143600
919.465	0.0143238
919.543	0.0143256
919.621	0.0144085
919.700	0.0144761
919.778	0.0142979
919.856	0.0141746
919.934	0.0143352
920.012	0.0143965
920.090	0.0144007
920.168	0.0142677
920.246	0.0143830
920.325	0.0143272
920.403	0.0142946
920.481	0.0142334
920.559	0.0144112
920.637	0.0143703
920.715	0.0143455
920.793	0.0142973
920.871	0.0143772
920.950	0.0142358
921.028	0.0143959
921.106	0.0142724
921.184	0.0142357
921.262	0.0141596
921.340	0.0142255
921.418	0.0142706
921.496	0.0142997
921.575	0.0141859
921.653	0.0143859
921.731	0.0142956
921.809	0.0143365
921.887	0.0141799
921.965	0.0143941
922.043	0.0143282
922.121	0.0144081
922.200	0.0143455
922.278	0.0143227
922.356	0.0142903
922.434	0.0143193
922.512	0.0142129
922.590	0.0141479
922.668	0.0142467
922.746	0.0142809
922.825	0.0142937
922.903	0.0143298
922.981	0.0143095
923.059	0.0142633
923.137	0.0142976
923.215	0.0143179
923.293	0.0142345
923.371	0.0142832
923.450	0.0143012
923.528	0.0143334
923.606	0.0145363
923.684	0.0143495
923.762	0.0143084
923.840	0.0143831
923.918	0.0142576
923.996	0.0143600
924.075	0.0144566
924.153	0.0144743
924.231	0.0144422
924.309	0.0142648
924.387	0.0143595
924.465	0.0143365
924.543	0.0144867
924.621	0.0143619
924.700	0.0145080
924.778	0.0145631
924.856	0.0144024
924.934	0.0144221
925.012	0.0143764
925.090	0.0144477
925.168	0.0144225
925.246	0.0143525
925.325	0.0142718
925.403	0.0143281
925.481	0.0143903
925.559	0.0144767
925.637	0.0144221
925.715	0.0143789
925.793	0.0144283
925.871	0.0143967
925.950	0.0144016
926.028	0.0144398
926.106	0.0142807
926.184	0.0142733
926.262	0.0143566
926.340	0.0144197
926.418	0.0143298
926.496	0.0143986
926.575	0.0143270
926.653	0.0142802
926.731	0.0143309
926.809	0.0143734
926.887	0.0142393
926.965	0.0143203
927.043	0.0144542
927.121	0.0143061
927.200	0.0142986
927.278	0.0143462
927.356	0.0145341
927.434	0.0144225
927.512	0.0144054
927.590	0.0144017
927.668	0.0143929
927.746	0.0143977
927.825	0.0144257
927.903	0.0145289
927.981	0.0145450
928.059	0.0143437
928.137	0.0144659
928.215	0.0146521
928.293	0.0144584
928.371	0.0144514
928.450	0.0144561
928.528	0.0145181
928.606	0.0144526
928.684	0.0145282
928.762	0.0145327
928.840	0.0144762
928.918	0.0143833
928.996	0.0143997
929.075	0.0144823
929.153	0.0144656
929.231	0.0144484
929.309	0.0143301
929.387	0.0144044
929.465	0.0144238
929.543	0.0144137
929.621	0.0145454
929.700	0.0144563
929.778	0.0144556
929.856	0.0142648
929.934	0.0143501
930.012	0.0144095
930.090	0.0143786
930.168	0.0144149
930.246	0.0144993
930.325	0.0143577
930.403	0.0145202
930.481	0.0144722
930.559	0.0144421
930.637	0.0144249
930.715	0.0143524
930.793	0.0144265
930.871	0.0144685
930.950	0.0142825
931.028	0.0145341
931.106	0.0144125
931.184	0.0142947
931.262	0.0142738
931.340	0.0143264
931.418	0.0144547
931.496	0.0144106
931.575	0.0144172
931.653	0.0144366
931.731	0.0146404
931.809	0.0144104
931.887	0.0144308
931.965	0.0145760
932.043	0.0145053
932.121	0.0144247
932.200	0.0146355
932.278	0.0144466
932.356	0.0145320
932.434	0.0145358
932.512	0.0145424
932.590	0.0145181
932.668	0.0145921
932.746	0.0145883
932.825	0.0145348
932.903	0.0144405
932.981	0.0143717
933.059	0.0144716
933.137	0.0145227
933.215	0.0144709
933.293	0.0143234
933.371	0.0143210
933.450	0.0144498
933.528	0.0145076
933.606	0.0143317
933.684	0.0143187
933.762	0.0144764
933.840	0.0143668
933.918	0.0144229
933.996	0.0142524
934.075	0.0143069
934.153	0.0144798
934.231	0.0142876
934.309	0.0142662
934.387	0.0143058
934.465	0.0144581
934.543	0.0144114
934.621	0.0142993
934.700	0.0144176
934.778	0.0146356
934.856	0.0144759
934.934	0.0143188
935.012	0.0144129
935.090	0.0144207
935.168	0.0144189
935.246	0.0143551
935.325	0.0144389
935.403	0.0144410
935.481	0.0145535
935.559	0.0144109
935.637	0.0143959
935.715	0.0143953
935.793	0.0144127
935.871	0.0143385
935.950	0.0143777
936.028	0.0144247
936.106	0.0143886
936.184	0.0143429
936.262	0.0143652
936.340	0.0144343
936.418	0.0143047
936.496	0.0142866
936.575	0.0143127
936.653	0.0142816
936.731	0.0142906
936.809	0.0143052
936.887	0.0142754
936.965	0.0143489
937.043	0.0143849
937.121	0.0143404
937.200	0.0144077
937.278	0.0143973
937.356	0.0143363
937.434	0.0144254
937.512	0.0144962
937.590	0.0144370
937.668	0.0143663
937.746	0.0144317
937.825	0.0145142
937.903	0.0143778
937.981	0.0144068
938.059	0.0143623
938.137	0.0143951
938.215	0.0143138
938.293	0.0142625
938.371	0.0143370
938.450	0.0143947
938.528	0.0143518
938.606	0.0142424
938.684	0.0142974
938.762	0.0142529
938.840	0.0142577
938.918	0.0143935
938.996	0.0143828
939.075	0.0142562
939.153	0.0142441
939.231	0.0142609
939.309	0.0142694
939.387	0.0142801
939.465	0.0144254
939.543	0.0144153
939.621	0.0143222
939.700	0.0144416
939.778	0.0142616
939.856	0.0141782
939.934	0.0143642
940.012	0.0144904
940.090	0.0143618
940.168	0.0142723
940.246	0.0143804
940.325	0.0143866
940.403	0.0144582
940.481	0.0142898
940.559	0.0142971
940.637	0.0143317
940.715	0.0142697
940.793	0.0143221
940.871	0.0144569
940.950	0.0143457
941.028	0.0142728
941.106	0.0142288
941.184	0.0142771
941.262	0.0142686
941.340	0.0142918
941.418	0.0142577
941.496	0.0142893
941.575	0.0143293
941.653	0.0141518
941.731	0.0144109
941.809	0.0143651
941.887	0.0144067
941.965	0.0143656
942.043	0.0143995
942.121	0.0144955
942.200	0.0144502
942.278	0.0143356
942.356	0.0143574
942.434	0.0143831
942.512	0.0144463
942.590	0.0143412
942.668	0.0144904
942.746	0.0144200
942.825	0.0143612
942.903	0.0143817
942.981	0.0143309
943.059	0.0143026
943.137	0.0143650
943.215	0.0144150
943.293	0.0143188
943.371	0.0142615
943.450	0.0141936
943.528	0.0143108
943.606	0.0144254
943.684	0.0144259
943.762	0.0142769
943.840	0.0142985
943.918	0.0143831
943.996	0.0143826
944.075	0.0141811
944.153	0.0143535
944.231	0.0142305
944.309	0.0142892
944.387	0.0143195
944.465	0.0143525
944.543	0.0142401
944.621	0.0142551
944.700	0.0143313
944.778	0.0144727
944.856	0.0144366
944.934	0.0143935
945.012	0.0143832
945.090	0.0143506
945.168	0.0142934
945.246	0.0144553
945.325	0.0144905
945.403	0.0143507
945.481	0.0142975
945.559	0.0144566
945.637	0.0143764
945.715	0.0143303
945.793	0.0143465
945.871	0.0143156
945.950	0.0144033
946.028	0.0144247
946.106	0.0144965
946.184	0.0142958
946.262	0.0142805
946.340	0.0143999
946.418	0.0142821
946.496	0.0143245
946.575	0.0143027
946.653	0.0144118
946.731	0.0144949
946.809	0.0143407
946.887	0.0142009
946.965	0.0143217
947.043	0.0143739
947.121	0.0143416
947.200	0.0144276
947.278	0.0144044
947.356	0.0144529
947.434	0.0142569
947.512	0.0142226
947.590	0.0144743
947.668	0.0143288
947.746	0.0143968
947.825	0.0143920
947.903	0.0144912
947.981	0.0144134
948.059	0.0143170
948.137	0.0143110
948.215	0.0143636
948.293	0.0142121
948.371	0.0141837
948.450	0.0144948
948.528	0.0143012
948.606	0.0142341
948.684	0.0144703
948.762	0.0143850
948.840	0.0143804
948.918	0.0143203
948.996	0.0142715
949.075	0.0142117
949.153	0.0143453
949.231	0.0143330
949.309	0.0143180
949.387	0.0142281
949.465	0.0142999
949.543	0.0143544
949.621	0.0143085
949.700	0.0143071
949.778	0.0141509
949.856	0.0143318
949.934	0.0144057
950.012	0.0143394
950.090	0.0143726
950.168	0.0143947
950.246	0.0144642
950.325	0.0144016
950.403	0.0144052
950.481	0.0143718
950.559	0.0144775
950.637	0.0145517
950.715	0.0143597
950.793	0.0144348
950.871	0.0144099
950.950	0.0144389
951.028	0.0144593
951.106	0.0144093
951.184	0.0142706
951.262	0.0144685
951.340	0.0144997
951.418	0.0143848
951.496	0.0144418
951.575	0.0143992
951.653	0.0143908
951.731	0.0143063
951.809	0.0143229
951.887	0.0143272
951.965	0.0143711
952.043	0.0143145
952.121	0.0143097
952.200	0.0143235
952.278	0.0142751
952.356	0.0142896
952.434	0.0143435
952.512	0.0141540
952.590	0.0142522
952.668	0.0143032
952.746	0.0143937
952.825	0.0143828
952.903	0.0142713
952.981	0.0142944
953.059	0.0142503
953.137	0.0143714
953.215	0.0144188
953.293	0.0143853
953.371	0.0144475
953.450	0.0143601
953.528	0.0143591
953.606	0.0143407
953.684	0.0143576
953.762	0.0144388
953.840	0.0144330
953.918	0.0143132
953.996	0.0143503
954.075	0.0143515
954.153	0.0143837
954.231	0.0145024
954.309	0.0143444
954.387	0.0142833
954.465	0.0141705
954.543	0.0142827
954.621	0.0143156
954.700	0.0142597
954.778	0.0141937
954.856	0.0143130
954.934	0.0142515
955.012	0.0144047
955.090	0.0144702
955.168	0.0142516
955.246	0.0144244
955.325	0.0143105
955.403	0.0143592
955.481	0.0142331
955.559	0.0144146
955.637	0.0144609
955.715	0.0142451
955.793	0.0144768
955.871	0.0144536
955.950	0.0143906
956.028	0.0143184
956.106	0.0144043
956.184	0.0144483
956.262	0.0145203
956.340	0.0143871
956.418	0.0143479
956.496	0.0144516
956.575	0.0144263
956.653	0.0144592
956.731	0.0144399
956.809	0.0143330
956.887	0.0144595
956.965	0.0143813
957.043	0.0144657
957.121	0.0144305
957.200	0.0143509
957.278	0.0144785
957.356	0.0143793
957.434	0.0143417
957.512	0.0143700
957.590	0.0144235
957.668	0.0144324
957.746	0.0142975
957.825	0.0143224
957.903	0.0143785
957.981	0.0144387
958.059	0.0143727
958.137	0.0143562
958.215	0.0143384
958.293	0.0142780
958.371	0.0143333
958.450	0.0143153
958.528	0.0143065
958.606	0.0142838
958.684	0.0143195
958.762	0.0142931
958.840	0.0142414
958.918	0.0144758
958.996	0.0143850
959.075	0.0142181
959.153	0.0143301
959.231	0.0142654
959.309	0.0143272
959.387	0.0143546
959.465	0.0143404
959.543	0.0142413
959.621	0.0142440
959.700	0.0143649
959.778	0.0143436
959.856	0.0143550
959.934	0.0141140
960.012	0.0143378
960.090	0.0143300
960.168	0.0143434
960.246	0.0142991
960.325	0.0142677
960.403	0.0143514
960.481	0.0143689
960.559	0.0143626
960.637	0.0141959
960.715	0.0143151
960.793	0.0144152
960.871	0.0143020
960.950	0.0142290
961.028	0.0143556
961.106	0.0143547
961.184	0.0143885
961.262	0.0143194
961.340	0.0142693
961.418	0.0143983
961.496	0.0143779
961.575	0.0144740
961.653	0.0143510
961.731	0.0143902
961.809	0.0142998
961.887	0.0143222
961.965	0.0143256
962.043	0.0142841
962.121	0.0143116
962.200	0.0142709
962.278	0.0144572
962.356	0.0143213
962.434	0.0142066
962.512	0.0141976
962.590	0.0142340
962.668	0.0143826
962.746	0.0144167
962.825	0.0142861
962.903	0.0143188
962.981	0.0143587
963.059	0.0143929
963.137	0.0144180
963.215	0.0144889
963.293	0.0144772
963.371	0.0143484
963.450	0.0144013
963.528	0.0144799
963.606	0.0144056
963.684	0.0143008
963.762	0.0143174
963.840	0.0143188
963.918	0.0142757
963.996	0.0142883
964.075	0.0142812
964.153	0.0144403
964.231	0.0144120
964.309	0.0143074
964.387	0.0144524
964.465	0.0143458
964.543	0.0143977
964.621	0.0143273
964.700	0.0143681
964.778	0.0145235
964.856	0.0143932
964.934	0.0144659
965.012	0.0142710
965.090	0.0142862
965.168	0.0144296
965.246	0.0143742
965.325	0.0144210
965.403	0.0143982
965.481	0.0143122
965.559	0.0144403
965.637	0.0145257
965.715	0.0145020
965.793	0.0141977
965.871	0.0144978
965.950	0.0143143
966.028	0.0145271
966.106	0.0144432
966.184	0.0144086
966.262	0.0145759
966.340	0.0145577
966.418	0.0146181
966.496	0.0144410
966.575	0.0144187
966.653	0.0143516
966.731	0.0144797
966.809	0.0145682
966.887	0.0144733
966.965	0.0144372
967.043	0.0143403
967.121	0.0144608
967.200	0.0144695
967.278	0.0144006
967.356	0.0144889
967.434	0.0143648
967.512	0.0143491
967.590	0.0142037
967.668	0.0142294
967.746	0.0143422
967.825	0.0143489
967.903	0.0142850
967.981	0.0143179
968.059	0.0142401
968.137	0.0143372
968.215	0.0144333
968.293	0.0142625
968.371	0.0144134
968.450	0.0144304
968.528	0.0143041
968.606	0.0142916
968.684	0.0143916
968.762	0.0144289
968.840	0.0143257
968.918	0.0142314
968.996	0.0142508
969.075	0.0141858
969.153	0.0143812
969.231	0.0143044
969.309	0.0142694
969.387	0.0142994
969.465	0.0142548
969.543	0.0141976
969.621	0.0142049
969.700	0.0141816
969.778	0.0141770
969.856	0.0141204
969.934	0.0141871
970.012	0.0142525
970.090	0.0143360
970.168	0.0141367
970.246	0.0140614
970.325	0.0141785
970.403	0.0143393
970.481	0.0143540
970.559	0.0142712
970.637	0.0143240
970.715	0.0144053
970.793	0.0142957
970.871	0.0141732
970.950	0.0143913
971.028	0.0143826
971.106	0.0142525
971.184	0.0144330
971.262	0.0143347
971.340	0.0143279
971.418	0.0142281
971.496	0.0143519
971.575	0.0144324
971.653	0.0142970
971.731	0.0142700
971.809	0.0144048
971.887	0.0142619
971.965	0.0142750
972.043	0.0143066
972.121	0.0142841
972.200	0.0142600
972.278	0.0143085
972.356	0.0142009
972.434	0.0143636
972.512	0.0144290
972.590	0.0144198
972.668	0.0143359
972.746	0.0144687
972.825	0.0143549
972.903	0.0143916
972.981	0.0143381
973.059	0.0143271
973.137	0.0144458
973.215	0.0143035
973.293	0.0143679
973.371	0.0142619
973.450	0.0144166
973.528	0.0144113
973.606	0.0144057
973.684	0.0142401
973.762	0.0143700
973.840	0.0144041
973.918	0.0144581
973.996	0.0146418
974.075	0.0143877
974.153	0.0144019
974.231	0.0144487
974.309	0.0143349
974.387	0.0142870
974.465	0.0144101
974.543	0.0143583
974.621	0.0142690
974.700	0.0143649
974.778	0.0143835
974.856	0.0143470
974.934	0.0141846
975.012	0.0143974
975.090	0.0144101
975.168	0.0143881
975.246	0.0143272
975.325	0.0144022
975.403	0.0143230
975.481	0.0142461
975.559	0.0143161
975.637	0.0143935
975.715	0.0142995
975.793	0.0144405
975.871	0.0142971
975.950	0.0142989
976.028	0.0144571
976.106	0.0143166
976.184	0.0143027
976.262	0.0144388
976.340	0.0142952
976.418	0.0143677
976.496	0.0144167
976.575	0.0144351
976.653	0.0144500
976.731	0.0143322
976.809	0.0143641
976.887	0.0142640
976.965	0.0142435
977.043	0.0143865
977.121	0.0143935
977.200	0.0144064
977.278	0.0142741
977.356	0.0142442
977.434	0.0143587
977.512	0.0144839
977.590	0.0143276
977.668	0.0142084
977.746	0.0142390
977.825	0.0142961
977.903	0.0142591
977.981	0.0143745
978.059	0.0143951
978.137	0.0144042
978.215	0.0142913
978.293	0.0143513
978.371	0.0144098
978.450	0.0142670
978.528	0.0143776
978.606	0.0142612
978.684	0.0143270
978.762	0.0145063
978.840	0.0143922
978.918	0.0140887
978.996	0.0144154
979.075	0.0143658
979.153	0.0143436
979.231	0.0143129
979.309	0.0142708
979.387	0.0142016
979.465	0.0143449
979.543	0.0143909
979.621	0.0144133
979.700	0.0142463
979.778	0.0143126
979.856	0.0144298
979.934	0.0144708
980.012	0.0145603
980.090	0.0144194
980.168	0.0143421
980.246	0.0145394
980.325	0.0143920
980.403	0.0144138
980.481	0.0145174
980.559	0.0145045
980.637	0.0144053
980.715	0.0146176
980.793	0.0144397
980.871	0.0142847
980.950	0.0143950
981.028	0.0145185
981.106	0.0144025
981.184	0.0143913
981.262	0.0143963
981.340	0.0144463
981.418	0.0143978
981.496	0.0144341
981.575	0.0142900
981.653	0.0144088
981.731	0.0144166
981.809	0.0144011
981.887	0.0143204
981.965	0.0142916
982.043	0.0143824
982.121	0.0145612
982.200	0.0144240
982.278	0.0143657
982.356	0.0143411
982.434	0.0145923
982.512	0.0145621
982.590	0.0144438
982.668	0.0144959
982.746	0.0144064
982.825	0.0143967
982.903	0.0145238
982.981	0.0144257
983.059	0.0144689
983.137	0.0143686
983.215	0.0145115
983.293	0.0144130
983.371	0.0144121
983.450	0.0144386
983.528	0.0142687
983.606	0.0145570
983.684	0.0145797
983.762	0.0143882
983.840	0.0144434
983.918	0.0144073
983.996	0.0142526
984.075	0.0143509
984.153	0.0144855
984.231	0.0144682
984.309	0.0144232
984.387	0.0143130
984.465	0.0142713
984.543	0.0143777
984.621	0.0144115
984.700	0.0144630
984.778	0.0144342
984.856	0.0143037
984.934	0.0144014
985.012	0.0143559
985.090	0.0142978
985.168	0.0143356
985.246	0.0142963
985.325	0.0144554
985.403	0.0143990
985.481	0.0142292
985.559	0.0142664
985.637	0.0143163
985.715	0.0141877
985.793	0.0141728
985.871	0.0143001
985.950	0.0142762
986.028	0.0142028
986.106	0.0140596
986.184	0.0142303
986.262	0.0143037
986.340	0.0142797
986.418	0.0144316
986.496	0.0142758
986.575	0.0143572
986.653	0.0143488
986.731	0.0143603
986.809	0.0143999
986.887	0.0143089
986.965	0.0143923
987.043	0.0144677
987.121	0.0144331
987.200	0.0144077
987.278	0.0142864
987.356	0.0144216
987.434	0.0143053
987.512	0.0143970
987.590	0.0143983
987.668	0.0141885
987.746	0.0144550
987.825	0.0144260
987.903	0.0144633
987.981	0.0144487
988.059	0.0144436
988.137	0.0143948
988.215	0.0144544
988.293	0.0142874
988.371	0.0144950
988.450	0.0144203
988.528	0.0143835
988.606	0.0144165
988.684	0.0145310
988.762	0.0145188
988.840	0.0143802
988.918	0.0144561
988.996	0.0142149
989.075	0.0144100
989.153	0.0143808
989.231	0.0144718
989.309	0.0143668
989.387	0.0144636
989.465	0.0145592
989.543	0.0143359
989.621	0.0143012
989.700	0.0143591
989.778	0.0143547
989.856	0.0143523
989.934	0.0142874
990.012	0.0142577
990.090	0.0143590
990.168	0.0143890
990.246	0.0143851
990.325	0.0142931
990.403	0.0145083
990.481	0.0144173
990.559	0.0144520
990.637	0.0145795
990.715	0.0144137
990.793	0.0145431
990.871	0.0145141
990.950	0.0144238
991.028	0.0145178
991.106	0.0144575
991.184	0.0144440
991.262	0.0144934
991.340	0.0145422
991.418	0.0144736
991.496	0.0142130
991.575	0.0142770
991.653	0.0142828
991.731	0.0143194
991.809	0.0144474
991.887	0.0143284
991.965	0.0142771
992.043	0.0142406
992.121	0.0143075
992.200	0.0144128
992.278	0.0143993
992.356	0.0144083
992.434	0.0143238
992.512	0.0144370
992.590	0.0144172
992.668	0.0143974
992.746	0.0144273
992.825	0.0142682
992.903	0.0144375
992.981	0.0145559
993.059	0.0144850
993.137	0.0145316
993.215	0.0144027
993.293	0.0143591
993.371	0.0143358
993.450	0.0143783
993.528	0.0144662
993.606	0.0143292
993.684	0.0143383
993.762	0.0143661
993.840	0.0143635
993.918	0.0143227
993.996	0.0142686
994.075	0.0144035
994.153	0.0143670
994.231	0.0142780
994.309	0.0143174
994.387	0.0143550
994.465	0.0143922
994.543	0.0144514
994.621	0.0144904
994.700	0.0144386
994.778	0.0142958
994.856	0.0144202
994.934	0.0145038
995.012	0.0142715
995.090	0.0144114
995.168	0.0143156
995.246	0.0144976
995.325	0.0143787
995.403	0.0143595
995.481	0.0143480
995.559	0.0142560
995.637	0.0142889
995.715	0.0143009
995.793	0.0142272
995.871	0.0142976
995.950	0.0143296
996.028	0.0142101
996.106	0.0143063
996.184	0.0144872
996.262	0.0143459
996.340	0.0144085
996.418	0.0144312
996.496	0.0143707
996.575	0.0142738
996.653	0.0145126
996.731	0.0145605
996.809	0.0144797
996.887	0.0144308
996.965	0.0144901
997.043	0.0144839
997.121	0.0145871
997.200	0.0143891
997.278	0.0143977
997.356	0.0143890
997.434	0.0144519
997.512	0.0143057
997.590	0.0144080
997.668	0.0143403
997.746	0.0142834
997.825	0.0143333
997.903	0.0143420
997.981	0.0143246
998.059	0.0142842
998.137	0.0144257
998.215	0.0143976
998.293	0.0143155
998.371	0.0143839
998.450	0.0144440
998.528	0.0143542
998.606	0.0143002
998.684	0.0143611
998.762	0.0144221
998.840	0.0142895
998.918	0.0143082
