05/04/2022	21:23:38	Ver.	4.1	UNKNOWN
Optical Delay	678.996401	Delta X		0.078125	Sweeps	1	Scan Rate	0/0
Coordinates	Axis 1	NaN	Axis 2	NaN	Axis 3	NaN	Axis 4	NaN	Axis 5	NaN	Axis 6	0.000000
TX Power	0.000000	RX Power	0.000000

678.996	0.0149184
679.075	0.0149551
679.153	0.0148750
679.231	0.0148486
679.309	0.0151620
679.387	0.0150296
679.465	0.0149031
679.543	0.0148811
679.621	0.0148223
679.700	0.0147779
679.778	0.0148897
679.856	0.0149741
679.934	0.0149564
680.012	0.0148071
680.090	0.0148439
680.168	0.0150696
680.246	0.0149139
680.325	0.0148194
680.403	0.0147543
680.481	0.0149167
680.559	0.0149844
680.637	0.0149312
680.715	0.0149406
680.793	0.0149342
680.871	0.0148487
680.950	0.0149089
681.028	0.0150342
681.106	0.0149397
681.184	0.0149581
681.262	0.0148969
681.340	0.0149380
681.418	0.0148780
681.496	0.0146826
681.575	0.0148988
681.653	0.0147482
681.731	0.0147353
681.809	0.0148952
681.887	0.0147637
681.965	0.0147814
682.043	0.0147985
682.121	0.0147279
682.200	0.0147334
682.278	0.0147090
682.356	0.0147037
682.434	0.0148623
682.512	0.0148355
682.590	0.0148375
682.668	0.0147660
682.746	0.0146047
682.825	0.0147526
682.903	0.0147651
682.981	0.0147717
683.059	0.0147831
683.137	0.0148317
683.215	0.0147946
683.293	0.0149046
683.371	0.0148895
683.450	0.0148719
683.528	0.0148628
683.606	0.0148185
683.684	0.0148934
683.762	0.0149387
683.840	0.0150081
683.918	0.0148740
683.996	0.0150013
684.075	0.0149535
684.153	0.0148248
684.231	0.0148569
684.309	0.0149349
684.387	0.0148380
684.465	0.0149641
684.543	0.0147930
684.621	0.0148611
684.700	0.0148218
684.778	0.0148522
684.856	0.0148826
684.934	0.0148778
685.012	0.0148332
685.090	0.0147532
685.168	0.0146307
685.246	0.0147892
685.325	0.0148661
685.403	0.0148537
685.481	0.0148151
685.559	0.0147337
685.637	0.0148392
685.715	0.0147372
685.793	0.0148502
685.871	0.0149213
685.950	0.0149213
686.028	0.0148421
686.106	0.0148879
686.184	0.0149825
686.262	0.0150311
686.340	0.0149129
686.418	0.0149018
686.496	0.0149585
686.575	0.0149741
686.653	0.0149245
686.731	0.0149879
686.809	0.0150137
686.887	0.0150522
686.965	0.0149815
687.043	0.0148725
687.121	0.0149212
687.200	0.0148814
687.278	0.0148059
687.356	0.0148038
687.434	0.0149241
687.512	0.0148743
687.590	0.0148208
687.668	0.0147952
687.746	0.0148799
687.825	0.0147615
687.903	0.0146915
687.981	0.0147894
688.059	0.0147763
688.137	0.0147564
688.215	0.0147594
688.293	0.0148540
688.371	0.0147942
688.450	0.0148621
688.528	0.0149014
688.606	0.0151200
688.684	0.0150451
688.762	0.0149470
688.840	0.0148509
688.918	0.0149352
688.996	0.0149023
689.075	0.0147679
689.153	0.0148418
689.231	0.0149250
689.309	0.0148917
689.387	0.0148137
689.465	0.0147462
689.543	0.0147356
689.621	0.0147712
689.700	0.0147055
689.778	0.0147275
689.856	0.0147697
689.934	0.0147478
690.012	0.0147047
690.090	0.0146922
690.168	0.0149316
690.246	0.0149319
690.325	0.0148468
690.403	0.0148814
690.481	0.0149753
690.559	0.0149253
690.637	0.0149039
690.715	0.0149058
690.793	0.0148346
690.871	0.0148660
690.950	0.0147486
691.028	0.0147852
691.106	0.0147893
691.184	0.0146427
691.262	0.0145531
691.340	0.0146220
691.418	0.0144570
691.496	0.0143427
691.575	0.0146776
691.653	0.0147945
691.731	0.0145529
691.809	0.0148247
691.887	0.0148154
691.965	0.0150723
692.043	0.0149241
692.121	0.0151017
692.200	0.0149298
692.278	0.0149290
692.356	0.0148974
692.434	0.0149105
692.512	0.0149741
692.590	0.0149766
692.668	0.0148631
692.746	0.0147278
692.825	0.0147710
692.903	0.0145348
692.981	0.0144682
693.059	0.0143081
693.137	0.0142666
693.215	0.0141929
693.293	0.0143526
693.371	0.0142899
693.450	0.0144106
693.528	0.0145406
693.606	0.0148350
693.684	0.0148163
693.762	0.0149811
693.840	0.0150801
693.918	0.0151558
693.996	0.0152211
694.075	0.0152110
694.153	0.0152342
694.231	0.0151960
694.309	0.0152345
694.387	0.0153223
694.465	0.0150613
694.543	0.0150983
694.621	0.0150646
694.700	0.0148971
694.778	0.0149734
694.856	0.0148423
694.934	0.0145548
695.012	0.0146104
695.090	0.0143652
695.168	0.0143040
695.246	0.0144363
695.325	0.0144318
695.403	0.0143750
695.481	0.0145647
695.559	0.0147365
695.637	0.0147799
695.715	0.0149816
695.793	0.0150562
695.871	0.0149728
695.950	0.0151118
696.028	0.0149403
696.106	0.0148294
696.184	0.0149816
696.262	0.0149915
696.340	0.0147758
696.418	0.0148338
696.496	0.0147947
696.575	0.0148504
696.653	0.0150426
696.731	0.0149373
696.809	0.0149177
696.887	0.0150830
696.965	0.0151425
697.043	0.0151371
697.121	0.0151445
697.200	0.0150520
697.278	0.0149013
697.356	0.0148512
697.434	0.0147398
697.512	0.0147034
697.590	0.0146465
697.668	0.0145395
697.746	0.0143699
697.825	0.0143644
697.903	0.0144116
697.981	0.0142965
698.059	0.0144374
698.137	0.0145792
698.215	0.0146181
698.293	0.0148745
698.371	0.0150786
698.450	0.0152737
698.528	0.0153945
698.606	0.0154653
698.684	0.0154881
698.762	0.0154374
698.840	0.0154640
698.918	0.0153284
698.996	0.0151435
699.075	0.0148718
699.153	0.0145896
699.231	0.0143806
699.309	0.0143268
699.387	0.0142631
699.465	0.0142333
699.543	0.0140578
699.621	0.0140388
699.700	0.0141060
699.778	0.0144812
699.856	0.0146965
699.934	0.0147662
700.012	0.0150606
700.090	0.0152891
700.168	0.0153613
700.246	0.0155085
700.325	0.0156070
700.403	0.0155719
700.481	0.0155714
700.559	0.0155109
700.637	0.0153290
700.715	0.0153030
700.793	0.0151935
700.871	0.0150020
700.950	0.0147793
701.028	0.0146861
701.106	0.0144685
701.184	0.0143526
701.262	0.0141218
701.340	0.0140128
701.418	0.0141222
701.496	0.0141152
701.575	0.0142152
701.653	0.0141705
701.731	0.0143396
701.809	0.0144810
701.887	0.0146512
701.965	0.0148872
702.043	0.0149449
702.121	0.0151405
702.200	0.0154124
702.278	0.0154106
702.356	0.0156035
702.434	0.0157336
702.512	0.0159417
702.590	0.0159943
702.668	0.0158903
702.746	0.0158955
702.825	0.0156955
702.903	0.0153999
702.981	0.0153095
703.059	0.0149915
703.137	0.0146474
703.215	0.0144086
703.293	0.0140837
703.371	0.0138164
703.450	0.0136794
703.528	0.0135504
703.606	0.0136127
703.684	0.0136417
703.762	0.0137189
703.840	0.0140313
703.918	0.0143830
703.996	0.0146328
704.075	0.0149321
704.153	0.0152543
704.231	0.0155063
704.309	0.0157435
704.387	0.0158686
704.465	0.0161091
704.543	0.0161427
704.621	0.0163498
704.700	0.0159106
704.778	0.0157987
704.856	0.0154616
704.934	0.0153786
705.012	0.0151411
705.090	0.0147070
705.168	0.0144033
705.246	0.0141167
705.325	0.0139208
705.403	0.0136917
705.481	0.0137388
705.559	0.0136863
705.637	0.0137830
705.715	0.0138430
705.793	0.0139697
705.871	0.0142039
705.950	0.0142952
706.028	0.0145672
706.106	0.0148535
706.184	0.0149271
706.262	0.0150201
706.340	0.0151221
706.418	0.0152178
706.496	0.0151823
706.575	0.0153076
706.653	0.0153473
706.731	0.0152048
706.809	0.0152113
706.887	0.0150668
706.965	0.0149758
707.043	0.0149477
707.121	0.0147601
707.200	0.0147366
707.278	0.0146345
707.356	0.0145843
707.434	0.0145174
707.512	0.0145468
707.590	0.0146239
707.668	0.0146396
707.746	0.0146240
707.825	0.0147504
707.903	0.0148605
707.981	0.0147862
708.059	0.0146986
708.137	0.0148836
708.215	0.0148296
708.293	0.0149935
708.371	0.0148371
708.450	0.0148667
708.528	0.0150369
708.606	0.0149560
708.684	0.0150618
708.762	0.0150660
708.840	0.0151096
708.918	0.0152097
708.996	0.0151627
709.075	0.0150500
709.153	0.0150301
709.231	0.0148527
709.309	0.0148965
709.387	0.0147364
709.465	0.0147556
709.543	0.0146773
709.621	0.0146763
709.700	0.0147865
709.778	0.0147325
709.856	0.0146246
709.934	0.0147877
710.012	0.0147330
710.090	0.0148095
710.168	0.0150321
710.246	0.0151221
710.325	0.0151274
710.403	0.0150963
710.481	0.0151910
710.559	0.0150986
710.637	0.0151704
710.715	0.0150986
710.793	0.0150484
710.871	0.0149374
710.950	0.0148300
711.028	0.0147606
711.106	0.0146118
711.184	0.0145707
711.262	0.0144286
711.340	0.0143237
711.418	0.0142969
711.496	0.0143600
711.575	0.0141001
711.653	0.0143407
711.731	0.0144219
711.809	0.0146172
711.887	0.0146661
711.965	0.0147300
712.043	0.0147992
712.121	0.0149836
712.200	0.0151590
712.278	0.0153525
712.356	0.0154752
712.434	0.0153747
712.512	0.0154638
712.590	0.0153275
712.668	0.0153260
712.746	0.0151402
712.825	0.0150850
712.903	0.0149990
712.981	0.0147941
713.059	0.0146249
713.137	0.0145006
713.215	0.0143750
713.293	0.0143473
713.371	0.0142545
713.450	0.0140483
713.528	0.0143079
713.606	0.0140363
713.684	0.0141541
713.762	0.0142883
713.840	0.0143152
713.918	0.0143082
713.996	0.0144717
714.075	0.0147089
714.153	0.0148262
714.231	0.0148839
714.309	0.0149630
714.387	0.0150499
714.465	0.0153628
714.543	0.0152988
714.621	0.0152714
714.700	0.0152789
714.778	0.0153641
714.856	0.0153665
714.934	0.0154236
715.012	0.0153902
715.090	0.0155485
715.168	0.0154610
715.246	0.0155064
715.325	0.0152814
715.403	0.0151857
715.481	0.0151279
715.559	0.0149168
715.637	0.0146781
715.715	0.0144810
715.793	0.0143829
715.871	0.0141560
715.950	0.0141461
716.028	0.0140687
716.106	0.0142065
716.184	0.0140565
716.262	0.0139404
716.340	0.0142041
716.418	0.0144549
716.496	0.0148119
716.575	0.0148133
716.653	0.0150839
716.731	0.0152308
716.809	0.0153829
716.887	0.0154462
716.965	0.0155899
717.043	0.0157441
717.121	0.0156474
717.200	0.0157101
717.278	0.0155952
717.356	0.0155312
717.434	0.0154386
717.512	0.0153295
717.590	0.0151711
717.668	0.0148573
717.746	0.0147324
717.825	0.0148884
717.903	0.0147717
717.981	0.0144909
718.059	0.0146461
718.137	0.0145785
718.215	0.0145655
718.293	0.0145304
718.371	0.0146408
718.450	0.0145847
718.528	0.0147453
718.606	0.0148479
718.684	0.0148136
718.762	0.0149741
718.840	0.0150397
718.918	0.0149263
718.996	0.0149781
719.075	0.0149371
719.153	0.0150546
719.231	0.0152408
719.309	0.0149509
719.387	0.0150755
719.465	0.0151846
719.543	0.0150891
719.621	0.0149827
719.700	0.0149975
719.778	0.0147658
719.856	0.0145952
719.934	0.0146850
720.012	0.0145943
720.090	0.0143885
720.168	0.0143850
720.246	0.0143090
720.325	0.0142834
720.403	0.0142525
720.481	0.0143021
720.559	0.0143930
720.637	0.0144975
720.715	0.0145404
720.793	0.0146721
720.871	0.0145822
720.950	0.0148417
721.028	0.0149993
721.106	0.0149746
721.184	0.0151948
721.262	0.0152056
721.340	0.0152542
721.418	0.0153880
721.496	0.0152868
721.575	0.0153650
721.653	0.0154310
721.731	0.0152538
721.809	0.0151160
721.887	0.0151269
721.965	0.0150172
722.043	0.0149327
722.121	0.0146018
722.200	0.0145454
722.278	0.0144214
722.356	0.0144170
722.434	0.0143631
722.512	0.0143715
722.590	0.0144807
722.668	0.0142970
722.746	0.0143761
722.825	0.0144695
722.903	0.0146545
722.981	0.0147284
723.059	0.0148407
723.137	0.0149368
723.215	0.0149362
723.293	0.0151505
723.371	0.0153191
723.450	0.0151379
723.528	0.0153422
723.606	0.0152916
723.684	0.0151669
723.762	0.0151936
723.840	0.0150866
723.918	0.0148801
723.996	0.0148209
724.075	0.0148989
724.153	0.0147706
724.231	0.0146708
724.309	0.0146983
724.387	0.0144872
724.465	0.0146066
724.543	0.0146999
724.621	0.0146535
724.700	0.0146703
724.778	0.0147379
724.856	0.0149474
724.934	0.0147993
725.012	0.0149272
725.090	0.0149235
725.168	0.0148916
725.246	0.0149268
725.325	0.0149896
725.403	0.0150745
725.481	0.0150377
725.559	0.0150983
725.637	0.0149683
725.715	0.0150385
725.793	0.0148961
725.871	0.0150239
725.950	0.0148564
726.028	0.0149168
726.106	0.0149590
726.184	0.0148064
726.262	0.0147640
726.340	0.0149098
726.418	0.0149121
726.496	0.0149802
726.575	0.0148798
726.653	0.0147515
726.731	0.0147613
726.809	0.0148470
726.887	0.0149057
726.965	0.0147648
727.043	0.0146730
727.121	0.0145839
727.200	0.0146014
727.278	0.0145820
727.356	0.0145823
727.434	0.0144539
727.512	0.0143174
727.590	0.0144458
727.668	0.0144359
727.746	0.0143737
727.825	0.0145251
727.903	0.0144489
727.981	0.0144786
728.059	0.0145417
728.137	0.0145683
728.215	0.0146441
728.293	0.0148566
728.371	0.0148197
728.450	0.0149737
728.528	0.0150764
728.606	0.0152016
728.684	0.0152434
728.762	0.0153306
728.840	0.0152258
728.918	0.0151747
728.996	0.0152496
729.075	0.0151143
729.153	0.0151801
729.231	0.0151441
729.309	0.0151673
729.387	0.0149474
729.465	0.0148232
729.543	0.0148109
729.621	0.0145834
729.700	0.0147283
729.778	0.0144328
729.856	0.0143428
729.934	0.0144215
730.012	0.0143755
730.090	0.0144486
730.168	0.0145407
730.246	0.0144490
730.325	0.0144331
730.403	0.0145892
730.481	0.0146049
730.559	0.0148368
730.637	0.0148038
730.715	0.0148374
730.793	0.0150447
730.871	0.0149831
730.950	0.0150414
731.028	0.0150648
731.106	0.0150877
731.184	0.0151342
731.262	0.0150846
731.340	0.0149091
731.418	0.0149206
731.496	0.0149745
731.575	0.0149560
731.653	0.0149919
731.731	0.0147984
731.809	0.0147726
731.887	0.0148624
731.965	0.0148128
732.043	0.0147466
732.121	0.0147824
732.200	0.0147218
732.278	0.0146521
732.356	0.0145557
732.434	0.0146685
732.512	0.0145650
732.590	0.0145276
732.668	0.0147062
732.746	0.0146870
732.825	0.0145953
732.903	0.0147398
732.981	0.0148668
733.059	0.0150172
733.137	0.0150999
733.215	0.0150592
733.293	0.0150497
733.371	0.0150698
733.450	0.0150253
733.528	0.0151557
733.606	0.0149928
733.684	0.0150427
733.762	0.0150594
733.840	0.0151060
733.918	0.0149422
733.996	0.0149822
734.075	0.0149083
734.153	0.0148438
734.231	0.0147820
734.309	0.0147241
734.387	0.0147191
734.465	0.0146545
734.543	0.0147672
734.621	0.0145573
734.700	0.0144784
734.778	0.0145751
734.856	0.0145567
734.934	0.0145728
735.012	0.0144922
735.090	0.0146401
735.168	0.0148222
735.246	0.0147247
735.325	0.0147072
735.403	0.0147838
735.481	0.0147231
735.559	0.0148663
735.637	0.0148437
735.715	0.0149561
735.793	0.0150015
735.871	0.0150112
735.950	0.0150472
736.028	0.0149516
736.106	0.0152153
736.184	0.0151617
736.262	0.0151382
736.340	0.0150864
736.418	0.0150847
736.496	0.0151097
736.575	0.0149787
736.653	0.0148977
736.731	0.0149403
736.809	0.0148253
736.887	0.0145692
736.965	0.0148303
737.043	0.0147846
737.121	0.0146587
737.200	0.0145074
737.278	0.0144712
737.356	0.0145369
737.434	0.0145410
737.512	0.0146269
737.590	0.0145592
737.668	0.0145459
737.746	0.0147832
737.825	0.0148077
737.903	0.0147539
737.981	0.0149786
738.059	0.0149630
738.137	0.0150328
738.215	0.0151241
738.293	0.0151611
738.371	0.0151826
738.450	0.0150298
738.528	0.0152213
738.606	0.0152682
738.684	0.0151836
738.762	0.0153310
738.840	0.0151662
738.918	0.0152238
738.996	0.0150867
739.075	0.0150307
739.153	0.0149428
739.231	0.0148832
739.309	0.0148014
739.387	0.0147454
739.465	0.0146912
739.543	0.0147204
739.621	0.0146297
739.700	0.0146481
739.778	0.0146423
739.856	0.0145642
739.934	0.0146981
740.012	0.0146920
740.090	0.0146326
740.168	0.0145339
740.246	0.0146753
740.325	0.0148240
740.403	0.0147246
740.481	0.0148484
740.559	0.0149267
740.637	0.0150291
740.715	0.0151307
740.793	0.0152636
740.871	0.0151920
740.950	0.0152206
741.028	0.0152431
741.106	0.0151030
741.184	0.0151160
741.262	0.0152263
741.340	0.0151141
741.418	0.0149244
741.496	0.0149878
741.575	0.0148957
741.653	0.0148263
741.731	0.0147826
741.809	0.0148849
741.887	0.0145405
741.965	0.0145967
742.043	0.0145603
742.121	0.0145708
742.200	0.0145531
742.278	0.0145380
742.356	0.0146487
742.434	0.0146179
742.512	0.0146984
742.590	0.0149151
742.668	0.0150633
742.746	0.0149787
742.825	0.0149886
742.903	0.0152449
742.981	0.0151311
743.059	0.0152726
743.137	0.0152146
743.215	0.0150822
743.293	0.0151449
743.371	0.0151550
743.450	0.0152686
743.528	0.0150945
743.606	0.0149942
743.684	0.0149828
743.762	0.0148096
743.840	0.0148606
743.918	0.0147824
743.996	0.0146461
744.075	0.0146904
744.153	0.0145470
744.231	0.0146035
744.309	0.0144964
744.387	0.0145205
744.465	0.0144968
744.543	0.0145829
744.621	0.0146037
744.700	0.0144972
744.778	0.0146130
744.856	0.0146921
744.934	0.0145698
745.012	0.0147330
745.090	0.0146948
745.168	0.0148143
745.246	0.0149989
745.325	0.0149076
745.403	0.0149484
745.481	0.0150718
745.559	0.0149379
745.637	0.0150491
745.715	0.0150970
745.793	0.0151189
745.871	0.0151443
745.950	0.0149984
746.028	0.0150150
746.106	0.0150926
746.184	0.0151531
746.262	0.0151462
746.340	0.0150161
746.418	0.0149416
746.496	0.0148637
746.575	0.0148267
746.653	0.0148082
746.731	0.0148660
746.809	0.0148477
746.887	0.0147417
746.965	0.0147404
747.043	0.0146928
747.121	0.0146645
747.200	0.0145956
747.278	0.0144921
747.356	0.0145689
747.434	0.0145914
747.512	0.0146581
747.590	0.0144705
747.668	0.0145979
747.746	0.0145697
747.825	0.0146869
747.903	0.0146976
747.981	0.0146205
748.059	0.0146523
748.137	0.0147276
748.215	0.0147345
748.293	0.0146853
748.371	0.0147644
748.450	0.0148668
748.528	0.0147367
748.606	0.0147989
748.684	0.0146394
748.762	0.0147321
748.840	0.0145799
748.918	0.0147533
748.996	0.0147523
749.075	0.0148678
749.153	0.0147034
749.231	0.0147132
749.309	0.0147813
749.387	0.0147993
749.465	0.0145406
749.543	0.0147208
749.621	0.0147076
749.700	0.0148027
749.778	0.0149010
749.856	0.0148186
749.934	0.0148438
750.012	0.0149667
750.090	0.0148495
750.168	0.0149292
750.246	0.0149891
750.325	0.0150514
750.403	0.0148629
750.481	0.0149986
750.559	0.0149828
750.637	0.0150719
750.715	0.0150555
750.793	0.0151633
750.871	0.0149815
750.950	0.0149672
751.028	0.0149953
751.106	0.0150066
751.184	0.0149490
751.262	0.0149950
751.340	0.0149931
751.418	0.0148300
751.496	0.0148122
751.575	0.0147470
751.653	0.0147674
751.731	0.0147739
751.809	0.0147807
751.887	0.0147335
751.965	0.0146863
752.043	0.0147244
752.121	0.0147079
752.200	0.0148095
752.278	0.0147573
752.356	0.0147044
752.434	0.0146688
752.512	0.0148988
752.590	0.0148158
752.668	0.0148232
752.746	0.0148895
752.825	0.0148353
752.903	0.0149126
752.981	0.0148319
753.059	0.0149178
753.137	0.0149046
753.215	0.0149184
753.293	0.0150121
753.371	0.0150534
753.450	0.0150365
753.528	0.0149112
753.606	0.0150123
753.684	0.0149705
753.762	0.0148477
753.840	0.0150011
753.918	0.0150340
753.996	0.0150363
754.075	0.0149071
754.153	0.0148535
754.231	0.0147546
754.309	0.0149220
754.387	0.0148808
754.465	0.0148377
754.543	0.0147704
754.621	0.0147490
754.700	0.0148138
754.778	0.0146430
754.856	0.0148127
754.934	0.0148824
755.012	0.0148342
755.090	0.0148869
755.168	0.0148665
755.246	0.0148643
755.325	0.0149011
755.403	0.0148858
755.481	0.0148273
755.559	0.0147811
755.637	0.0149271
755.715	0.0149170
755.793	0.0148689
755.871	0.0147321
755.950	0.0148714
756.028	0.0149155
756.106	0.0147775
756.184	0.0148449
756.262	0.0148138
756.340	0.0148539
756.418	0.0148460
756.496	0.0148432
756.575	0.0147832
756.653	0.0147314
756.731	0.0146852
756.809	0.0146376
756.887	0.0147712
756.965	0.0146733
757.043	0.0148221
757.121	0.0148724
757.200	0.0147964
757.278	0.0147684
757.356	0.0148946
757.434	0.0148534
757.512	0.0147606
757.590	0.0149865
757.668	0.0149757
757.746	0.0149039
757.825	0.0149812
757.903	0.0149680
757.981	0.0151656
758.059	0.0151632
758.137	0.0149406
758.215	0.0149386
758.293	0.0150076
758.371	0.0150205
758.450	0.0150146
758.528	0.0149916
758.606	0.0150343
758.684	0.0149284
758.762	0.0148849
758.840	0.0149242
758.918	0.0149120
758.996	0.0148154
759.075	0.0149612
759.153	0.0147827
759.231	0.0148840
759.309	0.0148575
759.387	0.0149635
759.465	0.0149609
759.543	0.0149694
759.621	0.0149331
759.700	0.0149710
759.778	0.0148405
759.856	0.0148685
759.934	0.0149422
760.012	0.0150257
760.090	0.0148921
760.168	0.0149984
760.246	0.0149448
760.325	0.0149252
760.403	0.0150275
760.481	0.0151056
760.559	0.0149728
760.637	0.0150334
760.715	0.0149003
760.793	0.0151334
760.871	0.0151161
760.950	0.0150455
761.028	0.0151035
761.106	0.0150774
761.184	0.0150609
761.262	0.0150135
761.340	0.0149590
761.418	0.0149080
761.496	0.0148362
761.575	0.0148909
761.653	0.0151176
761.731	0.0148959
761.809	0.0148537
761.887	0.0149738
761.965	0.0148373
762.043	0.0146795
762.121	0.0147545
762.200	0.0148570
762.278	0.0148782
762.356	0.0147964
762.434	0.0147191
762.512	0.0146873
762.590	0.0150146
762.668	0.0149469
762.746	0.0148843
762.825	0.0147548
762.903	0.0146947
762.981	0.0148956
763.059	0.0148048
763.137	0.0147792
763.215	0.0148559
763.293	0.0148973
763.371	0.0148280
763.450	0.0149142
763.528	0.0149385
763.606	0.0149888
763.684	0.0149146
763.762	0.0148112
763.840	0.0148827
763.918	0.0149642
763.996	0.0149185
764.075	0.0149009
764.153	0.0149651
764.231	0.0149625
764.309	0.0148857
764.387	0.0149086
764.465	0.0149576
764.543	0.0148064
764.621	0.0147867
764.700	0.0147428
764.778	0.0147627
764.856	0.0147577
764.934	0.0148368
765.012	0.0147494
765.090	0.0148230
765.168	0.0148140
765.246	0.0147952
765.325	0.0149147
765.403	0.0148917
765.481	0.0148250
765.559	0.0149559
765.637	0.0147325
765.715	0.0148669
765.793	0.0149704
765.871	0.0148598
765.950	0.0148257
766.028	0.0146725
766.106	0.0148464
766.184	0.0148743
766.262	0.0149613
766.340	0.0148293
766.418	0.0148032
766.496	0.0147679
766.575	0.0147884
766.653	0.0148746
766.731	0.0149389
766.809	0.0147916
766.887	0.0148555
766.965	0.0148314
767.043	0.0146132
767.121	0.0148389
767.200	0.0147675
767.278	0.0147839
767.356	0.0148973
767.434	0.0148321
767.512	0.0147876
767.590	0.0148721
767.668	0.0148870
767.746	0.0148177
767.825	0.0148572
767.903	0.0149064
767.981	0.0150296
768.059	0.0149300
768.137	0.0148908
768.215	0.0150524
768.293	0.0149887
768.371	0.0148759
768.450	0.0148766
768.528	0.0147537
768.606	0.0149734
768.684	0.0148904
768.762	0.0148513
768.840	0.0147201
768.918	0.0148193
768.996	0.0147354
769.075	0.0148730
769.153	0.0147457
769.231	0.0147664
769.309	0.0148616
769.387	0.0147115
769.465	0.0146824
769.543	0.0146819
769.621	0.0148662
769.700	0.0147072
769.778	0.0146545
769.856	0.0147373
769.934	0.0148425
770.012	0.0147437
770.090	0.0147240
770.168	0.0146904
770.246	0.0146203
770.325	0.0146725
770.403	0.0145953
770.481	0.0146160
770.559	0.0147823
770.637	0.0147324
770.715	0.0145618
770.793	0.0146688
770.871	0.0149709
770.950	0.0149069
771.028	0.0148218
771.106	0.0148885
771.184	0.0150188
771.262	0.0148291
771.340	0.0147955
771.418	0.0149537
771.496	0.0149081
771.575	0.0148394
771.653	0.0147514
771.731	0.0148514
771.809	0.0148580
771.887	0.0149393
771.965	0.0147175
772.043	0.0150138
772.121	0.0149441
772.200	0.0147988
772.278	0.0149742
772.356	0.0149760
772.434	0.0147964
772.512	0.0149080
772.590	0.0147162
772.668	0.0148738
772.746	0.0149300
772.825	0.0147036
772.903	0.0149461
772.981	0.0149033
773.059	0.0149075
773.137	0.0148067
773.215	0.0148132
773.293	0.0148735
773.371	0.0146487
773.450	0.0148374
773.528	0.0147910
773.606	0.0148227
773.684	0.0149126
773.762	0.0147503
773.840	0.0147537
773.918	0.0147926
773.996	0.0148972
774.075	0.0148512
774.153	0.0147617
774.231	0.0148709
774.309	0.0147437
774.387	0.0147855
774.465	0.0147979
774.543	0.0149009
774.621	0.0147241
774.700	0.0147688
774.778	0.0146108
774.856	0.0148278
774.934	0.0148814
775.012	0.0148626
775.090	0.0148721
775.168	0.0150450
775.246	0.0148962
775.325	0.0147618
775.403	0.0150234
775.481	0.0149786
775.559	0.0149036
775.637	0.0149763
775.715	0.0147836
775.793	0.0149528
775.871	0.0148608
775.950	0.0148379
776.028	0.0149998
776.106	0.0150395
776.184	0.0150816
776.262	0.0150460
776.340	0.0149425
776.418	0.0150705
776.496	0.0151065
776.575	0.0149853
776.653	0.0150197
776.731	0.0151308
776.809	0.0150314
776.887	0.0150896
776.965	0.0149056
777.043	0.0150064
777.121	0.0149286
777.200	0.0149193
777.278	0.0149166
777.356	0.0148567
777.434	0.0149476
777.512	0.0149083
777.590	0.0148820
777.668	0.0146873
777.746	0.0147795
777.825	0.0147974
777.903	0.0148959
777.981	0.0149224
778.059	0.0147027
778.137	0.0147502
778.215	0.0148927
778.293	0.0148590
778.371	0.0148381
778.450	0.0148231
778.528	0.0148505
778.606	0.0148390
778.684	0.0149146
778.762	0.0149526
778.840	0.0149533
778.918	0.0146992
778.996	0.0147104
779.075	0.0149076
779.153	0.0149304
779.231	0.0148642
779.309	0.0150047
779.387	0.0148879
779.465	0.0147824
779.543	0.0150304
779.621	0.0148932
779.700	0.0148441
779.778	0.0150246
779.856	0.0147966
779.934	0.0149030
780.012	0.0149526
780.090	0.0149493
780.168	0.0149854
780.246	0.0149277
780.325	0.0149030
780.403	0.0149332
780.481	0.0149869
780.559	0.0149760
780.637	0.0150447
780.715	0.0148662
780.793	0.0149222
780.871	0.0148822
780.950	0.0149372
781.028	0.0149008
781.106	0.0149243
781.184	0.0149379
781.262	0.0150838
781.340	0.0148329
781.418	0.0148722
781.496	0.0149044
781.575	0.0149767
781.653	0.0149858
781.731	0.0147343
781.809	0.0148244
781.887	0.0147787
781.965	0.0149477
782.043	0.0148301
782.121	0.0148817
782.200	0.0148058
782.278	0.0149066
782.356	0.0149155
782.434	0.0147361
782.512	0.0148226
782.590	0.0147841
782.668	0.0148324
782.746	0.0149181
782.825	0.0148229
782.903	0.0148851
782.981	0.0148705
783.059	0.0149030
783.137	0.0148682
783.215	0.0149129
783.293	0.0148298
783.371	0.0148096
783.450	0.0148109
783.528	0.0148595
783.606	0.0148010
783.684	0.0148642
783.762	0.0148708
783.840	0.0147485
783.918	0.0148919
783.996	0.0148952
784.075	0.0149940
784.153	0.0149679
784.231	0.0148730
784.309	0.0149744
784.387	0.0149235
784.465	0.0150171
784.543	0.0148623
784.621	0.0149922
784.700	0.0148934
784.778	0.0150465
784.856	0.0148830
784.934	0.0147672
785.012	0.0147028
785.090	0.0148446
785.168	0.0148257
785.246	0.0147794
785.325	0.0149660
785.403	0.0149577
785.481	0.0148559
785.559	0.0147428
785.637	0.0148547
785.715	0.0148785
785.793	0.0148566
785.871	0.0149297
785.950	0.0150086
786.028	0.0149723
786.106	0.0150075
786.184	0.0148114
786.262	0.0147913
786.340	0.0148155
786.418	0.0149680
786.496	0.0147463
786.575	0.0147968
786.653	0.0148435
786.731	0.0148468
786.809	0.0147381
786.887	0.0147276
786.965	0.0147073
787.043	0.0147450
787.121	0.0148485
787.200	0.0147881
787.278	0.0146717
787.356	0.0148226
787.434	0.0148357
787.512	0.0148267
787.590	0.0146970
787.668	0.0147054
787.746	0.0148112
787.825	0.0148666
787.903	0.0147758
787.981	0.0150211
788.059	0.0149152
788.137	0.0148576
788.215	0.0149804
788.293	0.0148118
788.371	0.0148595
788.450	0.0149522
788.528	0.0148615
788.606	0.0148418
788.684	0.0149786
788.762	0.0149255
788.840	0.0149190
788.918	0.0148115
788.996	0.0148410
789.075	0.0149245
789.153	0.0148083
789.231	0.0148180
789.309	0.0148111
789.387	0.0148553
789.465	0.0148814
789.543	0.0147977
789.621	0.0148423
789.700	0.0147837
789.778	0.0148544
789.856	0.0149505
789.934	0.0147993
790.012	0.0148022
790.090	0.0150294
790.168	0.0148640
790.246	0.0147777
790.325	0.0148785
790.403	0.0149536
790.481	0.0148354
790.559	0.0148866
790.637	0.0148888
790.715	0.0149569
790.793	0.0149467
790.871	0.0149202
790.950	0.0147462
791.028	0.0148843
791.106	0.0148664
791.184	0.0147698
791.262	0.0147474
791.340	0.0148361
791.418	0.0148396
791.496	0.0148867
791.575	0.0148400
791.653	0.0149129
791.731	0.0148630
791.809	0.0149091
791.887	0.0149144
791.965	0.0148365
792.043	0.0148225
792.121	0.0148409
792.200	0.0148291
792.278	0.0147346
792.356	0.0147532
792.434	0.0148009
792.512	0.0149249
792.590	0.0150520
792.668	0.0150331
792.746	0.0148199
792.825	0.0148827
792.903	0.0148438
792.981	0.0149924
793.059	0.0149612
793.137	0.0150410
793.215	0.0149355
793.293	0.0148473
793.371	0.0149048
793.450	0.0149741
793.528	0.0149597
793.606	0.0148923
793.684	0.0148489
793.762	0.0149055
793.840	0.0149590
793.918	0.0149118
793.996	0.0148030
794.075	0.0149068
794.153	0.0149712
794.231	0.0149174
794.309	0.0148826
794.387	0.0149569
794.465	0.0148013
794.543	0.0149173
794.621	0.0148582
794.700	0.0148885
794.778	0.0149107
794.856	0.0148965
794.934	0.0149841
795.012	0.0148456
795.090	0.0148803
795.168	0.0148877
795.246	0.0147997
795.325	0.0147826
795.403	0.0148192
795.481	0.0148729
795.559	0.0147959
795.637	0.0147549
795.715	0.0147421
795.793	0.0146800
795.871	0.0148187
795.950	0.0147410
796.028	0.0147823
796.106	0.0146275
796.184	0.0147358
796.262	0.0146519
796.340	0.0146892
796.418	0.0147912
796.496	0.0148296
796.575	0.0147182
796.653	0.0148629
796.731	0.0147587
796.809	0.0147786
796.887	0.0148307
796.965	0.0149187
797.043	0.0148299
797.121	0.0148295
797.200	0.0148518
797.278	0.0147270
797.356	0.0147247
797.434	0.0147744
797.512	0.0149435
797.590	0.0148059
797.668	0.0146783
797.746	0.0147520
797.825	0.0148904
797.903	0.0148212
797.981	0.0148292
798.059	0.0148272
798.137	0.0149210
798.215	0.0148615
798.293	0.0150044
798.371	0.0148250
798.450	0.0149163
798.528	0.0149730
798.606	0.0149712
798.684	0.0149331
798.762	0.0149126
798.840	0.0148947
798.918	0.0150018
798.996	0.0149882
799.075	0.0149971
799.153	0.0148271
799.231	0.0149024
799.309	0.0148531
799.387	0.0148421
799.465	0.0148376
799.543	0.0148495
799.621	0.0149468
799.700	0.0148941
799.778	0.0149384
799.856	0.0148615
799.934	0.0148859
800.012	0.0149192
800.090	0.0149120
800.168	0.0149798
800.246	0.0147626
800.325	0.0148058
800.403	0.0148993
800.481	0.0148913
800.559	0.0148961
800.637	0.0148590
800.715	0.0148502
800.793	0.0148041
800.871	0.0149379
800.950	0.0149160
801.028	0.0148741
801.106	0.0148582
801.184	0.0148355
801.262	0.0149285
801.340	0.0149313
801.418	0.0148311
801.496	0.0147640
801.575	0.0147874
801.653	0.0148217
801.731	0.0148001
801.809	0.0147234
801.887	0.0147293
801.965	0.0147729
802.043	0.0148411
802.121	0.0148260
802.200	0.0147899
802.278	0.0146571
802.356	0.0147607
802.434	0.0149870
802.512	0.0149271
802.590	0.0149368
802.668	0.0148693
802.746	0.0149546
802.825	0.0149065
802.903	0.0147831
802.981	0.0148543
803.059	0.0148727
803.137	0.0149648
803.215	0.0151308
803.293	0.0150185
803.371	0.0149488
803.450	0.0147704
803.528	0.0149746
803.606	0.0148112
803.684	0.0149506
803.762	0.0149629
803.840	0.0148254
803.918	0.0149929
803.996	0.0148878
804.075	0.0148299
804.153	0.0147322
804.231	0.0148170
804.309	0.0147466
804.387	0.0147993
804.465	0.0147195
804.543	0.0149033
804.621	0.0146144
804.700	0.0147609
804.778	0.0148899
804.856	0.0149784
804.934	0.0148857
805.012	0.0148192
805.090	0.0149448
805.168	0.0148156
805.246	0.0149246
805.325	0.0148830
805.403	0.0149408
805.481	0.0149589
805.559	0.0149866
805.637	0.0148488
805.715	0.0148705
805.793	0.0149905
805.871	0.0149046
805.950	0.0150320
806.028	0.0150594
806.106	0.0147984
806.184	0.0149242
806.262	0.0149895
806.340	0.0150095
806.418	0.0148195
806.496	0.0148380
806.575	0.0149501
806.653	0.0148007
806.731	0.0149669
806.809	0.0148665
806.887	0.0147443
806.965	0.0149059
807.043	0.0147665
807.121	0.0150047
807.200	0.0149019
807.278	0.0148077
807.356	0.0148554
807.434	0.0149037
807.512	0.0149398
807.590	0.0147966
807.668	0.0150682
807.746	0.0149287
807.825	0.0148368
807.903	0.0149123
807.981	0.0149940
808.059	0.0148722
808.137	0.0149382
808.215	0.0149464
808.293	0.0148521
808.371	0.0147998
808.450	0.0148962
808.528	0.0148119
808.606	0.0150975
808.684	0.0149339
808.762	0.0148335
808.840	0.0148711
808.918	0.0149220
808.996	0.0150273
809.075	0.0149623
809.153	0.0149629
809.231	0.0149040
809.309	0.0150848
809.387	0.0149994
809.465	0.0147996
809.543	0.0148810
809.621	0.0149467
809.700	0.0149588
809.778	0.0146781
809.856	0.0147695
809.934	0.0148750
810.012	0.0148376
810.090	0.0147726
810.168	0.0148329
810.246	0.0147188
810.325	0.0147754
810.403	0.0147911
810.481	0.0146992
810.559	0.0146832
810.637	0.0145619
810.715	0.0147179
810.793	0.0147186
810.871	0.0148058
810.950	0.0147416
811.028	0.0147040
811.106	0.0147570
811.184	0.0147122
811.262	0.0149614
811.340	0.0148637
811.418	0.0147161
811.496	0.0146510
811.575	0.0147455
811.653	0.0148649
811.731	0.0147878
811.809	0.0147922
811.887	0.0148512
811.965	0.0147797
812.043	0.0147517
812.121	0.0148241
812.200	0.0147523
812.278	0.0147241
812.356	0.0147038
812.434	0.0146666
812.512	0.0145657
812.590	0.0146936
812.668	0.0147918
812.746	0.0148448
812.825	0.0147400
812.903	0.0146442
812.981	0.0147812
813.059	0.0147581
813.137	0.0147301
813.215	0.0147925
813.293	0.0148269
813.371	0.0147166
813.450	0.0146803
813.528	0.0148939
813.606	0.0148222
813.684	0.0149271
813.762	0.0147925
813.840	0.0148180
813.918	0.0149028
813.996	0.0148921
814.075	0.0149137
814.153	0.0149853
814.231	0.0149271
814.309	0.0148492
814.387	0.0148592
814.465	0.0148705
814.543	0.0148753
814.621	0.0149071
814.700	0.0150098
814.778	0.0149683
814.856	0.0148119
814.934	0.0149870
815.012	0.0148614
815.090	0.0149085
815.168	0.0148960
815.246	0.0149059
815.325	0.0149745
815.403	0.0148008
815.481	0.0148947
815.559	0.0150270
815.637	0.0149909
815.715	0.0148756
815.793	0.0149583
815.871	0.0149311
815.950	0.0147868
816.028	0.0147855
816.106	0.0147888
816.184	0.0148907
816.262	0.0149045
816.340	0.0150353
816.418	0.0149612
816.496	0.0147867
816.575	0.0148042
816.653	0.0148871
816.731	0.0148791
816.809	0.0148634
816.887	0.0148747
816.965	0.0149431
817.043	0.0149541
817.121	0.0149020
817.200	0.0149440
817.278	0.0148266
817.356	0.0149346
817.434	0.0148614
817.512	0.0149014
817.590	0.0150054
817.668	0.0149139
817.746	0.0147663
817.825	0.0147493
817.903	0.0148948
817.981	0.0147063
818.059	0.0148731
818.137	0.0150072
818.215	0.0148189
818.293	0.0147803
818.371	0.0148847
818.450	0.0148115
818.528	0.0148158
818.606	0.0147971
818.684	0.0147797
818.762	0.0148247
818.840	0.0147041
818.918	0.0148763
818.996	0.0149507
819.075	0.0148589
819.153	0.0149132
819.231	0.0148075
819.309	0.0148793
819.387	0.0149513
819.465	0.0150457
819.543	0.0148470
819.621	0.0148541
819.700	0.0149571
819.778	0.0147849
819.856	0.0148212
819.934	0.0149663
820.012	0.0149706
820.090	0.0149265
820.168	0.0148962
820.246	0.0147642
820.325	0.0148019
820.403	0.0148621
820.481	0.0147378
820.559	0.0148862
820.637	0.0147981
820.715	0.0147662
820.793	0.0149427
820.871	0.0147164
820.950	0.0148406
821.028	0.0148611
821.106	0.0147742
821.184	0.0149304
821.262	0.0149081
821.340	0.0148824
821.418	0.0150282
821.496	0.0150098
821.575	0.0149147
821.653	0.0150389
821.731	0.0148880
821.809	0.0149976
821.887	0.0150365
821.965	0.0149437
822.043	0.0149917
822.121	0.0148485
822.200	0.0148151
822.278	0.0148884
822.356	0.0148877
822.434	0.0148401
822.512	0.0148462
822.590	0.0147186
822.668	0.0149113
822.746	0.0147358
822.825	0.0147249
822.903	0.0146650
822.981	0.0146918
823.059	0.0147631
823.137	0.0148443
823.215	0.0149042
823.293	0.0148956
823.371	0.0147139
823.450	0.0148721
823.528	0.0149925
823.606	0.0148898
823.684	0.0149374
823.762	0.0149364
823.840	0.0148281
823.918	0.0148038
823.996	0.0148315
824.075	0.0148141
824.153	0.0147594
824.231	0.0148331
824.309	0.0148740
824.387	0.0147878
824.465	0.0148596
824.543	0.0146159
824.621	0.0148631
824.700	0.0149160
824.778	0.0147426
824.856	0.0147160
824.934	0.0147221
825.012	0.0149430
825.090	0.0147758
825.168	0.0147115
825.246	0.0146239
825.325	0.0149170
825.403	0.0148075
825.481	0.0148444
825.559	0.0146851
825.637	0.0147684
825.715	0.0147020
825.793	0.0148631
825.871	0.0148805
825.950	0.0147925
826.028	0.0147377
826.106	0.0148000
826.184	0.0148279
826.262	0.0146640
826.340	0.0148644
826.418	0.0149522
826.496	0.0147672
826.575	0.0147363
826.653	0.0149580
826.731	0.0148117
826.809	0.0148495
826.887	0.0148540
826.965	0.0148538
827.043	0.0148981
827.121	0.0148155
827.200	0.0148973
827.278	0.0148849
827.356	0.0149229
827.434	0.0147729
827.512	0.0147688
827.590	0.0148841
827.668	0.0147429
827.746	0.0149612
827.825	0.0149276
827.903	0.0148207
827.981	0.0148482
828.059	0.0150235
828.137	0.0147569
828.215	0.0149426
828.293	0.0148560
828.371	0.0148675
828.450	0.0148637
828.528	0.0148689
828.606	0.0149052
828.684	0.0148686
828.762	0.0148840
828.840	0.0149080
828.918	0.0150615
828.996	0.0149335
829.075	0.0149474
829.153	0.0149384
829.231	0.0148746
829.309	0.0147701
829.387	0.0149672
829.465	0.0150426
829.543	0.0149893
829.621	0.0149969
829.700	0.0149039
829.778	0.0147751
829.856	0.0148780
829.934	0.0148791
830.012	0.0149031
830.090	0.0148573
830.168	0.0147044
830.246	0.0148109
830.325	0.0150646
830.403	0.0148489
830.481	0.0147352
830.559	0.0148536
830.637	0.0148708
830.715	0.0148428
830.793	0.0149180
830.871	0.0148003
830.950	0.0149374
831.028	0.0149140
831.106	0.0148403
831.184	0.0149363
831.262	0.0149481
831.340	0.0149108
831.418	0.0146718
831.496	0.0148727
831.575	0.0148212
831.653	0.0148165
831.731	0.0147842
831.809	0.0148745
831.887	0.0148618
831.965	0.0146634
832.043	0.0147241
832.121	0.0148357
832.200	0.0146582
832.278	0.0147295
832.356	0.0148223
832.434	0.0147991
832.512	0.0148644
832.590	0.0149203
832.668	0.0149206
832.746	0.0148351
832.825	0.0148217
832.903	0.0148011
832.981	0.0149671
833.059	0.0149619
833.137	0.0147742
833.215	0.0148182
833.293	0.0148427
833.371	0.0149188
833.450	0.0149093
833.528	0.0147933
833.606	0.0149753
833.684	0.0148142
833.762	0.0146498
833.840	0.0148601
833.918	0.0148224
833.996	0.0148576
834.075	0.0148067
834.153	0.0147462
834.231	0.0147482
834.309	0.0148611
834.387	0.0148474
834.465	0.0148435
834.543	0.0148818
834.621	0.0149373
834.700	0.0148510
834.778	0.0148241
834.856	0.0148780
834.934	0.0149587
835.012	0.0148497
835.090	0.0149245
835.168	0.0149719
835.246	0.0149593
835.325	0.0148755
835.403	0.0150056
835.481	0.0150260
835.559	0.0148908
835.637	0.0148249
835.715	0.0149027
835.793	0.0148891
835.871	0.0148872
835.950	0.0148803
836.028	0.0148057
836.106	0.0148997
836.184	0.0149360
836.262	0.0148682
836.340	0.0148473
836.418	0.0148125
836.496	0.0148666
836.575	0.0148611
836.653	0.0148968
836.731	0.0150766
836.809	0.0149728
836.887	0.0148407
836.965	0.0149542
837.043	0.0149517
837.121	0.0150021
837.200	0.0149216
837.278	0.0148521
837.356	0.0149129
837.434	0.0148734
837.512	0.0149023
837.590	0.0149208
837.668	0.0149689
837.746	0.0149756
837.825	0.0149532
837.903	0.0148803
837.981	0.0148971
838.059	0.0149036
838.137	0.0147739
838.215	0.0147096
838.293	0.0147562
838.371	0.0149213
838.450	0.0148803
838.528	0.0148692
838.606	0.0150765
838.684	0.0149099
838.762	0.0149940
838.840	0.0150481
838.918	0.0149277
838.996	0.0149787
839.075	0.0149403
839.153	0.0149589
839.231	0.0150267
839.309	0.0150081
839.387	0.0149179
839.465	0.0148483
839.543	0.0148523
839.621	0.0149863
839.700	0.0149673
839.778	0.0148244
839.856	0.0148914
839.934	0.0149290
840.012	0.0149174
840.090	0.0149715
840.168	0.0149220
840.246	0.0149173
840.325	0.0149589
840.403	0.0150091
840.481	0.0148035
840.559	0.0149192
840.637	0.0147623
840.715	0.0148937
840.793	0.0148081
840.871	0.0148544
840.950	0.0149271
841.028	0.0148975
841.106	0.0148127
841.184	0.0147466
841.262	0.0148312
841.340	0.0146812
841.418	0.0146985
841.496	0.0148828
841.575	0.0147391
841.653	0.0148771
841.731	0.0146655
841.809	0.0148170
841.887	0.0148545
841.965	0.0148782
842.043	0.0148086
842.121	0.0147358
842.200	0.0148615
842.278	0.0147903
842.356	0.0147822
842.434	0.0147907
842.512	0.0149039
842.590	0.0148356
842.668	0.0149203
842.746	0.0148675
842.825	0.0149565
842.903	0.0147895
842.981	0.0148562
843.059	0.0148508
843.137	0.0147832
843.215	0.0149174
843.293	0.0148086
843.371	0.0148011
843.450	0.0147715
843.528	0.0147470
843.606	0.0148267
843.684	0.0148254
843.762	0.0146917
843.840	0.0147543
843.918	0.0148035
843.996	0.0147195
844.075	0.0146906
844.153	0.0147043
844.231	0.0148162
844.309	0.0147482
844.387	0.0148299
844.465	0.0148011
844.543	0.0147840
844.621	0.0149361
844.700	0.0149110
844.778	0.0149094
844.856	0.0149268
844.934	0.0148706
845.012	0.0148818
845.090	0.0150409
845.168	0.0149218
845.246	0.0149249
845.325	0.0149539
845.403	0.0149500
845.481	0.0150195
845.559	0.0147379
845.637	0.0147633
845.715	0.0147857
845.793	0.0148354
845.871	0.0148165
845.950	0.0147031
846.028	0.0147881
846.106	0.0149529
846.184	0.0147710
846.262	0.0146374
846.340	0.0148273
846.418	0.0147965
846.496	0.0146971
846.575	0.0147483
846.653	0.0147350
846.731	0.0148395
846.809	0.0148031
846.887	0.0149745
846.965	0.0149023
847.043	0.0147876
847.121	0.0149870
847.200	0.0148099
847.278	0.0149106
847.356	0.0148666
847.434	0.0149874
847.512	0.0148315
847.590	0.0148719
847.668	0.0148842
847.746	0.0148557
847.825	0.0146548
847.903	0.0147518
847.981	0.0148129
848.059	0.0148222
848.137	0.0146857
848.215	0.0146746
848.293	0.0147987
848.371	0.0149287
848.450	0.0147691
848.528	0.0146223
848.606	0.0147194
848.684	0.0147578
848.762	0.0147545
848.840	0.0146574
848.918	0.0148315
848.996	0.0147986
849.075	0.0146656
849.153	0.0146078
849.231	0.0146650
849.309	0.0147432
849.387	0.0147592
849.465	0.0147932
849.543	0.0148365
849.621	0.0147673
849.700	0.0147907
849.778	0.0147997
849.856	0.0148734
849.934	0.0146906
850.012	0.0147791
850.090	0.0147427
850.168	0.0149075
850.246	0.0148705
850.325	0.0149587
850.403	0.0149389
850.481	0.0148608
850.559	0.0148373
850.637	0.0147658
850.715	0.0148519
850.793	0.0148830
850.871	0.0148529
850.950	0.0148437
851.028	0.0148364
851.106	0.0148692
851.184	0.0149464
851.262	0.0148621
851.340	0.0148988
851.418	0.0149931
851.496	0.0147301
851.575	0.0148756
851.653	0.0149451
851.731	0.0148748
851.809	0.0147899
851.887	0.0148550
851.965	0.0146950
852.043	0.0149519
852.121	0.0149174
852.200	0.0148649
852.278	0.0150075
852.356	0.0148835
852.434	0.0147789
852.512	0.0148019
852.590	0.0148453
852.668	0.0148739
852.746	0.0150157
852.825	0.0149940
852.903	0.0149585
852.981	0.0148708
853.059	0.0150150
853.137	0.0150465
853.215	0.0150316
853.293	0.0149738
853.371	0.0150798
853.450	0.0148595
853.528	0.0148675
853.606	0.0149809
853.684	0.0148914
853.762	0.0149035
853.840	0.0146684
853.918	0.0148352
853.996	0.0148967
854.075	0.0147472
854.153	0.0147552
854.231	0.0148289
854.309	0.0149399
854.387	0.0148753
854.465	0.0147517
854.543	0.0148038
854.621	0.0147044
854.700	0.0148212
854.778	0.0147491
854.856	0.0148024
854.934	0.0150517
855.012	0.0150408
855.090	0.0149412
855.168	0.0149606
855.246	0.0149524
855.325	0.0148795
855.403	0.0149574
855.481	0.0150103
855.559	0.0150290
855.637	0.0150239
855.715	0.0150237
855.793	0.0151250
855.871	0.0150374
855.950	0.0150957
856.028	0.0149754
856.106	0.0151010
856.184	0.0149467
856.262	0.0150311
856.340	0.0149879
856.418	0.0147614
856.496	0.0148801
856.575	0.0149944
856.653	0.0148725
856.731	0.0149167
856.809	0.0149534
856.887	0.0150188
856.965	0.0150075
857.043	0.0150172
857.121	0.0149672
857.200	0.0148402
857.278	0.0148447
857.356	0.0147909
857.434	0.0147442
857.512	0.0147956
857.590	0.0150333
857.668	0.0147976
857.746	0.0148808
857.825	0.0148791
857.903	0.0148017
857.981	0.0149099
858.059	0.0149940
858.137	0.0148901
858.215	0.0147617
858.293	0.0148222
858.371	0.0149075
858.450	0.0148589
858.528	0.0149725
858.606	0.0147784
858.684	0.0149960
858.762	0.0149065
858.840	0.0148735
858.918	0.0149257
858.996	0.0149488
859.075	0.0150590
859.153	0.0147806
859.231	0.0148029
859.309	0.0148694
859.387	0.0149290
859.465	0.0147908
859.543	0.0148576
859.621	0.0148431
859.700	0.0149108
859.778	0.0149342
859.856	0.0147693
859.934	0.0147713
860.012	0.0147665
860.090	0.0147229
860.168	0.0147865
860.246	0.0148282
860.325	0.0149222
860.403	0.0149084
860.481	0.0148544
860.559	0.0148270
860.637	0.0148590
860.715	0.0149836
860.793	0.0148928
860.871	0.0149123
860.950	0.0147709
861.028	0.0149591
861.106	0.0149487
861.184	0.0150390
861.262	0.0150482
861.340	0.0149158
861.418	0.0148923
861.496	0.0150404
861.575	0.0149545
861.653	0.0149467
861.731	0.0149192
861.809	0.0149915
861.887	0.0150259
861.965	0.0150335
862.043	0.0148409
862.121	0.0148707
862.200	0.0149226
862.278	0.0148375
862.356	0.0147501
862.434	0.0148817
862.512	0.0150516
862.590	0.0148855
862.668	0.0148444
862.746	0.0147597
862.825	0.0148869
862.903	0.0149400
862.981	0.0148109
863.059	0.0149678
863.137	0.0149219
863.215	0.0147463
863.293	0.0147868
863.371	0.0147668
863.450	0.0150131
863.528	0.0149856
863.606	0.0148962
863.684	0.0148468
863.762	0.0149569
863.840	0.0148790
863.918	0.0148997
863.996	0.0149656
864.075	0.0149558
864.153	0.0149337
864.231	0.0149905
864.309	0.0149921
864.387	0.0150740
864.465	0.0150053
864.543	0.0147713
864.621	0.0148818
864.700	0.0149653
864.778	0.0148482
864.856	0.0150467
864.934	0.0149797
865.012	0.0148913
865.090	0.0148535
865.168	0.0150475
865.246	0.0148544
865.325	0.0148678
865.403	0.0149206
865.481	0.0147851
865.559	0.0148267
865.637	0.0149031
865.715	0.0147805
865.793	0.0147971
865.871	0.0148108
865.950	0.0147725
866.028	0.0147809
866.106	0.0148077
866.184	0.0147002
866.262	0.0147057
866.340	0.0148632
866.418	0.0148177
866.496	0.0147705
866.575	0.0149466
866.653	0.0148249
866.731	0.0148525
866.809	0.0147891
866.887	0.0149001
866.965	0.0149144
867.043	0.0148180
867.121	0.0148805
867.200	0.0147630
867.278	0.0149045
867.356	0.0149840
867.434	0.0148875
867.512	0.0148712
867.590	0.0149695
867.668	0.0148083
867.746	0.0150233
867.825	0.0150335
867.903	0.0150178
867.981	0.0149777
868.059	0.0148285
868.137	0.0148354
868.215	0.0148788
868.293	0.0148931
868.371	0.0149090
868.450	0.0149023
868.528	0.0149300
868.606	0.0148299
868.684	0.0147960
868.762	0.0149007
868.840	0.0148730
868.918	0.0150269
868.996	0.0149348
869.075	0.0148412
869.153	0.0148016
869.231	0.0147546
869.309	0.0149049
869.387	0.0149281
869.465	0.0148237
869.543	0.0147478
869.621	0.0148947
869.700	0.0148509
869.778	0.0148959
869.856	0.0148299
869.934	0.0148366
870.012	0.0149356
870.090	0.0148109
870.168	0.0147013
870.246	0.0149108
870.325	0.0149744
870.403	0.0147949
870.481	0.0147661
870.559	0.0149564
870.637	0.0148089
870.715	0.0149159
870.793	0.0148714
870.871	0.0149152
870.950	0.0148868
871.028	0.0147253
871.106	0.0149461
871.184	0.0148137
871.262	0.0148393
871.340	0.0148940
871.418	0.0149448
871.496	0.0148611
871.575	0.0146553
871.653	0.0148040
871.731	0.0148866
871.809	0.0148476
871.887	0.0147085
871.965	0.0147086
872.043	0.0148334
872.121	0.0147568
872.200	0.0147948
872.278	0.0147709
872.356	0.0148109
872.434	0.0148464
872.512	0.0147247
872.590	0.0148233
872.668	0.0148368
872.746	0.0147937
872.825	0.0146835
872.903	0.0148786
872.981	0.0148971
873.059	0.0146966
873.137	0.0147859
873.215	0.0148003
873.293	0.0148813
873.371	0.0148982
873.450	0.0147463
873.528	0.0147736
873.606	0.0147105
873.684	0.0146792
873.762	0.0146925
873.840	0.0147543
873.918	0.0146481
873.996	0.0146714
874.075	0.0147654
874.153	0.0147532
874.231	0.0145958
874.309	0.0146861
874.387	0.0148036
874.465	0.0147509
874.543	0.0147266
874.621	0.0147478
874.700	0.0147108
874.778	0.0148595
874.856	0.0147966
874.934	0.0146881
875.012	0.0147491
875.090	0.0147343
875.168	0.0147473
875.246	0.0147480
875.325	0.0146761
875.403	0.0147040
875.481	0.0148222
875.559	0.0146944
875.637	0.0147145
875.715	0.0147104
875.793	0.0147468
875.871	0.0147798
875.950	0.0148547
876.028	0.0147776
876.106	0.0148443
876.184	0.0148569
876.262	0.0150034
876.340	0.0148880
876.418	0.0147672
876.496	0.0147977
876.575	0.0147698
876.653	0.0148885
876.731	0.0150034
876.809	0.0149254
876.887	0.0148482
876.965	0.0148884
877.043	0.0150002
877.121	0.0149210
877.200	0.0149840
877.278	0.0150204
877.356	0.0149302
877.434	0.0149756
877.512	0.0150832
877.590	0.0149702
877.668	0.0148734
877.746	0.0148279
877.825	0.0149313
877.903	0.0149715
877.981	0.0149442
878.059	0.0149213
878.137	0.0148428
878.215	0.0149621
878.293	0.0149058
878.371	0.0147190
878.450	0.0148404
878.528	0.0148528
878.606	0.0147880
878.684	0.0148477
878.762	0.0149048
878.840	0.0149787
878.918	0.0149524
878.996	0.0149356
879.075	0.0149738
879.153	0.0148674
879.231	0.0147697
879.309	0.0147858
879.387	0.0146030
879.465	0.0148254
879.543	0.0149682
879.621	0.0146162
879.700	0.0148722
879.778	0.0148991
879.856	0.0148534
879.934	0.0148384
880.012	0.0149926
880.090	0.0148717
880.168	0.0149505
880.246	0.0147297
880.325	0.0149549
880.403	0.0149849
880.481	0.0147778
880.559	0.0148335
880.637	0.0147689
880.715	0.0150372
880.793	0.0148793
880.871	0.0148205
880.950	0.0149840
881.028	0.0149224
881.106	0.0147915
881.184	0.0150185
881.262	0.0149445
881.340	0.0147368
881.418	0.0149684
881.496	0.0149728
881.575	0.0148487
881.653	0.0149547
881.731	0.0148682
881.809	0.0150327
881.887	0.0149013
881.965	0.0149261
882.043	0.0152137
882.121	0.0149432
882.200	0.0150317
882.278	0.0149839
882.356	0.0148701
882.434	0.0148805
882.512	0.0148567
882.590	0.0147758
882.668	0.0149212
882.746	0.0147433
882.825	0.0147782
882.903	0.0149789
882.981	0.0147958
883.059	0.0148576
883.137	0.0148516
883.215	0.0148833
883.293	0.0148565
883.371	0.0148526
883.450	0.0149449
883.528	0.0149802
883.606	0.0149576
883.684	0.0149783
883.762	0.0150115
883.840	0.0149552
883.918	0.0150014
883.996	0.0150175
884.075	0.0149831
884.153	0.0149950
884.231	0.0150513
884.309	0.0150382
884.387	0.0149747
884.465	0.0149887
884.543	0.0148581
884.621	0.0148714
884.700	0.0148307
884.778	0.0149084
884.856	0.0149875
884.934	0.0149094
885.012	0.0148319
885.090	0.0148708
885.168	0.0148260
885.246	0.0147206
885.325	0.0148308
885.403	0.0148178
885.481	0.0149281
885.559	0.0149790
885.637	0.0148044
885.715	0.0148293
885.793	0.0149416
885.871	0.0150130
885.950	0.0148816
886.028	0.0149016
886.106	0.0148958
886.184	0.0149475
886.262	0.0149741
886.340	0.0148650
886.418	0.0149240
886.496	0.0149592
886.575	0.0148548
886.653	0.0147861
886.731	0.0147828
886.809	0.0149456
886.887	0.0149042
886.965	0.0149283
887.043	0.0149741
887.121	0.0149276
887.200	0.0148374
887.278	0.0148292
887.356	0.0149693
887.434	0.0148508
887.512	0.0150448
887.590	0.0149709
887.668	0.0148180
887.746	0.0149812
887.825	0.0151130
887.903	0.0149210
887.981	0.0148878
888.059	0.0149224
888.137	0.0149657
888.215	0.0149080
888.293	0.0148562
888.371	0.0148849
888.450	0.0149714
888.528	0.0150350
888.606	0.0149118
888.684	0.0148257
888.762	0.0146767
888.840	0.0147932
888.918	0.0148058
888.996	0.0147527
889.075	0.0147978
889.153	0.0147588
889.231	0.0146681
889.309	0.0147131
889.387	0.0146465
889.465	0.0146337
889.543	0.0147748
889.621	0.0148110
889.700	0.0148544
889.778	0.0148745
889.856	0.0147354
889.934	0.0148251
890.012	0.0148112
890.090	0.0149197
890.168	0.0149683
890.246	0.0148429
890.325	0.0149247
890.403	0.0149748
890.481	0.0150722
890.559	0.0148547
890.637	0.0149043
890.715	0.0148278
890.793	0.0147742
890.871	0.0147103
890.950	0.0147925
891.028	0.0147649
891.106	0.0147218
891.184	0.0145404
891.262	0.0146610
891.340	0.0147031
891.418	0.0147459
891.496	0.0146313
891.575	0.0146642
891.653	0.0148940
891.731	0.0148792
891.809	0.0149223
891.887	0.0149023
891.965	0.0150504
892.043	0.0150659
892.121	0.0148774
892.200	0.0149275
892.278	0.0147879
892.356	0.0147572
892.434	0.0150002
892.512	0.0149149
892.590	0.0150227
892.668	0.0149178
892.746	0.0147684
892.825	0.0147038
892.903	0.0147180
892.981	0.0147879
893.059	0.0146625
893.137	0.0147353
893.215	0.0147600
893.293	0.0147082
893.371	0.0148102
893.450	0.0147658
893.528	0.0148831
893.606	0.0147323
893.684	0.0148334
893.762	0.0149206
893.840	0.0149000
893.918	0.0147881
893.996	0.0149317
894.075	0.0148210
894.153	0.0149157
894.231	0.0148761
894.309	0.0148814
894.387	0.0147912
894.465	0.0149095
894.543	0.0149432
894.621	0.0148913
894.700	0.0148241
894.778	0.0147690
894.856	0.0146819
894.934	0.0147117
895.012	0.0145770
895.090	0.0146319
895.168	0.0145922
895.246	0.0147220
895.325	0.0147247
895.403	0.0146996
895.481	0.0146460
895.559	0.0145580
895.637	0.0147681
895.715	0.0148553
895.793	0.0149707
895.871	0.0147799
895.950	0.0149736
896.028	0.0149978
896.106	0.0149384
896.184	0.0149640
896.262	0.0150808
896.340	0.0150500
896.418	0.0149082
896.496	0.0149255
896.575	0.0148757
896.653	0.0148798
896.731	0.0148147
896.809	0.0147124
896.887	0.0147581
896.965	0.0147521
897.043	0.0145775
897.121	0.0146818
897.200	0.0147281
897.278	0.0146645
897.356	0.0146365
897.434	0.0146983
897.512	0.0145638
897.590	0.0146976
897.668	0.0147398
897.746	0.0148703
897.825	0.0147174
897.903	0.0148080
897.981	0.0148147
898.059	0.0148351
898.137	0.0148978
898.215	0.0149065
898.293	0.0147881
898.371	0.0147424
898.450	0.0148125
898.528	0.0149428
898.606	0.0149664
898.684	0.0149505
898.762	0.0149006
898.840	0.0147674
898.918	0.0150376
898.996	0.0148981
899.075	0.0147215
899.153	0.0149052
899.231	0.0148040
899.309	0.0146838
899.387	0.0147771
899.465	0.0147292
899.543	0.0147417
899.621	0.0146998
899.700	0.0147108
899.778	0.0148205
899.856	0.0147829
899.934	0.0148321
900.012	0.0147172
900.090	0.0149364
900.168	0.0147617
900.246	0.0149777
900.325	0.0149074
900.403	0.0148265
900.481	0.0148813
900.559	0.0149103
900.637	0.0148894
900.715	0.0148940
900.793	0.0149650
900.871	0.0149638
900.950	0.0148862
901.028	0.0149341
901.106	0.0149032
901.184	0.0147814
901.262	0.0147130
901.340	0.0148234
901.418	0.0147781
901.496	0.0147076
901.575	0.0147574
901.653	0.0148907
901.731	0.0148750
901.809	0.0149617
901.887	0.0149287
901.965	0.0149802
902.043	0.0149068
902.121	0.0150177
902.200	0.0149698
902.278	0.0149800
902.356	0.0148817
902.434	0.0148712
902.512	0.0148444
902.590	0.0149880
902.668	0.0150031
902.746	0.0149812
902.825	0.0149438
902.903	0.0148235
902.981	0.0150050
903.059	0.0149626
903.137	0.0148798
903.215	0.0148338
903.293	0.0147632
903.371	0.0148734
903.450	0.0147585
903.528	0.0149103
903.606	0.0148672
903.684	0.0149429
903.762	0.0149538
903.840	0.0149871
903.918	0.0150573
903.996	0.0149490
904.075	0.0148521
904.153	0.0150079
904.231	0.0149765
904.309	0.0149367
904.387	0.0149435
904.465	0.0149345
904.543	0.0149951
904.621	0.0149133
904.700	0.0148260
904.778	0.0150720
904.856	0.0147724
904.934	0.0148741
905.012	0.0148486
905.090	0.0149725
905.168	0.0148829
905.246	0.0148709
905.325	0.0147902
905.403	0.0148213
905.481	0.0150610
905.559	0.0149558
905.637	0.0149064
905.715	0.0148764
905.793	0.0148606
905.871	0.0148260
905.950	0.0149469
906.028	0.0148656
906.106	0.0149352
906.184	0.0148692
906.262	0.0149575
906.340	0.0150118
906.418	0.0150482
906.496	0.0148608
906.575	0.0149994
906.653	0.0150163
906.731	0.0150249
906.809	0.0149459
906.887	0.0148445
906.965	0.0148441
907.043	0.0149706
907.121	0.0150307
907.200	0.0150559
907.278	0.0148640
907.356	0.0150247
907.434	0.0148383
907.512	0.0147360
907.590	0.0148453
907.668	0.0147338
907.746	0.0148740
907.825	0.0149122
907.903	0.0147845
907.981	0.0148862
908.059	0.0147810
908.137	0.0148302
908.215	0.0148582
908.293	0.0148936
908.371	0.0149815
908.450	0.0148990
908.528	0.0148241
908.606	0.0149133
908.684	0.0148429
908.762	0.0149725
908.840	0.0149154
908.918	0.0150260
908.996	0.0148715
909.075	0.0148112
909.153	0.0147759
909.231	0.0148167
909.309	0.0147888
909.387	0.0147765
909.465	0.0147272
909.543	0.0147478
909.621	0.0147390
909.700	0.0147285
909.778	0.0148284
909.856	0.0147327
909.934	0.0147512
910.012	0.0147490
910.090	0.0146855
910.168	0.0148992
910.246	0.0146069
910.325	0.0147879
910.403	0.0148601
910.481	0.0148986
910.559	0.0147166
910.637	0.0149254
910.715	0.0149831
910.793	0.0149726
910.871	0.0149982
910.950	0.0148962
911.028	0.0147684
911.106	0.0147853
911.184	0.0148026
911.262	0.0148895
911.340	0.0147016
911.418	0.0147809
911.496	0.0147713
911.575	0.0149147
911.653	0.0147730
911.731	0.0146009
911.809	0.0147537
911.887	0.0148199
911.965	0.0147784
912.043	0.0147494
912.121	0.0148735
912.200	0.0147613
912.278	0.0147643
912.356	0.0149555
912.434	0.0148333
912.512	0.0148306
912.590	0.0149129
912.668	0.0149928
912.746	0.0148644
912.825	0.0149223
912.903	0.0149089
912.981	0.0148430
913.059	0.0149420
913.137	0.0149429
913.215	0.0148371
913.293	0.0149063
913.371	0.0149137
913.450	0.0150003
913.528	0.0148327
913.606	0.0147577
913.684	0.0148302
913.762	0.0149126
913.840	0.0149738
913.918	0.0147552
913.996	0.0147192
914.075	0.0148149
914.153	0.0148214
914.231	0.0147720
914.309	0.0146883
914.387	0.0147424
914.465	0.0148099
914.543	0.0147709
914.621	0.0149039
914.700	0.0148531
914.778	0.0148609
914.856	0.0149323
914.934	0.0149441
915.012	0.0148117
915.090	0.0148768
915.168	0.0149023
915.246	0.0147923
915.325	0.0148708
915.403	0.0148943
915.481	0.0149200
915.559	0.0147868
915.637	0.0149394
915.715	0.0149038
915.793	0.0147397
915.871	0.0147822
915.950	0.0148553
916.028	0.0148492
916.106	0.0147742
916.184	0.0147899
916.262	0.0149493
916.340	0.0147457
916.418	0.0148306
916.496	0.0148022
916.575	0.0149204
916.653	0.0148994
916.731	0.0147652
916.809	0.0147922
916.887	0.0148035
916.965	0.0146281
917.043	0.0148063
917.121	0.0147086
917.200	0.0146747
917.278	0.0148414
917.356	0.0147384
917.434	0.0146558
917.512	0.0146752
917.590	0.0146725
917.668	0.0147181
917.746	0.0147755
917.825	0.0147625
917.903	0.0147908
917.981	0.0146911
918.059	0.0149604
918.137	0.0147925
918.215	0.0148383
918.293	0.0148807
918.371	0.0148401
918.450	0.0147906
918.528	0.0148879
918.606	0.0148489
918.684	0.0149213
918.762	0.0148525
918.840	0.0148058
918.918	0.0148521
918.996	0.0147975
919.075	0.0146985
919.153	0.0147215
919.231	0.0148354
919.309	0.0147506
919.387	0.0147109
919.465	0.0148573
919.543	0.0148776
919.621	0.0146610
919.700	0.0147517
919.778	0.0146694
919.856	0.0149679
919.934	0.0149374
920.012	0.0148389
920.090	0.0147505
920.168	0.0148367
920.246	0.0148460
920.325	0.0147544
920.403	0.0148775
920.481	0.0148940
920.559	0.0148956
920.637	0.0148370
920.715	0.0148541
920.793	0.0149143
920.871	0.0147722
920.950	0.0148505
921.028	0.0148345
921.106	0.0148450
921.184	0.0147723
921.262	0.0148924
921.340	0.0148186
921.418	0.0147929
921.496	0.0147535
921.575	0.0148810
921.653	0.0148080
921.731	0.0148806
921.809	0.0147511
921.887	0.0147859
921.965	0.0148541
922.043	0.0150116
922.121	0.0149908
922.200	0.0149125
922.278	0.0148599
922.356	0.0149578
922.434	0.0148733
922.512	0.0148116
922.590	0.0148982
922.668	0.0148660
922.746	0.0149617
922.825	0.0147664
922.903	0.0147740
922.981	0.0149406
923.059	0.0148816
923.137	0.0147518
923.215	0.0148494
923.293	0.0148206
923.371	0.0148847
923.450	0.0149154
923.528	0.0147774
923.606	0.0149144
923.684	0.0148148
923.762	0.0148009
923.840	0.0148698
923.918	0.0149339
923.996	0.0147802
924.075	0.0149296
924.153	0.0148442
924.231	0.0149994
924.309	0.0148052
924.387	0.0150204
924.465	0.0149709
924.543	0.0149014
924.621	0.0149758
924.700	0.0148283
924.778	0.0149341
924.856	0.0149815
924.934	0.0148520
925.012	0.0148847
925.090	0.0149212
925.168	0.0149818
925.246	0.0148556
925.325	0.0149512
925.403	0.0149622
925.481	0.0148824
925.559	0.0147059
925.637	0.0149403
925.715	0.0148531
925.793	0.0150227
925.871	0.0149684
925.950	0.0147962
926.028	0.0149874
926.106	0.0149044
926.184	0.0149585
926.262	0.0148302
926.340	0.0148248
926.418	0.0148376
926.496	0.0148099
926.575	0.0148476
926.653	0.0149189
926.731	0.0148908
926.809	0.0149664
926.887	0.0148989
926.965	0.0147797
927.043	0.0148679
927.121	0.0150305
927.200	0.0149790
927.278	0.0147158
927.356	0.0147612
927.434	0.0148126
927.512	0.0149972
927.590	0.0149805
927.668	0.0148335
927.746	0.0149731
927.825	0.0149244
927.903	0.0150304
927.981	0.0150256
928.059	0.0149224
928.137	0.0149789
928.215	0.0148863
928.293	0.0149853
928.371	0.0149386
928.450	0.0149171
928.528	0.0149244
928.606	0.0148635
928.684	0.0148868
928.762	0.0149055
928.840	0.0150060
928.918	0.0149136
928.996	0.0148820
929.075	0.0148695
929.153	0.0147739
929.231	0.0147731
929.309	0.0147726
929.387	0.0148132
929.465	0.0148846
929.543	0.0147475
929.621	0.0148916
929.700	0.0147856
929.778	0.0148100
929.856	0.0148064
929.934	0.0147269
930.012	0.0147272
930.090	0.0148180
930.168	0.0149533
930.246	0.0149310
930.325	0.0148712
930.403	0.0148888
930.481	0.0149433
930.559	0.0149628
930.637	0.0149463
930.715	0.0149123
930.793	0.0149929
930.871	0.0147706
930.950	0.0148269
931.028	0.0149046
931.106	0.0149339
931.184	0.0148660
931.262	0.0149142
931.340	0.0149284
931.418	0.0150638
931.496	0.0148893
931.575	0.0148515
931.653	0.0148914
931.731	0.0147897
931.809	0.0148376
931.887	0.0147682
931.965	0.0146619
932.043	0.0147899
932.121	0.0147067
932.200	0.0148465
932.278	0.0148466
932.356	0.0147710
932.434	0.0147342
932.512	0.0148178
932.590	0.0148948
932.668	0.0147662
932.746	0.0148769
932.825	0.0149355
932.903	0.0149480
932.981	0.0150179
933.059	0.0148608
933.137	0.0148819
933.215	0.0149126
933.293	0.0148730
933.371	0.0148597
933.450	0.0148701
933.528	0.0148152
933.606	0.0147868
933.684	0.0148531
933.762	0.0147426
933.840	0.0147888
933.918	0.0147396
933.996	0.0146372
934.075	0.0146922
934.153	0.0146507
934.231	0.0147932
934.309	0.0148552
934.387	0.0148441
934.465	0.0148531
934.543	0.0148463
934.621	0.0148639
934.700	0.0148306
934.778	0.0148061
934.856	0.0147404
934.934	0.0149203
935.012	0.0146907
935.090	0.0147585
935.168	0.0148635
935.246	0.0147538
935.325	0.0147208
935.403	0.0147038
935.481	0.0147597
935.559	0.0149626
935.637	0.0149686
935.715	0.0148106
935.793	0.0150136
935.871	0.0150246
935.950	0.0149410
936.028	0.0148679
936.106	0.0149693
936.184	0.0148465
936.262	0.0147964
936.340	0.0149420
936.418	0.0149258
936.496	0.0147984
936.575	0.0148877
936.653	0.0148159
936.731	0.0149129
936.809	0.0147999
936.887	0.0148870
936.965	0.0148791
937.043	0.0148833
937.121	0.0149449
937.200	0.0147829
937.278	0.0147868
937.356	0.0148356
937.434	0.0150938
937.512	0.0148992
937.590	0.0148169
937.668	0.0149622
937.746	0.0148440
937.825	0.0149852
937.903	0.0149946
937.981	0.0148719
938.059	0.0148140
938.137	0.0149810
938.215	0.0148893
938.293	0.0149371
938.371	0.0149076
938.450	0.0149967
938.528	0.0150161
938.606	0.0148099
938.684	0.0149392
938.762	0.0149267
938.840	0.0149154
938.918	0.0148084
938.996	0.0149738
939.075	0.0149937
939.153	0.0147227
939.231	0.0148790
939.309	0.0150654
939.387	0.0148872
939.465	0.0150542
939.543	0.0148808
939.621	0.0149307
939.700	0.0148779
939.778	0.0149706
939.856	0.0148560
939.934	0.0149450
940.012	0.0149709
940.090	0.0148630
940.168	0.0149048
940.246	0.0149479
940.325	0.0149484
940.403	0.0149557
940.481	0.0150277
940.559	0.0148112
940.637	0.0149644
940.715	0.0150257
940.793	0.0148467
940.871	0.0149379
940.950	0.0149643
941.028	0.0150359
941.106	0.0148293
941.184	0.0147993
941.262	0.0148505
941.340	0.0149334
941.418	0.0149007
941.496	0.0150127
941.575	0.0148085
941.653	0.0148108
941.731	0.0148666
941.809	0.0148730
941.887	0.0148862
941.965	0.0148505
942.043	0.0148299
942.121	0.0148628
942.200	0.0146976
942.278	0.0148437
942.356	0.0147647
942.434	0.0148399
942.512	0.0148352
942.590	0.0148306
942.668	0.0147509
942.746	0.0146886
942.825	0.0147246
942.903	0.0147417
942.981	0.0147525
943.059	0.0147334
943.137	0.0147732
943.215	0.0148793
943.293	0.0148141
943.371	0.0148502
943.450	0.0148875
943.528	0.0149078
943.606	0.0148872
943.684	0.0148802
943.762	0.0148711
943.840	0.0147582
943.918	0.0148727
943.996	0.0147306
944.075	0.0148505
944.153	0.0148528
944.231	0.0148632
944.309	0.0148667
944.387	0.0146906
944.465	0.0148159
944.543	0.0149049
944.621	0.0147203
944.700	0.0147264
944.778	0.0148027
944.856	0.0147961
944.934	0.0149473
945.012	0.0148332
945.090	0.0147539
945.168	0.0147834
945.246	0.0147413
945.325	0.0148349
945.403	0.0147982
945.481	0.0148698
945.559	0.0149670
945.637	0.0148551
945.715	0.0148036
945.793	0.0147676
945.871	0.0149332
945.950	0.0148212
946.028	0.0148034
946.106	0.0148174
946.184	0.0148786
946.262	0.0147517
946.340	0.0148618
946.418	0.0149381
946.496	0.0148971
946.575	0.0147412
946.653	0.0147684
946.731	0.0149049
946.809	0.0149068
946.887	0.0148067
946.965	0.0149664
947.043	0.0148325
947.121	0.0149232
947.200	0.0149544
947.278	0.0151032
947.356	0.0148425
947.434	0.0149004
947.512	0.0148772
947.590	0.0147973
947.668	0.0148956
947.746	0.0149908
947.825	0.0148980
947.903	0.0148549
947.981	0.0148767
948.059	0.0148676
948.137	0.0149504
948.215	0.0148659
948.293	0.0147556
948.371	0.0148504
948.450	0.0148831
948.528	0.0149224
948.606	0.0149126
948.684	0.0149502
948.762	0.0149438
948.840	0.0149929
948.918	0.0148667
948.996	0.0149980
949.075	0.0149223
949.153	0.0149716
949.231	0.0149480
949.309	0.0150845
949.387	0.0150173
949.465	0.0150034
949.543	0.0150185
949.621	0.0150706
949.700	0.0149409
949.778	0.0148734
949.856	0.0148669
949.934	0.0150035
950.012	0.0149121
950.090	0.0149236
950.168	0.0148569
950.246	0.0146692
950.325	0.0147103
950.403	0.0149115
950.481	0.0147932
950.559	0.0148125
950.637	0.0148521
950.715	0.0148373
950.793	0.0147438
950.871	0.0148650
950.950	0.0149326
951.028	0.0148508
951.106	0.0147854
951.184	0.0148489
951.262	0.0150030
951.340	0.0149750
951.418	0.0149190
951.496	0.0149175
951.575	0.0147510
951.653	0.0148748
951.731	0.0149063
951.809	0.0148586
951.887	0.0147837
951.965	0.0148359
952.043	0.0146550
952.121	0.0146772
952.200	0.0146671
952.278	0.0147887
952.356	0.0147912
952.434	0.0146832
952.512	0.0147565
952.590	0.0147219
952.668	0.0147913
952.746	0.0147991
952.825	0.0147874
952.903	0.0147832
952.981	0.0147157
953.059	0.0147398
953.137	0.0148494
953.215	0.0146271
953.293	0.0147313
953.371	0.0147050
953.450	0.0148140
953.528	0.0147249
953.606	0.0147245
953.684	0.0148740
953.762	0.0148293
953.840	0.0147881
953.918	0.0148640
953.996	0.0150106
954.075	0.0149827
954.153	0.0148334
954.231	0.0148785
954.309	0.0148717
954.387	0.0148333
954.465	0.0148005
954.543	0.0147499
954.621	0.0147841
954.700	0.0148325
954.778	0.0148338
954.856	0.0147231
954.934	0.0146992
955.012	0.0147945
955.090	0.0147652
955.168	0.0149953
955.246	0.0148978
955.325	0.0147507
955.403	0.0148558
955.481	0.0148270
955.559	0.0149720
955.637	0.0149353
955.715	0.0147752
955.793	0.0149543
955.871	0.0150234
955.950	0.0148012
956.028	0.0148035
956.106	0.0148928
956.184	0.0149635
956.262	0.0150254
956.340	0.0148312
956.418	0.0147930
956.496	0.0151084
956.575	0.0149177
956.653	0.0150361
956.731	0.0150130
956.809	0.0150027
956.887	0.0148574
956.965	0.0149924
957.043	0.0150438
957.121	0.0149461
957.200	0.0150536
957.278	0.0149438
957.356	0.0149335
957.434	0.0150668
957.512	0.0149160
957.590	0.0148811
957.668	0.0149552
957.746	0.0149521
957.825	0.0149435
957.903	0.0149331
957.981	0.0149106
958.059	0.0147800
958.137	0.0148557
958.215	0.0148072
958.293	0.0148692
958.371	0.0148701
958.450	0.0148803
958.528	0.0147926
958.606	0.0148586
958.684	0.0147672
958.762	0.0147777
958.840	0.0148437
958.918	0.0148505
958.996	0.0149405
959.075	0.0149461
959.153	0.0148288
959.231	0.0148347
959.309	0.0149082
959.387	0.0149553
959.465	0.0148985
959.543	0.0148633
959.621	0.0148020
959.700	0.0148291
959.778	0.0148746
959.856	0.0149428
959.934	0.0147564
960.012	0.0147146
960.090	0.0147020
960.168	0.0147245
960.246	0.0147882
960.325	0.0147714
960.403	0.0147260
960.481	0.0147092
960.559	0.0147633
960.637	0.0147012
960.715	0.0145576
960.793	0.0147044
960.871	0.0146820
960.950	0.0147062
961.028	0.0148190
961.106	0.0147095
961.184	0.0147253
961.262	0.0145628
961.340	0.0148857
961.418	0.0147691
961.496	0.0147792
961.575	0.0147759
961.653	0.0148335
961.731	0.0147647
961.809	0.0148264
961.887	0.0148283
961.965	0.0148365
962.043	0.0148150
962.121	0.0147547
962.200	0.0148587
962.278	0.0147489
962.356	0.0146951
962.434	0.0146858
962.512	0.0146468
962.590	0.0147672
962.668	0.0145645
962.746	0.0145925
962.825	0.0146741
962.903	0.0147097
962.981	0.0147169
963.059	0.0147616
963.137	0.0147157
963.215	0.0147585
963.293	0.0148058
963.371	0.0147408
963.450	0.0147198
963.528	0.0147702
963.606	0.0148114
963.684	0.0148987
963.762	0.0149089
963.840	0.0149538
963.918	0.0150085
963.996	0.0149577
964.075	0.0150549
964.153	0.0149667
964.231	0.0149631
964.309	0.0149829
964.387	0.0150079
964.465	0.0149622
964.543	0.0148833
964.621	0.0149282
964.700	0.0149523
964.778	0.0148651
964.856	0.0147587
964.934	0.0148092
965.012	0.0147758
965.090	0.0147881
965.168	0.0146864
965.246	0.0148388
965.325	0.0147726
965.403	0.0147254
965.481	0.0148688
965.559	0.0148991
965.637	0.0147379
965.715	0.0148932
965.793	0.0148561
965.871	0.0148208
965.950	0.0148707
966.028	0.0148684
966.106	0.0148683
966.184	0.0148603
966.262	0.0149433
966.340	0.0149327
966.418	0.0149165
966.496	0.0147702
966.575	0.0147979
966.653	0.0147778
966.731	0.0147766
966.809	0.0148131
966.887	0.0148421
966.965	0.0147915
967.043	0.0148434
967.121	0.0149131
967.200	0.0149572
967.278	0.0148251
967.356	0.0149055
967.434	0.0148732
967.512	0.0148235
967.590	0.0147424
967.668	0.0149769
967.746	0.0148579
967.825	0.0148487
967.903	0.0148601
967.981	0.0149371
968.059	0.0148665
968.137	0.0147417
968.215	0.0148715
968.293	0.0148036
968.371	0.0147909
968.450	0.0147987
968.528	0.0149282
968.606	0.0149945
968.684	0.0148923
968.762	0.0147570
968.840	0.0146959
968.918	0.0147809
968.996	0.0147881
969.075	0.0147457
969.153	0.0148080
969.231	0.0148456
969.309	0.0148577
969.387	0.0148180
969.465	0.0147575
969.543	0.0147608
969.621	0.0148291
969.700	0.0148326
969.778	0.0147930
969.856	0.0148666
969.934	0.0149825
970.012	0.0149033
970.090	0.0148912
970.168	0.0147431
970.246	0.0150130
970.325	0.0149574
970.403	0.0149252
970.481	0.0148519
970.559	0.0149249
970.637	0.0149083
970.715	0.0148543
970.793	0.0147772
970.871	0.0148267
970.950	0.0148913
971.028	0.0147350
971.106	0.0146203
971.184	0.0147485
971.262	0.0148725
971.340	0.0148965
971.418	0.0148605
971.496	0.0148338
971.575	0.0147918
971.653	0.0147757
971.731	0.0148424
971.809	0.0150157
971.887	0.0148562
971.965	0.0148244
972.043	0.0148438
972.121	0.0149743
972.200	0.0147090
972.278	0.0148795
972.356	0.0148769
972.434	0.0148109
972.512	0.0147316
972.590	0.0147128
972.668	0.0147469
972.746	0.0149175
972.825	0.0147118
972.903	0.0147758
972.981	0.0148604
973.059	0.0148000
973.137	0.0147769
973.215	0.0149297
973.293	0.0150195
973.371	0.0148230
973.450	0.0148727
973.528	0.0149571
973.606	0.0150156
973.684	0.0148791
973.762	0.0149835
973.840	0.0149992
973.918	0.0149107
973.996	0.0149019
974.075	0.0149269
974.153	0.0147143
974.231	0.0148196
974.309	0.0149014
974.387	0.0148248
974.465	0.0147514
974.543	0.0148006
974.621	0.0148244
974.700	0.0148480
974.778	0.0147781
974.856	0.0148708
974.934	0.0148306
975.012	0.0147327
975.090	0.0146880
975.168	0.0148676
975.246	0.0147713
975.325	0.0147272
975.403	0.0149426
975.481	0.0147604
975.559	0.0148728
975.637	0.0148933
975.715	0.0148796
975.793	0.0149445
975.871	0.0150323
975.950	0.0149209
976.028	0.0150091
976.106	0.0147971
976.184	0.0149346
976.262	0.0148868
976.340	0.0148882
976.418	0.0148695
976.496	0.0149860
976.575	0.0149935
976.653	0.0148524
976.731	0.0147963
976.809	0.0148092
976.887	0.0149247
976.965	0.0149808
977.043	0.0148279
977.121	0.0148571
977.200	0.0148395
977.278	0.0147629
977.356	0.0149912
977.434	0.0150185
977.512	0.0148818
977.590	0.0148959
977.668	0.0147868
977.746	0.0148317
977.825	0.0149889
977.903	0.0149078
977.981	0.0149996
978.059	0.0149467
978.137	0.0149976
978.215	0.0148760
978.293	0.0148556
978.371	0.0149766
978.450	0.0149731
978.528	0.0147633
978.606	0.0149615
978.684	0.0150058
978.762	0.0149403
978.840	0.0148930
978.918	0.0148716
978.996	0.0147871
979.075	0.0149237
979.153	0.0149033
979.231	0.0147675
979.309	0.0148724
979.387	0.0147553
979.465	0.0147463
979.543	0.0147626
979.621	0.0149042
979.700	0.0148742
979.778	0.0148412
979.856	0.0148410
979.934	0.0148676
980.012	0.0150012
980.090	0.0150767
980.168	0.0149936
980.246	0.0150958
980.325	0.0150436
980.403	0.0148519
980.481	0.0148470
980.559	0.0149226
980.637	0.0148482
980.715	0.0148320
980.793	0.0148791
980.871	0.0148960
980.950	0.0148743
981.028	0.0148680
981.106	0.0148385
981.184	0.0148061
981.262	0.0147465
981.340	0.0148528
981.418	0.0147530
981.496	0.0146809
981.575	0.0148596
981.653	0.0147683
981.731	0.0148502
981.809	0.0147677
981.887	0.0149304
981.965	0.0150021
982.043	0.0149610
982.121	0.0149062
982.200	0.0148820
982.278	0.0148801
982.356	0.0149672
982.434	0.0149680
982.512	0.0149703
982.590	0.0150112
982.668	0.0149548
982.746	0.0150291
982.825	0.0150343
982.903	0.0149379
982.981	0.0150101
983.059	0.0148373
983.137	0.0148497
983.215	0.0148113
983.293	0.0147383
983.371	0.0147687
983.450	0.0149170
983.528	0.0148763
983.606	0.0148885
983.684	0.0146867
983.762	0.0147997
983.840	0.0148266
983.918	0.0149829
983.996	0.0147165
984.075	0.0148972
984.153	0.0147852
984.231	0.0148852
984.309	0.0148653
984.387	0.0148501
984.465	0.0149432
984.543	0.0147932
984.621	0.0147385
984.700	0.0149568
984.778	0.0149383
984.856	0.0147414
984.934	0.0149004
985.012	0.0149172
985.090	0.0148177
985.168	0.0147528
985.246	0.0148825
985.325	0.0148185
985.403	0.0149155
985.481	0.0148564
985.559	0.0149527
985.637	0.0147555
985.715	0.0148444
985.793	0.0149495
985.871	0.0149090
985.950	0.0148180
986.028	0.0149241
986.106	0.0148212
986.184	0.0147763
986.262	0.0147867
986.340	0.0147503
986.418	0.0148234
986.496	0.0147453
986.575	0.0148793
986.653	0.0147444
986.731	0.0146839
986.809	0.0149413
986.887	0.0148584
986.965	0.0147704
987.043	0.0146706
987.121	0.0146586
987.200	0.0147540
987.278	0.0146971
987.356	0.0147803
987.434	0.0148645
987.512	0.0146906
987.590	0.0148248
987.668	0.0148956
987.746	0.0148965
987.825	0.0148957
987.903	0.0148852
987.981	0.0148566
988.059	0.0150122
988.137	0.0149136
988.215	0.0149265
988.293	0.0149114
988.371	0.0149442
988.450	0.0148512
988.528	0.0148551
988.606	0.0148062
988.684	0.0149067
988.762	0.0148270
988.840	0.0147098
988.918	0.0148251
988.996	0.0148338
989.075	0.0147855
989.153	0.0147739
989.231	0.0148246
989.309	0.0147556
989.387	0.0147271
989.465	0.0148222
989.543	0.0147987
989.621	0.0147224
989.700	0.0148144
989.778	0.0148060
989.856	0.0149405
989.934	0.0148106
990.012	0.0149378
990.090	0.0147467
990.168	0.0148130
990.246	0.0148642
990.325	0.0148348
990.403	0.0148496
990.481	0.0148814
990.559	0.0149525
990.637	0.0148605
990.715	0.0149196
990.793	0.0148291
990.871	0.0148711
990.950	0.0147945
991.028	0.0149802
991.106	0.0149238
991.184	0.0148170
991.262	0.0148254
991.340	0.0148245
991.418	0.0147830
991.496	0.0148620
991.575	0.0150233
991.653	0.0148389
991.731	0.0146532
991.809	0.0150523
991.887	0.0149224
991.965	0.0147837
992.043	0.0147866
992.121	0.0148885
992.200	0.0147162
992.278	0.0149105
992.356	0.0149242
992.434	0.0149265
992.512	0.0148293
992.590	0.0149075
992.668	0.0149458
992.746	0.0148838
992.825	0.0149467
992.903	0.0148766
992.981	0.0149879
993.059	0.0149259
993.137	0.0148971
993.215	0.0148491
993.293	0.0148399
993.371	0.0148129
993.450	0.0147705
993.528	0.0150540
993.606	0.0149030
993.684	0.0147775
993.762	0.0147656
993.840	0.0147571
993.918	0.0148358
993.996	0.0147886
994.075	0.0147720
994.153	0.0147647
994.231	0.0148611
994.309	0.0147174
994.387	0.0147332
994.465	0.0147536
994.543	0.0146126
994.621	0.0147919
994.700	0.0149292
994.778	0.0150527
994.856	0.0148723
994.934	0.0147330
995.012	0.0148871
995.090	0.0148568
995.168	0.0147655
995.246	0.0148794
995.325	0.0147913
995.403	0.0148962
995.481	0.0147922
995.559	0.0147296
995.637	0.0146474
995.715	0.0148219
995.793	0.0147483
995.871	0.0147649
995.950	0.0147916
996.028	0.0147527
996.106	0.0147445
996.184	0.0146848
996.262	0.0147366
996.340	0.0147842
996.418	0.0147186
996.496	0.0146465
996.575	0.0146496
996.653	0.0148318
996.731	0.0148808
996.809	0.0148234
996.887	0.0147855
996.965	0.0147626
997.043	0.0147513
997.121	0.0148774
997.200	0.0146751
997.278	0.0147153
997.356	0.0146709
997.434	0.0147462
997.512	0.0146906
997.590	0.0146540
997.668	0.0147350
997.746	0.0146797
997.825	0.0148536
997.903	0.0147434
997.981	0.0149621
998.059	0.0148782
998.137	0.0147817
998.215	0.0149826
998.293	0.0149149
998.371	0.0149829
998.450	0.0149961
998.528	0.0150169
998.606	0.0149030
998.684	0.0150895
998.762	0.0150964
998.840	0.0149754
998.918	0.0149463
