05/04/2022	21:25:03	Ver.	4.1	UNKNOWN
Optical Delay	678.996401	Delta X		0.078125	Sweeps	1	Scan Rate	0/0
Coordinates	Axis 1	NaN	Axis 2	NaN	Axis 3	NaN	Axis 4	NaN	Axis 5	NaN	Axis 6	0.000000
TX Power	0.000000	RX Power	0.000000

678.996	0.0147897
679.075	0.0148271
679.153	0.0148952
679.231	0.0148183
679.309	0.0147337
679.387	0.0147092
679.465	0.0147786
679.543	0.0146953
679.621	0.0148266
679.700	0.0148955
679.778	0.0148418
679.856	0.0148391
679.934	0.0148100
680.012	0.0147935
680.090	0.0149703
680.168	0.0148222
680.246	0.0147813
680.325	0.0148284
680.403	0.0147668
680.481	0.0147256
680.559	0.0147456
680.637	0.0148824
680.715	0.0149630
680.793	0.0147775
680.871	0.0146302
680.950	0.0147621
681.028	0.0146959
681.106	0.0147596
681.184	0.0146845
681.262	0.0148362
681.340	0.0147914
681.418	0.0148895
681.496	0.0148351
681.575	0.0147965
681.653	0.0149271
681.731	0.0149208
681.809	0.0149663
681.887	0.0149609
681.965	0.0149178
682.043	0.0150955
682.121	0.0148341
682.200	0.0149614
682.278	0.0150258
682.356	0.0149495
682.434	0.0149174
682.512	0.0149866
682.590	0.0149503
682.668	0.0149007
682.746	0.0147736
682.825	0.0149583
682.903	0.0147865
682.981	0.0148568
683.059	0.0147983
683.137	0.0148671
683.215	0.0148271
683.293	0.0149133
683.371	0.0148998
683.450	0.0148759
683.528	0.0148004
683.606	0.0148319
683.684	0.0148056
683.762	0.0148640
683.840	0.0148457
683.918	0.0148351
683.996	0.0148038
684.075	0.0146806
684.153	0.0146752
684.231	0.0147061
684.309	0.0147560
684.387	0.0147103
684.465	0.0147348
684.543	0.0148850
684.621	0.0146439
684.700	0.0148344
684.778	0.0148576
684.856	0.0148047
684.934	0.0150935
685.012	0.0148206
685.090	0.0148170
685.168	0.0150510
685.246	0.0150161
685.325	0.0150767
685.403	0.0148932
685.481	0.0150069
685.559	0.0148589
685.637	0.0149371
685.715	0.0148956
685.793	0.0148521
685.871	0.0149078
685.950	0.0150249
686.028	0.0149695
686.106	0.0149850
686.184	0.0148685
686.262	0.0148159
686.340	0.0150471
686.418	0.0148641
686.496	0.0148540
686.575	0.0148915
686.653	0.0147845
686.731	0.0148535
686.809	0.0147328
686.887	0.0147897
686.965	0.0148299
687.043	0.0148414
687.121	0.0147509
687.200	0.0149096
687.278	0.0147701
687.356	0.0146416
687.434	0.0148082
687.512	0.0147795
687.590	0.0149879
687.668	0.0149918
687.746	0.0148476
687.825	0.0150809
687.903	0.0149033
687.981	0.0148384
688.059	0.0148235
688.137	0.0150716
688.215	0.0150683
688.293	0.0149362
688.371	0.0149520
688.450	0.0147909
688.528	0.0147482
688.606	0.0148513
688.684	0.0147111
688.762	0.0147710
688.840	0.0146166
688.918	0.0146232
688.996	0.0145483
689.075	0.0146903
689.153	0.0146378
689.231	0.0146273
689.309	0.0147748
689.387	0.0146688
689.465	0.0147722
689.543	0.0148209
689.621	0.0148125
689.700	0.0148502
689.778	0.0147698
689.856	0.0148849
689.934	0.0149673
690.012	0.0149973
690.090	0.0149321
690.168	0.0148303
690.246	0.0147045
690.325	0.0148151
690.403	0.0147897
690.481	0.0145799
690.559	0.0144564
690.637	0.0144923
690.715	0.0145308
690.793	0.0145686
690.871	0.0145925
690.950	0.0144726
691.028	0.0143556
691.106	0.0144308
691.184	0.0145557
691.262	0.0146568
691.340	0.0147999
691.418	0.0148233
691.496	0.0149502
691.575	0.0149150
691.653	0.0150031
691.731	0.0149792
691.809	0.0151205
691.887	0.0151130
691.965	0.0150165
692.043	0.0150710
692.121	0.0150388
692.200	0.0150235
692.278	0.0149566
692.356	0.0149749
692.434	0.0149135
692.512	0.0146362
692.590	0.0144717
692.668	0.0145926
692.746	0.0146318
692.825	0.0144278
692.903	0.0142561
692.981	0.0143295
693.059	0.0144389
693.137	0.0142611
693.215	0.0144004
693.293	0.0145780
693.371	0.0147217
693.450	0.0146286
693.528	0.0149261
693.606	0.0152286
693.684	0.0151870
693.762	0.0152260
693.840	0.0155238
693.918	0.0152972
693.996	0.0154071
694.075	0.0154184
694.153	0.0154328
694.231	0.0153673
694.309	0.0153427
694.387	0.0151946
694.465	0.0150953
694.543	0.0148833
694.621	0.0148323
694.700	0.0145948
694.778	0.0144535
694.856	0.0141997
694.934	0.0141189
695.012	0.0142004
695.090	0.0142334
695.168	0.0143559
695.246	0.0143955
695.325	0.0144331
695.403	0.0145594
695.481	0.0145387
695.559	0.0145771
695.637	0.0146275
695.715	0.0147282
695.793	0.0148032
695.871	0.0149957
695.950	0.0149825
696.028	0.0150591
696.106	0.0153403
696.184	0.0153436
696.262	0.0152919
696.340	0.0154438
696.418	0.0156159
696.496	0.0153551
696.575	0.0153021
696.653	0.0152678
696.731	0.0151655
696.809	0.0150578
696.887	0.0148734
696.965	0.0145600
697.043	0.0143487
697.121	0.0142843
697.200	0.0141651
697.278	0.0140074
697.356	0.0139155
697.434	0.0138359
697.512	0.0137393
697.590	0.0139788
697.668	0.0140123
697.746	0.0140797
697.825	0.0144376
697.903	0.0145391
697.981	0.0149809
698.059	0.0151678
698.137	0.0155267
698.215	0.0156961
698.293	0.0158995
698.371	0.0158793
698.450	0.0157861
698.528	0.0156542
698.606	0.0154964
698.684	0.0150342
698.762	0.0147423
698.840	0.0146439
698.918	0.0144123
698.996	0.0142887
699.075	0.0142004
699.153	0.0141396
699.231	0.0140685
699.309	0.0143736
699.387	0.0144241
699.465	0.0146416
699.543	0.0146751
699.621	0.0147593
699.700	0.0148852
699.778	0.0150806
699.856	0.0152902
699.934	0.0151221
700.012	0.0153825
700.090	0.0154208
700.168	0.0153545
700.246	0.0153828
700.325	0.0154606
700.403	0.0153574
700.481	0.0153183
700.559	0.0152830
700.637	0.0152735
700.715	0.0150645
700.793	0.0148721
700.871	0.0147642
700.950	0.0148085
701.028	0.0148591
701.106	0.0146130
701.184	0.0145152
701.262	0.0144050
701.340	0.0143581
701.418	0.0142792
701.496	0.0141057
701.575	0.0140019
701.653	0.0140861
701.731	0.0139362
701.809	0.0140864
701.887	0.0143919
701.965	0.0146205
702.043	0.0148562
702.121	0.0152290
702.200	0.0155428
702.278	0.0157916
702.356	0.0160565
702.434	0.0159711
702.512	0.0162716
702.590	0.0160946
702.668	0.0158046
702.746	0.0158170
702.825	0.0154358
702.903	0.0151074
702.981	0.0148730
703.059	0.0146567
703.137	0.0144070
703.215	0.0143187
703.293	0.0139414
703.371	0.0139129
703.450	0.0139054
703.528	0.0138359
703.606	0.0141237
703.684	0.0140961
703.762	0.0141154
703.840	0.0144814
703.918	0.0147398
703.996	0.0148230
704.075	0.0152360
704.153	0.0155438
704.231	0.0155101
704.309	0.0156210
704.387	0.0157052
704.465	0.0155852
704.543	0.0153687
704.621	0.0152638
704.700	0.0151633
704.778	0.0149074
704.856	0.0147951
704.934	0.0145460
705.012	0.0144228
705.090	0.0143911
705.168	0.0143036
705.246	0.0142610
705.325	0.0143742
705.403	0.0143703
705.481	0.0144738
705.559	0.0145947
705.637	0.0144987
705.715	0.0145002
705.793	0.0146782
705.871	0.0147891
705.950	0.0148080
706.028	0.0149737
706.106	0.0150771
706.184	0.0150368
706.262	0.0152929
706.340	0.0151880
706.418	0.0152577
706.496	0.0152705
706.575	0.0150329
706.653	0.0150585
706.731	0.0149566
706.809	0.0148450
706.887	0.0147826
706.965	0.0146273
707.043	0.0145897
707.121	0.0143047
707.200	0.0143562
707.278	0.0144237
707.356	0.0144003
707.434	0.0144552
707.512	0.0145510
707.590	0.0145684
707.668	0.0145338
707.746	0.0147412
707.825	0.0147974
707.903	0.0149195
707.981	0.0149083
708.059	0.0149444
708.137	0.0149850
708.215	0.0151853
708.293	0.0152552
708.371	0.0151127
708.450	0.0151928
708.528	0.0151750
708.606	0.0152055
708.684	0.0152361
708.762	0.0150120
708.840	0.0149584
708.918	0.0149406
708.996	0.0147594
709.075	0.0146100
709.153	0.0145205
709.231	0.0144679
709.309	0.0143695
709.387	0.0142409
709.465	0.0140286
709.543	0.0140359
709.621	0.0140749
709.700	0.0138783
709.778	0.0139870
709.856	0.0141917
709.934	0.0143895
710.012	0.0146676
710.090	0.0148082
710.168	0.0151634
710.246	0.0155382
710.325	0.0158080
710.403	0.0159062
710.481	0.0161697
710.559	0.0162030
710.637	0.0160623
710.715	0.0161100
710.793	0.0158168
710.871	0.0156066
710.950	0.0154578
711.028	0.0152036
711.106	0.0149037
711.184	0.0146690
711.262	0.0142039
711.340	0.0138364
711.418	0.0137271
711.496	0.0137321
711.575	0.0134635
711.653	0.0136134
711.731	0.0137536
711.809	0.0137482
711.887	0.0140629
711.965	0.0141586
712.043	0.0145316
712.121	0.0147640
712.200	0.0149416
712.278	0.0151592
712.356	0.0153479
712.434	0.0153230
712.512	0.0154608
712.590	0.0156003
712.668	0.0154981
712.746	0.0155713
712.825	0.0154874
712.903	0.0153810
712.981	0.0152889
713.059	0.0153017
713.137	0.0150884
713.215	0.0150184
713.293	0.0148975
713.371	0.0147672
713.450	0.0146340
713.528	0.0146561
713.606	0.0145899
713.684	0.0143226
713.762	0.0144131
713.840	0.0141822
713.918	0.0140874
713.996	0.0142596
714.075	0.0141813
714.153	0.0140424
714.231	0.0142033
714.309	0.0144092
714.387	0.0143690
714.465	0.0145204
714.543	0.0145047
714.621	0.0146365
714.700	0.0150678
714.778	0.0150164
714.856	0.0151344
714.934	0.0153069
715.012	0.0153900
715.090	0.0154398
715.168	0.0157188
715.246	0.0156131
715.325	0.0155206
715.403	0.0155042
715.481	0.0153854
715.559	0.0152414
715.637	0.0151101
715.715	0.0147942
715.793	0.0144746
715.871	0.0144865
715.950	0.0142859
716.028	0.0141669
716.106	0.0141821
716.184	0.0140817
716.262	0.0141859
716.340	0.0141372
716.418	0.0142206
716.496	0.0143629
716.575	0.0144746
716.653	0.0144947
716.731	0.0146460
716.809	0.0149438
716.887	0.0148071
716.965	0.0150588
717.043	0.0151521
717.121	0.0151795
717.200	0.0151241
717.278	0.0152445
717.356	0.0152042
717.434	0.0151968
717.512	0.0151621
717.590	0.0148930
717.668	0.0147848
717.746	0.0148103
717.825	0.0147367
717.903	0.0147253
717.981	0.0146082
718.059	0.0146680
718.137	0.0146652
718.215	0.0146815
718.293	0.0147533
718.371	0.0148166
718.450	0.0148643
718.528	0.0148965
718.606	0.0149284
718.684	0.0149100
718.762	0.0149360
718.840	0.0148880
718.918	0.0150384
718.996	0.0150112
719.075	0.0148885
719.153	0.0150069
719.231	0.0149390
719.309	0.0147887
719.387	0.0147680
719.465	0.0149364
719.543	0.0146741
719.621	0.0146487
719.700	0.0145923
719.778	0.0146864
719.856	0.0146510
719.934	0.0146951
720.012	0.0146186
720.090	0.0146608
720.168	0.0145864
720.246	0.0145366
720.325	0.0144633
720.403	0.0144171
720.481	0.0146680
720.559	0.0147141
720.637	0.0146913
720.715	0.0146960
720.793	0.0147668
720.871	0.0150389
720.950	0.0151007
721.028	0.0151018
721.106	0.0151160
721.184	0.0150400
721.262	0.0152448
721.340	0.0151678
721.418	0.0151313
721.496	0.0150774
721.575	0.0150930
721.653	0.0151958
721.731	0.0152183
721.809	0.0150217
721.887	0.0149693
721.965	0.0149767
722.043	0.0147341
722.121	0.0147127
722.200	0.0147509
722.278	0.0145865
722.356	0.0146427
722.434	0.0147060
722.512	0.0147518
722.590	0.0148006
722.668	0.0146898
722.746	0.0147919
722.825	0.0148994
722.903	0.0147774
722.981	0.0148088
723.059	0.0149096
723.137	0.0148707
723.215	0.0148541
723.293	0.0148985
723.371	0.0149631
723.450	0.0150256
723.528	0.0150206
723.606	0.0148288
723.684	0.0148421
723.762	0.0148896
723.840	0.0148952
723.918	0.0147662
723.996	0.0148785
724.075	0.0149754
724.153	0.0148808
724.231	0.0149601
724.309	0.0149288
724.387	0.0149043
724.465	0.0150159
724.543	0.0149696
724.621	0.0149728
724.700	0.0149143
724.778	0.0150385
724.856	0.0149790
724.934	0.0151171
725.012	0.0150256
725.090	0.0151163
725.168	0.0151591
725.246	0.0152274
725.325	0.0152155
725.403	0.0150352
725.481	0.0150591
725.559	0.0150574
725.637	0.0148662
725.715	0.0147595
725.793	0.0147913
725.871	0.0146893
725.950	0.0146923
726.028	0.0146744
726.106	0.0146407
726.184	0.0145525
726.262	0.0145831
726.340	0.0148389
726.418	0.0147812
726.496	0.0147859
726.575	0.0149218
726.653	0.0148521
726.731	0.0149159
726.809	0.0149639
726.887	0.0150333
726.965	0.0152077
727.043	0.0151916
727.121	0.0150806
727.200	0.0151392
727.278	0.0149349
727.356	0.0148795
727.434	0.0148393
727.512	0.0146944
727.590	0.0146525
727.668	0.0144756
727.746	0.0144696
727.825	0.0144706
727.903	0.0144630
727.981	0.0145846
728.059	0.0146156
728.137	0.0145493
728.215	0.0145178
728.293	0.0147003
728.371	0.0146961
728.450	0.0147771
728.528	0.0147530
728.606	0.0149543
728.684	0.0151170
728.762	0.0151828
728.840	0.0149126
728.918	0.0150129
728.996	0.0151083
729.075	0.0150594
729.153	0.0152447
729.231	0.0150701
729.309	0.0150716
729.387	0.0151058
729.465	0.0150160
729.543	0.0148987
729.621	0.0148948
729.700	0.0147336
729.778	0.0148339
729.856	0.0147957
729.934	0.0147326
730.012	0.0146384
730.090	0.0146927
730.168	0.0145622
730.246	0.0145318
730.325	0.0143824
730.403	0.0144785
730.481	0.0144394
730.559	0.0143116
730.637	0.0144022
730.715	0.0145073
730.793	0.0144517
730.871	0.0145583
730.950	0.0146127
731.028	0.0144997
731.106	0.0146530
731.184	0.0146561
731.262	0.0147013
731.340	0.0146360
731.418	0.0146368
731.496	0.0146700
731.575	0.0146130
731.653	0.0147290
731.731	0.0146718
731.809	0.0147483
731.887	0.0147998
731.965	0.0149581
732.043	0.0147962
732.121	0.0148598
732.200	0.0149020
732.278	0.0149356
732.356	0.0149694
732.434	0.0149062
732.512	0.0148145
732.590	0.0147095
732.668	0.0147578
732.746	0.0147620
732.825	0.0147171
732.903	0.0146796
732.981	0.0144772
733.059	0.0145376
733.137	0.0145718
733.215	0.0146180
733.293	0.0146106
733.371	0.0146696
733.450	0.0145658
733.528	0.0146556
733.606	0.0147216
733.684	0.0146864
733.762	0.0147359
733.840	0.0147139
733.918	0.0147307
733.996	0.0146601
734.075	0.0148122
734.153	0.0149220
734.231	0.0147841
734.309	0.0147603
734.387	0.0147668
734.465	0.0147826
734.543	0.0147785
734.621	0.0147926
734.700	0.0146326
734.778	0.0148086
734.856	0.0148225
734.934	0.0147297
735.012	0.0146253
735.090	0.0146973
735.168	0.0148987
735.246	0.0147757
735.325	0.0146499
735.403	0.0146806
735.481	0.0146951
735.559	0.0146210
735.637	0.0146368
735.715	0.0145779
735.793	0.0145939
735.871	0.0145145
735.950	0.0144698
736.028	0.0147292
736.106	0.0147802
736.184	0.0148389
736.262	0.0149157
736.340	0.0150304
736.418	0.0149625
736.496	0.0151048
736.575	0.0151268
736.653	0.0151805
736.731	0.0153701
736.809	0.0151878
736.887	0.0150766
736.965	0.0151460
737.043	0.0150913
737.121	0.0149913
737.200	0.0148084
737.278	0.0148582
737.356	0.0149033
737.434	0.0146948
737.512	0.0145901
737.590	0.0146027
737.668	0.0146667
737.746	0.0144901
737.825	0.0144319
737.903	0.0145009
737.981	0.0145946
738.059	0.0144990
738.137	0.0145466
738.215	0.0145432
738.293	0.0147241
738.371	0.0146706
738.450	0.0148043
738.528	0.0145864
738.606	0.0147883
738.684	0.0149827
738.762	0.0149242
738.840	0.0149941
738.918	0.0149704
738.996	0.0149936
739.075	0.0149790
739.153	0.0150428
739.231	0.0150273
739.309	0.0150056
739.387	0.0147997
739.465	0.0148280
739.543	0.0149604
739.621	0.0148055
739.700	0.0146916
739.778	0.0145619
739.856	0.0145786
739.934	0.0146722
740.012	0.0145232
740.090	0.0144281
740.168	0.0146771
740.246	0.0144374
740.325	0.0145592
740.403	0.0145277
740.481	0.0145003
740.559	0.0145204
740.637	0.0146945
740.715	0.0147449
740.793	0.0146781
740.871	0.0148097
740.950	0.0148256
741.028	0.0149422
741.106	0.0151305
741.184	0.0149213
741.262	0.0150111
741.340	0.0151451
741.418	0.0150487
741.496	0.0150882
741.575	0.0149575
741.653	0.0148860
741.731	0.0149296
741.809	0.0149615
741.887	0.0149415
741.965	0.0149751
742.043	0.0148106
742.121	0.0147966
742.200	0.0147413
742.278	0.0148116
742.356	0.0148490
742.434	0.0146412
742.512	0.0145372
742.590	0.0147491
742.668	0.0146439
742.746	0.0146988
742.825	0.0147982
742.903	0.0147967
742.981	0.0149306
743.059	0.0148038
743.137	0.0149007
743.215	0.0147706
743.293	0.0148486
743.371	0.0149102
743.450	0.0150113
743.528	0.0149664
743.606	0.0149437
743.684	0.0148449
743.762	0.0149895
743.840	0.0148835
743.918	0.0149075
743.996	0.0149420
744.075	0.0150147
744.153	0.0148847
744.231	0.0148634
744.309	0.0149554
744.387	0.0149173
744.465	0.0148135
744.543	0.0148560
744.621	0.0148335
744.700	0.0147612
744.778	0.0146880
744.856	0.0145107
744.934	0.0146556
745.012	0.0146904
745.090	0.0147015
745.168	0.0146800
745.246	0.0146490
745.325	0.0147145
745.403	0.0147482
745.481	0.0148579
745.559	0.0147025
745.637	0.0147812
745.715	0.0149072
745.793	0.0148591
745.871	0.0149944
745.950	0.0150031
746.028	0.0150379
746.106	0.0150938
746.184	0.0151444
746.262	0.0150721
746.340	0.0152009
746.418	0.0152363
746.496	0.0152641
746.575	0.0152513
746.653	0.0151048
746.731	0.0151875
746.809	0.0150360
746.887	0.0149552
746.965	0.0149669
747.043	0.0148981
747.121	0.0149546
747.200	0.0147118
747.278	0.0147140
747.356	0.0146906
747.434	0.0146913
747.512	0.0146167
747.590	0.0146326
747.668	0.0145950
747.746	0.0145434
747.825	0.0145897
747.903	0.0146336
747.981	0.0145490
748.059	0.0144767
748.137	0.0147175
748.215	0.0146938
748.293	0.0145939
748.371	0.0146803
748.450	0.0146482
748.528	0.0148425
748.606	0.0148474
748.684	0.0149362
748.762	0.0148807
748.840	0.0148725
748.918	0.0150598
748.996	0.0148296
749.075	0.0147810
749.153	0.0148971
749.231	0.0150518
749.309	0.0148656
749.387	0.0149578
749.465	0.0149941
749.543	0.0148952
749.621	0.0147339
749.700	0.0149384
749.778	0.0148113
749.856	0.0147574
749.934	0.0147022
750.012	0.0146629
750.090	0.0146205
750.168	0.0147116
750.246	0.0147533
750.325	0.0145034
750.403	0.0146814
750.481	0.0146420
750.559	0.0148544
750.637	0.0147359
750.715	0.0147590
750.793	0.0149174
750.871	0.0149908
750.950	0.0148296
751.028	0.0148042
751.106	0.0147285
751.184	0.0147186
751.262	0.0146622
751.340	0.0146968
751.418	0.0148632
751.496	0.0147784
751.575	0.0147206
751.653	0.0147984
751.731	0.0147427
751.809	0.0148235
751.887	0.0146601
751.965	0.0145813
752.043	0.0146020
752.121	0.0145731
752.200	0.0144887
752.278	0.0145313
752.356	0.0145946
752.434	0.0146267
752.512	0.0145927
752.590	0.0145568
752.668	0.0146682
752.746	0.0146337
752.825	0.0145679
752.903	0.0145451
752.981	0.0147234
753.059	0.0147740
753.137	0.0146635
753.215	0.0146918
753.293	0.0147662
753.371	0.0147817
753.450	0.0148166
753.528	0.0147605
753.606	0.0149313
753.684	0.0149097
753.762	0.0147597
753.840	0.0148721
753.918	0.0149294
753.996	0.0148873
754.075	0.0148081
754.153	0.0147147
754.231	0.0148582
754.309	0.0149458
754.387	0.0147764
754.465	0.0147729
754.543	0.0147763
754.621	0.0146851
754.700	0.0148197
754.778	0.0147839
754.856	0.0147795
754.934	0.0146657
755.012	0.0146670
755.090	0.0145743
755.168	0.0146775
755.246	0.0145755
755.325	0.0144796
755.403	0.0146316
755.481	0.0144755
755.559	0.0145000
755.637	0.0144372
755.715	0.0144553
755.793	0.0144926
755.871	0.0146309
755.950	0.0145660
756.028	0.0146304
756.106	0.0146374
756.184	0.0147211
756.262	0.0148580
756.340	0.0148467
756.418	0.0147202
756.496	0.0147277
756.575	0.0149734
756.653	0.0148593
756.731	0.0148204
756.809	0.0149306
756.887	0.0150138
756.965	0.0148708
757.043	0.0149065
757.121	0.0149390
757.200	0.0150327
757.278	0.0147692
757.356	0.0147624
757.434	0.0148919
757.512	0.0148001
757.590	0.0147916
757.668	0.0147034
757.746	0.0148749
757.825	0.0147601
757.903	0.0147420
757.981	0.0147981
758.059	0.0147865
758.137	0.0147099
758.215	0.0146897
758.293	0.0146445
758.371	0.0148899
758.450	0.0148193
758.528	0.0147893
758.606	0.0148464
758.684	0.0146595
758.762	0.0150060
758.840	0.0148273
758.918	0.0149283
758.996	0.0149038
759.075	0.0147826
759.153	0.0147807
759.231	0.0148315
759.309	0.0147749
759.387	0.0147956
759.465	0.0149628
759.543	0.0147656
759.621	0.0147747
759.700	0.0148333
759.778	0.0148820
759.856	0.0147648
759.934	0.0147658
760.012	0.0147968
760.090	0.0147858
760.168	0.0146764
760.246	0.0146828
760.325	0.0146449
760.403	0.0146672
760.481	0.0148177
760.559	0.0148388
760.637	0.0147711
760.715	0.0148299
760.793	0.0147504
760.871	0.0148072
760.950	0.0146613
761.028	0.0148359
761.106	0.0147998
761.184	0.0148414
761.262	0.0148814
761.340	0.0148518
761.418	0.0149317
761.496	0.0147424
761.575	0.0148989
761.653	0.0149059
761.731	0.0147910
761.809	0.0148839
761.887	0.0149986
761.965	0.0148797
762.043	0.0148373
762.121	0.0149041
762.200	0.0147927
762.278	0.0149203
762.356	0.0147608
762.434	0.0146958
762.512	0.0147346
762.590	0.0148751
762.668	0.0148608
762.746	0.0146693
762.825	0.0146771
762.903	0.0148151
762.981	0.0146551
763.059	0.0146483
763.137	0.0146843
763.215	0.0148519
763.293	0.0147665
763.371	0.0149151
763.450	0.0149255
763.528	0.0147726
763.606	0.0147684
763.684	0.0149634
763.762	0.0148113
763.840	0.0147103
763.918	0.0149367
763.996	0.0149853
764.075	0.0148918
764.153	0.0150632
764.231	0.0151096
764.309	0.0150823
764.387	0.0150683
764.465	0.0149210
764.543	0.0149388
764.621	0.0148390
764.700	0.0148860
764.778	0.0148849
764.856	0.0148908
764.934	0.0148502
765.012	0.0148412
765.090	0.0147460
765.168	0.0147124
765.246	0.0146362
765.325	0.0148096
765.403	0.0147227
765.481	0.0146687
765.559	0.0147286
765.637	0.0147481
765.715	0.0148996
765.793	0.0146699
765.871	0.0146766
765.950	0.0147883
766.028	0.0147427
766.106	0.0147851
766.184	0.0147705
766.262	0.0147735
766.340	0.0148369
766.418	0.0147952
766.496	0.0150020
766.575	0.0148594
766.653	0.0148447
766.731	0.0151298
766.809	0.0150071
766.887	0.0148164
766.965	0.0150082
767.043	0.0150378
767.121	0.0148756
767.200	0.0149986
767.278	0.0149533
767.356	0.0148995
767.434	0.0149314
767.512	0.0149442
767.590	0.0147459
767.668	0.0147838
767.746	0.0148708
767.825	0.0148615
767.903	0.0148669
767.981	0.0147471
768.059	0.0150240
768.137	0.0148324
768.215	0.0149756
768.293	0.0149828
768.371	0.0148698
768.450	0.0148557
768.528	0.0148655
768.606	0.0146620
768.684	0.0148238
768.762	0.0149476
768.840	0.0148685
768.918	0.0148344
768.996	0.0148438
769.075	0.0147742
769.153	0.0149034
769.231	0.0147212
769.309	0.0147151
769.387	0.0148833
769.465	0.0147976
769.543	0.0147544
769.621	0.0149799
769.700	0.0146376
769.778	0.0146791
769.856	0.0147606
769.934	0.0147951
770.012	0.0147546
770.090	0.0146494
770.168	0.0147605
770.246	0.0148149
770.325	0.0146921
770.403	0.0146491
770.481	0.0145906
770.559	0.0146907
770.637	0.0146845
770.715	0.0146480
770.793	0.0147112
770.871	0.0147841
770.950	0.0147826
771.028	0.0147298
771.106	0.0148398
771.184	0.0148008
771.262	0.0148248
771.340	0.0147880
771.418	0.0148087
771.496	0.0149130
771.575	0.0148827
771.653	0.0150298
771.731	0.0148870
771.809	0.0148434
771.887	0.0149623
771.965	0.0147257
772.043	0.0147375
772.121	0.0148866
772.200	0.0148083
772.278	0.0148662
772.356	0.0148607
772.434	0.0147955
772.512	0.0147075
772.590	0.0148315
772.668	0.0146967
772.746	0.0147991
772.825	0.0148930
772.903	0.0149253
772.981	0.0147750
773.059	0.0147826
773.137	0.0146818
773.215	0.0146768
773.293	0.0145863
773.371	0.0145643
773.450	0.0147047
773.528	0.0146786
773.606	0.0147187
773.684	0.0145544
773.762	0.0145489
773.840	0.0145629
773.918	0.0147027
773.996	0.0146767
774.075	0.0146091
774.153	0.0146125
774.231	0.0147227
774.309	0.0147084
774.387	0.0145984
774.465	0.0146300
774.543	0.0146366
774.621	0.0145750
774.700	0.0147685
774.778	0.0147900
774.856	0.0147709
774.934	0.0148539
775.012	0.0146351
775.090	0.0147780
775.168	0.0148307
775.246	0.0147951
775.325	0.0148805
775.403	0.0147359
775.481	0.0147453
775.559	0.0148772
775.637	0.0148621
775.715	0.0147599
775.793	0.0146945
775.871	0.0145544
775.950	0.0146640
776.028	0.0148682
776.106	0.0147849
776.184	0.0145766
776.262	0.0147057
776.340	0.0147256
776.418	0.0147955
776.496	0.0147629
776.575	0.0147791
776.653	0.0149187
776.731	0.0149863
776.809	0.0147640
776.887	0.0148573
776.965	0.0148463
777.043	0.0149295
777.121	0.0148665
777.200	0.0148412
777.278	0.0149918
777.356	0.0149621
777.434	0.0150401
777.512	0.0147153
777.590	0.0148068
777.668	0.0148584
777.746	0.0147675
777.825	0.0147218
777.903	0.0147488
777.981	0.0147401
778.059	0.0146722
778.137	0.0146245
778.215	0.0147778
778.293	0.0147084
778.371	0.0147468
778.450	0.0147313
778.528	0.0148495
778.606	0.0146259
778.684	0.0147650
778.762	0.0148413
778.840	0.0148744
778.918	0.0149142
778.996	0.0149370
779.075	0.0146465
779.153	0.0147578
779.231	0.0148000
779.309	0.0148333
779.387	0.0147306
779.465	0.0147489
779.543	0.0148742
779.621	0.0148383
779.700	0.0147997
779.778	0.0146604
779.856	0.0147967
779.934	0.0147623
780.012	0.0146800
780.090	0.0146798
780.168	0.0146220
780.246	0.0146782
780.325	0.0147365
780.403	0.0146992
780.481	0.0147102
780.559	0.0146911
780.637	0.0147652
780.715	0.0147607
780.793	0.0148141
780.871	0.0147849
780.950	0.0146556
781.028	0.0148289
781.106	0.0147630
781.184	0.0148431
781.262	0.0148044
781.340	0.0148888
781.418	0.0147251
781.496	0.0148557
781.575	0.0149722
781.653	0.0148228
781.731	0.0149004
781.809	0.0149063
781.887	0.0148043
781.965	0.0148502
782.043	0.0147542
782.121	0.0148208
782.200	0.0147684
782.278	0.0148809
782.356	0.0148238
782.434	0.0146307
782.512	0.0147124
782.590	0.0147519
782.668	0.0146864
782.746	0.0148700
782.825	0.0146875
782.903	0.0148146
782.981	0.0147484
783.059	0.0147360
783.137	0.0148320
783.215	0.0147501
783.293	0.0147717
783.371	0.0148391
783.450	0.0148802
783.528	0.0148215
783.606	0.0147873
783.684	0.0147488
783.762	0.0149628
783.840	0.0149414
783.918	0.0147795
783.996	0.0147674
784.075	0.0148786
784.153	0.0149842
784.231	0.0149738
784.309	0.0149038
784.387	0.0148917
784.465	0.0149755
784.543	0.0148813
784.621	0.0148437
784.700	0.0149053
784.778	0.0149000
784.856	0.0148024
784.934	0.0149388
785.012	0.0149353
785.090	0.0148737
785.168	0.0147681
785.246	0.0148341
785.325	0.0147746
785.403	0.0148190
785.481	0.0148666
785.559	0.0147590
785.637	0.0147545
785.715	0.0146933
785.793	0.0147780
785.871	0.0148254
785.950	0.0147251
786.028	0.0148263
786.106	0.0147484
786.184	0.0147495
786.262	0.0148997
786.340	0.0149115
786.418	0.0150175
786.496	0.0149186
786.575	0.0149231
786.653	0.0149473
786.731	0.0148380
786.809	0.0149746
786.887	0.0148882
786.965	0.0149162
787.043	0.0147659
787.121	0.0148413
787.200	0.0147794
787.278	0.0147167
787.356	0.0148354
787.434	0.0147881
787.512	0.0148234
787.590	0.0148981
787.668	0.0147190
787.746	0.0147975
787.825	0.0148063
787.903	0.0147412
787.981	0.0147821
788.059	0.0146928
788.137	0.0147726
788.215	0.0147104
788.293	0.0147064
788.371	0.0149570
788.450	0.0148502
788.528	0.0147426
788.606	0.0149990
788.684	0.0148540
788.762	0.0149410
788.840	0.0150046
788.918	0.0148124
788.996	0.0148344
789.075	0.0149478
789.153	0.0149413
789.231	0.0149725
789.309	0.0149130
789.387	0.0149368
789.465	0.0148703
789.543	0.0149890
789.621	0.0147933
789.700	0.0149051
789.778	0.0148774
789.856	0.0148596
789.934	0.0149444
790.012	0.0148874
790.090	0.0148936
790.168	0.0148329
790.246	0.0149229
790.325	0.0148038
790.403	0.0149270
790.481	0.0149124
790.559	0.0148417
790.637	0.0148788
790.715	0.0150049
790.793	0.0147408
790.871	0.0147849
790.950	0.0149603
791.028	0.0148708
791.106	0.0149494
791.184	0.0150270
791.262	0.0149911
791.340	0.0148650
791.418	0.0148116
791.496	0.0148248
791.575	0.0147092
791.653	0.0147389
791.731	0.0147693
791.809	0.0148003
791.887	0.0148186
791.965	0.0147008
792.043	0.0147595
792.121	0.0148336
792.200	0.0147978
792.278	0.0147755
792.356	0.0147573
792.434	0.0147670
792.512	0.0147738
792.590	0.0149815
792.668	0.0148485
792.746	0.0148432
792.825	0.0149957
792.903	0.0150573
792.981	0.0148875
793.059	0.0148392
793.137	0.0149466
793.215	0.0148993
793.293	0.0148788
793.371	0.0149430
793.450	0.0150157
793.528	0.0148539
793.606	0.0147692
793.684	0.0149643
793.762	0.0148067
793.840	0.0149836
793.918	0.0149893
793.996	0.0148676
794.075	0.0150013
794.153	0.0147781
794.231	0.0148711
794.309	0.0148768
794.387	0.0147121
794.465	0.0148672
794.543	0.0148834
794.621	0.0148283
794.700	0.0149178
794.778	0.0148743
794.856	0.0147068
794.934	0.0146596
795.012	0.0147683
795.090	0.0146745
795.168	0.0145641
795.246	0.0146706
795.325	0.0147861
795.403	0.0147110
795.481	0.0145731
795.559	0.0146657
795.637	0.0147948
795.715	0.0147445
795.793	0.0146950
795.871	0.0145998
795.950	0.0147960
796.028	0.0145561
796.106	0.0146023
796.184	0.0147112
796.262	0.0146055
796.340	0.0146502
796.418	0.0146082
796.496	0.0146902
796.575	0.0147072
796.653	0.0146515
796.731	0.0147700
796.809	0.0146618
796.887	0.0145966
796.965	0.0146867
797.043	0.0145086
797.121	0.0145733
797.200	0.0147031
797.278	0.0147189
797.356	0.0148707
797.434	0.0146581
797.512	0.0147438
797.590	0.0146257
797.668	0.0147463
797.746	0.0147651
797.825	0.0148475
797.903	0.0148994
797.981	0.0148310
798.059	0.0148063
798.137	0.0149171
798.215	0.0148038
798.293	0.0148062
798.371	0.0147896
798.450	0.0148824
798.528	0.0148010
798.606	0.0148856
798.684	0.0147141
798.762	0.0148498
798.840	0.0148040
798.918	0.0148476
798.996	0.0147564
799.075	0.0147879
799.153	0.0147886
799.231	0.0147731
799.309	0.0146801
799.387	0.0148162
799.465	0.0147461
799.543	0.0149374
799.621	0.0150086
799.700	0.0149314
799.778	0.0147115
799.856	0.0148088
799.934	0.0147668
800.012	0.0148531
800.090	0.0149251
800.168	0.0149717
800.246	0.0148170
800.325	0.0148420
800.403	0.0148107
800.481	0.0148768
800.559	0.0148292
800.637	0.0147987
800.715	0.0148798
800.793	0.0148238
800.871	0.0147936
800.950	0.0146362
801.028	0.0147515
801.106	0.0147270
801.184	0.0147823
801.262	0.0146590
801.340	0.0147467
801.418	0.0148602
801.496	0.0147626
801.575	0.0148592
801.653	0.0147762
801.731	0.0147906
801.809	0.0147751
801.887	0.0147127
801.965	0.0148303
802.043	0.0148438
802.121	0.0148202
802.200	0.0147987
802.278	0.0147414
802.356	0.0148407
802.434	0.0147124
802.512	0.0147970
802.590	0.0149065
802.668	0.0150036
802.746	0.0148861
802.825	0.0148856
802.903	0.0147223
802.981	0.0148757
803.059	0.0148531
803.137	0.0149495
803.215	0.0148678
803.293	0.0147482
803.371	0.0148412
803.450	0.0148170
803.528	0.0148481
803.606	0.0148386
803.684	0.0146320
803.762	0.0148367
803.840	0.0148331
803.918	0.0146418
803.996	0.0148484
804.075	0.0148898
804.153	0.0147445
804.231	0.0148025
804.309	0.0147581
804.387	0.0147211
804.465	0.0148225
804.543	0.0148196
804.621	0.0148971
804.700	0.0148199
804.778	0.0148908
804.856	0.0148497
804.934	0.0148061
805.012	0.0148992
805.090	0.0148983
805.168	0.0147693
805.246	0.0148254
805.325	0.0149516
805.403	0.0148892
805.481	0.0148571
805.559	0.0148528
805.637	0.0148388
805.715	0.0149789
805.793	0.0147162
805.871	0.0149187
805.950	0.0147817
806.028	0.0147859
806.106	0.0147992
806.184	0.0147497
806.262	0.0147895
806.340	0.0149395
806.418	0.0147342
806.496	0.0148228
806.575	0.0148373
806.653	0.0149459
806.731	0.0148421
806.809	0.0149088
806.887	0.0148913
806.965	0.0149208
807.043	0.0149903
807.121	0.0148208
807.200	0.0147867
807.278	0.0147952
807.356	0.0148006
807.434	0.0149163
807.512	0.0148218
807.590	0.0147742
807.668	0.0149014
807.746	0.0147941
807.825	0.0147881
807.903	0.0148020
807.981	0.0148254
808.059	0.0147245
808.137	0.0148305
808.215	0.0148563
808.293	0.0148254
808.371	0.0148080
808.450	0.0148926
808.528	0.0148719
808.606	0.0149514
808.684	0.0148346
808.762	0.0147819
808.840	0.0147982
808.918	0.0148681
808.996	0.0149306
809.075	0.0148778
809.153	0.0149261
809.231	0.0148133
809.309	0.0147549
809.387	0.0147089
809.465	0.0148240
809.543	0.0148116
809.621	0.0147053
809.700	0.0149861
809.778	0.0147819
809.856	0.0147522
809.934	0.0147657
810.012	0.0147006
810.090	0.0147803
810.168	0.0147096
810.246	0.0146902
810.325	0.0147208
810.403	0.0147082
810.481	0.0148873
810.559	0.0148161
810.637	0.0148146
810.715	0.0147174
810.793	0.0148215
810.871	0.0147692
810.950	0.0147652
811.028	0.0147684
811.106	0.0149431
811.184	0.0149612
811.262	0.0147976
811.340	0.0148786
811.418	0.0148888
811.496	0.0149486
811.575	0.0147988
811.653	0.0148926
811.731	0.0148576
811.809	0.0149438
811.887	0.0148099
811.965	0.0148325
812.043	0.0147628
812.121	0.0147646
812.200	0.0148540
812.278	0.0147502
812.356	0.0147722
812.434	0.0147301
812.512	0.0149324
812.590	0.0148494
812.668	0.0148570
812.746	0.0148943
812.825	0.0147970
812.903	0.0148641
812.981	0.0150071
813.059	0.0150338
813.137	0.0149886
813.215	0.0149394
813.293	0.0149406
813.371	0.0149798
813.450	0.0149075
813.528	0.0149627
813.606	0.0148295
813.684	0.0148909
813.762	0.0147940
813.840	0.0148084
813.918	0.0149673
813.996	0.0149036
814.075	0.0148122
814.153	0.0149039
814.231	0.0149210
814.309	0.0147710
814.387	0.0149662
814.465	0.0150158
814.543	0.0149390
814.621	0.0149196
814.700	0.0149303
814.778	0.0148805
814.856	0.0149744
814.934	0.0148640
815.012	0.0147956
815.090	0.0148745
815.168	0.0149013
815.246	0.0148613
815.325	0.0148748
815.403	0.0149218
815.481	0.0149973
815.559	0.0149406
815.637	0.0148336
815.715	0.0147736
815.793	0.0149832
815.871	0.0148395
815.950	0.0148792
816.028	0.0148285
816.106	0.0147156
816.184	0.0148767
816.262	0.0147212
816.340	0.0147441
816.418	0.0146268
816.496	0.0147417
816.575	0.0147250
816.653	0.0147750
816.731	0.0148946
816.809	0.0146964
816.887	0.0147645
816.965	0.0146628
817.043	0.0147432
817.121	0.0147956
817.200	0.0148141
817.278	0.0148209
817.356	0.0148656
817.434	0.0148494
817.512	0.0149120
817.590	0.0147491
817.668	0.0148267
817.746	0.0149189
817.825	0.0147187
817.903	0.0148524
817.981	0.0147988
818.059	0.0149259
818.137	0.0149692
818.215	0.0148768
818.293	0.0147385
818.371	0.0146793
818.450	0.0148095
818.528	0.0148787
818.606	0.0148466
818.684	0.0146172
818.762	0.0146812
818.840	0.0148641
818.918	0.0148495
818.996	0.0148059
819.075	0.0149185
819.153	0.0148888
819.231	0.0148344
819.309	0.0148259
819.387	0.0149147
819.465	0.0148289
819.543	0.0147279
819.621	0.0148788
819.700	0.0149265
819.778	0.0148662
819.856	0.0148969
819.934	0.0149778
820.012	0.0149800
820.090	0.0148129
820.168	0.0149782
820.246	0.0149052
820.325	0.0150036
820.403	0.0147736
820.481	0.0147782
820.559	0.0147146
820.637	0.0149292
820.715	0.0149344
820.793	0.0147157
820.871	0.0148822
820.950	0.0148585
821.028	0.0147305
821.106	0.0147745
821.184	0.0150408
821.262	0.0149294
821.340	0.0148374
821.418	0.0149364
821.496	0.0149584
821.575	0.0148858
821.653	0.0149307
821.731	0.0149527
821.809	0.0149216
821.887	0.0148647
821.965	0.0148939
822.043	0.0148573
822.121	0.0148125
822.200	0.0149234
822.278	0.0147997
822.356	0.0148006
822.434	0.0148537
822.512	0.0145722
822.590	0.0149268
822.668	0.0148665
822.746	0.0148026
822.825	0.0147598
822.903	0.0148287
822.981	0.0147292
823.059	0.0148231
823.137	0.0147849
823.215	0.0148318
823.293	0.0149496
823.371	0.0148717
823.450	0.0148568
823.528	0.0149639
823.606	0.0149142
823.684	0.0150107
823.762	0.0147911
823.840	0.0149110
823.918	0.0148945
823.996	0.0148167
824.075	0.0149036
824.153	0.0148183
824.231	0.0149427
824.309	0.0148521
824.387	0.0147858
824.465	0.0149103
824.543	0.0148931
824.621	0.0148188
824.700	0.0148732
824.778	0.0148943
824.856	0.0148209
824.934	0.0149345
825.012	0.0149868
825.090	0.0149594
825.168	0.0150129
825.246	0.0150365
825.325	0.0149970
825.403	0.0149041
825.481	0.0149863
825.559	0.0149266
825.637	0.0149355
825.715	0.0148997
825.793	0.0148274
825.871	0.0147688
825.950	0.0148571
826.028	0.0147504
826.106	0.0147401
826.184	0.0147475
826.262	0.0146607
826.340	0.0147227
826.418	0.0147220
826.496	0.0147585
826.575	0.0147596
826.653	0.0147896
826.731	0.0148464
826.809	0.0148473
826.887	0.0147810
826.965	0.0148128
827.043	0.0148034
827.121	0.0148219
827.200	0.0147825
827.278	0.0147989
827.356	0.0148167
827.434	0.0147877
827.512	0.0148917
827.590	0.0147556
827.668	0.0148322
827.746	0.0146438
827.825	0.0147357
827.903	0.0147005
827.981	0.0148995
828.059	0.0147288
828.137	0.0147934
828.215	0.0149075
828.293	0.0149300
828.371	0.0147402
828.450	0.0145885
828.528	0.0147121
828.606	0.0149686
828.684	0.0148333
828.762	0.0148080
828.840	0.0148248
828.918	0.0150002
828.996	0.0148853
829.075	0.0148212
829.153	0.0148559
829.231	0.0148907
829.309	0.0148881
829.387	0.0148788
829.465	0.0148830
829.543	0.0149818
829.621	0.0148394
829.700	0.0149973
829.778	0.0149313
829.856	0.0147987
829.934	0.0148894
830.012	0.0148106
830.090	0.0148396
830.168	0.0147523
830.246	0.0147327
830.325	0.0147948
830.403	0.0148421
830.481	0.0147755
830.559	0.0147939
830.637	0.0146360
830.715	0.0146655
830.793	0.0146797
830.871	0.0145892
830.950	0.0147425
831.028	0.0147369
831.106	0.0147019
831.184	0.0146831
831.262	0.0147750
831.340	0.0148108
831.418	0.0148457
831.496	0.0147627
831.575	0.0146387
831.653	0.0146705
831.731	0.0147008
831.809	0.0146985
831.887	0.0148122
831.965	0.0147332
832.043	0.0148446
832.121	0.0147877
832.200	0.0147114
832.278	0.0146890
832.356	0.0147846
832.434	0.0147729
832.512	0.0146992
832.590	0.0146848
832.668	0.0146925
832.746	0.0147363
832.825	0.0147264
832.903	0.0147754
832.981	0.0148694
833.059	0.0148335
833.137	0.0146673
833.215	0.0147576
833.293	0.0147135
833.371	0.0148690
833.450	0.0147491
833.528	0.0147573
833.606	0.0147305
833.684	0.0147649
833.762	0.0148149
833.840	0.0147812
833.918	0.0147350
833.996	0.0148116
834.075	0.0147906
834.153	0.0148718
834.231	0.0148309
834.309	0.0147055
834.387	0.0148402
834.465	0.0147797
834.543	0.0146589
834.621	0.0147289
834.700	0.0148861
834.778	0.0148384
834.856	0.0148463
834.934	0.0149200
835.012	0.0148288
835.090	0.0147871
835.168	0.0148126
835.246	0.0148756
835.325	0.0147319
835.403	0.0147576
835.481	0.0147866
835.559	0.0147498
835.637	0.0148292
835.715	0.0146664
835.793	0.0147258
835.871	0.0147603
835.950	0.0147124
836.028	0.0147147
836.106	0.0148338
836.184	0.0146120
836.262	0.0147948
836.340	0.0147399
836.418	0.0147560
836.496	0.0148495
836.575	0.0148536
836.653	0.0149160
836.731	0.0149575
836.809	0.0149550
836.887	0.0149318
836.965	0.0149005
837.043	0.0149187
837.121	0.0148779
837.200	0.0148765
837.278	0.0149223
837.356	0.0150271
837.434	0.0150332
837.512	0.0149019
837.590	0.0147753
837.668	0.0147516
837.746	0.0149078
837.825	0.0148367
837.903	0.0147527
837.981	0.0148605
838.059	0.0149371
838.137	0.0147392
838.215	0.0147028
838.293	0.0147561
838.371	0.0148829
838.450	0.0146988
838.528	0.0149771
838.606	0.0148845
838.684	0.0148751
838.762	0.0147764
838.840	0.0149349
838.918	0.0149677
838.996	0.0149113
839.075	0.0148867
839.153	0.0149005
839.231	0.0148383
839.309	0.0149146
839.387	0.0150145
839.465	0.0149419
839.543	0.0148772
839.621	0.0148759
839.700	0.0148186
839.778	0.0148375
839.856	0.0148309
839.934	0.0149810
840.012	0.0148525
840.090	0.0150842
840.168	0.0148771
840.246	0.0147912
840.325	0.0148529
840.403	0.0147356
840.481	0.0148123
840.559	0.0148729
840.637	0.0148643
840.715	0.0148330
840.793	0.0150092
840.871	0.0148103
840.950	0.0148264
841.028	0.0150330
841.106	0.0149104
841.184	0.0149983
841.262	0.0150231
841.340	0.0149901
841.418	0.0149129
841.496	0.0151009
841.575	0.0150720
841.653	0.0150085
841.731	0.0149345
841.809	0.0149686
841.887	0.0151305
841.965	0.0150739
842.043	0.0152261
842.121	0.0148997
842.200	0.0148654
842.278	0.0149968
842.356	0.0151290
842.434	0.0149640
842.512	0.0148443
842.590	0.0149092
842.668	0.0148746
842.746	0.0148344
842.825	0.0148256
842.903	0.0148611
842.981	0.0148253
843.059	0.0148216
843.137	0.0146628
843.215	0.0149249
843.293	0.0148312
843.371	0.0148015
843.450	0.0148352
843.528	0.0148363
843.606	0.0150163
843.684	0.0149036
843.762	0.0149247
843.840	0.0149434
843.918	0.0149324
843.996	0.0148327
844.075	0.0149409
844.153	0.0148859
844.231	0.0148110
844.309	0.0148886
844.387	0.0148547
844.465	0.0149017
844.543	0.0148431
844.621	0.0147896
844.700	0.0148792
844.778	0.0147875
844.856	0.0147978
844.934	0.0147959
845.012	0.0148375
845.090	0.0148409
845.168	0.0147658
845.246	0.0148589
845.325	0.0149309
845.403	0.0148707
845.481	0.0147974
845.559	0.0149150
845.637	0.0149279
845.715	0.0149082
845.793	0.0149001
845.871	0.0147594
845.950	0.0148402
846.028	0.0147800
846.106	0.0150099
846.184	0.0149796
846.262	0.0148556
846.340	0.0149084
846.418	0.0148267
846.496	0.0147583
846.575	0.0149505
846.653	0.0149982
846.731	0.0148765
846.809	0.0148878
846.887	0.0147841
846.965	0.0147984
847.043	0.0148903
847.121	0.0149353
847.200	0.0147971
847.278	0.0149139
847.356	0.0149857
847.434	0.0148595
847.512	0.0147455
847.590	0.0148769
847.668	0.0149732
847.746	0.0149271
847.825	0.0148041
847.903	0.0149274
847.981	0.0149142
848.059	0.0147462
848.137	0.0146260
848.215	0.0148351
848.293	0.0149450
848.371	0.0146841
848.450	0.0148440
848.528	0.0147878
848.606	0.0148544
848.684	0.0146651
848.762	0.0148440
848.840	0.0148146
848.918	0.0147997
848.996	0.0147401
849.075	0.0147968
849.153	0.0148086
849.231	0.0148573
849.309	0.0148324
849.387	0.0149833
849.465	0.0150225
849.543	0.0151449
849.621	0.0151385
849.700	0.0148125
849.778	0.0150954
849.856	0.0149850
849.934	0.0148999
850.012	0.0149647
850.090	0.0149171
850.168	0.0148913
850.246	0.0148286
850.325	0.0148431
850.403	0.0148399
850.481	0.0148515
850.559	0.0146790
850.637	0.0147739
850.715	0.0147962
850.793	0.0146265
850.871	0.0148227
850.950	0.0147637
851.028	0.0147335
851.106	0.0147375
851.184	0.0148232
851.262	0.0148545
851.340	0.0149377
851.418	0.0147822
851.496	0.0147131
851.575	0.0147623
851.653	0.0147733
851.731	0.0147063
851.809	0.0147975
851.887	0.0148763
851.965	0.0147917
852.043	0.0147468
852.121	0.0148969
852.200	0.0147354
852.278	0.0146742
852.356	0.0148045
852.434	0.0149059
852.512	0.0148169
852.590	0.0147199
852.668	0.0147827
852.746	0.0147381
852.825	0.0147733
852.903	0.0148262
852.981	0.0148130
853.059	0.0148175
853.137	0.0148541
853.215	0.0149576
853.293	0.0149179
853.371	0.0148778
853.450	0.0149442
853.528	0.0148761
853.606	0.0149873
853.684	0.0148987
853.762	0.0148893
853.840	0.0149068
853.918	0.0147279
853.996	0.0146836
854.075	0.0149030
854.153	0.0148644
854.231	0.0147504
854.309	0.0147708
854.387	0.0147694
854.465	0.0147032
854.543	0.0147150
854.621	0.0147191
854.700	0.0148292
854.778	0.0148956
854.856	0.0148386
854.934	0.0148358
855.012	0.0148429
855.090	0.0149169
855.168	0.0149815
855.246	0.0148808
855.325	0.0149268
855.403	0.0149454
855.481	0.0148321
855.559	0.0148671
855.637	0.0149399
855.715	0.0148836
855.793	0.0148353
855.871	0.0149226
855.950	0.0149118
856.028	0.0148746
856.106	0.0147558
856.184	0.0147408
856.262	0.0146721
856.340	0.0147895
856.418	0.0146960
856.496	0.0147316
856.575	0.0146429
856.653	0.0145705
856.731	0.0146149
856.809	0.0145293
856.887	0.0146542
856.965	0.0145813
857.043	0.0146233
857.121	0.0147322
857.200	0.0147142
857.278	0.0146152
857.356	0.0147543
857.434	0.0146428
857.512	0.0146963
857.590	0.0148486
857.668	0.0147391
857.746	0.0146917
857.825	0.0147543
857.903	0.0148035
857.981	0.0148109
858.059	0.0148734
858.137	0.0147609
858.215	0.0147189
858.293	0.0147406
858.371	0.0147913
858.450	0.0148301
858.528	0.0147496
858.606	0.0145805
858.684	0.0146392
858.762	0.0146576
858.840	0.0146432
858.918	0.0147630
858.996	0.0147702
859.075	0.0147031
859.153	0.0146461
859.231	0.0147594
859.309	0.0147408
859.387	0.0146742
859.465	0.0146046
859.543	0.0147421
859.621	0.0146561
859.700	0.0146427
859.778	0.0146650
859.856	0.0147181
859.934	0.0147704
860.012	0.0146810
860.090	0.0148635
860.168	0.0147980
860.246	0.0147801
860.325	0.0147218
860.403	0.0148769
860.481	0.0148228
860.559	0.0147821
860.637	0.0146653
860.715	0.0147991
860.793	0.0148293
860.871	0.0148280
860.950	0.0149119
861.028	0.0148643
861.106	0.0146524
861.184	0.0147565
861.262	0.0147845
861.340	0.0147820
861.418	0.0148648
861.496	0.0147478
861.575	0.0147705
861.653	0.0148251
861.731	0.0148206
861.809	0.0147330
861.887	0.0147436
861.965	0.0148571
862.043	0.0148128
862.121	0.0148309
862.200	0.0148447
862.278	0.0147334
862.356	0.0148119
862.434	0.0148867
862.512	0.0149350
862.590	0.0148486
862.668	0.0148566
862.746	0.0148326
862.825	0.0148965
862.903	0.0148129
862.981	0.0148489
863.059	0.0147478
863.137	0.0148475
863.215	0.0148479
863.293	0.0147426
863.371	0.0148615
863.450	0.0150008
863.528	0.0148402
863.606	0.0148501
863.684	0.0148209
863.762	0.0147209
863.840	0.0148740
863.918	0.0149045
863.996	0.0146317
864.075	0.0147800
864.153	0.0149244
864.231	0.0147697
864.309	0.0148898
864.387	0.0149077
864.465	0.0148512
864.543	0.0147634
864.621	0.0147559
864.700	0.0147955
864.778	0.0146349
864.856	0.0146471
864.934	0.0146859
865.012	0.0148319
865.090	0.0150002
865.168	0.0148943
865.246	0.0147267
865.325	0.0148103
865.403	0.0149400
865.481	0.0148510
865.559	0.0148573
865.637	0.0149927
865.715	0.0148956
865.793	0.0149793
865.871	0.0147744
865.950	0.0149289
866.028	0.0148291
866.106	0.0148624
866.184	0.0148702
866.262	0.0147929
866.340	0.0148099
866.418	0.0149979
866.496	0.0147569
866.575	0.0148209
866.653	0.0150290
866.731	0.0149506
866.809	0.0148276
866.887	0.0147569
866.965	0.0149201
867.043	0.0147525
867.121	0.0148974
867.200	0.0147991
867.278	0.0147578
867.356	0.0148167
867.434	0.0148425
867.512	0.0149171
867.590	0.0148781
867.668	0.0148402
867.746	0.0148343
867.825	0.0148605
867.903	0.0149986
867.981	0.0150752
868.059	0.0149734
868.137	0.0147179
868.215	0.0149649
868.293	0.0148923
868.371	0.0148754
868.450	0.0149178
868.528	0.0149955
868.606	0.0148357
868.684	0.0148781
868.762	0.0149293
868.840	0.0149194
868.918	0.0149208
868.996	0.0149062
869.075	0.0148192
869.153	0.0147107
869.231	0.0147252
869.309	0.0148763
869.387	0.0149696
869.465	0.0149322
869.543	0.0148959
869.621	0.0149799
869.700	0.0149129
869.778	0.0148018
869.856	0.0150251
869.934	0.0148324
870.012	0.0148610
870.090	0.0149703
870.168	0.0147806
870.246	0.0148212
870.325	0.0148981
870.403	0.0148645
870.481	0.0148561
870.559	0.0148540
870.637	0.0148078
870.715	0.0149350
870.793	0.0148007
870.871	0.0147472
870.950	0.0147318
871.028	0.0148093
871.106	0.0148176
871.184	0.0148277
871.262	0.0147451
871.340	0.0147624
871.418	0.0148451
871.496	0.0147927
871.575	0.0148463
871.653	0.0147430
871.731	0.0147620
871.809	0.0148409
871.887	0.0148025
871.965	0.0148164
872.043	0.0148725
872.121	0.0149197
872.200	0.0150097
872.278	0.0148529
872.356	0.0149148
872.434	0.0148330
872.512	0.0147842
872.590	0.0149196
872.668	0.0147982
872.746	0.0149280
872.825	0.0150595
872.903	0.0148487
872.981	0.0148313
873.059	0.0148437
873.137	0.0148226
873.215	0.0147878
873.293	0.0149175
873.371	0.0148139
873.450	0.0149073
873.528	0.0148520
873.606	0.0148848
873.684	0.0148251
873.762	0.0147647
873.840	0.0148934
873.918	0.0146632
873.996	0.0149287
874.075	0.0148083
874.153	0.0148299
874.231	0.0148017
874.309	0.0148639
874.387	0.0147666
874.465	0.0147936
874.543	0.0148512
874.621	0.0147431
874.700	0.0148002
874.778	0.0147452
874.856	0.0147470
874.934	0.0147523
875.012	0.0146965
875.090	0.0147906
875.168	0.0146684
875.246	0.0147528
875.325	0.0146886
875.403	0.0147923
875.481	0.0147165
875.559	0.0148076
875.637	0.0147543
875.715	0.0148499
875.793	0.0148276
875.871	0.0147745
875.950	0.0148800
876.028	0.0148030
876.106	0.0147094
876.184	0.0148916
876.262	0.0147610
876.340	0.0147374
876.418	0.0147224
876.496	0.0147231
876.575	0.0147837
876.653	0.0147303
876.731	0.0146064
876.809	0.0146293
876.887	0.0146893
876.965	0.0147361
877.043	0.0147305
877.121	0.0146120
877.200	0.0148016
877.278	0.0146857
877.356	0.0147330
877.434	0.0147916
877.512	0.0146992
877.590	0.0147910
877.668	0.0148150
877.746	0.0147672
877.825	0.0147405
877.903	0.0147176
877.981	0.0148534
878.059	0.0147956
878.137	0.0148186
878.215	0.0149052
878.293	0.0148866
878.371	0.0148576
878.450	0.0148685
878.528	0.0148937
878.606	0.0148390
878.684	0.0148258
878.762	0.0149251
878.840	0.0149284
878.918	0.0149338
878.996	0.0148398
879.075	0.0148454
879.153	0.0146259
879.231	0.0148148
879.309	0.0148215
879.387	0.0146999
879.465	0.0146902
879.543	0.0147250
879.621	0.0145278
879.700	0.0145703
879.778	0.0147036
879.856	0.0146903
879.934	0.0146046
880.012	0.0146992
880.090	0.0146817
880.168	0.0147414
880.246	0.0147832
880.325	0.0147368
880.403	0.0147195
880.481	0.0146013
880.559	0.0147207
880.637	0.0145628
880.715	0.0147417
880.793	0.0147427
880.871	0.0147803
880.950	0.0147016
881.028	0.0147499
881.106	0.0148474
881.184	0.0148364
881.262	0.0148360
881.340	0.0147446
881.418	0.0149273
881.496	0.0149083
881.575	0.0147942
881.653	0.0147733
881.731	0.0148129
881.809	0.0149144
881.887	0.0148286
881.965	0.0148387
882.043	0.0148620
882.121	0.0146620
882.200	0.0145357
882.278	0.0146186
882.356	0.0147770
882.434	0.0148067
882.512	0.0145809
882.590	0.0147503
882.668	0.0147878
882.746	0.0147630
882.825	0.0146426
882.903	0.0146996
882.981	0.0147013
883.059	0.0147359
883.137	0.0148200
883.215	0.0148171
883.293	0.0148277
883.371	0.0148322
883.450	0.0147945
883.528	0.0148751
883.606	0.0149436
883.684	0.0148682
883.762	0.0148553
883.840	0.0148658
883.918	0.0147803
883.996	0.0148933
884.075	0.0148331
884.153	0.0147987
884.231	0.0147319
884.309	0.0146935
884.387	0.0146657
884.465	0.0146451
884.543	0.0147336
884.621	0.0146921
884.700	0.0146364
884.778	0.0147440
884.856	0.0145837
884.934	0.0146238
885.012	0.0146384
885.090	0.0147414
885.168	0.0147179
885.246	0.0146505
885.325	0.0146987
885.403	0.0147905
885.481	0.0147350
885.559	0.0147947
885.637	0.0147121
885.715	0.0146603
885.793	0.0148256
885.871	0.0148790
885.950	0.0148120
886.028	0.0149017
886.106	0.0148444
886.184	0.0148486
886.262	0.0148052
886.340	0.0147573
886.418	0.0146854
886.496	0.0147678
886.575	0.0148283
886.653	0.0147553
886.731	0.0147212
886.809	0.0148015
886.887	0.0148104
886.965	0.0148090
887.043	0.0147508
887.121	0.0145952
887.200	0.0147095
887.278	0.0148081
887.356	0.0148807
887.434	0.0148785
887.512	0.0149094
887.590	0.0149702
887.668	0.0148405
887.746	0.0148721
887.825	0.0149580
887.903	0.0148502
887.981	0.0149831
888.059	0.0149486
888.137	0.0148698
888.215	0.0149869
888.293	0.0150060
888.371	0.0149373
888.450	0.0148507
888.528	0.0147340
888.606	0.0148363
888.684	0.0147742
888.762	0.0148431
888.840	0.0147817
888.918	0.0146523
888.996	0.0147044
889.075	0.0148130
889.153	0.0147677
889.231	0.0148435
889.309	0.0147803
889.387	0.0147636
889.465	0.0149197
889.543	0.0146978
889.621	0.0149068
889.700	0.0148698
889.778	0.0148962
889.856	0.0149781
889.934	0.0150107
890.012	0.0149426
890.090	0.0150055
890.168	0.0148158
890.246	0.0148898
890.325	0.0148632
890.403	0.0147637
890.481	0.0148739
890.559	0.0147506
890.637	0.0146556
890.715	0.0148542
890.793	0.0148484
890.871	0.0147263
890.950	0.0147873
891.028	0.0148764
891.106	0.0145872
891.184	0.0148057
891.262	0.0147402
891.340	0.0147778
891.418	0.0148780
891.496	0.0149364
891.575	0.0148454
891.653	0.0148179
891.731	0.0148026
891.809	0.0148545
891.887	0.0147333
891.965	0.0147932
892.043	0.0148494
892.121	0.0149551
892.200	0.0149182
892.278	0.0148013
892.356	0.0149203
892.434	0.0148561
892.512	0.0148995
892.590	0.0148626
892.668	0.0148138
892.746	0.0148629
892.825	0.0148993
892.903	0.0146163
892.981	0.0148046
893.059	0.0148598
893.137	0.0147433
893.215	0.0146309
893.293	0.0147041
893.371	0.0149214
893.450	0.0148586
893.528	0.0147562
893.606	0.0146885
893.684	0.0149826
893.762	0.0149025
893.840	0.0148213
893.918	0.0149294
893.996	0.0147396
894.075	0.0148635
894.153	0.0149729
894.231	0.0149469
894.309	0.0149073
894.387	0.0148474
894.465	0.0148074
894.543	0.0146604
894.621	0.0146923
894.700	0.0147266
894.778	0.0147713
894.856	0.0145752
894.934	0.0145531
895.012	0.0145551
895.090	0.0146909
895.168	0.0146510
895.246	0.0146957
895.325	0.0145885
895.403	0.0146531
895.481	0.0145921
895.559	0.0146938
895.637	0.0150030
895.715	0.0149121
895.793	0.0148904
895.871	0.0149113
895.950	0.0149287
896.028	0.0148227
896.106	0.0149046
896.184	0.0149526
896.262	0.0149271
896.340	0.0149379
896.418	0.0149535
896.496	0.0148219
896.575	0.0148685
896.653	0.0148572
896.731	0.0147293
896.809	0.0148109
896.887	0.0149056
896.965	0.0148341
897.043	0.0146812
897.121	0.0147997
897.200	0.0149350
897.278	0.0148227
897.356	0.0149815
897.434	0.0149452
897.512	0.0147665
897.590	0.0148654
897.668	0.0148408
897.746	0.0150032
897.825	0.0148535
897.903	0.0148431
897.981	0.0148918
898.059	0.0148769
898.137	0.0148281
898.215	0.0147778
898.293	0.0148808
898.371	0.0149677
898.450	0.0147941
898.528	0.0148718
898.606	0.0148589
898.684	0.0147408
898.762	0.0148006
898.840	0.0147922
898.918	0.0148567
898.996	0.0148253
899.075	0.0147034
899.153	0.0148157
899.231	0.0146966
899.309	0.0146800
899.387	0.0148083
899.465	0.0148014
899.543	0.0147070
899.621	0.0148360
899.700	0.0146026
899.778	0.0147701
899.856	0.0148359
899.934	0.0149801
900.012	0.0149084
900.090	0.0148818
900.168	0.0148378
900.246	0.0148236
900.325	0.0148633
900.403	0.0148875
900.481	0.0148149
900.559	0.0146925
900.637	0.0148154
900.715	0.0146716
900.793	0.0147652
900.871	0.0147280
900.950	0.0145781
901.028	0.0146322
901.106	0.0146340
901.184	0.0146496
901.262	0.0145411
901.340	0.0145264
901.418	0.0146703
901.496	0.0146468
901.575	0.0147827
901.653	0.0148338
901.731	0.0148849
901.809	0.0149378
901.887	0.0149223
901.965	0.0148300
902.043	0.0149198
902.121	0.0149092
902.200	0.0150448
902.278	0.0149616
902.356	0.0148364
902.434	0.0150218
902.512	0.0148391
902.590	0.0147885
902.668	0.0148081
902.746	0.0147401
902.825	0.0146701
902.903	0.0147573
902.981	0.0146995
903.059	0.0147519
903.137	0.0146410
903.215	0.0147329
903.293	0.0146661
903.371	0.0146210
903.450	0.0146644
903.528	0.0146862
903.606	0.0146783
903.684	0.0147697
903.762	0.0148499
903.840	0.0149155
903.918	0.0147895
903.996	0.0148685
904.075	0.0148764
904.153	0.0146981
904.231	0.0149424
904.309	0.0148784
904.387	0.0147717
904.465	0.0148336
904.543	0.0149249
904.621	0.0149297
904.700	0.0147939
904.778	0.0148985
904.856	0.0148141
904.934	0.0148167
905.012	0.0148167
905.090	0.0146996
905.168	0.0147906
905.246	0.0147818
905.325	0.0146243
905.403	0.0147715
905.481	0.0146703
905.559	0.0146429
905.637	0.0146592
905.715	0.0145370
905.793	0.0147595
905.871	0.0148336
905.950	0.0147728
906.028	0.0146252
906.106	0.0146217
906.184	0.0149037
906.262	0.0148058
906.340	0.0146581
906.418	0.0147765
906.496	0.0149625
906.575	0.0147298
906.653	0.0149708
906.731	0.0150278
906.809	0.0148309
906.887	0.0149417
906.965	0.0148636
907.043	0.0149303
907.121	0.0150488
907.200	0.0149001
907.278	0.0148167
907.356	0.0148662
907.434	0.0148472
907.512	0.0147765
907.590	0.0148164
907.668	0.0148016
907.746	0.0148250
907.825	0.0147731
907.903	0.0148094
907.981	0.0146735
908.059	0.0148102
908.137	0.0148079
908.215	0.0147380
908.293	0.0147491
908.371	0.0148645
908.450	0.0147990
908.528	0.0148175
908.606	0.0147028
908.684	0.0147563
908.762	0.0147724
908.840	0.0149283
908.918	0.0148705
908.996	0.0149059
909.075	0.0149820
909.153	0.0147843
909.231	0.0146787
909.309	0.0150128
909.387	0.0149547
909.465	0.0149493
909.543	0.0149014
909.621	0.0147519
909.700	0.0149792
909.778	0.0149013
909.856	0.0147945
909.934	0.0150008
910.012	0.0148743
910.090	0.0148616
910.168	0.0147084
910.246	0.0147095
910.325	0.0148550
910.403	0.0147742
910.481	0.0148866
910.559	0.0149390
910.637	0.0148548
910.715	0.0147084
910.793	0.0148403
910.871	0.0146756
910.950	0.0147079
911.028	0.0147178
911.106	0.0148288
911.184	0.0146597
911.262	0.0147239
911.340	0.0148122
911.418	0.0147918
911.496	0.0147144
911.575	0.0147743
911.653	0.0148979
911.731	0.0147237
911.809	0.0147138
911.887	0.0148670
911.965	0.0149050
912.043	0.0148321
912.121	0.0149294
912.200	0.0148490
912.278	0.0147440
912.356	0.0148378
912.434	0.0147614
912.512	0.0148811
912.590	0.0147890
912.668	0.0148238
912.746	0.0146976
912.825	0.0147398
912.903	0.0147945
912.981	0.0147983
913.059	0.0147909
913.137	0.0146983
913.215	0.0146606
913.293	0.0146988
913.371	0.0147499
913.450	0.0147332
913.528	0.0149144
913.606	0.0147760
913.684	0.0146373
913.762	0.0146833
913.840	0.0147939
913.918	0.0148344
913.996	0.0149030
914.075	0.0147340
914.153	0.0148302
914.231	0.0148682
914.309	0.0149153
914.387	0.0147625
914.465	0.0147877
914.543	0.0148192
914.621	0.0147640
914.700	0.0149012
914.778	0.0149029
914.856	0.0148524
914.934	0.0148057
915.012	0.0148100
915.090	0.0148425
915.168	0.0147659
915.246	0.0148425
915.325	0.0147955
915.403	0.0148590
915.481	0.0147683
915.559	0.0149257
915.637	0.0147294
915.715	0.0148430
915.793	0.0147368
915.871	0.0146912
915.950	0.0147951
916.028	0.0146658
916.106	0.0146841
916.184	0.0148378
916.262	0.0147742
916.340	0.0147902
916.418	0.0147648
916.496	0.0147984
916.575	0.0148474
916.653	0.0147797
916.731	0.0149640
916.809	0.0147964
916.887	0.0147797
916.965	0.0149448
917.043	0.0147915
917.121	0.0148144
917.200	0.0146736
917.278	0.0148666
917.356	0.0148811
917.434	0.0147858
917.512	0.0149068
917.590	0.0148328
917.668	0.0147435
917.746	0.0147485
917.825	0.0147746
917.903	0.0147728
917.981	0.0147266
918.059	0.0148096
918.137	0.0148436
918.215	0.0149280
918.293	0.0147926
918.371	0.0147882
918.450	0.0148658
918.528	0.0147842
918.606	0.0148014
918.684	0.0148367
918.762	0.0148135
918.840	0.0148579
918.918	0.0147688
918.996	0.0148016
919.075	0.0148251
919.153	0.0146252
919.231	0.0147705
919.309	0.0147096
919.387	0.0147572
919.465	0.0148201
919.543	0.0147646
919.621	0.0146101
919.700	0.0146102
919.778	0.0146720
919.856	0.0148155
919.934	0.0147836
920.012	0.0147256
920.090	0.0147325
920.168	0.0148241
920.246	0.0147114
920.325	0.0146968
920.403	0.0147414
920.481	0.0148122
920.559	0.0147235
920.637	0.0148562
920.715	0.0148067
920.793	0.0148443
920.871	0.0148835
920.950	0.0149171
921.028	0.0147742
921.106	0.0148686
921.184	0.0148843
921.262	0.0149281
921.340	0.0147636
921.418	0.0147581
921.496	0.0148420
921.575	0.0148103
921.653	0.0148072
921.731	0.0148694
921.809	0.0150512
921.887	0.0149017
921.965	0.0148875
922.043	0.0148297
922.121	0.0147849
922.200	0.0149957
922.278	0.0148507
922.356	0.0147187
922.434	0.0149004
922.512	0.0147673
922.590	0.0149010
922.668	0.0149490
922.746	0.0149353
922.825	0.0148521
922.903	0.0149041
922.981	0.0149508
923.059	0.0149328
923.137	0.0148112
923.215	0.0148766
923.293	0.0148776
923.371	0.0148513
923.450	0.0150023
923.528	0.0149460
923.606	0.0150307
923.684	0.0147806
923.762	0.0148483
923.840	0.0149113
923.918	0.0149009
923.996	0.0149137
924.075	0.0149921
924.153	0.0148621
924.231	0.0148978
924.309	0.0150508
924.387	0.0147440
924.465	0.0149773
924.543	0.0148943
924.621	0.0148604
924.700	0.0147446
924.778	0.0147726
924.856	0.0148281
924.934	0.0150117
925.012	0.0149264
925.090	0.0148415
925.168	0.0148853
925.246	0.0148845
925.325	0.0149728
925.403	0.0149543
925.481	0.0150335
925.559	0.0150031
925.637	0.0149725
925.715	0.0147771
925.793	0.0149007
925.871	0.0148884
925.950	0.0149669
926.028	0.0149100
926.106	0.0148463
926.184	0.0148193
926.262	0.0148634
926.340	0.0148669
926.418	0.0147526
926.496	0.0148179
926.575	0.0147581
926.653	0.0148618
926.731	0.0148003
926.809	0.0148197
926.887	0.0147634
926.965	0.0147449
927.043	0.0147354
927.121	0.0148083
927.200	0.0146199
927.278	0.0148394
927.356	0.0148533
927.434	0.0148685
927.512	0.0149502
927.590	0.0148385
927.668	0.0148244
927.746	0.0148860
927.825	0.0147984
927.903	0.0148423
927.981	0.0147218
928.059	0.0148750
928.137	0.0148486
928.215	0.0147406
928.293	0.0148485
928.371	0.0148322
928.450	0.0149376
928.528	0.0147024
928.606	0.0146735
928.684	0.0147770
928.762	0.0148684
928.840	0.0148489
928.918	0.0147725
928.996	0.0147258
929.075	0.0147314
929.153	0.0147647
929.231	0.0146762
929.309	0.0149358
929.387	0.0148007
929.465	0.0146649
929.543	0.0148096
929.621	0.0148127
929.700	0.0147856
929.778	0.0148670
929.856	0.0147394
929.934	0.0147503
930.012	0.0147816
930.090	0.0148492
930.168	0.0147446
930.246	0.0149519
930.325	0.0148096
930.403	0.0146443
930.481	0.0148215
930.559	0.0148535
930.637	0.0148779
930.715	0.0147736
930.793	0.0147313
930.871	0.0149122
930.950	0.0148728
931.028	0.0147303
931.106	0.0148008
931.184	0.0147073
931.262	0.0147160
931.340	0.0148624
931.418	0.0147755
931.496	0.0146885
931.575	0.0147533
931.653	0.0146024
931.731	0.0146406
931.809	0.0147765
931.887	0.0147821
931.965	0.0146973
932.043	0.0148228
932.121	0.0146696
932.200	0.0148640
932.278	0.0147346
932.356	0.0147665
932.434	0.0147934
932.512	0.0148418
932.590	0.0147298
932.668	0.0147005
932.746	0.0146672
932.825	0.0148843
932.903	0.0148286
932.981	0.0146191
933.059	0.0147971
933.137	0.0148088
933.215	0.0148436
933.293	0.0148171
933.371	0.0148730
933.450	0.0146342
933.528	0.0146523
933.606	0.0146552
933.684	0.0148037
933.762	0.0148586
933.840	0.0148544
933.918	0.0147680
933.996	0.0146772
934.075	0.0148204
934.153	0.0147430
934.231	0.0148022
934.309	0.0148006
934.387	0.0148152
934.465	0.0147682
934.543	0.0148973
934.621	0.0148303
934.700	0.0147686
934.778	0.0148399
934.856	0.0149688
934.934	0.0148859
935.012	0.0148620
935.090	0.0149960
935.168	0.0149313
935.246	0.0147807
935.325	0.0147511
935.403	0.0148756
935.481	0.0149795
935.559	0.0148906
935.637	0.0147758
935.715	0.0147941
935.793	0.0149883
935.871	0.0147751
935.950	0.0146944
936.028	0.0147865
936.106	0.0147100
936.184	0.0146954
936.262	0.0146649
936.340	0.0147545
936.418	0.0145751
936.496	0.0147263
936.575	0.0147405
936.653	0.0146926
936.731	0.0147830
936.809	0.0148310
936.887	0.0146616
936.965	0.0146676
937.043	0.0148009
937.121	0.0148051
937.200	0.0147311
937.278	0.0146959
937.356	0.0146988
937.434	0.0148120
937.512	0.0148569
937.590	0.0148149
937.668	0.0148249
937.746	0.0148057
937.825	0.0148226
937.903	0.0146604
937.981	0.0147015
938.059	0.0149344
938.137	0.0148883
938.215	0.0147430
938.293	0.0147529
938.371	0.0148377
938.450	0.0148681
938.528	0.0147153
938.606	0.0146456
938.684	0.0147967
938.762	0.0148402
938.840	0.0147709
938.918	0.0145966
938.996	0.0146666
939.075	0.0147269
939.153	0.0147248
939.231	0.0147691
939.309	0.0147738
939.387	0.0148115
939.465	0.0147480
939.543	0.0148053
939.621	0.0148206
939.700	0.0147936
939.778	0.0148033
939.856	0.0147478
939.934	0.0148302
940.012	0.0149712
940.090	0.0147927
940.168	0.0148615
940.246	0.0147365
940.325	0.0147749
940.403	0.0148755
940.481	0.0149387
940.559	0.0149541
940.637	0.0147704
940.715	0.0149761
940.793	0.0147938
940.871	0.0148137
940.950	0.0148541
941.028	0.0148828
941.106	0.0149596
941.184	0.0147701
941.262	0.0148831
941.340	0.0149216
941.418	0.0148497
941.496	0.0149212
941.575	0.0148911
941.653	0.0149295
941.731	0.0148666
941.809	0.0148170
941.887	0.0148284
941.965	0.0148890
942.043	0.0150632
942.121	0.0150700
942.200	0.0148716
942.278	0.0149182
942.356	0.0147942
942.434	0.0149091
942.512	0.0149357
942.590	0.0149306
942.668	0.0149420
942.746	0.0147764
942.825	0.0147545
942.903	0.0148006
942.981	0.0148666
943.059	0.0149145
943.137	0.0148600
943.215	0.0147939
943.293	0.0148049
943.371	0.0148103
943.450	0.0148539
943.528	0.0149418
943.606	0.0148378
943.684	0.0148141
943.762	0.0149606
943.840	0.0148864
943.918	0.0148666
943.996	0.0148631
944.075	0.0147971
944.153	0.0148290
944.231	0.0148267
944.309	0.0146795
944.387	0.0146313
944.465	0.0147453
944.543	0.0147150
944.621	0.0149466
944.700	0.0148249
944.778	0.0148650
944.856	0.0147826
944.934	0.0146773
945.012	0.0148138
945.090	0.0148591
945.168	0.0147908
945.246	0.0148859
945.325	0.0148491
945.403	0.0149173
945.481	0.0149490
945.559	0.0149041
945.637	0.0148855
945.715	0.0150416
945.793	0.0150652
945.871	0.0150234
945.950	0.0149244
946.028	0.0149384
946.106	0.0146754
946.184	0.0148007
946.262	0.0147582
946.340	0.0148312
946.418	0.0148225
946.496	0.0147182
946.575	0.0148269
946.653	0.0146714
946.731	0.0147115
946.809	0.0147298
946.887	0.0147504
946.965	0.0147940
947.043	0.0148628
947.121	0.0147974
947.200	0.0147118
947.278	0.0147267
947.356	0.0148023
947.434	0.0147665
947.512	0.0147114
947.590	0.0148434
947.668	0.0148565
947.746	0.0149229
947.825	0.0149841
947.903	0.0149548
947.981	0.0148355
948.059	0.0148156
948.137	0.0148692
948.215	0.0148885
948.293	0.0148613
948.371	0.0148385
948.450	0.0148058
948.528	0.0148317
948.606	0.0149014
948.684	0.0147401
948.762	0.0146455
948.840	0.0147650
948.918	0.0147787
948.996	0.0146288
949.075	0.0146843
949.153	0.0147683
949.231	0.0147481
949.309	0.0148179
949.387	0.0148578
949.465	0.0147929
949.543	0.0146353
949.621	0.0146923
949.700	0.0147908
949.778	0.0147049
949.856	0.0147121
949.934	0.0148212
950.012	0.0146960
950.090	0.0148652
950.168	0.0148830
950.246	0.0146143
950.325	0.0149494
950.403	0.0150486
950.481	0.0148586
950.559	0.0148488
950.637	0.0148589
950.715	0.0148721
950.793	0.0148525
950.871	0.0147349
950.950	0.0149106
951.028	0.0148894
951.106	0.0149109
951.184	0.0147970
951.262	0.0148608
951.340	0.0149934
951.418	0.0150418
951.496	0.0149512
951.575	0.0150072
951.653	0.0149473
951.731	0.0148669
951.809	0.0149099
951.887	0.0149201
951.965	0.0148817
952.043	0.0148880
952.121	0.0148551
952.200	0.0148082
952.278	0.0148329
952.356	0.0148492
952.434	0.0149527
952.512	0.0148304
952.590	0.0147918
952.668	0.0147932
952.746	0.0147649
952.825	0.0146499
952.903	0.0147703
952.981	0.0148275
953.059	0.0147769
953.137	0.0147349
953.215	0.0146656
953.293	0.0146187
953.371	0.0147607
953.450	0.0148331
953.528	0.0147186
953.606	0.0146847
953.684	0.0149097
953.762	0.0147298
953.840	0.0147222
953.918	0.0149021
953.996	0.0148254
954.075	0.0148574
954.153	0.0147157
954.231	0.0147881
954.309	0.0147945
954.387	0.0148704
954.465	0.0147695
954.543	0.0147724
954.621	0.0147237
954.700	0.0147906
954.778	0.0146393
954.856	0.0147468
954.934	0.0146533
955.012	0.0148268
955.090	0.0147023
955.168	0.0147661
955.246	0.0147402
955.325	0.0148539
955.403	0.0149636
955.481	0.0149575
955.559	0.0148634
955.637	0.0149016
955.715	0.0148829
955.793	0.0149049
955.871	0.0150227
955.950	0.0148713
956.028	0.0148906
956.106	0.0149295
956.184	0.0149177
956.262	0.0150346
956.340	0.0149392
956.418	0.0148052
956.496	0.0149819
956.575	0.0148080
956.653	0.0149868
956.731	0.0148322
956.809	0.0149821
956.887	0.0148083
956.965	0.0148789
957.043	0.0149511
957.121	0.0147782
957.200	0.0148622
957.278	0.0147934
957.356	0.0147592
957.434	0.0147407
957.512	0.0147742
957.590	0.0147306
957.668	0.0147350
957.746	0.0148537
957.825	0.0146891
957.903	0.0148421
957.981	0.0147880
958.059	0.0147395
958.137	0.0148366
958.215	0.0147961
958.293	0.0147478
958.371	0.0149180
958.450	0.0148319
958.528	0.0148310
958.606	0.0148618
958.684	0.0147942
958.762	0.0148210
958.840	0.0148299
958.918	0.0148653
958.996	0.0147283
959.075	0.0148727
959.153	0.0148779
959.231	0.0148451
959.309	0.0147842
959.387	0.0148377
959.465	0.0147298
959.543	0.0147129
959.621	0.0146111
959.700	0.0146841
959.778	0.0145728
959.856	0.0147321
959.934	0.0147408
960.012	0.0146423
960.090	0.0147019
960.168	0.0146516
960.246	0.0147090
960.325	0.0147514
960.403	0.0146414
960.481	0.0147100
960.559	0.0149314
960.637	0.0147311
960.715	0.0146643
960.793	0.0148831
960.871	0.0148859
960.950	0.0149057
961.028	0.0148530
961.106	0.0149026
961.184	0.0148154
961.262	0.0148425
961.340	0.0149245
961.418	0.0149310
961.496	0.0148917
961.575	0.0149538
961.653	0.0148535
961.731	0.0149055
961.809	0.0147430
961.887	0.0148272
961.965	0.0148642
962.043	0.0147585
962.121	0.0147236
962.200	0.0147628
962.278	0.0148580
962.356	0.0147613
962.434	0.0147575
962.512	0.0148205
962.590	0.0148106
962.668	0.0148239
962.746	0.0147812
962.825	0.0148676
962.903	0.0149076
962.981	0.0148103
963.059	0.0147665
963.137	0.0147496
963.215	0.0147282
963.293	0.0148728
963.371	0.0147472
963.450	0.0149232
963.528	0.0148218
963.606	0.0147935
963.684	0.0148187
963.762	0.0148450
963.840	0.0149738
963.918	0.0149834
963.996	0.0148006
964.075	0.0149454
964.153	0.0148858
964.231	0.0150108
964.309	0.0149110
964.387	0.0149976
964.465	0.0149686
964.543	0.0148660
964.621	0.0149693
964.700	0.0150161
964.778	0.0148935
964.856	0.0148070
964.934	0.0147523
965.012	0.0149033
965.090	0.0149236
965.168	0.0149097
965.246	0.0148624
965.325	0.0148041
965.403	0.0147972
965.481	0.0149958
965.559	0.0148853
965.637	0.0149093
965.715	0.0147911
965.793	0.0149086
965.871	0.0150148
965.950	0.0148460
966.028	0.0149150
966.106	0.0149024
966.184	0.0149628
966.262	0.0147996
966.340	0.0149670
966.418	0.0149684
966.496	0.0150239
966.575	0.0150420
966.653	0.0149299
966.731	0.0148885
966.809	0.0148595
966.887	0.0149825
966.965	0.0148748
967.043	0.0148119
967.121	0.0147416
967.200	0.0149907
967.278	0.0148540
967.356	0.0148157
967.434	0.0149381
967.512	0.0148045
967.590	0.0147661
967.668	0.0147925
967.746	0.0148745
967.825	0.0147292
967.903	0.0147762
967.981	0.0148277
968.059	0.0149323
968.137	0.0149026
968.215	0.0148151
968.293	0.0148686
968.371	0.0149534
968.450	0.0150301
968.528	0.0148154
968.606	0.0149190
968.684	0.0149653
968.762	0.0148842
968.840	0.0149722
968.918	0.0149572
968.996	0.0148004
969.075	0.0148199
969.153	0.0149721
969.231	0.0148135
969.309	0.0149456
969.387	0.0149485
969.465	0.0147453
969.543	0.0147671
969.621	0.0147657
969.700	0.0147896
969.778	0.0148310
969.856	0.0149329
969.934	0.0149085
970.012	0.0148941
970.090	0.0149406
970.168	0.0148949
970.246	0.0148602
970.325	0.0149772
970.403	0.0150574
970.481	0.0150662
970.559	0.0148843
970.637	0.0149465
970.715	0.0149419
970.793	0.0149468
970.871	0.0149281
970.950	0.0149962
971.028	0.0150637
971.106	0.0148203
971.184	0.0147915
971.262	0.0148451
971.340	0.0148290
971.418	0.0147427
971.496	0.0147266
971.575	0.0148378
971.653	0.0147302
971.731	0.0148508
971.809	0.0148186
971.887	0.0148233
971.965	0.0149097
972.043	0.0147372
972.121	0.0147895
972.200	0.0147389
972.278	0.0149028
972.356	0.0148906
972.434	0.0149190
972.512	0.0148525
972.590	0.0147983
972.668	0.0148940
972.746	0.0148627
972.825	0.0147815
972.903	0.0149458
972.981	0.0149574
973.059	0.0148986
973.137	0.0147742
973.215	0.0147755
973.293	0.0147955
973.371	0.0148590
973.450	0.0148007
973.528	0.0148640
973.606	0.0147237
973.684	0.0147781
973.762	0.0147898
973.840	0.0147485
973.918	0.0147591
973.996	0.0147579
974.075	0.0147471
974.153	0.0147614
974.231	0.0147250
974.309	0.0147262
974.387	0.0147705
974.465	0.0148595
974.543	0.0147471
974.621	0.0147517
974.700	0.0147417
974.778	0.0148238
974.856	0.0149328
974.934	0.0147733
975.012	0.0147996
975.090	0.0149028
975.168	0.0149405
975.246	0.0149008
975.325	0.0148994
975.403	0.0148743
975.481	0.0147256
975.559	0.0147543
975.637	0.0147476
975.715	0.0147083
975.793	0.0147360
975.871	0.0147381
975.950	0.0146352
976.028	0.0145329
976.106	0.0147520
976.184	0.0147020
976.262	0.0147854
976.340	0.0146635
976.418	0.0146201
976.496	0.0147108
976.575	0.0148380
976.653	0.0147166
976.731	0.0147577
976.809	0.0149588
976.887	0.0148875
976.965	0.0147772
977.043	0.0148855
977.121	0.0148923
977.200	0.0147963
977.278	0.0148270
977.356	0.0147934
977.434	0.0148951
977.512	0.0148932
977.590	0.0148817
977.668	0.0147440
977.746	0.0148355
977.825	0.0148038
977.903	0.0148485
977.981	0.0148444
978.059	0.0148884
978.137	0.0146615
978.215	0.0147020
978.293	0.0146957
978.371	0.0147304
978.450	0.0147736
978.528	0.0147206
978.606	0.0147641
978.684	0.0147526
978.762	0.0147643
978.840	0.0148731
978.918	0.0146756
978.996	0.0147381
979.075	0.0146632
979.153	0.0148376
979.231	0.0148985
979.309	0.0149374
979.387	0.0149786
979.465	0.0149592
979.543	0.0148698
979.621	0.0149322
979.700	0.0148936
979.778	0.0149835
979.856	0.0147786
979.934	0.0148720
980.012	0.0147913
980.090	0.0148624
980.168	0.0147685
980.246	0.0147154
980.325	0.0146735
980.403	0.0147638
980.481	0.0147834
980.559	0.0145100
980.637	0.0147109
980.715	0.0147565
980.793	0.0148566
980.871	0.0146332
980.950	0.0146624
981.028	0.0146960
981.106	0.0146600
981.184	0.0146017
981.262	0.0147438
981.340	0.0146906
981.418	0.0147034
981.496	0.0146992
981.575	0.0147961
981.653	0.0147478
981.731	0.0147907
981.809	0.0147276
981.887	0.0148438
981.965	0.0147495
982.043	0.0147440
982.121	0.0147757
982.200	0.0148493
982.278	0.0148716
982.356	0.0147514
982.434	0.0148407
982.512	0.0148468
982.590	0.0148182
982.668	0.0147990
982.746	0.0147488
982.825	0.0147646
982.903	0.0147186
982.981	0.0147337
983.059	0.0147254
983.137	0.0147912
983.215	0.0146597
983.293	0.0147155
983.371	0.0147434
983.450	0.0147270
983.528	0.0147697
983.606	0.0147111
983.684	0.0146323
983.762	0.0146513
983.840	0.0147721
983.918	0.0148095
983.996	0.0148274
984.075	0.0148684
984.153	0.0148282
984.231	0.0148327
984.309	0.0149322
984.387	0.0149165
984.465	0.0148127
984.543	0.0147180
984.621	0.0148641
984.700	0.0148220
984.778	0.0147121
984.856	0.0149125
984.934	0.0149142
985.012	0.0148313
985.090	0.0148734
985.168	0.0148252
985.246	0.0148878
985.325	0.0150394
985.403	0.0148506
985.481	0.0147688
985.559	0.0148203
985.637	0.0148297
985.715	0.0148859
985.793	0.0147148
985.871	0.0148045
985.950	0.0147802
986.028	0.0147691
986.106	0.0147823
986.184	0.0147610
986.262	0.0148760
986.340	0.0148206
986.418	0.0148364
986.496	0.0149229
986.575	0.0149212
986.653	0.0148029
986.731	0.0149636
986.809	0.0149812
986.887	0.0148604
986.965	0.0149969
987.043	0.0149016
987.121	0.0149715
987.200	0.0150312
987.278	0.0150528
987.356	0.0150653
987.434	0.0149215
987.512	0.0149203
987.590	0.0150414
987.668	0.0149564
987.746	0.0150042
987.825	0.0149638
987.903	0.0150182
987.981	0.0148521
988.059	0.0149905
988.137	0.0149319
988.215	0.0149258
988.293	0.0149152
988.371	0.0148857
988.450	0.0148088
988.528	0.0149387
988.606	0.0148238
988.684	0.0149209
988.762	0.0150517
988.840	0.0149960
988.918	0.0149226
988.996	0.0149751
989.075	0.0149033
989.153	0.0150160
989.231	0.0150114
989.309	0.0149921
989.387	0.0148682
989.465	0.0149358
989.543	0.0148860
989.621	0.0148969
989.700	0.0148984
989.778	0.0150329
989.856	0.0148567
989.934	0.0149548
990.012	0.0147919
990.090	0.0147865
990.168	0.0149763
990.246	0.0151244
990.325	0.0149250
990.403	0.0148086
990.481	0.0148846
990.559	0.0148699
990.637	0.0150159
990.715	0.0148372
990.793	0.0146724
990.871	0.0149465
990.950	0.0148627
991.028	0.0149041
991.106	0.0149259
991.184	0.0148266
991.262	0.0149445
991.340	0.0149139
991.418	0.0149339
991.496	0.0149026
991.575	0.0148551
991.653	0.0148595
991.731	0.0148889
991.809	0.0150001
991.887	0.0148826
991.965	0.0148349
992.043	0.0148199
992.121	0.0149581
992.200	0.0148125
992.278	0.0147248
992.356	0.0146721
992.434	0.0148179
992.512	0.0147176
992.590	0.0147769
992.668	0.0146445
992.746	0.0148847
992.825	0.0147814
992.903	0.0147944
992.981	0.0147610
993.059	0.0147131
993.137	0.0146571
993.215	0.0147872
993.293	0.0147923
993.371	0.0148443
993.450	0.0147704
993.528	0.0146902
993.606	0.0146674
993.684	0.0146431
993.762	0.0146259
993.840	0.0147318
993.918	0.0147472
993.996	0.0146716
994.075	0.0147245
994.153	0.0147762
994.231	0.0148516
994.309	0.0147494
994.387	0.0146425
994.465	0.0147334
994.543	0.0147248
994.621	0.0146883
994.700	0.0147211
994.778	0.0147765
994.856	0.0147919
994.934	0.0147662
995.012	0.0147830
995.090	0.0147666
995.168	0.0148302
995.246	0.0149017
995.325	0.0148794
995.403	0.0147475
995.481	0.0148331
995.559	0.0148299
995.637	0.0146815
995.715	0.0147276
995.793	0.0147298
995.871	0.0146030
995.950	0.0147378
996.028	0.0148822
996.106	0.0147256
996.184	0.0148660
996.262	0.0146466
996.340	0.0145921
996.418	0.0146316
996.496	0.0146963
996.575	0.0146557
996.653	0.0147159
996.731	0.0146705
996.809	0.0148062
996.887	0.0145914
996.965	0.0147139
997.043	0.0148681
997.121	0.0148363
997.200	0.0148029
997.278	0.0148260
997.356	0.0148571
997.434	0.0150392
997.512	0.0150037
997.590	0.0150774
997.668	0.0149863
997.746	0.0150569
997.825	0.0149760
997.903	0.0150137
997.981	0.0152273
998.059	0.0149919
998.137	0.0148628
998.215	0.0148648
998.293	0.0149085
998.371	0.0150072
998.450	0.0147554
998.528	0.0146020
998.606	0.0147067
998.684	0.0146272
998.762	0.0145741
998.840	0.0146218
998.918	0.0146046
