05/04/2022	21:25:53	Ver.	4.1	UNKNOWN
Optical Delay	678.996401	Delta X		0.078125	Sweeps	1	Scan Rate	0/0
Coordinates	Axis 1	NaN	Axis 2	NaN	Axis 3	NaN	Axis 4	NaN	Axis 5	NaN	Axis 6	0.000000
TX Power	0.000000	RX Power	0.000000

678.996	0.0144532
679.075	0.0143972
679.153	0.0143393
679.231	0.0143218
679.309	0.0142651
679.387	0.0141672
679.465	0.0143795
679.543	0.0143130
679.621	0.0143643
679.700	0.0144570
679.778	0.0142771
679.856	0.0143411
679.934	0.0143547
680.012	0.0142395
680.090	0.0142995
680.168	0.0143756
680.246	0.0143812
680.325	0.0143414
680.403	0.0143728
680.481	0.0145385
680.559	0.0144650
680.637	0.0144595
680.715	0.0143836
680.793	0.0144141
680.871	0.0144268
680.950	0.0145435
681.028	0.0144190
681.106	0.0143434
681.184	0.0143248
681.262	0.0143903
681.340	0.0144264
681.418	0.0143903
681.496	0.0143046
681.575	0.0143024
681.653	0.0142983
681.731	0.0142725
681.809	0.0143100
681.887	0.0142944
681.965	0.0144347
682.043	0.0144397
682.121	0.0143842
682.200	0.0144906
682.278	0.0143500
682.356	0.0144819
682.434	0.0145272
682.512	0.0144186
682.590	0.0145533
682.668	0.0144819
682.746	0.0144470
682.825	0.0145987
682.903	0.0146072
682.981	0.0145805
683.059	0.0144990
683.137	0.0144543
683.215	0.0145630
683.293	0.0146519
683.371	0.0146537
683.450	0.0145543
683.528	0.0145219
683.606	0.0144804
683.684	0.0145020
683.762	0.0144220
683.840	0.0144930
683.918	0.0144386
683.996	0.0143026
684.075	0.0143681
684.153	0.0144534
684.231	0.0143371
684.309	0.0143454
684.387	0.0144035
684.465	0.0143434
684.543	0.0144312
684.621	0.0144176
684.700	0.0144194
684.778	0.0144569
684.856	0.0145086
684.934	0.0144554
685.012	0.0143613
685.090	0.0144432
685.168	0.0145367
685.246	0.0145891
685.325	0.0147476
685.403	0.0146328
685.481	0.0145355
685.559	0.0146707
685.637	0.0145681
685.715	0.0144729
685.793	0.0145252
685.871	0.0146046
685.950	0.0145129
686.028	0.0144032
686.106	0.0145560
686.184	0.0143712
686.262	0.0143998
686.340	0.0143745
686.418	0.0143026
686.496	0.0143063
686.575	0.0143152
686.653	0.0142215
686.731	0.0141070
686.809	0.0141743
686.887	0.0142271
686.965	0.0141795
687.043	0.0144021
687.121	0.0143124
687.200	0.0142227
687.278	0.0144129
687.356	0.0145081
687.434	0.0144080
687.512	0.0143173
687.590	0.0144012
687.668	0.0144843
687.746	0.0144067
687.825	0.0144899
687.903	0.0145389
687.981	0.0143864
688.059	0.0143785
688.137	0.0143208
688.215	0.0143847
688.293	0.0143800
688.371	0.0142903
688.450	0.0143343
688.528	0.0143005
688.606	0.0143712
688.684	0.0143108
688.762	0.0143484
688.840	0.0144470
688.918	0.0143479
688.996	0.0145353
689.075	0.0145467
689.153	0.0144675
689.231	0.0146360
689.309	0.0145929
689.387	0.0145665
689.465	0.0146053
689.543	0.0146364
689.621	0.0145435
689.700	0.0144656
689.778	0.0145267
689.856	0.0145882
689.934	0.0144303
690.012	0.0145879
690.090	0.0143432
690.168	0.0142299
690.246	0.0142718
690.325	0.0141309
690.403	0.0142208
690.481	0.0143154
690.559	0.0142467
690.637	0.0142839
690.715	0.0144294
690.793	0.0144978
690.871	0.0146494
690.950	0.0146064
691.028	0.0146602
691.106	0.0147781
691.184	0.0147565
691.262	0.0149654
691.340	0.0147578
691.418	0.0147773
691.496	0.0149019
691.575	0.0148402
691.653	0.0146973
691.731	0.0147659
691.809	0.0145924
691.887	0.0145364
691.965	0.0143993
692.043	0.0143544
692.121	0.0142130
692.200	0.0140913
692.278	0.0139105
692.356	0.0140006
692.434	0.0140089
692.512	0.0139178
692.590	0.0140711
692.668	0.0139876
692.746	0.0141472
692.825	0.0143657
692.903	0.0142804
692.981	0.0145719
693.059	0.0146008
693.137	0.0147342
693.215	0.0148344
693.293	0.0149067
693.371	0.0150042
693.450	0.0148979
693.528	0.0151136
693.606	0.0152392
693.684	0.0150723
693.762	0.0150276
693.840	0.0149161
693.918	0.0149924
693.996	0.0147703
694.075	0.0146861
694.153	0.0145065
694.231	0.0143505
694.309	0.0140901
694.387	0.0139177
694.465	0.0140065
694.543	0.0138663
694.621	0.0138141
694.700	0.0139639
694.778	0.0139828
694.856	0.0139655
694.934	0.0140634
695.012	0.0142353
695.090	0.0143750
695.168	0.0143600
695.246	0.0143665
695.325	0.0143314
695.403	0.0145976
695.481	0.0147019
695.559	0.0149162
695.637	0.0149989
695.715	0.0151807
695.793	0.0152805
695.871	0.0153498
695.950	0.0154581
696.028	0.0153827
696.106	0.0153811
696.184	0.0150887
696.262	0.0148809
696.340	0.0146210
696.418	0.0144650
696.496	0.0142530
696.575	0.0140170
696.653	0.0139118
696.731	0.0136306
696.809	0.0136001
696.887	0.0134064
696.965	0.0133154
697.043	0.0135280
697.121	0.0134785
697.200	0.0136713
697.278	0.0137543
697.356	0.0140147
697.434	0.0141762
697.512	0.0144785
697.590	0.0147791
697.668	0.0151498
697.746	0.0151698
697.825	0.0154446
697.903	0.0156923
697.981	0.0156074
698.059	0.0153590
698.137	0.0152430
698.215	0.0151253
698.293	0.0148691
698.371	0.0146243
698.450	0.0143296
698.528	0.0140963
698.606	0.0138666
698.684	0.0137711
698.762	0.0137260
698.840	0.0137086
698.918	0.0137464
698.996	0.0139918
699.075	0.0141007
699.153	0.0142317
699.231	0.0143172
699.309	0.0142837
699.387	0.0145194
699.465	0.0145514
699.543	0.0143703
699.621	0.0145016
699.700	0.0145391
699.778	0.0146837
699.856	0.0146500
699.934	0.0148198
700.012	0.0147911
700.090	0.0147453
700.168	0.0146751
700.246	0.0147796
700.325	0.0147276
700.403	0.0144828
700.481	0.0145367
700.559	0.0145623
700.637	0.0143256
700.715	0.0140489
700.793	0.0141200
700.871	0.0140415
700.950	0.0138966
701.028	0.0139600
701.106	0.0139405
701.184	0.0138509
701.262	0.0137899
701.340	0.0138911
701.418	0.0138547
701.496	0.0139758
701.575	0.0140778
701.653	0.0141628
701.731	0.0142949
701.809	0.0145586
701.887	0.0147195
701.965	0.0149752
702.043	0.0152542
702.121	0.0153122
702.200	0.0152010
702.278	0.0153355
702.356	0.0152892
702.434	0.0150610
702.512	0.0146535
702.590	0.0143940
702.668	0.0143193
702.746	0.0140839
702.825	0.0139353
702.903	0.0137802
702.981	0.0137841
703.059	0.0137060
703.137	0.0139194
703.215	0.0138394
703.293	0.0140282
703.371	0.0141950
703.450	0.0144424
703.528	0.0146113
703.606	0.0144566
703.684	0.0147530
703.762	0.0148234
703.840	0.0148620
703.918	0.0150554
703.996	0.0149559
704.075	0.0148455
704.153	0.0148540
704.231	0.0145809
704.309	0.0144305
704.387	0.0144923
704.465	0.0143602
704.543	0.0141200
704.621	0.0139174
704.700	0.0140733
704.778	0.0139440
704.856	0.0138268
704.934	0.0138271
705.012	0.0137684
705.090	0.0140214
705.168	0.0140947
705.246	0.0143834
705.325	0.0144189
705.403	0.0144692
705.481	0.0146201
705.559	0.0147237
705.637	0.0146615
705.715	0.0147553
705.793	0.0148373
705.871	0.0148096
705.950	0.0146968
706.028	0.0147851
706.106	0.0148479
706.184	0.0147189
706.262	0.0147520
706.340	0.0146718
706.418	0.0147882
706.496	0.0146285
706.575	0.0144571
706.653	0.0143934
706.731	0.0142558
706.809	0.0140453
706.887	0.0139263
706.965	0.0137635
707.043	0.0138043
707.121	0.0137232
707.200	0.0136995
707.278	0.0137635
707.356	0.0140530
707.434	0.0141289
707.512	0.0143925
707.590	0.0145665
707.668	0.0147166
707.746	0.0147852
707.825	0.0147630
707.903	0.0149610
707.981	0.0149567
708.059	0.0151448
708.137	0.0150761
708.215	0.0149312
708.293	0.0149776
708.371	0.0148193
708.450	0.0146742
708.528	0.0145959
708.606	0.0144221
708.684	0.0141833
708.762	0.0140435
708.840	0.0139610
708.918	0.0138554
708.996	0.0136325
709.075	0.0134641
709.153	0.0135272
709.231	0.0134161
709.309	0.0134003
709.387	0.0136063
709.465	0.0137946
709.543	0.0140175
709.621	0.0142056
709.700	0.0143315
709.778	0.0146719
709.856	0.0150353
709.934	0.0151984
710.012	0.0153345
710.090	0.0154774
710.168	0.0155061
710.246	0.0155952
710.325	0.0156088
710.403	0.0153916
710.481	0.0153196
710.559	0.0153646
710.637	0.0151268
710.715	0.0148295
710.793	0.0146489
710.871	0.0142137
710.950	0.0140752
711.028	0.0140240
711.106	0.0136037
711.184	0.0134766
711.262	0.0133958
711.340	0.0134022
711.418	0.0133743
711.496	0.0135265
711.575	0.0136294
711.653	0.0137682
711.731	0.0141864
711.809	0.0141233
711.887	0.0143471
711.965	0.0145167
712.043	0.0146268
712.121	0.0149572
712.200	0.0149027
712.278	0.0150158
712.356	0.0151030
712.434	0.0152050
712.512	0.0152780
712.590	0.0151376
712.668	0.0151553
712.746	0.0152264
712.825	0.0149371
712.903	0.0148756
712.981	0.0148478
713.059	0.0145683
713.137	0.0145606
713.215	0.0145031
713.293	0.0143321
713.371	0.0141953
713.450	0.0140810
713.528	0.0140167
713.606	0.0138192
713.684	0.0138206
713.762	0.0137901
713.840	0.0137118
713.918	0.0138192
713.996	0.0140124
714.075	0.0141400
714.153	0.0141642
714.231	0.0142584
714.309	0.0145690
714.387	0.0147199
714.465	0.0148213
714.543	0.0150340
714.621	0.0151590
714.700	0.0150579
714.778	0.0151892
714.856	0.0150851
714.934	0.0148892
715.012	0.0150868
715.090	0.0148856
715.168	0.0148257
715.246	0.0145843
715.325	0.0145341
715.403	0.0143356
715.481	0.0141320
715.559	0.0141425
715.637	0.0140791
715.715	0.0140229
715.793	0.0139741
715.871	0.0141330
715.950	0.0141906
716.028	0.0140834
716.106	0.0142458
716.184	0.0145056
716.262	0.0145698
716.340	0.0146686
716.418	0.0148090
716.496	0.0148792
716.575	0.0148518
716.653	0.0148716
716.731	0.0149518
716.809	0.0148636
716.887	0.0148955
716.965	0.0147524
717.043	0.0146993
717.121	0.0147898
717.200	0.0145818
717.278	0.0144244
717.356	0.0144101
717.434	0.0143242
717.512	0.0142650
717.590	0.0140759
717.668	0.0142596
717.746	0.0141991
717.825	0.0142183
717.903	0.0142314
717.981	0.0144157
718.059	0.0145028
718.137	0.0145122
718.215	0.0145400
718.293	0.0146994
718.371	0.0147604
718.450	0.0146743
718.528	0.0147955
718.606	0.0148074
718.684	0.0147045
718.762	0.0149342
718.840	0.0147954
718.918	0.0146345
718.996	0.0145808
719.075	0.0144470
719.153	0.0144123
719.231	0.0143617
719.309	0.0143118
719.387	0.0142809
719.465	0.0141097
719.543	0.0142542
719.621	0.0140726
719.700	0.0141616
719.778	0.0141698
719.856	0.0142390
719.934	0.0141397
720.012	0.0141608
720.090	0.0141060
720.168	0.0141084
720.246	0.0142499
720.325	0.0141825
720.403	0.0142484
720.481	0.0142613
720.559	0.0142843
720.637	0.0142841
720.715	0.0144199
720.793	0.0145798
720.871	0.0144592
720.950	0.0145736
721.028	0.0146647
721.106	0.0146319
721.184	0.0147480
721.262	0.0146563
721.340	0.0144984
721.418	0.0145170
721.496	0.0144756
721.575	0.0144963
721.653	0.0144240
721.731	0.0143446
721.809	0.0143330
721.887	0.0142709
721.965	0.0144584
722.043	0.0144121
722.121	0.0141235
722.200	0.0142944
722.278	0.0143731
722.356	0.0144273
722.434	0.0142771
722.512	0.0142413
722.590	0.0142800
722.668	0.0143285
722.746	0.0143512
722.825	0.0142258
722.903	0.0142404
722.981	0.0142819
723.059	0.0143006
723.137	0.0141400
723.215	0.0142191
723.293	0.0142003
723.371	0.0142871
723.450	0.0141384
723.528	0.0140912
723.606	0.0141850
723.684	0.0142599
723.762	0.0141540
723.840	0.0144561
723.918	0.0145191
723.996	0.0145772
724.075	0.0146340
724.153	0.0146613
724.231	0.0147014
724.309	0.0147347
724.387	0.0148025
724.465	0.0148654
724.543	0.0148367
724.621	0.0150110
724.700	0.0148469
724.778	0.0147710
724.856	0.0145353
724.934	0.0145507
725.012	0.0145389
725.090	0.0144874
725.168	0.0144696
725.246	0.0144321
725.325	0.0143590
725.403	0.0140903
725.481	0.0141553
725.559	0.0141570
725.637	0.0141190
725.715	0.0139792
725.793	0.0140553
725.871	0.0142690
725.950	0.0140285
726.028	0.0140979
726.106	0.0141210
726.184	0.0142701
726.262	0.0141859
726.340	0.0143883
726.418	0.0145780
726.496	0.0146387
726.575	0.0147568
726.653	0.0147981
726.731	0.0147406
726.809	0.0147308
726.887	0.0148853
726.965	0.0148466
727.043	0.0148390
727.121	0.0146191
727.200	0.0145570
727.278	0.0145466
727.356	0.0145418
727.434	0.0143886
727.512	0.0141192
727.590	0.0140832
727.668	0.0141303
727.746	0.0140915
727.825	0.0140827
727.903	0.0139707
727.981	0.0141412
728.059	0.0141450
728.137	0.0142078
728.215	0.0142233
728.293	0.0144323
728.371	0.0146428
728.450	0.0143792
728.528	0.0145394
728.606	0.0147773
728.684	0.0146085
728.762	0.0146648
728.840	0.0146823
728.918	0.0146936
728.996	0.0146304
729.075	0.0147487
729.153	0.0147527
729.231	0.0147250
729.309	0.0146307
729.387	0.0145942
729.465	0.0146808
729.543	0.0147448
729.621	0.0146810
729.700	0.0145741
729.778	0.0144061
729.856	0.0145100
729.934	0.0143266
730.012	0.0143326
730.090	0.0142564
730.168	0.0142513
730.246	0.0142278
730.325	0.0141788
730.403	0.0141897
730.481	0.0139986
730.559	0.0140941
730.637	0.0141073
730.715	0.0142561
730.793	0.0141206
730.871	0.0140399
730.950	0.0142197
731.028	0.0143494
731.106	0.0142730
731.184	0.0142901
731.262	0.0142578
731.340	0.0144234
731.418	0.0146969
731.496	0.0144260
731.575	0.0145903
731.653	0.0144957
731.731	0.0147038
731.809	0.0147039
731.887	0.0146933
731.965	0.0147325
732.043	0.0146707
732.121	0.0147437
732.200	0.0148230
732.278	0.0146478
732.356	0.0147430
732.434	0.0146513
732.512	0.0145055
732.590	0.0145229
732.668	0.0147177
732.746	0.0145299
732.825	0.0145061
732.903	0.0145315
732.981	0.0144636
733.059	0.0143296
733.137	0.0143468
733.215	0.0144406
733.293	0.0143614
733.371	0.0143925
733.450	0.0144017
733.528	0.0143504
733.606	0.0144772
733.684	0.0145069
733.762	0.0143740
733.840	0.0145996
733.918	0.0146473
733.996	0.0145435
734.075	0.0145403
734.153	0.0146674
734.231	0.0145911
734.309	0.0144459
734.387	0.0145233
734.465	0.0146912
734.543	0.0146625
734.621	0.0145943
734.700	0.0145046
734.778	0.0145167
734.856	0.0144373
734.934	0.0144672
735.012	0.0143375
735.090	0.0142427
735.168	0.0143061
735.246	0.0142424
735.325	0.0142431
735.403	0.0141167
735.481	0.0142538
735.559	0.0144065
735.637	0.0142296
735.715	0.0143337
735.793	0.0143465
735.871	0.0145100
735.950	0.0145453
736.028	0.0145457
736.106	0.0147977
736.184	0.0147765
736.262	0.0147334
736.340	0.0147456
736.418	0.0148681
736.496	0.0148306
736.575	0.0148618
736.653	0.0148061
736.731	0.0147364
736.809	0.0147397
736.887	0.0146678
736.965	0.0146793
737.043	0.0148409
737.121	0.0146246
737.200	0.0144704
737.278	0.0144840
737.356	0.0143468
737.434	0.0146084
737.512	0.0144001
737.590	0.0142418
737.668	0.0141359
737.746	0.0141501
737.825	0.0141634
737.903	0.0141452
737.981	0.0142126
738.059	0.0141438
738.137	0.0144054
738.215	0.0144524
738.293	0.0144106
738.371	0.0144711
738.450	0.0146824
738.528	0.0145956
738.606	0.0146454
738.684	0.0147143
738.762	0.0147247
738.840	0.0147368
738.918	0.0146382
738.996	0.0148194
739.075	0.0146969
739.153	0.0147469
739.231	0.0146530
739.309	0.0146558
739.387	0.0145947
739.465	0.0146144
739.543	0.0144524
739.621	0.0143806
739.700	0.0143896
739.778	0.0143090
739.856	0.0143632
739.934	0.0144780
740.012	0.0142729
740.090	0.0142290
740.168	0.0141815
740.246	0.0143384
740.325	0.0143018
740.403	0.0142610
740.481	0.0142843
740.559	0.0143270
740.637	0.0143850
740.715	0.0144016
740.793	0.0144798
740.871	0.0144139
740.950	0.0145454
741.028	0.0145534
741.106	0.0145187
741.184	0.0145331
741.262	0.0146304
741.340	0.0145876
741.418	0.0146221
741.496	0.0146755
741.575	0.0145694
741.653	0.0145815
741.731	0.0144670
741.809	0.0143567
741.887	0.0143941
741.965	0.0143909
742.043	0.0142753
742.121	0.0143393
742.200	0.0142706
742.278	0.0141994
742.356	0.0143023
742.434	0.0141953
742.512	0.0143596
742.590	0.0143623
742.668	0.0141890
742.746	0.0143007
742.825	0.0142363
742.903	0.0142994
742.981	0.0142392
743.059	0.0143666
743.137	0.0142714
743.215	0.0143964
743.293	0.0143710
743.371	0.0144133
743.450	0.0143716
743.528	0.0144202
743.606	0.0143661
743.684	0.0145736
743.762	0.0145033
743.840	0.0143347
743.918	0.0143707
743.996	0.0146050
744.075	0.0145891
744.153	0.0145057
744.231	0.0144777
744.309	0.0144879
744.387	0.0142832
744.465	0.0143974
744.543	0.0144090
744.621	0.0143126
744.700	0.0143825
744.778	0.0142141
744.856	0.0140764
744.934	0.0141259
745.012	0.0142640
745.090	0.0140573
745.168	0.0140970
745.246	0.0141737
745.325	0.0141278
745.403	0.0141962
745.481	0.0142652
745.559	0.0144363
745.637	0.0144698
745.715	0.0142590
745.793	0.0144630
745.871	0.0145915
745.950	0.0145166
746.028	0.0146096
746.106	0.0144575
746.184	0.0146802
746.262	0.0146092
746.340	0.0146982
746.418	0.0146599
746.496	0.0145553
746.575	0.0146047
746.653	0.0146214
746.731	0.0145771
746.809	0.0145671
746.887	0.0145265
746.965	0.0144842
747.043	0.0143668
747.121	0.0144477
747.200	0.0143163
747.278	0.0142298
747.356	0.0144022
747.434	0.0142094
747.512	0.0142184
747.590	0.0141583
747.668	0.0142190
747.746	0.0142882
747.825	0.0142580
747.903	0.0143408
747.981	0.0143414
748.059	0.0142101
748.137	0.0143378
748.215	0.0144267
748.293	0.0144312
748.371	0.0144351
748.450	0.0144907
748.528	0.0145283
748.606	0.0144920
748.684	0.0144263
748.762	0.0144569
748.840	0.0144781
748.918	0.0146223
748.996	0.0145911
749.075	0.0145104
749.153	0.0144441
749.231	0.0144052
749.309	0.0144753
749.387	0.0145467
749.465	0.0143898
749.543	0.0145435
749.621	0.0144639
749.700	0.0144901
749.778	0.0144353
749.856	0.0144389
749.934	0.0144406
750.012	0.0144221
750.090	0.0144891
750.168	0.0143973
750.246	0.0145762
750.325	0.0145110
750.403	0.0144613
750.481	0.0145474
750.559	0.0144724
750.637	0.0144067
750.715	0.0145215
750.793	0.0144585
750.871	0.0144772
750.950	0.0144363
751.028	0.0145045
751.106	0.0144907
751.184	0.0144061
751.262	0.0143954
751.340	0.0143710
751.418	0.0143012
751.496	0.0144785
751.575	0.0145992
751.653	0.0144290
751.731	0.0144062
751.809	0.0142927
751.887	0.0143071
751.965	0.0144424
752.043	0.0144291
752.121	0.0143935
752.200	0.0143849
752.278	0.0143691
752.356	0.0144516
752.434	0.0143888
752.512	0.0143797
752.590	0.0143576
752.668	0.0143867
752.746	0.0143549
752.825	0.0143894
752.903	0.0144553
752.981	0.0144939
753.059	0.0144969
753.137	0.0144328
753.215	0.0145049
753.293	0.0144830
753.371	0.0143133
753.450	0.0144345
753.528	0.0144922
753.606	0.0144742
753.684	0.0145441
753.762	0.0145317
753.840	0.0144654
753.918	0.0146196
753.996	0.0146991
754.075	0.0145223
754.153	0.0146374
754.231	0.0146362
754.309	0.0145648
754.387	0.0145368
754.465	0.0146463
754.543	0.0146812
754.621	0.0143801
754.700	0.0144852
754.778	0.0143386
754.856	0.0145140
754.934	0.0144710
755.012	0.0143133
755.090	0.0143594
755.168	0.0143459
755.246	0.0143159
755.325	0.0142801
755.403	0.0142695
755.481	0.0142887
755.559	0.0144707
755.637	0.0143806
755.715	0.0143774
755.793	0.0143687
755.871	0.0143205
755.950	0.0145277
756.028	0.0145465
756.106	0.0144934
756.184	0.0145956
756.262	0.0144727
756.340	0.0145863
756.418	0.0146397
756.496	0.0147071
756.575	0.0146038
756.653	0.0147157
756.731	0.0146192
756.809	0.0147033
756.887	0.0146484
756.965	0.0145798
757.043	0.0145625
757.121	0.0146739
757.200	0.0146623
757.278	0.0146238
757.356	0.0146666
757.434	0.0145777
757.512	0.0144787
757.590	0.0145287
757.668	0.0146062
757.746	0.0145240
757.825	0.0145674
757.903	0.0145966
757.981	0.0144702
758.059	0.0144860
758.137	0.0144825
758.215	0.0144719
758.293	0.0145597
758.371	0.0143846
758.450	0.0143584
758.528	0.0144986
758.606	0.0145110
758.684	0.0145134
758.762	0.0144193
758.840	0.0144023
758.918	0.0145444
758.996	0.0145361
759.075	0.0145604
759.153	0.0143466
759.231	0.0144572
759.309	0.0144788
759.387	0.0144267
759.465	0.0144821
759.543	0.0145610
759.621	0.0143959
759.700	0.0144435
759.778	0.0145056
759.856	0.0144083
759.934	0.0144276
760.012	0.0143756
760.090	0.0142787
760.168	0.0142952
760.246	0.0142158
760.325	0.0142826
760.403	0.0144137
760.481	0.0143434
760.559	0.0143694
760.637	0.0143609
760.715	0.0143713
760.793	0.0142852
760.871	0.0144111
760.950	0.0142670
761.028	0.0143983
761.106	0.0145309
761.184	0.0145408
761.262	0.0148528
761.340	0.0145313
761.418	0.0145000
761.496	0.0145073
761.575	0.0146463
761.653	0.0147716
761.731	0.0146402
761.809	0.0146831
761.887	0.0146840
761.965	0.0146156
762.043	0.0145775
762.121	0.0145850
762.200	0.0144188
762.278	0.0144951
762.356	0.0144944
762.434	0.0145850
762.512	0.0143760
762.590	0.0143892
762.668	0.0142598
762.746	0.0142873
762.825	0.0143504
762.903	0.0143087
762.981	0.0142218
763.059	0.0143195
763.137	0.0143725
763.215	0.0142539
763.293	0.0142543
763.371	0.0143700
763.450	0.0144950
763.528	0.0144906
763.606	0.0142500
763.684	0.0142995
763.762	0.0145152
763.840	0.0145551
763.918	0.0144124
763.996	0.0144948
764.075	0.0144751
764.153	0.0144695
764.231	0.0145109
764.309	0.0143618
764.387	0.0143457
764.465	0.0144537
764.543	0.0142931
764.621	0.0143407
764.700	0.0143617
764.778	0.0143298
764.856	0.0143200
764.934	0.0142098
765.012	0.0141526
765.090	0.0143095
765.168	0.0143533
765.246	0.0143378
765.325	0.0142953
765.403	0.0142184
765.481	0.0142838
765.559	0.0142561
765.637	0.0142529
765.715	0.0142601
765.793	0.0142623
765.871	0.0143317
765.950	0.0142396
766.028	0.0143656
766.106	0.0143182
766.184	0.0143834
766.262	0.0144904
766.340	0.0143436
766.418	0.0144448
766.496	0.0145873
766.575	0.0144238
766.653	0.0145691
766.731	0.0143779
766.809	0.0143977
766.887	0.0146399
766.965	0.0145633
767.043	0.0144551
767.121	0.0145372
767.200	0.0145478
767.278	0.0145289
767.356	0.0145340
767.434	0.0143589
767.512	0.0143755
767.590	0.0144775
767.668	0.0144636
767.746	0.0144818
767.825	0.0143980
767.903	0.0145446
767.981	0.0144690
768.059	0.0144675
768.137	0.0143486
768.215	0.0143192
768.293	0.0143530
768.371	0.0142712
768.450	0.0144340
768.528	0.0143909
768.606	0.0144540
768.684	0.0143346
768.762	0.0144958
768.840	0.0143368
768.918	0.0143748
768.996	0.0143819
769.075	0.0143503
769.153	0.0146056
769.231	0.0145222
769.309	0.0143549
769.387	0.0142712
769.465	0.0145311
769.543	0.0143976
769.621	0.0143978
769.700	0.0143559
769.778	0.0142208
769.856	0.0142275
769.934	0.0141921
770.012	0.0143940
770.090	0.0143477
770.168	0.0142232
770.246	0.0142901
770.325	0.0142361
770.403	0.0143025
770.481	0.0143515
770.559	0.0143418
770.637	0.0144093
770.715	0.0145272
770.793	0.0143880
770.871	0.0144221
770.950	0.0145658
771.028	0.0144321
771.106	0.0143533
771.184	0.0144454
771.262	0.0145837
771.340	0.0144955
771.418	0.0143394
771.496	0.0144785
771.575	0.0145536
771.653	0.0144239
771.731	0.0145287
771.809	0.0145254
771.887	0.0144409
771.965	0.0144846
772.043	0.0144772
772.121	0.0145410
772.200	0.0145713
772.278	0.0145197
772.356	0.0144644
772.434	0.0146101
772.512	0.0144467
772.590	0.0143165
772.668	0.0144883
772.746	0.0145017
772.825	0.0144386
772.903	0.0144458
772.981	0.0144711
773.059	0.0143702
773.137	0.0143092
773.215	0.0144749
773.293	0.0144611
773.371	0.0144669
773.450	0.0143433
773.528	0.0145436
773.606	0.0145285
773.684	0.0144644
773.762	0.0143605
773.840	0.0143481
773.918	0.0143742
773.996	0.0144857
774.075	0.0144156
774.153	0.0143330
774.231	0.0145145
774.309	0.0145164
774.387	0.0145022
774.465	0.0145182
774.543	0.0144659
774.621	0.0145694
774.700	0.0144891
774.778	0.0145373
774.856	0.0145002
774.934	0.0144287
775.012	0.0144402
775.090	0.0144508
775.168	0.0145193
775.246	0.0144872
775.325	0.0146082
775.403	0.0145785
775.481	0.0144533
775.559	0.0145773
775.637	0.0145629
775.715	0.0144519
775.793	0.0144923
775.871	0.0144457
775.950	0.0144262
776.028	0.0145110
776.106	0.0145575
776.184	0.0145503
776.262	0.0144012
776.340	0.0144952
776.418	0.0145349
776.496	0.0145698
776.575	0.0146434
776.653	0.0145998
776.731	0.0144749
776.809	0.0146812
776.887	0.0145605
776.965	0.0144551
777.043	0.0144576
777.121	0.0145231
777.200	0.0145353
777.278	0.0144230
777.356	0.0143640
777.434	0.0144681
777.512	0.0144458
777.590	0.0143921
777.668	0.0143445
777.746	0.0143237
777.825	0.0143372
777.903	0.0143750
777.981	0.0144832
778.059	0.0144402
778.137	0.0144866
778.215	0.0144067
778.293	0.0143804
778.371	0.0143949
778.450	0.0146190
778.528	0.0145636
778.606	0.0144685
778.684	0.0146902
778.762	0.0144955
778.840	0.0145804
778.918	0.0145591
778.996	0.0145457
779.075	0.0145483
779.153	0.0144389
779.231	0.0143328
779.309	0.0144067
779.387	0.0143956
779.465	0.0145107
779.543	0.0144829
779.621	0.0145161
779.700	0.0145618
779.778	0.0145215
779.856	0.0144086
779.934	0.0145309
780.012	0.0145406
780.090	0.0145766
780.168	0.0145908
780.246	0.0146148
780.325	0.0145970
780.403	0.0145413
780.481	0.0145122
780.559	0.0145238
780.637	0.0146333
780.715	0.0146816
780.793	0.0145926
780.871	0.0145141
780.950	0.0145259
781.028	0.0145208
781.106	0.0145622
781.184	0.0145964
781.262	0.0143559
781.340	0.0143950
781.418	0.0145737
781.496	0.0144505
781.575	0.0145623
781.653	0.0145348
781.731	0.0145612
781.809	0.0144789
781.887	0.0145287
781.965	0.0144818
782.043	0.0144678
782.121	0.0145657
782.200	0.0142462
782.278	0.0144847
782.356	0.0145275
782.434	0.0144353
782.512	0.0145018
782.590	0.0144426
782.668	0.0144267
782.746	0.0144668
782.825	0.0145274
782.903	0.0145879
782.981	0.0144547
783.059	0.0143404
783.137	0.0144670
783.215	0.0145070
783.293	0.0144804
783.371	0.0145193
783.450	0.0145484
783.528	0.0145987
783.606	0.0144746
783.684	0.0144739
783.762	0.0145726
783.840	0.0143993
783.918	0.0145348
783.996	0.0144726
784.075	0.0144878
784.153	0.0146176
784.231	0.0145983
784.309	0.0145033
784.387	0.0146176
784.465	0.0144048
784.543	0.0145026
784.621	0.0143514
784.700	0.0144339
784.778	0.0144733
784.856	0.0144733
784.934	0.0143407
785.012	0.0144331
785.090	0.0143231
785.168	0.0142354
785.246	0.0143833
785.325	0.0144559
785.403	0.0141946
785.481	0.0142674
785.559	0.0142667
785.637	0.0143893
785.715	0.0142706
785.793	0.0142078
785.871	0.0143377
785.950	0.0143281
786.028	0.0144521
786.106	0.0142020
786.184	0.0142175
786.262	0.0143307
786.340	0.0143568
786.418	0.0141930
786.496	0.0144274
786.575	0.0142612
786.653	0.0142397
786.731	0.0143584
786.809	0.0142194
786.887	0.0143018
786.965	0.0142168
787.043	0.0141581
787.121	0.0144147
787.200	0.0142177
787.278	0.0142167
787.356	0.0142743
787.434	0.0142994
787.512	0.0142659
787.590	0.0143051
787.668	0.0142750
787.746	0.0143995
787.825	0.0143138
787.903	0.0144724
787.981	0.0143697
788.059	0.0145396
788.137	0.0143999
788.215	0.0143701
788.293	0.0143349
788.371	0.0144578
788.450	0.0145397
788.528	0.0145918
788.606	0.0145352
788.684	0.0143456
788.762	0.0143968
788.840	0.0145794
788.918	0.0144953
788.996	0.0144949
789.075	0.0145776
789.153	0.0144162
789.231	0.0144843
789.309	0.0143871
789.387	0.0143050
789.465	0.0143958
789.543	0.0144575
789.621	0.0145098
789.700	0.0144576
789.778	0.0144184
789.856	0.0144924
789.934	0.0144685
790.012	0.0144525
790.090	0.0144285
790.168	0.0145193
790.246	0.0143934
790.325	0.0144981
790.403	0.0143865
790.481	0.0144238
790.559	0.0143604
790.637	0.0144218
790.715	0.0143423
790.793	0.0143904
790.871	0.0143454
790.950	0.0144933
791.028	0.0143361
791.106	0.0143094
791.184	0.0143771
791.262	0.0143908
791.340	0.0143401
791.418	0.0143559
791.496	0.0143302
791.575	0.0144035
791.653	0.0143731
791.731	0.0143977
791.809	0.0143416
791.887	0.0143189
791.965	0.0144484
792.043	0.0142979
792.121	0.0144103
792.200	0.0146135
792.278	0.0144814
792.356	0.0144817
792.434	0.0145431
792.512	0.0144730
792.590	0.0145032
792.668	0.0145439
792.746	0.0146133
792.825	0.0145292
792.903	0.0144962
792.981	0.0145185
793.059	0.0144402
793.137	0.0145206
793.215	0.0144852
793.293	0.0146748
793.371	0.0144528
793.450	0.0144204
793.528	0.0145361
793.606	0.0145366
793.684	0.0145243
793.762	0.0143933
793.840	0.0143270
793.918	0.0144586
793.996	0.0144986
794.075	0.0143354
794.153	0.0144745
794.231	0.0144353
794.309	0.0144079
794.387	0.0144296
794.465	0.0144002
794.543	0.0144926
794.621	0.0144320
794.700	0.0143478
794.778	0.0144635
794.856	0.0144640
794.934	0.0145643
795.012	0.0145557
795.090	0.0144514
795.168	0.0145641
795.246	0.0144798
795.325	0.0145017
795.403	0.0145491
795.481	0.0145018
795.559	0.0144424
795.637	0.0143378
795.715	0.0143941
795.793	0.0145267
795.871	0.0144751
795.950	0.0143886
796.028	0.0143968
796.106	0.0144010
796.184	0.0145000
796.262	0.0143481
796.340	0.0143379
796.418	0.0143691
796.496	0.0142673
796.575	0.0144044
796.653	0.0144128
796.731	0.0145226
796.809	0.0142679
796.887	0.0142979
796.965	0.0143580
797.043	0.0145889
797.121	0.0144817
797.200	0.0144582
797.278	0.0144907
797.356	0.0145930
797.434	0.0145810
797.512	0.0145295
797.590	0.0144741
797.668	0.0145584
797.746	0.0145518
797.825	0.0145243
797.903	0.0145896
797.981	0.0146095
798.059	0.0146726
798.137	0.0147330
798.215	0.0145847
798.293	0.0144889
798.371	0.0144143
798.450	0.0145591
798.528	0.0145493
798.606	0.0144167
798.684	0.0144734
798.762	0.0144625
798.840	0.0144109
798.918	0.0144037
798.996	0.0143468
799.075	0.0142255
799.153	0.0142959
799.231	0.0142279
799.309	0.0142080
799.387	0.0143364
799.465	0.0143564
799.543	0.0143252
799.621	0.0143307
799.700	0.0144262
799.778	0.0144077
799.856	0.0143168
799.934	0.0144256
800.012	0.0143175
800.090	0.0143999
800.168	0.0145084
800.246	0.0143871
800.325	0.0143629
800.403	0.0144921
800.481	0.0144247
800.559	0.0144732
800.637	0.0143311
800.715	0.0143435
800.793	0.0143967
800.871	0.0142471
800.950	0.0142522
801.028	0.0142789
801.106	0.0143147
801.184	0.0143750
801.262	0.0143604
801.340	0.0143571
801.418	0.0143997
801.496	0.0144124
801.575	0.0144298
801.653	0.0144157
801.731	0.0143285
801.809	0.0144685
801.887	0.0144541
801.965	0.0144158
802.043	0.0143343
802.121	0.0144419
802.200	0.0144583
802.278	0.0143980
802.356	0.0144189
802.434	0.0145023
802.512	0.0146037
802.590	0.0145247
802.668	0.0145256
802.746	0.0145287
802.825	0.0145516
802.903	0.0144599
802.981	0.0145503
803.059	0.0143327
803.137	0.0143605
803.215	0.0144158
803.293	0.0144242
803.371	0.0145274
803.450	0.0145623
803.528	0.0145361
803.606	0.0143872
803.684	0.0142913
803.762	0.0144254
803.840	0.0144783
803.918	0.0143466
803.996	0.0143417
804.075	0.0144343
804.153	0.0144960
804.231	0.0144032
804.309	0.0144662
804.387	0.0143859
804.465	0.0145197
804.543	0.0146351
804.621	0.0145198
804.700	0.0144504
804.778	0.0143790
804.856	0.0145210
804.934	0.0143765
805.012	0.0143922
805.090	0.0145233
805.168	0.0145075
805.246	0.0144762
805.325	0.0144687
805.403	0.0144741
805.481	0.0144891
805.559	0.0143359
805.637	0.0143919
805.715	0.0144579
805.793	0.0143926
805.871	0.0144076
805.950	0.0145363
806.028	0.0144897
806.106	0.0144717
806.184	0.0144379
806.262	0.0145131
806.340	0.0144279
806.418	0.0146693
806.496	0.0145444
806.575	0.0144536
806.653	0.0146046
806.731	0.0144318
806.809	0.0144369
806.887	0.0145088
806.965	0.0145076
807.043	0.0143405
807.121	0.0144450
807.200	0.0145081
807.278	0.0143834
807.356	0.0143449
807.434	0.0143990
807.512	0.0145224
807.590	0.0144465
807.668	0.0144768
807.746	0.0145141
807.825	0.0143786
807.903	0.0144199
807.981	0.0144427
808.059	0.0145079
808.137	0.0144441
808.215	0.0144406
808.293	0.0144056
808.371	0.0145104
808.450	0.0143581
808.528	0.0144977
808.606	0.0145667
808.684	0.0144450
808.762	0.0144249
808.840	0.0144865
808.918	0.0144270
808.996	0.0143860
809.075	0.0144878
809.153	0.0144905
809.231	0.0143678
809.309	0.0143470
809.387	0.0143534
809.465	0.0144202
809.543	0.0144348
809.621	0.0143734
809.700	0.0143273
809.778	0.0144390
809.856	0.0145081
809.934	0.0144203
810.012	0.0142970
810.090	0.0143394
810.168	0.0142909
810.246	0.0143056
810.325	0.0144584
810.403	0.0144454
810.481	0.0144670
810.559	0.0143653
810.637	0.0145405
810.715	0.0143915
810.793	0.0145133
810.871	0.0145889
810.950	0.0144473
811.028	0.0143665
811.106	0.0145476
811.184	0.0144455
811.262	0.0144461
811.340	0.0146338
811.418	0.0145210
811.496	0.0145721
811.575	0.0146439
811.653	0.0145301
811.731	0.0145083
811.809	0.0144149
811.887	0.0144134
811.965	0.0144740
812.043	0.0145216
812.121	0.0143890
812.200	0.0143860
812.278	0.0144862
812.356	0.0144125
812.434	0.0145898
812.512	0.0144243
812.590	0.0144193
812.668	0.0142711
812.746	0.0143681
812.825	0.0145004
812.903	0.0143284
812.981	0.0144456
813.059	0.0143916
813.137	0.0144495
813.215	0.0144324
813.293	0.0144898
813.371	0.0144286
813.450	0.0144663
813.528	0.0144905
813.606	0.0145161
813.684	0.0144378
813.762	0.0144416
813.840	0.0143569
813.918	0.0145856
813.996	0.0145005
814.075	0.0144720
814.153	0.0144292
814.231	0.0144932
814.309	0.0144606
814.387	0.0145757
814.465	0.0144498
814.543	0.0145381
814.621	0.0145120
814.700	0.0145583
814.778	0.0145500
814.856	0.0146571
814.934	0.0146194
815.012	0.0145494
815.090	0.0145339
815.168	0.0145771
815.246	0.0144922
815.325	0.0145313
815.403	0.0145085
815.481	0.0144981
815.559	0.0144473
815.637	0.0144762
815.715	0.0143821
815.793	0.0144929
815.871	0.0143556
815.950	0.0143758
816.028	0.0144240
816.106	0.0144113
816.184	0.0144112
816.262	0.0144033
816.340	0.0144437
816.418	0.0144896
816.496	0.0144049
816.575	0.0144528
816.653	0.0144806
816.731	0.0145457
816.809	0.0144455
816.887	0.0144292
816.965	0.0145507
817.043	0.0145289
817.121	0.0144852
817.200	0.0143932
817.278	0.0144569
817.356	0.0145069
817.434	0.0145061
817.512	0.0143888
817.590	0.0144589
817.668	0.0145020
817.746	0.0144782
817.825	0.0144290
817.903	0.0143368
817.981	0.0144119
818.059	0.0144475
818.137	0.0144404
818.215	0.0143743
818.293	0.0143784
818.371	0.0144164
818.450	0.0144374
818.528	0.0143777
818.606	0.0143250
818.684	0.0144448
818.762	0.0145071
818.840	0.0144973
818.918	0.0144296
818.996	0.0144798
819.075	0.0144324
819.153	0.0143835
819.231	0.0144602
819.309	0.0143900
819.387	0.0144775
819.465	0.0143737
819.543	0.0144025
819.621	0.0145332
819.700	0.0145293
819.778	0.0143767
819.856	0.0145033
819.934	0.0144044
820.012	0.0143946
820.090	0.0144144
820.168	0.0143194
820.246	0.0146346
820.325	0.0145148
820.403	0.0143925
820.481	0.0143694
820.559	0.0144485
820.637	0.0142832
820.715	0.0143793
820.793	0.0143483
820.871	0.0143446
820.950	0.0143382
821.028	0.0143764
821.106	0.0143092
821.184	0.0144453
821.262	0.0143596
821.340	0.0143546
821.418	0.0142904
821.496	0.0143961
821.575	0.0144271
821.653	0.0143239
821.731	0.0142140
821.809	0.0143987
821.887	0.0142931
821.965	0.0142393
822.043	0.0143437
822.121	0.0143849
822.200	0.0143727
822.278	0.0143288
822.356	0.0142386
822.434	0.0142665
822.512	0.0143174
822.590	0.0143603
822.668	0.0143751
822.746	0.0143069
822.825	0.0142660
822.903	0.0143434
822.981	0.0143006
823.059	0.0143742
823.137	0.0144421
823.215	0.0145189
823.293	0.0145057
823.371	0.0143695
823.450	0.0143572
823.528	0.0143184
823.606	0.0145969
823.684	0.0145092
823.762	0.0145576
823.840	0.0144807
823.918	0.0144976
823.996	0.0144408
824.075	0.0143719
824.153	0.0143282
824.231	0.0144703
824.309	0.0143317
824.387	0.0145534
824.465	0.0144180
824.543	0.0144675
824.621	0.0144865
824.700	0.0144695
824.778	0.0144516
824.856	0.0144806
824.934	0.0143912
825.012	0.0144735
825.090	0.0144366
825.168	0.0144352
825.246	0.0144489
825.325	0.0144618
825.403	0.0144624
825.481	0.0144205
825.559	0.0143989
825.637	0.0143915
825.715	0.0143058
825.793	0.0143706
825.871	0.0144785
825.950	0.0144444
826.028	0.0144121
826.106	0.0144712
826.184	0.0145049
826.262	0.0145579
826.340	0.0144583
826.418	0.0144295
826.496	0.0145663
826.575	0.0145260
826.653	0.0143801
826.731	0.0144433
826.809	0.0144576
826.887	0.0145594
826.965	0.0146203
827.043	0.0145771
827.121	0.0145241
827.200	0.0146650
827.278	0.0145081
827.356	0.0145434
827.434	0.0146096
827.512	0.0144317
827.590	0.0143540
827.668	0.0145144
827.746	0.0145002
827.825	0.0144234
827.903	0.0144137
827.981	0.0143579
828.059	0.0144012
828.137	0.0144584
828.215	0.0143131
828.293	0.0143434
828.371	0.0145346
828.450	0.0144137
828.528	0.0144026
828.606	0.0145374
828.684	0.0146843
828.762	0.0145899
828.840	0.0145125
828.918	0.0144789
828.996	0.0146358
829.075	0.0145193
829.153	0.0146587
829.231	0.0145866
829.309	0.0145689
829.387	0.0146147
829.465	0.0145654
829.543	0.0146237
829.621	0.0144913
829.700	0.0145238
829.778	0.0144595
829.856	0.0144615
829.934	0.0143827
830.012	0.0144513
830.090	0.0144837
830.168	0.0144949
830.246	0.0144215
830.325	0.0144249
830.403	0.0144028
830.481	0.0143540
830.559	0.0143491
830.637	0.0143236
830.715	0.0144669
830.793	0.0144395
830.871	0.0145122
830.950	0.0144575
831.028	0.0144839
831.106	0.0144844
831.184	0.0144949
831.262	0.0145616
831.340	0.0145621
831.418	0.0145113
831.496	0.0144926
831.575	0.0146203
831.653	0.0146016
831.731	0.0144360
831.809	0.0146814
831.887	0.0145357
831.965	0.0145490
832.043	0.0145998
832.121	0.0145913
832.200	0.0144624
832.278	0.0145087
832.356	0.0146284
832.434	0.0144197
832.512	0.0143914
832.590	0.0144600
832.668	0.0143744
832.746	0.0143227
832.825	0.0144950
832.903	0.0144814
832.981	0.0143377
833.059	0.0144856
833.137	0.0144950
833.215	0.0144044
833.293	0.0146162
833.371	0.0144065
833.450	0.0144103
833.528	0.0143679
833.606	0.0145520
833.684	0.0144595
833.762	0.0144057
833.840	0.0145112
833.918	0.0145754
833.996	0.0145796
834.075	0.0145184
834.153	0.0145763
834.231	0.0145427
834.309	0.0145111
834.387	0.0145182
834.465	0.0144888
834.543	0.0144077
834.621	0.0144524
834.700	0.0143369
834.778	0.0144969
834.856	0.0144896
834.934	0.0144275
835.012	0.0145387
835.090	0.0144871
835.168	0.0144157
835.246	0.0143765
835.325	0.0144020
835.403	0.0144649
835.481	0.0145322
835.559	0.0144602
835.637	0.0145162
835.715	0.0144708
835.793	0.0145207
835.871	0.0144868
835.950	0.0144482
836.028	0.0143983
836.106	0.0144638
836.184	0.0145027
836.262	0.0145213
836.340	0.0144904
836.418	0.0143919
836.496	0.0144682
836.575	0.0144585
836.653	0.0145668
836.731	0.0145358
836.809	0.0145303
836.887	0.0144059
836.965	0.0145124
837.043	0.0145561
837.121	0.0146672
837.200	0.0145291
837.278	0.0144513
837.356	0.0145103
837.434	0.0144981
837.512	0.0144820
837.590	0.0145241
837.668	0.0144722
837.746	0.0144524
837.825	0.0145309
837.903	0.0145644
837.981	0.0145515
838.059	0.0144690
838.137	0.0144141
838.215	0.0144691
838.293	0.0144974
838.371	0.0143356
838.450	0.0144321
838.528	0.0144582
838.606	0.0144830
838.684	0.0145808
838.762	0.0144075
838.840	0.0144456
838.918	0.0145181
838.996	0.0144795
839.075	0.0144642
839.153	0.0145277
839.231	0.0145567
839.309	0.0145015
839.387	0.0144099
839.465	0.0146139
839.543	0.0145933
839.621	0.0146259
839.700	0.0145230
839.778	0.0144215
839.856	0.0144850
839.934	0.0145290
840.012	0.0144611
840.090	0.0144254
840.168	0.0144483
840.246	0.0143680
840.325	0.0144293
840.403	0.0143252
840.481	0.0143738
840.559	0.0144406
840.637	0.0144087
840.715	0.0144449
840.793	0.0143705
840.871	0.0144254
840.950	0.0144813
841.028	0.0145515
841.106	0.0144301
841.184	0.0143584
841.262	0.0143687
841.340	0.0144586
841.418	0.0145721
841.496	0.0144264
841.575	0.0144505
841.653	0.0144239
841.731	0.0144204
841.809	0.0144321
841.887	0.0144297
841.965	0.0144582
842.043	0.0145158
842.121	0.0146067
842.200	0.0144842
842.278	0.0145672
842.356	0.0143912
842.434	0.0143767
842.512	0.0144910
842.590	0.0144420
842.668	0.0143551
842.746	0.0144532
842.825	0.0145248
842.903	0.0144418
842.981	0.0144328
843.059	0.0145525
843.137	0.0144263
843.215	0.0144539
843.293	0.0144216
843.371	0.0144112
843.450	0.0144376
843.528	0.0144639
843.606	0.0144696
843.684	0.0144768
843.762	0.0144069
843.840	0.0144367
843.918	0.0144646
843.996	0.0144066
844.075	0.0143744
844.153	0.0143443
844.231	0.0144160
844.309	0.0144714
844.387	0.0144414
844.465	0.0143333
844.543	0.0143404
844.621	0.0144052
844.700	0.0143520
844.778	0.0144348
844.856	0.0144580
844.934	0.0144649
845.012	0.0144205
845.090	0.0144511
845.168	0.0144372
845.246	0.0144133
845.325	0.0143899
845.403	0.0144951
845.481	0.0144633
845.559	0.0144732
845.637	0.0143735
845.715	0.0144067
845.793	0.0143898
845.871	0.0143399
845.950	0.0144601
846.028	0.0143836
846.106	0.0142917
846.184	0.0143810
846.262	0.0143340
846.340	0.0142747
846.418	0.0142956
846.496	0.0142739
846.575	0.0142082
846.653	0.0142690
846.731	0.0142891
846.809	0.0144285
846.887	0.0143815
846.965	0.0144286
847.043	0.0143661
847.121	0.0143900
847.200	0.0143476
847.278	0.0144292
847.356	0.0144174
847.434	0.0145238
847.512	0.0143257
847.590	0.0143581
847.668	0.0143137
847.746	0.0144254
847.825	0.0144288
847.903	0.0143394
847.981	0.0144331
848.059	0.0143818
848.137	0.0142946
848.215	0.0143136
848.293	0.0143330
848.371	0.0143069
848.450	0.0142834
848.528	0.0143074
848.606	0.0143542
848.684	0.0142746
848.762	0.0142673
848.840	0.0143326
848.918	0.0143277
848.996	0.0143748
849.075	0.0144115
849.153	0.0143187
849.231	0.0144462
849.309	0.0143966
849.387	0.0144344
849.465	0.0144875
849.543	0.0144218
849.621	0.0145583
849.700	0.0144681
849.778	0.0144878
849.856	0.0144461
849.934	0.0144291
850.012	0.0143937
850.090	0.0144690
850.168	0.0144768
850.246	0.0144611
850.325	0.0144785
850.403	0.0143611
850.481	0.0143098
850.559	0.0144920
850.637	0.0145013
850.715	0.0143513
850.793	0.0143570
850.871	0.0144626
850.950	0.0144385
851.028	0.0144271
851.106	0.0144896
851.184	0.0142953
851.262	0.0144405
851.340	0.0144852
851.418	0.0144503
851.496	0.0142931
851.575	0.0144057
851.653	0.0143944
851.731	0.0143567
851.809	0.0143600
851.887	0.0142467
851.965	0.0143668
852.043	0.0143179
852.121	0.0144749
852.200	0.0143213
852.278	0.0144086
852.356	0.0143910
852.434	0.0144203
852.512	0.0143710
852.590	0.0144672
852.668	0.0143942
852.746	0.0144489
852.825	0.0145042
852.903	0.0144720
852.981	0.0145085
853.059	0.0145697
853.137	0.0145324
853.215	0.0145878
853.293	0.0145637
853.371	0.0144284
853.450	0.0143531
853.528	0.0144927
853.606	0.0143554
853.684	0.0143988
853.762	0.0146025
853.840	0.0145713
853.918	0.0143832
853.996	0.0143027
854.075	0.0143369
854.153	0.0144721
854.231	0.0145335
854.309	0.0144612
854.387	0.0144530
854.465	0.0143858
854.543	0.0144162
854.621	0.0145770
854.700	0.0145894
854.778	0.0143138
854.856	0.0143328
854.934	0.0144521
855.012	0.0144353
855.090	0.0145044
855.168	0.0146406
855.246	0.0145587
855.325	0.0145578
855.403	0.0145490
855.481	0.0146734
855.559	0.0145952
855.637	0.0145612
855.715	0.0146262
855.793	0.0146574
855.871	0.0145335
855.950	0.0145954
856.028	0.0144745
856.106	0.0144833
856.184	0.0147655
856.262	0.0144434
856.340	0.0144236
856.418	0.0145393
856.496	0.0144006
856.575	0.0144061
856.653	0.0146748
856.731	0.0144050
856.809	0.0145376
856.887	0.0145173
856.965	0.0143990
857.043	0.0144044
857.121	0.0144091
857.200	0.0145174
857.278	0.0143671
857.356	0.0144386
857.434	0.0144546
857.512	0.0144488
857.590	0.0143944
857.668	0.0143019
857.746	0.0143481
857.825	0.0145258
857.903	0.0142840
857.981	0.0145118
858.059	0.0145716
858.137	0.0144692
858.215	0.0145403
858.293	0.0143019
858.371	0.0145332
858.450	0.0144879
858.528	0.0145107
858.606	0.0144196
858.684	0.0146870
858.762	0.0144779
858.840	0.0145568
858.918	0.0144974
858.996	0.0146239
859.075	0.0145061
859.153	0.0145538
859.231	0.0144753
859.309	0.0144164
859.387	0.0144996
859.465	0.0145249
859.543	0.0146402
859.621	0.0145831
859.700	0.0143977
859.778	0.0144040
859.856	0.0145042
859.934	0.0144563
860.012	0.0144189
860.090	0.0145316
860.168	0.0144785
860.246	0.0143719
860.325	0.0143423
860.403	0.0143141
860.481	0.0144477
860.559	0.0144841
860.637	0.0146136
860.715	0.0144075
860.793	0.0144648
860.871	0.0144453
860.950	0.0145672
861.028	0.0143762
861.106	0.0144861
861.184	0.0144075
861.262	0.0146040
861.340	0.0145018
861.418	0.0145171
861.496	0.0144263
861.575	0.0143963
861.653	0.0145905
861.731	0.0146784
861.809	0.0145793
861.887	0.0145177
861.965	0.0146658
862.043	0.0145030
862.121	0.0145308
862.200	0.0143812
862.278	0.0144804
862.356	0.0144537
862.434	0.0147347
862.512	0.0145181
862.590	0.0144714
862.668	0.0143562
862.746	0.0144416
862.825	0.0143182
862.903	0.0144949
862.981	0.0145557
863.059	0.0144191
863.137	0.0144800
863.215	0.0145428
863.293	0.0144377
863.371	0.0143828
863.450	0.0146456
863.528	0.0144836
863.606	0.0144592
863.684	0.0144032
863.762	0.0144920
863.840	0.0144562
863.918	0.0143849
863.996	0.0143836
864.075	0.0143732
864.153	0.0144209
864.231	0.0143898
864.309	0.0143735
864.387	0.0145361
864.465	0.0144685
864.543	0.0143887
864.621	0.0143246
864.700	0.0144392
864.778	0.0145441
864.856	0.0145254
864.934	0.0145274
865.012	0.0144077
865.090	0.0144268
865.168	0.0144714
865.246	0.0144471
865.325	0.0145671
865.403	0.0145314
865.481	0.0146270
865.559	0.0144169
865.637	0.0144021
865.715	0.0143768
865.793	0.0144810
865.871	0.0142616
865.950	0.0143788
866.028	0.0144746
866.106	0.0144016
866.184	0.0143965
866.262	0.0144384
866.340	0.0145351
866.418	0.0143719
866.496	0.0143896
866.575	0.0144141
866.653	0.0144431
866.731	0.0144263
866.809	0.0145048
866.887	0.0143903
866.965	0.0144485
867.043	0.0144363
867.121	0.0145911
867.200	0.0146242
867.278	0.0144309
867.356	0.0143958
867.434	0.0144654
867.512	0.0144624
867.590	0.0142924
867.668	0.0143108
867.746	0.0145087
867.825	0.0145531
867.903	0.0145570
867.981	0.0143777
868.059	0.0143453
868.137	0.0143037
868.215	0.0144079
868.293	0.0143555
868.371	0.0143024
868.450	0.0143229
868.528	0.0145646
868.606	0.0144311
868.684	0.0143114
868.762	0.0144437
868.840	0.0143693
868.918	0.0143446
868.996	0.0143517
869.075	0.0143070
869.153	0.0144376
869.231	0.0143037
869.309	0.0143674
869.387	0.0145140
869.465	0.0143620
869.543	0.0143367
869.621	0.0145071
869.700	0.0144586
869.778	0.0145045
869.856	0.0143971
869.934	0.0143205
870.012	0.0144298
870.090	0.0144188
870.168	0.0142612
870.246	0.0142948
870.325	0.0142856
870.403	0.0144492
870.481	0.0143504
870.559	0.0142404
870.637	0.0142812
870.715	0.0143183
870.793	0.0144011
870.871	0.0143356
870.950	0.0143276
871.028	0.0141722
871.106	0.0144510
871.184	0.0144868
871.262	0.0144279
871.340	0.0141763
871.418	0.0143735
871.496	0.0142953
871.575	0.0143154
871.653	0.0143636
871.731	0.0142279
871.809	0.0142829
871.887	0.0143271
871.965	0.0144257
872.043	0.0143813
872.121	0.0144174
872.200	0.0144339
872.278	0.0143534
872.356	0.0144536
872.434	0.0144396
872.512	0.0144172
872.590	0.0143233
872.668	0.0143021
872.746	0.0143763
872.825	0.0144065
872.903	0.0144976
872.981	0.0144704
873.059	0.0144591
873.137	0.0144555
873.215	0.0145097
873.293	0.0145465
873.371	0.0144000
873.450	0.0144959
873.528	0.0145267
873.606	0.0144549
873.684	0.0144176
873.762	0.0144096
873.840	0.0145201
873.918	0.0145795
873.996	0.0146220
874.075	0.0144460
874.153	0.0143790
874.231	0.0145015
874.309	0.0144545
874.387	0.0143021
874.465	0.0143485
874.543	0.0144505
874.621	0.0142382
874.700	0.0143032
874.778	0.0143838
874.856	0.0143988
874.934	0.0143382
875.012	0.0142542
875.090	0.0142786
875.168	0.0143084
875.246	0.0144457
875.325	0.0143707
875.403	0.0143827
875.481	0.0144500
875.559	0.0144210
875.637	0.0144189
875.715	0.0143898
875.793	0.0145179
875.871	0.0145100
875.950	0.0144509
876.028	0.0143893
876.106	0.0142873
876.184	0.0144984
876.262	0.0145522
876.340	0.0144839
876.418	0.0144536
876.496	0.0145179
876.575	0.0145415
876.653	0.0144891
876.731	0.0144841
876.809	0.0144137
876.887	0.0143499
876.965	0.0144031
877.043	0.0143539
877.121	0.0144814
877.200	0.0144312
877.278	0.0143386
877.356	0.0143890
877.434	0.0143854
877.512	0.0143896
877.590	0.0143574
877.668	0.0143118
877.746	0.0143917
877.825	0.0143745
877.903	0.0144289
877.981	0.0144144
878.059	0.0144881
878.137	0.0144881
878.215	0.0145493
878.293	0.0145671
878.371	0.0145393
878.450	0.0144823
878.528	0.0145536
878.606	0.0147085
878.684	0.0145567
878.762	0.0145127
878.840	0.0144618
878.918	0.0145255
878.996	0.0146098
879.075	0.0144915
879.153	0.0144176
879.231	0.0144455
879.309	0.0143941
879.387	0.0143695
879.465	0.0143566
879.543	0.0145358
879.621	0.0144894
879.700	0.0144737
879.778	0.0142585
879.856	0.0144404
879.934	0.0144481
880.012	0.0143708
880.090	0.0144923
880.168	0.0141865
880.246	0.0144551
880.325	0.0143776
880.403	0.0143569
880.481	0.0143071
880.559	0.0145152
880.637	0.0144283
880.715	0.0144641
880.793	0.0144740
880.871	0.0144632
880.950	0.0144280
881.028	0.0144630
881.106	0.0146371
881.184	0.0145091
881.262	0.0146047
881.340	0.0144641
881.418	0.0144875
881.496	0.0145920
881.575	0.0145601
881.653	0.0144965
881.731	0.0145706
881.809	0.0143507
881.887	0.0143515
881.965	0.0144382
882.043	0.0144397
882.121	0.0143492
882.200	0.0145117
882.278	0.0146225
882.356	0.0145105
882.434	0.0144147
882.512	0.0145195
882.590	0.0144717
882.668	0.0144358
882.746	0.0144633
882.825	0.0143545
882.903	0.0143388
882.981	0.0144221
883.059	0.0143854
883.137	0.0144192
883.215	0.0144296
883.293	0.0145351
883.371	0.0144232
883.450	0.0143519
883.528	0.0144519
883.606	0.0143536
883.684	0.0145014
883.762	0.0144176
883.840	0.0145101
883.918	0.0143295
883.996	0.0144559
884.075	0.0144433
884.153	0.0142929
884.231	0.0144071
884.309	0.0145361
884.387	0.0144358
884.465	0.0144678
884.543	0.0145414
884.621	0.0145046
884.700	0.0146072
884.778	0.0146284
884.856	0.0144649
884.934	0.0143845
885.012	0.0144819
885.090	0.0145870
885.168	0.0145009
885.246	0.0143252
885.325	0.0144448
885.403	0.0144894
885.481	0.0144925
885.559	0.0144318
885.637	0.0144724
885.715	0.0144061
885.793	0.0145054
885.871	0.0145259
885.950	0.0143143
886.028	0.0143708
886.106	0.0144225
886.184	0.0142544
886.262	0.0143246
886.340	0.0144617
886.418	0.0144650
886.496	0.0144313
886.575	0.0145472
886.653	0.0143565
886.731	0.0144106
886.809	0.0144477
886.887	0.0145224
886.965	0.0144769
887.043	0.0145171
887.121	0.0144595
887.200	0.0145303
887.278	0.0144816
887.356	0.0143505
887.434	0.0144637
887.512	0.0145340
887.590	0.0145561
887.668	0.0146720
887.746	0.0145446
887.825	0.0145325
887.903	0.0144820
887.981	0.0145691
888.059	0.0144231
888.137	0.0144281
888.215	0.0144424
888.293	0.0143798
888.371	0.0143112
888.450	0.0143468
888.528	0.0143980
888.606	0.0142757
888.684	0.0143463
888.762	0.0143920
888.840	0.0143452
888.918	0.0143095
888.996	0.0143297
889.075	0.0144324
889.153	0.0144007
889.231	0.0144653
889.309	0.0145463
889.387	0.0144412
889.465	0.0145197
889.543	0.0145029
889.621	0.0145909
889.700	0.0145510
889.778	0.0144398
889.856	0.0143723
889.934	0.0144063
890.012	0.0143900
890.090	0.0143410
890.168	0.0143242
890.246	0.0143010
890.325	0.0142402
890.403	0.0143482
890.481	0.0142676
890.559	0.0143396
890.637	0.0142552
890.715	0.0143389
890.793	0.0144019
890.871	0.0142557
890.950	0.0142424
891.028	0.0142874
891.106	0.0145730
891.184	0.0142909
891.262	0.0142321
891.340	0.0143329
891.418	0.0144092
891.496	0.0144316
891.575	0.0143401
891.653	0.0142982
891.731	0.0144118
891.809	0.0143621
891.887	0.0144811
891.965	0.0144509
892.043	0.0143978
892.121	0.0145217
892.200	0.0145010
892.278	0.0144543
892.356	0.0144521
892.434	0.0144101
892.512	0.0143398
892.590	0.0143616
892.668	0.0143320
892.746	0.0143595
892.825	0.0141444
892.903	0.0143484
892.981	0.0144365
893.059	0.0143727
893.137	0.0144529
893.215	0.0144650
893.293	0.0144042
893.371	0.0144395
893.450	0.0145216
893.528	0.0145621
893.606	0.0145017
893.684	0.0144814
893.762	0.0145288
893.840	0.0144788
893.918	0.0144100
893.996	0.0144889
894.075	0.0144527
894.153	0.0143269
894.231	0.0143392
894.309	0.0144474
894.387	0.0143625
894.465	0.0142187
894.543	0.0141919
894.621	0.0142181
894.700	0.0143333
894.778	0.0143346
894.856	0.0143026
894.934	0.0143433
895.012	0.0142126
895.090	0.0143081
895.168	0.0144327
895.246	0.0143511
895.325	0.0143430
895.403	0.0144376
895.481	0.0143627
895.559	0.0144487
895.637	0.0143740
895.715	0.0143935
895.793	0.0144424
895.871	0.0144655
895.950	0.0144172
896.028	0.0143753
896.106	0.0143436
896.184	0.0144293
896.262	0.0144934
896.340	0.0143742
896.418	0.0144798
896.496	0.0145213
896.575	0.0143262
896.653	0.0144083
896.731	0.0144350
896.809	0.0143803
896.887	0.0144891
896.965	0.0144000
897.043	0.0145077
897.121	0.0145254
897.200	0.0145782
897.278	0.0144628
897.356	0.0144718
897.434	0.0145068
897.512	0.0145377
897.590	0.0144228
897.668	0.0144307
897.746	0.0144898
897.825	0.0144118
897.903	0.0144949
897.981	0.0145557
898.059	0.0143053
898.137	0.0144267
898.215	0.0144498
898.293	0.0144122
898.371	0.0143664
898.450	0.0143078
898.528	0.0142130
898.606	0.0144028
898.684	0.0142970
898.762	0.0142767
898.840	0.0143958
898.918	0.0143985
898.996	0.0143236
899.075	0.0143604
899.153	0.0144187
899.231	0.0143172
899.309	0.0144287
899.387	0.0144971
899.465	0.0145515
899.543	0.0144987
899.621	0.0146211
899.700	0.0146739
899.778	0.0145995
899.856	0.0144318
899.934	0.0145510
900.012	0.0144701
900.090	0.0145398
900.168	0.0143820
900.246	0.0144413
900.325	0.0144843
900.403	0.0143930
900.481	0.0143490
900.559	0.0143936
900.637	0.0143412
900.715	0.0141955
900.793	0.0142467
900.871	0.0144518
900.950	0.0144358
901.028	0.0142795
901.106	0.0143240
901.184	0.0144792
901.262	0.0143031
901.340	0.0142930
901.418	0.0143989
901.496	0.0145306
901.575	0.0145621
901.653	0.0145747
901.731	0.0145380
901.809	0.0146157
901.887	0.0147218
901.965	0.0146252
902.043	0.0145611
902.121	0.0145972
902.200	0.0145061
902.278	0.0145115
902.356	0.0144623
902.434	0.0145721
902.512	0.0144749
902.590	0.0145387
902.668	0.0144425
902.746	0.0144244
902.825	0.0142918
902.903	0.0143349
902.981	0.0143832
903.059	0.0143150
903.137	0.0144212
903.215	0.0144910
903.293	0.0143428
903.371	0.0144289
903.450	0.0143191
903.528	0.0145164
903.606	0.0144067
903.684	0.0144252
903.762	0.0145036
903.840	0.0145900
903.918	0.0145554
903.996	0.0144817
904.075	0.0144877
904.153	0.0145164
904.231	0.0146292
904.309	0.0144463
904.387	0.0144466
904.465	0.0143555
904.543	0.0144473
904.621	0.0145804
904.700	0.0143830
904.778	0.0144582
904.856	0.0144445
904.934	0.0143437
905.012	0.0143047
905.090	0.0144105
905.168	0.0141799
905.246	0.0143838
905.325	0.0143137
905.403	0.0143405
905.481	0.0142447
905.559	0.0143067
905.637	0.0143059
905.715	0.0143823
905.793	0.0143254
905.871	0.0142642
905.950	0.0142539
906.028	0.0142682
906.106	0.0144392
906.184	0.0143168
906.262	0.0144246
906.340	0.0144038
906.418	0.0144410
906.496	0.0144746
906.575	0.0143658
906.653	0.0145356
906.731	0.0145618
906.809	0.0145278
906.887	0.0145159
906.965	0.0145553
907.043	0.0144590
907.121	0.0145150
907.200	0.0144304
907.278	0.0144404
907.356	0.0144377
907.434	0.0143268
907.512	0.0145052
907.590	0.0144022
907.668	0.0143937
907.746	0.0144428
907.825	0.0144341
907.903	0.0143448
907.981	0.0144223
908.059	0.0144581
908.137	0.0143906
908.215	0.0143162
908.293	0.0143757
908.371	0.0144418
908.450	0.0143591
908.528	0.0143021
908.606	0.0143362
908.684	0.0142892
908.762	0.0142997
908.840	0.0142500
908.918	0.0143022
908.996	0.0142388
909.075	0.0143542
909.153	0.0143903
909.231	0.0142326
909.309	0.0144456
909.387	0.0145123
909.465	0.0143708
909.543	0.0143932
909.621	0.0143588
909.700	0.0144568
909.778	0.0144841
909.856	0.0145690
909.934	0.0144653
910.012	0.0144111
910.090	0.0144234
910.168	0.0144729
910.246	0.0143168
910.325	0.0143238
910.403	0.0144071
910.481	0.0142938
910.559	0.0144299
910.637	0.0143432
910.715	0.0142605
910.793	0.0143391
910.871	0.0143060
910.950	0.0144978
911.028	0.0143353
911.106	0.0144664
911.184	0.0143816
911.262	0.0143980
911.340	0.0144829
911.418	0.0144158
911.496	0.0145284
911.575	0.0144576
911.653	0.0144781
911.731	0.0144529
911.809	0.0145709
911.887	0.0144907
911.965	0.0144525
912.043	0.0144517
912.121	0.0144253
912.200	0.0143626
912.278	0.0145564
912.356	0.0144784
912.434	0.0145118
912.512	0.0144455
912.590	0.0144476
912.668	0.0144852
912.746	0.0144824
912.825	0.0143937
912.903	0.0143428
912.981	0.0144983
913.059	0.0144617
913.137	0.0143858
913.215	0.0145089
913.293	0.0144864
913.371	0.0144568
913.450	0.0144192
913.528	0.0144176
913.606	0.0144879
913.684	0.0144299
913.762	0.0144624
913.840	0.0144843
913.918	0.0143893
913.996	0.0145279
914.075	0.0145046
914.153	0.0146151
914.231	0.0146110
914.309	0.0146136
914.387	0.0145341
914.465	0.0144641
914.543	0.0144515
914.621	0.0145531
914.700	0.0145901
914.778	0.0145489
914.856	0.0145153
914.934	0.0145383
915.012	0.0144810
915.090	0.0144080
915.168	0.0143875
915.246	0.0145929
915.325	0.0145348
915.403	0.0144442
915.481	0.0144103
915.559	0.0145290
915.637	0.0143894
915.715	0.0144710
915.793	0.0145271
915.871	0.0144382
915.950	0.0143814
916.028	0.0144090
916.106	0.0146000
916.184	0.0144298
916.262	0.0145235
916.340	0.0144935
916.418	0.0145715
916.496	0.0145491
916.575	0.0145242
916.653	0.0145138
916.731	0.0145233
916.809	0.0144816
916.887	0.0144995
916.965	0.0144402
917.043	0.0143738
917.121	0.0143372
917.200	0.0144839
917.278	0.0145484
917.356	0.0145505
917.434	0.0143690
917.512	0.0144561
917.590	0.0143859
917.668	0.0144772
917.746	0.0143748
917.825	0.0144705
917.903	0.0144947
917.981	0.0144556
918.059	0.0144566
918.137	0.0143150
918.215	0.0144514
918.293	0.0145228
918.371	0.0144415
918.450	0.0143214
918.528	0.0143315
918.606	0.0145214
918.684	0.0145431
918.762	0.0144487
918.840	0.0143085
918.918	0.0144251
918.996	0.0144382
919.075	0.0144552
919.153	0.0143915
919.231	0.0142290
919.309	0.0142946
919.387	0.0142916
919.465	0.0144231
919.543	0.0144916
919.621	0.0143154
919.700	0.0143769
919.778	0.0143270
919.856	0.0143465
919.934	0.0143828
920.012	0.0145022
920.090	0.0144633
920.168	0.0144884
920.246	0.0144220
920.325	0.0146077
920.403	0.0145596
920.481	0.0144293
920.559	0.0144234
920.637	0.0144437
920.715	0.0144236
920.793	0.0144144
920.871	0.0144260
920.950	0.0144380
921.028	0.0144007
921.106	0.0143863
921.184	0.0144678
921.262	0.0145941
921.340	0.0143999
921.418	0.0143327
921.496	0.0144427
921.575	0.0144035
921.653	0.0143794
921.731	0.0145123
921.809	0.0143600
921.887	0.0144374
921.965	0.0144523
922.043	0.0144144
922.121	0.0142326
922.200	0.0142510
922.278	0.0143984
922.356	0.0144122
922.434	0.0144192
922.512	0.0144204
922.590	0.0143822
922.668	0.0144184
922.746	0.0144241
922.825	0.0144558
922.903	0.0145087
922.981	0.0144344
923.059	0.0143463
923.137	0.0144283
923.215	0.0144779
923.293	0.0144615
923.371	0.0144655
923.450	0.0144871
923.528	0.0143782
923.606	0.0143777
923.684	0.0143381
923.762	0.0144400
923.840	0.0143415
923.918	0.0144540
923.996	0.0143118
924.075	0.0142794
924.153	0.0144197
924.231	0.0143233
924.309	0.0143522
924.387	0.0143864
924.465	0.0143703
924.543	0.0144348
924.621	0.0142768
924.700	0.0144047
924.778	0.0143562
924.856	0.0145335
924.934	0.0144006
925.012	0.0144276
925.090	0.0144257
925.168	0.0143464
925.246	0.0144248
925.325	0.0146181
925.403	0.0145034
925.481	0.0145313
925.559	0.0145045
925.637	0.0144153
925.715	0.0144455
925.793	0.0145093
925.871	0.0144373
925.950	0.0145029
926.028	0.0144536
926.106	0.0143693
926.184	0.0144725
926.262	0.0142880
926.340	0.0145547
926.418	0.0145283
926.496	0.0143391
926.575	0.0142921
926.653	0.0143975
926.731	0.0144032
926.809	0.0142872
926.887	0.0142626
926.965	0.0143775
927.043	0.0143517
927.121	0.0142129
927.200	0.0142791
927.278	0.0144197
927.356	0.0144334
927.434	0.0144283
927.512	0.0143654
927.590	0.0143346
927.668	0.0144082
927.746	0.0144586
927.825	0.0144604
927.903	0.0145901
927.981	0.0144891
928.059	0.0144624
928.137	0.0144661
928.215	0.0145206
928.293	0.0145036
928.371	0.0144454
928.450	0.0144297
928.528	0.0144016
928.606	0.0143882
928.684	0.0144409
928.762	0.0144868
928.840	0.0143948
928.918	0.0144928
928.996	0.0143726
929.075	0.0143175
929.153	0.0143894
929.231	0.0143808
929.309	0.0143970
929.387	0.0143285
929.465	0.0142925
929.543	0.0143735
929.621	0.0145349
929.700	0.0143623
929.778	0.0144279
929.856	0.0143449
929.934	0.0142818
930.012	0.0144776
930.090	0.0144937
930.168	0.0144083
930.246	0.0143996
930.325	0.0144466
930.403	0.0145000
930.481	0.0145145
930.559	0.0144843
930.637	0.0144584
930.715	0.0144487
930.793	0.0143581
930.871	0.0143861
930.950	0.0145824
931.028	0.0145824
931.106	0.0144585
931.184	0.0144929
931.262	0.0144037
931.340	0.0143438
931.418	0.0145245
931.496	0.0143973
931.575	0.0142705
931.653	0.0144148
931.731	0.0145743
931.809	0.0144376
931.887	0.0144215
931.965	0.0143917
932.043	0.0144122
932.121	0.0144350
932.200	0.0144236
932.278	0.0144640
932.356	0.0143488
932.434	0.0144411
932.512	0.0144782
932.590	0.0145106
932.668	0.0145511
932.746	0.0145483
932.825	0.0144538
932.903	0.0144495
932.981	0.0144518
933.059	0.0144324
933.137	0.0145168
933.215	0.0144023
933.293	0.0143713
933.371	0.0144468
933.450	0.0145083
933.528	0.0144501
933.606	0.0144567
933.684	0.0145217
933.762	0.0144284
933.840	0.0144115
933.918	0.0143875
933.996	0.0144188
934.075	0.0144884
934.153	0.0143782
934.231	0.0143739
934.309	0.0143524
934.387	0.0143061
934.465	0.0144388
934.543	0.0143298
934.621	0.0144508
934.700	0.0143923
934.778	0.0144019
934.856	0.0145204
934.934	0.0145376
935.012	0.0145372
935.090	0.0144469
935.168	0.0144180
935.246	0.0144608
935.325	0.0144731
935.403	0.0145343
935.481	0.0145775
935.559	0.0144093
935.637	0.0143854
935.715	0.0144104
935.793	0.0144919
935.871	0.0145802
935.950	0.0145930
936.028	0.0144870
936.106	0.0143985
936.184	0.0144624
936.262	0.0143754
936.340	0.0144292
936.418	0.0144145
936.496	0.0145216
936.575	0.0145436
936.653	0.0144139
936.731	0.0145059
936.809	0.0143755
936.887	0.0144930
936.965	0.0145773
937.043	0.0144595
937.121	0.0145392
937.200	0.0145049
937.278	0.0143940
937.356	0.0144482
937.434	0.0144614
937.512	0.0144981
937.590	0.0146443
937.668	0.0144103
937.746	0.0145015
937.825	0.0145107
937.903	0.0144086
937.981	0.0144514
938.059	0.0143137
938.137	0.0144624
938.215	0.0144910
938.293	0.0145835
938.371	0.0142373
938.450	0.0144481
938.528	0.0144151
938.606	0.0143050
938.684	0.0143355
938.762	0.0142719
938.840	0.0142893
938.918	0.0143563
938.996	0.0144082
939.075	0.0145165
939.153	0.0142559
939.231	0.0143903
939.309	0.0142575
939.387	0.0142743
939.465	0.0143791
939.543	0.0144319
939.621	0.0143949
939.700	0.0143081
939.778	0.0144865
939.856	0.0144841
939.934	0.0144521
940.012	0.0142818
940.090	0.0143809
940.168	0.0144057
940.246	0.0144194
940.325	0.0145264
940.403	0.0144703
940.481	0.0143013
940.559	0.0145603
940.637	0.0144453
940.715	0.0143542
940.793	0.0144330
940.871	0.0143019
940.950	0.0143893
941.028	0.0145370
941.106	0.0144989
941.184	0.0144397
941.262	0.0143133
941.340	0.0144083
941.418	0.0143336
941.496	0.0144101
941.575	0.0142252
941.653	0.0143697
941.731	0.0143617
941.809	0.0144706
941.887	0.0142649
941.965	0.0142937
942.043	0.0144365
942.121	0.0143833
942.200	0.0145262
942.278	0.0143388
942.356	0.0144221
942.434	0.0143127
942.512	0.0143357
942.590	0.0144243
942.668	0.0143958
942.746	0.0143451
942.825	0.0143884
942.903	0.0143635
942.981	0.0144128
943.059	0.0145292
943.137	0.0144122
943.215	0.0143958
943.293	0.0144678
943.371	0.0144302
943.450	0.0145010
943.528	0.0143323
943.606	0.0143371
943.684	0.0145200
943.762	0.0144924
943.840	0.0144623
943.918	0.0143771
943.996	0.0143500
944.075	0.0142770
944.153	0.0144126
944.231	0.0143808
944.309	0.0143298
944.387	0.0143021
944.465	0.0143057
944.543	0.0143192
944.621	0.0142936
944.700	0.0143096
944.778	0.0144710
944.856	0.0143237
944.934	0.0143790
945.012	0.0144022
945.090	0.0143647
945.168	0.0143819
945.246	0.0145551
945.325	0.0145944
945.403	0.0145208
945.481	0.0143303
945.559	0.0144467
945.637	0.0146529
945.715	0.0144530
945.793	0.0144761
945.871	0.0145033
945.950	0.0145175
946.028	0.0145209
946.106	0.0144750
946.184	0.0143513
946.262	0.0142833
946.340	0.0143872
946.418	0.0144504
946.496	0.0144221
946.575	0.0144547
946.653	0.0143296
946.731	0.0143265
946.809	0.0144997
946.887	0.0143518
946.965	0.0142582
947.043	0.0143096
947.121	0.0143884
947.200	0.0144461
947.278	0.0143880
947.356	0.0143282
947.434	0.0142561
947.512	0.0144584
947.590	0.0145447
947.668	0.0144109
947.746	0.0142088
947.825	0.0142715
947.903	0.0142294
947.981	0.0144658
948.059	0.0144887
948.137	0.0143547
948.215	0.0143535
948.293	0.0143181
948.371	0.0145967
948.450	0.0144462
948.528	0.0142593
948.606	0.0145404
948.684	0.0144678
948.762	0.0145483
948.840	0.0144647
948.918	0.0143381
948.996	0.0144178
949.075	0.0142688
949.153	0.0144183
949.231	0.0143295
949.309	0.0143557
949.387	0.0144099
949.465	0.0142963
949.543	0.0143481
949.621	0.0142788
949.700	0.0143566
949.778	0.0141584
949.856	0.0142858
949.934	0.0143645
950.012	0.0142970
950.090	0.0142994
950.168	0.0143213
950.246	0.0143233
950.325	0.0142435
950.403	0.0143128
950.481	0.0144137
950.559	0.0142826
950.637	0.0142400
950.715	0.0143168
950.793	0.0143184
950.871	0.0143606
950.950	0.0144707
951.028	0.0145004
951.106	0.0144145
951.184	0.0144913
951.262	0.0144480
951.340	0.0144049
951.418	0.0145481
951.496	0.0145064
951.575	0.0144435
951.653	0.0144441
951.731	0.0144360
951.809	0.0145345
951.887	0.0144398
951.965	0.0144691
952.043	0.0143510
952.121	0.0144447
952.200	0.0143355
952.278	0.0143174
952.356	0.0143047
952.434	0.0143597
952.512	0.0144118
952.590	0.0142938
952.668	0.0143378
952.746	0.0143758
952.825	0.0143219
952.903	0.0142646
952.981	0.0144148
953.059	0.0143719
953.137	0.0144146
953.215	0.0144308
953.293	0.0145769
953.371	0.0143703
953.450	0.0143888
953.528	0.0144016
953.606	0.0144714
953.684	0.0145125
953.762	0.0144458
953.840	0.0144816
953.918	0.0144324
953.996	0.0145220
954.075	0.0144688
954.153	0.0144836
954.231	0.0144521
954.309	0.0144394
954.387	0.0144516
954.465	0.0146372
954.543	0.0144915
954.621	0.0143378
954.700	0.0144370
954.778	0.0145251
954.856	0.0144241
954.934	0.0145755
955.012	0.0145648
955.090	0.0144387
955.168	0.0145171
955.246	0.0145036
955.325	0.0145206
955.403	0.0145735
955.481	0.0144185
955.559	0.0145203
955.637	0.0145290
955.715	0.0145426
955.793	0.0144578
955.871	0.0145432
955.950	0.0146401
956.028	0.0144321
956.106	0.0146970
956.184	0.0146857
956.262	0.0146567
956.340	0.0146565
956.418	0.0144959
956.496	0.0145772
956.575	0.0145137
956.653	0.0144633
956.731	0.0144788
956.809	0.0145322
956.887	0.0144222
956.965	0.0145126
957.043	0.0144044
957.121	0.0143425
957.200	0.0143946
957.278	0.0145315
957.356	0.0143790
957.434	0.0144448
957.512	0.0142960
957.590	0.0145071
957.668	0.0144337
957.746	0.0143649
957.825	0.0143423
957.903	0.0145029
957.981	0.0144290
958.059	0.0145370
958.137	0.0144693
958.215	0.0144270
958.293	0.0145490
958.371	0.0145549
958.450	0.0144653
958.528	0.0144508
958.606	0.0145175
958.684	0.0145330
958.762	0.0144878
958.840	0.0145307
958.918	0.0145535
958.996	0.0144554
959.075	0.0145134
959.153	0.0144068
959.231	0.0145174
959.309	0.0145521
959.387	0.0143382
959.465	0.0143182
959.543	0.0144029
959.621	0.0144250
959.700	0.0142601
959.778	0.0142064
959.856	0.0143872
959.934	0.0143841
960.012	0.0144206
960.090	0.0145056
960.168	0.0145559
960.246	0.0143666
960.325	0.0143071
960.403	0.0143869
960.481	0.0145077
960.559	0.0144842
960.637	0.0144022
960.715	0.0144540
960.793	0.0144166
960.871	0.0144671
960.950	0.0144485
961.028	0.0143354
961.106	0.0144518
961.184	0.0144061
961.262	0.0143237
961.340	0.0144007
961.418	0.0144102
961.496	0.0144156
961.575	0.0143638
961.653	0.0145205
961.731	0.0144062
961.809	0.0144452
961.887	0.0143974
961.965	0.0144414
962.043	0.0144276
962.121	0.0144161
962.200	0.0143671
962.278	0.0143777
962.356	0.0143385
962.434	0.0143977
962.512	0.0143619
962.590	0.0144875
962.668	0.0143169
962.746	0.0141717
962.825	0.0143459
962.903	0.0143211
962.981	0.0142350
963.059	0.0142181
963.137	0.0142514
963.215	0.0143053
963.293	0.0143603
963.371	0.0142242
963.450	0.0144025
963.528	0.0143198
963.606	0.0142648
963.684	0.0143856
963.762	0.0144059
963.840	0.0142937
963.918	0.0144657
963.996	0.0143456
964.075	0.0141692
964.153	0.0142400
964.231	0.0143951
964.309	0.0144952
964.387	0.0144432
964.465	0.0142277
964.543	0.0143045
964.621	0.0143221
964.700	0.0143456
964.778	0.0143335
964.856	0.0142917
964.934	0.0142641
965.012	0.0143129
965.090	0.0142587
965.168	0.0143529
965.246	0.0142882
965.325	0.0143660
965.403	0.0142979
965.481	0.0143604
965.559	0.0143665
965.637	0.0143295
965.715	0.0143342
965.793	0.0143782
965.871	0.0143920
965.950	0.0143430
966.028	0.0144633
966.106	0.0145291
966.184	0.0144385
966.262	0.0144458
966.340	0.0143751
966.418	0.0144300
966.496	0.0144625
966.575	0.0144715
966.653	0.0143774
966.731	0.0144888
966.809	0.0142709
966.887	0.0142313
966.965	0.0143337
967.043	0.0142746
967.121	0.0143827
967.200	0.0144124
967.278	0.0143197
967.356	0.0143655
967.434	0.0144614
967.512	0.0143360
967.590	0.0144176
967.668	0.0144376
967.746	0.0143951
967.825	0.0144006
967.903	0.0143668
967.981	0.0144926
968.059	0.0145126
968.137	0.0143720
968.215	0.0143108
968.293	0.0144701
968.371	0.0144363
968.450	0.0145023
968.528	0.0143694
968.606	0.0143787
968.684	0.0143984
968.762	0.0143398
968.840	0.0144251
968.918	0.0143359
968.996	0.0143089
969.075	0.0142274
969.153	0.0143108
969.231	0.0144130
969.309	0.0143036
969.387	0.0142928
969.465	0.0142197
969.543	0.0143552
969.621	0.0142326
969.700	0.0144615
969.778	0.0145570
969.856	0.0144070
969.934	0.0144195
970.012	0.0144828
970.090	0.0144074
970.168	0.0144772
970.246	0.0145526
970.325	0.0143887
970.403	0.0143457
970.481	0.0144821
970.559	0.0144348
970.637	0.0143940
970.715	0.0143008
970.793	0.0144030
970.871	0.0143941
970.950	0.0143272
971.028	0.0143639
971.106	0.0142417
971.184	0.0142334
971.262	0.0142211
971.340	0.0142252
971.418	0.0141525
971.496	0.0143159
971.575	0.0143754
971.653	0.0142070
971.731	0.0143497
971.809	0.0141427
971.887	0.0142744
971.965	0.0143317
972.043	0.0144419
972.121	0.0143227
972.200	0.0143208
972.278	0.0142759
972.356	0.0143023
972.434	0.0142519
972.512	0.0144093
972.590	0.0143984
972.668	0.0143845
972.746	0.0143539
972.825	0.0144656
972.903	0.0143654
972.981	0.0143906
973.059	0.0142784
973.137	0.0142295
973.215	0.0142233
973.293	0.0142112
973.371	0.0143302
973.450	0.0143300
973.528	0.0142749
973.606	0.0142587
973.684	0.0141148
973.762	0.0143318
973.840	0.0142299
973.918	0.0141656
973.996	0.0143308
974.075	0.0141853
974.153	0.0142491
974.231	0.0143221
974.309	0.0143591
974.387	0.0143020
974.465	0.0143381
974.543	0.0144572
974.621	0.0143334
974.700	0.0144217
974.778	0.0144007
974.856	0.0143542
974.934	0.0142677
975.012	0.0143566
975.090	0.0144547
975.168	0.0143004
975.246	0.0143595
975.325	0.0144326
975.403	0.0143369
975.481	0.0143790
975.559	0.0141588
975.637	0.0141076
975.715	0.0141292
975.793	0.0141403
975.871	0.0144070
975.950	0.0143835
976.028	0.0142773
976.106	0.0143814
976.184	0.0144012
976.262	0.0144043
976.340	0.0142407
976.418	0.0144102
976.496	0.0144994
976.575	0.0144724
976.653	0.0144616
976.731	0.0145441
976.809	0.0145560
976.887	0.0144537
976.965	0.0147173
977.043	0.0145955
977.121	0.0145557
977.200	0.0145747
977.278	0.0145294
977.356	0.0146252
977.434	0.0144997
977.512	0.0145438
977.590	0.0144528
977.668	0.0145623
977.746	0.0143851
977.825	0.0144224
977.903	0.0144520
977.981	0.0143914
978.059	0.0144176
978.137	0.0144349
978.215	0.0143708
978.293	0.0143098
978.371	0.0144199
978.450	0.0145219
978.528	0.0144291
978.606	0.0144218
978.684	0.0143846
978.762	0.0144443
978.840	0.0145211
978.918	0.0145239
978.996	0.0145097
979.075	0.0143732
979.153	0.0144399
979.231	0.0146214
979.309	0.0144244
979.387	0.0144556
979.465	0.0144695
979.543	0.0145233
979.621	0.0145827
979.700	0.0145909
979.778	0.0146111
979.856	0.0146015
979.934	0.0143958
980.012	0.0144528
980.090	0.0143980
980.168	0.0144709
980.246	0.0145424
980.325	0.0144006
980.403	0.0143262
980.481	0.0144387
980.559	0.0146007
980.637	0.0144984
980.715	0.0144421
980.793	0.0145106
980.871	0.0146114
980.950	0.0143923
981.028	0.0143598
981.106	0.0144633
981.184	0.0145710
981.262	0.0143885
981.340	0.0144600
981.418	0.0144212
981.496	0.0146119
981.575	0.0145408
981.653	0.0145824
981.731	0.0144781
981.809	0.0145136
981.887	0.0146674
981.965	0.0145002
982.043	0.0144216
982.121	0.0144686
982.200	0.0145409
982.278	0.0144099
982.356	0.0143591
982.434	0.0144996
982.512	0.0145717
982.590	0.0145574
982.668	0.0144376
982.746	0.0144236
982.825	0.0143996
982.903	0.0145017
982.981	0.0142906
983.059	0.0144185
983.137	0.0143629
983.215	0.0142912
983.293	0.0143676
983.371	0.0143671
983.450	0.0142719
983.528	0.0142831
983.606	0.0141938
983.684	0.0143560
983.762	0.0143376
983.840	0.0144550
983.918	0.0143829
983.996	0.0143825
984.075	0.0142104
984.153	0.0143298
984.231	0.0142909
984.309	0.0143509
984.387	0.0142443
984.465	0.0143656
984.543	0.0143578
984.621	0.0143924
984.700	0.0143079
984.778	0.0144592
984.856	0.0144675
984.934	0.0143388
985.012	0.0143468
985.090	0.0143456
985.168	0.0143781
985.246	0.0144503
985.325	0.0144186
985.403	0.0143966
985.481	0.0142278
985.559	0.0144342
985.637	0.0144432
985.715	0.0143143
985.793	0.0144791
985.871	0.0144704
985.950	0.0142672
986.028	0.0143717
986.106	0.0142753
986.184	0.0143152
986.262	0.0144237
986.340	0.0144289
986.418	0.0144429
986.496	0.0143477
986.575	0.0143195
986.653	0.0144022
986.731	0.0144965
986.809	0.0144942
986.887	0.0143983
986.965	0.0144872
987.043	0.0144521
987.121	0.0144598
987.200	0.0143761
987.278	0.0144054
987.356	0.0144241
987.434	0.0144099
987.512	0.0143648
987.590	0.0144058
987.668	0.0143160
987.746	0.0143988
987.825	0.0142641
987.903	0.0142929
987.981	0.0143766
988.059	0.0142831
988.137	0.0143007
988.215	0.0143285
988.293	0.0142194
988.371	0.0143071
988.450	0.0143513
988.528	0.0143067
988.606	0.0142434
988.684	0.0144146
988.762	0.0144382
988.840	0.0144205
988.918	0.0143848
988.996	0.0142954
989.075	0.0143233
989.153	0.0144680
989.231	0.0143971
989.309	0.0143896
989.387	0.0144276
989.465	0.0144597
989.543	0.0144151
989.621	0.0144161
989.700	0.0145363
989.778	0.0144865
989.856	0.0144009
989.934	0.0144862
990.012	0.0142974
990.090	0.0145230
990.168	0.0143784
990.246	0.0143687
990.325	0.0144780
990.403	0.0144480
990.481	0.0144145
990.559	0.0144339
990.637	0.0145264
990.715	0.0143570
990.793	0.0144444
990.871	0.0144316
990.950	0.0144689
991.028	0.0144422
991.106	0.0145766
991.184	0.0144570
991.262	0.0144862
991.340	0.0144774
991.418	0.0146143
991.496	0.0145021
991.575	0.0145668
991.653	0.0145012
991.731	0.0143832
991.809	0.0143809
991.887	0.0145148
991.965	0.0145477
992.043	0.0143187
992.121	0.0144830
992.200	0.0143116
992.278	0.0143480
992.356	0.0144171
992.434	0.0145260
992.512	0.0144759
992.590	0.0144234
992.668	0.0145005
992.746	0.0145101
992.825	0.0144475
992.903	0.0144954
992.981	0.0143542
993.059	0.0145691
993.137	0.0145309
993.215	0.0145653
993.293	0.0145565
993.371	0.0144783
993.450	0.0144101
993.528	0.0144341
993.606	0.0145382
993.684	0.0144476
993.762	0.0143475
993.840	0.0143274
993.918	0.0142567
993.996	0.0142187
994.075	0.0143220
994.153	0.0144476
994.231	0.0141908
994.309	0.0143540
994.387	0.0142617
994.465	0.0142127
994.543	0.0142498
994.621	0.0141233
994.700	0.0142501
994.778	0.0143221
994.856	0.0143564
994.934	0.0144202
995.012	0.0146372
995.090	0.0144211
995.168	0.0145178
995.246	0.0145805
995.325	0.0146097
995.403	0.0145612
995.481	0.0146622
995.559	0.0146262
995.637	0.0145198
995.715	0.0145494
995.793	0.0146579
995.871	0.0144690
995.950	0.0144312
996.028	0.0144920
996.106	0.0144324
996.184	0.0144357
996.262	0.0143159
996.340	0.0141322
996.418	0.0142776
996.496	0.0144009
996.575	0.0143378
996.653	0.0142850
996.731	0.0144519
996.809	0.0143512
996.887	0.0142808
996.965	0.0144901
997.043	0.0144827
997.121	0.0144015
997.200	0.0143958
997.278	0.0144972
997.356	0.0145081
997.434	0.0144524
997.512	0.0145160
997.590	0.0145233
997.668	0.0146102
997.746	0.0145644
997.825	0.0146097
997.903	0.0146040
997.981	0.0146827
998.059	0.0146778
998.137	0.0145358
998.215	0.0146298
998.293	0.0145866
998.371	0.0145464
998.450	0.0146786
998.528	0.0145193
998.606	0.0146585
998.684	0.0144824
998.762	0.0144713
998.840	0.0144405
998.918	0.0144674
