05/04/2022	21:26:13	Ver.	4.1	UNKNOWN
Optical Delay	678.996401	Delta X		0.078125	Sweeps	1	Scan Rate	0/0
Coordinates	Axis 1	NaN	Axis 2	NaN	Axis 3	NaN	Axis 4	NaN	Axis 5	NaN	Axis 6	0.000000
TX Power	0.000000	RX Power	0.000000

678.996	0.0148815
679.075	0.0149026
679.153	0.0149963
679.231	0.0149908
679.309	0.0150040
679.387	0.0149789
679.465	0.0149111
679.543	0.0148820
679.621	0.0150275
679.700	0.0148817
679.778	0.0146751
679.856	0.0147381
679.934	0.0147661
680.012	0.0148467
680.090	0.0148018
680.168	0.0147105
680.246	0.0147356
680.325	0.0146532
680.403	0.0148108
680.481	0.0147896
680.559	0.0146777
680.637	0.0147926
680.715	0.0147575
680.793	0.0147849
680.871	0.0148666
680.950	0.0148121
681.028	0.0149510
681.106	0.0149386
681.184	0.0149935
681.262	0.0150099
681.340	0.0150093
681.418	0.0149875
681.496	0.0148811
681.575	0.0149097
681.653	0.0149432
681.731	0.0148462
681.809	0.0148582
681.887	0.0149018
681.965	0.0150545
682.043	0.0148848
682.121	0.0148367
682.200	0.0149118
682.278	0.0148475
682.356	0.0146968
682.434	0.0147727
682.512	0.0148182
682.590	0.0147819
682.668	0.0147939
682.746	0.0148273
682.825	0.0147497
682.903	0.0147165
682.981	0.0148605
683.059	0.0146886
683.137	0.0146252
683.215	0.0147249
683.293	0.0149567
683.371	0.0146587
683.450	0.0148591
683.528	0.0149696
683.606	0.0149033
683.684	0.0149783
683.762	0.0148544
683.840	0.0149577
683.918	0.0149477
683.996	0.0149239
684.075	0.0149564
684.153	0.0150563
684.231	0.0149617
684.309	0.0151000
684.387	0.0149453
684.465	0.0149432
684.543	0.0149734
684.621	0.0147393
684.700	0.0149269
684.778	0.0148472
684.856	0.0148386
684.934	0.0147633
685.012	0.0148093
685.090	0.0148836
685.168	0.0148287
685.246	0.0148808
685.325	0.0148397
685.403	0.0148161
685.481	0.0149310
685.559	0.0148931
685.637	0.0147951
685.715	0.0147928
685.793	0.0148767
685.871	0.0150819
685.950	0.0148241
686.028	0.0150150
686.106	0.0149439
686.184	0.0149351
686.262	0.0150197
686.340	0.0150555
686.418	0.0149748
686.496	0.0149253
686.575	0.0149758
686.653	0.0151337
686.731	0.0150686
686.809	0.0150474
686.887	0.0150814
686.965	0.0148733
687.043	0.0149307
687.121	0.0149560
687.200	0.0149683
687.278	0.0149545
687.356	0.0149651
687.434	0.0149490
687.512	0.0150162
687.590	0.0150582
687.668	0.0147920
687.746	0.0148668
687.825	0.0147545
687.903	0.0147794
687.981	0.0148636
688.059	0.0149338
688.137	0.0148759
688.215	0.0148585
688.293	0.0148869
688.371	0.0149274
688.450	0.0150703
688.528	0.0151894
688.606	0.0150523
688.684	0.0151388
688.762	0.0152611
688.840	0.0151168
688.918	0.0150773
688.996	0.0149521
689.075	0.0149918
689.153	0.0150867
689.231	0.0149512
689.309	0.0147308
689.387	0.0147950
689.465	0.0148040
689.543	0.0148444
689.621	0.0147963
689.700	0.0147017
689.778	0.0145945
689.856	0.0146989
689.934	0.0147318
690.012	0.0148003
690.090	0.0148135
690.168	0.0148651
690.246	0.0149225
690.325	0.0149473
690.403	0.0150538
690.481	0.0151424
690.559	0.0150454
690.637	0.0151716
690.715	0.0152452
690.793	0.0150587
690.871	0.0151673
690.950	0.0151965
691.028	0.0149644
691.106	0.0150551
691.184	0.0150600
691.262	0.0149479
691.340	0.0149915
691.418	0.0148618
691.496	0.0146928
691.575	0.0148721
691.653	0.0145790
691.731	0.0146111
691.809	0.0145731
691.887	0.0145417
691.965	0.0142854
692.043	0.0145711
692.121	0.0145025
692.200	0.0146013
692.278	0.0146145
692.356	0.0148306
692.434	0.0147527
692.512	0.0149535
692.590	0.0150126
692.668	0.0149985
692.746	0.0150121
692.825	0.0152221
692.903	0.0152491
692.981	0.0151785
693.059	0.0153215
693.137	0.0152481
693.215	0.0152877
693.293	0.0152702
693.371	0.0152675
693.450	0.0152708
693.528	0.0150296
693.606	0.0150686
693.684	0.0148628
693.762	0.0146941
693.840	0.0146556
693.918	0.0145603
693.996	0.0143794
694.075	0.0143762
694.153	0.0142696
694.231	0.0142864
694.309	0.0143456
694.387	0.0145187
694.465	0.0144830
694.543	0.0144771
694.621	0.0144214
694.700	0.0145338
694.778	0.0148499
694.856	0.0147451
694.934	0.0149430
695.012	0.0150649
695.090	0.0153207
695.168	0.0153070
695.246	0.0155330
695.325	0.0156191
695.403	0.0155648
695.481	0.0157529
695.559	0.0158156
695.637	0.0156116
695.715	0.0155438
695.793	0.0152573
695.871	0.0151186
695.950	0.0147864
696.028	0.0145396
696.106	0.0143115
696.184	0.0141665
696.262	0.0140201
696.340	0.0139861
696.418	0.0140255
696.496	0.0139535
696.575	0.0139493
696.653	0.0139924
696.731	0.0140916
696.809	0.0142498
696.887	0.0143601
696.965	0.0144948
697.043	0.0149552
697.121	0.0149624
697.200	0.0153411
697.278	0.0155109
697.356	0.0156940
697.434	0.0157806
697.512	0.0158319
697.590	0.0155893
697.668	0.0154742
697.746	0.0154288
697.825	0.0151846
697.903	0.0151379
697.981	0.0149463
698.059	0.0146368
698.137	0.0145779
698.215	0.0144537
698.293	0.0143890
698.371	0.0142097
698.450	0.0142994
698.528	0.0144749
698.606	0.0143216
698.684	0.0144884
698.762	0.0146100
698.840	0.0146660
698.918	0.0146980
698.996	0.0148192
699.075	0.0148265
699.153	0.0148934
699.231	0.0149638
699.309	0.0150764
699.387	0.0151604
699.465	0.0151893
699.543	0.0151968
699.621	0.0151965
699.700	0.0152985
699.778	0.0152744
699.856	0.0151108
699.934	0.0150813
700.012	0.0150154
700.090	0.0149053
700.168	0.0146592
700.246	0.0147562
700.325	0.0145395
700.403	0.0145522
700.481	0.0144698
700.559	0.0144338
700.637	0.0144453
700.715	0.0142429
700.793	0.0144028
700.871	0.0145231
700.950	0.0144881
701.028	0.0145049
701.106	0.0146318
701.184	0.0147246
701.262	0.0148234
701.340	0.0149935
701.418	0.0150846
701.496	0.0152468
701.575	0.0153349
701.653	0.0153487
701.731	0.0155824
701.809	0.0155968
701.887	0.0155166
701.965	0.0155966
702.043	0.0154433
702.121	0.0151674
702.200	0.0149251
702.278	0.0148718
702.356	0.0147351
702.434	0.0144743
702.512	0.0143613
702.590	0.0143416
702.668	0.0144501
702.746	0.0143746
702.825	0.0143552
702.903	0.0146491
702.981	0.0146696
703.059	0.0148581
703.137	0.0150755
703.215	0.0151350
703.293	0.0151909
703.371	0.0150687
703.450	0.0150175
703.528	0.0150076
703.606	0.0149782
703.684	0.0148890
703.762	0.0148823
703.840	0.0147414
703.918	0.0148380
703.996	0.0147079
704.075	0.0148172
704.153	0.0146878
704.231	0.0144821
704.309	0.0146143
704.387	0.0145951
704.465	0.0145845
704.543	0.0146954
704.621	0.0147359
704.700	0.0147904
704.778	0.0147282
704.856	0.0148492
704.934	0.0149818
705.012	0.0150581
705.090	0.0150179
705.168	0.0150609
705.246	0.0151745
705.325	0.0153355
705.403	0.0152229
705.481	0.0151987
705.559	0.0151216
705.637	0.0150749
705.715	0.0150468
705.793	0.0149716
705.871	0.0151461
705.950	0.0149618
706.028	0.0150481
706.106	0.0148926
706.184	0.0149030
706.262	0.0147459
706.340	0.0146286
706.418	0.0147162
706.496	0.0143383
706.575	0.0142614
706.653	0.0141483
706.731	0.0140307
706.809	0.0141040
706.887	0.0140148
706.965	0.0144202
707.043	0.0147142
707.121	0.0147311
707.200	0.0150449
707.278	0.0154672
707.356	0.0156088
707.434	0.0156902
707.512	0.0158435
707.590	0.0158580
707.668	0.0158076
707.746	0.0157036
707.825	0.0157417
707.903	0.0154187
707.981	0.0152322
708.059	0.0151235
708.137	0.0149615
708.215	0.0146371
708.293	0.0145231
708.371	0.0142931
708.450	0.0141087
708.528	0.0139783
708.606	0.0139755
708.684	0.0138776
708.762	0.0137978
708.840	0.0139857
708.918	0.0141055
708.996	0.0142467
709.075	0.0145213
709.153	0.0145839
709.231	0.0149509
709.309	0.0151871
709.387	0.0153860
709.465	0.0156009
709.543	0.0159743
709.621	0.0160699
709.700	0.0161974
709.778	0.0160371
709.856	0.0161929
709.934	0.0159554
710.012	0.0158620
710.090	0.0155532
710.168	0.0154962
710.246	0.0154092
710.325	0.0152674
710.403	0.0149892
710.481	0.0148005
710.559	0.0145857
710.637	0.0144460
710.715	0.0143482
710.793	0.0141994
710.871	0.0141119
710.950	0.0141425
711.028	0.0142440
711.106	0.0140437
711.184	0.0143760
711.262	0.0144148
711.340	0.0144335
711.418	0.0147624
711.496	0.0148227
711.575	0.0149119
711.653	0.0150448
711.731	0.0150420
711.809	0.0152304
711.887	0.0152160
711.965	0.0151956
712.043	0.0153773
712.121	0.0155557
712.200	0.0156130
712.278	0.0155733
712.356	0.0154971
712.434	0.0154053
712.512	0.0153881
712.590	0.0152589
712.668	0.0150885
712.746	0.0149913
712.825	0.0150367
712.903	0.0148804
712.981	0.0145959
713.059	0.0145728
713.137	0.0145567
713.215	0.0144042
713.293	0.0143210
713.371	0.0142930
713.450	0.0144329
713.528	0.0142310
713.606	0.0144091
713.684	0.0145183
713.762	0.0146033
713.840	0.0147839
713.918	0.0149406
713.996	0.0150344
714.075	0.0151094
714.153	0.0152212
714.231	0.0154101
714.309	0.0155054
714.387	0.0154130
714.465	0.0153817
714.543	0.0153184
714.621	0.0151360
714.700	0.0151749
714.778	0.0150117
714.856	0.0148711
714.934	0.0146043
715.012	0.0146449
715.090	0.0144428
715.168	0.0142657
715.246	0.0143712
715.325	0.0143599
715.403	0.0143253
715.481	0.0143223
715.559	0.0144933
715.637	0.0147989
715.715	0.0148172
715.793	0.0149208
715.871	0.0149955
715.950	0.0152214
716.028	0.0152237
716.106	0.0151743
716.184	0.0154717
716.262	0.0152576
716.340	0.0150991
716.418	0.0151717
716.496	0.0151225
716.575	0.0149976
716.653	0.0148647
716.731	0.0149165
716.809	0.0146927
716.887	0.0144958
716.965	0.0145722
717.043	0.0145660
717.121	0.0145753
717.200	0.0145549
717.278	0.0146277
717.356	0.0145681
717.434	0.0144632
717.512	0.0146374
717.590	0.0147104
717.668	0.0147984
717.746	0.0148041
717.825	0.0148428
717.903	0.0149628
717.981	0.0151357
718.059	0.0150021
718.137	0.0150313
718.215	0.0150518
718.293	0.0151490
718.371	0.0150403
718.450	0.0150404
718.528	0.0149847
718.606	0.0149255
718.684	0.0149803
718.762	0.0149500
718.840	0.0148961
718.918	0.0148750
718.996	0.0149000
719.075	0.0148399
719.153	0.0147591
719.231	0.0149178
719.309	0.0146921
719.387	0.0148435
719.465	0.0147285
719.543	0.0146172
719.621	0.0146447
719.700	0.0146484
719.778	0.0147577
719.856	0.0146805
719.934	0.0145320
720.012	0.0146177
720.090	0.0146376
720.168	0.0146377
720.246	0.0146312
720.325	0.0146458
720.403	0.0147591
720.481	0.0150069
720.559	0.0149812
720.637	0.0149570
720.715	0.0151254
720.793	0.0151347
720.871	0.0151273
720.950	0.0151638
721.028	0.0150980
721.106	0.0150640
721.184	0.0151524
721.262	0.0150146
721.340	0.0150063
721.418	0.0150404
721.496	0.0151725
721.575	0.0149638
721.653	0.0148415
721.731	0.0147845
721.809	0.0148794
721.887	0.0149644
721.965	0.0149321
722.043	0.0148798
722.121	0.0147398
722.200	0.0147475
722.278	0.0148316
722.356	0.0147672
722.434	0.0147855
722.512	0.0146708
722.590	0.0146179
722.668	0.0146939
722.746	0.0145708
722.825	0.0145647
722.903	0.0146684
722.981	0.0145866
723.059	0.0145707
723.137	0.0145603
723.215	0.0145649
723.293	0.0146508
723.371	0.0148098
723.450	0.0146625
723.528	0.0147436
723.606	0.0147999
723.684	0.0149152
723.762	0.0150314
723.840	0.0151467
723.918	0.0151070
723.996	0.0153643
724.075	0.0154457
724.153	0.0152728
724.231	0.0152608
724.309	0.0152302
724.387	0.0151796
724.465	0.0151299
724.543	0.0152084
724.621	0.0150060
724.700	0.0150352
724.778	0.0149220
724.856	0.0149486
724.934	0.0146832
725.012	0.0147204
725.090	0.0147110
725.168	0.0146794
725.246	0.0145791
725.325	0.0145966
725.403	0.0145349
725.481	0.0145794
725.559	0.0144470
725.637	0.0145787
725.715	0.0144889
725.793	0.0145882
725.871	0.0147796
725.950	0.0146964
726.028	0.0148268
726.106	0.0148290
726.184	0.0149376
726.262	0.0150787
726.340	0.0151753
726.418	0.0151972
726.496	0.0151734
726.575	0.0151637
726.653	0.0152606
726.731	0.0149418
726.809	0.0151373
726.887	0.0150483
726.965	0.0149384
727.043	0.0149139
727.121	0.0148047
727.200	0.0146233
727.278	0.0147946
727.356	0.0146687
727.434	0.0146909
727.512	0.0145280
727.590	0.0145352
727.668	0.0146011
727.746	0.0147088
727.825	0.0147598
727.903	0.0148727
727.981	0.0148310
728.059	0.0149744
728.137	0.0149384
728.215	0.0149413
728.293	0.0150144
728.371	0.0150084
728.450	0.0149489
728.528	0.0151200
728.606	0.0151643
728.684	0.0150827
728.762	0.0151096
728.840	0.0150270
728.918	0.0152300
728.996	0.0152154
729.075	0.0150816
729.153	0.0151524
729.231	0.0151406
729.309	0.0150079
729.387	0.0150333
729.465	0.0151826
729.543	0.0149638
729.621	0.0148312
729.700	0.0148039
729.778	0.0148581
729.856	0.0147106
729.934	0.0146468
730.012	0.0145322
730.090	0.0145911
730.168	0.0145544
730.246	0.0146168
730.325	0.0146694
730.403	0.0147382
730.481	0.0145451
730.559	0.0146758
730.637	0.0147907
730.715	0.0147692
730.793	0.0148292
730.871	0.0148067
730.950	0.0149110
731.028	0.0150122
731.106	0.0151139
731.184	0.0150448
731.262	0.0151680
731.340	0.0152406
731.418	0.0151653
731.496	0.0151463
731.575	0.0151633
731.653	0.0151458
731.731	0.0150185
731.809	0.0152021
731.887	0.0150244
731.965	0.0149934
732.043	0.0151217
732.121	0.0150132
732.200	0.0150113
732.278	0.0149206
732.356	0.0150156
732.434	0.0149689
732.512	0.0147657
732.590	0.0147202
732.668	0.0148252
732.746	0.0148076
732.825	0.0149589
732.903	0.0149407
732.981	0.0148524
733.059	0.0149400
733.137	0.0149018
733.215	0.0149417
733.293	0.0150255
733.371	0.0149494
733.450	0.0150196
733.528	0.0150557
733.606	0.0150436
733.684	0.0150445
733.762	0.0151421
733.840	0.0152170
733.918	0.0151316
733.996	0.0149995
734.075	0.0148857
734.153	0.0149673
734.231	0.0149404
734.309	0.0148829
734.387	0.0148032
734.465	0.0148292
734.543	0.0148178
734.621	0.0147564
734.700	0.0146040
734.778	0.0142998
734.856	0.0144178
734.934	0.0145664
735.012	0.0144370
735.090	0.0145454
735.168	0.0145620
735.246	0.0146760
735.325	0.0147665
735.403	0.0148711
735.481	0.0148357
735.559	0.0150256
735.637	0.0151139
735.715	0.0150542
735.793	0.0150863
735.871	0.0152239
735.950	0.0153376
736.028	0.0151884
736.106	0.0152679
736.184	0.0152547
736.262	0.0152193
736.340	0.0152348
736.418	0.0150526
736.496	0.0151053
736.575	0.0150368
736.653	0.0148893
736.731	0.0149552
736.809	0.0147720
736.887	0.0148034
736.965	0.0147643
737.043	0.0146964
737.121	0.0146553
737.200	0.0145226
737.278	0.0144701
737.356	0.0144959
737.434	0.0145981
737.512	0.0146198
737.590	0.0144883
737.668	0.0145727
737.746	0.0147533
737.825	0.0146344
737.903	0.0147976
737.981	0.0148241
738.059	0.0149207
738.137	0.0149793
738.215	0.0150084
738.293	0.0150639
738.371	0.0149532
738.450	0.0150227
738.528	0.0150909
738.606	0.0149330
738.684	0.0151128
738.762	0.0151938
738.840	0.0152009
738.918	0.0150971
738.996	0.0149340
739.075	0.0148604
739.153	0.0148904
739.231	0.0148067
739.309	0.0147282
739.387	0.0148167
739.465	0.0146729
739.543	0.0146082
739.621	0.0144970
739.700	0.0146385
739.778	0.0145874
739.856	0.0145061
739.934	0.0145451
740.012	0.0146149
740.090	0.0146242
740.168	0.0146589
740.246	0.0148657
740.325	0.0147526
740.403	0.0148843
740.481	0.0149376
740.559	0.0149813
740.637	0.0150253
740.715	0.0151568
740.793	0.0149709
740.871	0.0150323
740.950	0.0151277
741.028	0.0151694
741.106	0.0151934
741.184	0.0150176
741.262	0.0150703
741.340	0.0150568
741.418	0.0150501
741.496	0.0150155
741.575	0.0148596
741.653	0.0147652
741.731	0.0148684
741.809	0.0147721
741.887	0.0148221
741.965	0.0148203
742.043	0.0147427
742.121	0.0146044
742.200	0.0147308
742.278	0.0146380
742.356	0.0147112
742.434	0.0147960
742.512	0.0146420
742.590	0.0147018
742.668	0.0147272
742.746	0.0148824
742.825	0.0148985
742.903	0.0146872
742.981	0.0148580
743.059	0.0149511
743.137	0.0149551
743.215	0.0147926
743.293	0.0148618
743.371	0.0150169
743.450	0.0149582
743.528	0.0148965
743.606	0.0150255
743.684	0.0149836
743.762	0.0149840
743.840	0.0149646
743.918	0.0149672
743.996	0.0149962
744.075	0.0149174
744.153	0.0148913
744.231	0.0147761
744.309	0.0148125
744.387	0.0147478
744.465	0.0147414
744.543	0.0147360
744.621	0.0147141
744.700	0.0146777
744.778	0.0146336
744.856	0.0146518
744.934	0.0148239
745.012	0.0147643
745.090	0.0148447
745.168	0.0148707
745.246	0.0149174
745.325	0.0150754
745.403	0.0150027
745.481	0.0149260
745.559	0.0150281
745.637	0.0150544
745.715	0.0150150
745.793	0.0151685
745.871	0.0150770
745.950	0.0151112
746.028	0.0150426
746.106	0.0150799
746.184	0.0150406
746.262	0.0149782
746.340	0.0149638
746.418	0.0149180
746.496	0.0149406
746.575	0.0147971
746.653	0.0148995
746.731	0.0148302
746.809	0.0148133
746.887	0.0147290
746.965	0.0147340
747.043	0.0145833
747.121	0.0146866
747.200	0.0148506
747.278	0.0147898
747.356	0.0147887
747.434	0.0146505
747.512	0.0146896
747.590	0.0149265
747.668	0.0148376
747.746	0.0149013
747.825	0.0148763
747.903	0.0148489
747.981	0.0148885
748.059	0.0149998
748.137	0.0148655
748.215	0.0150410
748.293	0.0149917
748.371	0.0149631
748.450	0.0150666
748.528	0.0150865
748.606	0.0150768
748.684	0.0149212
748.762	0.0150408
748.840	0.0151099
748.918	0.0149044
748.996	0.0149586
749.075	0.0149274
749.153	0.0148008
749.231	0.0148568
749.309	0.0148611
749.387	0.0149488
749.465	0.0148389
749.543	0.0148819
749.621	0.0149093
749.700	0.0148196
749.778	0.0149219
749.856	0.0148038
749.934	0.0147937
750.012	0.0150164
750.090	0.0148283
750.168	0.0150639
750.246	0.0149330
750.325	0.0149313
750.403	0.0150511
750.481	0.0149803
750.559	0.0150077
750.637	0.0149891
750.715	0.0150206
750.793	0.0149844
750.871	0.0148338
750.950	0.0148498
751.028	0.0150340
751.106	0.0150539
751.184	0.0149212
751.262	0.0148401
751.340	0.0148550
751.418	0.0147910
751.496	0.0148281
751.575	0.0148667
751.653	0.0149219
751.731	0.0148610
751.809	0.0148822
751.887	0.0148817
751.965	0.0147456
752.043	0.0148220
752.121	0.0148844
752.200	0.0147594
752.278	0.0148246
752.356	0.0149670
752.434	0.0148366
752.512	0.0149516
752.590	0.0148598
752.668	0.0148790
752.746	0.0148397
752.825	0.0150226
752.903	0.0151194
752.981	0.0150191
753.059	0.0149928
753.137	0.0152000
753.215	0.0150948
753.293	0.0150346
753.371	0.0150852
753.450	0.0150420
753.528	0.0150739
753.606	0.0150512
753.684	0.0151721
753.762	0.0150209
753.840	0.0149179
753.918	0.0148890
753.996	0.0150137
754.075	0.0148934
754.153	0.0147584
754.231	0.0148657
754.309	0.0149969
754.387	0.0148662
754.465	0.0148393
754.543	0.0148922
754.621	0.0148316
754.700	0.0146271
754.778	0.0147220
754.856	0.0148212
754.934	0.0147086
755.012	0.0146964
755.090	0.0146367
755.168	0.0146065
755.246	0.0146385
755.325	0.0146452
755.403	0.0148334
755.481	0.0148753
755.559	0.0148225
755.637	0.0147228
755.715	0.0149548
755.793	0.0148967
755.871	0.0149104
755.950	0.0149225
756.028	0.0148991
756.106	0.0149425
756.184	0.0149831
756.262	0.0149786
756.340	0.0150050
756.418	0.0148100
756.496	0.0150121
756.575	0.0150058
756.653	0.0148370
756.731	0.0147685
756.809	0.0149518
756.887	0.0148710
756.965	0.0148814
757.043	0.0149638
757.121	0.0149737
757.200	0.0147588
757.278	0.0147784
757.356	0.0147501
757.434	0.0149497
757.512	0.0149053
757.590	0.0147993
757.668	0.0148590
757.746	0.0148466
757.825	0.0148005
757.903	0.0148129
757.981	0.0149310
758.059	0.0148615
758.137	0.0147919
758.215	0.0147981
758.293	0.0149042
758.371	0.0148124
758.450	0.0148904
758.528	0.0150116
758.606	0.0149814
758.684	0.0147391
758.762	0.0149129
758.840	0.0148795
758.918	0.0148203
758.996	0.0148318
759.075	0.0149383
759.153	0.0147414
759.231	0.0146704
759.309	0.0147375
759.387	0.0146167
759.465	0.0148251
759.543	0.0147520
759.621	0.0148644
759.700	0.0148367
759.778	0.0147131
759.856	0.0147077
759.934	0.0147340
760.012	0.0148923
760.090	0.0148354
760.168	0.0147277
760.246	0.0147767
760.325	0.0147756
760.403	0.0148695
760.481	0.0148332
760.559	0.0148274
760.637	0.0148409
760.715	0.0149449
760.793	0.0148677
760.871	0.0148576
760.950	0.0146781
761.028	0.0147569
761.106	0.0148849
761.184	0.0149627
761.262	0.0148751
761.340	0.0148997
761.418	0.0148770
761.496	0.0149574
761.575	0.0148643
761.653	0.0148725
761.731	0.0149052
761.809	0.0148962
761.887	0.0150050
761.965	0.0148074
762.043	0.0149345
762.121	0.0149220
762.200	0.0148927
762.278	0.0150631
762.356	0.0148533
762.434	0.0147583
762.512	0.0149223
762.590	0.0148302
762.668	0.0148827
762.746	0.0148717
762.825	0.0149086
762.903	0.0148474
762.981	0.0146507
763.059	0.0148126
763.137	0.0148363
763.215	0.0148676
763.293	0.0148556
763.371	0.0148025
763.450	0.0146706
763.528	0.0146957
763.606	0.0146452
763.684	0.0147479
763.762	0.0148956
763.840	0.0148786
763.918	0.0149516
763.996	0.0148471
764.075	0.0148039
764.153	0.0149141
764.231	0.0149646
764.309	0.0149739
764.387	0.0147902
764.465	0.0149092
764.543	0.0148882
764.621	0.0149036
764.700	0.0148425
764.778	0.0147110
764.856	0.0148265
764.934	0.0147470
765.012	0.0146790
765.090	0.0147169
765.168	0.0146635
765.246	0.0147921
765.325	0.0146605
765.403	0.0146839
765.481	0.0148690
765.559	0.0147660
765.637	0.0148351
765.715	0.0147959
765.793	0.0149067
765.871	0.0148356
765.950	0.0149517
766.028	0.0148392
766.106	0.0148344
766.184	0.0148293
766.262	0.0147858
766.340	0.0147929
766.418	0.0148682
766.496	0.0150269
766.575	0.0150677
766.653	0.0149856
766.731	0.0148794
766.809	0.0149136
766.887	0.0150541
766.965	0.0150574
767.043	0.0149707
767.121	0.0149815
767.200	0.0150732
767.278	0.0149380
767.356	0.0148294
767.434	0.0149030
767.512	0.0149783
767.590	0.0149377
767.668	0.0148856
767.746	0.0149067
767.825	0.0149812
767.903	0.0148058
767.981	0.0148666
768.059	0.0147935
768.137	0.0148678
768.215	0.0146945
768.293	0.0148075
768.371	0.0147598
768.450	0.0146869
768.528	0.0147775
768.606	0.0147089
768.684	0.0147419
768.762	0.0147617
768.840	0.0148834
768.918	0.0147898
768.996	0.0148033
769.075	0.0148267
769.153	0.0148256
769.231	0.0150911
769.309	0.0148547
769.387	0.0149497
769.465	0.0149894
769.543	0.0149936
769.621	0.0149689
769.700	0.0149541
769.778	0.0148708
769.856	0.0148990
769.934	0.0148404
770.012	0.0149456
770.090	0.0148423
770.168	0.0148336
770.246	0.0148680
770.325	0.0147701
770.403	0.0148645
770.481	0.0148711
770.559	0.0147424
770.637	0.0148774
770.715	0.0148041
770.793	0.0148315
770.871	0.0149545
770.950	0.0148423
771.028	0.0148298
771.106	0.0150166
771.184	0.0150864
771.262	0.0149261
771.340	0.0150616
771.418	0.0150040
771.496	0.0149090
771.575	0.0150009
771.653	0.0150555
771.731	0.0149818
771.809	0.0149473
771.887	0.0150708
771.965	0.0150371
772.043	0.0149322
772.121	0.0150169
772.200	0.0149086
772.278	0.0150529
772.356	0.0147831
772.434	0.0148568
772.512	0.0148350
772.590	0.0148651
772.668	0.0147959
772.746	0.0147826
772.825	0.0147621
772.903	0.0147266
772.981	0.0147128
773.059	0.0147366
773.137	0.0148362
773.215	0.0148373
773.293	0.0147292
773.371	0.0147374
773.450	0.0149793
773.528	0.0148112
773.606	0.0147174
773.684	0.0148250
773.762	0.0149050
773.840	0.0149226
773.918	0.0147456
773.996	0.0148032
774.075	0.0149055
774.153	0.0149549
774.231	0.0149164
774.309	0.0148022
774.387	0.0149065
774.465	0.0148207
774.543	0.0150324
774.621	0.0149006
774.700	0.0148178
774.778	0.0149842
774.856	0.0150961
774.934	0.0150668
775.012	0.0151320
775.090	0.0150150
775.168	0.0150857
775.246	0.0150426
775.325	0.0149747
775.403	0.0150406
775.481	0.0149062
775.559	0.0148743
775.637	0.0149332
775.715	0.0149019
775.793	0.0148440
775.871	0.0148772
775.950	0.0148781
776.028	0.0148160
776.106	0.0149362
776.184	0.0149570
776.262	0.0148379
776.340	0.0148868
776.418	0.0149753
776.496	0.0148817
776.575	0.0148682
776.653	0.0148865
776.731	0.0149766
776.809	0.0148923
776.887	0.0149673
776.965	0.0149351
777.043	0.0148700
777.121	0.0149993
777.200	0.0148350
777.278	0.0149413
777.356	0.0149236
777.434	0.0150219
777.512	0.0149351
777.590	0.0149480
777.668	0.0149247
777.746	0.0150140
777.825	0.0148576
777.903	0.0148051
777.981	0.0148208
778.059	0.0147828
778.137	0.0149464
778.215	0.0149200
778.293	0.0149038
778.371	0.0148653
778.450	0.0149466
778.528	0.0148754
778.606	0.0148692
778.684	0.0148755
778.762	0.0149317
778.840	0.0148650
778.918	0.0150060
778.996	0.0150038
779.075	0.0148064
779.153	0.0147916
779.231	0.0148696
779.309	0.0149799
779.387	0.0150381
779.465	0.0148412
779.543	0.0148418
779.621	0.0148660
779.700	0.0147810
779.778	0.0147295
779.856	0.0147772
779.934	0.0147186
780.012	0.0146429
780.090	0.0146406
780.168	0.0147236
780.246	0.0148120
780.325	0.0148013
780.403	0.0147125
780.481	0.0148974
780.559	0.0147588
780.637	0.0148299
780.715	0.0148389
780.793	0.0146400
780.871	0.0146216
780.950	0.0147640
781.028	0.0148807
781.106	0.0148389
781.184	0.0148543
781.262	0.0147842
781.340	0.0147798
781.418	0.0147022
781.496	0.0147346
781.575	0.0148326
781.653	0.0147326
781.731	0.0147636
781.809	0.0147058
781.887	0.0148533
781.965	0.0147780
782.043	0.0147079
782.121	0.0147659
782.200	0.0146940
782.278	0.0147532
782.356	0.0147778
782.434	0.0148475
782.512	0.0147326
782.590	0.0148119
782.668	0.0148458
782.746	0.0148123
782.825	0.0149092
782.903	0.0149496
782.981	0.0149506
783.059	0.0148686
783.137	0.0148569
783.215	0.0149466
783.293	0.0148249
783.371	0.0148396
783.450	0.0149967
783.528	0.0149051
783.606	0.0149594
783.684	0.0149171
783.762	0.0147981
783.840	0.0147334
783.918	0.0147973
783.996	0.0149802
784.075	0.0149530
784.153	0.0149171
784.231	0.0149281
784.309	0.0149295
784.387	0.0149113
784.465	0.0148340
784.543	0.0149550
784.621	0.0149303
784.700	0.0150378
784.778	0.0149303
784.856	0.0150134
784.934	0.0148720
785.012	0.0149902
785.090	0.0149939
785.168	0.0149655
785.246	0.0150044
785.325	0.0150079
785.403	0.0148840
785.481	0.0147179
785.559	0.0148583
785.637	0.0148184
785.715	0.0148933
785.793	0.0149413
785.871	0.0148767
785.950	0.0148796
786.028	0.0147984
786.106	0.0149003
786.184	0.0148071
786.262	0.0146656
786.340	0.0147079
786.418	0.0149471
786.496	0.0150008
786.575	0.0149267
786.653	0.0150217
786.731	0.0148580
786.809	0.0149751
786.887	0.0150022
786.965	0.0149815
787.043	0.0149210
787.121	0.0149967
787.200	0.0149500
787.278	0.0150097
787.356	0.0148399
787.434	0.0148861
787.512	0.0148969
787.590	0.0148207
787.668	0.0149668
787.746	0.0150556
787.825	0.0150470
787.903	0.0148257
787.981	0.0148402
788.059	0.0147629
788.137	0.0149862
788.215	0.0149658
788.293	0.0149303
788.371	0.0149039
788.450	0.0150417
788.528	0.0150583
788.606	0.0149670
788.684	0.0149409
788.762	0.0148266
788.840	0.0147720
788.918	0.0148458
788.996	0.0149693
789.075	0.0149421
789.153	0.0148118
789.231	0.0149907
789.309	0.0149426
789.387	0.0149419
789.465	0.0151386
789.543	0.0149822
789.621	0.0148840
789.700	0.0149311
789.778	0.0148381
789.856	0.0148991
789.934	0.0149336
790.012	0.0149081
790.090	0.0149944
790.168	0.0148984
790.246	0.0148267
790.325	0.0148525
790.403	0.0148227
790.481	0.0148251
790.559	0.0149290
790.637	0.0148734
790.715	0.0146452
790.793	0.0148297
790.871	0.0149084
790.950	0.0149216
791.028	0.0148844
791.106	0.0149282
791.184	0.0147410
791.262	0.0150285
791.340	0.0149399
791.418	0.0148976
791.496	0.0148625
791.575	0.0150321
791.653	0.0150684
791.731	0.0149062
791.809	0.0148545
791.887	0.0149853
791.965	0.0148874
792.043	0.0148891
792.121	0.0149287
792.200	0.0149276
792.278	0.0148945
792.356	0.0148263
792.434	0.0149378
792.512	0.0149111
792.590	0.0148786
792.668	0.0149406
792.746	0.0149352
792.825	0.0149835
792.903	0.0149672
792.981	0.0147959
793.059	0.0148219
793.137	0.0148267
793.215	0.0148715
793.293	0.0148411
793.371	0.0148231
793.450	0.0147355
793.528	0.0149071
793.606	0.0148164
793.684	0.0148708
793.762	0.0149260
793.840	0.0149207
793.918	0.0149036
793.996	0.0149197
794.075	0.0149198
794.153	0.0149172
794.231	0.0150195
794.309	0.0148138
794.387	0.0149954
794.465	0.0149872
794.543	0.0148425
794.621	0.0149042
794.700	0.0148196
794.778	0.0149461
794.856	0.0150323
794.934	0.0148766
795.012	0.0147436
795.090	0.0147274
795.168	0.0148034
795.246	0.0147854
795.325	0.0149052
795.403	0.0147896
795.481	0.0146916
795.559	0.0148071
795.637	0.0148981
795.715	0.0147567
795.793	0.0149200
795.871	0.0148670
795.950	0.0148219
796.028	0.0149442
796.106	0.0148794
796.184	0.0149303
796.262	0.0148412
796.340	0.0148946
796.418	0.0149733
796.496	0.0149123
796.575	0.0149287
796.653	0.0149108
796.731	0.0148994
796.809	0.0147836
796.887	0.0149735
796.965	0.0149697
797.043	0.0149445
797.121	0.0149638
797.200	0.0149883
797.278	0.0147596
797.356	0.0149104
797.434	0.0148866
797.512	0.0148960
797.590	0.0149591
797.668	0.0148603
797.746	0.0148488
797.825	0.0149213
797.903	0.0150270
797.981	0.0149210
798.059	0.0148852
798.137	0.0149356
798.215	0.0149052
798.293	0.0149902
798.371	0.0149722
798.450	0.0150491
798.528	0.0150230
798.606	0.0149142
798.684	0.0148270
798.762	0.0150417
798.840	0.0150514
798.918	0.0148037
798.996	0.0150333
799.075	0.0150655
799.153	0.0150182
799.231	0.0149028
799.309	0.0149374
799.387	0.0148804
799.465	0.0148731
799.543	0.0148075
799.621	0.0148706
799.700	0.0148511
799.778	0.0147739
799.856	0.0148384
799.934	0.0149421
800.012	0.0148436
800.090	0.0147549
800.168	0.0148524
800.246	0.0148684
800.325	0.0148203
800.403	0.0149041
800.481	0.0148677
800.559	0.0149191
800.637	0.0149737
800.715	0.0146960
800.793	0.0148699
800.871	0.0148036
800.950	0.0148792
801.028	0.0148842
801.106	0.0149493
801.184	0.0149775
801.262	0.0149953
801.340	0.0148913
801.418	0.0149502
801.496	0.0148909
801.575	0.0150013
801.653	0.0149817
801.731	0.0147710
801.809	0.0148486
801.887	0.0148142
801.965	0.0147958
802.043	0.0149282
802.121	0.0148756
802.200	0.0148615
802.278	0.0148870
802.356	0.0149976
802.434	0.0149380
802.512	0.0149093
802.590	0.0148289
802.668	0.0149747
802.746	0.0149012
802.825	0.0150320
802.903	0.0149072
802.981	0.0148553
803.059	0.0148865
803.137	0.0147774
803.215	0.0148952
803.293	0.0149031
803.371	0.0149026
803.450	0.0150140
803.528	0.0149413
803.606	0.0148847
803.684	0.0150093
803.762	0.0149712
803.840	0.0149474
803.918	0.0148202
803.996	0.0147658
804.075	0.0148689
804.153	0.0148598
804.231	0.0148321
804.309	0.0149442
804.387	0.0148875
804.465	0.0147890
804.543	0.0148486
804.621	0.0148800
804.700	0.0148931
804.778	0.0148400
804.856	0.0147469
804.934	0.0148927
805.012	0.0149215
805.090	0.0149973
805.168	0.0148363
805.246	0.0148664
805.325	0.0148690
805.403	0.0148840
805.481	0.0149065
805.559	0.0149943
805.637	0.0149048
805.715	0.0148280
805.793	0.0149233
805.871	0.0148950
805.950	0.0149088
806.028	0.0151166
806.106	0.0149403
806.184	0.0150023
806.262	0.0150523
806.340	0.0148962
806.418	0.0150007
806.496	0.0150622
806.575	0.0150797
806.653	0.0149023
806.731	0.0150368
806.809	0.0149644
806.887	0.0148981
806.965	0.0148849
807.043	0.0149227
807.121	0.0150220
807.200	0.0148559
807.278	0.0150846
807.356	0.0148717
807.434	0.0149616
807.512	0.0149213
807.590	0.0147990
807.668	0.0150307
807.746	0.0148240
807.825	0.0148682
807.903	0.0147599
807.981	0.0148563
808.059	0.0148998
808.137	0.0149722
808.215	0.0149426
808.293	0.0150631
808.371	0.0149792
808.450	0.0149177
808.528	0.0149238
808.606	0.0149529
808.684	0.0149628
808.762	0.0148930
808.840	0.0148933
808.918	0.0149876
808.996	0.0150042
809.075	0.0149236
809.153	0.0148511
809.231	0.0148611
809.309	0.0148447
809.387	0.0148930
809.465	0.0149519
809.543	0.0148399
809.621	0.0148679
809.700	0.0148725
809.778	0.0147917
809.856	0.0148477
809.934	0.0148742
810.012	0.0150266
810.090	0.0150033
810.168	0.0148256
810.246	0.0147934
810.325	0.0149606
810.403	0.0149194
810.481	0.0149748
810.559	0.0148620
810.637	0.0148603
810.715	0.0147941
810.793	0.0149353
810.871	0.0149113
810.950	0.0149123
811.028	0.0150332
811.106	0.0148092
811.184	0.0149268
811.262	0.0149400
811.340	0.0146741
811.418	0.0149403
811.496	0.0149120
811.575	0.0149078
811.653	0.0150151
811.731	0.0149631
811.809	0.0149825
811.887	0.0148769
811.965	0.0149303
812.043	0.0150524
812.121	0.0149026
812.200	0.0147625
812.278	0.0150097
812.356	0.0149519
812.434	0.0147812
812.512	0.0148593
812.590	0.0147882
812.668	0.0148278
812.746	0.0147868
812.825	0.0148178
812.903	0.0148177
812.981	0.0148389
813.059	0.0148065
813.137	0.0148035
813.215	0.0149107
813.293	0.0147299
813.371	0.0147086
813.450	0.0149240
813.528	0.0148019
813.606	0.0148418
813.684	0.0149380
813.762	0.0150414
813.840	0.0148866
813.918	0.0148335
813.996	0.0148103
814.075	0.0150732
814.153	0.0149425
814.231	0.0149432
814.309	0.0151181
814.387	0.0148866
814.465	0.0148909
814.543	0.0150367
814.621	0.0149747
814.700	0.0148483
814.778	0.0147860
814.856	0.0148585
814.934	0.0148873
815.012	0.0149056
815.090	0.0147716
815.168	0.0148341
815.246	0.0147204
815.325	0.0148259
815.403	0.0148090
815.481	0.0148924
815.559	0.0148993
815.637	0.0148318
815.715	0.0147565
815.793	0.0146962
815.871	0.0147695
815.950	0.0148778
816.028	0.0147397
816.106	0.0148913
816.184	0.0147681
816.262	0.0148473
816.340	0.0147964
816.418	0.0148495
816.496	0.0147753
816.575	0.0148260
816.653	0.0149416
816.731	0.0148354
816.809	0.0147466
816.887	0.0148447
816.965	0.0148656
817.043	0.0149097
817.121	0.0148669
817.200	0.0147454
817.278	0.0148476
817.356	0.0147153
817.434	0.0147390
817.512	0.0148647
817.590	0.0145624
817.668	0.0147821
817.746	0.0147163
817.825	0.0147608
817.903	0.0148619
817.981	0.0148782
818.059	0.0146210
818.137	0.0147713
818.215	0.0148570
818.293	0.0149542
818.371	0.0149656
818.450	0.0149979
818.528	0.0148523
818.606	0.0148122
818.684	0.0149213
818.762	0.0149892
818.840	0.0148484
818.918	0.0148138
818.996	0.0148569
819.075	0.0148582
819.153	0.0148712
819.231	0.0148138
819.309	0.0149535
819.387	0.0149180
819.465	0.0148102
819.543	0.0148573
819.621	0.0149062
819.700	0.0148038
819.778	0.0147976
819.856	0.0148794
819.934	0.0147952
820.012	0.0148280
820.090	0.0149670
820.168	0.0150351
820.246	0.0148520
820.325	0.0148907
820.403	0.0148045
820.481	0.0149305
820.559	0.0149987
820.637	0.0147989
820.715	0.0147812
820.793	0.0149933
820.871	0.0148979
820.950	0.0149479
821.028	0.0148721
821.106	0.0149088
821.184	0.0149139
821.262	0.0148409
821.340	0.0149018
821.418	0.0149245
821.496	0.0148834
821.575	0.0149984
821.653	0.0148019
821.731	0.0150131
821.809	0.0148205
821.887	0.0148933
821.965	0.0149766
822.043	0.0149226
822.121	0.0148438
822.200	0.0149801
822.278	0.0150027
822.356	0.0149685
822.434	0.0148447
822.512	0.0149978
822.590	0.0149002
822.668	0.0149159
822.746	0.0149538
822.825	0.0150269
822.903	0.0149968
822.981	0.0148347
823.059	0.0148980
823.137	0.0149092
823.215	0.0149735
823.293	0.0149873
823.371	0.0149609
823.450	0.0148336
823.528	0.0149426
823.606	0.0151591
823.684	0.0150476
823.762	0.0149664
823.840	0.0150904
823.918	0.0149564
823.996	0.0149818
824.075	0.0150561
824.153	0.0150216
824.231	0.0148664
824.309	0.0150906
824.387	0.0150056
824.465	0.0151408
824.543	0.0150030
824.621	0.0150700
824.700	0.0148587
824.778	0.0150349
824.856	0.0149548
824.934	0.0149355
825.012	0.0149257
825.090	0.0149086
825.168	0.0148621
825.246	0.0148952
825.325	0.0148090
825.403	0.0147868
825.481	0.0148560
825.559	0.0147382
825.637	0.0148093
825.715	0.0147719
825.793	0.0148430
825.871	0.0148906
825.950	0.0150065
826.028	0.0149681
826.106	0.0149348
826.184	0.0151298
826.262	0.0150594
826.340	0.0150617
826.418	0.0149934
826.496	0.0150609
826.575	0.0151628
826.653	0.0149527
826.731	0.0148959
826.809	0.0148714
826.887	0.0150043
826.965	0.0148550
827.043	0.0149245
827.121	0.0148557
827.200	0.0149023
827.278	0.0149329
827.356	0.0148779
827.434	0.0148653
827.512	0.0148374
827.590	0.0146399
827.668	0.0148954
827.746	0.0148796
827.825	0.0148730
827.903	0.0149032
827.981	0.0149798
828.059	0.0149232
828.137	0.0149564
828.215	0.0150234
828.293	0.0149961
828.371	0.0150435
828.450	0.0148940
828.528	0.0149298
828.606	0.0150006
828.684	0.0150079
828.762	0.0149644
828.840	0.0148637
828.918	0.0149066
828.996	0.0148555
829.075	0.0149185
829.153	0.0148499
829.231	0.0150394
829.309	0.0149921
829.387	0.0149068
829.465	0.0148146
829.543	0.0148861
829.621	0.0148769
829.700	0.0148978
829.778	0.0147422
829.856	0.0148451
829.934	0.0148707
830.012	0.0147416
830.090	0.0148969
830.168	0.0148956
830.246	0.0149933
830.325	0.0148331
830.403	0.0146679
830.481	0.0148962
830.559	0.0149266
830.637	0.0149680
830.715	0.0149980
830.793	0.0148669
830.871	0.0148347
830.950	0.0150163
831.028	0.0149890
831.106	0.0148780
831.184	0.0149741
831.262	0.0148938
831.340	0.0149493
831.418	0.0148754
831.496	0.0148798
831.575	0.0148591
831.653	0.0149294
831.731	0.0147942
831.809	0.0148760
831.887	0.0148805
831.965	0.0148428
832.043	0.0149116
832.121	0.0148898
832.200	0.0148876
832.278	0.0149075
832.356	0.0149041
832.434	0.0149835
832.512	0.0149524
832.590	0.0148786
832.668	0.0148759
832.746	0.0149129
832.825	0.0149310
832.903	0.0148698
832.981	0.0149658
833.059	0.0150597
833.137	0.0149839
833.215	0.0150304
833.293	0.0149524
833.371	0.0148133
833.450	0.0151095
833.528	0.0147868
833.606	0.0149194
833.684	0.0149878
833.762	0.0148905
833.840	0.0148132
833.918	0.0149133
833.996	0.0148101
834.075	0.0148051
834.153	0.0148004
834.231	0.0150049
834.309	0.0148817
834.387	0.0147440
834.465	0.0148779
834.543	0.0147972
834.621	0.0149177
834.700	0.0149022
834.778	0.0148180
834.856	0.0148147
834.934	0.0147875
835.012	0.0148999
835.090	0.0149866
835.168	0.0149995
835.246	0.0149557
835.325	0.0148405
835.403	0.0148232
835.481	0.0148852
835.559	0.0149730
835.637	0.0149459
835.715	0.0149352
835.793	0.0147533
835.871	0.0148586
835.950	0.0147705
836.028	0.0147340
836.106	0.0149115
836.184	0.0147982
836.262	0.0148693
836.340	0.0148904
836.418	0.0149516
836.496	0.0148094
836.575	0.0149153
836.653	0.0147806
836.731	0.0147932
836.809	0.0148496
836.887	0.0147863
836.965	0.0148512
837.043	0.0149151
837.121	0.0148499
837.200	0.0147550
837.278	0.0149066
837.356	0.0148792
837.434	0.0149242
837.512	0.0149168
837.590	0.0149474
837.668	0.0150614
837.746	0.0148854
837.825	0.0148666
837.903	0.0148869
837.981	0.0147449
838.059	0.0147868
838.137	0.0149049
838.215	0.0149742
838.293	0.0149097
838.371	0.0150262
838.450	0.0149312
838.528	0.0147748
838.606	0.0148666
838.684	0.0150209
838.762	0.0149321
838.840	0.0149172
838.918	0.0149570
838.996	0.0149435
839.075	0.0148705
839.153	0.0147732
839.231	0.0148808
839.309	0.0149054
839.387	0.0148606
839.465	0.0147321
839.543	0.0148266
839.621	0.0150529
839.700	0.0149440
839.778	0.0148346
839.856	0.0149487
839.934	0.0149742
840.012	0.0148855
840.090	0.0148660
840.168	0.0149630
840.246	0.0149538
840.325	0.0148577
840.403	0.0149806
840.481	0.0149793
840.559	0.0150318
840.637	0.0148840
840.715	0.0149354
840.793	0.0147828
840.871	0.0149002
840.950	0.0149934
841.028	0.0148174
841.106	0.0148249
841.184	0.0148264
841.262	0.0149902
841.340	0.0147585
841.418	0.0147322
841.496	0.0149059
841.575	0.0148435
841.653	0.0147198
841.731	0.0148008
841.809	0.0147808
841.887	0.0147823
841.965	0.0147599
842.043	0.0147312
842.121	0.0147967
842.200	0.0148692
842.278	0.0148360
842.356	0.0147848
842.434	0.0147098
842.512	0.0149171
842.590	0.0147574
842.668	0.0148055
842.746	0.0148512
842.825	0.0148708
842.903	0.0147475
842.981	0.0147369
843.059	0.0147969
843.137	0.0148671
843.215	0.0148413
843.293	0.0146896
843.371	0.0147464
843.450	0.0147620
843.528	0.0148554
843.606	0.0146683
843.684	0.0148853
843.762	0.0147107
843.840	0.0146845
843.918	0.0149329
843.996	0.0148547
844.075	0.0147363
844.153	0.0147439
844.231	0.0147433
844.309	0.0148226
844.387	0.0146987
844.465	0.0147056
844.543	0.0146359
844.621	0.0147149
844.700	0.0147377
844.778	0.0146894
844.856	0.0145944
844.934	0.0147613
845.012	0.0146958
845.090	0.0148317
845.168	0.0149538
845.246	0.0148262
845.325	0.0149019
845.403	0.0149541
845.481	0.0149218
845.559	0.0147997
845.637	0.0149525
845.715	0.0150520
845.793	0.0150343
845.871	0.0150198
845.950	0.0150349
846.028	0.0151312
846.106	0.0149307
846.184	0.0148593
846.262	0.0149889
846.340	0.0148654
846.418	0.0149973
846.496	0.0149638
846.575	0.0148686
846.653	0.0147878
846.731	0.0148058
846.809	0.0148528
846.887	0.0149004
846.965	0.0147286
847.043	0.0147584
847.121	0.0147705
847.200	0.0147292
847.278	0.0147613
847.356	0.0147948
847.434	0.0147826
847.512	0.0148753
847.590	0.0147604
847.668	0.0148937
847.746	0.0149304
847.825	0.0150780
847.903	0.0149171
847.981	0.0148741
848.059	0.0148052
848.137	0.0148470
848.215	0.0149160
848.293	0.0149966
848.371	0.0149460
848.450	0.0149699
848.528	0.0149477
848.606	0.0149728
848.684	0.0149091
848.762	0.0149219
848.840	0.0149950
848.918	0.0150171
848.996	0.0148866
849.075	0.0149021
849.153	0.0147176
849.231	0.0149376
849.309	0.0147296
849.387	0.0148019
849.465	0.0148448
849.543	0.0149914
849.621	0.0148459
849.700	0.0148966
849.778	0.0149641
849.856	0.0149357
849.934	0.0149281
850.012	0.0149585
850.090	0.0149243
850.168	0.0150761
850.246	0.0150825
850.325	0.0149029
850.403	0.0149249
850.481	0.0151128
850.559	0.0149244
850.637	0.0148959
850.715	0.0150259
850.793	0.0149499
850.871	0.0148913
850.950	0.0148553
851.028	0.0149419
851.106	0.0149533
851.184	0.0149435
851.262	0.0148792
851.340	0.0148701
851.418	0.0149041
851.496	0.0151114
851.575	0.0148518
851.653	0.0149541
851.731	0.0149455
851.809	0.0149122
851.887	0.0149734
851.965	0.0150434
852.043	0.0148647
852.121	0.0149854
852.200	0.0148714
852.278	0.0148141
852.356	0.0147712
852.434	0.0149419
852.512	0.0149673
852.590	0.0148430
852.668	0.0149489
852.746	0.0147528
852.825	0.0149698
852.903	0.0149078
852.981	0.0147421
853.059	0.0148900
853.137	0.0149621
853.215	0.0148747
853.293	0.0148185
853.371	0.0148622
853.450	0.0149797
853.528	0.0147984
853.606	0.0149883
853.684	0.0150188
853.762	0.0150076
853.840	0.0150365
853.918	0.0151382
853.996	0.0150233
854.075	0.0150846
854.153	0.0150854
854.231	0.0150945
854.309	0.0150340
854.387	0.0148800
854.465	0.0150541
854.543	0.0150007
854.621	0.0148106
854.700	0.0148977
854.778	0.0148898
854.856	0.0148686
854.934	0.0149774
855.012	0.0148331
855.090	0.0148186
855.168	0.0149192
855.246	0.0149511
855.325	0.0149747
855.403	0.0150191
855.481	0.0148762
855.559	0.0149529
855.637	0.0148919
855.715	0.0149019
855.793	0.0149676
855.871	0.0149428
855.950	0.0148496
856.028	0.0149136
856.106	0.0148360
856.184	0.0149885
856.262	0.0149430
856.340	0.0148762
856.418	0.0148013
856.496	0.0149712
856.575	0.0149899
856.653	0.0149305
856.731	0.0148533
856.809	0.0149378
856.887	0.0149477
856.965	0.0150645
857.043	0.0151377
857.121	0.0149847
857.200	0.0149384
857.278	0.0148991
857.356	0.0149933
857.434	0.0148209
857.512	0.0149239
857.590	0.0149934
857.668	0.0149249
857.746	0.0149483
857.825	0.0149458
857.903	0.0151303
857.981	0.0150488
858.059	0.0150241
858.137	0.0149336
858.215	0.0149072
858.293	0.0149917
858.371	0.0147758
858.450	0.0148752
858.528	0.0150201
858.606	0.0149052
858.684	0.0148675
858.762	0.0148248
858.840	0.0147605
858.918	0.0148362
858.996	0.0149512
859.075	0.0148891
859.153	0.0147907
859.231	0.0148169
859.309	0.0150140
859.387	0.0148376
859.465	0.0147970
859.543	0.0149626
859.621	0.0148527
859.700	0.0147967
859.778	0.0148499
859.856	0.0148788
859.934	0.0149328
860.012	0.0149329
860.090	0.0149413
860.168	0.0147350
860.246	0.0148531
860.325	0.0148999
860.403	0.0148375
860.481	0.0148137
860.559	0.0148563
860.637	0.0149430
860.715	0.0147988
860.793	0.0147871
860.871	0.0148305
860.950	0.0149960
861.028	0.0149247
861.106	0.0149129
861.184	0.0149202
861.262	0.0149810
861.340	0.0149040
861.418	0.0149499
861.496	0.0148933
861.575	0.0148936
861.653	0.0149348
861.731	0.0150165
861.809	0.0148533
861.887	0.0148474
861.965	0.0149826
862.043	0.0148459
862.121	0.0149166
862.200	0.0150023
862.278	0.0147736
862.356	0.0149511
862.434	0.0147746
862.512	0.0147962
862.590	0.0147733
862.668	0.0148168
862.746	0.0148080
862.825	0.0147521
862.903	0.0148915
862.981	0.0149570
863.059	0.0149041
863.137	0.0147263
863.215	0.0147714
863.293	0.0148031
863.371	0.0147787
863.450	0.0148738
863.528	0.0148068
863.606	0.0147669
863.684	0.0148223
863.762	0.0148141
863.840	0.0148924
863.918	0.0149471
863.996	0.0147229
864.075	0.0149526
864.153	0.0148278
864.231	0.0148277
864.309	0.0148169
864.387	0.0149092
864.465	0.0148972
864.543	0.0147923
864.621	0.0149348
864.700	0.0148454
864.778	0.0149335
864.856	0.0148090
864.934	0.0148067
865.012	0.0148830
865.090	0.0148323
865.168	0.0148419
865.246	0.0148575
865.325	0.0147578
865.403	0.0149163
865.481	0.0148795
865.559	0.0148417
865.637	0.0147166
865.715	0.0148667
865.793	0.0148927
865.871	0.0148485
865.950	0.0147562
866.028	0.0148168
866.106	0.0147742
866.184	0.0147962
866.262	0.0148532
866.340	0.0149054
866.418	0.0148554
866.496	0.0148000
866.575	0.0148994
866.653	0.0148682
866.731	0.0148460
866.809	0.0148563
866.887	0.0150105
866.965	0.0149905
867.043	0.0147840
867.121	0.0148370
867.200	0.0148158
867.278	0.0148975
867.356	0.0147840
867.434	0.0149386
867.512	0.0150087
867.590	0.0147404
867.668	0.0148499
867.746	0.0148626
867.825	0.0148032
867.903	0.0147395
867.981	0.0147707
868.059	0.0147782
868.137	0.0146763
868.215	0.0147524
868.293	0.0148071
868.371	0.0149417
868.450	0.0147661
868.528	0.0146619
868.606	0.0149212
868.684	0.0148170
868.762	0.0148335
868.840	0.0148159
868.918	0.0148132
868.996	0.0148544
869.075	0.0147668
869.153	0.0149062
869.231	0.0147402
869.309	0.0151440
869.387	0.0150729
869.465	0.0149422
869.543	0.0149301
869.621	0.0149792
869.700	0.0149128
869.778	0.0150344
869.856	0.0148227
869.934	0.0147293
870.012	0.0148637
870.090	0.0147540
870.168	0.0146893
870.246	0.0147050
870.325	0.0148637
870.403	0.0148944
870.481	0.0146908
870.559	0.0146066
870.637	0.0149529
870.715	0.0147649
870.793	0.0148734
870.871	0.0147868
870.950	0.0148212
871.028	0.0147551
871.106	0.0149246
871.184	0.0148788
871.262	0.0149256
871.340	0.0149487
871.418	0.0149823
871.496	0.0147502
871.575	0.0148719
871.653	0.0148402
871.731	0.0148668
871.809	0.0148107
871.887	0.0150538
871.965	0.0149932
872.043	0.0149096
872.121	0.0149319
872.200	0.0150104
872.278	0.0150439
872.356	0.0150208
872.434	0.0148016
872.512	0.0149604
872.590	0.0149044
872.668	0.0149893
872.746	0.0148523
872.825	0.0148263
872.903	0.0148753
872.981	0.0150292
873.059	0.0149570
873.137	0.0148472
873.215	0.0149679
873.293	0.0148784
873.371	0.0149577
873.450	0.0149072
873.528	0.0148148
873.606	0.0148975
873.684	0.0149138
873.762	0.0150091
873.840	0.0148901
873.918	0.0149545
873.996	0.0148940
874.075	0.0149613
874.153	0.0150320
874.231	0.0150111
874.309	0.0149429
874.387	0.0149007
874.465	0.0150105
874.543	0.0150260
874.621	0.0149304
874.700	0.0150216
874.778	0.0148324
874.856	0.0149562
874.934	0.0150017
875.012	0.0150230
875.090	0.0149029
875.168	0.0149558
875.246	0.0150109
875.325	0.0148932
875.403	0.0147867
875.481	0.0149342
875.559	0.0148122
875.637	0.0149036
875.715	0.0148679
875.793	0.0148870
875.871	0.0148239
875.950	0.0147524
876.028	0.0148179
876.106	0.0148410
876.184	0.0147815
876.262	0.0147403
876.340	0.0147504
876.418	0.0150123
876.496	0.0149052
876.575	0.0148550
876.653	0.0149622
876.731	0.0149518
876.809	0.0149934
876.887	0.0148336
876.965	0.0147449
877.043	0.0149678
877.121	0.0150229
877.200	0.0150532
877.278	0.0149474
877.356	0.0148827
877.434	0.0149671
877.512	0.0149042
877.590	0.0149072
877.668	0.0149214
877.746	0.0150101
877.825	0.0149912
877.903	0.0150413
877.981	0.0149389
878.059	0.0149102
878.137	0.0148703
878.215	0.0147575
878.293	0.0148993
878.371	0.0149917
878.450	0.0148526
878.528	0.0146780
878.606	0.0148935
878.684	0.0149062
878.762	0.0147827
878.840	0.0148691
878.918	0.0148061
878.996	0.0148283
879.075	0.0148391
879.153	0.0148737
879.231	0.0147544
879.309	0.0148122
879.387	0.0148489
879.465	0.0149640
879.543	0.0149210
879.621	0.0149010
879.700	0.0148643
879.778	0.0149887
879.856	0.0148798
879.934	0.0148907
880.012	0.0149457
880.090	0.0148378
880.168	0.0149693
880.246	0.0149350
880.325	0.0150647
880.403	0.0149902
880.481	0.0149888
880.559	0.0148586
880.637	0.0149215
880.715	0.0149457
880.793	0.0149191
880.871	0.0148875
880.950	0.0149700
881.028	0.0148693
881.106	0.0149329
881.184	0.0148716
881.262	0.0147982
881.340	0.0148721
881.418	0.0147369
881.496	0.0149375
881.575	0.0148981
881.653	0.0150333
881.731	0.0149365
881.809	0.0146694
881.887	0.0150231
881.965	0.0149350
882.043	0.0148943
882.121	0.0149443
882.200	0.0149743
882.278	0.0150397
882.356	0.0149104
882.434	0.0149216
882.512	0.0150033
882.590	0.0149406
882.668	0.0147821
882.746	0.0149828
882.825	0.0150616
882.903	0.0150088
882.981	0.0149424
883.059	0.0148774
883.137	0.0150382
883.215	0.0149081
883.293	0.0147529
883.371	0.0148284
883.450	0.0147836
883.528	0.0147810
883.606	0.0148656
883.684	0.0148342
883.762	0.0148244
883.840	0.0148487
883.918	0.0148569
883.996	0.0148257
884.075	0.0149021
884.153	0.0148587
884.231	0.0148507
884.309	0.0148796
884.387	0.0147588
884.465	0.0148680
884.543	0.0148624
884.621	0.0148577
884.700	0.0149087
884.778	0.0149107
884.856	0.0149800
884.934	0.0149207
885.012	0.0148862
885.090	0.0148473
885.168	0.0147878
885.246	0.0148380
885.325	0.0149678
885.403	0.0149181
885.481	0.0147760
885.559	0.0148573
885.637	0.0148073
885.715	0.0147425
885.793	0.0147118
885.871	0.0147822
885.950	0.0147549
886.028	0.0147000
886.106	0.0148572
886.184	0.0149411
886.262	0.0147539
886.340	0.0148042
886.418	0.0149335
886.496	0.0149428
886.575	0.0148718
886.653	0.0148676
886.731	0.0149431
886.809	0.0149556
886.887	0.0149694
886.965	0.0149287
887.043	0.0149770
887.121	0.0149226
887.200	0.0148576
887.278	0.0149171
887.356	0.0149486
887.434	0.0149064
887.512	0.0148770
887.590	0.0148303
887.668	0.0148450
887.746	0.0147107
887.825	0.0147031
887.903	0.0147387
887.981	0.0148183
888.059	0.0147665
888.137	0.0147990
888.215	0.0148426
888.293	0.0148741
888.371	0.0148915
888.450	0.0149686
888.528	0.0148851
888.606	0.0147052
888.684	0.0148861
888.762	0.0151421
888.840	0.0151080
888.918	0.0149516
888.996	0.0148592
889.075	0.0150601
889.153	0.0149334
889.231	0.0150063
889.309	0.0150261
889.387	0.0149256
889.465	0.0148706
889.543	0.0149454
889.621	0.0148966
889.700	0.0148268
889.778	0.0148427
889.856	0.0149139
889.934	0.0147675
890.012	0.0146673
890.090	0.0147857
890.168	0.0149663
890.246	0.0148323
890.325	0.0148087
890.403	0.0147993
890.481	0.0149282
890.559	0.0149134
890.637	0.0148731
890.715	0.0149053
890.793	0.0149298
890.871	0.0148601
890.950	0.0148438
891.028	0.0149373
891.106	0.0147073
891.184	0.0149504
891.262	0.0150256
891.340	0.0148780
891.418	0.0150542
891.496	0.0150256
891.575	0.0149051
891.653	0.0148778
891.731	0.0150867
891.809	0.0148678
891.887	0.0149081
891.965	0.0149648
892.043	0.0148431
892.121	0.0149806
892.200	0.0148743
892.278	0.0148308
892.356	0.0148741
892.434	0.0147849
892.512	0.0147848
892.590	0.0148153
892.668	0.0148537
892.746	0.0148464
892.825	0.0149155
892.903	0.0148625
892.981	0.0148712
893.059	0.0149908
893.137	0.0149497
893.215	0.0151173
893.293	0.0149433
893.371	0.0149448
893.450	0.0149298
893.528	0.0150648
893.606	0.0149021
893.684	0.0148381
893.762	0.0149271
893.840	0.0149364
893.918	0.0148499
893.996	0.0148216
894.075	0.0147742
894.153	0.0148770
894.231	0.0147997
894.309	0.0147189
894.387	0.0147908
894.465	0.0148040
894.543	0.0147913
894.621	0.0147905
894.700	0.0147928
894.778	0.0148763
894.856	0.0148830
894.934	0.0148450
895.012	0.0149502
895.090	0.0149957
895.168	0.0148457
895.246	0.0149335
895.325	0.0149066
895.403	0.0148740
895.481	0.0148956
895.559	0.0148447
895.637	0.0150274
895.715	0.0148539
895.793	0.0147300
895.871	0.0148495
895.950	0.0149676
896.028	0.0150755
896.106	0.0148540
896.184	0.0148885
896.262	0.0147453
896.340	0.0149381
896.418	0.0148184
896.496	0.0149858
896.575	0.0149198
896.653	0.0147225
896.731	0.0150106
896.809	0.0149171
896.887	0.0148754
896.965	0.0148508
897.043	0.0148273
897.121	0.0148862
897.200	0.0149802
897.278	0.0149150
897.356	0.0150117
897.434	0.0149231
897.512	0.0148885
897.590	0.0151118
897.668	0.0150264
897.746	0.0149459
897.825	0.0149066
897.903	0.0150196
897.981	0.0149727
898.059	0.0150291
898.137	0.0150430
898.215	0.0148584
898.293	0.0149660
898.371	0.0148929
898.450	0.0150027
898.528	0.0149073
898.606	0.0148899
898.684	0.0149747
898.762	0.0150687
898.840	0.0149380
898.918	0.0149968
898.996	0.0149206
899.075	0.0149070
899.153	0.0149777
899.231	0.0149105
899.309	0.0149129
899.387	0.0150333
899.465	0.0148515
899.543	0.0150506
899.621	0.0150933
899.700	0.0147442
899.778	0.0148152
899.856	0.0148582
899.934	0.0148064
900.012	0.0149099
900.090	0.0148897
900.168	0.0147052
900.246	0.0146522
900.325	0.0149079
900.403	0.0149433
900.481	0.0148059
900.559	0.0146719
900.637	0.0148872
900.715	0.0148020
900.793	0.0149770
900.871	0.0149514
900.950	0.0148112
901.028	0.0148296
901.106	0.0148204
901.184	0.0150324
901.262	0.0149540
901.340	0.0148909
901.418	0.0149038
901.496	0.0151481
901.575	0.0151301
901.653	0.0150096
901.731	0.0150070
901.809	0.0149221
901.887	0.0149302
901.965	0.0148559
902.043	0.0148112
902.121	0.0148530
902.200	0.0148750
902.278	0.0148416
902.356	0.0149102
902.434	0.0146737
902.512	0.0146204
902.590	0.0148009
902.668	0.0146883
902.746	0.0147837
902.825	0.0147421
902.903	0.0146514
902.981	0.0148106
903.059	0.0147603
903.137	0.0148602
903.215	0.0148721
903.293	0.0148627
903.371	0.0149096
903.450	0.0149313
903.528	0.0149984
903.606	0.0148001
903.684	0.0148843
903.762	0.0150630
903.840	0.0149890
903.918	0.0149577
903.996	0.0149323
904.075	0.0148910
904.153	0.0147555
904.231	0.0148245
904.309	0.0147566
904.387	0.0148329
904.465	0.0146838
904.543	0.0146399
904.621	0.0147259
904.700	0.0148470
904.778	0.0146308
904.856	0.0145908
904.934	0.0146724
905.012	0.0146935
905.090	0.0147227
905.168	0.0147412
905.246	0.0148242
905.325	0.0148061
905.403	0.0148494
905.481	0.0148976
905.559	0.0149918
905.637	0.0150218
905.715	0.0150075
905.793	0.0151027
905.871	0.0150162
905.950	0.0150719
906.028	0.0151395
906.106	0.0150121
906.184	0.0151524
906.262	0.0150312
906.340	0.0151408
906.418	0.0150507
906.496	0.0149638
906.575	0.0149426
906.653	0.0150311
906.731	0.0148775
906.809	0.0148014
906.887	0.0148109
906.965	0.0149767
907.043	0.0148223
907.121	0.0148214
907.200	0.0148750
907.278	0.0146858
907.356	0.0147931
907.434	0.0149653
907.512	0.0148334
907.590	0.0148531
907.668	0.0149364
907.746	0.0149053
907.825	0.0149409
907.903	0.0150246
907.981	0.0148511
908.059	0.0148505
908.137	0.0149090
908.215	0.0149632
908.293	0.0148493
908.371	0.0149152
908.450	0.0149969
908.528	0.0148907
908.606	0.0148286
908.684	0.0149025
908.762	0.0148991
908.840	0.0149153
908.918	0.0150826
908.996	0.0149591
909.075	0.0149481
909.153	0.0149216
909.231	0.0149724
909.309	0.0150093
909.387	0.0148833
909.465	0.0148550
909.543	0.0148430
909.621	0.0150517
909.700	0.0150276
909.778	0.0150115
909.856	0.0150324
909.934	0.0150546
910.012	0.0149312
910.090	0.0149454
910.168	0.0149072
910.246	0.0149505
910.325	0.0149325
910.403	0.0148638
910.481	0.0149963
910.559	0.0148511
910.637	0.0149193
910.715	0.0148321
910.793	0.0149248
910.871	0.0149326
910.950	0.0148962
911.028	0.0148758
911.106	0.0150119
911.184	0.0149152
911.262	0.0147018
911.340	0.0149128
911.418	0.0150139
911.496	0.0150933
911.575	0.0150800
911.653	0.0149666
911.731	0.0148418
911.809	0.0149249
911.887	0.0149356
911.965	0.0149482
912.043	0.0149832
912.121	0.0149706
912.200	0.0148370
912.278	0.0148481
912.356	0.0149936
912.434	0.0149843
912.512	0.0149016
912.590	0.0148724
912.668	0.0148695
912.746	0.0150100
912.825	0.0147398
912.903	0.0148375
912.981	0.0147864
913.059	0.0149129
913.137	0.0148798
913.215	0.0147150
913.293	0.0147097
913.371	0.0148109
913.450	0.0150263
913.528	0.0148473
913.606	0.0149303
913.684	0.0148814
913.762	0.0149812
913.840	0.0150130
913.918	0.0150622
913.996	0.0148558
914.075	0.0148132
914.153	0.0150232
914.231	0.0150085
914.309	0.0149831
914.387	0.0150329
914.465	0.0148549
914.543	0.0149431
914.621	0.0148423
914.700	0.0148707
914.778	0.0148380
914.856	0.0149236
914.934	0.0147320
915.012	0.0147876
915.090	0.0147889
915.168	0.0148243
915.246	0.0149826
915.325	0.0149499
915.403	0.0148728
915.481	0.0148772
915.559	0.0148962
915.637	0.0149474
915.715	0.0148163
915.793	0.0148831
915.871	0.0149241
915.950	0.0149436
916.028	0.0147932
916.106	0.0148802
916.184	0.0148550
916.262	0.0148537
916.340	0.0149195
916.418	0.0147652
916.496	0.0148241
916.575	0.0148982
916.653	0.0148650
916.731	0.0149585
916.809	0.0147926
916.887	0.0148000
916.965	0.0147567
917.043	0.0149491
917.121	0.0150281
917.200	0.0150513
917.278	0.0149548
917.356	0.0149757
917.434	0.0149458
917.512	0.0149241
917.590	0.0149158
917.668	0.0148531
917.746	0.0149094
917.825	0.0148539
917.903	0.0148214
917.981	0.0148498
918.059	0.0147623
918.137	0.0147366
918.215	0.0150003
918.293	0.0149763
918.371	0.0149169
918.450	0.0148717
918.528	0.0148648
918.606	0.0148937
918.684	0.0150185
918.762	0.0149281
918.840	0.0147948
918.918	0.0148576
918.996	0.0149480
919.075	0.0148301
919.153	0.0148527
919.231	0.0148341
919.309	0.0149208
919.387	0.0148393
919.465	0.0149496
919.543	0.0148074
919.621	0.0148632
919.700	0.0149937
919.778	0.0147927
919.856	0.0149032
919.934	0.0149509
920.012	0.0149128
920.090	0.0149562
920.168	0.0149052
920.246	0.0148876
920.325	0.0149972
920.403	0.0149585
920.481	0.0148727
920.559	0.0149738
920.637	0.0147720
920.715	0.0148185
920.793	0.0149402
920.871	0.0149533
920.950	0.0148298
921.028	0.0149258
921.106	0.0148640
921.184	0.0149172
921.262	0.0148982
921.340	0.0150051
921.418	0.0147794
921.496	0.0149986
921.575	0.0148405
921.653	0.0149767
921.731	0.0150413
921.809	0.0149289
921.887	0.0149137
921.965	0.0149160
922.043	0.0148653
922.121	0.0148681
922.200	0.0148350
922.278	0.0148269
922.356	0.0148653
922.434	0.0147807
922.512	0.0148029
922.590	0.0146597
922.668	0.0148566
922.746	0.0149755
922.825	0.0149110
922.903	0.0149789
922.981	0.0148756
923.059	0.0148923
923.137	0.0149729
923.215	0.0149756
923.293	0.0150494
923.371	0.0149150
923.450	0.0147755
923.528	0.0148952
923.606	0.0150413
923.684	0.0148387
923.762	0.0148965
923.840	0.0150273
923.918	0.0150128
923.996	0.0149540
924.075	0.0148843
924.153	0.0149747
924.231	0.0148077
924.309	0.0147858
924.387	0.0149759
924.465	0.0148933
924.543	0.0147733
924.621	0.0148601
924.700	0.0148388
924.778	0.0148545
924.856	0.0148885
924.934	0.0148074
925.012	0.0147996
925.090	0.0148629
925.168	0.0148908
925.246	0.0149548
925.325	0.0149076
925.403	0.0149604
925.481	0.0149696
925.559	0.0149396
925.637	0.0150134
925.715	0.0149033
925.793	0.0149007
925.871	0.0150231
925.950	0.0149291
926.028	0.0148351
926.106	0.0148822
926.184	0.0149357
926.262	0.0149567
926.340	0.0150583
926.418	0.0149384
926.496	0.0148935
926.575	0.0149947
926.653	0.0149048
926.731	0.0148847
926.809	0.0148643
926.887	0.0149552
926.965	0.0148829
927.043	0.0148823
927.121	0.0148595
927.200	0.0147948
927.278	0.0147658
927.356	0.0149860
927.434	0.0149369
927.512	0.0149057
927.590	0.0149659
927.668	0.0148863
927.746	0.0149084
927.825	0.0148151
927.903	0.0149281
927.981	0.0149648
928.059	0.0149368
928.137	0.0148846
928.215	0.0148267
928.293	0.0150098
928.371	0.0149733
928.450	0.0149237
928.528	0.0149203
928.606	0.0149023
928.684	0.0148553
928.762	0.0149688
928.840	0.0149281
928.918	0.0148841
928.996	0.0148415
929.075	0.0148464
929.153	0.0149582
929.231	0.0148946
929.309	0.0148967
929.387	0.0149016
929.465	0.0148624
929.543	0.0149821
929.621	0.0149181
929.700	0.0150204
929.778	0.0151136
929.856	0.0149941
929.934	0.0149281
930.012	0.0149173
930.090	0.0149579
930.168	0.0149324
930.246	0.0149831
930.325	0.0149605
930.403	0.0149235
930.481	0.0148872
930.559	0.0150523
930.637	0.0149603
930.715	0.0149443
930.793	0.0149319
930.871	0.0150500
930.950	0.0149218
931.028	0.0149467
931.106	0.0149571
931.184	0.0148822
931.262	0.0149642
931.340	0.0149204
931.418	0.0149402
931.496	0.0149202
931.575	0.0149543
931.653	0.0148972
931.731	0.0148914
931.809	0.0149303
931.887	0.0149355
931.965	0.0147384
932.043	0.0149747
932.121	0.0149187
932.200	0.0147570
932.278	0.0150652
932.356	0.0149400
932.434	0.0147821
932.512	0.0148819
932.590	0.0148222
932.668	0.0147958
932.746	0.0148513
932.825	0.0149268
932.903	0.0147842
932.981	0.0148669
933.059	0.0149631
933.137	0.0149782
933.215	0.0148597
933.293	0.0147961
933.371	0.0148450
933.450	0.0149632
933.528	0.0148831
933.606	0.0147477
933.684	0.0149300
933.762	0.0149766
933.840	0.0150375
933.918	0.0147764
933.996	0.0148969
934.075	0.0149145
934.153	0.0148726
934.231	0.0148978
934.309	0.0148118
934.387	0.0148842
934.465	0.0148721
934.543	0.0148528
934.621	0.0149466
934.700	0.0148581
934.778	0.0147112
934.856	0.0148392
934.934	0.0148994
935.012	0.0149339
935.090	0.0148897
935.168	0.0149152
935.246	0.0147607
935.325	0.0147851
935.403	0.0148280
935.481	0.0149336
935.559	0.0149013
935.637	0.0149280
935.715	0.0148582
935.793	0.0149095
935.871	0.0149334
935.950	0.0147308
936.028	0.0149552
936.106	0.0148454
936.184	0.0148985
936.262	0.0147886
936.340	0.0149375
936.418	0.0150042
936.496	0.0148728
936.575	0.0148460
936.653	0.0149499
936.731	0.0149352
936.809	0.0149042
936.887	0.0148660
936.965	0.0149368
937.043	0.0148571
937.121	0.0148676
937.200	0.0148591
937.278	0.0148610
937.356	0.0147781
937.434	0.0149097
937.512	0.0147364
937.590	0.0147578
937.668	0.0148457
937.746	0.0148383
937.825	0.0147560
937.903	0.0149010
937.981	0.0146732
938.059	0.0148760
938.137	0.0149566
938.215	0.0148669
938.293	0.0147626
938.371	0.0148753
938.450	0.0146201
938.528	0.0147025
938.606	0.0148473
938.684	0.0148615
938.762	0.0148463
938.840	0.0149433
938.918	0.0148058
938.996	0.0148061
939.075	0.0148717
939.153	0.0148409
939.231	0.0148756
939.309	0.0148919
939.387	0.0148465
939.465	0.0148508
939.543	0.0148830
939.621	0.0148936
939.700	0.0150034
939.778	0.0148956
939.856	0.0149399
939.934	0.0149181
940.012	0.0148623
940.090	0.0149278
940.168	0.0149339
940.246	0.0148576
940.325	0.0148556
940.403	0.0148766
940.481	0.0148299
940.559	0.0148782
940.637	0.0149680
940.715	0.0149629
940.793	0.0147873
940.871	0.0149265
940.950	0.0147066
941.028	0.0148205
941.106	0.0149310
941.184	0.0148254
941.262	0.0149395
941.340	0.0149603
941.418	0.0150010
941.496	0.0148654
941.575	0.0148328
941.653	0.0149109
941.731	0.0150379
941.809	0.0147990
941.887	0.0148738
941.965	0.0149248
942.043	0.0149031
942.121	0.0149342
942.200	0.0148727
942.278	0.0149087
942.356	0.0149686
942.434	0.0149529
942.512	0.0149102
942.590	0.0149984
942.668	0.0149738
942.746	0.0149564
942.825	0.0148221
942.903	0.0147382
942.981	0.0147781
943.059	0.0147607
943.137	0.0148334
943.215	0.0148134
943.293	0.0148155
943.371	0.0147199
943.450	0.0147659
943.528	0.0147581
943.606	0.0147421
943.684	0.0147386
943.762	0.0147633
943.840	0.0148647
943.918	0.0147913
943.996	0.0147340
944.075	0.0148408
944.153	0.0148277
944.231	0.0149133
944.309	0.0147517
944.387	0.0149015
944.465	0.0148434
944.543	0.0149004
944.621	0.0149787
944.700	0.0149078
944.778	0.0148334
944.856	0.0147197
944.934	0.0148310
945.012	0.0148392
945.090	0.0148139
945.168	0.0147105
945.246	0.0147485
945.325	0.0148445
945.403	0.0148517
945.481	0.0148260
945.559	0.0149584
945.637	0.0148315
945.715	0.0147546
945.793	0.0147910
945.871	0.0148470
945.950	0.0148511
946.028	0.0148695
946.106	0.0148783
946.184	0.0148606
946.262	0.0149168
946.340	0.0147816
946.418	0.0147724
946.496	0.0148332
946.575	0.0148727
946.653	0.0148499
946.731	0.0149110
946.809	0.0149916
946.887	0.0148846
946.965	0.0149379
947.043	0.0148156
947.121	0.0147742
947.200	0.0148000
947.278	0.0147823
947.356	0.0149269
947.434	0.0146778
947.512	0.0149120
947.590	0.0149767
947.668	0.0148724
947.746	0.0149208
947.825	0.0149791
947.903	0.0149771
947.981	0.0149582
948.059	0.0151279
948.137	0.0150721
948.215	0.0149873
948.293	0.0149298
948.371	0.0150017
948.450	0.0148908
948.528	0.0148453
948.606	0.0148964
948.684	0.0150262
948.762	0.0150265
948.840	0.0148768
948.918	0.0148921
948.996	0.0149405
949.075	0.0149329
949.153	0.0149245
949.231	0.0149119
949.309	0.0148719
949.387	0.0148714
949.465	0.0150304
949.543	0.0149838
949.621	0.0151650
949.700	0.0149936
949.778	0.0149877
949.856	0.0149029
949.934	0.0150901
950.012	0.0151274
950.090	0.0150833
950.168	0.0152156
950.246	0.0152555
950.325	0.0150967
950.403	0.0149944
950.481	0.0151019
950.559	0.0149132
950.637	0.0149314
950.715	0.0147611
950.793	0.0150167
950.871	0.0150856
950.950	0.0149753
951.028	0.0148759
951.106	0.0147899
951.184	0.0149296
951.262	0.0150621
951.340	0.0148939
951.418	0.0149800
951.496	0.0149286
951.575	0.0149318
951.653	0.0149047
951.731	0.0149549
951.809	0.0149204
951.887	0.0149731
951.965	0.0148224
952.043	0.0150308
952.121	0.0150837
952.200	0.0150035
952.278	0.0148269
952.356	0.0149601
952.434	0.0149883
952.512	0.0149449
952.590	0.0148595
952.668	0.0149232
952.746	0.0150019
952.825	0.0150376
952.903	0.0150140
952.981	0.0149120
953.059	0.0149081
953.137	0.0148949
953.215	0.0150304
953.293	0.0149095
953.371	0.0148975
953.450	0.0149782
953.528	0.0148850
953.606	0.0150086
953.684	0.0150341
953.762	0.0149252
953.840	0.0148096
953.918	0.0149544
953.996	0.0149905
954.075	0.0150166
954.153	0.0150008
954.231	0.0150431
954.309	0.0150716
954.387	0.0150456
954.465	0.0149866
954.543	0.0150491
954.621	0.0151029
954.700	0.0149629
954.778	0.0150143
954.856	0.0148561
954.934	0.0150141
955.012	0.0150643
955.090	0.0149487
955.168	0.0150453
955.246	0.0149055
955.325	0.0150785
955.403	0.0150375
955.481	0.0149463
955.559	0.0150871
955.637	0.0149239
955.715	0.0147425
955.793	0.0148013
955.871	0.0149300
955.950	0.0149278
956.028	0.0148878
956.106	0.0147659
956.184	0.0147941
956.262	0.0149535
956.340	0.0148164
956.418	0.0148608
956.496	0.0148405
956.575	0.0150107
956.653	0.0150146
956.731	0.0149842
956.809	0.0149933
956.887	0.0149255
956.965	0.0149655
957.043	0.0149200
957.121	0.0149261
957.200	0.0149574
957.278	0.0149085
957.356	0.0150105
957.434	0.0149442
957.512	0.0150151
957.590	0.0149771
957.668	0.0149519
957.746	0.0148666
957.825	0.0149555
957.903	0.0149203
957.981	0.0148647
958.059	0.0148721
958.137	0.0147243
958.215	0.0147292
958.293	0.0147942
958.371	0.0148136
958.450	0.0145861
958.528	0.0148551
958.606	0.0148495
958.684	0.0148843
958.762	0.0147160
958.840	0.0147552
958.918	0.0147853
958.996	0.0147819
959.075	0.0148190
959.153	0.0149454
959.231	0.0149735
959.309	0.0147927
959.387	0.0149167
959.465	0.0146835
959.543	0.0148844
959.621	0.0147689
959.700	0.0149477
959.778	0.0147920
959.856	0.0148049
959.934	0.0148383
960.012	0.0147927
960.090	0.0147919
960.168	0.0148338
960.246	0.0149269
960.325	0.0148096
960.403	0.0147690
960.481	0.0147761
960.559	0.0149222
960.637	0.0148853
960.715	0.0148245
960.793	0.0149096
960.871	0.0149686
960.950	0.0147871
961.028	0.0149809
961.106	0.0149622
961.184	0.0149361
961.262	0.0149545
961.340	0.0148396
961.418	0.0150282
961.496	0.0149160
961.575	0.0148246
961.653	0.0147978
961.731	0.0148849
961.809	0.0147377
961.887	0.0147764
961.965	0.0147678
962.043	0.0149915
962.121	0.0147968
962.200	0.0148608
962.278	0.0149200
962.356	0.0148342
962.434	0.0149290
962.512	0.0148643
962.590	0.0147807
962.668	0.0148778
962.746	0.0150092
962.825	0.0149743
962.903	0.0149240
962.981	0.0149019
963.059	0.0148689
963.137	0.0148305
963.215	0.0147788
963.293	0.0149102
963.371	0.0147934
963.450	0.0147742
963.528	0.0148479
963.606	0.0148538
963.684	0.0148671
963.762	0.0147687
963.840	0.0148164
963.918	0.0148437
963.996	0.0149206
964.075	0.0149142
964.153	0.0147427
964.231	0.0148443
964.309	0.0148994
964.387	0.0148747
964.465	0.0149395
964.543	0.0148475
964.621	0.0150256
964.700	0.0148631
964.778	0.0148965
964.856	0.0149271
964.934	0.0149442
965.012	0.0150639
965.090	0.0149453
965.168	0.0148866
965.246	0.0148606
965.325	0.0149767
965.403	0.0148908
965.481	0.0149026
965.559	0.0148735
965.637	0.0148644
965.715	0.0148148
965.793	0.0147892
965.871	0.0148692
965.950	0.0148148
966.028	0.0148177
966.106	0.0149774
966.184	0.0149286
966.262	0.0149133
966.340	0.0149270
966.418	0.0150132
966.496	0.0148637
966.575	0.0148268
966.653	0.0150030
966.731	0.0150818
966.809	0.0148547
966.887	0.0149876
966.965	0.0149306
967.043	0.0149061
967.121	0.0148621
967.200	0.0148328
967.278	0.0147928
967.356	0.0147209
967.434	0.0148662
967.512	0.0148260
967.590	0.0148162
967.668	0.0146793
967.746	0.0146915
967.825	0.0148308
967.903	0.0148360
967.981	0.0147126
968.059	0.0148358
968.137	0.0148438
968.215	0.0148735
968.293	0.0148104
968.371	0.0148135
968.450	0.0147844
968.528	0.0147785
968.606	0.0149113
968.684	0.0149637
968.762	0.0149137
968.840	0.0148160
968.918	0.0149347
968.996	0.0147853
969.075	0.0148537
969.153	0.0149440
969.231	0.0149221
969.309	0.0147640
969.387	0.0150117
969.465	0.0148239
969.543	0.0148669
969.621	0.0149165
969.700	0.0147962
969.778	0.0148540
969.856	0.0147637
969.934	0.0147623
970.012	0.0146770
970.090	0.0147681
970.168	0.0149004
970.246	0.0148035
970.325	0.0147289
970.403	0.0149493
970.481	0.0149902
970.559	0.0148427
970.637	0.0149235
970.715	0.0147698
970.793	0.0150089
970.871	0.0149257
970.950	0.0149344
971.028	0.0149656
971.106	0.0149914
971.184	0.0149400
971.262	0.0150182
971.340	0.0149686
971.418	0.0147932
971.496	0.0149841
971.575	0.0150030
971.653	0.0149721
971.731	0.0148120
971.809	0.0149442
971.887	0.0149971
971.965	0.0149300
972.043	0.0149763
972.121	0.0149240
972.200	0.0150072
972.278	0.0148432
972.356	0.0148389
972.434	0.0148579
972.512	0.0148988
972.590	0.0149438
972.668	0.0149929
972.746	0.0150302
972.825	0.0150320
972.903	0.0148996
972.981	0.0149906
973.059	0.0149932
973.137	0.0149632
973.215	0.0149795
973.293	0.0150293
973.371	0.0149099
973.450	0.0149445
973.528	0.0149227
973.606	0.0149831
973.684	0.0150893
973.762	0.0147865
973.840	0.0147678
973.918	0.0148700
973.996	0.0149370
974.075	0.0148814
974.153	0.0148725
974.231	0.0148930
974.309	0.0148556
974.387	0.0148603
974.465	0.0147757
974.543	0.0148930
974.621	0.0149258
974.700	0.0149252
974.778	0.0148922
974.856	0.0148695
974.934	0.0148923
975.012	0.0148740
975.090	0.0148804
975.168	0.0150033
975.246	0.0150317
975.325	0.0151115
975.403	0.0151151
975.481	0.0150994
975.559	0.0150294
975.637	0.0151863
975.715	0.0150449
975.793	0.0149644
975.871	0.0150533
975.950	0.0150266
976.028	0.0151035
976.106	0.0150630
976.184	0.0149837
976.262	0.0150661
976.340	0.0148879
976.418	0.0149439
976.496	0.0149488
976.575	0.0149888
976.653	0.0149892
976.731	0.0149655
976.809	0.0150765
976.887	0.0149941
976.965	0.0149768
977.043	0.0149251
977.121	0.0149602
977.200	0.0149991
977.278	0.0149261
977.356	0.0149815
977.434	0.0149136
977.512	0.0150359
977.590	0.0148919
977.668	0.0150097
977.746	0.0148967
977.825	0.0148124
977.903	0.0149518
977.981	0.0148067
978.059	0.0149548
978.137	0.0148857
978.215	0.0149893
978.293	0.0149766
978.371	0.0150522
978.450	0.0149458
978.528	0.0149006
978.606	0.0149553
978.684	0.0148154
978.762	0.0147802
978.840	0.0148576
978.918	0.0147903
978.996	0.0148981
979.075	0.0148263
979.153	0.0147921
979.231	0.0147269
979.309	0.0147287
979.387	0.0147604
979.465	0.0147562
979.543	0.0147410
979.621	0.0148987
979.700	0.0147916
979.778	0.0147324
979.856	0.0147913
979.934	0.0148727
980.012	0.0148583
980.090	0.0149858
980.168	0.0149566
980.246	0.0148428
980.325	0.0147540
980.403	0.0148422
980.481	0.0149756
980.559	0.0149430
980.637	0.0150201
980.715	0.0149873
980.793	0.0149259
980.871	0.0149939
980.950	0.0150461
981.028	0.0150040
981.106	0.0148481
981.184	0.0149730
981.262	0.0149804
981.340	0.0149380
981.418	0.0149833
981.496	0.0149085
981.575	0.0149071
981.653	0.0149500
981.731	0.0148535
981.809	0.0149544
981.887	0.0148031
981.965	0.0149609
982.043	0.0148763
982.121	0.0148653
982.200	0.0147926
982.278	0.0149081
982.356	0.0149032
982.434	0.0149414
982.512	0.0146281
982.590	0.0147457
982.668	0.0148501
982.746	0.0148959
982.825	0.0147876
982.903	0.0149908
982.981	0.0147971
983.059	0.0149213
983.137	0.0148208
983.215	0.0147237
983.293	0.0148604
983.371	0.0148165
983.450	0.0148782
983.528	0.0148905
983.606	0.0147328
983.684	0.0148284
983.762	0.0148021
983.840	0.0148382
983.918	0.0147956
983.996	0.0148888
984.075	0.0149001
984.153	0.0149960
984.231	0.0147565
984.309	0.0146880
984.387	0.0148344
984.465	0.0148681
984.543	0.0148611
984.621	0.0146295
984.700	0.0149158
984.778	0.0149640
984.856	0.0148486
984.934	0.0149306
985.012	0.0149314
985.090	0.0149619
985.168	0.0149162
985.246	0.0149269
985.325	0.0147875
985.403	0.0149664
985.481	0.0150278
985.559	0.0149825
985.637	0.0151234
985.715	0.0149967
985.793	0.0149660
985.871	0.0149829
985.950	0.0150478
986.028	0.0151134
986.106	0.0149998
986.184	0.0150019
986.262	0.0150274
986.340	0.0148028
986.418	0.0149473
986.496	0.0149953
986.575	0.0149237
986.653	0.0148497
986.731	0.0149757
986.809	0.0149467
986.887	0.0148430
986.965	0.0147979
987.043	0.0148524
987.121	0.0149033
987.200	0.0147614
987.278	0.0149129
987.356	0.0150710
987.434	0.0147966
987.512	0.0148663
987.590	0.0150031
987.668	0.0149610
987.746	0.0149406
987.825	0.0150511
987.903	0.0150597
987.981	0.0149302
988.059	0.0148756
988.137	0.0149894
988.215	0.0150459
988.293	0.0150176
988.371	0.0149159
988.450	0.0150326
988.528	0.0150584
988.606	0.0149816
988.684	0.0150854
988.762	0.0151198
988.840	0.0150626
988.918	0.0150283
988.996	0.0149644
989.075	0.0149566
989.153	0.0149039
989.231	0.0148563
989.309	0.0147739
989.387	0.0148972
989.465	0.0148228
989.543	0.0149149
989.621	0.0150023
989.700	0.0149753
989.778	0.0147505
989.856	0.0148666
989.934	0.0149644
990.012	0.0148206
990.090	0.0149085
990.168	0.0148950
990.246	0.0147898
990.325	0.0147484
990.403	0.0147929
990.481	0.0148516
990.559	0.0148249
990.637	0.0151003
990.715	0.0149410
990.793	0.0149892
990.871	0.0149545
990.950	0.0149915
991.028	0.0151161
991.106	0.0148865
991.184	0.0148757
991.262	0.0149047
991.340	0.0150491
991.418	0.0150794
991.496	0.0150108
991.575	0.0149739
991.653	0.0149585
991.731	0.0150219
991.809	0.0148750
991.887	0.0148612
991.965	0.0150317
992.043	0.0149666
992.121	0.0148785
992.200	0.0149097
992.278	0.0149731
992.356	0.0148756
992.434	0.0147329
992.512	0.0149400
992.590	0.0148914
992.668	0.0148160
992.746	0.0148444
992.825	0.0148568
992.903	0.0149732
992.981	0.0150011
993.059	0.0149179
993.137	0.0148271
993.215	0.0149398
993.293	0.0149784
993.371	0.0149973
993.450	0.0151315
993.528	0.0151405
993.606	0.0151424
993.684	0.0151171
993.762	0.0151521
993.840	0.0150679
993.918	0.0151641
993.996	0.0151670
994.075	0.0150454
994.153	0.0150781
994.231	0.0150355
994.309	0.0150237
994.387	0.0149377
994.465	0.0150457
994.543	0.0149206
994.621	0.0148414
994.700	0.0146231
994.778	0.0148125
994.856	0.0147905
994.934	0.0147478
995.012	0.0147395
995.090	0.0147678
995.168	0.0146645
995.246	0.0146531
995.325	0.0147130
995.403	0.0147211
995.481	0.0146748
995.559	0.0146020
995.637	0.0147262
995.715	0.0147568
995.793	0.0147611
995.871	0.0146745
995.950	0.0147208
996.028	0.0149355
996.106	0.0149757
996.184	0.0149211
996.262	0.0149209
996.340	0.0149015
996.418	0.0149825
996.496	0.0149931
996.575	0.0149680
996.653	0.0150232
996.731	0.0149107
996.809	0.0150317
996.887	0.0150067
996.965	0.0150095
997.043	0.0149248
997.121	0.0150426
997.200	0.0149975
997.278	0.0150145
997.356	0.0149517
997.434	0.0148256
997.512	0.0148779
997.590	0.0148830
997.668	0.0147021
997.746	0.0146923
997.825	0.0146877
997.903	0.0147018
997.981	0.0147057
998.059	0.0145740
998.137	0.0144521
998.215	0.0146947
998.293	0.0147643
998.371	0.0147845
998.450	0.0147358
998.528	0.0147723
998.606	0.0147325
998.684	0.0148147
998.762	0.0148918
998.840	0.0150175
998.918	0.0148647
