05/04/2022	21:26:33	Ver.	4.1	UNKNOWN
Optical Delay	678.996401	Delta X		0.078125	Sweeps	1	Scan Rate	0/0
Coordinates	Axis 1	NaN	Axis 2	NaN	Axis 3	NaN	Axis 4	NaN	Axis 5	NaN	Axis 6	0.000000
TX Power	0.000000	RX Power	0.000000

678.996	0.0145709
679.075	0.0143804
679.153	0.0146000
679.231	0.0144833
679.309	0.0145321
679.387	0.0143990
679.465	0.0145885
679.543	0.0145453
679.621	0.0144026
679.700	0.0145843
679.778	0.0146438
679.856	0.0145754
679.934	0.0145975
680.012	0.0145824
680.090	0.0147812
680.168	0.0147764
680.246	0.0147050
680.325	0.0146918
680.403	0.0146756
680.481	0.0146809
680.559	0.0146169
680.637	0.0147766
680.715	0.0146130
680.793	0.0146943
680.871	0.0146216
680.950	0.0145973
681.028	0.0146862
681.106	0.0146199
681.184	0.0146809
681.262	0.0148062
681.340	0.0147786
681.418	0.0146921
681.496	0.0146970
681.575	0.0145870
681.653	0.0146922
681.731	0.0146312
681.809	0.0146399
681.887	0.0145961
681.965	0.0146100
682.043	0.0145287
682.121	0.0146037
682.200	0.0146622
682.278	0.0145889
682.356	0.0146371
682.434	0.0146131
682.512	0.0145697
682.590	0.0145946
682.668	0.0147135
682.746	0.0147575
682.825	0.0148625
682.903	0.0147537
682.981	0.0148051
683.059	0.0147678
683.137	0.0147475
683.215	0.0146949
683.293	0.0148196
683.371	0.0147363
683.450	0.0146121
683.528	0.0146101
683.606	0.0146420
683.684	0.0146671
683.762	0.0144975
683.840	0.0147540
683.918	0.0146840
683.996	0.0146122
684.075	0.0145963
684.153	0.0146827
684.231	0.0145656
684.309	0.0146039
684.387	0.0145963
684.465	0.0146688
684.543	0.0147096
684.621	0.0146340
684.700	0.0145819
684.778	0.0145210
684.856	0.0145451
684.934	0.0145470
685.012	0.0145788
685.090	0.0145733
685.168	0.0145572
685.246	0.0146195
685.325	0.0146054
685.403	0.0147977
685.481	0.0146510
685.559	0.0146058
685.637	0.0145815
685.715	0.0146680
685.793	0.0147421
685.871	0.0147167
685.950	0.0145998
686.028	0.0146297
686.106	0.0146255
686.184	0.0145863
686.262	0.0146667
686.340	0.0146844
686.418	0.0146885
686.496	0.0146544
686.575	0.0145213
686.653	0.0145300
686.731	0.0145116
686.809	0.0146872
686.887	0.0146275
686.965	0.0145609
687.043	0.0147318
687.121	0.0147009
687.200	0.0146794
687.278	0.0145206
687.356	0.0146004
687.434	0.0147086
687.512	0.0146775
687.590	0.0146218
687.668	0.0146066
687.746	0.0144633
687.825	0.0144632
687.903	0.0144823
687.981	0.0145535
688.059	0.0146355
688.137	0.0144229
688.215	0.0145733
688.293	0.0146274
688.371	0.0147553
688.450	0.0146548
688.528	0.0146529
688.606	0.0148647
688.684	0.0147773
688.762	0.0149031
688.840	0.0147963
688.918	0.0147325
688.996	0.0147392
689.075	0.0147272
689.153	0.0145914
689.231	0.0146014
689.309	0.0147204
689.387	0.0145160
689.465	0.0144916
689.543	0.0144601
689.621	0.0143294
689.700	0.0143273
689.778	0.0144374
689.856	0.0142992
689.934	0.0144353
690.012	0.0143497
690.090	0.0144127
690.168	0.0145661
690.246	0.0146475
690.325	0.0146947
690.403	0.0146227
690.481	0.0147476
690.559	0.0148846
690.637	0.0147759
690.715	0.0149836
690.793	0.0150974
690.871	0.0149767
690.950	0.0148658
691.028	0.0147774
691.106	0.0148700
691.184	0.0147777
691.262	0.0146077
691.340	0.0146104
691.418	0.0145575
691.496	0.0143559
691.575	0.0142356
691.653	0.0140651
691.731	0.0140142
691.809	0.0140051
691.887	0.0140915
691.965	0.0142223
692.043	0.0141340
692.121	0.0141726
692.200	0.0143398
692.278	0.0143768
692.356	0.0144279
692.434	0.0146066
692.512	0.0146796
692.590	0.0148138
692.668	0.0148810
692.746	0.0149945
692.825	0.0150766
692.903	0.0150764
692.981	0.0151125
693.059	0.0151057
693.137	0.0151599
693.215	0.0150861
693.293	0.0150936
693.371	0.0148428
693.450	0.0148267
693.528	0.0147086
693.606	0.0145899
693.684	0.0146461
693.762	0.0142754
693.840	0.0141471
693.918	0.0140250
693.996	0.0138519
694.075	0.0138347
694.153	0.0139498
694.231	0.0140691
694.309	0.0138565
694.387	0.0138836
694.465	0.0142426
694.543	0.0142219
694.621	0.0143295
694.700	0.0145742
694.778	0.0146751
694.856	0.0148026
694.934	0.0148964
695.012	0.0150732
695.090	0.0152380
695.168	0.0154350
695.246	0.0155160
695.325	0.0154948
695.403	0.0156065
695.481	0.0156563
695.559	0.0154414
695.637	0.0151627
695.715	0.0150279
695.793	0.0147501
695.871	0.0144317
695.950	0.0142902
696.028	0.0139575
696.106	0.0139451
696.184	0.0137572
696.262	0.0136562
696.340	0.0137602
696.418	0.0136147
696.496	0.0136996
696.575	0.0140115
696.653	0.0139355
696.731	0.0140424
696.809	0.0140417
696.887	0.0142867
696.965	0.0145486
697.043	0.0146873
697.121	0.0148857
697.200	0.0150826
697.278	0.0153904
697.356	0.0153856
697.434	0.0154626
697.512	0.0153640
697.590	0.0153106
697.668	0.0151828
697.746	0.0151855
697.825	0.0149812
697.903	0.0148612
697.981	0.0147133
698.059	0.0145812
698.137	0.0144398
698.215	0.0143959
698.293	0.0144341
698.371	0.0141199
698.450	0.0141279
698.528	0.0142279
698.606	0.0140965
698.684	0.0142170
698.762	0.0143089
698.840	0.0142434
698.918	0.0143291
698.996	0.0144583
699.075	0.0145950
699.153	0.0146493
699.231	0.0147120
699.309	0.0146430
699.387	0.0148080
699.465	0.0147042
699.543	0.0149049
699.621	0.0149101
699.700	0.0148394
699.778	0.0147668
699.856	0.0147510
699.934	0.0146745
700.012	0.0146294
700.090	0.0144763
700.168	0.0144946
700.246	0.0144650
700.325	0.0144415
700.403	0.0144276
700.481	0.0144512
700.559	0.0144096
700.637	0.0142892
700.715	0.0143181
700.793	0.0144186
700.871	0.0145259
700.950	0.0145415
701.028	0.0144488
701.106	0.0145039
701.184	0.0146940
701.262	0.0147176
701.340	0.0146712
701.418	0.0147215
701.496	0.0148325
701.575	0.0149513
701.653	0.0149643
701.731	0.0147733
701.809	0.0149230
701.887	0.0150867
701.965	0.0148882
702.043	0.0148435
702.121	0.0148278
702.200	0.0146928
702.278	0.0146935
702.356	0.0146356
702.434	0.0143253
702.512	0.0143916
702.590	0.0143994
702.668	0.0142985
702.746	0.0144623
702.825	0.0144287
702.903	0.0145728
702.981	0.0147916
703.059	0.0148715
703.137	0.0149837
703.215	0.0149155
703.293	0.0149648
703.371	0.0149894
703.450	0.0149281
703.528	0.0147126
703.606	0.0148067
703.684	0.0147635
703.762	0.0147170
703.840	0.0144267
703.918	0.0143369
703.996	0.0144019
704.075	0.0144417
704.153	0.0143349
704.231	0.0143504
704.309	0.0143884
704.387	0.0143729
704.465	0.0145078
704.543	0.0145403
704.621	0.0145388
704.700	0.0145385
704.778	0.0147443
704.856	0.0148127
704.934	0.0147648
705.012	0.0147611
705.090	0.0149488
705.168	0.0150348
705.246	0.0150483
705.325	0.0150176
705.403	0.0150266
705.481	0.0148779
705.559	0.0150318
705.637	0.0149109
705.715	0.0148850
705.793	0.0148751
705.871	0.0151377
705.950	0.0148479
706.028	0.0147394
706.106	0.0147254
706.184	0.0148735
706.262	0.0147341
706.340	0.0144545
706.418	0.0143515
706.496	0.0142930
706.575	0.0141562
706.653	0.0140082
706.731	0.0138784
706.809	0.0139247
706.887	0.0138223
706.965	0.0139804
707.043	0.0141072
707.121	0.0144508
707.200	0.0147078
707.278	0.0148821
707.356	0.0152173
707.434	0.0151932
707.512	0.0154153
707.590	0.0154602
707.668	0.0154775
707.746	0.0153865
707.825	0.0154415
707.903	0.0152573
707.981	0.0152440
708.059	0.0149229
708.137	0.0145368
708.215	0.0143374
708.293	0.0141513
708.371	0.0138192
708.450	0.0138129
708.528	0.0137981
708.606	0.0137592
708.684	0.0136267
708.762	0.0137276
708.840	0.0137657
708.918	0.0139014
708.996	0.0140833
709.075	0.0143423
709.153	0.0144953
709.231	0.0148173
709.309	0.0150272
709.387	0.0151604
709.465	0.0153246
709.543	0.0155045
709.621	0.0154607
709.700	0.0156039
709.778	0.0155970
709.856	0.0154243
709.934	0.0153098
710.012	0.0151905
710.090	0.0149797
710.168	0.0148170
710.246	0.0147736
710.325	0.0144655
710.403	0.0144237
710.481	0.0144159
710.559	0.0141421
710.637	0.0140807
710.715	0.0140509
710.793	0.0139159
710.871	0.0138955
710.950	0.0140757
711.028	0.0140318
711.106	0.0141609
711.184	0.0141585
711.262	0.0142140
711.340	0.0143122
711.418	0.0144483
711.496	0.0142346
711.575	0.0144653
711.653	0.0144962
711.731	0.0145573
711.809	0.0145975
711.887	0.0146922
711.965	0.0148181
712.043	0.0148250
712.121	0.0148598
712.200	0.0148499
712.278	0.0150124
712.356	0.0151021
712.434	0.0151299
712.512	0.0149915
712.590	0.0147978
712.668	0.0147993
712.746	0.0146254
712.825	0.0146281
712.903	0.0144012
712.981	0.0144482
713.059	0.0143244
713.137	0.0141241
713.215	0.0138831
713.293	0.0138980
713.371	0.0139203
713.450	0.0142588
713.528	0.0141316
713.606	0.0141924
713.684	0.0142755
713.762	0.0144601
713.840	0.0145216
713.918	0.0148893
713.996	0.0149903
714.075	0.0149386
714.153	0.0150301
714.231	0.0151961
714.309	0.0153174
714.387	0.0151162
714.465	0.0151969
714.543	0.0151150
714.621	0.0149465
714.700	0.0147727
714.778	0.0147737
714.856	0.0145438
714.934	0.0143259
715.012	0.0142854
715.090	0.0140920
715.168	0.0137959
715.246	0.0139947
715.325	0.0138416
715.403	0.0140358
715.481	0.0140226
715.559	0.0143819
715.637	0.0146320
715.715	0.0146075
715.793	0.0147757
715.871	0.0150493
715.950	0.0152454
716.028	0.0152886
716.106	0.0152463
716.184	0.0152300
716.262	0.0152852
716.340	0.0151715
716.418	0.0151288
716.496	0.0149644
716.575	0.0148904
716.653	0.0147013
716.731	0.0145937
716.809	0.0144549
716.887	0.0142039
716.965	0.0140978
717.043	0.0142784
717.121	0.0141285
717.200	0.0141985
717.278	0.0142899
717.356	0.0142318
717.434	0.0143600
717.512	0.0142641
717.590	0.0144250
717.668	0.0145892
717.746	0.0146226
717.825	0.0146273
717.903	0.0145804
717.981	0.0148258
718.059	0.0148154
718.137	0.0149942
718.215	0.0149082
718.293	0.0148009
718.371	0.0147753
718.450	0.0148615
718.528	0.0150046
718.606	0.0148375
718.684	0.0147967
718.762	0.0146377
718.840	0.0146041
718.918	0.0145853
718.996	0.0146510
719.075	0.0147653
719.153	0.0146687
719.231	0.0146679
719.309	0.0146385
719.387	0.0144416
719.465	0.0145236
719.543	0.0144176
719.621	0.0143508
719.700	0.0143246
719.778	0.0143443
719.856	0.0143069
719.934	0.0141970
720.012	0.0142252
720.090	0.0143062
720.168	0.0144071
720.246	0.0143665
720.325	0.0143434
720.403	0.0144556
720.481	0.0144672
720.559	0.0146429
720.637	0.0146409
720.715	0.0148399
720.793	0.0148586
720.871	0.0148343
720.950	0.0148770
721.028	0.0150031
721.106	0.0150507
721.184	0.0151198
721.262	0.0148981
721.340	0.0149107
721.418	0.0149088
721.496	0.0148302
721.575	0.0148319
721.653	0.0149562
721.731	0.0147788
721.809	0.0146496
721.887	0.0145615
721.965	0.0146245
722.043	0.0147663
722.121	0.0147411
722.200	0.0144536
722.278	0.0145238
722.356	0.0145588
722.434	0.0145930
722.512	0.0144986
722.590	0.0143752
722.668	0.0143228
722.746	0.0143362
722.825	0.0143314
722.903	0.0141512
722.981	0.0143493
723.059	0.0144592
723.137	0.0144655
723.215	0.0144640
723.293	0.0145249
723.371	0.0145896
723.450	0.0147062
723.528	0.0147662
723.606	0.0149666
723.684	0.0148174
723.762	0.0149947
723.840	0.0150816
723.918	0.0150409
723.996	0.0152183
724.075	0.0152033
724.153	0.0152530
724.231	0.0150761
724.309	0.0149829
724.387	0.0149107
724.465	0.0148903
724.543	0.0149105
724.621	0.0147815
724.700	0.0147933
724.778	0.0146027
724.856	0.0146714
724.934	0.0145670
725.012	0.0144797
725.090	0.0143524
725.168	0.0142728
725.246	0.0143042
725.325	0.0143291
725.403	0.0143418
725.481	0.0142249
725.559	0.0143862
725.637	0.0143353
725.715	0.0143153
725.793	0.0143932
725.871	0.0146439
725.950	0.0145852
726.028	0.0146358
726.106	0.0148104
726.184	0.0148629
726.262	0.0149464
726.340	0.0149009
726.418	0.0150446
726.496	0.0148656
726.575	0.0149536
726.653	0.0149531
726.731	0.0149443
726.809	0.0149913
726.887	0.0149355
726.965	0.0148026
727.043	0.0146316
727.121	0.0147395
727.200	0.0144586
727.278	0.0145105
727.356	0.0145614
727.434	0.0146803
727.512	0.0144091
727.590	0.0145320
727.668	0.0145665
727.746	0.0145172
727.825	0.0145188
727.903	0.0145599
727.981	0.0145562
728.059	0.0146383
728.137	0.0146072
728.215	0.0146595
728.293	0.0148503
728.371	0.0149083
728.450	0.0147217
728.528	0.0148312
728.606	0.0147433
728.684	0.0148095
728.762	0.0148885
728.840	0.0148550
728.918	0.0147954
728.996	0.0149870
729.075	0.0149974
729.153	0.0148877
729.231	0.0149503
729.309	0.0148771
729.387	0.0148777
729.465	0.0147685
729.543	0.0148393
729.621	0.0146435
729.700	0.0145648
729.778	0.0145961
729.856	0.0144555
729.934	0.0144004
730.012	0.0144054
730.090	0.0143272
730.168	0.0143524
730.246	0.0143002
730.325	0.0142115
730.403	0.0141550
730.481	0.0142126
730.559	0.0142554
730.637	0.0143140
730.715	0.0143655
730.793	0.0142953
730.871	0.0144035
730.950	0.0144210
731.028	0.0145853
731.106	0.0145936
731.184	0.0146696
731.262	0.0147017
731.340	0.0147386
731.418	0.0148370
731.496	0.0147688
731.575	0.0148584
731.653	0.0148505
731.731	0.0147373
731.809	0.0146606
731.887	0.0148309
731.965	0.0147673
732.043	0.0147247
732.121	0.0147677
732.200	0.0146647
732.278	0.0146006
732.356	0.0146521
732.434	0.0144969
732.512	0.0145866
732.590	0.0146258
732.668	0.0144432
732.746	0.0144443
732.825	0.0144389
732.903	0.0144979
732.981	0.0145060
733.059	0.0145209
733.137	0.0145496
733.215	0.0145754
733.293	0.0146691
733.371	0.0146606
733.450	0.0147038
733.528	0.0146246
733.606	0.0145975
733.684	0.0147911
733.762	0.0146858
733.840	0.0146216
733.918	0.0146768
733.996	0.0146895
734.075	0.0145522
734.153	0.0144902
734.231	0.0144838
734.309	0.0146472
734.387	0.0143455
734.465	0.0145116
734.543	0.0145348
734.621	0.0142905
734.700	0.0143420
734.778	0.0144411
734.856	0.0143092
734.934	0.0141555
735.012	0.0143573
735.090	0.0144393
735.168	0.0143292
735.246	0.0144486
735.325	0.0144674
735.403	0.0146080
735.481	0.0146461
735.559	0.0147306
735.637	0.0147478
735.715	0.0148660
735.793	0.0148862
735.871	0.0149974
735.950	0.0150340
736.028	0.0148858
736.106	0.0149535
736.184	0.0149927
736.262	0.0149192
736.340	0.0149762
736.418	0.0149480
736.496	0.0148250
736.575	0.0147691
736.653	0.0147033
736.731	0.0147192
736.809	0.0146085
736.887	0.0145822
736.965	0.0144798
737.043	0.0144169
737.121	0.0144245
737.200	0.0143226
737.278	0.0144143
737.356	0.0144633
737.434	0.0143184
737.512	0.0143191
737.590	0.0143291
737.668	0.0144298
737.746	0.0143910
737.825	0.0143914
737.903	0.0145399
737.981	0.0145695
738.059	0.0146516
738.137	0.0145829
738.215	0.0146539
738.293	0.0147341
738.371	0.0148484
738.450	0.0148403
738.528	0.0149147
738.606	0.0148468
738.684	0.0146900
738.762	0.0148556
738.840	0.0149337
738.918	0.0147588
738.996	0.0148339
739.075	0.0148693
739.153	0.0147286
739.231	0.0145747
739.309	0.0145895
739.387	0.0143103
739.465	0.0145069
739.543	0.0145741
739.621	0.0143205
739.700	0.0144452
739.778	0.0142662
739.856	0.0142345
739.934	0.0145281
740.012	0.0145204
740.090	0.0145037
740.168	0.0144250
740.246	0.0145571
740.325	0.0146134
740.403	0.0144663
740.481	0.0145944
740.559	0.0145736
740.637	0.0148452
740.715	0.0149406
740.793	0.0148081
740.871	0.0148694
740.950	0.0147587
741.028	0.0147182
741.106	0.0148624
741.184	0.0148436
741.262	0.0147948
741.340	0.0146476
741.418	0.0147469
741.496	0.0146538
741.575	0.0147375
741.653	0.0145982
741.731	0.0145863
741.809	0.0145498
741.887	0.0144014
741.965	0.0145857
742.043	0.0145791
742.121	0.0146196
742.200	0.0145773
742.278	0.0145617
742.356	0.0144694
742.434	0.0146344
742.512	0.0144461
742.590	0.0144566
742.668	0.0144602
742.746	0.0145499
742.825	0.0144842
742.903	0.0144486
742.981	0.0145069
743.059	0.0145106
743.137	0.0145458
743.215	0.0146352
743.293	0.0145449
743.371	0.0146754
743.450	0.0147045
743.528	0.0146656
743.606	0.0146024
743.684	0.0148763
743.762	0.0148145
743.840	0.0146631
743.918	0.0148141
743.996	0.0146617
744.075	0.0147260
744.153	0.0147093
744.231	0.0146793
744.309	0.0145093
744.387	0.0145760
744.465	0.0147353
744.543	0.0145196
744.621	0.0145024
744.700	0.0146229
744.778	0.0146331
744.856	0.0145655
744.934	0.0145154
745.012	0.0145888
745.090	0.0145218
745.168	0.0145868
745.246	0.0146415
745.325	0.0146289
745.403	0.0146262
745.481	0.0147287
745.559	0.0146838
745.637	0.0147144
745.715	0.0148555
745.793	0.0148137
745.871	0.0148089
745.950	0.0148176
746.028	0.0148898
746.106	0.0148273
746.184	0.0147455
746.262	0.0146801
746.340	0.0147787
746.418	0.0148599
746.496	0.0145996
746.575	0.0147426
746.653	0.0146494
746.731	0.0145599
746.809	0.0146646
746.887	0.0146011
746.965	0.0145776
747.043	0.0144587
747.121	0.0143906
747.200	0.0146146
747.278	0.0145768
747.356	0.0145147
747.434	0.0146230
747.512	0.0144810
747.590	0.0145554
747.668	0.0146361
747.746	0.0146840
747.825	0.0146365
747.903	0.0145583
747.981	0.0146770
748.059	0.0147054
748.137	0.0146639
748.215	0.0146387
748.293	0.0148334
748.371	0.0145719
748.450	0.0147855
748.528	0.0148058
748.606	0.0146711
748.684	0.0147861
748.762	0.0147762
748.840	0.0147028
748.918	0.0146860
748.996	0.0148215
749.075	0.0146204
749.153	0.0146960
749.231	0.0147741
749.309	0.0147534
749.387	0.0146937
749.465	0.0146812
749.543	0.0145657
749.621	0.0147444
749.700	0.0147121
749.778	0.0146538
749.856	0.0146918
749.934	0.0146513
750.012	0.0147177
750.090	0.0145992
750.168	0.0146063
750.246	0.0145890
750.325	0.0144073
750.403	0.0147085
750.481	0.0146825
750.559	0.0145216
750.637	0.0144740
750.715	0.0145724
750.793	0.0145840
750.871	0.0145862
750.950	0.0145615
751.028	0.0145375
751.106	0.0145218
751.184	0.0146346
751.262	0.0145779
751.340	0.0145713
751.418	0.0146719
751.496	0.0147283
751.575	0.0147477
751.653	0.0144733
751.731	0.0146349
751.809	0.0146907
751.887	0.0145925
751.965	0.0145925
752.043	0.0146465
752.121	0.0146394
752.200	0.0145760
752.278	0.0145821
752.356	0.0146597
752.434	0.0147904
752.512	0.0145058
752.590	0.0145099
752.668	0.0145069
752.746	0.0146026
752.825	0.0146717
752.903	0.0146312
752.981	0.0146682
753.059	0.0146671
753.137	0.0148325
753.215	0.0147975
753.293	0.0146980
753.371	0.0146887
753.450	0.0146891
753.528	0.0147337
753.606	0.0147365
753.684	0.0145985
753.762	0.0146922
753.840	0.0146144
753.918	0.0147267
753.996	0.0147780
754.075	0.0147227
754.153	0.0147446
754.231	0.0146356
754.309	0.0145497
754.387	0.0146626
754.465	0.0145937
754.543	0.0143748
754.621	0.0144861
754.700	0.0144905
754.778	0.0144781
754.856	0.0143755
754.934	0.0144764
755.012	0.0143731
755.090	0.0144641
755.168	0.0143055
755.246	0.0145131
755.325	0.0144475
755.403	0.0145145
755.481	0.0144380
755.559	0.0144478
755.637	0.0144572
755.715	0.0144790
755.793	0.0145409
755.871	0.0147136
755.950	0.0146803
756.028	0.0144714
756.106	0.0146807
756.184	0.0148008
756.262	0.0146232
756.340	0.0146464
756.418	0.0147292
756.496	0.0147176
756.575	0.0147441
756.653	0.0146702
756.731	0.0147350
756.809	0.0146681
756.887	0.0147112
756.965	0.0147225
757.043	0.0147309
757.121	0.0144788
757.200	0.0147289
757.278	0.0147124
757.356	0.0146024
757.434	0.0147123
757.512	0.0146465
757.590	0.0147012
757.668	0.0145647
757.746	0.0144337
757.825	0.0145890
757.903	0.0145670
757.981	0.0146320
758.059	0.0144541
758.137	0.0145443
758.215	0.0145576
758.293	0.0144085
758.371	0.0145404
758.450	0.0145821
758.528	0.0144760
758.606	0.0146818
758.684	0.0145622
758.762	0.0145592
758.840	0.0146224
758.918	0.0145235
758.996	0.0144630
759.075	0.0146857
759.153	0.0146017
759.231	0.0144419
759.309	0.0145582
759.387	0.0145370
759.465	0.0145468
759.543	0.0146728
759.621	0.0146553
759.700	0.0146033
759.778	0.0144614
759.856	0.0146243
759.934	0.0144272
760.012	0.0144283
760.090	0.0144885
760.168	0.0144647
760.246	0.0144361
760.325	0.0144804
760.403	0.0144122
760.481	0.0146745
760.559	0.0145591
760.637	0.0145300
760.715	0.0145413
760.793	0.0144808
760.871	0.0145423
760.950	0.0145950
761.028	0.0146581
761.106	0.0147311
761.184	0.0148006
761.262	0.0148048
761.340	0.0147736
761.418	0.0147611
761.496	0.0147128
761.575	0.0147903
761.653	0.0147659
761.731	0.0147790
761.809	0.0147303
761.887	0.0146445
761.965	0.0146262
762.043	0.0147355
762.121	0.0146965
762.200	0.0146339
762.278	0.0144936
762.356	0.0146898
762.434	0.0146799
762.512	0.0145994
762.590	0.0145177
762.668	0.0145622
762.746	0.0145889
762.825	0.0145071
762.903	0.0145360
762.981	0.0145901
763.059	0.0146210
763.137	0.0147189
763.215	0.0145892
763.293	0.0144875
763.371	0.0147175
763.450	0.0146023
763.528	0.0146228
763.606	0.0144921
763.684	0.0146311
763.762	0.0147610
763.840	0.0147146
763.918	0.0148056
763.996	0.0147911
764.075	0.0147395
764.153	0.0148071
764.231	0.0147211
764.309	0.0147001
764.387	0.0148180
764.465	0.0147633
764.543	0.0145940
764.621	0.0146250
764.700	0.0147037
764.778	0.0146111
764.856	0.0146017
764.934	0.0146104
765.012	0.0144983
765.090	0.0145824
765.168	0.0145432
765.246	0.0145623
765.325	0.0146507
765.403	0.0146636
765.481	0.0146187
765.559	0.0146182
765.637	0.0146230
765.715	0.0146594
765.793	0.0147195
765.871	0.0146641
765.950	0.0145908
766.028	0.0147475
766.106	0.0146836
766.184	0.0147745
766.262	0.0147066
766.340	0.0147280
766.418	0.0147334
766.496	0.0148808
766.575	0.0147813
766.653	0.0145818
766.731	0.0146614
766.809	0.0145960
766.887	0.0146624
766.965	0.0147186
767.043	0.0147282
767.121	0.0146033
767.200	0.0146815
767.278	0.0146122
767.356	0.0146267
767.434	0.0146178
767.512	0.0146812
767.590	0.0147871
767.668	0.0145502
767.746	0.0145975
767.825	0.0145488
767.903	0.0146238
767.981	0.0146061
768.059	0.0146244
768.137	0.0146275
768.215	0.0145800
768.293	0.0145317
768.371	0.0146002
768.450	0.0145086
768.528	0.0145131
768.606	0.0146593
768.684	0.0144979
768.762	0.0146468
768.840	0.0145260
768.918	0.0145504
768.996	0.0146547
769.075	0.0145148
769.153	0.0145812
769.231	0.0145343
769.309	0.0145412
769.387	0.0145959
769.465	0.0145579
769.543	0.0146127
769.621	0.0146835
769.700	0.0146745
769.778	0.0147119
769.856	0.0145791
769.934	0.0146336
770.012	0.0146881
770.090	0.0146567
770.168	0.0145719
770.246	0.0146332
770.325	0.0147039
770.403	0.0146856
770.481	0.0146220
770.559	0.0146841
770.637	0.0146262
770.715	0.0146043
770.793	0.0145686
770.871	0.0147096
770.950	0.0147684
771.028	0.0146698
771.106	0.0144753
771.184	0.0149383
771.262	0.0148174
771.340	0.0145813
771.418	0.0147347
771.496	0.0148001
771.575	0.0147098
771.653	0.0148147
771.731	0.0147131
771.809	0.0147390
771.887	0.0146826
771.965	0.0147600
772.043	0.0147580
772.121	0.0148326
772.200	0.0148221
772.278	0.0146684
772.356	0.0146606
772.434	0.0147323
772.512	0.0146566
772.590	0.0146710
772.668	0.0146272
772.746	0.0145045
772.825	0.0145866
772.903	0.0145749
772.981	0.0145691
773.059	0.0145657
773.137	0.0145402
773.215	0.0144967
773.293	0.0145502
773.371	0.0146000
773.450	0.0146098
773.528	0.0145229
773.606	0.0145102
773.684	0.0145411
773.762	0.0146297
773.840	0.0145272
773.918	0.0145100
773.996	0.0144879
774.075	0.0146867
774.153	0.0146038
774.231	0.0145826
774.309	0.0147115
774.387	0.0145572
774.465	0.0146774
774.543	0.0145473
774.621	0.0146620
774.700	0.0146320
774.778	0.0146447
774.856	0.0145071
774.934	0.0145482
775.012	0.0145168
775.090	0.0145320
775.168	0.0143993
775.246	0.0144334
775.325	0.0144797
775.403	0.0145002
775.481	0.0145717
775.559	0.0145327
775.637	0.0143907
775.715	0.0145087
775.793	0.0144830
775.871	0.0144402
775.950	0.0144734
776.028	0.0144986
776.106	0.0145266
776.184	0.0145690
776.262	0.0147301
776.340	0.0147174
776.418	0.0145520
776.496	0.0145772
776.575	0.0145921
776.653	0.0145313
776.731	0.0144938
776.809	0.0145097
776.887	0.0144105
776.965	0.0145712
777.043	0.0144323
777.121	0.0144770
777.200	0.0143761
777.278	0.0144041
777.356	0.0144888
777.434	0.0144281
777.512	0.0143295
777.590	0.0145634
777.668	0.0146354
777.746	0.0145507
777.825	0.0144207
777.903	0.0144371
777.981	0.0145000
778.059	0.0145039
778.137	0.0146130
778.215	0.0147019
778.293	0.0146601
778.371	0.0145131
778.450	0.0143603
778.528	0.0146185
778.606	0.0145159
778.684	0.0145640
778.762	0.0146030
778.840	0.0145358
778.918	0.0145615
778.996	0.0146475
779.075	0.0144324
779.153	0.0144671
779.231	0.0146679
779.309	0.0146810
779.387	0.0145795
779.465	0.0147493
779.543	0.0147082
779.621	0.0145047
779.700	0.0145717
779.778	0.0146148
779.856	0.0146441
779.934	0.0148167
780.012	0.0147926
780.090	0.0146478
780.168	0.0147583
780.246	0.0146603
780.325	0.0146586
780.403	0.0147900
780.481	0.0144853
780.559	0.0146812
780.637	0.0146670
780.715	0.0145881
780.793	0.0146210
780.871	0.0146055
780.950	0.0144820
781.028	0.0145842
781.106	0.0146262
781.184	0.0144643
781.262	0.0145746
781.340	0.0145399
781.418	0.0145179
781.496	0.0144951
781.575	0.0145150
781.653	0.0147382
781.731	0.0146716
781.809	0.0145454
781.887	0.0147012
781.965	0.0145242
782.043	0.0146707
782.121	0.0145969
782.200	0.0147982
782.278	0.0146503
782.356	0.0145566
782.434	0.0145484
782.512	0.0146774
782.590	0.0144942
782.668	0.0144525
782.746	0.0145252
782.825	0.0144850
782.903	0.0146757
782.981	0.0147176
783.059	0.0145467
783.137	0.0145898
783.215	0.0145890
783.293	0.0145036
783.371	0.0145032
783.450	0.0146268
783.528	0.0146341
783.606	0.0148162
783.684	0.0146805
783.762	0.0146170
783.840	0.0147462
783.918	0.0146960
783.996	0.0146139
784.075	0.0147430
784.153	0.0145845
784.231	0.0146909
784.309	0.0146013
784.387	0.0146573
784.465	0.0146108
784.543	0.0146249
784.621	0.0145419
784.700	0.0147395
784.778	0.0146542
784.856	0.0146389
784.934	0.0145828
785.012	0.0145947
785.090	0.0145844
785.168	0.0146178
785.246	0.0145900
785.325	0.0147059
785.403	0.0146021
785.481	0.0144629
785.559	0.0145940
785.637	0.0146270
785.715	0.0145511
785.793	0.0146725
785.871	0.0146760
785.950	0.0146155
786.028	0.0146533
786.106	0.0144998
786.184	0.0147836
786.262	0.0147107
786.340	0.0146863
786.418	0.0146374
786.496	0.0146883
786.575	0.0146302
786.653	0.0146908
786.731	0.0145727
786.809	0.0145774
786.887	0.0146883
786.965	0.0147115
787.043	0.0145193
787.121	0.0145660
787.200	0.0145732
787.278	0.0146437
787.356	0.0145885
787.434	0.0145810
787.512	0.0144945
787.590	0.0145107
787.668	0.0144668
787.746	0.0144465
787.825	0.0146622
787.903	0.0146129
787.981	0.0145441
788.059	0.0146084
788.137	0.0145658
788.215	0.0146336
788.293	0.0145848
788.371	0.0145204
788.450	0.0145385
788.528	0.0146139
788.606	0.0146252
788.684	0.0146999
788.762	0.0147536
788.840	0.0146211
788.918	0.0145869
788.996	0.0146513
789.075	0.0145106
789.153	0.0146555
789.231	0.0145744
789.309	0.0145832
789.387	0.0147377
789.465	0.0146291
789.543	0.0146007
789.621	0.0145135
789.700	0.0145122
789.778	0.0145119
789.856	0.0146189
789.934	0.0145309
790.012	0.0146042
790.090	0.0146814
790.168	0.0145768
790.246	0.0145918
790.325	0.0144260
790.403	0.0144186
790.481	0.0145993
790.559	0.0144118
790.637	0.0144811
790.715	0.0144923
790.793	0.0144107
790.871	0.0143897
790.950	0.0145099
791.028	0.0145667
791.106	0.0145551
791.184	0.0145320
791.262	0.0146057
791.340	0.0145750
791.418	0.0145477
791.496	0.0146259
791.575	0.0145448
791.653	0.0145659
791.731	0.0146140
791.809	0.0146741
791.887	0.0145995
791.965	0.0145126
792.043	0.0146012
792.121	0.0146739
792.200	0.0146272
792.278	0.0144823
792.356	0.0144554
792.434	0.0145815
792.512	0.0145009
792.590	0.0145917
792.668	0.0146406
792.746	0.0146842
792.825	0.0146480
792.903	0.0146763
792.981	0.0146804
793.059	0.0146088
793.137	0.0146466
793.215	0.0146713
793.293	0.0146933
793.371	0.0146615
793.450	0.0147041
793.528	0.0147388
793.606	0.0145923
793.684	0.0144257
793.762	0.0147050
793.840	0.0146841
793.918	0.0146286
793.996	0.0146289
794.075	0.0146809
794.153	0.0146505
794.231	0.0146353
794.309	0.0146934
794.387	0.0146638
794.465	0.0147128
794.543	0.0145641
794.621	0.0145776
794.700	0.0145776
794.778	0.0148521
794.856	0.0147627
794.934	0.0145934
795.012	0.0146616
795.090	0.0146272
795.168	0.0146214
795.246	0.0146826
795.325	0.0145931
795.403	0.0145856
795.481	0.0146264
795.559	0.0146683
795.637	0.0147133
795.715	0.0144878
795.793	0.0146369
795.871	0.0145609
795.950	0.0145510
796.028	0.0144720
796.106	0.0144417
796.184	0.0146477
796.262	0.0145673
796.340	0.0145531
796.418	0.0144910
796.496	0.0146271
796.575	0.0146154
796.653	0.0145445
796.731	0.0146069
796.809	0.0145366
796.887	0.0146391
796.965	0.0146049
797.043	0.0145651
797.121	0.0145618
797.200	0.0145958
797.278	0.0146594
797.356	0.0147211
797.434	0.0145968
797.512	0.0146330
797.590	0.0146967
797.668	0.0146542
797.746	0.0145101
797.825	0.0146941
797.903	0.0146957
797.981	0.0146189
798.059	0.0147225
798.137	0.0147942
798.215	0.0147317
798.293	0.0146703
798.371	0.0147455
798.450	0.0146640
798.528	0.0146824
798.606	0.0145338
798.684	0.0146600
798.762	0.0145722
798.840	0.0144569
798.918	0.0145524
798.996	0.0144730
799.075	0.0146103
799.153	0.0146555
799.231	0.0146516
799.309	0.0144975
799.387	0.0146176
799.465	0.0146845
799.543	0.0145930
799.621	0.0146268
799.700	0.0146510
799.778	0.0145158
799.856	0.0144231
799.934	0.0146428
800.012	0.0146251
800.090	0.0146609
800.168	0.0147025
800.246	0.0147256
800.325	0.0145705
800.403	0.0145734
800.481	0.0145937
800.559	0.0147093
800.637	0.0145895
800.715	0.0145604
800.793	0.0146783
800.871	0.0146404
800.950	0.0146986
801.028	0.0145705
801.106	0.0146621
801.184	0.0147118
801.262	0.0145961
801.340	0.0146225
801.418	0.0146954
801.496	0.0146358
801.575	0.0147396
801.653	0.0146634
801.731	0.0145525
801.809	0.0146823
801.887	0.0146270
801.965	0.0146761
802.043	0.0146271
802.121	0.0146725
802.200	0.0146617
802.278	0.0145959
802.356	0.0146690
802.434	0.0145502
802.512	0.0147304
802.590	0.0146052
802.668	0.0146899
802.746	0.0147081
802.825	0.0147183
802.903	0.0145731
802.981	0.0145803
803.059	0.0146590
803.137	0.0146638
803.215	0.0147009
803.293	0.0146890
803.371	0.0146183
803.450	0.0146125
803.528	0.0144878
803.606	0.0147203
803.684	0.0146170
803.762	0.0146513
803.840	0.0145669
803.918	0.0145303
803.996	0.0147170
804.075	0.0147269
804.153	0.0146571
804.231	0.0145383
804.309	0.0146295
804.387	0.0146046
804.465	0.0146252
804.543	0.0145233
804.621	0.0145386
804.700	0.0145790
804.778	0.0145085
804.856	0.0145238
804.934	0.0145016
805.012	0.0146117
805.090	0.0146971
805.168	0.0146950
805.246	0.0146173
805.325	0.0145258
805.403	0.0147556
805.481	0.0145665
805.559	0.0146942
805.637	0.0147101
805.715	0.0145906
805.793	0.0146574
805.871	0.0145938
805.950	0.0146577
806.028	0.0147823
806.106	0.0146049
806.184	0.0145473
806.262	0.0145832
806.340	0.0146853
806.418	0.0145775
806.496	0.0145341
806.575	0.0144830
806.653	0.0145280
806.731	0.0145143
806.809	0.0145407
806.887	0.0146308
806.965	0.0146316
807.043	0.0145114
807.121	0.0145609
807.200	0.0145419
807.278	0.0145009
807.356	0.0143829
807.434	0.0144459
807.512	0.0145081
807.590	0.0145556
807.668	0.0145312
807.746	0.0145949
807.825	0.0145654
807.903	0.0146697
807.981	0.0145511
808.059	0.0146308
808.137	0.0145557
808.215	0.0145399
808.293	0.0146115
808.371	0.0145586
808.450	0.0145826
808.528	0.0145422
808.606	0.0145419
808.684	0.0145793
808.762	0.0145698
808.840	0.0146394
808.918	0.0145605
808.996	0.0145521
809.075	0.0145860
809.153	0.0145552
809.231	0.0144895
809.309	0.0144496
809.387	0.0145149
809.465	0.0146185
809.543	0.0145565
809.621	0.0144600
809.700	0.0145501
809.778	0.0145360
809.856	0.0145132
809.934	0.0146477
810.012	0.0143596
810.090	0.0145641
810.168	0.0146053
810.246	0.0145623
810.325	0.0145734
810.403	0.0146342
810.481	0.0146006
810.559	0.0146262
810.637	0.0145918
810.715	0.0145720
810.793	0.0146355
810.871	0.0146139
810.950	0.0144943
811.028	0.0144489
811.106	0.0146996
811.184	0.0145310
811.262	0.0146621
811.340	0.0144641
811.418	0.0145182
811.496	0.0146439
811.575	0.0145274
811.653	0.0145640
811.731	0.0145493
811.809	0.0144641
811.887	0.0144329
811.965	0.0144720
812.043	0.0144703
812.121	0.0144585
812.200	0.0144022
812.278	0.0143865
812.356	0.0144858
812.434	0.0143565
812.512	0.0143806
812.590	0.0145311
812.668	0.0145408
812.746	0.0144899
812.825	0.0145358
812.903	0.0144279
812.981	0.0144953
813.059	0.0145574
813.137	0.0147042
813.215	0.0144329
813.293	0.0145335
813.371	0.0144836
813.450	0.0145242
813.528	0.0144449
813.606	0.0147699
813.684	0.0147474
813.762	0.0146373
813.840	0.0145605
813.918	0.0147993
813.996	0.0145078
814.075	0.0146016
814.153	0.0144197
814.231	0.0146499
814.309	0.0146741
814.387	0.0146082
814.465	0.0145176
814.543	0.0145911
814.621	0.0146292
814.700	0.0145728
814.778	0.0144632
814.856	0.0145617
814.934	0.0146496
815.012	0.0146546
815.090	0.0144608
815.168	0.0144169
815.246	0.0145216
815.325	0.0145659
815.403	0.0145471
815.481	0.0144575
815.559	0.0146781
815.637	0.0147086
815.715	0.0145612
815.793	0.0145096
815.871	0.0146478
815.950	0.0146854
816.028	0.0146398
816.106	0.0146590
816.184	0.0146822
816.262	0.0145734
816.340	0.0145129
816.418	0.0145891
816.496	0.0145974
816.575	0.0146574
816.653	0.0145667
816.731	0.0146294
816.809	0.0145828
816.887	0.0144991
816.965	0.0144592
817.043	0.0143963
817.121	0.0145213
817.200	0.0146319
817.278	0.0146776
817.356	0.0145885
817.434	0.0145770
817.512	0.0145734
817.590	0.0146256
817.668	0.0145570
817.746	0.0146593
817.825	0.0146111
817.903	0.0146806
817.981	0.0147608
818.059	0.0146064
818.137	0.0145847
818.215	0.0146806
818.293	0.0146500
818.371	0.0145570
818.450	0.0146127
818.528	0.0147321
818.606	0.0146762
818.684	0.0147849
818.762	0.0147240
818.840	0.0147258
818.918	0.0146524
818.996	0.0146657
819.075	0.0146043
819.153	0.0146246
819.231	0.0145496
819.309	0.0146281
819.387	0.0147574
819.465	0.0145937
819.543	0.0146761
819.621	0.0146671
819.700	0.0146207
819.778	0.0145877
819.856	0.0144476
819.934	0.0147662
820.012	0.0146410
820.090	0.0144918
820.168	0.0146916
820.246	0.0146052
820.325	0.0146236
820.403	0.0145684
820.481	0.0146908
820.559	0.0146477
820.637	0.0146317
820.715	0.0146944
820.793	0.0146803
820.871	0.0145950
820.950	0.0145552
821.028	0.0147256
821.106	0.0146432
821.184	0.0146030
821.262	0.0145262
821.340	0.0146294
821.418	0.0146013
821.496	0.0146571
821.575	0.0146973
821.653	0.0145484
821.731	0.0145977
821.809	0.0147078
821.887	0.0147128
821.965	0.0145940
822.043	0.0145479
822.121	0.0146354
822.200	0.0146304
822.278	0.0146277
822.356	0.0146716
822.434	0.0146550
822.512	0.0146812
822.590	0.0145477
822.668	0.0145992
822.746	0.0146694
822.825	0.0147059
822.903	0.0146604
822.981	0.0146397
823.059	0.0146101
823.137	0.0147712
823.215	0.0146856
823.293	0.0145851
823.371	0.0146819
823.450	0.0145773
823.528	0.0147318
823.606	0.0147495
823.684	0.0144849
823.762	0.0145896
823.840	0.0146414
823.918	0.0145962
823.996	0.0146168
824.075	0.0146017
824.153	0.0147106
824.231	0.0146231
824.309	0.0147723
824.387	0.0146296
824.465	0.0146972
824.543	0.0146513
824.621	0.0146041
824.700	0.0146740
824.778	0.0148037
824.856	0.0146998
824.934	0.0146680
825.012	0.0146284
825.090	0.0147445
825.168	0.0146219
825.246	0.0146869
825.325	0.0144991
825.403	0.0146468
825.481	0.0144812
825.559	0.0147020
825.637	0.0147189
825.715	0.0145180
825.793	0.0145410
825.871	0.0145947
825.950	0.0143974
826.028	0.0143857
826.106	0.0146474
826.184	0.0147578
826.262	0.0146294
826.340	0.0146549
826.418	0.0147434
826.496	0.0147084
826.575	0.0145479
826.653	0.0147270
826.731	0.0145869
826.809	0.0144974
826.887	0.0145347
826.965	0.0146178
827.043	0.0147121
827.121	0.0146291
827.200	0.0145696
827.278	0.0147289
827.356	0.0146870
827.434	0.0146672
827.512	0.0146840
827.590	0.0146708
827.668	0.0145905
827.746	0.0145567
827.825	0.0147099
827.903	0.0145942
827.981	0.0145853
828.059	0.0146965
828.137	0.0146268
828.215	0.0147514
828.293	0.0145774
828.371	0.0145738
828.450	0.0145253
828.528	0.0146659
828.606	0.0147502
828.684	0.0147010
828.762	0.0146025
828.840	0.0146490
828.918	0.0146455
828.996	0.0147318
829.075	0.0145954
829.153	0.0145560
829.231	0.0145881
829.309	0.0146568
829.387	0.0147079
829.465	0.0146316
829.543	0.0146818
829.621	0.0144779
829.700	0.0145885
829.778	0.0146935
829.856	0.0146213
829.934	0.0145838
830.012	0.0146175
830.090	0.0144401
830.168	0.0145075
830.246	0.0146273
830.325	0.0144621
830.403	0.0145998
830.481	0.0145993
830.559	0.0146150
830.637	0.0145587
830.715	0.0145302
830.793	0.0145142
830.871	0.0143246
830.950	0.0145792
831.028	0.0145531
831.106	0.0146870
831.184	0.0145576
831.262	0.0145238
831.340	0.0145343
831.418	0.0146112
831.496	0.0145712
831.575	0.0147945
831.653	0.0145803
831.731	0.0145969
831.809	0.0146993
831.887	0.0146176
831.965	0.0146376
832.043	0.0145432
832.121	0.0146352
832.200	0.0146678
832.278	0.0147035
832.356	0.0145367
832.434	0.0144860
832.512	0.0146166
832.590	0.0146548
832.668	0.0145774
832.746	0.0146311
832.825	0.0144766
832.903	0.0145470
832.981	0.0146294
833.059	0.0145584
833.137	0.0146015
833.215	0.0145332
833.293	0.0145014
833.371	0.0146222
833.450	0.0144881
833.528	0.0143898
833.606	0.0145551
833.684	0.0145148
833.762	0.0145514
833.840	0.0145344
833.918	0.0145200
833.996	0.0144601
834.075	0.0144401
834.153	0.0144460
834.231	0.0144566
834.309	0.0145049
834.387	0.0145625
834.465	0.0143951
834.543	0.0144656
834.621	0.0146447
834.700	0.0144678
834.778	0.0145473
834.856	0.0146593
834.934	0.0145328
835.012	0.0144752
835.090	0.0146075
835.168	0.0145544
835.246	0.0145304
835.325	0.0145792
835.403	0.0146357
835.481	0.0144420
835.559	0.0144745
835.637	0.0145940
835.715	0.0144894
835.793	0.0144318
835.871	0.0144859
835.950	0.0145222
836.028	0.0143617
836.106	0.0143601
836.184	0.0144514
836.262	0.0144034
836.340	0.0145357
836.418	0.0144241
836.496	0.0144801
836.575	0.0145145
836.653	0.0144453
836.731	0.0146714
836.809	0.0146013
836.887	0.0145502
836.965	0.0145090
837.043	0.0145674
837.121	0.0146097
837.200	0.0145249
837.278	0.0146004
837.356	0.0143372
837.434	0.0143771
837.512	0.0144661
837.590	0.0144650
837.668	0.0145178
837.746	0.0144850
837.825	0.0144373
837.903	0.0143490
837.981	0.0144338
838.059	0.0142197
838.137	0.0144480
838.215	0.0144315
838.293	0.0144440
838.371	0.0142964
838.450	0.0143410
838.528	0.0143217
838.606	0.0145628
838.684	0.0145340
838.762	0.0144998
838.840	0.0144525
838.918	0.0145168
838.996	0.0146096
839.075	0.0146056
839.153	0.0144896
839.231	0.0145005
839.309	0.0146062
839.387	0.0144774
839.465	0.0144347
839.543	0.0145703
839.621	0.0146153
839.700	0.0145702
839.778	0.0146104
839.856	0.0146162
839.934	0.0146892
840.012	0.0145780
840.090	0.0144933
840.168	0.0145675
840.246	0.0145555
840.325	0.0145448
840.403	0.0145745
840.481	0.0146359
840.559	0.0144158
840.637	0.0145434
840.715	0.0144386
840.793	0.0145993
840.871	0.0144913
840.950	0.0145333
841.028	0.0145290
841.106	0.0145527
841.184	0.0146017
841.262	0.0145078
841.340	0.0143937
841.418	0.0146132
841.496	0.0145166
841.575	0.0144876
841.653	0.0144174
841.731	0.0146627
841.809	0.0145657
841.887	0.0144499
841.965	0.0146236
842.043	0.0146062
842.121	0.0145806
842.200	0.0145290
842.278	0.0145779
842.356	0.0144824
842.434	0.0145049
842.512	0.0145874
842.590	0.0147260
842.668	0.0146798
842.746	0.0146250
842.825	0.0145316
842.903	0.0145667
842.981	0.0145152
843.059	0.0146803
843.137	0.0145042
843.215	0.0144714
843.293	0.0146645
843.371	0.0145758
843.450	0.0145614
843.528	0.0145540
843.606	0.0145692
843.684	0.0145577
843.762	0.0144396
843.840	0.0144769
843.918	0.0145706
843.996	0.0144949
844.075	0.0146853
844.153	0.0145960
844.231	0.0144659
844.309	0.0146169
844.387	0.0144682
844.465	0.0146976
844.543	0.0147406
844.621	0.0145235
844.700	0.0145135
844.778	0.0147963
844.856	0.0146668
844.934	0.0146329
845.012	0.0147534
845.090	0.0146632
845.168	0.0146826
845.246	0.0146574
845.325	0.0146790
845.403	0.0146717
845.481	0.0147951
845.559	0.0147544
845.637	0.0147231
845.715	0.0146914
845.793	0.0145724
845.871	0.0147307
845.950	0.0146749
846.028	0.0146619
846.106	0.0145147
846.184	0.0144642
846.262	0.0145875
846.340	0.0144836
846.418	0.0145679
846.496	0.0147018
846.575	0.0146664
846.653	0.0147573
846.731	0.0147349
846.809	0.0147002
846.887	0.0147110
846.965	0.0146527
847.043	0.0146471
847.121	0.0145954
847.200	0.0147308
847.278	0.0146850
847.356	0.0146879
847.434	0.0146417
847.512	0.0146678
847.590	0.0147435
847.668	0.0146892
847.746	0.0145055
847.825	0.0145499
847.903	0.0146960
847.981	0.0146499
848.059	0.0146825
848.137	0.0144379
848.215	0.0146764
848.293	0.0146932
848.371	0.0146027
848.450	0.0145590
848.528	0.0145910
848.606	0.0148241
848.684	0.0147806
848.762	0.0146030
848.840	0.0146642
848.918	0.0146908
848.996	0.0147038
849.075	0.0146745
849.153	0.0145324
849.231	0.0146529
849.309	0.0147898
849.387	0.0145456
849.465	0.0145536
849.543	0.0146600
849.621	0.0145758
849.700	0.0144801
849.778	0.0146269
849.856	0.0146380
849.934	0.0146010
850.012	0.0146226
850.090	0.0146198
850.168	0.0145733
850.246	0.0146363
850.325	0.0147122
850.403	0.0145937
850.481	0.0146544
850.559	0.0145538
850.637	0.0146049
850.715	0.0148282
850.793	0.0146854
850.871	0.0144836
850.950	0.0145519
851.028	0.0147466
851.106	0.0146604
851.184	0.0146378
851.262	0.0145628
851.340	0.0145143
851.418	0.0145394
851.496	0.0144341
851.575	0.0145404
851.653	0.0146291
851.731	0.0145789
851.809	0.0144646
851.887	0.0145779
851.965	0.0145280
852.043	0.0144395
852.121	0.0146272
852.200	0.0144780
852.278	0.0146080
852.356	0.0145387
852.434	0.0145802
852.512	0.0145944
852.590	0.0147657
852.668	0.0146885
852.746	0.0147496
852.825	0.0146591
852.903	0.0146098
852.981	0.0147516
853.059	0.0146384
853.137	0.0145743
853.215	0.0144702
853.293	0.0146030
853.371	0.0145885
853.450	0.0146045
853.528	0.0145811
853.606	0.0146386
853.684	0.0146823
853.762	0.0144905
853.840	0.0145716
853.918	0.0146858
853.996	0.0144547
854.075	0.0146030
854.153	0.0145762
854.231	0.0146325
854.309	0.0145434
854.387	0.0145728
854.465	0.0145265
854.543	0.0146388
854.621	0.0144708
854.700	0.0144664
854.778	0.0145522
854.856	0.0144379
854.934	0.0145033
855.012	0.0146502
855.090	0.0145731
855.168	0.0144382
855.246	0.0143517
855.325	0.0144704
855.403	0.0146113
855.481	0.0146263
855.559	0.0145411
855.637	0.0145499
855.715	0.0146042
855.793	0.0147532
855.871	0.0145133
855.950	0.0146870
856.028	0.0146318
856.106	0.0147472
856.184	0.0147559
856.262	0.0147539
856.340	0.0146104
856.418	0.0144209
856.496	0.0146554
856.575	0.0146491
856.653	0.0145937
856.731	0.0147066
856.809	0.0146011
856.887	0.0144843
856.965	0.0145419
857.043	0.0145417
857.121	0.0145664
857.200	0.0145303
857.278	0.0145451
857.356	0.0145377
857.434	0.0144141
857.512	0.0143964
857.590	0.0144722
857.668	0.0144372
857.746	0.0143369
857.825	0.0143834
857.903	0.0145539
857.981	0.0145184
858.059	0.0144993
858.137	0.0145261
858.215	0.0144971
858.293	0.0144950
858.371	0.0146667
858.450	0.0146851
858.528	0.0146214
858.606	0.0145674
858.684	0.0145151
858.762	0.0145932
858.840	0.0143790
858.918	0.0145754
858.996	0.0146372
859.075	0.0144865
859.153	0.0145459
859.231	0.0145570
859.309	0.0145103
859.387	0.0145949
859.465	0.0144872
859.543	0.0144258
859.621	0.0145000
859.700	0.0145290
859.778	0.0144938
859.856	0.0144606
859.934	0.0144027
860.012	0.0144761
860.090	0.0144013
860.168	0.0146254
860.246	0.0145669
860.325	0.0145169
860.403	0.0145573
860.481	0.0145061
860.559	0.0145980
860.637	0.0144790
860.715	0.0146396
860.793	0.0144772
860.871	0.0144940
860.950	0.0145726
861.028	0.0145289
861.106	0.0144926
861.184	0.0144684
861.262	0.0144857
861.340	0.0144913
861.418	0.0145905
861.496	0.0144921
861.575	0.0146016
861.653	0.0145858
861.731	0.0144827
861.809	0.0144873
861.887	0.0145612
861.965	0.0144349
862.043	0.0144764
862.121	0.0146059
862.200	0.0145176
862.278	0.0145917
862.356	0.0145858
862.434	0.0145200
862.512	0.0144207
862.590	0.0143788
862.668	0.0144694
862.746	0.0144499
862.825	0.0145107
862.903	0.0146769
862.981	0.0145200
863.059	0.0145116
863.137	0.0144437
863.215	0.0145599
863.293	0.0145353
863.371	0.0144974
863.450	0.0146316
863.528	0.0145277
863.606	0.0145161
863.684	0.0146951
863.762	0.0147290
863.840	0.0145307
863.918	0.0146947
863.996	0.0146500
864.075	0.0145712
864.153	0.0146010
864.231	0.0146532
864.309	0.0147385
864.387	0.0146689
864.465	0.0146456
864.543	0.0146231
864.621	0.0146729
864.700	0.0145804
864.778	0.0145046
864.856	0.0145076
864.934	0.0146780
865.012	0.0147176
865.090	0.0144725
865.168	0.0144616
865.246	0.0146065
865.325	0.0146941
865.403	0.0146119
865.481	0.0145625
865.559	0.0145747
865.637	0.0146544
865.715	0.0145225
865.793	0.0145972
865.871	0.0146384
865.950	0.0145319
866.028	0.0145626
866.106	0.0145965
866.184	0.0145049
866.262	0.0145908
866.340	0.0147202
866.418	0.0145740
866.496	0.0145309
866.575	0.0144469
866.653	0.0146185
866.731	0.0145478
866.809	0.0145639
866.887	0.0145435
866.965	0.0146796
867.043	0.0146603
867.121	0.0146532
867.200	0.0146088
867.278	0.0145007
867.356	0.0146516
867.434	0.0144483
867.512	0.0145333
867.590	0.0145271
867.668	0.0145329
867.746	0.0145972
867.825	0.0144910
867.903	0.0144845
867.981	0.0145757
868.059	0.0145696
868.137	0.0145974
868.215	0.0144568
868.293	0.0145795
868.371	0.0145834
868.450	0.0145851
868.528	0.0145830
868.606	0.0145396
868.684	0.0145753
868.762	0.0145789
868.840	0.0146010
868.918	0.0146064
868.996	0.0147338
869.075	0.0145768
869.153	0.0145290
869.231	0.0146458
869.309	0.0146507
869.387	0.0145923
869.465	0.0146351
869.543	0.0145778
869.621	0.0146230
869.700	0.0145244
869.778	0.0145819
869.856	0.0145990
869.934	0.0147099
870.012	0.0147231
870.090	0.0146347
870.168	0.0144911
870.246	0.0144961
870.325	0.0145642
870.403	0.0145456
870.481	0.0146465
870.559	0.0147351
870.637	0.0145933
870.715	0.0144604
870.793	0.0146035
870.871	0.0146892
870.950	0.0147322
871.028	0.0146600
871.106	0.0148015
871.184	0.0147441
871.262	0.0146819
871.340	0.0147876
871.418	0.0148227
871.496	0.0145759
871.575	0.0145531
871.653	0.0145495
871.731	0.0146373
871.809	0.0145908
871.887	0.0146232
871.965	0.0145697
872.043	0.0147200
872.121	0.0146156
872.200	0.0145531
872.278	0.0145625
872.356	0.0145667
872.434	0.0145544
872.512	0.0144852
872.590	0.0145561
872.668	0.0146288
872.746	0.0146806
872.825	0.0146604
872.903	0.0146316
872.981	0.0145940
873.059	0.0146743
873.137	0.0146580
873.215	0.0146423
873.293	0.0147133
873.371	0.0147066
873.450	0.0147128
873.528	0.0146264
873.606	0.0146571
873.684	0.0147195
873.762	0.0145833
873.840	0.0146680
873.918	0.0146744
873.996	0.0146452
874.075	0.0147498
874.153	0.0146085
874.231	0.0146002
874.309	0.0145453
874.387	0.0145049
874.465	0.0145708
874.543	0.0144920
874.621	0.0145292
874.700	0.0145112
874.778	0.0143391
874.856	0.0144364
874.934	0.0144731
875.012	0.0144331
875.090	0.0147475
875.168	0.0145433
875.246	0.0145021
875.325	0.0145480
875.403	0.0145637
875.481	0.0145895
875.559	0.0145914
875.637	0.0147137
875.715	0.0145974
875.793	0.0146009
875.871	0.0147211
875.950	0.0145508
876.028	0.0145302
876.106	0.0145933
876.184	0.0146356
876.262	0.0146909
876.340	0.0147444
876.418	0.0146129
876.496	0.0145634
876.575	0.0147763
876.653	0.0147401
876.731	0.0146271
876.809	0.0146812
876.887	0.0147348
876.965	0.0146526
877.043	0.0145807
877.121	0.0145805
877.200	0.0146603
877.278	0.0145986
877.356	0.0145601
877.434	0.0146391
877.512	0.0146078
877.590	0.0145835
877.668	0.0144905
877.746	0.0146409
877.825	0.0145660
877.903	0.0146201
877.981	0.0145667
878.059	0.0146068
878.137	0.0146013
878.215	0.0144720
878.293	0.0146171
878.371	0.0145501
878.450	0.0147694
878.528	0.0145139
878.606	0.0146757
878.684	0.0146285
878.762	0.0144482
878.840	0.0144772
878.918	0.0146799
878.996	0.0146643
879.075	0.0144952
879.153	0.0147291
879.231	0.0146764
879.309	0.0146059
879.387	0.0145800
879.465	0.0143732
879.543	0.0146400
879.621	0.0146220
879.700	0.0143995
879.778	0.0145753
879.856	0.0145476
879.934	0.0144411
880.012	0.0145821
880.090	0.0146115
880.168	0.0145441
880.246	0.0145374
880.325	0.0145638
880.403	0.0145181
880.481	0.0144862
880.559	0.0144151
880.637	0.0144474
880.715	0.0144917
880.793	0.0144573
880.871	0.0144997
880.950	0.0144013
881.028	0.0145404
881.106	0.0145982
881.184	0.0146007
881.262	0.0145895
881.340	0.0147214
881.418	0.0146844
881.496	0.0145847
881.575	0.0146444
881.653	0.0146786
881.731	0.0147020
881.809	0.0146058
881.887	0.0148402
881.965	0.0147466
882.043	0.0146085
882.121	0.0145358
882.200	0.0145844
882.278	0.0147263
882.356	0.0144992
882.434	0.0146036
882.512	0.0145532
882.590	0.0145676
882.668	0.0145932
882.746	0.0145322
882.825	0.0145845
882.903	0.0145937
882.981	0.0145280
883.059	0.0145255
883.137	0.0144390
883.215	0.0144910
883.293	0.0145144
883.371	0.0144928
883.450	0.0143839
883.528	0.0144849
883.606	0.0144781
883.684	0.0145866
883.762	0.0146097
883.840	0.0145447
883.918	0.0146058
883.996	0.0145729
884.075	0.0146685
884.153	0.0146492
884.231	0.0146495
884.309	0.0146104
884.387	0.0146812
884.465	0.0147246
884.543	0.0146262
884.621	0.0148142
884.700	0.0146748
884.778	0.0147336
884.856	0.0147222
884.934	0.0147690
885.012	0.0147054
885.090	0.0145650
885.168	0.0145342
885.246	0.0146910
885.325	0.0146939
885.403	0.0145830
885.481	0.0146893
885.559	0.0146089
885.637	0.0146648
885.715	0.0147310
885.793	0.0145817
885.871	0.0144880
885.950	0.0145531
886.028	0.0145280
886.106	0.0147549
886.184	0.0145694
886.262	0.0145927
886.340	0.0147828
886.418	0.0145809
886.496	0.0145916
886.575	0.0146470
886.653	0.0147567
886.731	0.0147115
886.809	0.0146899
886.887	0.0147243
886.965	0.0148169
887.043	0.0147123
887.121	0.0146689
887.200	0.0146968
887.278	0.0147600
887.356	0.0147272
887.434	0.0146131
887.512	0.0145287
887.590	0.0145963
887.668	0.0146631
887.746	0.0146186
887.825	0.0145406
887.903	0.0146445
887.981	0.0145576
888.059	0.0145402
888.137	0.0145753
888.215	0.0145885
888.293	0.0145254
888.371	0.0145387
888.450	0.0147450
888.528	0.0146100
888.606	0.0146016
888.684	0.0147569
888.762	0.0148290
888.840	0.0147713
888.918	0.0145819
888.996	0.0147838
889.075	0.0146999
889.153	0.0145715
889.231	0.0147456
889.309	0.0146602
889.387	0.0146295
889.465	0.0145309
889.543	0.0145666
889.621	0.0145520
889.700	0.0145903
889.778	0.0145317
889.856	0.0144123
889.934	0.0144684
890.012	0.0144791
890.090	0.0144478
890.168	0.0144722
890.246	0.0145491
890.325	0.0144718
890.403	0.0146743
890.481	0.0144469
890.559	0.0144588
890.637	0.0144733
890.715	0.0146052
890.793	0.0145419
890.871	0.0146008
890.950	0.0145421
891.028	0.0146156
891.106	0.0145206
891.184	0.0145885
891.262	0.0145899
891.340	0.0145661
891.418	0.0146581
891.496	0.0146812
891.575	0.0146485
891.653	0.0145943
891.731	0.0146613
891.809	0.0146354
891.887	0.0145186
891.965	0.0144083
892.043	0.0144294
892.121	0.0145020
892.200	0.0145038
892.278	0.0145744
892.356	0.0144482
892.434	0.0145395
892.512	0.0144604
892.590	0.0145507
892.668	0.0145174
892.746	0.0146413
892.825	0.0146947
892.903	0.0148132
892.981	0.0146926
893.059	0.0145985
893.137	0.0146780
893.215	0.0146194
893.293	0.0145892
893.371	0.0147009
893.450	0.0146954
893.528	0.0146763
893.606	0.0147640
893.684	0.0146927
893.762	0.0145564
893.840	0.0146088
893.918	0.0147022
893.996	0.0144952
894.075	0.0145579
894.153	0.0145639
894.231	0.0146592
894.309	0.0145956
894.387	0.0145313
894.465	0.0144347
894.543	0.0145478
894.621	0.0146335
894.700	0.0144989
894.778	0.0144260
894.856	0.0145918
894.934	0.0146658
895.012	0.0146089
895.090	0.0145000
895.168	0.0144891
895.246	0.0146120
895.325	0.0146343
895.403	0.0145050
895.481	0.0144472
895.559	0.0145686
895.637	0.0146154
895.715	0.0145701
895.793	0.0144966
895.871	0.0145142
895.950	0.0145170
896.028	0.0144518
896.106	0.0145461
896.184	0.0145384
896.262	0.0144768
896.340	0.0145547
896.418	0.0145205
896.496	0.0146375
896.575	0.0145288
896.653	0.0145620
896.731	0.0145829
896.809	0.0145631
896.887	0.0145791
896.965	0.0146077
897.043	0.0146892
897.121	0.0145419
897.200	0.0147003
897.278	0.0146483
897.356	0.0145847
897.434	0.0144887
897.512	0.0147829
897.590	0.0146104
897.668	0.0145829
897.746	0.0147139
897.825	0.0145112
897.903	0.0144922
897.981	0.0144663
898.059	0.0143494
898.137	0.0145308
898.215	0.0144413
898.293	0.0144559
898.371	0.0145197
898.450	0.0143951
898.528	0.0145068
898.606	0.0144306
898.684	0.0145448
898.762	0.0146578
898.840	0.0145354
898.918	0.0145715
898.996	0.0146149
899.075	0.0146132
899.153	0.0146767
899.231	0.0146529
899.309	0.0147061
899.387	0.0144975
899.465	0.0146198
899.543	0.0147524
899.621	0.0146780
899.700	0.0146835
899.778	0.0145229
899.856	0.0145051
899.934	0.0143816
900.012	0.0144621
900.090	0.0145021
900.168	0.0145405
900.246	0.0144868
900.325	0.0144226
900.403	0.0143919
900.481	0.0144498
900.559	0.0143821
900.637	0.0144239
900.715	0.0143932
900.793	0.0144650
900.871	0.0146040
900.950	0.0146564
901.028	0.0146746
901.106	0.0146285
901.184	0.0145721
901.262	0.0145895
901.340	0.0146043
901.418	0.0147462
901.496	0.0146587
901.575	0.0146786
901.653	0.0147384
901.731	0.0145201
901.809	0.0145531
901.887	0.0146250
901.965	0.0145730
902.043	0.0145992
902.121	0.0147913
902.200	0.0146246
902.278	0.0143690
902.356	0.0146142
902.434	0.0146004
902.512	0.0146291
902.590	0.0146419
902.668	0.0147386
902.746	0.0144997
902.825	0.0144366
902.903	0.0147234
902.981	0.0146783
903.059	0.0145903
903.137	0.0146933
903.215	0.0145053
903.293	0.0146243
903.371	0.0145851
903.450	0.0145071
903.528	0.0145757
903.606	0.0147145
903.684	0.0145604
903.762	0.0146808
903.840	0.0145217
903.918	0.0147080
903.996	0.0146069
904.075	0.0144627
904.153	0.0145306
904.231	0.0147890
904.309	0.0146256
904.387	0.0144608
904.465	0.0146624
904.543	0.0146368
904.621	0.0145147
904.700	0.0147493
904.778	0.0145799
904.856	0.0145337
904.934	0.0145832
905.012	0.0146812
905.090	0.0147801
905.168	0.0146335
905.246	0.0146652
905.325	0.0144830
905.403	0.0147759
905.481	0.0148396
905.559	0.0147773
905.637	0.0146249
905.715	0.0146511
905.793	0.0147277
905.871	0.0146991
905.950	0.0146018
906.028	0.0146156
906.106	0.0147280
906.184	0.0147131
906.262	0.0146396
906.340	0.0144750
906.418	0.0146468
906.496	0.0147223
906.575	0.0145519
906.653	0.0145582
906.731	0.0146288
906.809	0.0145822
906.887	0.0144854
906.965	0.0145306
907.043	0.0145460
907.121	0.0146763
907.200	0.0145652
907.278	0.0146114
907.356	0.0146767
907.434	0.0145922
907.512	0.0146903
907.590	0.0146352
907.668	0.0146863
907.746	0.0145493
907.825	0.0146814
907.903	0.0146692
907.981	0.0146035
908.059	0.0145208
908.137	0.0145398
908.215	0.0145548
908.293	0.0146890
908.371	0.0146183
908.450	0.0144253
908.528	0.0146311
908.606	0.0145623
908.684	0.0144917
908.762	0.0145023
908.840	0.0146402
908.918	0.0145574
908.996	0.0145609
909.075	0.0146819
909.153	0.0145291
909.231	0.0145699
909.309	0.0145774
909.387	0.0144080
909.465	0.0145384
909.543	0.0147025
909.621	0.0147149
909.700	0.0145968
909.778	0.0145445
909.856	0.0145296
909.934	0.0145783
910.012	0.0145710
910.090	0.0145837
910.168	0.0146469
910.246	0.0145060
910.325	0.0145087
910.403	0.0147302
910.481	0.0147323
910.559	0.0145400
910.637	0.0145732
910.715	0.0145646
910.793	0.0145816
910.871	0.0147411
910.950	0.0145814
911.028	0.0145380
911.106	0.0144738
911.184	0.0146171
911.262	0.0145736
911.340	0.0146068
911.418	0.0145461
911.496	0.0146297
911.575	0.0146497
911.653	0.0146311
911.731	0.0146130
911.809	0.0146973
911.887	0.0146217
911.965	0.0145049
912.043	0.0145191
912.121	0.0145006
912.200	0.0146092
912.278	0.0146164
912.356	0.0145888
912.434	0.0146227
912.512	0.0146655
912.590	0.0145747
912.668	0.0144994
912.746	0.0144820
912.825	0.0145624
912.903	0.0144737
912.981	0.0145033
913.059	0.0145885
913.137	0.0146774
913.215	0.0145889
913.293	0.0145784
913.371	0.0144868
913.450	0.0145776
913.528	0.0145695
913.606	0.0145582
913.684	0.0146643
913.762	0.0145646
913.840	0.0145235
913.918	0.0146732
913.996	0.0146737
914.075	0.0146340
914.153	0.0145950
914.231	0.0146816
914.309	0.0144852
914.387	0.0145165
914.465	0.0144437
914.543	0.0147042
914.621	0.0145631
914.700	0.0146677
914.778	0.0144532
914.856	0.0143759
914.934	0.0145534
915.012	0.0145677
915.090	0.0145599
915.168	0.0145322
915.246	0.0146852
915.325	0.0146827
915.403	0.0145575
915.481	0.0146181
915.559	0.0143810
915.637	0.0145338
915.715	0.0146564
915.793	0.0145319
915.871	0.0145302
915.950	0.0146957
916.028	0.0145715
916.106	0.0144509
916.184	0.0146317
916.262	0.0146562
916.340	0.0146108
916.418	0.0143585
916.496	0.0146115
916.575	0.0147609
916.653	0.0144501
916.731	0.0144882
916.809	0.0145989
916.887	0.0146377
916.965	0.0144935
917.043	0.0145567
917.121	0.0146711
917.200	0.0146177
917.278	0.0145869
917.356	0.0145558
917.434	0.0147043
917.512	0.0145596
917.590	0.0146229
917.668	0.0146045
917.746	0.0145899
917.825	0.0145443
917.903	0.0146578
917.981	0.0147086
918.059	0.0146078
918.137	0.0145250
918.215	0.0145789
918.293	0.0146078
918.371	0.0145506
918.450	0.0144794
918.528	0.0145502
918.606	0.0144886
918.684	0.0144983
918.762	0.0145294
918.840	0.0145715
918.918	0.0145372
918.996	0.0146085
919.075	0.0145834
919.153	0.0145192
919.231	0.0145812
919.309	0.0145243
919.387	0.0144183
919.465	0.0146847
919.543	0.0146212
919.621	0.0145829
919.700	0.0145395
919.778	0.0144825
919.856	0.0145278
919.934	0.0146409
920.012	0.0146889
920.090	0.0144786
920.168	0.0144447
920.246	0.0146355
920.325	0.0146155
920.403	0.0146706
920.481	0.0145664
920.559	0.0145735
920.637	0.0147512
920.715	0.0145869
920.793	0.0145307
920.871	0.0145923
920.950	0.0147086
921.028	0.0147334
921.106	0.0146402
921.184	0.0145353
921.262	0.0145148
921.340	0.0145757
921.418	0.0145177
921.496	0.0144672
921.575	0.0145253
921.653	0.0145659
921.731	0.0145359
921.809	0.0145633
921.887	0.0145975
921.965	0.0145858
922.043	0.0146127
922.121	0.0146383
922.200	0.0147289
922.278	0.0145254
922.356	0.0147094
922.434	0.0147281
922.512	0.0146982
922.590	0.0146563
922.668	0.0147337
922.746	0.0147176
922.825	0.0147695
922.903	0.0147903
922.981	0.0146487
923.059	0.0147367
923.137	0.0147275
923.215	0.0146752
923.293	0.0146458
923.371	0.0146952
923.450	0.0147163
923.528	0.0147208
923.606	0.0146191
923.684	0.0146231
923.762	0.0145699
923.840	0.0146403
923.918	0.0146626
923.996	0.0146441
924.075	0.0144302
924.153	0.0146129
924.231	0.0145115
924.309	0.0146461
924.387	0.0146446
924.465	0.0147099
924.543	0.0145554
924.621	0.0145619
924.700	0.0144389
924.778	0.0145033
924.856	0.0146213
924.934	0.0148088
925.012	0.0146516
925.090	0.0147088
925.168	0.0146573
925.246	0.0146886
925.325	0.0145701
925.403	0.0147133
925.481	0.0147255
925.559	0.0146785
925.637	0.0146282
925.715	0.0147114
925.793	0.0147038
925.871	0.0146444
925.950	0.0146243
926.028	0.0147095
926.106	0.0147058
926.184	0.0147803
926.262	0.0145581
926.340	0.0146368
926.418	0.0145501
926.496	0.0145002
926.575	0.0145586
926.653	0.0145935
926.731	0.0147027
926.809	0.0146398
926.887	0.0146215
926.965	0.0145403
927.043	0.0147494
927.121	0.0147204
927.200	0.0145890
927.278	0.0145839
927.356	0.0147678
927.434	0.0145539
927.512	0.0146713
927.590	0.0147247
927.668	0.0145995
927.746	0.0146042
927.825	0.0145222
927.903	0.0146384
927.981	0.0145850
928.059	0.0146830
928.137	0.0146380
928.215	0.0145723
928.293	0.0146329
928.371	0.0145535
928.450	0.0144213
928.528	0.0145843
928.606	0.0146532
928.684	0.0144801
928.762	0.0144751
928.840	0.0146613
928.918	0.0145358
928.996	0.0144985
929.075	0.0145451
929.153	0.0145544
929.231	0.0145350
929.309	0.0145953
929.387	0.0144156
929.465	0.0144783
929.543	0.0145877
929.621	0.0146400
929.700	0.0145999
929.778	0.0145525
929.856	0.0145219
929.934	0.0145982
930.012	0.0145418
930.090	0.0145838
930.168	0.0146953
930.246	0.0147007
930.325	0.0146508
930.403	0.0146423
930.481	0.0145844
930.559	0.0144038
930.637	0.0144727
930.715	0.0148683
930.793	0.0144601
930.871	0.0145159
930.950	0.0146687
931.028	0.0147123
931.106	0.0145381
931.184	0.0144592
931.262	0.0145693
931.340	0.0145390
931.418	0.0145383
931.496	0.0144898
931.575	0.0146314
931.653	0.0145407
931.731	0.0145442
931.809	0.0146538
931.887	0.0147712
931.965	0.0146683
932.043	0.0145973
932.121	0.0146619
932.200	0.0145786
932.278	0.0146169
932.356	0.0145676
932.434	0.0147106
932.512	0.0145414
932.590	0.0146043
932.668	0.0145911
932.746	0.0145713
932.825	0.0145438
932.903	0.0145986
932.981	0.0146086
933.059	0.0145441
933.137	0.0145341
933.215	0.0145632
933.293	0.0145639
933.371	0.0145068
933.450	0.0145470
933.528	0.0145024
933.606	0.0146517
933.684	0.0146155
933.762	0.0145570
933.840	0.0144560
933.918	0.0146374
933.996	0.0145263
934.075	0.0144369
934.153	0.0145277
934.231	0.0146483
934.309	0.0146079
934.387	0.0146194
934.465	0.0146230
934.543	0.0146073
934.621	0.0145850
934.700	0.0146922
934.778	0.0145599
934.856	0.0145662
934.934	0.0144630
935.012	0.0145334
935.090	0.0146295
935.168	0.0145577
935.246	0.0145580
935.325	0.0146136
935.403	0.0146165
935.481	0.0145944
935.559	0.0146408
935.637	0.0146104
935.715	0.0146342
935.793	0.0146632
935.871	0.0144670
935.950	0.0146798
936.028	0.0146565
936.106	0.0145628
936.184	0.0147593
936.262	0.0146677
936.340	0.0146075
936.418	0.0145175
936.496	0.0145452
936.575	0.0145197
936.653	0.0145276
936.731	0.0146323
936.809	0.0147048
936.887	0.0145548
936.965	0.0145978
937.043	0.0144550
937.121	0.0146120
937.200	0.0146840
937.278	0.0144512
937.356	0.0145683
937.434	0.0145448
937.512	0.0144703
937.590	0.0144769
937.668	0.0145682
937.746	0.0144859
937.825	0.0144920
937.903	0.0145393
937.981	0.0145207
938.059	0.0146275
938.137	0.0145399
938.215	0.0146425
938.293	0.0145960
938.371	0.0146322
938.450	0.0145024
938.528	0.0145312
938.606	0.0146066
938.684	0.0146388
938.762	0.0145770
938.840	0.0144711
938.918	0.0145931
938.996	0.0145983
939.075	0.0144448
939.153	0.0145239
939.231	0.0145400
939.309	0.0146072
939.387	0.0144823
939.465	0.0143760
939.543	0.0145339
939.621	0.0144639
939.700	0.0144443
939.778	0.0144856
939.856	0.0145789
939.934	0.0145045
940.012	0.0145963
940.090	0.0145200
940.168	0.0142616
940.246	0.0144378
940.325	0.0145071
940.403	0.0145525
940.481	0.0144775
940.559	0.0145573
940.637	0.0146165
940.715	0.0146822
940.793	0.0146390
940.871	0.0145779
940.950	0.0146564
941.028	0.0147314
941.106	0.0146064
941.184	0.0144882
941.262	0.0146466
941.340	0.0145374
941.418	0.0144022
941.496	0.0144469
941.575	0.0146029
941.653	0.0145170
941.731	0.0146157
941.809	0.0144958
941.887	0.0145061
941.965	0.0144898
942.043	0.0144548
942.121	0.0144148
942.200	0.0144406
942.278	0.0144892
942.356	0.0144597
942.434	0.0146114
942.512	0.0148090
942.590	0.0144854
942.668	0.0145667
942.746	0.0146124
942.825	0.0147677
942.903	0.0147728
942.981	0.0147033
943.059	0.0146307
943.137	0.0146078
943.215	0.0145798
943.293	0.0146771
943.371	0.0146877
943.450	0.0146770
943.528	0.0145683
943.606	0.0146684
943.684	0.0145630
943.762	0.0145887
943.840	0.0145835
943.918	0.0145689
943.996	0.0146664
944.075	0.0145934
944.153	0.0146251
944.231	0.0146603
944.309	0.0146393
944.387	0.0146293
944.465	0.0146586
944.543	0.0147968
944.621	0.0146587
944.700	0.0146921
944.778	0.0146003
944.856	0.0147323
944.934	0.0146378
945.012	0.0146912
945.090	0.0146973
945.168	0.0146960
945.246	0.0145227
945.325	0.0146924
945.403	0.0147548
945.481	0.0146398
945.559	0.0146866
945.637	0.0147506
945.715	0.0147324
945.793	0.0147363
945.871	0.0146794
945.950	0.0147723
946.028	0.0146862
946.106	0.0147045
946.184	0.0146260
946.262	0.0146729
946.340	0.0146436
946.418	0.0147342
946.496	0.0147137
946.575	0.0146828
946.653	0.0146631
946.731	0.0147069
946.809	0.0146796
946.887	0.0145511
946.965	0.0146831
947.043	0.0146376
947.121	0.0146988
947.200	0.0146193
947.278	0.0144857
947.356	0.0147514
947.434	0.0147523
947.512	0.0146985
947.590	0.0147045
947.668	0.0146583
947.746	0.0145355
947.825	0.0146448
947.903	0.0147105
947.981	0.0147879
948.059	0.0147364
948.137	0.0147482
948.215	0.0146123
948.293	0.0147678
948.371	0.0146308
948.450	0.0146397
948.528	0.0146192
948.606	0.0147204
948.684	0.0146593
948.762	0.0147592
948.840	0.0148238
948.918	0.0147990
948.996	0.0146789
949.075	0.0148367
949.153	0.0147785
949.231	0.0146087
949.309	0.0144931
949.387	0.0147369
949.465	0.0145789
949.543	0.0146572
949.621	0.0147199
949.700	0.0147457
949.778	0.0146967
949.856	0.0145625
949.934	0.0145513
950.012	0.0145681
950.090	0.0147942
950.168	0.0146597
950.246	0.0146325
950.325	0.0144552
950.403	0.0145300
950.481	0.0145742
950.559	0.0145901
950.637	0.0146040
950.715	0.0146225
950.793	0.0147085
950.871	0.0147771
950.950	0.0146337
951.028	0.0146013
951.106	0.0145273
951.184	0.0146867
951.262	0.0146737
951.340	0.0146739
951.418	0.0145592
951.496	0.0146037
951.575	0.0144932
951.653	0.0146133
951.731	0.0145940
951.809	0.0146203
951.887	0.0146381
951.965	0.0147802
952.043	0.0146091
952.121	0.0145741
952.200	0.0145299
952.278	0.0145845
952.356	0.0146314
952.434	0.0145105
952.512	0.0146816
952.590	0.0145995
952.668	0.0145781
952.746	0.0145455
952.825	0.0146010
952.903	0.0145392
952.981	0.0144904
953.059	0.0146054
953.137	0.0146516
953.215	0.0146696
953.293	0.0145936
953.371	0.0146011
953.450	0.0145876
953.528	0.0144258
953.606	0.0144756
953.684	0.0146651
953.762	0.0146834
953.840	0.0145414
953.918	0.0146510
953.996	0.0146310
954.075	0.0147656
954.153	0.0146831
954.231	0.0146532
954.309	0.0146320
954.387	0.0146333
954.465	0.0144418
954.543	0.0145510
954.621	0.0145771
954.700	0.0145623
954.778	0.0144350
954.856	0.0145934
954.934	0.0145242
955.012	0.0145556
955.090	0.0146062
955.168	0.0144810
955.246	0.0145377
955.325	0.0145140
955.403	0.0145538
955.481	0.0144910
955.559	0.0146393
955.637	0.0145798
955.715	0.0145575
955.793	0.0145768
955.871	0.0146573
955.950	0.0146999
956.028	0.0147864
956.106	0.0146145
956.184	0.0146900
956.262	0.0147809
956.340	0.0146328
956.418	0.0146806
956.496	0.0147256
956.575	0.0145177
956.653	0.0144628
956.731	0.0145414
956.809	0.0145399
956.887	0.0145619
956.965	0.0146282
957.043	0.0144412
957.121	0.0144875
957.200	0.0145476
957.278	0.0145161
957.356	0.0144505
957.434	0.0144666
957.512	0.0145328
957.590	0.0145958
957.668	0.0145380
957.746	0.0145362
957.825	0.0145808
957.903	0.0145036
957.981	0.0146861
958.059	0.0146917
958.137	0.0146856
958.215	0.0145204
958.293	0.0147562
958.371	0.0147364
958.450	0.0143878
958.528	0.0146020
958.606	0.0144926
958.684	0.0145260
958.762	0.0144301
958.840	0.0144817
958.918	0.0144102
958.996	0.0144891
959.075	0.0144838
959.153	0.0144537
959.231	0.0145067
959.309	0.0144978
959.387	0.0146137
959.465	0.0144642
959.543	0.0146931
959.621	0.0146413
959.700	0.0146312
959.778	0.0143562
959.856	0.0146249
959.934	0.0145765
960.012	0.0145649
960.090	0.0146676
960.168	0.0145518
960.246	0.0146013
960.325	0.0146381
960.403	0.0145389
960.481	0.0145004
960.559	0.0145103
960.637	0.0144392
960.715	0.0145452
960.793	0.0146275
960.871	0.0145124
960.950	0.0144421
961.028	0.0146820
961.106	0.0145219
961.184	0.0144244
961.262	0.0146593
961.340	0.0145658
961.418	0.0145392
961.496	0.0148843
961.575	0.0146375
961.653	0.0146256
961.731	0.0147654
961.809	0.0146021
961.887	0.0146198
961.965	0.0146150
962.043	0.0145825
962.121	0.0146578
962.200	0.0146239
962.278	0.0145132
962.356	0.0146488
962.434	0.0145020
962.512	0.0144280
962.590	0.0144550
962.668	0.0144235
962.746	0.0145779
962.825	0.0145071
962.903	0.0144469
962.981	0.0144096
963.059	0.0145479
963.137	0.0144977
963.215	0.0145194
963.293	0.0144947
963.371	0.0144262
963.450	0.0143880
963.528	0.0146677
963.606	0.0146336
963.684	0.0146698
963.762	0.0146198
963.840	0.0145512
963.918	0.0146652
963.996	0.0145836
964.075	0.0145790
964.153	0.0145739
964.231	0.0145824
964.309	0.0145132
964.387	0.0146516
964.465	0.0146229
964.543	0.0144839
964.621	0.0143883
964.700	0.0145747
964.778	0.0145509
964.856	0.0146092
964.934	0.0144779
965.012	0.0144566
965.090	0.0145695
965.168	0.0145899
965.246	0.0146178
965.325	0.0145586
965.403	0.0145847
965.481	0.0148289
965.559	0.0147489
965.637	0.0147250
965.715	0.0145788
965.793	0.0146826
965.871	0.0147009
965.950	0.0145306
966.028	0.0145895
966.106	0.0147259
966.184	0.0146432
966.262	0.0145149
966.340	0.0146420
966.418	0.0147133
966.496	0.0147380
966.575	0.0145253
966.653	0.0143919
966.731	0.0145829
966.809	0.0144281
966.887	0.0145863
966.965	0.0145648
967.043	0.0146075
967.121	0.0145989
967.200	0.0145477
967.278	0.0147108
967.356	0.0147177
967.434	0.0145763
967.512	0.0145599
967.590	0.0146333
967.668	0.0146302
967.746	0.0146108
967.825	0.0146615
967.903	0.0145648
967.981	0.0146812
968.059	0.0147414
968.137	0.0147198
968.215	0.0146120
968.293	0.0146712
968.371	0.0146554
968.450	0.0146658
968.528	0.0146766
968.606	0.0146527
968.684	0.0146960
968.762	0.0146059
968.840	0.0145951
968.918	0.0146037
968.996	0.0145525
969.075	0.0145495
969.153	0.0145889
969.231	0.0146129
969.309	0.0145094
969.387	0.0144096
969.465	0.0144454
969.543	0.0145320
969.621	0.0146471
969.700	0.0146203
969.778	0.0147864
969.856	0.0145941
969.934	0.0146706
970.012	0.0146739
970.090	0.0148046
970.168	0.0147537
970.246	0.0147334
970.325	0.0147674
970.403	0.0146635
970.481	0.0146292
970.559	0.0146018
970.637	0.0146008
970.715	0.0145775
970.793	0.0146524
970.871	0.0145877
970.950	0.0146086
971.028	0.0145738
971.106	0.0145688
971.184	0.0145580
971.262	0.0145510
971.340	0.0146034
971.418	0.0145947
971.496	0.0146182
971.575	0.0145290
971.653	0.0145162
971.731	0.0146141
971.809	0.0147219
971.887	0.0146265
971.965	0.0147090
972.043	0.0146626
972.121	0.0147045
972.200	0.0145581
972.278	0.0146621
972.356	0.0146974
972.434	0.0145962
972.512	0.0146745
972.590	0.0145668
972.668	0.0146229
972.746	0.0146314
972.825	0.0145072
972.903	0.0144889
972.981	0.0145328
973.059	0.0145052
973.137	0.0144056
973.215	0.0146258
973.293	0.0144759
973.371	0.0145245
973.450	0.0142953
973.528	0.0144173
973.606	0.0144623
973.684	0.0145547
973.762	0.0144762
973.840	0.0144350
973.918	0.0145794
973.996	0.0145072
974.075	0.0144198
974.153	0.0144680
974.231	0.0145985
974.309	0.0145949
974.387	0.0147313
974.465	0.0146736
974.543	0.0145113
974.621	0.0146014
974.700	0.0144925
974.778	0.0146135
974.856	0.0147371
974.934	0.0145059
975.012	0.0145251
975.090	0.0145942
975.168	0.0145173
975.246	0.0145219
975.325	0.0145173
975.403	0.0144418
975.481	0.0144904
975.559	0.0145000
975.637	0.0146213
975.715	0.0144858
975.793	0.0145155
975.871	0.0146304
975.950	0.0146339
976.028	0.0145159
976.106	0.0145965
976.184	0.0144785
976.262	0.0146012
976.340	0.0146444
976.418	0.0144133
976.496	0.0146061
976.575	0.0146778
976.653	0.0145284
976.731	0.0146459
976.809	0.0145795
976.887	0.0145261
976.965	0.0144801
977.043	0.0146243
977.121	0.0146799
977.200	0.0146579
977.278	0.0146570
977.356	0.0145734
977.434	0.0144594
977.512	0.0144388
977.590	0.0145493
977.668	0.0144781
977.746	0.0146801
977.825	0.0145296
977.903	0.0145362
977.981	0.0144756
978.059	0.0146654
978.137	0.0145696
978.215	0.0145725
978.293	0.0145464
978.371	0.0144221
978.450	0.0144639
978.528	0.0145824
978.606	0.0145512
978.684	0.0144511
978.762	0.0144723
978.840	0.0146149
978.918	0.0145703
978.996	0.0146632
979.075	0.0143104
979.153	0.0145439
979.231	0.0145468
979.309	0.0145997
979.387	0.0145213
979.465	0.0144950
979.543	0.0145563
979.621	0.0146050
979.700	0.0144990
979.778	0.0146017
979.856	0.0146122
979.934	0.0146606
980.012	0.0145966
980.090	0.0145711
980.168	0.0146172
980.246	0.0146713
980.325	0.0145751
980.403	0.0147079
980.481	0.0147359
980.559	0.0145407
980.637	0.0145926
980.715	0.0147139
980.793	0.0145796
980.871	0.0146866
980.950	0.0146662
981.028	0.0146217
981.106	0.0146322
981.184	0.0145219
981.262	0.0146485
981.340	0.0146971
981.418	0.0145966
981.496	0.0146409
981.575	0.0147624
981.653	0.0146382
981.731	0.0145771
981.809	0.0145412
981.887	0.0145877
981.965	0.0145776
982.043	0.0145572
982.121	0.0146573
982.200	0.0147054
982.278	0.0147849
982.356	0.0146665
982.434	0.0146902
982.512	0.0145342
982.590	0.0145908
982.668	0.0145702
982.746	0.0146201
982.825	0.0146484
982.903	0.0146232
982.981	0.0145840
983.059	0.0146709
983.137	0.0144415
983.215	0.0145832
983.293	0.0146365
983.371	0.0145125
983.450	0.0145052
983.528	0.0145557
983.606	0.0146429
983.684	0.0147125
983.762	0.0147173
983.840	0.0145726
983.918	0.0144477
983.996	0.0145773
984.075	0.0146575
984.153	0.0145874
984.231	0.0144838
984.309	0.0145687
984.387	0.0146443
984.465	0.0145834
984.543	0.0145048
984.621	0.0146837
984.700	0.0146326
984.778	0.0145726
984.856	0.0145958
984.934	0.0145978
985.012	0.0146916
985.090	0.0145624
985.168	0.0146880
985.246	0.0146351
985.325	0.0146116
985.403	0.0146754
985.481	0.0145124
985.559	0.0145123
985.637	0.0144312
985.715	0.0147183
985.793	0.0145947
985.871	0.0145654
985.950	0.0146750
986.028	0.0146030
986.106	0.0144930
986.184	0.0145664
986.262	0.0145671
986.340	0.0145577
986.418	0.0145905
986.496	0.0145386
986.575	0.0146746
986.653	0.0146156
986.731	0.0145733
986.809	0.0146152
986.887	0.0144910
986.965	0.0147233
987.043	0.0147578
987.121	0.0145469
987.200	0.0146339
987.278	0.0147302
987.356	0.0147010
987.434	0.0148045
987.512	0.0147500
987.590	0.0145844
987.668	0.0147151
987.746	0.0146450
987.825	0.0147614
987.903	0.0147570
987.981	0.0148609
988.059	0.0146513
988.137	0.0145304
988.215	0.0147350
988.293	0.0147756
988.371	0.0146247
988.450	0.0145707
988.528	0.0146844
988.606	0.0147809
988.684	0.0146750
988.762	0.0146908
988.840	0.0146313
988.918	0.0146395
988.996	0.0146297
989.075	0.0145635
989.153	0.0145753
989.231	0.0145676
989.309	0.0145226
989.387	0.0144653
989.465	0.0145688
989.543	0.0145364
989.621	0.0145902
989.700	0.0146152
989.778	0.0145494
989.856	0.0147040
989.934	0.0145248
990.012	0.0145298
990.090	0.0147433
990.168	0.0145991
990.246	0.0147462
990.325	0.0146336
990.403	0.0146715
990.481	0.0146358
990.559	0.0147011
990.637	0.0148058
990.715	0.0145640
990.793	0.0145782
990.871	0.0146091
990.950	0.0144013
991.028	0.0146432
991.106	0.0144581
991.184	0.0145163
991.262	0.0145401
991.340	0.0144136
991.418	0.0143311
991.496	0.0142663
991.575	0.0144003
991.653	0.0143339
991.731	0.0145533
991.809	0.0143767
991.887	0.0144152
991.965	0.0144614
992.043	0.0144012
992.121	0.0144228
992.200	0.0144469
992.278	0.0144529
992.356	0.0144522
992.434	0.0147530
992.512	0.0146225
992.590	0.0145435
992.668	0.0146580
992.746	0.0147502
992.825	0.0146716
992.903	0.0146887
992.981	0.0146023
993.059	0.0147687
993.137	0.0146505
993.215	0.0147086
993.293	0.0147003
993.371	0.0145592
993.450	0.0145753
993.528	0.0145219
993.606	0.0144459
993.684	0.0144142
993.762	0.0144576
993.840	0.0145083
993.918	0.0143874
993.996	0.0143594
994.075	0.0144000
994.153	0.0144953
994.231	0.0144049
994.309	0.0144476
994.387	0.0146605
994.465	0.0144672
994.543	0.0144225
994.621	0.0145781
994.700	0.0146267
994.778	0.0145985
994.856	0.0145418
994.934	0.0145502
995.012	0.0145924
995.090	0.0146436
995.168	0.0146839
995.246	0.0147433
995.325	0.0145806
995.403	0.0146497
995.481	0.0145713
995.559	0.0146062
995.637	0.0146864
995.715	0.0146652
995.793	0.0147030
995.871	0.0147573
995.950	0.0147266
996.028	0.0147208
996.106	0.0146706
996.184	0.0146196
996.262	0.0146888
996.340	0.0147095
996.418	0.0146618
996.496	0.0147346
996.575	0.0146850
996.653	0.0145583
996.731	0.0144705
996.809	0.0144884
996.887	0.0143975
996.965	0.0143959
997.043	0.0144434
997.121	0.0145148
997.200	0.0145648
997.278	0.0145129
997.356	0.0145516
997.434	0.0145576
997.512	0.0145118
997.590	0.0145126
997.668	0.0145387
997.746	0.0145172
997.825	0.0145251
997.903	0.0146574
997.981	0.0147367
998.059	0.0145725
998.137	0.0146204
998.215	0.0146980
998.293	0.0146325
998.371	0.0146857
998.450	0.0146951
998.528	0.0146609
998.606	0.0147177
998.684	0.0145699
998.762	0.0146822
998.840	0.0146132
998.918	0.0147548
