05/04/2022	21:29:18	Ver.	4.1	UNKNOWN
Optical Delay	678.996401	Delta X		0.078125	Sweeps	1	Scan Rate	0/0
Coordinates	Axis 1	NaN	Axis 2	NaN	Axis 3	NaN	Axis 4	NaN	Axis 5	NaN	Axis 6	0.000000
TX Power	0.000000	RX Power	0.000000

678.996	0.0148210
679.075	0.0148396
679.153	0.0147745
679.231	0.0148094
679.309	0.0147013
679.387	0.0147841
679.465	0.0150122
679.543	0.0149120
679.621	0.0147967
679.700	0.0148869
679.778	0.0148807
679.856	0.0149644
679.934	0.0150957
680.012	0.0148550
680.090	0.0149778
680.168	0.0149921
680.246	0.0148571
680.325	0.0150378
680.403	0.0149875
680.481	0.0147911
680.559	0.0148687
680.637	0.0148013
680.715	0.0148865
680.793	0.0148247
680.871	0.0147486
680.950	0.0148531
681.028	0.0148894
681.106	0.0148555
681.184	0.0148618
681.262	0.0147457
681.340	0.0148571
681.418	0.0148028
681.496	0.0147806
681.575	0.0147715
681.653	0.0149658
681.731	0.0147958
681.809	0.0148549
681.887	0.0148432
681.965	0.0149415
682.043	0.0148788
682.121	0.0150391
682.200	0.0150716
682.278	0.0150402
682.356	0.0149772
682.434	0.0150366
682.512	0.0147990
682.590	0.0150473
682.668	0.0150227
682.746	0.0148161
682.825	0.0149531
682.903	0.0148500
682.981	0.0148540
683.059	0.0148278
683.137	0.0147914
683.215	0.0147791
683.293	0.0147494
683.371	0.0148371
683.450	0.0148267
683.528	0.0148813
683.606	0.0149786
683.684	0.0148676
683.762	0.0148211
683.840	0.0148422
683.918	0.0148326
683.996	0.0148560
684.075	0.0149475
684.153	0.0148572
684.231	0.0149386
684.309	0.0149621
684.387	0.0147500
684.465	0.0147447
684.543	0.0148352
684.621	0.0148405
684.700	0.0147944
684.778	0.0149617
684.856	0.0148269
684.934	0.0148980
685.012	0.0150156
685.090	0.0148255
685.168	0.0148466
685.246	0.0150186
685.325	0.0149107
685.403	0.0150579
685.481	0.0149431
685.559	0.0149608
685.637	0.0148971
685.715	0.0149203
685.793	0.0148473
685.871	0.0148839
685.950	0.0147965
686.028	0.0148043
686.106	0.0148473
686.184	0.0147517
686.262	0.0147531
686.340	0.0147775
686.418	0.0146685
686.496	0.0145925
686.575	0.0146313
686.653	0.0147089
686.731	0.0146277
686.809	0.0145850
686.887	0.0146547
686.965	0.0147879
687.043	0.0148580
687.121	0.0149174
687.200	0.0149235
687.278	0.0149555
687.356	0.0150633
687.434	0.0150484
687.512	0.0149953
687.590	0.0149934
687.668	0.0149615
687.746	0.0149686
687.825	0.0149774
687.903	0.0149304
687.981	0.0148843
688.059	0.0149820
688.137	0.0149017
688.215	0.0149269
688.293	0.0150092
688.371	0.0147343
688.450	0.0146907
688.528	0.0147757
688.606	0.0146531
688.684	0.0144775
688.762	0.0144931
688.840	0.0145533
688.918	0.0146140
688.996	0.0145277
689.075	0.0146296
689.153	0.0145340
689.231	0.0144529
689.309	0.0145274
689.387	0.0145283
689.465	0.0145925
689.543	0.0147942
689.621	0.0147997
689.700	0.0149520
689.778	0.0149553
689.856	0.0151259
689.934	0.0153027
690.012	0.0154358
690.090	0.0153390
690.168	0.0153298
690.246	0.0154077
690.325	0.0152005
690.403	0.0152594
690.481	0.0150585
690.559	0.0150529
690.637	0.0148913
690.715	0.0146529
690.793	0.0147143
690.871	0.0145255
690.950	0.0144959
691.028	0.0145017
691.106	0.0143192
691.184	0.0144514
691.262	0.0143439
691.340	0.0142916
691.418	0.0143217
691.496	0.0144083
691.575	0.0144539
691.653	0.0143281
691.731	0.0145968
691.809	0.0147073
691.887	0.0148716
691.965	0.0148479
692.043	0.0149564
692.121	0.0149994
692.200	0.0151424
692.278	0.0151698
692.356	0.0151780
692.434	0.0151548
692.512	0.0153316
692.590	0.0153284
692.668	0.0154102
692.746	0.0154436
692.825	0.0155174
692.903	0.0154314
692.981	0.0154101
693.059	0.0153313
693.137	0.0152552
693.215	0.0150024
693.293	0.0149359
693.371	0.0148367
693.450	0.0147441
693.528	0.0145655
693.606	0.0143710
693.684	0.0142629
693.762	0.0140816
693.840	0.0140166
693.918	0.0141069
693.996	0.0140775
694.075	0.0140081
694.153	0.0140656
694.231	0.0141090
694.309	0.0140594
694.387	0.0143376
694.465	0.0143438
694.543	0.0144213
694.621	0.0147477
694.700	0.0147237
694.778	0.0147533
694.856	0.0148733
694.934	0.0150502
695.012	0.0151336
695.090	0.0151150
695.168	0.0152626
695.246	0.0153147
695.325	0.0154211
695.403	0.0155086
695.481	0.0156189
695.559	0.0154743
695.637	0.0154697
695.715	0.0155180
695.793	0.0152469
695.871	0.0153476
695.950	0.0152104
696.028	0.0152485
696.106	0.0149712
696.184	0.0148270
696.262	0.0147864
696.340	0.0146147
696.418	0.0144302
696.496	0.0142323
696.575	0.0143563
696.653	0.0142238
696.731	0.0139540
696.809	0.0140346
696.887	0.0140599
696.965	0.0140307
697.043	0.0141428
697.121	0.0141422
697.200	0.0142474
697.278	0.0144757
697.356	0.0145842
697.434	0.0146797
697.512	0.0149115
697.590	0.0150197
697.668	0.0152155
697.746	0.0153071
697.825	0.0153513
697.903	0.0154568
697.981	0.0154006
698.059	0.0155784
698.137	0.0154456
698.215	0.0155823
698.293	0.0153056
698.371	0.0155092
698.450	0.0156015
698.528	0.0154408
698.606	0.0154209
698.684	0.0151716
698.762	0.0150620
698.840	0.0149395
698.918	0.0146465
698.996	0.0146255
699.075	0.0143041
699.153	0.0142499
699.231	0.0140899
699.309	0.0140481
699.387	0.0139530
699.465	0.0140134
699.543	0.0143618
699.621	0.0143523
699.700	0.0144490
699.778	0.0145795
699.856	0.0149186
699.934	0.0148444
700.012	0.0148347
700.090	0.0149251
700.168	0.0151488
700.246	0.0151207
700.325	0.0150658
700.403	0.0150558
700.481	0.0149929
700.559	0.0151639
700.637	0.0151797
700.715	0.0151059
700.793	0.0149539
700.871	0.0150234
700.950	0.0150277
701.028	0.0149674
701.106	0.0149910
701.184	0.0148873
701.262	0.0149418
701.340	0.0148814
701.418	0.0150014
701.496	0.0149029
701.575	0.0148665
701.653	0.0147890
701.731	0.0146930
701.809	0.0147398
701.887	0.0146284
701.965	0.0145474
702.043	0.0145959
702.121	0.0145078
702.200	0.0143685
702.278	0.0144878
702.356	0.0145839
702.434	0.0146824
702.512	0.0147021
702.590	0.0148178
702.668	0.0147986
702.746	0.0149245
702.825	0.0149567
702.903	0.0150771
702.981	0.0149369
703.059	0.0150546
703.137	0.0149911
703.215	0.0147857
703.293	0.0150088
703.371	0.0151232
703.450	0.0150155
703.528	0.0150093
703.606	0.0151783
703.684	0.0150998
703.762	0.0150462
703.840	0.0149687
703.918	0.0148646
703.996	0.0147264
704.075	0.0149142
704.153	0.0147543
704.231	0.0147537
704.309	0.0146237
704.387	0.0147232
704.465	0.0148525
704.543	0.0148504
704.621	0.0147177
704.700	0.0146611
704.778	0.0147722
704.856	0.0147378
704.934	0.0147451
705.012	0.0146473
705.090	0.0147459
705.168	0.0146436
705.246	0.0146202
705.325	0.0145953
705.403	0.0144666
705.481	0.0145485
705.559	0.0146163
705.637	0.0146715
705.715	0.0144769
705.793	0.0146680
705.871	0.0148609
705.950	0.0148806
706.028	0.0149066
706.106	0.0150155
706.184	0.0150542
706.262	0.0152174
706.340	0.0155251
706.418	0.0153052
706.496	0.0153432
706.575	0.0153507
706.653	0.0152747
706.731	0.0152325
706.809	0.0151405
706.887	0.0151510
706.965	0.0149704
707.043	0.0147793
707.121	0.0147710
707.200	0.0147758
707.278	0.0146548
707.356	0.0144325
707.434	0.0146914
707.512	0.0145440
707.590	0.0147196
707.668	0.0145459
707.746	0.0144394
707.825	0.0144507
707.903	0.0145558
707.981	0.0145062
708.059	0.0144315
708.137	0.0145742
708.215	0.0145142
708.293	0.0145059
708.371	0.0146210
708.450	0.0147821
708.528	0.0147495
708.606	0.0147050
708.684	0.0149128
708.762	0.0150002
708.840	0.0149815
708.918	0.0152073
708.996	0.0150367
709.075	0.0151664
709.153	0.0152460
709.231	0.0153176
709.309	0.0152271
709.387	0.0153059
709.465	0.0153207
709.543	0.0154646
709.621	0.0152460
709.700	0.0153014
709.778	0.0152986
709.856	0.0151752
709.934	0.0151469
710.012	0.0149464
710.090	0.0148618
710.168	0.0149377
710.246	0.0149791
710.325	0.0148558
710.403	0.0147318
710.481	0.0146393
710.559	0.0145218
710.637	0.0144557
710.715	0.0144150
710.793	0.0143181
710.871	0.0142937
710.950	0.0144321
711.028	0.0144434
711.106	0.0146466
711.184	0.0145172
711.262	0.0144244
711.340	0.0146258
711.418	0.0146777
711.496	0.0147661
711.575	0.0147786
711.653	0.0149467
711.731	0.0148794
711.809	0.0149736
711.887	0.0150629
711.965	0.0152734
712.043	0.0152714
712.121	0.0151970
712.200	0.0150869
712.278	0.0151659
712.356	0.0152418
712.434	0.0150909
712.512	0.0151051
712.590	0.0150707
712.668	0.0149793
712.746	0.0149651
712.825	0.0148147
712.903	0.0147621
712.981	0.0147503
713.059	0.0147010
713.137	0.0147589
713.215	0.0148841
713.293	0.0147923
713.371	0.0149103
713.450	0.0148182
713.528	0.0147681
713.606	0.0148087
713.684	0.0148916
713.762	0.0148546
713.840	0.0147438
713.918	0.0146670
713.996	0.0146358
714.075	0.0146655
714.153	0.0145135
714.231	0.0145159
714.309	0.0146247
714.387	0.0146907
714.465	0.0147291
714.543	0.0149389
714.621	0.0149487
714.700	0.0149433
714.778	0.0149332
714.856	0.0151349
714.934	0.0150713
715.012	0.0149945
715.090	0.0150568
715.168	0.0150550
715.246	0.0149503
715.325	0.0149007
715.403	0.0146440
715.481	0.0145046
715.559	0.0146962
715.637	0.0145685
715.715	0.0143974
715.793	0.0145054
715.871	0.0146197
715.950	0.0147501
716.028	0.0147822
716.106	0.0148337
716.184	0.0148517
716.262	0.0149527
716.340	0.0150433
716.418	0.0152222
716.496	0.0152529
716.575	0.0153265
716.653	0.0152180
716.731	0.0152465
716.809	0.0152363
716.887	0.0150962
716.965	0.0149435
717.043	0.0149690
717.121	0.0148982
717.200	0.0148140
717.278	0.0147021
717.356	0.0146426
717.434	0.0146415
717.512	0.0147906
717.590	0.0146382
717.668	0.0146287
717.746	0.0147523
717.825	0.0145687
717.903	0.0145544
717.981	0.0146565
718.059	0.0145776
718.137	0.0145534
718.215	0.0147660
718.293	0.0145071
718.371	0.0145214
718.450	0.0146104
718.528	0.0146930
718.606	0.0147250
718.684	0.0147955
718.762	0.0148454
718.840	0.0148454
718.918	0.0150589
718.996	0.0151665
719.075	0.0152913
719.153	0.0152345
719.231	0.0151010
719.309	0.0152610
719.387	0.0151617
719.465	0.0151561
719.543	0.0151574
719.621	0.0151305
719.700	0.0149527
719.778	0.0148832
719.856	0.0148541
719.934	0.0148536
720.012	0.0147722
720.090	0.0146581
720.168	0.0147136
720.246	0.0147443
720.325	0.0147608
720.403	0.0147605
720.481	0.0147295
720.559	0.0148625
720.637	0.0146661
720.715	0.0146558
720.793	0.0146998
720.871	0.0146611
720.950	0.0147077
721.028	0.0148150
721.106	0.0148721
721.184	0.0148675
721.262	0.0147272
721.340	0.0149079
721.418	0.0148650
721.496	0.0147461
721.575	0.0148560
721.653	0.0148170
721.731	0.0149175
721.809	0.0149864
721.887	0.0149864
721.965	0.0150584
722.043	0.0150170
722.121	0.0148588
722.200	0.0148776
722.278	0.0148837
722.356	0.0148264
722.434	0.0148651
722.512	0.0149806
722.590	0.0147063
722.668	0.0147129
722.746	0.0146690
722.825	0.0148479
722.903	0.0148322
722.981	0.0147977
723.059	0.0147200
723.137	0.0148177
723.215	0.0147912
723.293	0.0147858
723.371	0.0148187
723.450	0.0147163
723.528	0.0148566
723.606	0.0148140
723.684	0.0148245
723.762	0.0148476
723.840	0.0149001
723.918	0.0149416
723.996	0.0150438
724.075	0.0149654
724.153	0.0150498
724.231	0.0150167
724.309	0.0151405
724.387	0.0151204
724.465	0.0150881
724.543	0.0150806
724.621	0.0150731
724.700	0.0148590
724.778	0.0148553
724.856	0.0148930
724.934	0.0148042
725.012	0.0147165
725.090	0.0148058
725.168	0.0146989
725.246	0.0146156
725.325	0.0146285
725.403	0.0145031
725.481	0.0145878
725.559	0.0146060
725.637	0.0144762
725.715	0.0146697
725.793	0.0146381
725.871	0.0147755
725.950	0.0148454
726.028	0.0148264
726.106	0.0148564
726.184	0.0149406
726.262	0.0151881
726.340	0.0152172
726.418	0.0150926
726.496	0.0152489
726.575	0.0153535
726.653	0.0153182
726.731	0.0153416
726.809	0.0153758
726.887	0.0152901
726.965	0.0152560
727.043	0.0151363
727.121	0.0151479
727.200	0.0150008
727.278	0.0148524
727.356	0.0148427
727.434	0.0148352
727.512	0.0147850
727.590	0.0147434
727.668	0.0147384
727.746	0.0145778
727.825	0.0145887
727.903	0.0145462
727.981	0.0147350
728.059	0.0145502
728.137	0.0145679
728.215	0.0146025
728.293	0.0145471
728.371	0.0146168
728.450	0.0147058
728.528	0.0148035
728.606	0.0148022
728.684	0.0147389
728.762	0.0148539
728.840	0.0150202
728.918	0.0151326
728.996	0.0150282
729.075	0.0151630
729.153	0.0151460
729.231	0.0150709
729.309	0.0151487
729.387	0.0151643
729.465	0.0151515
729.543	0.0151385
729.621	0.0149893
729.700	0.0149513
729.778	0.0150112
729.856	0.0149790
729.934	0.0149329
730.012	0.0148012
730.090	0.0148698
730.168	0.0147814
730.246	0.0147923
730.325	0.0145952
730.403	0.0146730
730.481	0.0146371
730.559	0.0146776
730.637	0.0146897
730.715	0.0146886
730.793	0.0146938
730.871	0.0149615
730.950	0.0148597
731.028	0.0149303
731.106	0.0149086
731.184	0.0148538
731.262	0.0148908
731.340	0.0148859
731.418	0.0149709
731.496	0.0148466
731.575	0.0148432
731.653	0.0150695
731.731	0.0148624
731.809	0.0149330
731.887	0.0149049
731.965	0.0149293
732.043	0.0148665
732.121	0.0149455
732.200	0.0148235
732.278	0.0148386
732.356	0.0148585
732.434	0.0147651
732.512	0.0147804
732.590	0.0148365
732.668	0.0148357
732.746	0.0147412
732.825	0.0147175
732.903	0.0144913
732.981	0.0147251
733.059	0.0146944
733.137	0.0146928
733.215	0.0147459
733.293	0.0146536
733.371	0.0147527
733.450	0.0148210
733.528	0.0148513
733.606	0.0149743
733.684	0.0148664
733.762	0.0148257
733.840	0.0148495
733.918	0.0149210
733.996	0.0151135
734.075	0.0151795
734.153	0.0149854
734.231	0.0151695
734.309	0.0151286
734.387	0.0150628
734.465	0.0150156
734.543	0.0149048
734.621	0.0148093
734.700	0.0149268
734.778	0.0148994
734.856	0.0147187
734.934	0.0147709
735.012	0.0146976
735.090	0.0145617
735.168	0.0146352
735.246	0.0146754
735.325	0.0146412
735.403	0.0146485
735.481	0.0145074
735.559	0.0145876
735.637	0.0146900
735.715	0.0147552
735.793	0.0147081
735.871	0.0147193
735.950	0.0148840
736.028	0.0149841
736.106	0.0149406
736.184	0.0149744
736.262	0.0149702
736.340	0.0149915
736.418	0.0150534
736.496	0.0150378
736.575	0.0150228
736.653	0.0150668
736.731	0.0150883
736.809	0.0151462
736.887	0.0148517
736.965	0.0148730
737.043	0.0148962
737.121	0.0148569
737.200	0.0147998
737.278	0.0147155
737.356	0.0145395
737.434	0.0147008
737.512	0.0146475
737.590	0.0146512
737.668	0.0145839
737.746	0.0145412
737.825	0.0144845
737.903	0.0144305
737.981	0.0145163
738.059	0.0146540
738.137	0.0146112
738.215	0.0146362
738.293	0.0148560
738.371	0.0148486
738.450	0.0147674
738.528	0.0147626
738.606	0.0148707
738.684	0.0150960
738.762	0.0150767
738.840	0.0149203
738.918	0.0150162
738.996	0.0149046
739.075	0.0152548
739.153	0.0152468
739.231	0.0151018
739.309	0.0151019
739.387	0.0150271
739.465	0.0149419
739.543	0.0149358
739.621	0.0149542
739.700	0.0147800
739.778	0.0148621
739.856	0.0147414
739.934	0.0146386
740.012	0.0146794
740.090	0.0146725
740.168	0.0144996
740.246	0.0145538
740.325	0.0146663
740.403	0.0144158
740.481	0.0147440
740.559	0.0146366
740.637	0.0145773
740.715	0.0146968
740.793	0.0147011
740.871	0.0146905
740.950	0.0144936
741.028	0.0146992
741.106	0.0147764
741.184	0.0148236
741.262	0.0149944
741.340	0.0148158
741.418	0.0149357
741.496	0.0152211
741.575	0.0150204
741.653	0.0149646
741.731	0.0150032
741.809	0.0149371
741.887	0.0147727
741.965	0.0150645
742.043	0.0149259
742.121	0.0148376
742.200	0.0148532
742.278	0.0147092
742.356	0.0147319
742.434	0.0148962
742.512	0.0147917
742.590	0.0146897
742.668	0.0146127
742.746	0.0146740
742.825	0.0149256
742.903	0.0149132
742.981	0.0145566
743.059	0.0146355
743.137	0.0147738
743.215	0.0148003
743.293	0.0149174
743.371	0.0148908
743.450	0.0147565
743.528	0.0149940
743.606	0.0148680
743.684	0.0148271
743.762	0.0148763
743.840	0.0148208
743.918	0.0148170
743.996	0.0149392
744.075	0.0149557
744.153	0.0147287
744.231	0.0149396
744.309	0.0150526
744.387	0.0150135
744.465	0.0150956
744.543	0.0149940
744.621	0.0149200
744.700	0.0150135
744.778	0.0150381
744.856	0.0149187
744.934	0.0150342
745.012	0.0149358
745.090	0.0148976
745.168	0.0149181
745.246	0.0148808
745.325	0.0148631
745.403	0.0148400
745.481	0.0147701
745.559	0.0147900
745.637	0.0147482
745.715	0.0147144
745.793	0.0148505
745.871	0.0147542
745.950	0.0149129
746.028	0.0149886
746.106	0.0148639
746.184	0.0149908
746.262	0.0149191
746.340	0.0150750
746.418	0.0151981
746.496	0.0149681
746.575	0.0148680
746.653	0.0149181
746.731	0.0149413
746.809	0.0149080
746.887	0.0150998
746.965	0.0149960
747.043	0.0150293
747.121	0.0150080
747.200	0.0149670
747.278	0.0147802
747.356	0.0148148
747.434	0.0148674
747.512	0.0148942
747.590	0.0148640
747.668	0.0148436
747.746	0.0148601
747.825	0.0149809
747.903	0.0148780
747.981	0.0147744
748.059	0.0148057
748.137	0.0148742
748.215	0.0149184
748.293	0.0150065
748.371	0.0148386
748.450	0.0148382
748.528	0.0149300
748.606	0.0148972
748.684	0.0148418
748.762	0.0149741
748.840	0.0150339
748.918	0.0148646
748.996	0.0148983
749.075	0.0149211
749.153	0.0150303
749.231	0.0151229
749.309	0.0149770
749.387	0.0147816
749.465	0.0148376
749.543	0.0148434
749.621	0.0148927
749.700	0.0149214
749.778	0.0148049
749.856	0.0149630
749.934	0.0149506
750.012	0.0148714
750.090	0.0146651
750.168	0.0147494
750.246	0.0148785
750.325	0.0149023
750.403	0.0148811
750.481	0.0147957
750.559	0.0147209
750.637	0.0148315
750.715	0.0148483
750.793	0.0146881
750.871	0.0147940
750.950	0.0149027
751.028	0.0149846
751.106	0.0148775
751.184	0.0149271
751.262	0.0147353
751.340	0.0149998
751.418	0.0149706
751.496	0.0148471
751.575	0.0150332
751.653	0.0150290
751.731	0.0149015
751.809	0.0149496
751.887	0.0150386
751.965	0.0150942
752.043	0.0150135
752.121	0.0148986
752.200	0.0149849
752.278	0.0149211
752.356	0.0149089
752.434	0.0149681
752.512	0.0150926
752.590	0.0148938
752.668	0.0147387
752.746	0.0149026
752.825	0.0148779
752.903	0.0149549
752.981	0.0149485
753.059	0.0148032
753.137	0.0148076
753.215	0.0147205
753.293	0.0146691
753.371	0.0148775
753.450	0.0146625
753.528	0.0147953
753.606	0.0147611
753.684	0.0146729
753.762	0.0146722
753.840	0.0149192
753.918	0.0147196
753.996	0.0148118
754.075	0.0148207
754.153	0.0147995
754.231	0.0148836
754.309	0.0148541
754.387	0.0149192
754.465	0.0149290
754.543	0.0147376
754.621	0.0148681
754.700	0.0150590
754.778	0.0148016
754.856	0.0148604
754.934	0.0149192
755.012	0.0148876
755.090	0.0149491
755.168	0.0148926
755.246	0.0149291
755.325	0.0149796
755.403	0.0149953
755.481	0.0149632
755.559	0.0149081
755.637	0.0149157
755.715	0.0148914
755.793	0.0148991
755.871	0.0148590
755.950	0.0148423
756.028	0.0147948
756.106	0.0149603
756.184	0.0147808
756.262	0.0147137
756.340	0.0147916
756.418	0.0148567
756.496	0.0149491
756.575	0.0149118
756.653	0.0148383
756.731	0.0148723
756.809	0.0148785
756.887	0.0148265
756.965	0.0148270
757.043	0.0148333
757.121	0.0149229
757.200	0.0149683
757.278	0.0149736
757.356	0.0149194
757.434	0.0149645
757.512	0.0149737
757.590	0.0148283
757.668	0.0150136
757.746	0.0148219
757.825	0.0147661
757.903	0.0146981
757.981	0.0148354
758.059	0.0148486
758.137	0.0148769
758.215	0.0149027
758.293	0.0148000
758.371	0.0147119
758.450	0.0148516
758.528	0.0149105
758.606	0.0149379
758.684	0.0148660
758.762	0.0147313
758.840	0.0148848
758.918	0.0148978
758.996	0.0149644
759.075	0.0149613
759.153	0.0148723
759.231	0.0149709
759.309	0.0150441
759.387	0.0150229
759.465	0.0150730
759.543	0.0149892
759.621	0.0149244
759.700	0.0149871
759.778	0.0151082
759.856	0.0150025
759.934	0.0147910
760.012	0.0148906
760.090	0.0150204
760.168	0.0147919
760.246	0.0149137
760.325	0.0148133
760.403	0.0147627
760.481	0.0148987
760.559	0.0147969
760.637	0.0148353
760.715	0.0147901
760.793	0.0149387
760.871	0.0147527
760.950	0.0148019
761.028	0.0147257
761.106	0.0146382
761.184	0.0147744
761.262	0.0147656
761.340	0.0149023
761.418	0.0148979
761.496	0.0148455
761.575	0.0148389
761.653	0.0147785
761.731	0.0149027
761.809	0.0149403
761.887	0.0148132
761.965	0.0147678
762.043	0.0148036
762.121	0.0148493
762.200	0.0148130
762.278	0.0146737
762.356	0.0147252
762.434	0.0147532
762.512	0.0148225
762.590	0.0147424
762.668	0.0147836
762.746	0.0147380
762.825	0.0148717
762.903	0.0147433
762.981	0.0146207
763.059	0.0148250
763.137	0.0147702
763.215	0.0147905
763.293	0.0147536
763.371	0.0148460
763.450	0.0148177
763.528	0.0147020
763.606	0.0148550
763.684	0.0149371
763.762	0.0147759
763.840	0.0147974
763.918	0.0147466
763.996	0.0148605
764.075	0.0148891
764.153	0.0147373
764.231	0.0147983
764.309	0.0147328
764.387	0.0148502
764.465	0.0147720
764.543	0.0147794
764.621	0.0146738
764.700	0.0148389
764.778	0.0148456
764.856	0.0147697
764.934	0.0148177
765.012	0.0147622
765.090	0.0146964
765.168	0.0147950
765.246	0.0148774
765.325	0.0148052
765.403	0.0147411
765.481	0.0148204
765.559	0.0148019
765.637	0.0147739
765.715	0.0148098
765.793	0.0148505
765.871	0.0147440
765.950	0.0148691
766.028	0.0148479
766.106	0.0147539
766.184	0.0148206
766.262	0.0147406
766.340	0.0147570
766.418	0.0147684
766.496	0.0147584
766.575	0.0146963
766.653	0.0146576
766.731	0.0147575
766.809	0.0149107
766.887	0.0148469
766.965	0.0147728
767.043	0.0147857
767.121	0.0148354
767.200	0.0147650
767.278	0.0147546
767.356	0.0149132
767.434	0.0149109
767.512	0.0147314
767.590	0.0148954
767.668	0.0150323
767.746	0.0148447
767.825	0.0146665
767.903	0.0147137
767.981	0.0148163
768.059	0.0149442
768.137	0.0148911
768.215	0.0147251
768.293	0.0147657
768.371	0.0147266
768.450	0.0147989
768.528	0.0147429
768.606	0.0147761
768.684	0.0149038
768.762	0.0146750
768.840	0.0147787
768.918	0.0148927
768.996	0.0148615
769.075	0.0149836
769.153	0.0150212
769.231	0.0149763
769.309	0.0148512
769.387	0.0148559
769.465	0.0150030
769.543	0.0148594
769.621	0.0149277
769.700	0.0147182
769.778	0.0148159
769.856	0.0147634
769.934	0.0148814
770.012	0.0148905
770.090	0.0148531
770.168	0.0149300
770.246	0.0146983
770.325	0.0146587
770.403	0.0150228
770.481	0.0148808
770.559	0.0147977
770.637	0.0148587
770.715	0.0149111
770.793	0.0147888
770.871	0.0147161
770.950	0.0147748
771.028	0.0150023
771.106	0.0149331
771.184	0.0148715
771.262	0.0149036
771.340	0.0147298
771.418	0.0148448
771.496	0.0148104
771.575	0.0149947
771.653	0.0148512
771.731	0.0147342
771.809	0.0148569
771.887	0.0147247
771.965	0.0148302
772.043	0.0149621
772.121	0.0148457
772.200	0.0149397
772.278	0.0149178
772.356	0.0149849
772.434	0.0148814
772.512	0.0148988
772.590	0.0147824
772.668	0.0149592
772.746	0.0149838
772.825	0.0149211
772.903	0.0148979
772.981	0.0149274
773.059	0.0148493
773.137	0.0149010
773.215	0.0149755
773.293	0.0148862
773.371	0.0147510
773.450	0.0148550
773.528	0.0148359
773.606	0.0148262
773.684	0.0149371
773.762	0.0147595
773.840	0.0148111
773.918	0.0147844
773.996	0.0147556
774.075	0.0148304
774.153	0.0148618
774.231	0.0149815
774.309	0.0148473
774.387	0.0147514
774.465	0.0148380
774.543	0.0148506
774.621	0.0147060
774.700	0.0148371
774.778	0.0150494
774.856	0.0148853
774.934	0.0149505
775.012	0.0149320
775.090	0.0149297
775.168	0.0150000
775.246	0.0148952
775.325	0.0150484
775.403	0.0148963
775.481	0.0148129
775.559	0.0149707
775.637	0.0148210
775.715	0.0148248
775.793	0.0150525
775.871	0.0149143
775.950	0.0148787
776.028	0.0148778
776.106	0.0147502
776.184	0.0148164
776.262	0.0149141
776.340	0.0147588
776.418	0.0147709
776.496	0.0148078
776.575	0.0147682
776.653	0.0147614
776.731	0.0148001
776.809	0.0146944
776.887	0.0148351
776.965	0.0151183
777.043	0.0149596
777.121	0.0147712
777.200	0.0147964
777.278	0.0149064
777.356	0.0149417
777.434	0.0149206
777.512	0.0148951
777.590	0.0149488
777.668	0.0149653
777.746	0.0149752
777.825	0.0149899
777.903	0.0149606
777.981	0.0150340
778.059	0.0149745
778.137	0.0149992
778.215	0.0148574
778.293	0.0148852
778.371	0.0149318
778.450	0.0148682
778.528	0.0147795
778.606	0.0148087
778.684	0.0148069
778.762	0.0147453
778.840	0.0148231
778.918	0.0147606
778.996	0.0148108
779.075	0.0147610
779.153	0.0147009
779.231	0.0147353
779.309	0.0148135
779.387	0.0148259
779.465	0.0148718
779.543	0.0149590
779.621	0.0147572
779.700	0.0147242
779.778	0.0148210
779.856	0.0148454
779.934	0.0150552
780.012	0.0148476
780.090	0.0147614
780.168	0.0149223
780.246	0.0147514
780.325	0.0149756
780.403	0.0149529
780.481	0.0148631
780.559	0.0148015
780.637	0.0148578
780.715	0.0148800
780.793	0.0148373
780.871	0.0148118
780.950	0.0148273
781.028	0.0148703
781.106	0.0149036
781.184	0.0147277
781.262	0.0148186
781.340	0.0147536
781.418	0.0146306
781.496	0.0148223
781.575	0.0147792
781.653	0.0147273
781.731	0.0149197
781.809	0.0149283
781.887	0.0148682
781.965	0.0148770
782.043	0.0147610
782.121	0.0149415
782.200	0.0149239
782.278	0.0149615
782.356	0.0149920
782.434	0.0148442
782.512	0.0148635
782.590	0.0148613
782.668	0.0149617
782.746	0.0148974
782.825	0.0148557
782.903	0.0148280
782.981	0.0148125
783.059	0.0149196
783.137	0.0149802
783.215	0.0146772
783.293	0.0147453
783.371	0.0147900
783.450	0.0147363
783.528	0.0147932
783.606	0.0147979
783.684	0.0146430
783.762	0.0146884
783.840	0.0148949
783.918	0.0147682
783.996	0.0146810
784.075	0.0149054
784.153	0.0148428
784.231	0.0148449
784.309	0.0149191
784.387	0.0148433
784.465	0.0148583
784.543	0.0147868
784.621	0.0148757
784.700	0.0148532
784.778	0.0149561
784.856	0.0148249
784.934	0.0148800
785.012	0.0149806
785.090	0.0149236
785.168	0.0148885
785.246	0.0148687
785.325	0.0147637
785.403	0.0148460
785.481	0.0148216
785.559	0.0148489
785.637	0.0148154
785.715	0.0147790
785.793	0.0148382
785.871	0.0150494
785.950	0.0149482
786.028	0.0147060
786.106	0.0149141
786.184	0.0149033
786.262	0.0148656
786.340	0.0149057
786.418	0.0148746
786.496	0.0149362
786.575	0.0148650
786.653	0.0148307
786.731	0.0147820
786.809	0.0149705
786.887	0.0148004
786.965	0.0148017
787.043	0.0148370
787.121	0.0148808
787.200	0.0149323
787.278	0.0149255
787.356	0.0149216
787.434	0.0147184
787.512	0.0148354
787.590	0.0148430
787.668	0.0147948
787.746	0.0148617
787.825	0.0147765
787.903	0.0147440
787.981	0.0148682
788.059	0.0146931
788.137	0.0148608
788.215	0.0148244
788.293	0.0146651
788.371	0.0148272
788.450	0.0146730
788.528	0.0147314
788.606	0.0147411
788.684	0.0147890
788.762	0.0148077
788.840	0.0148029
788.918	0.0148171
788.996	0.0149796
789.075	0.0149019
789.153	0.0147407
789.231	0.0147788
789.309	0.0148268
789.387	0.0149590
789.465	0.0148381
789.543	0.0147955
789.621	0.0148381
789.700	0.0147923
789.778	0.0147337
789.856	0.0147864
789.934	0.0147133
790.012	0.0147393
790.090	0.0147807
790.168	0.0146655
790.246	0.0147550
790.325	0.0149605
790.403	0.0148310
790.481	0.0149030
790.559	0.0148113
790.637	0.0149655
790.715	0.0148652
790.793	0.0149422
790.871	0.0147522
790.950	0.0148721
791.028	0.0149104
791.106	0.0147873
791.184	0.0147962
791.262	0.0150450
791.340	0.0149462
791.418	0.0147671
791.496	0.0147906
791.575	0.0148524
791.653	0.0148989
791.731	0.0147987
791.809	0.0148447
791.887	0.0149931
791.965	0.0148958
792.043	0.0147424
792.121	0.0150173
792.200	0.0147826
792.278	0.0147015
792.356	0.0149045
792.434	0.0149964
792.512	0.0148383
792.590	0.0147207
792.668	0.0147837
792.746	0.0148234
792.825	0.0148587
792.903	0.0148144
792.981	0.0148903
793.059	0.0147366
793.137	0.0146090
793.215	0.0147787
793.293	0.0148544
793.371	0.0148471
793.450	0.0147668
793.528	0.0148103
793.606	0.0147726
793.684	0.0147039
793.762	0.0148531
793.840	0.0149074
793.918	0.0148750
793.996	0.0148656
794.075	0.0148125
794.153	0.0148516
794.231	0.0150052
794.309	0.0149731
794.387	0.0149419
794.465	0.0148769
794.543	0.0148517
794.621	0.0149675
794.700	0.0148740
794.778	0.0147659
794.856	0.0149716
794.934	0.0148424
795.012	0.0147845
795.090	0.0148298
795.168	0.0148246
795.246	0.0148470
795.325	0.0147579
795.403	0.0148724
795.481	0.0147729
795.559	0.0148333
795.637	0.0148337
795.715	0.0147218
795.793	0.0147275
795.871	0.0149094
795.950	0.0148182
796.028	0.0146082
796.106	0.0148558
796.184	0.0147856
796.262	0.0147975
796.340	0.0147239
796.418	0.0149005
796.496	0.0147797
796.575	0.0147001
796.653	0.0148909
796.731	0.0148241
796.809	0.0147211
796.887	0.0148170
796.965	0.0149210
797.043	0.0147845
797.121	0.0148747
797.200	0.0147454
797.278	0.0149180
797.356	0.0148491
797.434	0.0148734
797.512	0.0148405
797.590	0.0148805
797.668	0.0148817
797.746	0.0147902
797.825	0.0148394
797.903	0.0147771
797.981	0.0146352
798.059	0.0147212
798.137	0.0148637
798.215	0.0149244
798.293	0.0148102
798.371	0.0147441
798.450	0.0147382
798.528	0.0147730
798.606	0.0148163
798.684	0.0148337
798.762	0.0149203
798.840	0.0148654
798.918	0.0148753
798.996	0.0148106
799.075	0.0148656
799.153	0.0147416
799.231	0.0150002
799.309	0.0148164
799.387	0.0147935
799.465	0.0149705
799.543	0.0150039
799.621	0.0148217
799.700	0.0147813
799.778	0.0147168
799.856	0.0147017
799.934	0.0147286
800.012	0.0148335
800.090	0.0147543
800.168	0.0149420
800.246	0.0149051
800.325	0.0149517
800.403	0.0148357
800.481	0.0147287
800.559	0.0147789
800.637	0.0149143
800.715	0.0148223
800.793	0.0148409
800.871	0.0148164
800.950	0.0147800
801.028	0.0149048
801.106	0.0148946
801.184	0.0147935
801.262	0.0147161
801.340	0.0148090
801.418	0.0148682
801.496	0.0147578
801.575	0.0147598
801.653	0.0149216
801.731	0.0148624
801.809	0.0148972
801.887	0.0148727
801.965	0.0148099
802.043	0.0148855
802.121	0.0149657
802.200	0.0149342
802.278	0.0149233
802.356	0.0149773
802.434	0.0149657
802.512	0.0148499
802.590	0.0148827
802.668	0.0149497
802.746	0.0150121
802.825	0.0148204
802.903	0.0148614
802.981	0.0149702
803.059	0.0150002
803.137	0.0149386
803.215	0.0148515
803.293	0.0148659
803.371	0.0149133
803.450	0.0148560
803.528	0.0147863
803.606	0.0148782
803.684	0.0149213
803.762	0.0148065
803.840	0.0149011
803.918	0.0148376
803.996	0.0146779
804.075	0.0148846
804.153	0.0148401
804.231	0.0147894
804.309	0.0147349
804.387	0.0147783
804.465	0.0148608
804.543	0.0149194
804.621	0.0149673
804.700	0.0148511
804.778	0.0147474
804.856	0.0148227
804.934	0.0148974
805.012	0.0148118
805.090	0.0147369
805.168	0.0148273
805.246	0.0147945
805.325	0.0149063
805.403	0.0148909
805.481	0.0148010
805.559	0.0148183
805.637	0.0148463
805.715	0.0148959
805.793	0.0148944
805.871	0.0147800
805.950	0.0147057
806.028	0.0148219
806.106	0.0148426
806.184	0.0148547
806.262	0.0147918
806.340	0.0148590
806.418	0.0149223
806.496	0.0148214
806.575	0.0146786
806.653	0.0148000
806.731	0.0149636
806.809	0.0147601
806.887	0.0148488
806.965	0.0149256
807.043	0.0147470
807.121	0.0149632
807.200	0.0148450
807.278	0.0148808
807.356	0.0147934
807.434	0.0148041
807.512	0.0148225
807.590	0.0147513
807.668	0.0148304
807.746	0.0148072
807.825	0.0147206
807.903	0.0148489
807.981	0.0148721
808.059	0.0148207
808.137	0.0149451
808.215	0.0148565
808.293	0.0148927
808.371	0.0148461
808.450	0.0149506
808.528	0.0148847
808.606	0.0148708
808.684	0.0147284
808.762	0.0148629
808.840	0.0148930
808.918	0.0148650
808.996	0.0148479
809.075	0.0147821
809.153	0.0148149
809.231	0.0150413
809.309	0.0148379
809.387	0.0148628
809.465	0.0148568
809.543	0.0149728
809.621	0.0148755
809.700	0.0148770
809.778	0.0147850
809.856	0.0148890
809.934	0.0147620
810.012	0.0147910
810.090	0.0146663
810.168	0.0148047
810.246	0.0148562
810.325	0.0148009
810.403	0.0148615
810.481	0.0148608
810.559	0.0147441
810.637	0.0147845
810.715	0.0148284
810.793	0.0148663
810.871	0.0148562
810.950	0.0148866
811.028	0.0147197
811.106	0.0149077
811.184	0.0148208
811.262	0.0148151
811.340	0.0149324
811.418	0.0148286
811.496	0.0148074
811.575	0.0148054
811.653	0.0149506
811.731	0.0150256
811.809	0.0148737
811.887	0.0149006
811.965	0.0148067
812.043	0.0147516
812.121	0.0147968
812.200	0.0149368
812.278	0.0148716
812.356	0.0149449
812.434	0.0148278
812.512	0.0148487
812.590	0.0149247
812.668	0.0149062
812.746	0.0149104
812.825	0.0150246
812.903	0.0149607
812.981	0.0149150
813.059	0.0148722
813.137	0.0148702
813.215	0.0147900
813.293	0.0148517
813.371	0.0146664
813.450	0.0147160
813.528	0.0147802
813.606	0.0148587
813.684	0.0147300
813.762	0.0147240
813.840	0.0147932
813.918	0.0148268
813.996	0.0147953
814.075	0.0147065
814.153	0.0148038
814.231	0.0147480
814.309	0.0148633
814.387	0.0148062
814.465	0.0149416
814.543	0.0149754
814.621	0.0149234
814.700	0.0149852
814.778	0.0149668
814.856	0.0148831
814.934	0.0149047
815.012	0.0149467
815.090	0.0149303
815.168	0.0148315
815.246	0.0149376
815.325	0.0149071
815.403	0.0147894
815.481	0.0148051
815.559	0.0148884
815.637	0.0149007
815.715	0.0148144
815.793	0.0148093
815.871	0.0148629
815.950	0.0148378
816.028	0.0149232
816.106	0.0148077
816.184	0.0148161
816.262	0.0148087
816.340	0.0147620
816.418	0.0148070
816.496	0.0147372
816.575	0.0148182
816.653	0.0148365
816.731	0.0148315
816.809	0.0147316
816.887	0.0147107
816.965	0.0146668
817.043	0.0148042
817.121	0.0149226
817.200	0.0149229
817.278	0.0150018
817.356	0.0148230
817.434	0.0148785
817.512	0.0147656
817.590	0.0148052
817.668	0.0147971
817.746	0.0147613
817.825	0.0148833
817.903	0.0149274
817.981	0.0148962
818.059	0.0147723
818.137	0.0148152
818.215	0.0150115
818.293	0.0148859
818.371	0.0148483
818.450	0.0148541
818.528	0.0149525
818.606	0.0148780
818.684	0.0147795
818.762	0.0147170
818.840	0.0147617
818.918	0.0147608
818.996	0.0148055
819.075	0.0147622
819.153	0.0147684
819.231	0.0149767
819.309	0.0148129
819.387	0.0147771
819.465	0.0148748
819.543	0.0148327
819.621	0.0147330
819.700	0.0147662
819.778	0.0148191
819.856	0.0147369
819.934	0.0147208
820.012	0.0148052
820.090	0.0148264
820.168	0.0147996
820.246	0.0147773
820.325	0.0147775
820.403	0.0148519
820.481	0.0148071
820.559	0.0148468
820.637	0.0147817
820.715	0.0148381
820.793	0.0147383
820.871	0.0147221
820.950	0.0146844
821.028	0.0147737
821.106	0.0148426
821.184	0.0148696
821.262	0.0147028
821.340	0.0148515
821.418	0.0148662
821.496	0.0148158
821.575	0.0148238
821.653	0.0146560
821.731	0.0147621
821.809	0.0146073
821.887	0.0147487
821.965	0.0147335
822.043	0.0147272
822.121	0.0148244
822.200	0.0147990
822.278	0.0147567
822.356	0.0147821
822.434	0.0147909
822.512	0.0148190
822.590	0.0148916
822.668	0.0147724
822.746	0.0147985
822.825	0.0148066
822.903	0.0148907
822.981	0.0148280
823.059	0.0148241
823.137	0.0150043
823.215	0.0149486
823.293	0.0149193
823.371	0.0148994
823.450	0.0148746
823.528	0.0148549
823.606	0.0147825
823.684	0.0148041
823.762	0.0149461
823.840	0.0148057
823.918	0.0148505
823.996	0.0147795
824.075	0.0149504
824.153	0.0148272
824.231	0.0147805
824.309	0.0147612
824.387	0.0147790
824.465	0.0146961
824.543	0.0146888
824.621	0.0148592
824.700	0.0148970
824.778	0.0146641
824.856	0.0147953
824.934	0.0148189
825.012	0.0147023
825.090	0.0148965
825.168	0.0148795
825.246	0.0149471
825.325	0.0148071
825.403	0.0149321
825.481	0.0148270
825.559	0.0148805
825.637	0.0148714
825.715	0.0147997
825.793	0.0148591
825.871	0.0149293
825.950	0.0148505
826.028	0.0148894
826.106	0.0149471
826.184	0.0148972
826.262	0.0149449
826.340	0.0150172
826.418	0.0149174
826.496	0.0147383
826.575	0.0148782
826.653	0.0148775
826.731	0.0150122
826.809	0.0149216
826.887	0.0148499
826.965	0.0149325
827.043	0.0147539
827.121	0.0148710
827.200	0.0147824
827.278	0.0147507
827.356	0.0149033
827.434	0.0147768
827.512	0.0148425
827.590	0.0148602
827.668	0.0148348
827.746	0.0147481
827.825	0.0147404
827.903	0.0148566
827.981	0.0148872
828.059	0.0147901
828.137	0.0148817
828.215	0.0149527
828.293	0.0148851
828.371	0.0148553
828.450	0.0148037
828.528	0.0149965
828.606	0.0148565
828.684	0.0149772
828.762	0.0147449
828.840	0.0148695
828.918	0.0148526
828.996	0.0148269
829.075	0.0148410
829.153	0.0147511
829.231	0.0149633
829.309	0.0148194
829.387	0.0146970
829.465	0.0147688
829.543	0.0147389
829.621	0.0147267
829.700	0.0147382
829.778	0.0148574
829.856	0.0147952
829.934	0.0148538
830.012	0.0147414
830.090	0.0147546
830.168	0.0147651
830.246	0.0149369
830.325	0.0147934
830.403	0.0149458
830.481	0.0148470
830.559	0.0148138
830.637	0.0147680
830.715	0.0148925
830.793	0.0147546
830.871	0.0148271
830.950	0.0149450
831.028	0.0149639
831.106	0.0148389
831.184	0.0148096
831.262	0.0147725
831.340	0.0147305
831.418	0.0148404
831.496	0.0148881
831.575	0.0147980
831.653	0.0148481
831.731	0.0149136
831.809	0.0148219
831.887	0.0148242
831.965	0.0147592
832.043	0.0149647
832.121	0.0148158
832.200	0.0148093
832.278	0.0148760
832.356	0.0148661
832.434	0.0148656
832.512	0.0148571
832.590	0.0146728
832.668	0.0147620
832.746	0.0146799
832.825	0.0147675
832.903	0.0147926
832.981	0.0146130
833.059	0.0148450
833.137	0.0148172
833.215	0.0146786
833.293	0.0148638
833.371	0.0147251
833.450	0.0146227
833.528	0.0147391
833.606	0.0149676
833.684	0.0148632
833.762	0.0149285
833.840	0.0148606
833.918	0.0148941
833.996	0.0150130
834.075	0.0148278
834.153	0.0149698
834.231	0.0148853
834.309	0.0148628
834.387	0.0149696
834.465	0.0148817
834.543	0.0150277
834.621	0.0149516
834.700	0.0147763
834.778	0.0149210
834.856	0.0148656
834.934	0.0149194
835.012	0.0147708
835.090	0.0148046
835.168	0.0148531
835.246	0.0147885
835.325	0.0148526
835.403	0.0148578
835.481	0.0147511
835.559	0.0149262
835.637	0.0148082
835.715	0.0149335
835.793	0.0148285
835.871	0.0148814
835.950	0.0148586
836.028	0.0148694
836.106	0.0150045
836.184	0.0148603
836.262	0.0148450
836.340	0.0150960
836.418	0.0148851
836.496	0.0148405
836.575	0.0149010
836.653	0.0149879
836.731	0.0148215
836.809	0.0148679
836.887	0.0149567
836.965	0.0148065
837.043	0.0149089
837.121	0.0147856
837.200	0.0148052
837.278	0.0148158
837.356	0.0148339
837.434	0.0147757
837.512	0.0148372
837.590	0.0148306
837.668	0.0147630
837.746	0.0146941
837.825	0.0149070
837.903	0.0148792
837.981	0.0148598
838.059	0.0149329
838.137	0.0150301
838.215	0.0148184
838.293	0.0148158
838.371	0.0148942
838.450	0.0149046
838.528	0.0148463
838.606	0.0149061
838.684	0.0150245
838.762	0.0148811
838.840	0.0148434
838.918	0.0148933
838.996	0.0147800
839.075	0.0148299
839.153	0.0149194
839.231	0.0148476
839.309	0.0146481
839.387	0.0148312
839.465	0.0148877
839.543	0.0148314
839.621	0.0148251
839.700	0.0147152
839.778	0.0149891
839.856	0.0148955
839.934	0.0147439
840.012	0.0148766
840.090	0.0148502
840.168	0.0147572
840.246	0.0147821
840.325	0.0147611
840.403	0.0146999
840.481	0.0147263
840.559	0.0147421
840.637	0.0144949
840.715	0.0146795
840.793	0.0148038
840.871	0.0146112
840.950	0.0147409
841.028	0.0146273
841.106	0.0147403
841.184	0.0148171
841.262	0.0147307
841.340	0.0147468
841.418	0.0147305
841.496	0.0149194
841.575	0.0147349
841.653	0.0148407
841.731	0.0148743
841.809	0.0148708
841.887	0.0147348
841.965	0.0148520
842.043	0.0149619
842.121	0.0149696
842.200	0.0149213
842.278	0.0149711
842.356	0.0149478
842.434	0.0148357
842.512	0.0148948
842.590	0.0148493
842.668	0.0148710
842.746	0.0149203
842.825	0.0148291
842.903	0.0148917
842.981	0.0149040
843.059	0.0147488
843.137	0.0148627
843.215	0.0148561
843.293	0.0148813
843.371	0.0147952
843.450	0.0147220
843.528	0.0149022
843.606	0.0149004
843.684	0.0148651
843.762	0.0148789
843.840	0.0149265
843.918	0.0147675
843.996	0.0147656
844.075	0.0148124
844.153	0.0147715
844.231	0.0150167
844.309	0.0148652
844.387	0.0147458
844.465	0.0148988
844.543	0.0147604
844.621	0.0147740
844.700	0.0147457
844.778	0.0148437
844.856	0.0148318
844.934	0.0148247
845.012	0.0149771
845.090	0.0148848
845.168	0.0148713
845.246	0.0147749
845.325	0.0147334
845.403	0.0148382
845.481	0.0148033
845.559	0.0146821
845.637	0.0148129
845.715	0.0148105
845.793	0.0149089
845.871	0.0148136
845.950	0.0148267
846.028	0.0147525
846.106	0.0148262
846.184	0.0147336
846.262	0.0146703
846.340	0.0148141
846.418	0.0148497
846.496	0.0147644
846.575	0.0147930
846.653	0.0148250
846.731	0.0148617
846.809	0.0147867
846.887	0.0146758
846.965	0.0148213
847.043	0.0149074
847.121	0.0147543
847.200	0.0148820
847.278	0.0147472
847.356	0.0147880
847.434	0.0149261
847.512	0.0147459
847.590	0.0149105
847.668	0.0150122
847.746	0.0148827
847.825	0.0147749
847.903	0.0148439
847.981	0.0149094
848.059	0.0147736
848.137	0.0146790
848.215	0.0147249
848.293	0.0148578
848.371	0.0148753
848.450	0.0149103
848.528	0.0146938
848.606	0.0146407
848.684	0.0147527
848.762	0.0148392
848.840	0.0148734
848.918	0.0148788
848.996	0.0147785
849.075	0.0147819
849.153	0.0149119
849.231	0.0147287
849.309	0.0148362
849.387	0.0147106
849.465	0.0148070
849.543	0.0147290
849.621	0.0148067
849.700	0.0149902
849.778	0.0148824
849.856	0.0148615
849.934	0.0148235
850.012	0.0147339
850.090	0.0147746
850.168	0.0147874
850.246	0.0147739
850.325	0.0148807
850.403	0.0149030
850.481	0.0147549
850.559	0.0148986
850.637	0.0147829
850.715	0.0148199
850.793	0.0150016
850.871	0.0148463
850.950	0.0148584
851.028	0.0149707
851.106	0.0148743
851.184	0.0148067
851.262	0.0147311
851.340	0.0147399
851.418	0.0147681
851.496	0.0148584
851.575	0.0147276
851.653	0.0148244
851.731	0.0149030
851.809	0.0148769
851.887	0.0147279
851.965	0.0147631
852.043	0.0147179
852.121	0.0148019
852.200	0.0148950
852.278	0.0149571
852.356	0.0149500
852.434	0.0149135
852.512	0.0148190
852.590	0.0148969
852.668	0.0148130
852.746	0.0148830
852.825	0.0149070
852.903	0.0148673
852.981	0.0148194
853.059	0.0148528
853.137	0.0148704
853.215	0.0147707
853.293	0.0146650
853.371	0.0148378
853.450	0.0148440
853.528	0.0148173
853.606	0.0147196
853.684	0.0149139
853.762	0.0148405
853.840	0.0147815
853.918	0.0147295
853.996	0.0147731
854.075	0.0148301
854.153	0.0147141
854.231	0.0148119
854.309	0.0149020
854.387	0.0148133
854.465	0.0147131
854.543	0.0148725
854.621	0.0148635
854.700	0.0148694
854.778	0.0148212
854.856	0.0148563
854.934	0.0148542
855.012	0.0148106
855.090	0.0148248
855.168	0.0148100
855.246	0.0148724
855.325	0.0149448
855.403	0.0149513
855.481	0.0148146
855.559	0.0148685
855.637	0.0148615
855.715	0.0148934
855.793	0.0149132
855.871	0.0147285
855.950	0.0149056
856.028	0.0147593
856.106	0.0147317
856.184	0.0147769
856.262	0.0147554
856.340	0.0148641
856.418	0.0147013
856.496	0.0147445
856.575	0.0147636
856.653	0.0148354
856.731	0.0148700
856.809	0.0149015
856.887	0.0147175
856.965	0.0147603
857.043	0.0147352
857.121	0.0148653
857.200	0.0147713
857.278	0.0148228
857.356	0.0147890
857.434	0.0147992
857.512	0.0148681
857.590	0.0149598
857.668	0.0148107
857.746	0.0148989
857.825	0.0148170
857.903	0.0148578
857.981	0.0147928
858.059	0.0148415
858.137	0.0147993
858.215	0.0148542
858.293	0.0149074
858.371	0.0148438
858.450	0.0147375
858.528	0.0149149
858.606	0.0149187
858.684	0.0148232
858.762	0.0147984
858.840	0.0147935
858.918	0.0147277
858.996	0.0149142
859.075	0.0148077
859.153	0.0148943
859.231	0.0149429
859.309	0.0147829
859.387	0.0147073
859.465	0.0148415
859.543	0.0149357
859.621	0.0149859
859.700	0.0147495
859.778	0.0148129
859.856	0.0148964
859.934	0.0148357
860.012	0.0149330
860.090	0.0148984
860.168	0.0148358
860.246	0.0149419
860.325	0.0148668
860.403	0.0149672
860.481	0.0149100
860.559	0.0148615
860.637	0.0149222
860.715	0.0148043
860.793	0.0147723
860.871	0.0148034
860.950	0.0147613
861.028	0.0148788
861.106	0.0149631
861.184	0.0148499
861.262	0.0146935
861.340	0.0148274
861.418	0.0150004
861.496	0.0147379
861.575	0.0147131
861.653	0.0148034
861.731	0.0146967
861.809	0.0148444
861.887	0.0148844
861.965	0.0148326
862.043	0.0148917
862.121	0.0149355
862.200	0.0147745
862.278	0.0149168
862.356	0.0148322
862.434	0.0148331
862.512	0.0148739
862.590	0.0149062
862.668	0.0149343
862.746	0.0147372
862.825	0.0148874
862.903	0.0148613
862.981	0.0148436
863.059	0.0148563
863.137	0.0149109
863.215	0.0149134
863.293	0.0148830
863.371	0.0148110
863.450	0.0149399
863.528	0.0149045
863.606	0.0147890
863.684	0.0148111
863.762	0.0147416
863.840	0.0147287
863.918	0.0148974
863.996	0.0147558
864.075	0.0148135
864.153	0.0146311
864.231	0.0147502
864.309	0.0148377
864.387	0.0147730
864.465	0.0148427
864.543	0.0148589
864.621	0.0148930
864.700	0.0149216
864.778	0.0149034
864.856	0.0148441
864.934	0.0149473
865.012	0.0148170
865.090	0.0147928
865.168	0.0148049
865.246	0.0148137
865.325	0.0147972
865.403	0.0150754
865.481	0.0148932
865.559	0.0150066
865.637	0.0148839
865.715	0.0150139
865.793	0.0148795
865.871	0.0146924
865.950	0.0150403
866.028	0.0146720
866.106	0.0147281
866.184	0.0147128
866.262	0.0148767
866.340	0.0149073
866.418	0.0147684
866.496	0.0149387
866.575	0.0149092
866.653	0.0147392
866.731	0.0147201
866.809	0.0147604
866.887	0.0146879
866.965	0.0146931
867.043	0.0148919
867.121	0.0149326
867.200	0.0148444
867.278	0.0147295
867.356	0.0148611
867.434	0.0148345
867.512	0.0147356
867.590	0.0148091
867.668	0.0149629
867.746	0.0148557
867.825	0.0147604
867.903	0.0148341
867.981	0.0147042
868.059	0.0148623
868.137	0.0149300
868.215	0.0148657
868.293	0.0148674
868.371	0.0148878
868.450	0.0147299
868.528	0.0148697
868.606	0.0148944
868.684	0.0148833
868.762	0.0148114
868.840	0.0148896
868.918	0.0147605
868.996	0.0149255
869.075	0.0147907
869.153	0.0148032
869.231	0.0147670
869.309	0.0149437
869.387	0.0147806
869.465	0.0148137
869.543	0.0148189
869.621	0.0148088
869.700	0.0147440
869.778	0.0147302
869.856	0.0146029
869.934	0.0146574
870.012	0.0147283
870.090	0.0148607
870.168	0.0148701
870.246	0.0146454
870.325	0.0146837
870.403	0.0147836
870.481	0.0149632
870.559	0.0148907
870.637	0.0149159
870.715	0.0149796
870.793	0.0148324
870.871	0.0148047
870.950	0.0148911
871.028	0.0148581
871.106	0.0148585
871.184	0.0148454
871.262	0.0147569
871.340	0.0148211
871.418	0.0148888
871.496	0.0149412
871.575	0.0148811
871.653	0.0148138
871.731	0.0146732
871.809	0.0147107
871.887	0.0147820
871.965	0.0147254
872.043	0.0149038
872.121	0.0148035
872.200	0.0148679
872.278	0.0147607
872.356	0.0148396
872.434	0.0147550
872.512	0.0147562
872.590	0.0147032
872.668	0.0147699
872.746	0.0148091
872.825	0.0148956
872.903	0.0147305
872.981	0.0147828
873.059	0.0147665
873.137	0.0147511
873.215	0.0147896
873.293	0.0149472
873.371	0.0147890
873.450	0.0149469
873.528	0.0148203
873.606	0.0149406
873.684	0.0148460
873.762	0.0148035
873.840	0.0148604
873.918	0.0148627
873.996	0.0148768
874.075	0.0149889
874.153	0.0149136
874.231	0.0147994
874.309	0.0148905
874.387	0.0149120
874.465	0.0149109
874.543	0.0149377
874.621	0.0148520
874.700	0.0148383
874.778	0.0147574
874.856	0.0148191
874.934	0.0148454
875.012	0.0148238
875.090	0.0149197
875.168	0.0147450
875.246	0.0148125
875.325	0.0147446
875.403	0.0146864
875.481	0.0148176
875.559	0.0147496
875.637	0.0147119
875.715	0.0146825
875.793	0.0146944
875.871	0.0147794
875.950	0.0147775
876.028	0.0148449
876.106	0.0147669
876.184	0.0148345
876.262	0.0147504
876.340	0.0148565
876.418	0.0147870
876.496	0.0147996
876.575	0.0148217
876.653	0.0148373
876.731	0.0147582
876.809	0.0147470
876.887	0.0148718
876.965	0.0149699
877.043	0.0149417
877.121	0.0148995
877.200	0.0148254
877.278	0.0148711
877.356	0.0148982
877.434	0.0148923
877.512	0.0148663
877.590	0.0148471
877.668	0.0147852
877.746	0.0146758
877.825	0.0147890
877.903	0.0149182
877.981	0.0147923
878.059	0.0148156
878.137	0.0147588
878.215	0.0147259
878.293	0.0147636
878.371	0.0147214
878.450	0.0148548
878.528	0.0148566
878.606	0.0149664
878.684	0.0147751
878.762	0.0148691
878.840	0.0148338
878.918	0.0148397
878.996	0.0148451
879.075	0.0149757
879.153	0.0149293
879.231	0.0147576
879.309	0.0146603
879.387	0.0148158
879.465	0.0148251
879.543	0.0148089
879.621	0.0148988
879.700	0.0147889
879.778	0.0149490
879.856	0.0148944
879.934	0.0148477
880.012	0.0147974
880.090	0.0148308
880.168	0.0147478
880.246	0.0149486
880.325	0.0147892
880.403	0.0147366
880.481	0.0149932
880.559	0.0148230
880.637	0.0147649
880.715	0.0147208
880.793	0.0148058
880.871	0.0148146
880.950	0.0148019
881.028	0.0146320
881.106	0.0147844
881.184	0.0147919
881.262	0.0148348
881.340	0.0149062
881.418	0.0148395
881.496	0.0147995
881.575	0.0149336
881.653	0.0149329
881.731	0.0149918
881.809	0.0147919
881.887	0.0149120
881.965	0.0149738
882.043	0.0149349
882.121	0.0148122
882.200	0.0149168
882.278	0.0149819
882.356	0.0147729
882.434	0.0147759
882.512	0.0148623
882.590	0.0148400
882.668	0.0146559
882.746	0.0146357
882.825	0.0147385
882.903	0.0147073
882.981	0.0147845
883.059	0.0146037
883.137	0.0149171
883.215	0.0148474
883.293	0.0147710
883.371	0.0148354
883.450	0.0147288
883.528	0.0148617
883.606	0.0148243
883.684	0.0147326
883.762	0.0148064
883.840	0.0147716
883.918	0.0147525
883.996	0.0148980
884.075	0.0149907
884.153	0.0148294
884.231	0.0148415
884.309	0.0147959
884.387	0.0147976
884.465	0.0148432
884.543	0.0147469
884.621	0.0148240
884.700	0.0147863
884.778	0.0148067
884.856	0.0147341
884.934	0.0146416
885.012	0.0145979
885.090	0.0147598
885.168	0.0146401
885.246	0.0145973
885.325	0.0147942
885.403	0.0146594
885.481	0.0146156
885.559	0.0146828
885.637	0.0148888
885.715	0.0148549
885.793	0.0147288
885.871	0.0147332
885.950	0.0149081
886.028	0.0146528
886.106	0.0147751
886.184	0.0149110
886.262	0.0149429
886.340	0.0148992
886.418	0.0148534
886.496	0.0148322
886.575	0.0149217
886.653	0.0149768
886.731	0.0149458
886.809	0.0149213
886.887	0.0149038
886.965	0.0148795
887.043	0.0148803
887.121	0.0148728
887.200	0.0147998
887.278	0.0146636
887.356	0.0147264
887.434	0.0147406
887.512	0.0146300
887.590	0.0148106
887.668	0.0147334
887.746	0.0148225
887.825	0.0147370
887.903	0.0148146
887.981	0.0146659
888.059	0.0147468
888.137	0.0147617
888.215	0.0148255
888.293	0.0147998
888.371	0.0147065
888.450	0.0149730
888.528	0.0148932
888.606	0.0148339
888.684	0.0148947
888.762	0.0148268
888.840	0.0149332
888.918	0.0149391
888.996	0.0148544
889.075	0.0149567
889.153	0.0147726
889.231	0.0149177
889.309	0.0149236
889.387	0.0148769
889.465	0.0147639
889.543	0.0149363
889.621	0.0148911
889.700	0.0149410
889.778	0.0148306
889.856	0.0148175
889.934	0.0149764
890.012	0.0148922
890.090	0.0150597
890.168	0.0148329
890.246	0.0149935
890.325	0.0148550
890.403	0.0148532
890.481	0.0148940
890.559	0.0147329
890.637	0.0148234
890.715	0.0146743
890.793	0.0149011
890.871	0.0147751
890.950	0.0149069
891.028	0.0148250
891.106	0.0148908
891.184	0.0148543
891.262	0.0148383
891.340	0.0149847
891.418	0.0149082
891.496	0.0150005
891.575	0.0148977
891.653	0.0149571
891.731	0.0150282
891.809	0.0150726
891.887	0.0149517
891.965	0.0148422
892.043	0.0149130
892.121	0.0150491
892.200	0.0149951
892.278	0.0149525
892.356	0.0149596
892.434	0.0149579
892.512	0.0149491
892.590	0.0149995
892.668	0.0147760
892.746	0.0149267
892.825	0.0149252
892.903	0.0147788
892.981	0.0147694
893.059	0.0148975
893.137	0.0147348
893.215	0.0149115
893.293	0.0148306
893.371	0.0147711
893.450	0.0147892
893.528	0.0147685
893.606	0.0148075
893.684	0.0147989
893.762	0.0148510
893.840	0.0148202
893.918	0.0148793
893.996	0.0148766
894.075	0.0147710
894.153	0.0148365
894.231	0.0149153
894.309	0.0148171
894.387	0.0148241
894.465	0.0147932
894.543	0.0147620
894.621	0.0148180
894.700	0.0150177
894.778	0.0147485
894.856	0.0149331
894.934	0.0148238
895.012	0.0146674
895.090	0.0148683
895.168	0.0148170
895.246	0.0146677
895.325	0.0146931
895.403	0.0147834
895.481	0.0147213
895.559	0.0145540
895.637	0.0146487
895.715	0.0148609
895.793	0.0146978
895.871	0.0148693
895.950	0.0147437
896.028	0.0146762
896.106	0.0147672
896.184	0.0146660
896.262	0.0147527
896.340	0.0148432
896.418	0.0149140
896.496	0.0148493
896.575	0.0149821
896.653	0.0148286
896.731	0.0148691
896.809	0.0148858
896.887	0.0148550
896.965	0.0147197
897.043	0.0148180
897.121	0.0148708
897.200	0.0148731
897.278	0.0147104
897.356	0.0147195
897.434	0.0148088
897.512	0.0148078
897.590	0.0148123
897.668	0.0148012
897.746	0.0148240
897.825	0.0148141
897.903	0.0147883
897.981	0.0149004
898.059	0.0148277
898.137	0.0147260
898.215	0.0148019
898.293	0.0148331
898.371	0.0149215
898.450	0.0148846
898.528	0.0148582
898.606	0.0148482
898.684	0.0149688
898.762	0.0148039
898.840	0.0147832
898.918	0.0148209
898.996	0.0149866
899.075	0.0147811
899.153	0.0147878
899.231	0.0148694
899.309	0.0148091
899.387	0.0146858
899.465	0.0148682
899.543	0.0148170
899.621	0.0148466
899.700	0.0149548
899.778	0.0149154
899.856	0.0150143
899.934	0.0149308
900.012	0.0148895
900.090	0.0150368
900.168	0.0150451
900.246	0.0149174
900.325	0.0150101
900.403	0.0150811
900.481	0.0149675
900.559	0.0150141
900.637	0.0149640
900.715	0.0149547
900.793	0.0148853
900.871	0.0148135
900.950	0.0149030
901.028	0.0149353
901.106	0.0149232
901.184	0.0148032
901.262	0.0148906
901.340	0.0147953
901.418	0.0147383
901.496	0.0147810
901.575	0.0148383
901.653	0.0148984
901.731	0.0150006
901.809	0.0147112
901.887	0.0147547
901.965	0.0149306
902.043	0.0148640
902.121	0.0148744
902.200	0.0147085
902.278	0.0146728
902.356	0.0150300
902.434	0.0149535
902.512	0.0147456
902.590	0.0147824
902.668	0.0149039
902.746	0.0148251
902.825	0.0147741
902.903	0.0148233
902.981	0.0149825
903.059	0.0149403
903.137	0.0147258
903.215	0.0148085
903.293	0.0148212
903.371	0.0147752
903.450	0.0148563
903.528	0.0146400
903.606	0.0147756
903.684	0.0149413
903.762	0.0148912
903.840	0.0146646
903.918	0.0147769
903.996	0.0147720
904.075	0.0148296
904.153	0.0148279
904.231	0.0148549
904.309	0.0148492
904.387	0.0147610
904.465	0.0147472
904.543	0.0149626
904.621	0.0148665
904.700	0.0148110
904.778	0.0147982
904.856	0.0149449
904.934	0.0148860
905.012	0.0148990
905.090	0.0148950
905.168	0.0148383
905.246	0.0148988
905.325	0.0148734
905.403	0.0148236
905.481	0.0148093
905.559	0.0147872
905.637	0.0148779
905.715	0.0148153
905.793	0.0147872
905.871	0.0147535
905.950	0.0147284
906.028	0.0148511
906.106	0.0148363
906.184	0.0147971
906.262	0.0147762
906.340	0.0149055
906.418	0.0149567
906.496	0.0146864
906.575	0.0148196
906.653	0.0148363
906.731	0.0147836
906.809	0.0148814
906.887	0.0148284
906.965	0.0149358
907.043	0.0148627
907.121	0.0148014
907.200	0.0149651
907.278	0.0148407
907.356	0.0147966
907.434	0.0149062
907.512	0.0148029
907.590	0.0148409
907.668	0.0148035
907.746	0.0148549
907.825	0.0148274
907.903	0.0148226
907.981	0.0148472
908.059	0.0148834
908.137	0.0147636
908.215	0.0148756
908.293	0.0148791
908.371	0.0147675
908.450	0.0147217
908.528	0.0148133
908.606	0.0147121
908.684	0.0148440
908.762	0.0148196
908.840	0.0148335
908.918	0.0147974
908.996	0.0147771
909.075	0.0147955
909.153	0.0149102
909.231	0.0149759
909.309	0.0148673
909.387	0.0148435
909.465	0.0148604
909.543	0.0149928
909.621	0.0148734
909.700	0.0148847
909.778	0.0149181
909.856	0.0147712
909.934	0.0148174
910.012	0.0149324
910.090	0.0149561
910.168	0.0148830
910.246	0.0149208
910.325	0.0148547
910.403	0.0148669
910.481	0.0148968
910.559	0.0147823
910.637	0.0149350
910.715	0.0149507
910.793	0.0149136
910.871	0.0149261
910.950	0.0147869
911.028	0.0149638
911.106	0.0149348
911.184	0.0148975
911.262	0.0149285
911.340	0.0149828
911.418	0.0149062
911.496	0.0149316
911.575	0.0149050
911.653	0.0148334
911.731	0.0149126
911.809	0.0148947
911.887	0.0148570
911.965	0.0149100
912.043	0.0150489
912.121	0.0148692
912.200	0.0150317
912.278	0.0149342
912.356	0.0149598
912.434	0.0148516
912.512	0.0148955
912.590	0.0148491
912.668	0.0147691
912.746	0.0149249
912.825	0.0150076
912.903	0.0148677
912.981	0.0148644
913.059	0.0148578
913.137	0.0147450
913.215	0.0148960
913.293	0.0148677
913.371	0.0147917
913.450	0.0149931
913.528	0.0147846
913.606	0.0149081
913.684	0.0150326
913.762	0.0148963
913.840	0.0149966
913.918	0.0148769
913.996	0.0149391
914.075	0.0149364
914.153	0.0150430
914.231	0.0148653
914.309	0.0149249
914.387	0.0148083
914.465	0.0148449
914.543	0.0148727
914.621	0.0149063
914.700	0.0147827
914.778	0.0147169
914.856	0.0147727
914.934	0.0148817
915.012	0.0147575
915.090	0.0146214
915.168	0.0147764
915.246	0.0148576
915.325	0.0148839
915.403	0.0148289
915.481	0.0146923
915.559	0.0147964
915.637	0.0148373
915.715	0.0148504
915.793	0.0147015
915.871	0.0147904
915.950	0.0148466
916.028	0.0149129
916.106	0.0149416
916.184	0.0149577
916.262	0.0147486
916.340	0.0147914
916.418	0.0149554
916.496	0.0148505
916.575	0.0147732
916.653	0.0148777
916.731	0.0148875
916.809	0.0149956
916.887	0.0148826
916.965	0.0148576
917.043	0.0148647
917.121	0.0149500
917.200	0.0149224
917.278	0.0148470
917.356	0.0147859
917.434	0.0147552
917.512	0.0148367
917.590	0.0148440
917.668	0.0146719
917.746	0.0148921
917.825	0.0148368
917.903	0.0148077
917.981	0.0148462
918.059	0.0145750
918.137	0.0148096
918.215	0.0149642
918.293	0.0148387
918.371	0.0148794
918.450	0.0147747
918.528	0.0148468
918.606	0.0147133
918.684	0.0147898
918.762	0.0148945
918.840	0.0146797
918.918	0.0147208
918.996	0.0149425
919.075	0.0148438
919.153	0.0147463
919.231	0.0147239
919.309	0.0148347
919.387	0.0148783
919.465	0.0147338
919.543	0.0148151
919.621	0.0146838
919.700	0.0148768
919.778	0.0147803
919.856	0.0148051
919.934	0.0148455
920.012	0.0147844
920.090	0.0147307
920.168	0.0147691
920.246	0.0147913
920.325	0.0147581
920.403	0.0147536
920.481	0.0147221
920.559	0.0148478
920.637	0.0148922
920.715	0.0148903
920.793	0.0151093
920.871	0.0148620
920.950	0.0147856
921.028	0.0149590
921.106	0.0148364
921.184	0.0148161
921.262	0.0148586
921.340	0.0148479
921.418	0.0149001
921.496	0.0149397
921.575	0.0149931
921.653	0.0149377
921.731	0.0149703
921.809	0.0148249
921.887	0.0148295
921.965	0.0147595
922.043	0.0149010
922.121	0.0150112
922.200	0.0149714
922.278	0.0147742
922.356	0.0147584
922.434	0.0148647
922.512	0.0149451
922.590	0.0148335
922.668	0.0147947
922.746	0.0147594
922.825	0.0147494
922.903	0.0147241
922.981	0.0148091
923.059	0.0147417
923.137	0.0147195
923.215	0.0148071
923.293	0.0148412
923.371	0.0147427
923.450	0.0147444
923.528	0.0147443
923.606	0.0148330
923.684	0.0147212
923.762	0.0147733
923.840	0.0149197
923.918	0.0148788
923.996	0.0148754
924.075	0.0148022
924.153	0.0148637
924.231	0.0147590
924.309	0.0148409
924.387	0.0146952
924.465	0.0148663
924.543	0.0148778
924.621	0.0147563
924.700	0.0148645
924.778	0.0149215
924.856	0.0147841
924.934	0.0148802
925.012	0.0147863
925.090	0.0147942
925.168	0.0146473
925.246	0.0147697
925.325	0.0147124
925.403	0.0147914
925.481	0.0147913
925.559	0.0147188
925.637	0.0148444
925.715	0.0148180
925.793	0.0146910
925.871	0.0147160
925.950	0.0147374
926.028	0.0147642
926.106	0.0148961
926.184	0.0147359
926.262	0.0147870
926.340	0.0148139
926.418	0.0149396
926.496	0.0147321
926.575	0.0146555
926.653	0.0146907
926.731	0.0148469
926.809	0.0149221
926.887	0.0147343
926.965	0.0147018
927.043	0.0147021
927.121	0.0147041
927.200	0.0146894
927.278	0.0147959
927.356	0.0148682
927.434	0.0148538
927.512	0.0148253
927.590	0.0148858
927.668	0.0149147
927.746	0.0147997
927.825	0.0148281
927.903	0.0148097
927.981	0.0148670
928.059	0.0148903
928.137	0.0147052
928.215	0.0147916
928.293	0.0147504
928.371	0.0147621
928.450	0.0147765
928.528	0.0148663
928.606	0.0146803
928.684	0.0146146
928.762	0.0148541
928.840	0.0147009
928.918	0.0148000
928.996	0.0148256
929.075	0.0148615
929.153	0.0147810
929.231	0.0148978
929.309	0.0147022
929.387	0.0147754
929.465	0.0148590
929.543	0.0148331
929.621	0.0148017
929.700	0.0147964
929.778	0.0147748
929.856	0.0148431
929.934	0.0147221
930.012	0.0148334
930.090	0.0148150
930.168	0.0147567
930.246	0.0149039
930.325	0.0148454
930.403	0.0148756
930.481	0.0147733
930.559	0.0148038
930.637	0.0148495
930.715	0.0148743
930.793	0.0147785
930.871	0.0146685
930.950	0.0147917
931.028	0.0148010
931.106	0.0148167
931.184	0.0146902
931.262	0.0147948
931.340	0.0147527
931.418	0.0147458
931.496	0.0148703
931.575	0.0148798
931.653	0.0148056
931.731	0.0147059
931.809	0.0148188
931.887	0.0148800
931.965	0.0147690
932.043	0.0149154
932.121	0.0148489
932.200	0.0149380
932.278	0.0148973
932.356	0.0148058
932.434	0.0149587
932.512	0.0148270
932.590	0.0149719
932.668	0.0148848
932.746	0.0147459
932.825	0.0146515
932.903	0.0147224
932.981	0.0147162
933.059	0.0148010
933.137	0.0147224
933.215	0.0146093
933.293	0.0148529
933.371	0.0149071
933.450	0.0148430
933.528	0.0147206
933.606	0.0148376
933.684	0.0148748
933.762	0.0147698
933.840	0.0148586
933.918	0.0148801
933.996	0.0149292
934.075	0.0148497
934.153	0.0148248
934.231	0.0148454
934.309	0.0149570
934.387	0.0148431
934.465	0.0147617
934.543	0.0148051
934.621	0.0148419
934.700	0.0148302
934.778	0.0147838
934.856	0.0148582
934.934	0.0148500
935.012	0.0148430
935.090	0.0147769
935.168	0.0148780
935.246	0.0149115
935.325	0.0147626
935.403	0.0148319
935.481	0.0148743
935.559	0.0148042
935.637	0.0148504
935.715	0.0148994
935.793	0.0150671
935.871	0.0148499
935.950	0.0148595
936.028	0.0148836
936.106	0.0147541
936.184	0.0148744
936.262	0.0148684
936.340	0.0149151
936.418	0.0150559
936.496	0.0150068
936.575	0.0148403
936.653	0.0147605
936.731	0.0147997
936.809	0.0149572
936.887	0.0148425
936.965	0.0148096
937.043	0.0148689
937.121	0.0149166
937.200	0.0148599
937.278	0.0148177
937.356	0.0148898
937.434	0.0148166
937.512	0.0148854
937.590	0.0147696
937.668	0.0148911
937.746	0.0148891
937.825	0.0148268
937.903	0.0149050
937.981	0.0146771
938.059	0.0146576
938.137	0.0148454
938.215	0.0147020
938.293	0.0147179
938.371	0.0147919
938.450	0.0148239
938.528	0.0149270
938.606	0.0147300
938.684	0.0147556
938.762	0.0147662
938.840	0.0148273
938.918	0.0147850
938.996	0.0147441
939.075	0.0147695
939.153	0.0148478
939.231	0.0148479
939.309	0.0148248
939.387	0.0145985
939.465	0.0147276
939.543	0.0149081
939.621	0.0148948
939.700	0.0146535
939.778	0.0148333
939.856	0.0148533
939.934	0.0148225
940.012	0.0147633
940.090	0.0148674
940.168	0.0147489
940.246	0.0147604
940.325	0.0149614
940.403	0.0149067
940.481	0.0147602
940.559	0.0147592
940.637	0.0148382
940.715	0.0147539
940.793	0.0149284
940.871	0.0147538
940.950	0.0148434
941.028	0.0149242
941.106	0.0149291
941.184	0.0148098
941.262	0.0148626
941.340	0.0147701
941.418	0.0148438
941.496	0.0148501
941.575	0.0148908
941.653	0.0149420
941.731	0.0148941
941.809	0.0148236
941.887	0.0148418
941.965	0.0147926
942.043	0.0149536
942.121	0.0148524
942.200	0.0149156
942.278	0.0149702
942.356	0.0149123
942.434	0.0148398
942.512	0.0148653
942.590	0.0147806
942.668	0.0149673
942.746	0.0149454
942.825	0.0148370
942.903	0.0146954
942.981	0.0148491
943.059	0.0150057
943.137	0.0149131
943.215	0.0148406
943.293	0.0147833
943.371	0.0147826
943.450	0.0148432
943.528	0.0147519
943.606	0.0146820
943.684	0.0147569
943.762	0.0147358
943.840	0.0147058
943.918	0.0148383
943.996	0.0146130
944.075	0.0147289
944.153	0.0148690
944.231	0.0147723
944.309	0.0146268
944.387	0.0147793
944.465	0.0148698
944.543	0.0149762
944.621	0.0148928
944.700	0.0146373
944.778	0.0147363
944.856	0.0147528
944.934	0.0148654
945.012	0.0148728
945.090	0.0148229
945.168	0.0148775
945.246	0.0147257
945.325	0.0147514
945.403	0.0148775
945.481	0.0148729
945.559	0.0148771
945.637	0.0147662
945.715	0.0148676
945.793	0.0149253
945.871	0.0147707
945.950	0.0149982
946.028	0.0148175
946.106	0.0147418
946.184	0.0148051
946.262	0.0148969
946.340	0.0148017
946.418	0.0147186
946.496	0.0148078
946.575	0.0148374
946.653	0.0148187
946.731	0.0147318
946.809	0.0147717
946.887	0.0148093
946.965	0.0149031
947.043	0.0148758
947.121	0.0147334
947.200	0.0147953
947.278	0.0147540
947.356	0.0148615
947.434	0.0148693
947.512	0.0148164
947.590	0.0147641
947.668	0.0148528
947.746	0.0148289
947.825	0.0148022
947.903	0.0147036
947.981	0.0147659
948.059	0.0146517
948.137	0.0147073
948.215	0.0147488
948.293	0.0146735
948.371	0.0148928
948.450	0.0145448
948.528	0.0147440
948.606	0.0146912
948.684	0.0148895
948.762	0.0146950
948.840	0.0148158
948.918	0.0148869
948.996	0.0148099
949.075	0.0148209
949.153	0.0148209
949.231	0.0148363
949.309	0.0147727
949.387	0.0148316
949.465	0.0146088
949.543	0.0147913
949.621	0.0148072
949.700	0.0147767
949.778	0.0147437
949.856	0.0147321
949.934	0.0147019
950.012	0.0147215
950.090	0.0147598
950.168	0.0148390
950.246	0.0147263
950.325	0.0147505
950.403	0.0147697
950.481	0.0147119
950.559	0.0147762
950.637	0.0148550
950.715	0.0150674
950.793	0.0149534
950.871	0.0148891
950.950	0.0149110
951.028	0.0150320
951.106	0.0149621
951.184	0.0149028
951.262	0.0147446
951.340	0.0148959
951.418	0.0149548
951.496	0.0147857
951.575	0.0147914
951.653	0.0149359
951.731	0.0147576
951.809	0.0148194
951.887	0.0149655
951.965	0.0148740
952.043	0.0148406
952.121	0.0147449
952.200	0.0147950
952.278	0.0146876
952.356	0.0147317
952.434	0.0147936
952.512	0.0148354
952.590	0.0147601
952.668	0.0146978
952.746	0.0148623
952.825	0.0147871
952.903	0.0148109
952.981	0.0147387
953.059	0.0148849
953.137	0.0149026
953.215	0.0148637
953.293	0.0149470
953.371	0.0148705
953.450	0.0148451
953.528	0.0147722
953.606	0.0147993
953.684	0.0147734
953.762	0.0147632
953.840	0.0148699
953.918	0.0147755
953.996	0.0147879
954.075	0.0147729
954.153	0.0148703
954.231	0.0146156
954.309	0.0147973
954.387	0.0148148
954.465	0.0146594
954.543	0.0147617
954.621	0.0148935
954.700	0.0147742
954.778	0.0148086
954.856	0.0148798
954.934	0.0148656
955.012	0.0148815
955.090	0.0149450
955.168	0.0149274
955.246	0.0148759
955.325	0.0148285
955.403	0.0147760
955.481	0.0148960
955.559	0.0148958
955.637	0.0147679
955.715	0.0147651
955.793	0.0149100
955.871	0.0149229
955.950	0.0147642
956.028	0.0148346
956.106	0.0147585
956.184	0.0147894
956.262	0.0147247
956.340	0.0147646
956.418	0.0147391
956.496	0.0148488
956.575	0.0148681
956.653	0.0148868
956.731	0.0148340
956.809	0.0147917
956.887	0.0147308
956.965	0.0147468
957.043	0.0149152
957.121	0.0148106
957.200	0.0147721
957.278	0.0148787
957.356	0.0148081
957.434	0.0150034
957.512	0.0147935
957.590	0.0147878
957.668	0.0148017
957.746	0.0148670
957.825	0.0147718
957.903	0.0147744
957.981	0.0148597
958.059	0.0147523
958.137	0.0148364
958.215	0.0146867
958.293	0.0147814
958.371	0.0147211
958.450	0.0146142
958.528	0.0147329
958.606	0.0146835
958.684	0.0146309
958.762	0.0146587
958.840	0.0148681
958.918	0.0148180
958.996	0.0147847
959.075	0.0148270
959.153	0.0149005
959.231	0.0148723
959.309	0.0148568
959.387	0.0147526
959.465	0.0148503
959.543	0.0149094
959.621	0.0147737
959.700	0.0149706
959.778	0.0150890
959.856	0.0148450
959.934	0.0148754
960.012	0.0146826
960.090	0.0148429
960.168	0.0146813
960.246	0.0148104
960.325	0.0148486
960.403	0.0147931
960.481	0.0148057
960.559	0.0148785
960.637	0.0148389
960.715	0.0147945
960.793	0.0148577
960.871	0.0148227
960.950	0.0147904
961.028	0.0148708
961.106	0.0148846
961.184	0.0148489
961.262	0.0149310
961.340	0.0148594
961.418	0.0149014
961.496	0.0148930
961.575	0.0148135
961.653	0.0148470
961.731	0.0149397
961.809	0.0148360
961.887	0.0148863
961.965	0.0148769
962.043	0.0149084
962.121	0.0148155
962.200	0.0147102
962.278	0.0147994
962.356	0.0146749
962.434	0.0148280
962.512	0.0149649
962.590	0.0147222
962.668	0.0147706
962.746	0.0148325
962.825	0.0149384
962.903	0.0147752
962.981	0.0147524
963.059	0.0147532
963.137	0.0148619
963.215	0.0146966
963.293	0.0147623
963.371	0.0149697
963.450	0.0148516
963.528	0.0148394
963.606	0.0147210
963.684	0.0148022
963.762	0.0148514
963.840	0.0149359
963.918	0.0146918
963.996	0.0147143
964.075	0.0148252
964.153	0.0149625
964.231	0.0146725
964.309	0.0147514
964.387	0.0147589
964.465	0.0148076
964.543	0.0146481
964.621	0.0146929
964.700	0.0147504
964.778	0.0146864
964.856	0.0147624
964.934	0.0148531
965.012	0.0148974
965.090	0.0148075
965.168	0.0147598
965.246	0.0148528
965.325	0.0149081
965.403	0.0148325
965.481	0.0148981
965.559	0.0148813
965.637	0.0149689
965.715	0.0149653
965.793	0.0148176
965.871	0.0148092
965.950	0.0147626
966.028	0.0149638
966.106	0.0148161
966.184	0.0146669
966.262	0.0148896
966.340	0.0149403
966.418	0.0148447
966.496	0.0146838
966.575	0.0148735
966.653	0.0147871
966.731	0.0148324
966.809	0.0147887
966.887	0.0146986
966.965	0.0147165
967.043	0.0148940
967.121	0.0147688
967.200	0.0147793
967.278	0.0148624
967.356	0.0148833
967.434	0.0147659
967.512	0.0148064
967.590	0.0147474
967.668	0.0147399
967.746	0.0148035
967.825	0.0146825
967.903	0.0149333
967.981	0.0148191
968.059	0.0147895
968.137	0.0148685
968.215	0.0147510
968.293	0.0147775
968.371	0.0148930
968.450	0.0148156
968.528	0.0148029
968.606	0.0147996
968.684	0.0148684
968.762	0.0147838
968.840	0.0147823
968.918	0.0147841
968.996	0.0148508
969.075	0.0147173
969.153	0.0149030
969.231	0.0148360
969.309	0.0148619
969.387	0.0149693
969.465	0.0148605
969.543	0.0147620
969.621	0.0148849
969.700	0.0148062
969.778	0.0150031
969.856	0.0149638
969.934	0.0148486
970.012	0.0149448
970.090	0.0148020
970.168	0.0147452
970.246	0.0147807
970.325	0.0147925
970.403	0.0148091
970.481	0.0148846
970.559	0.0149525
970.637	0.0150189
970.715	0.0148946
970.793	0.0148730
970.871	0.0148918
970.950	0.0150814
971.028	0.0148859
971.106	0.0148538
971.184	0.0148932
971.262	0.0150270
971.340	0.0148782
971.418	0.0148526
971.496	0.0148159
971.575	0.0148093
971.653	0.0150261
971.731	0.0149989
971.809	0.0148576
971.887	0.0149920
971.965	0.0150051
972.043	0.0148898
972.121	0.0150451
972.200	0.0149808
972.278	0.0146864
972.356	0.0149797
972.434	0.0149013
972.512	0.0148744
972.590	0.0149390
972.668	0.0148775
972.746	0.0148869
972.825	0.0148685
972.903	0.0149536
972.981	0.0149020
973.059	0.0150255
973.137	0.0149925
973.215	0.0149094
973.293	0.0148779
973.371	0.0150058
973.450	0.0148943
973.528	0.0149119
973.606	0.0150533
973.684	0.0149220
973.762	0.0148875
973.840	0.0148551
973.918	0.0148895
973.996	0.0149007
974.075	0.0148978
974.153	0.0148990
974.231	0.0147106
974.309	0.0147485
974.387	0.0148153
974.465	0.0148518
974.543	0.0149569
974.621	0.0147794
974.700	0.0147930
974.778	0.0148730
974.856	0.0148042
974.934	0.0147109
975.012	0.0148039
975.090	0.0147353
975.168	0.0146435
975.246	0.0148289
975.325	0.0149294
975.403	0.0148586
975.481	0.0147819
975.559	0.0148341
975.637	0.0146284
975.715	0.0148415
975.793	0.0148545
975.871	0.0148908
975.950	0.0148238
976.028	0.0148528
976.106	0.0149210
976.184	0.0147752
976.262	0.0148353
976.340	0.0147192
976.418	0.0147968
976.496	0.0149906
976.575	0.0148914
976.653	0.0147272
976.731	0.0148455
976.809	0.0148875
976.887	0.0147693
976.965	0.0147639
977.043	0.0149050
977.121	0.0149641
977.200	0.0148042
977.278	0.0149118
977.356	0.0149288
977.434	0.0149379
977.512	0.0148146
977.590	0.0149284
977.668	0.0148853
977.746	0.0148270
977.825	0.0148021
977.903	0.0148713
977.981	0.0147665
978.059	0.0148107
978.137	0.0147273
978.215	0.0147221
978.293	0.0147520
978.371	0.0148818
978.450	0.0147043
978.528	0.0147025
978.606	0.0148586
978.684	0.0146780
978.762	0.0147989
978.840	0.0147545
978.918	0.0147369
978.996	0.0149233
979.075	0.0147835
979.153	0.0148866
979.231	0.0148829
979.309	0.0146758
979.387	0.0148437
979.465	0.0148697
979.543	0.0148423
979.621	0.0147826
979.700	0.0147503
979.778	0.0148465
979.856	0.0147175
979.934	0.0148573
980.012	0.0148106
980.090	0.0148265
980.168	0.0148443
980.246	0.0148244
980.325	0.0148004
980.403	0.0147852
980.481	0.0148746
980.559	0.0148848
980.637	0.0148314
980.715	0.0147749
980.793	0.0147182
980.871	0.0146898
980.950	0.0147179
981.028	0.0145789
981.106	0.0148419
981.184	0.0147244
981.262	0.0147519
981.340	0.0148452
981.418	0.0148734
981.496	0.0147997
981.575	0.0149110
981.653	0.0149812
981.731	0.0148224
981.809	0.0148846
981.887	0.0149850
981.965	0.0150042
982.043	0.0148471
982.121	0.0148082
982.200	0.0148125
982.278	0.0148761
982.356	0.0148872
982.434	0.0148406
982.512	0.0147368
982.590	0.0147695
982.668	0.0148497
982.746	0.0147197
982.825	0.0147028
982.903	0.0147231
982.981	0.0147696
983.059	0.0147768
983.137	0.0147714
983.215	0.0146947
983.293	0.0147653
983.371	0.0147653
983.450	0.0146750
983.528	0.0148640
983.606	0.0148652
983.684	0.0147657
983.762	0.0147176
983.840	0.0148338
983.918	0.0149172
983.996	0.0148927
984.075	0.0146498
984.153	0.0148910
984.231	0.0148512
984.309	0.0148509
984.387	0.0148645
984.465	0.0147557
984.543	0.0148831
984.621	0.0149454
984.700	0.0148656
984.778	0.0148357
984.856	0.0146884
984.934	0.0148372
985.012	0.0148361
985.090	0.0148289
985.168	0.0148017
985.246	0.0148497
985.325	0.0148141
985.403	0.0147325
985.481	0.0147662
985.559	0.0147994
985.637	0.0146475
985.715	0.0147282
985.793	0.0147276
985.871	0.0147743
985.950	0.0148750
986.028	0.0148642
986.106	0.0148820
986.184	0.0148562
986.262	0.0147947
986.340	0.0149267
986.418	0.0148857
986.496	0.0149632
986.575	0.0149850
986.653	0.0148429
986.731	0.0149706
986.809	0.0150337
986.887	0.0149049
986.965	0.0149025
987.043	0.0149483
987.121	0.0148708
987.200	0.0148495
987.278	0.0148680
987.356	0.0146634
987.434	0.0149072
987.512	0.0147912
987.590	0.0147183
987.668	0.0149370
987.746	0.0148256
987.825	0.0145823
987.903	0.0147310
987.981	0.0148104
988.059	0.0146828
988.137	0.0147063
988.215	0.0147748
988.293	0.0149603
988.371	0.0147588
988.450	0.0148540
988.528	0.0148730
988.606	0.0149411
988.684	0.0149501
988.762	0.0150190
988.840	0.0149874
988.918	0.0147306
988.996	0.0149718
989.075	0.0150526
989.153	0.0149345
989.231	0.0147802
989.309	0.0148049
989.387	0.0148344
989.465	0.0146838
989.543	0.0146997
989.621	0.0148930
989.700	0.0147686
989.778	0.0146486
989.856	0.0146159
989.934	0.0148129
990.012	0.0147552
990.090	0.0148693
990.168	0.0147139
990.246	0.0147090
990.325	0.0147104
990.403	0.0148210
990.481	0.0148116
990.559	0.0149340
990.637	0.0149319
990.715	0.0148898
990.793	0.0148881
990.871	0.0149065
990.950	0.0147910
991.028	0.0148879
991.106	0.0147688
991.184	0.0148535
991.262	0.0148689
991.340	0.0148180
991.418	0.0149278
991.496	0.0147956
991.575	0.0148268
991.653	0.0148499
991.731	0.0147034
991.809	0.0148984
991.887	0.0148093
991.965	0.0147689
992.043	0.0147857
992.121	0.0148218
992.200	0.0147786
992.278	0.0146893
992.356	0.0148237
992.434	0.0148891
992.512	0.0147694
992.590	0.0148052
992.668	0.0147540
992.746	0.0148282
992.825	0.0148521
992.903	0.0148138
992.981	0.0148484
993.059	0.0147072
993.137	0.0148669
993.215	0.0147814
993.293	0.0148669
993.371	0.0148038
993.450	0.0147264
993.528	0.0149868
993.606	0.0150708
993.684	0.0150354
993.762	0.0149702
993.840	0.0149709
993.918	0.0149698
993.996	0.0150027
994.075	0.0149144
994.153	0.0149750
994.231	0.0149394
994.309	0.0149892
994.387	0.0148122
994.465	0.0147919
994.543	0.0148480
994.621	0.0147951
994.700	0.0148035
994.778	0.0149123
994.856	0.0148627
994.934	0.0146501
995.012	0.0149467
995.090	0.0148562
995.168	0.0147535
995.246	0.0147234
995.325	0.0147225
995.403	0.0147756
995.481	0.0148412
995.559	0.0148756
995.637	0.0148322
995.715	0.0147689
995.793	0.0149440
995.871	0.0149206
995.950	0.0149629
996.028	0.0147634
996.106	0.0148680
996.184	0.0149491
996.262	0.0148085
996.340	0.0149215
996.418	0.0148176
996.496	0.0148240
996.575	0.0148855
996.653	0.0148641
996.731	0.0147459
996.809	0.0148634
996.887	0.0148033
996.965	0.0149049
997.043	0.0147326
997.121	0.0147632
997.200	0.0149413
997.278	0.0148597
997.356	0.0147275
997.434	0.0146612
997.512	0.0147281
997.590	0.0148840
997.668	0.0149145
997.746	0.0149065
997.825	0.0149242
997.903	0.0149120
997.981	0.0149340
998.059	0.0149211
998.137	0.0149380
998.215	0.0148863
998.293	0.0148837
998.371	0.0149512
998.450	0.0148100
998.528	0.0149593
998.606	0.0149344
998.684	0.0150211
998.762	0.0147427
998.840	0.0146892
998.918	0.0146587
