05/04/2022	21:29:38	Ver.	4.1	UNKNOWN
Optical Delay	678.996401	Delta X		0.078125	Sweeps	1	Scan Rate	0/0
Coordinates	Axis 1	NaN	Axis 2	NaN	Axis 3	NaN	Axis 4	NaN	Axis 5	NaN	Axis 6	0.000000
TX Power	0.000000	RX Power	0.000000

678.996	0.0147447
679.075	0.0148646
679.153	0.0149226
679.231	0.0147767
679.309	0.0147052
679.387	0.0148157
679.465	0.0147129
679.543	0.0146104
679.621	0.0146017
679.700	0.0145683
679.778	0.0146320
679.856	0.0145850
679.934	0.0145856
680.012	0.0146272
680.090	0.0146489
680.168	0.0145689
680.246	0.0147173
680.325	0.0148241
680.403	0.0147654
680.481	0.0148109
680.559	0.0146913
680.637	0.0147081
680.715	0.0147938
680.793	0.0147871
680.871	0.0147653
680.950	0.0148492
681.028	0.0148305
681.106	0.0146686
681.184	0.0147720
681.262	0.0144912
681.340	0.0148100
681.418	0.0146828
681.496	0.0147697
681.575	0.0147352
681.653	0.0147117
681.731	0.0147805
681.809	0.0147411
681.887	0.0146625
681.965	0.0146774
682.043	0.0147482
682.121	0.0146758
682.200	0.0145603
682.278	0.0147301
682.356	0.0146783
682.434	0.0145535
682.512	0.0147163
682.590	0.0146450
682.668	0.0146210
682.746	0.0146694
682.825	0.0146639
682.903	0.0147836
682.981	0.0146841
683.059	0.0146185
683.137	0.0147560
683.215	0.0146003
683.293	0.0145963
683.371	0.0148350
683.450	0.0148384
683.528	0.0146864
683.606	0.0146745
683.684	0.0147204
683.762	0.0147108
683.840	0.0146539
683.918	0.0146352
683.996	0.0146165
684.075	0.0145970
684.153	0.0145782
684.231	0.0145372
684.309	0.0146750
684.387	0.0146121
684.465	0.0146024
684.543	0.0146300
684.621	0.0146317
684.700	0.0146833
684.778	0.0145330
684.856	0.0146510
684.934	0.0147699
685.012	0.0146986
685.090	0.0147709
685.168	0.0148437
685.246	0.0147375
685.325	0.0147183
685.403	0.0147031
685.481	0.0147565
685.559	0.0147304
685.637	0.0146783
685.715	0.0147420
685.793	0.0145573
685.871	0.0146232
685.950	0.0146495
686.028	0.0146104
686.106	0.0146714
686.184	0.0145531
686.262	0.0145114
686.340	0.0145667
686.418	0.0146275
686.496	0.0145612
686.575	0.0147707
686.653	0.0147593
686.731	0.0148556
686.809	0.0148079
686.887	0.0148164
686.965	0.0149121
687.043	0.0148122
687.121	0.0147168
687.200	0.0146643
687.278	0.0147332
687.356	0.0148180
687.434	0.0148230
687.512	0.0148682
687.590	0.0148780
687.668	0.0149232
687.746	0.0149005
687.825	0.0147963
687.903	0.0148155
687.981	0.0148378
688.059	0.0147108
688.137	0.0145734
688.215	0.0146226
688.293	0.0145988
688.371	0.0144248
688.450	0.0144144
688.528	0.0144414
688.606	0.0144279
688.684	0.0143695
688.762	0.0145289
688.840	0.0144291
688.918	0.0146207
688.996	0.0145346
689.075	0.0145770
689.153	0.0146013
689.231	0.0147361
689.309	0.0147884
689.387	0.0149242
689.465	0.0149765
689.543	0.0151854
689.621	0.0152771
689.700	0.0152158
689.778	0.0152611
689.856	0.0153358
689.934	0.0152080
690.012	0.0151948
690.090	0.0148821
690.168	0.0146719
690.246	0.0146672
690.325	0.0144618
690.403	0.0143562
690.481	0.0144380
690.559	0.0143807
690.637	0.0142545
690.715	0.0141801
690.793	0.0140681
690.871	0.0142043
690.950	0.0141088
691.028	0.0141036
691.106	0.0142494
691.184	0.0143622
691.262	0.0142639
691.340	0.0144810
691.418	0.0147344
691.496	0.0146205
691.575	0.0147632
691.653	0.0148192
691.731	0.0150115
691.809	0.0151253
691.887	0.0150391
691.965	0.0148827
692.043	0.0150986
692.121	0.0151301
692.200	0.0151007
692.278	0.0151216
692.356	0.0151047
692.434	0.0151369
692.512	0.0150468
692.590	0.0151230
692.668	0.0150314
692.746	0.0151122
692.825	0.0150311
692.903	0.0148273
692.981	0.0147184
693.059	0.0146095
693.137	0.0143460
693.215	0.0143751
693.293	0.0143597
693.371	0.0140209
693.450	0.0139461
693.528	0.0139338
693.606	0.0139404
693.684	0.0138429
693.762	0.0138363
693.840	0.0139193
693.918	0.0140745
693.996	0.0142455
694.075	0.0142732
694.153	0.0143973
694.231	0.0146104
694.309	0.0146935
694.387	0.0148665
694.465	0.0148435
694.543	0.0150655
694.621	0.0151447
694.700	0.0151707
694.778	0.0151920
694.856	0.0153372
694.934	0.0152403
695.012	0.0153217
695.090	0.0152351
695.168	0.0153210
695.246	0.0153989
695.325	0.0152047
695.403	0.0151568
695.481	0.0152244
695.559	0.0151903
695.637	0.0150592
695.715	0.0150316
695.793	0.0146380
695.871	0.0145946
695.950	0.0144957
696.028	0.0143885
696.106	0.0144000
696.184	0.0142606
696.262	0.0143137
696.340	0.0141698
696.418	0.0140475
696.496	0.0140623
696.575	0.0139044
696.653	0.0140082
696.731	0.0140648
696.809	0.0141870
696.887	0.0141592
696.965	0.0143273
697.043	0.0143820
697.121	0.0145226
697.200	0.0147980
697.278	0.0149060
697.356	0.0149997
697.434	0.0151322
697.512	0.0153219
697.590	0.0153281
697.668	0.0153524
697.746	0.0153788
697.825	0.0155058
697.903	0.0154405
697.981	0.0153842
698.059	0.0152627
698.137	0.0150465
698.215	0.0152335
698.293	0.0151731
698.371	0.0151450
698.450	0.0148651
698.528	0.0146660
698.606	0.0145285
698.684	0.0143854
698.762	0.0143073
698.840	0.0138700
698.918	0.0138688
698.996	0.0139213
699.075	0.0139835
699.153	0.0139301
699.231	0.0140738
699.309	0.0142108
699.387	0.0144193
699.465	0.0143305
699.543	0.0145941
699.621	0.0147070
699.700	0.0146915
699.778	0.0147001
699.856	0.0148651
699.934	0.0151040
700.012	0.0149642
700.090	0.0148791
700.168	0.0149679
700.246	0.0150342
700.325	0.0148603
700.403	0.0149472
700.481	0.0149764
700.559	0.0148428
700.637	0.0149164
700.715	0.0149141
700.793	0.0149364
700.871	0.0147140
700.950	0.0147237
701.028	0.0147443
701.106	0.0146769
701.184	0.0147600
701.262	0.0147211
701.340	0.0146765
701.418	0.0147030
701.496	0.0146172
701.575	0.0146390
701.653	0.0145153
701.731	0.0144286
701.809	0.0145245
701.887	0.0144807
701.965	0.0144550
702.043	0.0145535
702.121	0.0145145
702.200	0.0146363
702.278	0.0146383
702.356	0.0148502
702.434	0.0147792
702.512	0.0149155
702.590	0.0148180
702.668	0.0149252
702.746	0.0148779
702.825	0.0147820
702.903	0.0147790
702.981	0.0149231
703.059	0.0149612
703.137	0.0148615
703.215	0.0149145
703.293	0.0150274
703.371	0.0149373
703.450	0.0148372
703.528	0.0149117
703.606	0.0146484
703.684	0.0147311
703.762	0.0144924
703.840	0.0145338
703.918	0.0145819
703.996	0.0146124
704.075	0.0145956
704.153	0.0145406
704.231	0.0146877
704.309	0.0147295
704.387	0.0147805
704.465	0.0147604
704.543	0.0146342
704.621	0.0146881
704.700	0.0147085
704.778	0.0146421
704.856	0.0144278
704.934	0.0144422
705.012	0.0143484
705.090	0.0143744
705.168	0.0144225
705.246	0.0142503
705.325	0.0144322
705.403	0.0143240
705.481	0.0145294
705.559	0.0146577
705.637	0.0146083
705.715	0.0146908
705.793	0.0149675
705.871	0.0151431
705.950	0.0152464
706.028	0.0151096
706.106	0.0153339
706.184	0.0152557
706.262	0.0153085
706.340	0.0152505
706.418	0.0151546
706.496	0.0149677
706.575	0.0149601
706.653	0.0148781
706.731	0.0146778
706.809	0.0146754
706.887	0.0144810
706.965	0.0143546
707.043	0.0142978
707.121	0.0142670
707.200	0.0143075
707.278	0.0141467
707.356	0.0143325
707.434	0.0144382
707.512	0.0143986
707.590	0.0144743
707.668	0.0144865
707.746	0.0144672
707.825	0.0144395
707.903	0.0143867
707.981	0.0145348
708.059	0.0145242
708.137	0.0145008
708.215	0.0146355
708.293	0.0147942
708.371	0.0146777
708.450	0.0148755
708.528	0.0149950
708.606	0.0149975
708.684	0.0149312
708.762	0.0148289
708.840	0.0150321
708.918	0.0149562
708.996	0.0149888
709.075	0.0149850
709.153	0.0149770
709.231	0.0150482
709.309	0.0151389
709.387	0.0151044
709.465	0.0151105
709.543	0.0148847
709.621	0.0149088
709.700	0.0148248
709.778	0.0147784
709.856	0.0145918
709.934	0.0145051
710.012	0.0144108
710.090	0.0145527
710.168	0.0144904
710.246	0.0142809
710.325	0.0142774
710.403	0.0144340
710.481	0.0142537
710.559	0.0141482
710.637	0.0141509
710.715	0.0142237
710.793	0.0142397
710.871	0.0142944
710.950	0.0143486
711.028	0.0143161
711.106	0.0143599
711.184	0.0146012
711.262	0.0146265
711.340	0.0147523
711.418	0.0148474
711.496	0.0148817
711.575	0.0149835
711.653	0.0149330
711.731	0.0148582
711.809	0.0151512
711.887	0.0148605
711.965	0.0150324
712.043	0.0149873
712.121	0.0148772
712.200	0.0149409
712.278	0.0147952
712.356	0.0148450
712.434	0.0147832
712.512	0.0146465
712.590	0.0145565
712.668	0.0145712
712.746	0.0146067
712.825	0.0147375
712.903	0.0146882
712.981	0.0147970
713.059	0.0146908
713.137	0.0146634
713.215	0.0147090
713.293	0.0146497
713.371	0.0146775
713.450	0.0145174
713.528	0.0145676
713.606	0.0145312
713.684	0.0143636
713.762	0.0142825
713.840	0.0144346
713.918	0.0143827
713.996	0.0144521
714.075	0.0143180
714.153	0.0145721
714.231	0.0147501
714.309	0.0148961
714.387	0.0150269
714.465	0.0150650
714.543	0.0151017
714.621	0.0149975
714.700	0.0148912
714.778	0.0149030
714.856	0.0148680
714.934	0.0149167
715.012	0.0147462
715.090	0.0145920
715.168	0.0145161
715.246	0.0144001
715.325	0.0143017
715.403	0.0144301
715.481	0.0144707
715.559	0.0144385
715.637	0.0144555
715.715	0.0144998
715.793	0.0147134
715.871	0.0145857
715.950	0.0147986
716.028	0.0149822
716.106	0.0149573
716.184	0.0151045
716.262	0.0150338
716.340	0.0150332
716.418	0.0150646
716.496	0.0149174
716.575	0.0150275
716.653	0.0149221
716.731	0.0148230
716.809	0.0145787
716.887	0.0146181
716.965	0.0144991
717.043	0.0145982
717.121	0.0144218
717.200	0.0143061
717.278	0.0143820
717.356	0.0145012
717.434	0.0144669
717.512	0.0145232
717.590	0.0145253
717.668	0.0144093
717.746	0.0145817
717.825	0.0144554
717.903	0.0145287
717.981	0.0143927
718.059	0.0144570
718.137	0.0146226
718.215	0.0145786
718.293	0.0146471
718.371	0.0144913
718.450	0.0146230
718.528	0.0146497
718.606	0.0147644
718.684	0.0148383
718.762	0.0148518
718.840	0.0149254
718.918	0.0150817
718.996	0.0150134
719.075	0.0151100
719.153	0.0150692
719.231	0.0150150
719.309	0.0148972
719.387	0.0150285
719.465	0.0148415
719.543	0.0148559
719.621	0.0146712
719.700	0.0146600
719.778	0.0146086
719.856	0.0147126
719.934	0.0147024
720.012	0.0145601
720.090	0.0146525
720.168	0.0147907
720.246	0.0146495
720.325	0.0147566
720.403	0.0146495
720.481	0.0145487
720.559	0.0146057
720.637	0.0145949
720.715	0.0146326
720.793	0.0145656
720.871	0.0145200
720.950	0.0146391
721.028	0.0146153
721.106	0.0146773
721.184	0.0147193
721.262	0.0148839
721.340	0.0147806
721.418	0.0147114
721.496	0.0146483
721.575	0.0148576
721.653	0.0149199
721.731	0.0150183
721.809	0.0148759
721.887	0.0148457
721.965	0.0147347
722.043	0.0149404
722.121	0.0147313
722.200	0.0146333
722.278	0.0145842
722.356	0.0147711
722.434	0.0147177
722.512	0.0145651
722.590	0.0147154
722.668	0.0147184
722.746	0.0146127
722.825	0.0147450
722.903	0.0147852
722.981	0.0146950
723.059	0.0148822
723.137	0.0149481
723.215	0.0148624
723.293	0.0148111
723.371	0.0146745
723.450	0.0148248
723.528	0.0149410
723.606	0.0148705
723.684	0.0148058
723.762	0.0148801
723.840	0.0149207
723.918	0.0149093
723.996	0.0147240
724.075	0.0149172
724.153	0.0149684
724.231	0.0148321
724.309	0.0148206
724.387	0.0148115
724.465	0.0147179
724.543	0.0147218
724.621	0.0145031
724.700	0.0145020
724.778	0.0145203
724.856	0.0143789
724.934	0.0145195
725.012	0.0143872
725.090	0.0143867
725.168	0.0143678
725.246	0.0144442
725.325	0.0144967
725.403	0.0145070
725.481	0.0144820
725.559	0.0145564
725.637	0.0147073
725.715	0.0147034
725.793	0.0148259
725.871	0.0147570
725.950	0.0148489
726.028	0.0150060
726.106	0.0149623
726.184	0.0150933
726.262	0.0149588
726.340	0.0150917
726.418	0.0152842
726.496	0.0151113
726.575	0.0150573
726.653	0.0150296
726.731	0.0148039
726.809	0.0148943
726.887	0.0147641
726.965	0.0147295
727.043	0.0147624
727.121	0.0147552
727.200	0.0145993
727.278	0.0143877
727.356	0.0144123
727.434	0.0144028
727.512	0.0144188
727.590	0.0142181
727.668	0.0144724
727.746	0.0142262
727.825	0.0143394
727.903	0.0144353
727.981	0.0143192
728.059	0.0143729
728.137	0.0145956
728.215	0.0146074
728.293	0.0146511
728.371	0.0145124
728.450	0.0146597
728.528	0.0147095
728.606	0.0148650
728.684	0.0148245
728.762	0.0149326
728.840	0.0149853
728.918	0.0148801
728.996	0.0150243
729.075	0.0149361
729.153	0.0148888
729.231	0.0149756
729.309	0.0148892
729.387	0.0147961
729.465	0.0148582
729.543	0.0148724
729.621	0.0147353
729.700	0.0146103
729.778	0.0145482
729.856	0.0145140
729.934	0.0146495
730.012	0.0147067
730.090	0.0145742
730.168	0.0145385
730.246	0.0145705
730.325	0.0146140
730.403	0.0145792
730.481	0.0146336
730.559	0.0145531
730.637	0.0146770
730.715	0.0146697
730.793	0.0146652
730.871	0.0147212
730.950	0.0146973
731.028	0.0147743
731.106	0.0146667
731.184	0.0147739
731.262	0.0148309
731.340	0.0147056
731.418	0.0147210
731.496	0.0147272
731.575	0.0146703
731.653	0.0147477
731.731	0.0146863
731.809	0.0148508
731.887	0.0146775
731.965	0.0147467
732.043	0.0147361
732.121	0.0146088
732.200	0.0146848
732.278	0.0146407
732.356	0.0145244
732.434	0.0146982
732.512	0.0145413
732.590	0.0146300
732.668	0.0145620
732.746	0.0145984
732.825	0.0145589
732.903	0.0145419
732.981	0.0146545
733.059	0.0146214
733.137	0.0146593
733.215	0.0146083
733.293	0.0147949
733.371	0.0147117
733.450	0.0147659
733.528	0.0148415
733.606	0.0147655
733.684	0.0149606
733.762	0.0149430
733.840	0.0148761
733.918	0.0148026
733.996	0.0148554
734.075	0.0148601
734.153	0.0148424
734.231	0.0147653
734.309	0.0145643
734.387	0.0144730
734.465	0.0145728
734.543	0.0145980
734.621	0.0146157
734.700	0.0145480
734.778	0.0144151
734.856	0.0145645
734.934	0.0144386
735.012	0.0144687
735.090	0.0144688
735.168	0.0144405
735.246	0.0147285
735.325	0.0145535
735.403	0.0147347
735.481	0.0146782
735.559	0.0148089
735.637	0.0146690
735.715	0.0148241
735.793	0.0148943
735.871	0.0148901
735.950	0.0148615
736.028	0.0149307
736.106	0.0148042
736.184	0.0148750
736.262	0.0149494
736.340	0.0147549
736.418	0.0146826
736.496	0.0147580
736.575	0.0147970
736.653	0.0147221
736.731	0.0146877
736.809	0.0146435
736.887	0.0146449
736.965	0.0146877
737.043	0.0145545
737.121	0.0146241
737.200	0.0145913
737.278	0.0145307
737.356	0.0145650
737.434	0.0144673
737.512	0.0144199
737.590	0.0146302
737.668	0.0145421
737.746	0.0143829
737.825	0.0145554
737.903	0.0145766
737.981	0.0145371
738.059	0.0145420
738.137	0.0145761
738.215	0.0147439
738.293	0.0147064
738.371	0.0147562
738.450	0.0147977
738.528	0.0148894
738.606	0.0148604
738.684	0.0148146
738.762	0.0151321
738.840	0.0148155
738.918	0.0147806
738.996	0.0149002
739.075	0.0147697
739.153	0.0148398
739.231	0.0146876
739.309	0.0147269
739.387	0.0147462
739.465	0.0149080
739.543	0.0146715
739.621	0.0144504
739.700	0.0145924
739.778	0.0146593
739.856	0.0145425
739.934	0.0146547
740.012	0.0144980
740.090	0.0146198
740.168	0.0145253
740.246	0.0144981
740.325	0.0145316
740.403	0.0145322
740.481	0.0145485
740.559	0.0144574
740.637	0.0144850
740.715	0.0145525
740.793	0.0147215
740.871	0.0146448
740.950	0.0148449
741.028	0.0146742
741.106	0.0148695
741.184	0.0147499
741.262	0.0147991
741.340	0.0147683
741.418	0.0148310
741.496	0.0149187
741.575	0.0147263
741.653	0.0147839
741.731	0.0148066
741.809	0.0148808
741.887	0.0148122
741.965	0.0147675
742.043	0.0148068
742.121	0.0146503
742.200	0.0147160
742.278	0.0147173
742.356	0.0147221
742.434	0.0145021
742.512	0.0146915
742.590	0.0147221
742.668	0.0147215
742.746	0.0148077
742.825	0.0147290
742.903	0.0147365
742.981	0.0147427
743.059	0.0148762
743.137	0.0147044
743.215	0.0148184
743.293	0.0147905
743.371	0.0147467
743.450	0.0147947
743.528	0.0145853
743.606	0.0146669
743.684	0.0147346
743.762	0.0146300
743.840	0.0146903
743.918	0.0147497
743.996	0.0146718
744.075	0.0147678
744.153	0.0149447
744.231	0.0148156
744.309	0.0146918
744.387	0.0148326
744.465	0.0147945
744.543	0.0149856
744.621	0.0147723
744.700	0.0148424
744.778	0.0147332
744.856	0.0146772
744.934	0.0146780
745.012	0.0147867
745.090	0.0146860
745.168	0.0147092
745.246	0.0145895
745.325	0.0145860
745.403	0.0146902
745.481	0.0147344
745.559	0.0146868
745.637	0.0147186
745.715	0.0148005
745.793	0.0147317
745.871	0.0148376
745.950	0.0148058
746.028	0.0148776
746.106	0.0148709
746.184	0.0148638
746.262	0.0148832
746.340	0.0148341
746.418	0.0149004
746.496	0.0150542
746.575	0.0148775
746.653	0.0147293
746.731	0.0149455
746.809	0.0148085
746.887	0.0148045
746.965	0.0147520
747.043	0.0148129
747.121	0.0147465
747.200	0.0148621
747.278	0.0148045
747.356	0.0148946
747.434	0.0147250
747.512	0.0147241
747.590	0.0147817
747.668	0.0148598
747.746	0.0147398
747.825	0.0146610
747.903	0.0146981
747.981	0.0146305
748.059	0.0148793
748.137	0.0147065
748.215	0.0146914
748.293	0.0147808
748.371	0.0146523
748.450	0.0147101
748.528	0.0146639
748.606	0.0148508
748.684	0.0148198
748.762	0.0148915
748.840	0.0148474
748.918	0.0147100
748.996	0.0148689
749.075	0.0149375
749.153	0.0147697
749.231	0.0149391
749.309	0.0148939
749.387	0.0148915
749.465	0.0147851
749.543	0.0148085
749.621	0.0148043
749.700	0.0147450
749.778	0.0146768
749.856	0.0146613
749.934	0.0147276
750.012	0.0147263
750.090	0.0146291
750.168	0.0145877
750.246	0.0145948
750.325	0.0147005
750.403	0.0146130
750.481	0.0148225
750.559	0.0146931
750.637	0.0148026
750.715	0.0146734
750.793	0.0145729
750.871	0.0147797
750.950	0.0147830
751.028	0.0147268
751.106	0.0147178
751.184	0.0147618
751.262	0.0148778
751.340	0.0149057
751.418	0.0149095
751.496	0.0147367
751.575	0.0148698
751.653	0.0148397
751.731	0.0146329
751.809	0.0149150
751.887	0.0148770
751.965	0.0146808
752.043	0.0149026
752.121	0.0147501
752.200	0.0147797
752.278	0.0147146
752.356	0.0148186
752.434	0.0147369
752.512	0.0145942
752.590	0.0147626
752.668	0.0146454
752.746	0.0146883
752.825	0.0147305
752.903	0.0146883
752.981	0.0145833
753.059	0.0145720
753.137	0.0145750
753.215	0.0145330
753.293	0.0146344
753.371	0.0145076
753.450	0.0146905
753.528	0.0147520
753.606	0.0146555
753.684	0.0146846
753.762	0.0147029
753.840	0.0146916
753.918	0.0147652
753.996	0.0148521
754.075	0.0147626
754.153	0.0146431
754.231	0.0148447
754.309	0.0148467
754.387	0.0148624
754.465	0.0149643
754.543	0.0147922
754.621	0.0147015
754.700	0.0147141
754.778	0.0147737
754.856	0.0148267
754.934	0.0148147
755.012	0.0147192
755.090	0.0146999
755.168	0.0147003
755.246	0.0146301
755.325	0.0146806
755.403	0.0147035
755.481	0.0146569
755.559	0.0147438
755.637	0.0147662
755.715	0.0147145
755.793	0.0146636
755.871	0.0147421
755.950	0.0146693
756.028	0.0147364
756.106	0.0146539
756.184	0.0147256
756.262	0.0148594
756.340	0.0147382
756.418	0.0147405
756.496	0.0148667
756.575	0.0146986
756.653	0.0146181
756.731	0.0145824
756.809	0.0147844
756.887	0.0147986
756.965	0.0147343
757.043	0.0146102
757.121	0.0146566
757.200	0.0146904
757.278	0.0146218
757.356	0.0145876
757.434	0.0147389
757.512	0.0145556
757.590	0.0145297
757.668	0.0146183
757.746	0.0146501
757.825	0.0145843
757.903	0.0146453
757.981	0.0145993
758.059	0.0146167
758.137	0.0146638
758.215	0.0146185
758.293	0.0147003
758.371	0.0147431
758.450	0.0147538
758.528	0.0147067
758.606	0.0146985
758.684	0.0148003
758.762	0.0146915
758.840	0.0148728
758.918	0.0146842
758.996	0.0148042
759.075	0.0147976
759.153	0.0147129
759.231	0.0148598
759.309	0.0147302
759.387	0.0146770
759.465	0.0147457
759.543	0.0147509
759.621	0.0146529
759.700	0.0147478
759.778	0.0146833
759.856	0.0148543
759.934	0.0147112
760.012	0.0147509
760.090	0.0147449
760.168	0.0146754
760.246	0.0146681
760.325	0.0146226
760.403	0.0147437
760.481	0.0146416
760.559	0.0145204
760.637	0.0145153
760.715	0.0144572
760.793	0.0145944
760.871	0.0145350
760.950	0.0145767
761.028	0.0144418
761.106	0.0146097
761.184	0.0146181
761.262	0.0146156
761.340	0.0146618
761.418	0.0146291
761.496	0.0145912
761.575	0.0148124
761.653	0.0147250
761.731	0.0146430
761.809	0.0145835
761.887	0.0147144
761.965	0.0147032
762.043	0.0146422
762.121	0.0147826
762.200	0.0147130
762.278	0.0148355
762.356	0.0145658
762.434	0.0146733
762.512	0.0147991
762.590	0.0146242
762.668	0.0146142
762.746	0.0145122
762.825	0.0145380
762.903	0.0147819
762.981	0.0146376
763.059	0.0145506
763.137	0.0146328
763.215	0.0145467
763.293	0.0145985
763.371	0.0145522
763.450	0.0146525
763.528	0.0146610
763.606	0.0147216
763.684	0.0146527
763.762	0.0147137
763.840	0.0147979
763.918	0.0146984
763.996	0.0147356
764.075	0.0147803
764.153	0.0148667
764.231	0.0147095
764.309	0.0148016
764.387	0.0147358
764.465	0.0148757
764.543	0.0146177
764.621	0.0147087
764.700	0.0146621
764.778	0.0147742
764.856	0.0146919
764.934	0.0146835
765.012	0.0147472
765.090	0.0145702
765.168	0.0146288
765.246	0.0147200
765.325	0.0146968
765.403	0.0146954
765.481	0.0145474
765.559	0.0146667
765.637	0.0147369
765.715	0.0147155
765.793	0.0146492
765.871	0.0147379
765.950	0.0147087
766.028	0.0146897
766.106	0.0145950
766.184	0.0148001
766.262	0.0147089
766.340	0.0146756
766.418	0.0147924
766.496	0.0147665
766.575	0.0145824
766.653	0.0146490
766.731	0.0146822
766.809	0.0147329
766.887	0.0147044
766.965	0.0147662
767.043	0.0147635
767.121	0.0147124
767.200	0.0147388
767.278	0.0147585
767.356	0.0146959
767.434	0.0147620
767.512	0.0147678
767.590	0.0148191
767.668	0.0147169
767.746	0.0148781
767.825	0.0148949
767.903	0.0147755
767.981	0.0147531
768.059	0.0147859
768.137	0.0146550
768.215	0.0147643
768.293	0.0148087
768.371	0.0146877
768.450	0.0145872
768.528	0.0146252
768.606	0.0147779
768.684	0.0146818
768.762	0.0146347
768.840	0.0148522
768.918	0.0148188
768.996	0.0147914
769.075	0.0148103
769.153	0.0148169
769.231	0.0148577
769.309	0.0147840
769.387	0.0147051
769.465	0.0147961
769.543	0.0148642
769.621	0.0147984
769.700	0.0149201
769.778	0.0148384
769.856	0.0147543
769.934	0.0148531
770.012	0.0147546
770.090	0.0146545
770.168	0.0147009
770.246	0.0147921
770.325	0.0146329
770.403	0.0147165
770.481	0.0145319
770.559	0.0146548
770.637	0.0146427
770.715	0.0146531
770.793	0.0146411
770.871	0.0146223
770.950	0.0147979
771.028	0.0148171
771.106	0.0147161
771.184	0.0147686
771.262	0.0148346
771.340	0.0147108
771.418	0.0148034
771.496	0.0147584
771.575	0.0148369
771.653	0.0147289
771.731	0.0147468
771.809	0.0148471
771.887	0.0148368
771.965	0.0147496
772.043	0.0147012
772.121	0.0146668
772.200	0.0147047
772.278	0.0145990
772.356	0.0147391
772.434	0.0147035
772.512	0.0147898
772.590	0.0146805
772.668	0.0146704
772.746	0.0145831
772.825	0.0146233
772.903	0.0146163
772.981	0.0148045
773.059	0.0147184
773.137	0.0146658
773.215	0.0146008
773.293	0.0146158
773.371	0.0147678
773.450	0.0146658
773.528	0.0147125
773.606	0.0147060
773.684	0.0147930
773.762	0.0147294
773.840	0.0147935
773.918	0.0147987
773.996	0.0147797
774.075	0.0149320
774.153	0.0147899
774.231	0.0147427
774.309	0.0146988
774.387	0.0147834
774.465	0.0148281
774.543	0.0146739
774.621	0.0147137
774.700	0.0147709
774.778	0.0147562
774.856	0.0147431
774.934	0.0147554
775.012	0.0146298
775.090	0.0146831
775.168	0.0148133
775.246	0.0147177
775.325	0.0147762
775.403	0.0146602
775.481	0.0146852
775.559	0.0147755
775.637	0.0146407
775.715	0.0146276
775.793	0.0146936
775.871	0.0147032
775.950	0.0147425
776.028	0.0145686
776.106	0.0146342
776.184	0.0146574
776.262	0.0146333
776.340	0.0145418
776.418	0.0146717
776.496	0.0147811
776.575	0.0147450
776.653	0.0147324
776.731	0.0146346
776.809	0.0145163
776.887	0.0145507
776.965	0.0147701
777.043	0.0147690
777.121	0.0147576
777.200	0.0147833
777.278	0.0147350
777.356	0.0148083
777.434	0.0148296
777.512	0.0147953
777.590	0.0146951
777.668	0.0147954
777.746	0.0146167
777.825	0.0146379
777.903	0.0146928
777.981	0.0147516
778.059	0.0146853
778.137	0.0146964
778.215	0.0147363
778.293	0.0146400
778.371	0.0148402
778.450	0.0146452
778.528	0.0145538
778.606	0.0148255
778.684	0.0148981
778.762	0.0148798
778.840	0.0145853
778.918	0.0146196
778.996	0.0147660
779.075	0.0146707
779.153	0.0147363
779.231	0.0147334
779.309	0.0145784
779.387	0.0148220
779.465	0.0147388
779.543	0.0148287
779.621	0.0146897
779.700	0.0146831
779.778	0.0145648
779.856	0.0146999
779.934	0.0147564
780.012	0.0147577
780.090	0.0148049
780.168	0.0148155
780.246	0.0147169
780.325	0.0147147
780.403	0.0146001
780.481	0.0146280
780.559	0.0146870
780.637	0.0148167
780.715	0.0147483
780.793	0.0148988
780.871	0.0148319
780.950	0.0146799
781.028	0.0147329
781.106	0.0148542
781.184	0.0148062
781.262	0.0148303
781.340	0.0148964
781.418	0.0147312
781.496	0.0146793
781.575	0.0147296
781.653	0.0146933
781.731	0.0146961
781.809	0.0147709
781.887	0.0147522
781.965	0.0146981
782.043	0.0146696
782.121	0.0147984
782.200	0.0146060
782.278	0.0146008
782.356	0.0147865
782.434	0.0147411
782.512	0.0147696
782.590	0.0148685
782.668	0.0148965
782.746	0.0148522
782.825	0.0147388
782.903	0.0149380
782.981	0.0149168
783.059	0.0148804
783.137	0.0148289
783.215	0.0148181
783.293	0.0147797
783.371	0.0148215
783.450	0.0148734
783.528	0.0147739
783.606	0.0147594
783.684	0.0146558
783.762	0.0145969
783.840	0.0147631
783.918	0.0146677
783.996	0.0145613
784.075	0.0146629
784.153	0.0145989
784.231	0.0146217
784.309	0.0146051
784.387	0.0146265
784.465	0.0146499
784.543	0.0144807
784.621	0.0146478
784.700	0.0146835
784.778	0.0146494
784.856	0.0145757
784.934	0.0145002
785.012	0.0147773
785.090	0.0146904
785.168	0.0147153
785.246	0.0146398
785.325	0.0147718
785.403	0.0148312
785.481	0.0147276
785.559	0.0146820
785.637	0.0147737
785.715	0.0146960
785.793	0.0146586
785.871	0.0147594
785.950	0.0147882
786.028	0.0147045
786.106	0.0147596
786.184	0.0147991
786.262	0.0147572
786.340	0.0147387
786.418	0.0146288
786.496	0.0146499
786.575	0.0145203
786.653	0.0146033
786.731	0.0146870
786.809	0.0147744
786.887	0.0146613
786.965	0.0146986
787.043	0.0145705
787.121	0.0147981
787.200	0.0146703
787.278	0.0144955
787.356	0.0145819
787.434	0.0145161
787.512	0.0147271
787.590	0.0145789
787.668	0.0147547
787.746	0.0146206
787.825	0.0147318
787.903	0.0147388
787.981	0.0148152
788.059	0.0145901
788.137	0.0147905
788.215	0.0147809
788.293	0.0146719
788.371	0.0146272
788.450	0.0145876
788.528	0.0144977
788.606	0.0146712
788.684	0.0147132
788.762	0.0148118
788.840	0.0146954
788.918	0.0144883
788.996	0.0147187
789.075	0.0146566
789.153	0.0145981
789.231	0.0146560
789.309	0.0146268
789.387	0.0146258
789.465	0.0146082
789.543	0.0146288
789.621	0.0146523
789.700	0.0144731
789.778	0.0145984
789.856	0.0145888
789.934	0.0145147
790.012	0.0145850
790.090	0.0147859
790.168	0.0147563
790.246	0.0147582
790.325	0.0147761
790.403	0.0146408
790.481	0.0147677
790.559	0.0146227
790.637	0.0147887
790.715	0.0147174
790.793	0.0147588
790.871	0.0147974
790.950	0.0147668
791.028	0.0146847
791.106	0.0148067
791.184	0.0147013
791.262	0.0147504
791.340	0.0148591
791.418	0.0147149
791.496	0.0146571
791.575	0.0146822
791.653	0.0148512
791.731	0.0148082
791.809	0.0147363
791.887	0.0146384
791.965	0.0146660
792.043	0.0146456
792.121	0.0146551
792.200	0.0147275
792.278	0.0145915
792.356	0.0145410
792.434	0.0145278
792.512	0.0144960
792.590	0.0145205
792.668	0.0145837
792.746	0.0147009
792.825	0.0146325
792.903	0.0145468
792.981	0.0146323
793.059	0.0145307
793.137	0.0146603
793.215	0.0146450
793.293	0.0145141
793.371	0.0146763
793.450	0.0147342
793.528	0.0145689
793.606	0.0147134
793.684	0.0146642
793.762	0.0148660
793.840	0.0147953
793.918	0.0148660
793.996	0.0147650
794.075	0.0147793
794.153	0.0147037
794.231	0.0147425
794.309	0.0148071
794.387	0.0147386
794.465	0.0147679
794.543	0.0147997
794.621	0.0148388
794.700	0.0148269
794.778	0.0146235
794.856	0.0144917
794.934	0.0145887
795.012	0.0148589
795.090	0.0147723
795.168	0.0146738
795.246	0.0145792
795.325	0.0147256
795.403	0.0147417
795.481	0.0147858
795.559	0.0148437
795.637	0.0148168
795.715	0.0148077
795.793	0.0147288
795.871	0.0147279
795.950	0.0146649
796.028	0.0146912
796.106	0.0147718
796.184	0.0146873
796.262	0.0147883
796.340	0.0146680
796.418	0.0147481
796.496	0.0147898
796.575	0.0147811
796.653	0.0146072
796.731	0.0147173
796.809	0.0148183
796.887	0.0149052
796.965	0.0146627
797.043	0.0148707
797.121	0.0148468
797.200	0.0148471
797.278	0.0147010
797.356	0.0146180
797.434	0.0146672
797.512	0.0147046
797.590	0.0147371
797.668	0.0147539
797.746	0.0147655
797.825	0.0146375
797.903	0.0147133
797.981	0.0147398
798.059	0.0147755
798.137	0.0147547
798.215	0.0146950
798.293	0.0147788
798.371	0.0147553
798.450	0.0146877
798.528	0.0147427
798.606	0.0147511
798.684	0.0147865
798.762	0.0147918
798.840	0.0146980
798.918	0.0147932
798.996	0.0147805
799.075	0.0146400
799.153	0.0147748
799.231	0.0147762
799.309	0.0147375
799.387	0.0148388
799.465	0.0147453
799.543	0.0146097
799.621	0.0146349
799.700	0.0148775
799.778	0.0147338
799.856	0.0146679
799.934	0.0145959
800.012	0.0146239
800.090	0.0147937
800.168	0.0146987
800.246	0.0146773
800.325	0.0148538
800.403	0.0148315
800.481	0.0146830
800.559	0.0147180
800.637	0.0146770
800.715	0.0146534
800.793	0.0146725
800.871	0.0148134
800.950	0.0148222
801.028	0.0146983
801.106	0.0147083
801.184	0.0147438
801.262	0.0147549
801.340	0.0146861
801.418	0.0147999
801.496	0.0146998
801.575	0.0148195
801.653	0.0147495
801.731	0.0147195
801.809	0.0148979
801.887	0.0147688
801.965	0.0147384
802.043	0.0148010
802.121	0.0146339
802.200	0.0146983
802.278	0.0147792
802.356	0.0149442
802.434	0.0147722
802.512	0.0146149
802.590	0.0146416
802.668	0.0146444
802.746	0.0147194
802.825	0.0146281
802.903	0.0146381
802.981	0.0147256
803.059	0.0147449
803.137	0.0145904
803.215	0.0147419
803.293	0.0147733
803.371	0.0147643
803.450	0.0148672
803.528	0.0147205
803.606	0.0146040
803.684	0.0147404
803.762	0.0147151
803.840	0.0148573
803.918	0.0147337
803.996	0.0147731
804.075	0.0147636
804.153	0.0147936
804.231	0.0147552
804.309	0.0147313
804.387	0.0147919
804.465	0.0147389
804.543	0.0147879
804.621	0.0148224
804.700	0.0148335
804.778	0.0147272
804.856	0.0146641
804.934	0.0147068
805.012	0.0147588
805.090	0.0146716
805.168	0.0146392
805.246	0.0147856
805.325	0.0147516
805.403	0.0146577
805.481	0.0147973
805.559	0.0146953
805.637	0.0146257
805.715	0.0147032
805.793	0.0146995
805.871	0.0147884
805.950	0.0147341
806.028	0.0147680
806.106	0.0148421
806.184	0.0146954
806.262	0.0147921
806.340	0.0147407
806.418	0.0147340
806.496	0.0146722
806.575	0.0147153
806.653	0.0149126
806.731	0.0147447
806.809	0.0147202
806.887	0.0147326
806.965	0.0147930
807.043	0.0146994
807.121	0.0148602
807.200	0.0146667
807.278	0.0147057
807.356	0.0146593
807.434	0.0147470
807.512	0.0146903
807.590	0.0146881
807.668	0.0146603
807.746	0.0147014
807.825	0.0147655
807.903	0.0146484
807.981	0.0146272
808.059	0.0145860
808.137	0.0146655
808.215	0.0146783
808.293	0.0145263
808.371	0.0147653
808.450	0.0146760
808.528	0.0148022
808.606	0.0148318
808.684	0.0147314
808.762	0.0147148
808.840	0.0149033
808.918	0.0149261
808.996	0.0147631
809.075	0.0147247
809.153	0.0146891
809.231	0.0147392
809.309	0.0148447
809.387	0.0148251
809.465	0.0147586
809.543	0.0148600
809.621	0.0147666
809.700	0.0147527
809.778	0.0146182
809.856	0.0147970
809.934	0.0148178
810.012	0.0147955
810.090	0.0146678
810.168	0.0147733
810.246	0.0147881
810.325	0.0146783
810.403	0.0146122
810.481	0.0146655
810.559	0.0146779
810.637	0.0146207
810.715	0.0146030
810.793	0.0147305
810.871	0.0146730
810.950	0.0147351
811.028	0.0145728
811.106	0.0148671
811.184	0.0147709
811.262	0.0146096
811.340	0.0146339
811.418	0.0147100
811.496	0.0147478
811.575	0.0147458
811.653	0.0146832
811.731	0.0148806
811.809	0.0146463
811.887	0.0148092
811.965	0.0147503
812.043	0.0146497
812.121	0.0147758
812.200	0.0148083
812.278	0.0147809
812.356	0.0146927
812.434	0.0146814
812.512	0.0147773
812.590	0.0147536
812.668	0.0147648
812.746	0.0146950
812.825	0.0147108
812.903	0.0146339
812.981	0.0145950
813.059	0.0147315
813.137	0.0146907
813.215	0.0146471
813.293	0.0146169
813.371	0.0148235
813.450	0.0145925
813.528	0.0146562
813.606	0.0147236
813.684	0.0146824
813.762	0.0146059
813.840	0.0147157
813.918	0.0147448
813.996	0.0146207
814.075	0.0147718
814.153	0.0147449
814.231	0.0147717
814.309	0.0146989
814.387	0.0146838
814.465	0.0147704
814.543	0.0147578
814.621	0.0147515
814.700	0.0147389
814.778	0.0149133
814.856	0.0148099
814.934	0.0148249
815.012	0.0148587
815.090	0.0147697
815.168	0.0146452
815.246	0.0147976
815.325	0.0147177
815.403	0.0146423
815.481	0.0146680
815.559	0.0148978
815.637	0.0146658
815.715	0.0145524
815.793	0.0147551
815.871	0.0146400
815.950	0.0146754
816.028	0.0146426
816.106	0.0147639
816.184	0.0146722
816.262	0.0146979
816.340	0.0146510
816.418	0.0146576
816.496	0.0145629
816.575	0.0147523
816.653	0.0146932
816.731	0.0146784
816.809	0.0146671
816.887	0.0147125
816.965	0.0146634
817.043	0.0145692
817.121	0.0147157
817.200	0.0146198
817.278	0.0147271
817.356	0.0147935
817.434	0.0147318
817.512	0.0148383
817.590	0.0147207
817.668	0.0146105
817.746	0.0147158
817.825	0.0147858
817.903	0.0148245
817.981	0.0148186
818.059	0.0146421
818.137	0.0146848
818.215	0.0146251
818.293	0.0147116
818.371	0.0147259
818.450	0.0146742
818.528	0.0147214
818.606	0.0147668
818.684	0.0146909
818.762	0.0148235
818.840	0.0146487
818.918	0.0146655
818.996	0.0146939
819.075	0.0148083
819.153	0.0148375
819.231	0.0147961
819.309	0.0148303
819.387	0.0147116
819.465	0.0146001
819.543	0.0147744
819.621	0.0147370
819.700	0.0146815
819.778	0.0147253
819.856	0.0147928
819.934	0.0147157
820.012	0.0147740
820.090	0.0147639
820.168	0.0147081
820.246	0.0147026
820.325	0.0147571
820.403	0.0146583
820.481	0.0147464
820.559	0.0147484
820.637	0.0147274
820.715	0.0148446
820.793	0.0146507
820.871	0.0147047
820.950	0.0148086
821.028	0.0148930
821.106	0.0147360
821.184	0.0147202
821.262	0.0145883
821.340	0.0147123
821.418	0.0146613
821.496	0.0145733
821.575	0.0146997
821.653	0.0147618
821.731	0.0146254
821.809	0.0145296
821.887	0.0145746
821.965	0.0147501
822.043	0.0146793
822.121	0.0147404
822.200	0.0148099
822.278	0.0147243
822.356	0.0147847
822.434	0.0148135
822.512	0.0147468
822.590	0.0146606
822.668	0.0146971
822.746	0.0145871
822.825	0.0148450
822.903	0.0148567
822.981	0.0147240
823.059	0.0148354
823.137	0.0148318
823.215	0.0147062
823.293	0.0147616
823.371	0.0146806
823.450	0.0146609
823.528	0.0148130
823.606	0.0146528
823.684	0.0147032
823.762	0.0146706
823.840	0.0146378
823.918	0.0147493
823.996	0.0147298
824.075	0.0147753
824.153	0.0147993
824.231	0.0147828
824.309	0.0147363
824.387	0.0145668
824.465	0.0146735
824.543	0.0147432
824.621	0.0148279
824.700	0.0148044
824.778	0.0145976
824.856	0.0147868
824.934	0.0147546
825.012	0.0147755
825.090	0.0148180
825.168	0.0149194
825.246	0.0148228
825.325	0.0147773
825.403	0.0146670
825.481	0.0146872
825.559	0.0146867
825.637	0.0147568
825.715	0.0147812
825.793	0.0146667
825.871	0.0147822
825.950	0.0146167
826.028	0.0147416
826.106	0.0147827
826.184	0.0147950
826.262	0.0148432
826.340	0.0148598
826.418	0.0147251
826.496	0.0147243
826.575	0.0147565
826.653	0.0147501
826.731	0.0148701
826.809	0.0146925
826.887	0.0147289
826.965	0.0147379
827.043	0.0148080
827.121	0.0147250
827.200	0.0146671
827.278	0.0147909
827.356	0.0148000
827.434	0.0147977
827.512	0.0146193
827.590	0.0147192
827.668	0.0146773
827.746	0.0147665
827.825	0.0148351
827.903	0.0145969
827.981	0.0148020
828.059	0.0146670
828.137	0.0147301
828.215	0.0146943
828.293	0.0148035
828.371	0.0147948
828.450	0.0146891
828.528	0.0146677
828.606	0.0147581
828.684	0.0147822
828.762	0.0147652
828.840	0.0147137
828.918	0.0147486
828.996	0.0147076
829.075	0.0148502
829.153	0.0146709
829.231	0.0147266
829.309	0.0146525
829.387	0.0145956
829.465	0.0147204
829.543	0.0146386
829.621	0.0146882
829.700	0.0147689
829.778	0.0146633
829.856	0.0147174
829.934	0.0148049
830.012	0.0146917
830.090	0.0147369
830.168	0.0147057
830.246	0.0147503
830.325	0.0147111
830.403	0.0145765
830.481	0.0147836
830.559	0.0147367
830.637	0.0146531
830.715	0.0146406
830.793	0.0147620
830.871	0.0146829
830.950	0.0145814
831.028	0.0147328
831.106	0.0147539
831.184	0.0147727
831.262	0.0148220
831.340	0.0148844
831.418	0.0147372
831.496	0.0146725
831.575	0.0145876
831.653	0.0144969
831.731	0.0145565
831.809	0.0146341
831.887	0.0146627
831.965	0.0146915
832.043	0.0146214
832.121	0.0146057
832.200	0.0145660
832.278	0.0147102
832.356	0.0147279
832.434	0.0147739
832.512	0.0148282
832.590	0.0146716
832.668	0.0146709
832.746	0.0147804
832.825	0.0146807
832.903	0.0147859
832.981	0.0148825
833.059	0.0146436
833.137	0.0147514
833.215	0.0148119
833.293	0.0147533
833.371	0.0146983
833.450	0.0146317
833.528	0.0146507
833.606	0.0145842
833.684	0.0146744
833.762	0.0145728
833.840	0.0147407
833.918	0.0147094
833.996	0.0145738
834.075	0.0145485
834.153	0.0145839
834.231	0.0145206
834.309	0.0146050
834.387	0.0146899
834.465	0.0146435
834.543	0.0147018
834.621	0.0147424
834.700	0.0147942
834.778	0.0147092
834.856	0.0146718
834.934	0.0147533
835.012	0.0147335
835.090	0.0147002
835.168	0.0148840
835.246	0.0147117
835.325	0.0147339
835.403	0.0148050
835.481	0.0146708
835.559	0.0145470
835.637	0.0147445
835.715	0.0147061
835.793	0.0146877
835.871	0.0147002
835.950	0.0145980
836.028	0.0147683
836.106	0.0145962
836.184	0.0146024
836.262	0.0147198
836.340	0.0144987
836.418	0.0145661
836.496	0.0146193
836.575	0.0147326
836.653	0.0145927
836.731	0.0147416
836.809	0.0147728
836.887	0.0146521
836.965	0.0147643
837.043	0.0146821
837.121	0.0146627
837.200	0.0146737
837.278	0.0147706
837.356	0.0146156
837.434	0.0146153
837.512	0.0146241
837.590	0.0146221
837.668	0.0146206
837.746	0.0147136
837.825	0.0147398
837.903	0.0147729
837.981	0.0146550
838.059	0.0146685
838.137	0.0148941
838.215	0.0147561
838.293	0.0147540
838.371	0.0147792
838.450	0.0148436
838.528	0.0148552
838.606	0.0148620
838.684	0.0148442
838.762	0.0147088
838.840	0.0148008
838.918	0.0148380
838.996	0.0148318
839.075	0.0148144
839.153	0.0146588
839.231	0.0147865
839.309	0.0147899
839.387	0.0145668
839.465	0.0146465
839.543	0.0147597
839.621	0.0147839
839.700	0.0147046
839.778	0.0147549
839.856	0.0147453
839.934	0.0146484
840.012	0.0146297
840.090	0.0146373
840.168	0.0146557
840.246	0.0146713
840.325	0.0147188
840.403	0.0146445
840.481	0.0146447
840.559	0.0147845
840.637	0.0146540
840.715	0.0146372
840.793	0.0147851
840.871	0.0147604
840.950	0.0147631
841.028	0.0147963
841.106	0.0146908
841.184	0.0147879
841.262	0.0147314
841.340	0.0147250
841.418	0.0147547
841.496	0.0147849
841.575	0.0147882
841.653	0.0147923
841.731	0.0148673
841.809	0.0146653
841.887	0.0148319
841.965	0.0146923
842.043	0.0148260
842.121	0.0147445
842.200	0.0147508
842.278	0.0147986
842.356	0.0146307
842.434	0.0145841
842.512	0.0145891
842.590	0.0147559
842.668	0.0146765
842.746	0.0146579
842.825	0.0146722
842.903	0.0147215
842.981	0.0146620
843.059	0.0146216
843.137	0.0147563
843.215	0.0146842
843.293	0.0147648
843.371	0.0146778
843.450	0.0146763
843.528	0.0146027
843.606	0.0146108
843.684	0.0148286
843.762	0.0148370
843.840	0.0147257
843.918	0.0147842
843.996	0.0147410
844.075	0.0146111
844.153	0.0146365
844.231	0.0146815
844.309	0.0146848
844.387	0.0147232
844.465	0.0146572
844.543	0.0147175
844.621	0.0146663
844.700	0.0147144
844.778	0.0145907
844.856	0.0146675
844.934	0.0146771
845.012	0.0147179
845.090	0.0147857
845.168	0.0146965
845.246	0.0146359
845.325	0.0146679
845.403	0.0145113
845.481	0.0146220
845.559	0.0146527
845.637	0.0145765
845.715	0.0146501
845.793	0.0146251
845.871	0.0145601
845.950	0.0146680
846.028	0.0147424
846.106	0.0145180
846.184	0.0146358
846.262	0.0146802
846.340	0.0147401
846.418	0.0145795
846.496	0.0146688
846.575	0.0146730
846.653	0.0146818
846.731	0.0149049
846.809	0.0147978
846.887	0.0147948
846.965	0.0146162
847.043	0.0146865
847.121	0.0148071
847.200	0.0146670
847.278	0.0146864
847.356	0.0146345
847.434	0.0146544
847.512	0.0148972
847.590	0.0148769
847.668	0.0147338
847.746	0.0147471
847.825	0.0146495
847.903	0.0146931
847.981	0.0146684
848.059	0.0147813
848.137	0.0146288
848.215	0.0148244
848.293	0.0148528
848.371	0.0147076
848.450	0.0146075
848.528	0.0146433
848.606	0.0146574
848.684	0.0147550
848.762	0.0147484
848.840	0.0147282
848.918	0.0148916
848.996	0.0147248
849.075	0.0146378
849.153	0.0147131
849.231	0.0147298
849.309	0.0148329
849.387	0.0147919
849.465	0.0146722
849.543	0.0146922
849.621	0.0146974
849.700	0.0147180
849.778	0.0149334
849.856	0.0146651
849.934	0.0146318
850.012	0.0146114
850.090	0.0146180
850.168	0.0147852
850.246	0.0145815
850.325	0.0145612
850.403	0.0146645
850.481	0.0147079
850.559	0.0146329
850.637	0.0145374
850.715	0.0146188
850.793	0.0146501
850.871	0.0147880
850.950	0.0148002
851.028	0.0147701
851.106	0.0148138
851.184	0.0146458
851.262	0.0145889
851.340	0.0148919
851.418	0.0148317
851.496	0.0147060
851.575	0.0147515
851.653	0.0147016
851.731	0.0146268
851.809	0.0146536
851.887	0.0145649
851.965	0.0147224
852.043	0.0146656
852.121	0.0145990
852.200	0.0147345
852.278	0.0147032
852.356	0.0147318
852.434	0.0145882
852.512	0.0146494
852.590	0.0146539
852.668	0.0146549
852.746	0.0146590
852.825	0.0145583
852.903	0.0146132
852.981	0.0145700
853.059	0.0147108
853.137	0.0148254
853.215	0.0147294
853.293	0.0146749
853.371	0.0146019
853.450	0.0145652
853.528	0.0146683
853.606	0.0145901
853.684	0.0146576
853.762	0.0146838
853.840	0.0147824
853.918	0.0146888
853.996	0.0146893
854.075	0.0147458
854.153	0.0146267
854.231	0.0146633
854.309	0.0148325
854.387	0.0147761
854.465	0.0145944
854.543	0.0146684
854.621	0.0146147
854.700	0.0147821
854.778	0.0147487
854.856	0.0146894
854.934	0.0147929
855.012	0.0146929
855.090	0.0147411
855.168	0.0147311
855.246	0.0146348
855.325	0.0147793
855.403	0.0146901
855.481	0.0147411
855.559	0.0148360
855.637	0.0147511
855.715	0.0147947
855.793	0.0145900
855.871	0.0145119
855.950	0.0146208
856.028	0.0147290
856.106	0.0145763
856.184	0.0146362
856.262	0.0146638
856.340	0.0146483
856.418	0.0146977
856.496	0.0146640
856.575	0.0146533
856.653	0.0144984
856.731	0.0146352
856.809	0.0146329
856.887	0.0146503
856.965	0.0146248
857.043	0.0147728
857.121	0.0147552
857.200	0.0146394
857.278	0.0146432
857.356	0.0147163
857.434	0.0146545
857.512	0.0146986
857.590	0.0146783
857.668	0.0147482
857.746	0.0145952
857.825	0.0145515
857.903	0.0146302
857.981	0.0147208
858.059	0.0146836
858.137	0.0148527
858.215	0.0147085
858.293	0.0146760
858.371	0.0146780
858.450	0.0148105
858.528	0.0146864
858.606	0.0146950
858.684	0.0147429
858.762	0.0147516
858.840	0.0147651
858.918	0.0145461
858.996	0.0146626
859.075	0.0148263
859.153	0.0149526
859.231	0.0148136
859.309	0.0146443
859.387	0.0147413
859.465	0.0147604
859.543	0.0146703
859.621	0.0146760
859.700	0.0147658
859.778	0.0147042
859.856	0.0148054
859.934	0.0145277
860.012	0.0147384
860.090	0.0147884
860.168	0.0146829
860.246	0.0146207
860.325	0.0146337
860.403	0.0147654
860.481	0.0148335
860.559	0.0148211
860.637	0.0146521
860.715	0.0147748
860.793	0.0147212
860.871	0.0147676
860.950	0.0147893
861.028	0.0146589
861.106	0.0147365
861.184	0.0148902
861.262	0.0146447
861.340	0.0146387
861.418	0.0148463
861.496	0.0147050
861.575	0.0147157
861.653	0.0146790
861.731	0.0146374
861.809	0.0148413
861.887	0.0147449
861.965	0.0147783
862.043	0.0147672
862.121	0.0145612
862.200	0.0147666
862.278	0.0145725
862.356	0.0146192
862.434	0.0146394
862.512	0.0147203
862.590	0.0145898
862.668	0.0145538
862.746	0.0145724
862.825	0.0146475
862.903	0.0145673
862.981	0.0147728
863.059	0.0147424
863.137	0.0146180
863.215	0.0147575
863.293	0.0147089
863.371	0.0147221
863.450	0.0147556
863.528	0.0148318
863.606	0.0145448
863.684	0.0146058
863.762	0.0146845
863.840	0.0145599
863.918	0.0146804
863.996	0.0146896
864.075	0.0146793
864.153	0.0146964
864.231	0.0148164
864.309	0.0147044
864.387	0.0147375
864.465	0.0147710
864.543	0.0147402
864.621	0.0146784
864.700	0.0147773
864.778	0.0148103
864.856	0.0148074
864.934	0.0146407
865.012	0.0146590
865.090	0.0146872
865.168	0.0147786
865.246	0.0147116
865.325	0.0146099
865.403	0.0146336
865.481	0.0148330
865.559	0.0146333
865.637	0.0145431
865.715	0.0146451
865.793	0.0146742
865.871	0.0147401
865.950	0.0146972
866.028	0.0147333
866.106	0.0148532
866.184	0.0148356
866.262	0.0147021
866.340	0.0147604
866.418	0.0148172
866.496	0.0147328
866.575	0.0146951
866.653	0.0148233
866.731	0.0148109
866.809	0.0146927
866.887	0.0146723
866.965	0.0147432
867.043	0.0147945
867.121	0.0147056
867.200	0.0146653
867.278	0.0147169
867.356	0.0147295
867.434	0.0147980
867.512	0.0146554
867.590	0.0147125
867.668	0.0148841
867.746	0.0148065
867.825	0.0147359
867.903	0.0147089
867.981	0.0147741
868.059	0.0147058
868.137	0.0148186
868.215	0.0146565
868.293	0.0145654
868.371	0.0146004
868.450	0.0146658
868.528	0.0145615
868.606	0.0147535
868.684	0.0146709
868.762	0.0147279
868.840	0.0147929
868.918	0.0146191
868.996	0.0146013
869.075	0.0146420
869.153	0.0146686
869.231	0.0147705
869.309	0.0146070
869.387	0.0147062
869.465	0.0147209
869.543	0.0147472
869.621	0.0148280
869.700	0.0147993
869.778	0.0146616
869.856	0.0147362
869.934	0.0147836
870.012	0.0146371
870.090	0.0146760
870.168	0.0147413
870.246	0.0147857
870.325	0.0146059
870.403	0.0144872
870.481	0.0146149
870.559	0.0146249
870.637	0.0146632
870.715	0.0146770
870.793	0.0146828
870.871	0.0146149
870.950	0.0146365
871.028	0.0147589
871.106	0.0148183
871.184	0.0146002
871.262	0.0145992
871.340	0.0148290
871.418	0.0145722
871.496	0.0146249
871.575	0.0146787
871.653	0.0146194
871.731	0.0146906
871.809	0.0147411
871.887	0.0146213
871.965	0.0146160
872.043	0.0146110
872.121	0.0146358
872.200	0.0147260
872.278	0.0148562
872.356	0.0146918
872.434	0.0146017
872.512	0.0146608
872.590	0.0146842
872.668	0.0146189
872.746	0.0147720
872.825	0.0147860
872.903	0.0146365
872.981	0.0145816
873.059	0.0147308
873.137	0.0146867
873.215	0.0145791
873.293	0.0147711
873.371	0.0148447
873.450	0.0146979
873.528	0.0147295
873.606	0.0147645
873.684	0.0146881
873.762	0.0147543
873.840	0.0146639
873.918	0.0147574
873.996	0.0147350
874.075	0.0146927
874.153	0.0147148
874.231	0.0149182
874.309	0.0147786
874.387	0.0146318
874.465	0.0145702
874.543	0.0145144
874.621	0.0147980
874.700	0.0146042
874.778	0.0146082
874.856	0.0147332
874.934	0.0146410
875.012	0.0146320
875.090	0.0146879
875.168	0.0146213
875.246	0.0147060
875.325	0.0147074
875.403	0.0146390
875.481	0.0147527
875.559	0.0146843
875.637	0.0146942
875.715	0.0147444
875.793	0.0146731
875.871	0.0145599
875.950	0.0146716
876.028	0.0147649
876.106	0.0146826
876.184	0.0145644
876.262	0.0147155
876.340	0.0147143
876.418	0.0145560
876.496	0.0146526
876.575	0.0146725
876.653	0.0146438
876.731	0.0147073
876.809	0.0147320
876.887	0.0148481
876.965	0.0146649
877.043	0.0146533
877.121	0.0147563
877.200	0.0146624
877.278	0.0147087
877.356	0.0147171
877.434	0.0147540
877.512	0.0145966
877.590	0.0146896
877.668	0.0146481
877.746	0.0146552
877.825	0.0146449
877.903	0.0144695
877.981	0.0146719
878.059	0.0146696
878.137	0.0145895
878.215	0.0147041
878.293	0.0147490
878.371	0.0146635
878.450	0.0146585
878.528	0.0146004
878.606	0.0146880
878.684	0.0146829
878.762	0.0146378
878.840	0.0147863
878.918	0.0147005
878.996	0.0146632
879.075	0.0145411
879.153	0.0146422
879.231	0.0144905
879.309	0.0145143
879.387	0.0146587
879.465	0.0145945
879.543	0.0146278
879.621	0.0145226
879.700	0.0146105
879.778	0.0145248
879.856	0.0146254
879.934	0.0145201
880.012	0.0145817
880.090	0.0146480
880.168	0.0147031
880.246	0.0146608
880.325	0.0145397
880.403	0.0146572
880.481	0.0146003
880.559	0.0146707
880.637	0.0146735
880.715	0.0145807
880.793	0.0146103
880.871	0.0147092
880.950	0.0148344
881.028	0.0147057
881.106	0.0146824
881.184	0.0147625
881.262	0.0146455
881.340	0.0146727
881.418	0.0148788
881.496	0.0146732
881.575	0.0146841
881.653	0.0147413
881.731	0.0147222
881.809	0.0147017
881.887	0.0146287
881.965	0.0145691
882.043	0.0145667
882.121	0.0145612
882.200	0.0146059
882.278	0.0147075
882.356	0.0146630
882.434	0.0145479
882.512	0.0146943
882.590	0.0146115
882.668	0.0147716
882.746	0.0148384
882.825	0.0148675
882.903	0.0146217
882.981	0.0146965
883.059	0.0146350
883.137	0.0147185
883.215	0.0146825
883.293	0.0147642
883.371	0.0147124
883.450	0.0145851
883.528	0.0147057
883.606	0.0146677
883.684	0.0146197
883.762	0.0145372
883.840	0.0146140
883.918	0.0147025
883.996	0.0147187
884.075	0.0146545
884.153	0.0145335
884.231	0.0148156
884.309	0.0146147
884.387	0.0147051
884.465	0.0146276
884.543	0.0146436
884.621	0.0146253
884.700	0.0145456
884.778	0.0146358
884.856	0.0147385
884.934	0.0147546
885.012	0.0147314
885.090	0.0148347
885.168	0.0148186
885.246	0.0146130
885.325	0.0147046
885.403	0.0148425
885.481	0.0147887
885.559	0.0148185
885.637	0.0147631
885.715	0.0148644
885.793	0.0147107
885.871	0.0147616
885.950	0.0148148
886.028	0.0148181
886.106	0.0147939
886.184	0.0148114
886.262	0.0147476
886.340	0.0146765
886.418	0.0148133
886.496	0.0147079
886.575	0.0147266
886.653	0.0147907
886.731	0.0148116
886.809	0.0147211
886.887	0.0146931
886.965	0.0147407
887.043	0.0148148
887.121	0.0148716
887.200	0.0148663
887.278	0.0148430
887.356	0.0148233
887.434	0.0147786
887.512	0.0146663
887.590	0.0147781
887.668	0.0147106
887.746	0.0147495
887.825	0.0146208
887.903	0.0146564
887.981	0.0146313
888.059	0.0147600
888.137	0.0148558
888.215	0.0146487
888.293	0.0148017
888.371	0.0146452
888.450	0.0147579
888.528	0.0146540
888.606	0.0147433
888.684	0.0148478
888.762	0.0147142
888.840	0.0147095
888.918	0.0146776
888.996	0.0147824
889.075	0.0148272
889.153	0.0147149
889.231	0.0147085
889.309	0.0147392
889.387	0.0145648
889.465	0.0145904
889.543	0.0147214
889.621	0.0147756
889.700	0.0147253
889.778	0.0146302
889.856	0.0146655
889.934	0.0145724
890.012	0.0145829
890.090	0.0147546
890.168	0.0146786
890.246	0.0146540
890.325	0.0145950
890.403	0.0145961
890.481	0.0147057
890.559	0.0146053
890.637	0.0145576
890.715	0.0146915
890.793	0.0147086
890.871	0.0146249
890.950	0.0145091
891.028	0.0146587
891.106	0.0148305
891.184	0.0146774
891.262	0.0147313
891.340	0.0147356
891.418	0.0146719
891.496	0.0147440
891.575	0.0146232
891.653	0.0147449
891.731	0.0146317
891.809	0.0146501
891.887	0.0146658
891.965	0.0146820
892.043	0.0145791
892.121	0.0146819
892.200	0.0147292
892.278	0.0146701
892.356	0.0147413
892.434	0.0146686
892.512	0.0146031
892.590	0.0147511
892.668	0.0147556
892.746	0.0148051
892.825	0.0147303
892.903	0.0146836
892.981	0.0145937
893.059	0.0145567
893.137	0.0146251
893.215	0.0146358
893.293	0.0145843
893.371	0.0147089
893.450	0.0147267
893.528	0.0145438
893.606	0.0145544
893.684	0.0146714
893.762	0.0147413
893.840	0.0146915
893.918	0.0146368
893.996	0.0146859
894.075	0.0147665
894.153	0.0147112
894.231	0.0146055
894.309	0.0147652
894.387	0.0146744
894.465	0.0145823
894.543	0.0147137
894.621	0.0146379
894.700	0.0146470
894.778	0.0146358
894.856	0.0146873
894.934	0.0147108
895.012	0.0147723
895.090	0.0147306
895.168	0.0148275
895.246	0.0146199
895.325	0.0147338
895.403	0.0145098
895.481	0.0146388
895.559	0.0146752
895.637	0.0148259
895.715	0.0147759
895.793	0.0147164
895.871	0.0146938
895.950	0.0148431
896.028	0.0147318
896.106	0.0147469
896.184	0.0149192
896.262	0.0147014
896.340	0.0149020
896.418	0.0147775
896.496	0.0146989
896.575	0.0147123
896.653	0.0147522
896.731	0.0147288
896.809	0.0147490
896.887	0.0148716
896.965	0.0146291
897.043	0.0147456
897.121	0.0148758
897.200	0.0148322
897.278	0.0147231
897.356	0.0147337
897.434	0.0147124
897.512	0.0147440
897.590	0.0147185
897.668	0.0146581
897.746	0.0145952
897.825	0.0146409
897.903	0.0148182
897.981	0.0148435
898.059	0.0146862
898.137	0.0146883
898.215	0.0145844
898.293	0.0147314
898.371	0.0145719
898.450	0.0146606
898.528	0.0146848
898.606	0.0145498
898.684	0.0147556
898.762	0.0147677
898.840	0.0146022
898.918	0.0146923
898.996	0.0146207
899.075	0.0145614
899.153	0.0146915
899.231	0.0146974
899.309	0.0147814
899.387	0.0146468
899.465	0.0146642
899.543	0.0147102
899.621	0.0146446
899.700	0.0148260
899.778	0.0147772
899.856	0.0145934
899.934	0.0147619
900.012	0.0147818
900.090	0.0146545
900.168	0.0146211
900.246	0.0147039
900.325	0.0147466
900.403	0.0145564
900.481	0.0145450
900.559	0.0145853
900.637	0.0145979
900.715	0.0146999
900.793	0.0146185
900.871	0.0147002
900.950	0.0147998
901.028	0.0146620
901.106	0.0146043
901.184	0.0147222
901.262	0.0147159
901.340	0.0146832
901.418	0.0147437
901.496	0.0147277
901.575	0.0146851
901.653	0.0146862
901.731	0.0147034
901.809	0.0146861
901.887	0.0147129
901.965	0.0146709
902.043	0.0146973
902.121	0.0146450
902.200	0.0147308
902.278	0.0146207
902.356	0.0146940
902.434	0.0146358
902.512	0.0146149
902.590	0.0146635
902.668	0.0146558
902.746	0.0146845
902.825	0.0146461
902.903	0.0146635
902.981	0.0146511
903.059	0.0145454
903.137	0.0147070
903.215	0.0146220
903.293	0.0145863
903.371	0.0146864
903.450	0.0146767
903.528	0.0147099
903.606	0.0148197
903.684	0.0147474
903.762	0.0146217
903.840	0.0146416
903.918	0.0146258
903.996	0.0145372
904.075	0.0145972
904.153	0.0148061
904.231	0.0147105
904.309	0.0145969
904.387	0.0146146
904.465	0.0145927
904.543	0.0146753
904.621	0.0146290
904.700	0.0146989
904.778	0.0145586
904.856	0.0146100
904.934	0.0146794
905.012	0.0146048
905.090	0.0146246
905.168	0.0146648
905.246	0.0146874
905.325	0.0148440
905.403	0.0148007
905.481	0.0147823
905.559	0.0145810
905.637	0.0146790
905.715	0.0147034
905.793	0.0146781
905.871	0.0147398
905.950	0.0146339
906.028	0.0146918
906.106	0.0146336
906.184	0.0147578
906.262	0.0146831
906.340	0.0145288
906.418	0.0146684
906.496	0.0146755
906.575	0.0146673
906.653	0.0146803
906.731	0.0147439
906.809	0.0147331
906.887	0.0147062
906.965	0.0147692
907.043	0.0148257
907.121	0.0147217
907.200	0.0147678
907.278	0.0147408
907.356	0.0147726
907.434	0.0149268
907.512	0.0147916
907.590	0.0147990
907.668	0.0148204
907.746	0.0148675
907.825	0.0147715
907.903	0.0148164
907.981	0.0148238
908.059	0.0147532
908.137	0.0147915
908.215	0.0148149
908.293	0.0147730
908.371	0.0147897
908.450	0.0147545
908.528	0.0147393
908.606	0.0147602
908.684	0.0148198
908.762	0.0147173
908.840	0.0145748
908.918	0.0147466
908.996	0.0147649
909.075	0.0147402
909.153	0.0146557
909.231	0.0146761
909.309	0.0146687
909.387	0.0147070
909.465	0.0146159
909.543	0.0146250
909.621	0.0146719
909.700	0.0147235
909.778	0.0147995
909.856	0.0147060
909.934	0.0148476
910.012	0.0146865
910.090	0.0148326
910.168	0.0148174
910.246	0.0147849
910.325	0.0147718
910.403	0.0147680
910.481	0.0147040
910.559	0.0147769
910.637	0.0147851
910.715	0.0150380
910.793	0.0147627
910.871	0.0147126
910.950	0.0147239
911.028	0.0149258
911.106	0.0147667
911.184	0.0147728
911.262	0.0145939
911.340	0.0145814
911.418	0.0147027
911.496	0.0147285
911.575	0.0146772
911.653	0.0147174
911.731	0.0147000
911.809	0.0146898
911.887	0.0147758
911.965	0.0146864
912.043	0.0145864
912.121	0.0147801
912.200	0.0148579
912.278	0.0148703
912.356	0.0147036
912.434	0.0146533
912.512	0.0147135
912.590	0.0147547
912.668	0.0147678
912.746	0.0147564
912.825	0.0146622
912.903	0.0148413
912.981	0.0147205
913.059	0.0146763
913.137	0.0147214
913.215	0.0146867
913.293	0.0147421
913.371	0.0147458
913.450	0.0146197
913.528	0.0148237
913.606	0.0145987
913.684	0.0146768
913.762	0.0146408
913.840	0.0146670
913.918	0.0147488
913.996	0.0146016
914.075	0.0147686
914.153	0.0147430
914.231	0.0146146
914.309	0.0148103
914.387	0.0146927
914.465	0.0146339
914.543	0.0147173
914.621	0.0147205
914.700	0.0145949
914.778	0.0147175
914.856	0.0146498
914.934	0.0145984
915.012	0.0146307
915.090	0.0147529
915.168	0.0146934
915.246	0.0144769
915.325	0.0147144
915.403	0.0147015
915.481	0.0146776
915.559	0.0147681
915.637	0.0147643
915.715	0.0147343
915.793	0.0148062
915.871	0.0148454
915.950	0.0147442
916.028	0.0147036
916.106	0.0148225
916.184	0.0148237
916.262	0.0147671
916.340	0.0148054
916.418	0.0148010
916.496	0.0148402
916.575	0.0147540
916.653	0.0146981
916.731	0.0147134
916.809	0.0148138
916.887	0.0147308
916.965	0.0148660
917.043	0.0148618
917.121	0.0146852
917.200	0.0146633
917.278	0.0146458
917.356	0.0147417
917.434	0.0148257
917.512	0.0146466
917.590	0.0147298
917.668	0.0146797
917.746	0.0148522
917.825	0.0148798
917.903	0.0146507
917.981	0.0146786
918.059	0.0146571
918.137	0.0147371
918.215	0.0148387
918.293	0.0148140
918.371	0.0147107
918.450	0.0147310
918.528	0.0147339
918.606	0.0147110
918.684	0.0148187
918.762	0.0146703
918.840	0.0145689
918.918	0.0146526
918.996	0.0146133
919.075	0.0146434
919.153	0.0147745
919.231	0.0146441
919.309	0.0146539
919.387	0.0147286
919.465	0.0145897
919.543	0.0145693
919.621	0.0145713
919.700	0.0145490
919.778	0.0147046
919.856	0.0145470
919.934	0.0145985
920.012	0.0147288
920.090	0.0147897
920.168	0.0146864
920.246	0.0146277
920.325	0.0147596
920.403	0.0146586
920.481	0.0147918
920.559	0.0146994
920.637	0.0147105
920.715	0.0147533
920.793	0.0147753
920.871	0.0149559
920.950	0.0148483
921.028	0.0147585
921.106	0.0146846
921.184	0.0147510
921.262	0.0147168
921.340	0.0147554
921.418	0.0147463
921.496	0.0146008
921.575	0.0146837
921.653	0.0148318
921.731	0.0147236
921.809	0.0147980
921.887	0.0146923
921.965	0.0146514
922.043	0.0146410
922.121	0.0148849
922.200	0.0146872
922.278	0.0145908
922.356	0.0147794
922.434	0.0147984
922.512	0.0147083
922.590	0.0147824
922.668	0.0147552
922.746	0.0146780
922.825	0.0144636
922.903	0.0146992
922.981	0.0146836
923.059	0.0146005
923.137	0.0145697
923.215	0.0146591
923.293	0.0145171
923.371	0.0146262
923.450	0.0144926
923.528	0.0146975
923.606	0.0146569
923.684	0.0146523
923.762	0.0147408
923.840	0.0147403
923.918	0.0147463
923.996	0.0146695
924.075	0.0146379
924.153	0.0146721
924.231	0.0147543
924.309	0.0146638
924.387	0.0146719
924.465	0.0146812
924.543	0.0145696
924.621	0.0146914
924.700	0.0146203
924.778	0.0147216
924.856	0.0146998
924.934	0.0146521
925.012	0.0145903
925.090	0.0145949
925.168	0.0146754
925.246	0.0146648
925.325	0.0146833
925.403	0.0147185
925.481	0.0145288
925.559	0.0145489
925.637	0.0145938
925.715	0.0147524
925.793	0.0147263
925.871	0.0146970
925.950	0.0146454
926.028	0.0147213
926.106	0.0148287
926.184	0.0145572
926.262	0.0146621
926.340	0.0146956
926.418	0.0147990
926.496	0.0147355
926.575	0.0146307
926.653	0.0147146
926.731	0.0147659
926.809	0.0147083
926.887	0.0145253
926.965	0.0146402
927.043	0.0147752
927.121	0.0146742
927.200	0.0147923
927.278	0.0146937
927.356	0.0146786
927.434	0.0148595
927.512	0.0145735
927.590	0.0146954
927.668	0.0146687
927.746	0.0147811
927.825	0.0147489
927.903	0.0145702
927.981	0.0147511
928.059	0.0146904
928.137	0.0146452
928.215	0.0145771
928.293	0.0148583
928.371	0.0147623
928.450	0.0148189
928.528	0.0146751
928.606	0.0146654
928.684	0.0148313
928.762	0.0147951
928.840	0.0148197
928.918	0.0148023
928.996	0.0146739
929.075	0.0146665
929.153	0.0146453
929.231	0.0147050
929.309	0.0147556
929.387	0.0147884
929.465	0.0146881
929.543	0.0147137
929.621	0.0148512
929.700	0.0147453
929.778	0.0145947
929.856	0.0145978
929.934	0.0146657
930.012	0.0146403
930.090	0.0146364
930.168	0.0145984
930.246	0.0147911
930.325	0.0146268
930.403	0.0149258
930.481	0.0147958
930.559	0.0148416
930.637	0.0148104
930.715	0.0148373
930.793	0.0147680
930.871	0.0148141
930.950	0.0148817
931.028	0.0149469
931.106	0.0150121
931.184	0.0147518
931.262	0.0148717
931.340	0.0147440
931.418	0.0147321
931.496	0.0147276
931.575	0.0147845
931.653	0.0146794
931.731	0.0146780
931.809	0.0146971
931.887	0.0147429
931.965	0.0146296
932.043	0.0145569
932.121	0.0145255
932.200	0.0147488
932.278	0.0147339
932.356	0.0146318
932.434	0.0147722
932.512	0.0146970
932.590	0.0148002
932.668	0.0147605
932.746	0.0146080
932.825	0.0147945
932.903	0.0147658
932.981	0.0149288
933.059	0.0148064
933.137	0.0146812
933.215	0.0148074
933.293	0.0146519
933.371	0.0146700
933.450	0.0147858
933.528	0.0147749
933.606	0.0147839
933.684	0.0147221
933.762	0.0146415
933.840	0.0146471
933.918	0.0146777
933.996	0.0146284
934.075	0.0146730
934.153	0.0147579
934.231	0.0147634
934.309	0.0146956
934.387	0.0147562
934.465	0.0146417
934.543	0.0146739
934.621	0.0146359
934.700	0.0145602
934.778	0.0146507
934.856	0.0147881
934.934	0.0147238
935.012	0.0146682
935.090	0.0146642
935.168	0.0148087
935.246	0.0147215
935.325	0.0146333
935.403	0.0146060
935.481	0.0147247
935.559	0.0146321
935.637	0.0147619
935.715	0.0147018
935.793	0.0146488
935.871	0.0146260
935.950	0.0148098
936.028	0.0148170
936.106	0.0145782
936.184	0.0146684
936.262	0.0147015
936.340	0.0148701
936.418	0.0147654
936.496	0.0147831
936.575	0.0147648
936.653	0.0147643
936.731	0.0148059
936.809	0.0147262
936.887	0.0148931
936.965	0.0147568
937.043	0.0148470
937.121	0.0148733
937.200	0.0147897
937.278	0.0147527
937.356	0.0146571
937.434	0.0146587
937.512	0.0147806
937.590	0.0147256
937.668	0.0146777
937.746	0.0147623
937.825	0.0145808
937.903	0.0146260
937.981	0.0147081
938.059	0.0147950
938.137	0.0147723
938.215	0.0148746
938.293	0.0147565
938.371	0.0147624
938.450	0.0148233
938.528	0.0147424
938.606	0.0146529
938.684	0.0147727
938.762	0.0147296
938.840	0.0147618
938.918	0.0149186
938.996	0.0147766
939.075	0.0146965
939.153	0.0147501
939.231	0.0146951
939.309	0.0146858
939.387	0.0146075
939.465	0.0147905
939.543	0.0146967
939.621	0.0146499
939.700	0.0147352
939.778	0.0147237
939.856	0.0146140
939.934	0.0146624
940.012	0.0148496
940.090	0.0146760
940.168	0.0147193
940.246	0.0147863
940.325	0.0146933
940.403	0.0145949
940.481	0.0147855
940.559	0.0148459
940.637	0.0148121
940.715	0.0147203
940.793	0.0146669
940.871	0.0147186
940.950	0.0147594
941.028	0.0148161
941.106	0.0147371
941.184	0.0146464
941.262	0.0146719
941.340	0.0147671
941.418	0.0147058
941.496	0.0148021
941.575	0.0147518
941.653	0.0147692
941.731	0.0146961
941.809	0.0147172
941.887	0.0148063
941.965	0.0146804
942.043	0.0146512
942.121	0.0146778
942.200	0.0147629
942.278	0.0146993
942.356	0.0146785
942.434	0.0147647
942.512	0.0146250
942.590	0.0146556
942.668	0.0144537
942.746	0.0145996
942.825	0.0146535
942.903	0.0145892
942.981	0.0145196
943.059	0.0145962
943.137	0.0146069
943.215	0.0145910
943.293	0.0146286
943.371	0.0147174
943.450	0.0146619
943.528	0.0146949
943.606	0.0146719
943.684	0.0147811
943.762	0.0146284
943.840	0.0147334
943.918	0.0147097
943.996	0.0147144
944.075	0.0147015
944.153	0.0146764
944.231	0.0146311
944.309	0.0146941
944.387	0.0147732
944.465	0.0146291
944.543	0.0147683
944.621	0.0146798
944.700	0.0146790
944.778	0.0147502
944.856	0.0146780
944.934	0.0147264
945.012	0.0146261
945.090	0.0145683
945.168	0.0147163
945.246	0.0146858
945.325	0.0146786
945.403	0.0146880
945.481	0.0146671
945.559	0.0147247
945.637	0.0147567
945.715	0.0147224
945.793	0.0146815
945.871	0.0148028
945.950	0.0146483
946.028	0.0146291
946.106	0.0147054
946.184	0.0147598
946.262	0.0146969
946.340	0.0146812
946.418	0.0147592
946.496	0.0145269
946.575	0.0148247
946.653	0.0147405
946.731	0.0146324
946.809	0.0145734
946.887	0.0147149
946.965	0.0147092
947.043	0.0145627
947.121	0.0146549
947.200	0.0146137
947.278	0.0148241
947.356	0.0147722
947.434	0.0146357
947.512	0.0145921
947.590	0.0147003
947.668	0.0148629
947.746	0.0147518
947.825	0.0147665
947.903	0.0147520
947.981	0.0147148
948.059	0.0146789
948.137	0.0145967
948.215	0.0146851
948.293	0.0146136
948.371	0.0146161
948.450	0.0146573
948.528	0.0146426
948.606	0.0146230
948.684	0.0146714
948.762	0.0146224
948.840	0.0146685
948.918	0.0147031
948.996	0.0147070
949.075	0.0148058
949.153	0.0147928
949.231	0.0147486
949.309	0.0147202
949.387	0.0147313
949.465	0.0147411
949.543	0.0148107
949.621	0.0149410
949.700	0.0147292
949.778	0.0147441
949.856	0.0146408
949.934	0.0147715
950.012	0.0148260
950.090	0.0147472
950.168	0.0147311
950.246	0.0148424
950.325	0.0146799
950.403	0.0147654
950.481	0.0146629
950.559	0.0147027
950.637	0.0146186
950.715	0.0148557
950.793	0.0146720
950.871	0.0146113
950.950	0.0147467
951.028	0.0146333
951.106	0.0147270
951.184	0.0147296
951.262	0.0146674
951.340	0.0147167
951.418	0.0146913
951.496	0.0147990
951.575	0.0147924
951.653	0.0147072
951.731	0.0147166
951.809	0.0147257
951.887	0.0147102
951.965	0.0147571
952.043	0.0147837
952.121	0.0147875
952.200	0.0147926
952.278	0.0146317
952.356	0.0145923
952.434	0.0146023
952.512	0.0147343
952.590	0.0146994
952.668	0.0145680
952.746	0.0145560
952.825	0.0146928
952.903	0.0146326
952.981	0.0145443
953.059	0.0146485
953.137	0.0146377
953.215	0.0147155
953.293	0.0148221
953.371	0.0148215
953.450	0.0146812
953.528	0.0146895
953.606	0.0147890
953.684	0.0148682
953.762	0.0147340
953.840	0.0146886
953.918	0.0149235
953.996	0.0147239
954.075	0.0146159
954.153	0.0147063
954.231	0.0147016
954.309	0.0146606
954.387	0.0147211
954.465	0.0147600
954.543	0.0146616
954.621	0.0146516
954.700	0.0147395
954.778	0.0148193
954.856	0.0146571
954.934	0.0146941
955.012	0.0148563
955.090	0.0148825
955.168	0.0147060
955.246	0.0147049
955.325	0.0149250
955.403	0.0147452
955.481	0.0146885
955.559	0.0149148
955.637	0.0147299
955.715	0.0147150
955.793	0.0147516
955.871	0.0147331
955.950	0.0146867
956.028	0.0145608
956.106	0.0146884
956.184	0.0147230
956.262	0.0145876
956.340	0.0146499
956.418	0.0147732
956.496	0.0146905
956.575	0.0147715
956.653	0.0146927
956.731	0.0146883
956.809	0.0146623
956.887	0.0146654
956.965	0.0146024
957.043	0.0146423
957.121	0.0147173
957.200	0.0146841
957.278	0.0144839
957.356	0.0147335
957.434	0.0147145
957.512	0.0146114
957.590	0.0146896
957.668	0.0146906
957.746	0.0147905
957.825	0.0148244
957.903	0.0146436
957.981	0.0147683
958.059	0.0147557
958.137	0.0148299
958.215	0.0146985
958.293	0.0145978
958.371	0.0146866
958.450	0.0146557
958.528	0.0146204
958.606	0.0146355
958.684	0.0147659
958.762	0.0147384
958.840	0.0146461
958.918	0.0146795
958.996	0.0146446
959.075	0.0146382
959.153	0.0147080
959.231	0.0146479
959.309	0.0147257
959.387	0.0146986
959.465	0.0147776
959.543	0.0148209
959.621	0.0147034
959.700	0.0147377
959.778	0.0147314
959.856	0.0147126
959.934	0.0147899
960.012	0.0147282
960.090	0.0146935
960.168	0.0146484
960.246	0.0146504
960.325	0.0147848
960.403	0.0147188
960.481	0.0146932
960.559	0.0146155
960.637	0.0147405
960.715	0.0147255
960.793	0.0145936
960.871	0.0145288
960.950	0.0146716
961.028	0.0145415
961.106	0.0145516
961.184	0.0147026
961.262	0.0145003
961.340	0.0145726
961.418	0.0145543
961.496	0.0146414
961.575	0.0144961
961.653	0.0146047
961.731	0.0146446
961.809	0.0147424
961.887	0.0148051
961.965	0.0147126
962.043	0.0147093
962.121	0.0147112
962.200	0.0147424
962.278	0.0148209
962.356	0.0147003
962.434	0.0146934
962.512	0.0146809
962.590	0.0147860
962.668	0.0146249
962.746	0.0148003
962.825	0.0147216
962.903	0.0147227
962.981	0.0145589
963.059	0.0146265
963.137	0.0146709
963.215	0.0145397
963.293	0.0145757
963.371	0.0147272
963.450	0.0147122
963.528	0.0146985
963.606	0.0146992
963.684	0.0146545
963.762	0.0147179
963.840	0.0146345
963.918	0.0147070
963.996	0.0146115
964.075	0.0147851
964.153	0.0148278
964.231	0.0146717
964.309	0.0146901
964.387	0.0147705
964.465	0.0146371
964.543	0.0146291
964.621	0.0146330
964.700	0.0147764
964.778	0.0147424
964.856	0.0146677
964.934	0.0147496
965.012	0.0147363
965.090	0.0147599
965.168	0.0146244
965.246	0.0147603
965.325	0.0147224
965.403	0.0146580
965.481	0.0147848
965.559	0.0147177
965.637	0.0147238
965.715	0.0148109
965.793	0.0147340
965.871	0.0147660
965.950	0.0146978
966.028	0.0146426
966.106	0.0147784
966.184	0.0146713
966.262	0.0147649
966.340	0.0148239
966.418	0.0146794
966.496	0.0148685
966.575	0.0147008
966.653	0.0147106
966.731	0.0147243
966.809	0.0147604
966.887	0.0148399
966.965	0.0149290
967.043	0.0147392
967.121	0.0147469
967.200	0.0147329
967.278	0.0146885
967.356	0.0146409
967.434	0.0145837
967.512	0.0146967
967.590	0.0147990
967.668	0.0147532
967.746	0.0148044
967.825	0.0145590
967.903	0.0147572
967.981	0.0146912
968.059	0.0148035
968.137	0.0148063
968.215	0.0147588
968.293	0.0146627
968.371	0.0148032
968.450	0.0149213
968.528	0.0148154
968.606	0.0146389
968.684	0.0147328
968.762	0.0147248
968.840	0.0146950
968.918	0.0147395
968.996	0.0147346
969.075	0.0147356
969.153	0.0147231
969.231	0.0146675
969.309	0.0147488
969.387	0.0146561
969.465	0.0146069
969.543	0.0146259
969.621	0.0147813
969.700	0.0147585
969.778	0.0147906
969.856	0.0147426
969.934	0.0146819
970.012	0.0147121
970.090	0.0146826
970.168	0.0147324
970.246	0.0146302
970.325	0.0147105
970.403	0.0148144
970.481	0.0147642
970.559	0.0146335
970.637	0.0146857
970.715	0.0146132
970.793	0.0147246
970.871	0.0147400
970.950	0.0146801
971.028	0.0145486
971.106	0.0145651
971.184	0.0146783
971.262	0.0146738
971.340	0.0147715
971.418	0.0147057
971.496	0.0146762
971.575	0.0146903
971.653	0.0147139
971.731	0.0147997
971.809	0.0148522
971.887	0.0146622
971.965	0.0146935
972.043	0.0146577
972.121	0.0147994
972.200	0.0149033
972.278	0.0148137
972.356	0.0148121
972.434	0.0148094
972.512	0.0147622
972.590	0.0147321
972.668	0.0148164
972.746	0.0147017
972.825	0.0147424
972.903	0.0146721
972.981	0.0147523
973.059	0.0148911
973.137	0.0146267
973.215	0.0147342
973.293	0.0147438
973.371	0.0146770
973.450	0.0147705
973.528	0.0147689
973.606	0.0146891
973.684	0.0147120
973.762	0.0146578
973.840	0.0145612
973.918	0.0145487
973.996	0.0145599
974.075	0.0146711
974.153	0.0145818
974.231	0.0146414
974.309	0.0145959
974.387	0.0146481
974.465	0.0147796
974.543	0.0146526
974.621	0.0146800
974.700	0.0146194
974.778	0.0145689
974.856	0.0147246
974.934	0.0146153
975.012	0.0147354
975.090	0.0147338
975.168	0.0146738
975.246	0.0146478
975.325	0.0146992
975.403	0.0147625
975.481	0.0145235
975.559	0.0146696
975.637	0.0147402
975.715	0.0146877
975.793	0.0147277
975.871	0.0147620
975.950	0.0145979
976.028	0.0147377
976.106	0.0148504
976.184	0.0147398
976.262	0.0147579
976.340	0.0146492
976.418	0.0146050
976.496	0.0147785
976.575	0.0146806
976.653	0.0146640
976.731	0.0146854
976.809	0.0147501
976.887	0.0147318
976.965	0.0146816
977.043	0.0146030
977.121	0.0146222
977.200	0.0146488
977.278	0.0146690
977.356	0.0147518
977.434	0.0146663
977.512	0.0146391
977.590	0.0147113
977.668	0.0147057
977.746	0.0146227
977.825	0.0147531
977.903	0.0146264
977.981	0.0146567
978.059	0.0147520
978.137	0.0148223
978.215	0.0146305
978.293	0.0147047
978.371	0.0147214
978.450	0.0147362
978.528	0.0145188
978.606	0.0146053
978.684	0.0146681
978.762	0.0146552
978.840	0.0146732
978.918	0.0147903
978.996	0.0146696
979.075	0.0146577
979.153	0.0146441
979.231	0.0146711
979.309	0.0145712
979.387	0.0145979
979.465	0.0145904
979.543	0.0146790
979.621	0.0146738
979.700	0.0146088
979.778	0.0147117
979.856	0.0146676
979.934	0.0147148
980.012	0.0146440
980.090	0.0147406
980.168	0.0147781
980.246	0.0148966
980.325	0.0146968
980.403	0.0146977
980.481	0.0147308
980.559	0.0147535
980.637	0.0147366
980.715	0.0147147
980.793	0.0147952
980.871	0.0147565
980.950	0.0146658
981.028	0.0146660
981.106	0.0148083
981.184	0.0147124
981.262	0.0148040
981.340	0.0146997
981.418	0.0146687
981.496	0.0148629
981.575	0.0146350
981.653	0.0147434
981.731	0.0147257
981.809	0.0145194
981.887	0.0146650
981.965	0.0144560
982.043	0.0146996
982.121	0.0147247
982.200	0.0146813
982.278	0.0147559
982.356	0.0146069
982.434	0.0146378
982.512	0.0147431
982.590	0.0148791
982.668	0.0146763
982.746	0.0149051
982.825	0.0147395
982.903	0.0148055
982.981	0.0147707
983.059	0.0146840
983.137	0.0147826
983.215	0.0147548
983.293	0.0148454
983.371	0.0147509
983.450	0.0148038
983.528	0.0148048
983.606	0.0146787
983.684	0.0146749
983.762	0.0147582
983.840	0.0147162
983.918	0.0147326
983.996	0.0146195
984.075	0.0146974
984.153	0.0148307
984.231	0.0146093
984.309	0.0146471
984.387	0.0145992
984.465	0.0147020
984.543	0.0144690
984.621	0.0145824
984.700	0.0147040
984.778	0.0145992
984.856	0.0144875
984.934	0.0145329
985.012	0.0144976
985.090	0.0146252
985.168	0.0146391
985.246	0.0148183
985.325	0.0147110
985.403	0.0146880
985.481	0.0147286
985.559	0.0147993
985.637	0.0146601
985.715	0.0145582
985.793	0.0148019
985.871	0.0147166
985.950	0.0145737
986.028	0.0147283
986.106	0.0146863
986.184	0.0147211
986.262	0.0147482
986.340	0.0146995
986.418	0.0146687
986.496	0.0147186
986.575	0.0146472
986.653	0.0145889
986.731	0.0147377
986.809	0.0148051
986.887	0.0147571
986.965	0.0146932
987.043	0.0146550
987.121	0.0146527
987.200	0.0146038
987.278	0.0147218
987.356	0.0148174
987.434	0.0148079
987.512	0.0147238
987.590	0.0146558
987.668	0.0147493
987.746	0.0147456
987.825	0.0147266
987.903	0.0147533
987.981	0.0146641
988.059	0.0146413
988.137	0.0146308
988.215	0.0146875
988.293	0.0146897
988.371	0.0146574
988.450	0.0147032
988.528	0.0147297
988.606	0.0146769
988.684	0.0146816
988.762	0.0147873
988.840	0.0147157
988.918	0.0147266
988.996	0.0148083
989.075	0.0146757
989.153	0.0146747
989.231	0.0148511
989.309	0.0146903
989.387	0.0147067
989.465	0.0146914
989.543	0.0146761
989.621	0.0147432
989.700	0.0146957
989.778	0.0147267
989.856	0.0146407
989.934	0.0144910
990.012	0.0146847
990.090	0.0147990
990.168	0.0146806
990.246	0.0144851
990.325	0.0146706
990.403	0.0147421
990.481	0.0146651
990.559	0.0145769
990.637	0.0145705
990.715	0.0146324
990.793	0.0147700
990.871	0.0145873
990.950	0.0145943
991.028	0.0147589
991.106	0.0147253
991.184	0.0146916
991.262	0.0145661
991.340	0.0146165
991.418	0.0146745
991.496	0.0147782
991.575	0.0147259
991.653	0.0145826
991.731	0.0147480
991.809	0.0146961
991.887	0.0147787
991.965	0.0148348
992.043	0.0147646
992.121	0.0148888
992.200	0.0146999
992.278	0.0147765
992.356	0.0147018
992.434	0.0148090
992.512	0.0147384
992.590	0.0146722
992.668	0.0147812
992.746	0.0147652
992.825	0.0146818
992.903	0.0147282
992.981	0.0148056
993.059	0.0146133
993.137	0.0146164
993.215	0.0147588
993.293	0.0146647
993.371	0.0146543
993.450	0.0146093
993.528	0.0147737
993.606	0.0146518
993.684	0.0147404
993.762	0.0146539
993.840	0.0147462
993.918	0.0148001
993.996	0.0148498
994.075	0.0146784
994.153	0.0145941
994.231	0.0147530
994.309	0.0148106
994.387	0.0147575
994.465	0.0146911
994.543	0.0147477
994.621	0.0147066
994.700	0.0146726
994.778	0.0148143
994.856	0.0147200
994.934	0.0146637
995.012	0.0146891
995.090	0.0146304
995.168	0.0146592
995.246	0.0146325
995.325	0.0145806
995.403	0.0146468
995.481	0.0146490
995.559	0.0145622
995.637	0.0146764
995.715	0.0145858
995.793	0.0146106
995.871	0.0144327
995.950	0.0147047
996.028	0.0145438
996.106	0.0145313
996.184	0.0146584
996.262	0.0146848
996.340	0.0147479
996.418	0.0147603
996.496	0.0145792
996.575	0.0146920
996.653	0.0148631
996.731	0.0147626
996.809	0.0147233
996.887	0.0148093
996.965	0.0147747
997.043	0.0148326
997.121	0.0147271
997.200	0.0148001
997.278	0.0147623
997.356	0.0147677
997.434	0.0147357
997.512	0.0147269
997.590	0.0145455
997.668	0.0146861
997.746	0.0146679
997.825	0.0146684
997.903	0.0146473
997.981	0.0145674
998.059	0.0146352
998.137	0.0146486
998.215	0.0145304
998.293	0.0146021
998.371	0.0146320
998.450	0.0146503
998.528	0.0146929
998.606	0.0146663
998.684	0.0146085
998.762	0.0146127
998.840	0.0147392
998.918	0.0147034
