05/04/2022	21:31:43	Ver.	4.1	UNKNOWN
Optical Delay	678.996401	Delta X		0.078125	Sweeps	1	Scan Rate	0/0
Coordinates	Axis 1	NaN	Axis 2	NaN	Axis 3	NaN	Axis 4	NaN	Axis 5	NaN	Axis 6	0.000000
TX Power	0.000000	RX Power	0.000000

678.996	0.0146126
679.075	0.0147205
679.153	0.0145762
679.231	0.0145567
679.309	0.0144805
679.387	0.0145601
679.465	0.0145335
679.543	0.0146294
679.621	0.0147446
679.700	0.0146685
679.778	0.0146639
679.856	0.0147081
679.934	0.0146243
680.012	0.0148411
680.090	0.0146442
680.168	0.0147423
680.246	0.0145768
680.325	0.0146845
680.403	0.0147073
680.481	0.0146169
680.559	0.0145287
680.637	0.0146436
680.715	0.0146600
680.793	0.0145291
680.871	0.0144857
680.950	0.0145406
681.028	0.0144184
681.106	0.0144653
681.184	0.0144846
681.262	0.0144707
681.340	0.0143916
681.418	0.0145376
681.496	0.0145509
681.575	0.0145697
681.653	0.0145751
681.731	0.0146844
681.809	0.0146198
681.887	0.0145930
681.965	0.0147025
682.043	0.0147004
682.121	0.0146733
682.200	0.0146893
682.278	0.0145438
682.356	0.0146779
682.434	0.0146873
682.512	0.0146117
682.590	0.0146539
682.668	0.0147162
682.746	0.0145760
682.825	0.0144464
682.903	0.0146499
682.981	0.0146523
683.059	0.0145211
683.137	0.0145766
683.215	0.0144365
683.293	0.0143845
683.371	0.0145222
683.450	0.0144993
683.528	0.0145417
683.606	0.0144405
683.684	0.0146310
683.762	0.0145975
683.840	0.0147414
683.918	0.0146529
683.996	0.0147546
684.075	0.0146378
684.153	0.0146298
684.231	0.0146382
684.309	0.0146396
684.387	0.0147070
684.465	0.0145199
684.543	0.0146767
684.621	0.0145435
684.700	0.0146639
684.778	0.0145703
684.856	0.0145392
684.934	0.0143957
685.012	0.0144292
685.090	0.0144979
685.168	0.0144466
685.246	0.0144640
685.325	0.0144484
685.403	0.0145316
685.481	0.0144412
685.559	0.0145724
685.637	0.0146458
685.715	0.0147002
685.793	0.0146218
685.871	0.0147187
685.950	0.0146436
686.028	0.0147265
686.106	0.0146700
686.184	0.0145286
686.262	0.0146266
686.340	0.0146274
686.418	0.0146434
686.496	0.0146582
686.575	0.0146539
686.653	0.0146799
686.731	0.0147713
686.809	0.0146738
686.887	0.0145555
686.965	0.0145322
687.043	0.0144180
687.121	0.0144358
687.200	0.0143287
687.278	0.0142696
687.356	0.0142228
687.434	0.0142876
687.512	0.0141730
687.590	0.0143741
687.668	0.0144133
687.746	0.0143427
687.825	0.0143774
687.903	0.0145635
687.981	0.0143851
688.059	0.0143616
688.137	0.0145043
688.215	0.0145273
688.293	0.0145023
688.371	0.0145892
688.450	0.0147580
688.528	0.0148498
688.606	0.0148714
688.684	0.0150034
688.762	0.0150083
688.840	0.0150259
688.918	0.0149772
688.996	0.0149065
689.075	0.0147975
689.153	0.0147471
689.231	0.0145036
689.309	0.0144686
689.387	0.0142878
689.465	0.0142902
689.543	0.0143365
689.621	0.0142838
689.700	0.0142650
689.778	0.0141749
689.856	0.0141134
689.934	0.0141304
690.012	0.0142556
690.090	0.0142533
690.168	0.0143492
690.246	0.0145430
690.325	0.0143826
690.403	0.0144706
690.481	0.0146598
690.559	0.0147810
690.637	0.0148421
690.715	0.0148975
690.793	0.0147933
690.871	0.0147902
690.950	0.0150346
691.028	0.0150407
691.106	0.0147305
691.184	0.0148305
691.262	0.0148624
691.340	0.0147121
691.418	0.0148317
691.496	0.0147555
691.575	0.0147691
691.653	0.0147868
691.731	0.0147276
691.809	0.0147215
691.887	0.0147789
691.965	0.0148817
692.043	0.0148111
692.121	0.0146886
692.200	0.0145226
692.278	0.0144637
692.356	0.0145193
692.434	0.0144012
692.512	0.0142343
692.590	0.0141940
692.668	0.0142099
692.746	0.0142607
692.825	0.0141580
692.903	0.0141642
692.981	0.0140861
693.059	0.0141076
693.137	0.0141511
693.215	0.0142307
693.293	0.0142791
693.371	0.0143726
693.450	0.0144762
693.528	0.0146224
693.606	0.0146519
693.684	0.0149400
693.762	0.0148424
693.840	0.0148713
693.918	0.0148585
693.996	0.0148460
694.075	0.0150385
694.153	0.0150848
694.231	0.0147913
694.309	0.0148325
694.387	0.0148840
694.465	0.0149695
694.543	0.0149152
694.621	0.0148116
694.700	0.0148908
694.778	0.0147578
694.856	0.0146714
694.934	0.0147350
695.012	0.0146364
695.090	0.0146997
695.168	0.0145238
695.246	0.0144289
695.325	0.0143994
695.403	0.0143456
695.481	0.0143659
695.559	0.0141757
695.637	0.0143087
695.715	0.0142062
695.793	0.0142059
695.871	0.0141442
695.950	0.0141650
696.028	0.0142268
696.106	0.0142252
696.184	0.0142232
696.262	0.0142816
696.340	0.0143095
696.418	0.0143237
696.496	0.0146705
696.575	0.0147363
696.653	0.0147616
696.731	0.0149531
696.809	0.0150203
696.887	0.0151579
696.965	0.0152087
697.043	0.0153413
697.121	0.0152502
697.200	0.0151187
697.278	0.0151415
697.356	0.0150254
697.434	0.0147708
697.512	0.0148034
697.590	0.0147942
697.668	0.0144594
697.746	0.0146172
697.825	0.0147078
697.903	0.0144219
697.981	0.0143777
698.059	0.0144203
698.137	0.0143674
698.215	0.0142996
698.293	0.0142780
698.371	0.0144128
698.450	0.0143832
698.528	0.0143751
698.606	0.0145204
698.684	0.0145621
698.762	0.0145795
698.840	0.0146055
698.918	0.0145997
698.996	0.0146741
699.075	0.0146105
699.153	0.0146314
699.231	0.0145063
699.309	0.0144257
699.387	0.0143531
699.465	0.0144814
699.543	0.0144040
699.621	0.0144656
699.700	0.0144899
699.778	0.0144607
699.856	0.0145922
699.934	0.0147276
700.012	0.0148306
700.090	0.0148180
700.168	0.0147324
700.246	0.0148236
700.325	0.0147033
700.403	0.0146564
700.481	0.0147694
700.559	0.0148287
700.637	0.0148621
700.715	0.0146546
700.793	0.0146998
700.871	0.0147395
700.950	0.0147873
701.028	0.0147900
701.106	0.0148369
701.184	0.0148406
701.262	0.0145821
701.340	0.0144646
701.418	0.0145514
701.496	0.0144593
701.575	0.0143263
701.653	0.0144560
701.731	0.0143717
701.809	0.0143801
701.887	0.0143787
701.965	0.0145897
702.043	0.0146129
702.121	0.0145826
702.200	0.0146760
702.278	0.0146750
702.356	0.0147639
702.434	0.0146857
702.512	0.0147711
702.590	0.0148252
702.668	0.0147105
702.746	0.0146448
702.825	0.0147263
702.903	0.0146730
702.981	0.0145304
703.059	0.0146495
703.137	0.0146060
703.215	0.0144034
703.293	0.0144878
703.371	0.0146577
703.450	0.0146877
703.528	0.0146323
703.606	0.0145866
703.684	0.0145583
703.762	0.0146263
703.840	0.0147603
703.918	0.0148197
703.996	0.0148018
704.075	0.0146034
704.153	0.0146732
704.231	0.0148867
704.309	0.0145552
704.387	0.0145164
704.465	0.0144512
704.543	0.0145963
704.621	0.0144726
704.700	0.0143250
704.778	0.0143625
704.856	0.0143221
704.934	0.0142976
705.012	0.0145052
705.090	0.0144546
705.168	0.0146333
705.246	0.0146605
705.325	0.0146572
705.403	0.0145930
705.481	0.0146673
705.559	0.0148283
705.637	0.0148769
705.715	0.0147955
705.793	0.0146831
705.871	0.0146378
705.950	0.0145810
706.028	0.0144935
706.106	0.0143755
706.184	0.0143654
706.262	0.0144975
706.340	0.0144700
706.418	0.0145039
706.496	0.0146998
706.575	0.0145985
706.653	0.0146272
706.731	0.0148591
706.809	0.0146984
706.887	0.0146605
706.965	0.0148811
707.043	0.0147464
707.121	0.0146724
707.200	0.0146638
707.278	0.0146458
707.356	0.0146790
707.434	0.0146484
707.512	0.0146120
707.590	0.0145528
707.668	0.0145925
707.746	0.0144576
707.825	0.0143530
707.903	0.0144540
707.981	0.0144561
708.059	0.0142599
708.137	0.0145363
708.215	0.0146809
708.293	0.0144658
708.371	0.0147961
708.450	0.0148303
708.528	0.0148546
708.606	0.0148650
708.684	0.0148362
708.762	0.0148942
708.840	0.0148611
708.918	0.0148450
708.996	0.0147612
709.075	0.0147173
709.153	0.0146136
709.231	0.0145831
709.309	0.0146510
709.387	0.0145617
709.465	0.0144765
709.543	0.0145205
709.621	0.0145853
709.700	0.0145728
709.778	0.0144350
709.856	0.0145081
709.934	0.0144797
710.012	0.0146183
710.090	0.0144226
710.168	0.0144030
710.246	0.0144205
710.325	0.0144675
710.403	0.0144387
710.481	0.0143657
710.559	0.0144250
710.637	0.0143057
710.715	0.0143844
710.793	0.0145236
710.871	0.0145048
710.950	0.0145441
711.028	0.0144427
711.106	0.0145016
711.184	0.0146758
711.262	0.0146596
711.340	0.0147229
711.418	0.0149178
711.496	0.0149253
711.575	0.0148388
711.653	0.0146717
711.731	0.0146159
711.809	0.0147521
711.887	0.0146934
711.965	0.0146377
712.043	0.0146462
712.121	0.0145071
712.200	0.0145547
712.278	0.0145914
712.356	0.0144942
712.434	0.0145646
712.512	0.0145734
712.590	0.0146781
712.668	0.0146651
712.746	0.0146291
712.825	0.0148282
712.903	0.0148051
712.981	0.0145727
713.059	0.0146354
713.137	0.0145171
713.215	0.0146301
713.293	0.0144466
713.371	0.0143493
713.450	0.0144749
713.528	0.0144353
713.606	0.0143851
713.684	0.0145107
713.762	0.0146072
713.840	0.0147299
713.918	0.0147407
713.996	0.0147463
714.075	0.0146057
714.153	0.0147956
714.231	0.0149226
714.309	0.0146581
714.387	0.0147324
714.465	0.0148238
714.543	0.0147608
714.621	0.0147594
714.700	0.0147070
714.778	0.0145019
714.856	0.0144220
714.934	0.0145924
715.012	0.0144823
715.090	0.0145965
715.168	0.0146268
715.246	0.0146883
715.325	0.0144492
715.403	0.0146568
715.481	0.0147556
715.559	0.0147631
715.637	0.0147286
715.715	0.0148063
715.793	0.0148559
715.871	0.0148598
715.950	0.0148382
716.028	0.0147158
716.106	0.0147754
716.184	0.0146857
716.262	0.0145502
716.340	0.0144098
716.418	0.0145614
716.496	0.0145680
716.575	0.0143842
716.653	0.0143410
716.731	0.0143600
716.809	0.0143365
716.887	0.0142169
716.965	0.0144144
717.043	0.0143788
717.121	0.0144923
717.200	0.0143050
717.278	0.0143594
717.356	0.0144041
717.434	0.0145334
717.512	0.0144125
717.590	0.0146123
717.668	0.0145059
717.746	0.0146313
717.825	0.0146922
717.903	0.0146879
717.981	0.0146655
718.059	0.0147251
718.137	0.0145701
718.215	0.0147941
718.293	0.0146150
718.371	0.0147223
718.450	0.0146639
718.528	0.0147129
718.606	0.0146772
718.684	0.0146815
718.762	0.0146433
718.840	0.0146662
718.918	0.0147187
718.996	0.0146204
719.075	0.0146635
719.153	0.0147404
719.231	0.0146796
719.309	0.0146643
719.387	0.0146428
719.465	0.0146288
719.543	0.0146727
719.621	0.0146223
719.700	0.0145737
719.778	0.0146231
719.856	0.0144784
719.934	0.0144135
720.012	0.0145640
720.090	0.0144006
720.168	0.0144518
720.246	0.0143336
720.325	0.0144264
720.403	0.0144016
720.481	0.0143927
720.559	0.0144401
720.637	0.0145084
720.715	0.0145085
720.793	0.0146063
720.871	0.0144932
720.950	0.0145659
721.028	0.0145999
721.106	0.0146786
721.184	0.0146152
721.262	0.0147430
721.340	0.0145561
721.418	0.0146502
721.496	0.0146732
721.575	0.0146982
721.653	0.0146684
721.731	0.0146923
721.809	0.0147031
721.887	0.0146762
721.965	0.0145390
722.043	0.0144069
722.121	0.0144681
722.200	0.0145610
722.278	0.0144932
722.356	0.0146118
722.434	0.0147430
722.512	0.0148115
722.590	0.0146857
722.668	0.0145838
722.746	0.0149030
722.825	0.0147839
722.903	0.0147627
722.981	0.0148236
723.059	0.0149170
723.137	0.0148859
723.215	0.0147753
723.293	0.0147998
723.371	0.0147416
723.450	0.0146742
723.528	0.0145883
723.606	0.0145085
723.684	0.0145969
723.762	0.0144500
723.840	0.0143858
723.918	0.0144408
723.996	0.0143708
724.075	0.0142060
724.153	0.0143792
724.231	0.0142821
724.309	0.0143372
724.387	0.0144117
724.465	0.0143147
724.543	0.0144778
724.621	0.0144714
724.700	0.0143864
724.778	0.0146870
724.856	0.0145666
724.934	0.0145412
725.012	0.0145734
725.090	0.0146039
725.168	0.0145547
725.246	0.0147334
725.325	0.0147514
725.403	0.0148476
725.481	0.0148122
725.559	0.0148002
725.637	0.0148554
725.715	0.0148503
725.793	0.0148181
725.871	0.0149628
725.950	0.0147387
726.028	0.0146584
726.106	0.0147632
726.184	0.0147391
726.262	0.0147420
726.340	0.0147225
726.418	0.0144805
726.496	0.0145531
726.575	0.0146371
726.653	0.0146146
726.731	0.0144032
726.809	0.0144268
726.887	0.0143256
726.965	0.0142274
727.043	0.0143399
727.121	0.0143089
727.200	0.0142406
727.278	0.0142825
727.356	0.0143530
727.434	0.0144519
727.512	0.0144903
727.590	0.0144541
727.668	0.0144640
727.746	0.0145255
727.825	0.0146583
727.903	0.0146768
727.981	0.0145894
728.059	0.0147172
728.137	0.0146498
728.215	0.0146947
728.293	0.0146883
728.371	0.0146576
728.450	0.0146022
728.528	0.0147639
728.606	0.0147285
728.684	0.0146733
728.762	0.0146834
728.840	0.0147658
728.918	0.0145755
728.996	0.0146339
729.075	0.0148413
729.153	0.0147387
729.231	0.0144531
729.309	0.0144875
729.387	0.0146484
729.465	0.0147000
729.543	0.0145535
729.621	0.0145229
729.700	0.0143603
729.778	0.0143569
729.856	0.0146136
729.934	0.0147418
730.012	0.0145742
730.090	0.0144449
730.168	0.0145824
730.246	0.0145066
730.325	0.0146325
730.403	0.0147290
730.481	0.0146157
730.559	0.0146957
730.637	0.0147079
730.715	0.0146719
730.793	0.0148605
730.871	0.0146542
730.950	0.0145837
731.028	0.0146124
731.106	0.0145921
731.184	0.0145248
731.262	0.0145466
731.340	0.0143920
731.418	0.0144769
731.496	0.0145361
731.575	0.0145081
731.653	0.0145749
731.731	0.0143288
731.809	0.0143169
731.887	0.0145110
731.965	0.0145302
732.043	0.0145643
732.121	0.0145432
732.200	0.0145409
732.278	0.0146003
732.356	0.0146025
732.434	0.0146734
732.512	0.0146297
732.590	0.0146054
732.668	0.0147816
732.746	0.0148169
732.825	0.0147315
732.903	0.0146341
732.981	0.0148123
733.059	0.0148279
733.137	0.0148327
733.215	0.0148878
733.293	0.0147877
733.371	0.0147272
733.450	0.0148738
733.528	0.0146783
733.606	0.0147089
733.684	0.0145367
733.762	0.0146909
733.840	0.0146016
733.918	0.0144021
733.996	0.0144954
734.075	0.0144057
734.153	0.0142812
734.231	0.0142892
734.309	0.0143513
734.387	0.0143104
734.465	0.0142648
734.543	0.0142079
734.621	0.0140919
734.700	0.0143481
734.778	0.0144624
734.856	0.0144037
734.934	0.0144595
735.012	0.0145646
735.090	0.0147456
735.168	0.0147287
735.246	0.0147576
735.325	0.0148484
735.403	0.0147517
735.481	0.0149201
735.559	0.0149909
735.637	0.0149381
735.715	0.0148273
735.793	0.0149660
735.871	0.0148107
735.950	0.0147685
736.028	0.0146747
736.106	0.0147572
736.184	0.0149228
736.262	0.0146941
736.340	0.0146039
736.418	0.0146309
736.496	0.0145506
736.575	0.0146376
736.653	0.0146086
736.731	0.0143587
736.809	0.0143713
736.887	0.0143964
736.965	0.0143714
737.043	0.0144607
737.121	0.0143964
737.200	0.0143662
737.278	0.0144068
737.356	0.0143977
737.434	0.0145317
737.512	0.0145381
737.590	0.0146487
737.668	0.0146917
737.746	0.0146449
737.825	0.0147456
737.903	0.0147221
737.981	0.0148556
738.059	0.0150054
738.137	0.0149020
738.215	0.0147910
738.293	0.0150307
738.371	0.0149380
738.450	0.0149020
738.528	0.0149020
738.606	0.0148126
738.684	0.0145815
738.762	0.0147862
738.840	0.0147700
738.918	0.0146490
738.996	0.0146797
739.075	0.0146111
739.153	0.0145240
739.231	0.0146630
739.309	0.0143621
739.387	0.0143013
739.465	0.0144481
739.543	0.0144334
739.621	0.0144342
739.700	0.0145368
739.778	0.0143761
739.856	0.0145196
739.934	0.0144444
740.012	0.0145956
740.090	0.0145406
740.168	0.0144646
740.246	0.0145817
740.325	0.0145163
740.403	0.0144395
740.481	0.0145253
740.559	0.0146442
740.637	0.0145509
740.715	0.0145637
740.793	0.0145610
740.871	0.0146764
740.950	0.0145291
741.028	0.0146419
741.106	0.0143632
741.184	0.0146444
741.262	0.0147559
741.340	0.0146407
741.418	0.0146558
741.496	0.0145755
741.575	0.0146218
741.653	0.0146273
741.731	0.0145044
741.809	0.0145142
741.887	0.0145214
741.965	0.0145212
742.043	0.0144043
742.121	0.0145305
742.200	0.0145892
742.278	0.0145727
742.356	0.0145531
742.434	0.0145012
742.512	0.0147663
742.590	0.0145641
742.668	0.0145071
742.746	0.0145863
742.825	0.0147298
742.903	0.0146708
742.981	0.0146812
743.059	0.0146539
743.137	0.0146859
743.215	0.0146747
743.293	0.0145658
743.371	0.0145515
743.450	0.0145220
743.528	0.0145593
743.606	0.0144910
743.684	0.0144598
743.762	0.0146098
743.840	0.0145018
743.918	0.0144971
743.996	0.0144868
744.075	0.0143900
744.153	0.0144610
744.231	0.0144787
744.309	0.0144370
744.387	0.0143468
744.465	0.0143083
744.543	0.0143339
744.621	0.0142480
744.700	0.0144167
744.778	0.0144294
744.856	0.0144991
744.934	0.0145023
745.012	0.0143963
745.090	0.0146405
745.168	0.0146815
745.246	0.0146414
745.325	0.0147397
745.403	0.0147784
745.481	0.0147765
745.559	0.0147715
745.637	0.0147866
745.715	0.0147350
745.793	0.0146920
745.871	0.0146806
745.950	0.0145930
746.028	0.0146603
746.106	0.0145317
746.184	0.0146548
746.262	0.0146407
746.340	0.0146322
746.418	0.0145429
746.496	0.0144952
746.575	0.0143353
746.653	0.0144751
746.731	0.0144914
746.809	0.0142144
746.887	0.0143682
746.965	0.0143150
747.043	0.0143681
747.121	0.0143359
747.200	0.0142747
747.278	0.0143822
747.356	0.0143504
747.434	0.0143279
747.512	0.0143954
747.590	0.0144016
747.668	0.0146166
747.746	0.0146613
747.825	0.0144509
747.903	0.0146616
747.981	0.0146096
748.059	0.0145412
748.137	0.0146754
748.215	0.0146614
748.293	0.0146275
748.371	0.0147034
748.450	0.0146333
748.528	0.0145325
748.606	0.0146857
748.684	0.0146375
748.762	0.0146670
748.840	0.0145638
748.918	0.0146109
748.996	0.0145348
749.075	0.0145358
749.153	0.0143900
749.231	0.0143829
749.309	0.0144246
749.387	0.0144189
749.465	0.0143970
749.543	0.0145141
749.621	0.0144781
749.700	0.0144691
749.778	0.0145206
749.856	0.0145522
749.934	0.0145238
750.012	0.0146925
750.090	0.0145773
750.168	0.0146268
750.246	0.0146016
750.325	0.0147739
750.403	0.0146506
750.481	0.0148546
750.559	0.0147593
750.637	0.0146877
750.715	0.0147643
750.793	0.0147695
750.871	0.0147748
750.950	0.0147441
751.028	0.0146376
751.106	0.0147211
751.184	0.0145633
751.262	0.0144978
751.340	0.0145402
751.418	0.0145816
751.496	0.0146510
751.575	0.0145372
751.653	0.0145565
751.731	0.0145942
751.809	0.0144525
751.887	0.0145041
751.965	0.0145262
752.043	0.0144997
752.121	0.0144107
752.200	0.0145488
752.278	0.0146038
752.356	0.0146291
752.434	0.0146622
752.512	0.0145082
752.590	0.0145507
752.668	0.0146091
752.746	0.0147724
752.825	0.0146110
752.903	0.0145544
752.981	0.0146948
753.059	0.0146862
753.137	0.0147384
753.215	0.0147204
753.293	0.0146507
753.371	0.0146326
753.450	0.0145036
753.528	0.0147573
753.606	0.0146397
753.684	0.0147001
753.762	0.0147871
753.840	0.0146082
753.918	0.0146306
753.996	0.0145972
754.075	0.0145744
754.153	0.0146152
754.231	0.0147504
754.309	0.0147262
754.387	0.0146142
754.465	0.0147080
754.543	0.0146072
754.621	0.0144865
754.700	0.0145641
754.778	0.0147298
754.856	0.0144847
754.934	0.0145270
755.012	0.0146584
755.090	0.0145876
755.168	0.0145884
755.246	0.0145316
755.325	0.0145786
755.403	0.0146539
755.481	0.0147449
755.559	0.0146046
755.637	0.0146843
755.715	0.0146341
755.793	0.0146970
755.871	0.0147540
755.950	0.0146505
756.028	0.0146864
756.106	0.0146033
756.184	0.0146197
756.262	0.0146465
756.340	0.0146337
756.418	0.0145502
756.496	0.0145738
756.575	0.0145279
756.653	0.0145586
756.731	0.0145466
756.809	0.0145322
756.887	0.0145226
756.965	0.0145026
757.043	0.0144540
757.121	0.0144382
757.200	0.0144818
757.278	0.0143599
757.356	0.0145378
757.434	0.0144708
757.512	0.0145211
757.590	0.0145641
757.668	0.0145908
757.746	0.0146039
757.825	0.0146920
757.903	0.0146089
757.981	0.0146512
758.059	0.0145568
758.137	0.0146740
758.215	0.0146844
758.293	0.0146672
758.371	0.0145990
758.450	0.0147978
758.528	0.0147818
758.606	0.0146565
758.684	0.0146233
758.762	0.0146445
758.840	0.0146465
758.918	0.0145441
758.996	0.0144349
759.075	0.0146331
759.153	0.0146645
759.231	0.0145981
759.309	0.0145828
759.387	0.0144939
759.465	0.0146601
759.543	0.0145566
759.621	0.0146766
759.700	0.0145618
759.778	0.0144946
759.856	0.0145422
759.934	0.0145618
760.012	0.0145310
760.090	0.0144472
760.168	0.0145325
760.246	0.0145542
760.325	0.0146414
760.403	0.0145683
760.481	0.0147430
760.559	0.0145462
760.637	0.0145711
760.715	0.0144985
760.793	0.0146346
760.871	0.0145121
760.950	0.0146523
761.028	0.0146841
761.106	0.0146504
761.184	0.0148259
761.262	0.0145712
761.340	0.0146008
761.418	0.0146701
761.496	0.0146326
761.575	0.0147160
761.653	0.0146728
761.731	0.0144820
761.809	0.0146308
761.887	0.0147258
761.965	0.0145520
762.043	0.0146054
762.121	0.0147614
762.200	0.0146577
762.278	0.0144946
762.356	0.0145753
762.434	0.0145949
762.512	0.0145748
762.590	0.0145267
762.668	0.0147455
762.746	0.0145472
762.825	0.0146307
762.903	0.0145990
762.981	0.0146819
763.059	0.0146792
763.137	0.0145610
763.215	0.0146117
763.293	0.0145995
763.371	0.0147513
763.450	0.0145646
763.528	0.0145705
763.606	0.0147148
763.684	0.0147614
763.762	0.0146531
763.840	0.0145782
763.918	0.0146795
763.996	0.0147204
764.075	0.0147556
764.153	0.0147780
764.231	0.0145097
764.309	0.0145313
764.387	0.0144373
764.465	0.0145215
764.543	0.0145161
764.621	0.0145889
764.700	0.0145567
764.778	0.0146452
764.856	0.0146349
764.934	0.0146992
765.012	0.0146397
765.090	0.0146958
765.168	0.0146632
765.246	0.0145955
765.325	0.0146630
765.403	0.0147571
765.481	0.0148805
765.559	0.0146040
765.637	0.0147082
765.715	0.0146162
765.793	0.0145171
765.871	0.0146511
765.950	0.0146177
766.028	0.0146444
766.106	0.0144186
766.184	0.0145261
766.262	0.0145558
766.340	0.0144282
766.418	0.0145857
766.496	0.0146371
766.575	0.0145137
766.653	0.0145448
766.731	0.0145609
766.809	0.0145267
766.887	0.0146713
766.965	0.0147055
767.043	0.0146786
767.121	0.0145397
767.200	0.0146407
767.278	0.0146547
767.356	0.0145732
767.434	0.0145860
767.512	0.0145523
767.590	0.0145089
767.668	0.0146108
767.746	0.0147085
767.825	0.0146388
767.903	0.0144843
767.981	0.0144920
768.059	0.0146764
768.137	0.0145162
768.215	0.0145234
768.293	0.0145972
768.371	0.0145309
768.450	0.0144639
768.528	0.0143764
768.606	0.0145438
768.684	0.0144517
768.762	0.0145573
768.840	0.0145258
768.918	0.0143990
768.996	0.0143656
769.075	0.0145478
769.153	0.0144602
769.231	0.0145695
769.309	0.0144675
769.387	0.0146536
769.465	0.0145869
769.543	0.0145130
769.621	0.0145875
769.700	0.0145934
769.778	0.0145079
769.856	0.0144208
769.934	0.0145967
770.012	0.0145757
770.090	0.0145841
770.168	0.0145246
770.246	0.0146140
770.325	0.0144787
770.403	0.0145078
770.481	0.0146542
770.559	0.0146116
770.637	0.0146108
770.715	0.0145330
770.793	0.0145333
770.871	0.0145665
770.950	0.0147179
771.028	0.0146402
771.106	0.0145284
771.184	0.0144322
771.262	0.0143411
771.340	0.0146221
771.418	0.0146393
771.496	0.0146190
771.575	0.0145930
771.653	0.0144199
771.731	0.0144270
771.809	0.0146349
771.887	0.0146948
771.965	0.0145080
772.043	0.0144285
772.121	0.0145870
772.200	0.0144875
772.278	0.0145078
772.356	0.0143389
772.434	0.0143286
772.512	0.0144330
772.590	0.0145248
772.668	0.0144473
772.746	0.0143588
772.825	0.0143404
772.903	0.0145652
772.981	0.0144627
773.059	0.0144922
773.137	0.0144351
773.215	0.0143694
773.293	0.0143905
773.371	0.0144710
773.450	0.0146507
773.528	0.0145822
773.606	0.0145912
773.684	0.0146100
773.762	0.0145284
773.840	0.0145123
773.918	0.0146596
773.996	0.0146291
774.075	0.0146364
774.153	0.0146516
774.231	0.0147414
774.309	0.0145365
774.387	0.0145889
774.465	0.0145518
774.543	0.0145035
774.621	0.0146239
774.700	0.0146229
774.778	0.0145990
774.856	0.0146965
774.934	0.0144713
775.012	0.0146751
775.090	0.0146889
775.168	0.0145800
775.246	0.0145468
775.325	0.0146246
775.403	0.0143851
775.481	0.0144620
775.559	0.0146223
775.637	0.0145106
775.715	0.0144696
775.793	0.0144122
775.871	0.0144691
775.950	0.0144926
776.028	0.0145173
776.106	0.0145346
776.184	0.0146496
776.262	0.0145090
776.340	0.0146846
776.418	0.0145120
776.496	0.0145798
776.575	0.0146687
776.653	0.0145879
776.731	0.0145120
776.809	0.0144838
776.887	0.0144884
776.965	0.0147180
777.043	0.0146883
777.121	0.0147052
777.200	0.0147607
777.278	0.0147178
777.356	0.0146567
777.434	0.0145989
777.512	0.0146369
777.590	0.0147012
777.668	0.0145990
777.746	0.0146093
777.825	0.0146289
777.903	0.0145290
777.981	0.0146046
778.059	0.0146096
778.137	0.0146608
778.215	0.0146483
778.293	0.0144118
778.371	0.0145872
778.450	0.0145705
778.528	0.0145035
778.606	0.0146024
778.684	0.0146882
778.762	0.0146479
778.840	0.0147248
778.918	0.0146604
778.996	0.0146502
779.075	0.0147620
779.153	0.0146970
779.231	0.0146604
779.309	0.0146627
779.387	0.0145966
779.465	0.0145511
779.543	0.0147214
779.621	0.0146172
779.700	0.0146613
779.778	0.0147519
779.856	0.0146118
779.934	0.0146164
780.012	0.0144626
780.090	0.0145629
780.168	0.0146190
780.246	0.0146748
780.325	0.0144630
780.403	0.0145845
780.481	0.0146597
780.559	0.0146294
780.637	0.0146508
780.715	0.0144580
780.793	0.0145860
780.871	0.0146390
780.950	0.0145534
781.028	0.0145999
781.106	0.0145477
781.184	0.0145078
781.262	0.0145901
781.340	0.0146905
781.418	0.0145439
781.496	0.0145428
781.575	0.0146422
781.653	0.0145966
781.731	0.0146603
781.809	0.0146436
781.887	0.0147057
781.965	0.0146711
782.043	0.0146777
782.121	0.0146854
782.200	0.0145855
782.278	0.0146804
782.356	0.0147070
782.434	0.0146987
782.512	0.0146519
782.590	0.0146032
782.668	0.0146337
782.746	0.0146882
782.825	0.0146857
782.903	0.0146979
782.981	0.0146107
783.059	0.0147499
783.137	0.0146510
783.215	0.0145234
783.293	0.0146061
783.371	0.0146519
783.450	0.0145145
783.528	0.0145678
783.606	0.0147446
783.684	0.0146176
783.762	0.0146480
783.840	0.0146922
783.918	0.0145979
783.996	0.0144920
784.075	0.0146742
784.153	0.0146458
784.231	0.0145142
784.309	0.0145597
784.387	0.0147011
784.465	0.0146677
784.543	0.0144536
784.621	0.0144083
784.700	0.0146830
784.778	0.0146347
784.856	0.0146535
784.934	0.0146696
785.012	0.0145244
785.090	0.0146058
785.168	0.0147234
785.246	0.0146072
785.325	0.0146386
785.403	0.0146676
785.481	0.0145515
785.559	0.0144814
785.637	0.0146555
785.715	0.0147052
785.793	0.0146921
785.871	0.0145974
785.950	0.0146458
786.028	0.0146533
786.106	0.0147073
786.184	0.0145512
786.262	0.0145758
786.340	0.0146462
786.418	0.0146903
786.496	0.0146625
786.575	0.0145996
786.653	0.0145987
786.731	0.0147381
786.809	0.0146088
786.887	0.0145455
786.965	0.0145767
787.043	0.0145791
787.121	0.0145759
787.200	0.0146362
787.278	0.0145534
787.356	0.0146336
787.434	0.0144631
787.512	0.0145195
787.590	0.0147237
787.668	0.0146713
787.746	0.0145743
787.825	0.0146825
787.903	0.0145119
787.981	0.0146236
788.059	0.0145662
788.137	0.0146538
788.215	0.0145539
788.293	0.0145432
788.371	0.0145147
788.450	0.0145620
788.528	0.0144544
788.606	0.0145960
788.684	0.0145040
788.762	0.0145914
788.840	0.0146609
788.918	0.0146526
788.996	0.0145986
789.075	0.0145100
789.153	0.0146169
789.231	0.0144965
789.309	0.0144684
789.387	0.0146611
789.465	0.0146845
789.543	0.0146275
789.621	0.0146237
789.700	0.0146946
789.778	0.0146210
789.856	0.0146368
789.934	0.0147287
790.012	0.0147253
790.090	0.0144960
790.168	0.0146752
790.246	0.0146423
790.325	0.0146739
790.403	0.0146291
790.481	0.0146253
790.559	0.0147201
790.637	0.0144419
790.715	0.0145818
790.793	0.0146741
790.871	0.0145988
790.950	0.0146021
791.028	0.0145707
791.106	0.0144398
791.184	0.0146820
791.262	0.0145831
791.340	0.0144999
791.418	0.0145761
791.496	0.0145657
791.575	0.0145778
791.653	0.0146153
791.731	0.0145364
791.809	0.0144924
791.887	0.0145520
791.965	0.0145549
792.043	0.0145559
792.121	0.0146062
792.200	0.0145857
792.278	0.0145087
792.356	0.0145895
792.434	0.0145746
792.512	0.0145595
792.590	0.0144180
792.668	0.0145439
792.746	0.0145517
792.825	0.0145467
792.903	0.0145991
792.981	0.0146140
793.059	0.0147562
793.137	0.0145885
793.215	0.0144347
793.293	0.0145762
793.371	0.0146564
793.450	0.0146578
793.528	0.0146645
793.606	0.0145902
793.684	0.0146024
793.762	0.0145043
793.840	0.0146498
793.918	0.0145166
793.996	0.0145845
794.075	0.0145043
794.153	0.0145303
794.231	0.0146058
794.309	0.0145352
794.387	0.0146498
794.465	0.0146333
794.543	0.0144739
794.621	0.0146582
794.700	0.0146357
794.778	0.0147250
794.856	0.0147573
794.934	0.0146504
795.012	0.0146403
795.090	0.0146964
795.168	0.0146356
795.246	0.0145515
795.325	0.0147311
795.403	0.0146456
795.481	0.0147086
795.559	0.0146355
795.637	0.0146481
795.715	0.0144193
795.793	0.0145363
795.871	0.0145199
795.950	0.0146794
796.028	0.0147141
796.106	0.0145501
796.184	0.0145313
796.262	0.0145123
796.340	0.0144397
796.418	0.0145832
796.496	0.0146062
796.575	0.0146677
796.653	0.0146722
796.731	0.0144957
796.809	0.0145548
796.887	0.0146138
796.965	0.0145191
797.043	0.0144988
797.121	0.0145725
797.200	0.0146149
797.278	0.0145208
797.356	0.0145539
797.434	0.0146318
797.512	0.0146667
797.590	0.0146506
797.668	0.0144062
797.746	0.0146270
797.825	0.0148582
797.903	0.0146165
797.981	0.0147308
798.059	0.0147318
798.137	0.0147060
798.215	0.0147274
798.293	0.0146806
798.371	0.0146819
798.450	0.0147240
798.528	0.0147243
798.606	0.0146715
798.684	0.0144653
798.762	0.0145974
798.840	0.0145861
798.918	0.0145242
798.996	0.0146432
799.075	0.0144916
799.153	0.0145470
799.231	0.0144196
799.309	0.0145008
799.387	0.0144687
799.465	0.0144242
799.543	0.0145384
799.621	0.0146061
799.700	0.0145825
799.778	0.0146117
799.856	0.0145772
799.934	0.0145594
800.012	0.0145927
800.090	0.0145869
800.168	0.0144415
800.246	0.0146611
800.325	0.0145625
800.403	0.0146239
800.481	0.0147184
800.559	0.0145952
800.637	0.0146310
800.715	0.0146970
800.793	0.0146173
800.871	0.0145914
800.950	0.0147234
801.028	0.0145103
801.106	0.0145833
801.184	0.0146786
801.262	0.0146300
801.340	0.0145017
801.418	0.0146576
801.496	0.0146507
801.575	0.0144309
801.653	0.0144791
801.731	0.0145103
801.809	0.0145099
801.887	0.0145572
801.965	0.0145701
802.043	0.0145696
802.121	0.0145259
802.200	0.0143285
802.278	0.0145457
802.356	0.0146207
802.434	0.0145415
802.512	0.0145433
802.590	0.0144927
802.668	0.0146152
802.746	0.0146417
802.825	0.0145278
802.903	0.0146757
802.981	0.0147122
803.059	0.0146292
803.137	0.0146717
803.215	0.0146940
803.293	0.0145799
803.371	0.0147755
803.450	0.0146933
803.528	0.0146649
803.606	0.0145974
803.684	0.0146968
803.762	0.0146472
803.840	0.0145753
803.918	0.0145448
803.996	0.0147485
804.075	0.0146180
804.153	0.0145804
804.231	0.0146998
804.309	0.0145946
804.387	0.0146106
804.465	0.0145906
804.543	0.0147619
804.621	0.0145806
804.700	0.0145608
804.778	0.0145910
804.856	0.0147092
804.934	0.0146082
805.012	0.0147385
805.090	0.0145614
805.168	0.0145649
805.246	0.0146090
805.325	0.0146333
805.403	0.0145966
805.481	0.0145832
805.559	0.0145809
805.637	0.0145595
805.715	0.0146432
805.793	0.0146855
805.871	0.0145548
805.950	0.0146627
806.028	0.0146004
806.106	0.0145075
806.184	0.0146410
806.262	0.0145720
806.340	0.0145232
806.418	0.0146186
806.496	0.0145357
806.575	0.0144221
806.653	0.0145672
806.731	0.0145050
806.809	0.0145933
806.887	0.0147309
806.965	0.0146304
807.043	0.0146469
807.121	0.0147014
807.200	0.0146603
807.278	0.0145071
807.356	0.0145741
807.434	0.0145585
807.512	0.0147260
807.590	0.0148335
807.668	0.0145685
807.746	0.0146634
807.825	0.0145654
807.903	0.0145341
807.981	0.0146548
808.059	0.0145084
808.137	0.0145056
808.215	0.0144698
808.293	0.0145187
808.371	0.0145846
808.450	0.0145360
808.528	0.0146036
808.606	0.0145023
808.684	0.0145843
808.762	0.0144560
808.840	0.0146044
808.918	0.0145846
808.996	0.0145325
809.075	0.0145852
809.153	0.0145808
809.231	0.0145269
809.309	0.0145313
809.387	0.0146683
809.465	0.0146428
809.543	0.0146369
809.621	0.0146664
809.700	0.0145436
809.778	0.0145024
809.856	0.0145856
809.934	0.0146378
810.012	0.0146487
810.090	0.0145718
810.168	0.0145062
810.246	0.0146713
810.325	0.0146159
810.403	0.0145933
810.481	0.0146528
810.559	0.0145650
810.637	0.0146432
810.715	0.0146065
810.793	0.0145449
810.871	0.0146139
810.950	0.0145774
811.028	0.0146338
811.106	0.0146939
811.184	0.0145774
811.262	0.0146184
811.340	0.0146254
811.418	0.0146590
811.496	0.0146740
811.575	0.0144942
811.653	0.0146072
811.731	0.0145586
811.809	0.0145729
811.887	0.0146908
811.965	0.0147156
812.043	0.0145033
812.121	0.0145066
812.200	0.0145179
812.278	0.0146556
812.356	0.0145123
812.434	0.0144763
812.512	0.0145737
812.590	0.0145154
812.668	0.0148409
812.746	0.0145905
812.825	0.0145634
812.903	0.0144797
812.981	0.0146471
813.059	0.0145792
813.137	0.0145918
813.215	0.0143942
813.293	0.0145919
813.371	0.0145785
813.450	0.0147263
813.528	0.0145693
813.606	0.0147056
813.684	0.0146417
813.762	0.0146679
813.840	0.0146963
813.918	0.0146915
813.996	0.0146219
814.075	0.0146625
814.153	0.0145627
814.231	0.0146428
814.309	0.0145992
814.387	0.0146617
814.465	0.0145735
814.543	0.0145985
814.621	0.0146480
814.700	0.0146055
814.778	0.0146609
814.856	0.0145947
814.934	0.0146070
815.012	0.0146616
815.090	0.0146781
815.168	0.0144682
815.246	0.0145849
815.325	0.0146289
815.403	0.0146308
815.481	0.0144860
815.559	0.0145622
815.637	0.0146774
815.715	0.0146163
815.793	0.0145500
815.871	0.0146115
815.950	0.0146809
816.028	0.0146703
816.106	0.0146875
816.184	0.0146886
816.262	0.0145906
816.340	0.0146635
816.418	0.0145260
816.496	0.0146160
816.575	0.0145882
816.653	0.0145878
816.731	0.0146949
816.809	0.0147057
816.887	0.0147279
816.965	0.0146073
817.043	0.0145861
817.121	0.0146820
817.200	0.0145686
817.278	0.0144530
817.356	0.0145058
817.434	0.0146399
817.512	0.0145662
817.590	0.0146274
817.668	0.0146683
817.746	0.0145470
817.825	0.0144015
817.903	0.0146902
817.981	0.0145425
818.059	0.0146167
818.137	0.0145172
818.215	0.0144727
818.293	0.0146577
818.371	0.0148251
818.450	0.0145279
818.528	0.0146132
818.606	0.0146714
818.684	0.0145401
818.762	0.0146509
818.840	0.0146262
818.918	0.0145103
818.996	0.0146684
819.075	0.0147076
819.153	0.0145785
819.231	0.0145971
819.309	0.0145238
819.387	0.0145934
819.465	0.0145679
819.543	0.0145377
819.621	0.0145021
819.700	0.0146389
819.778	0.0146210
819.856	0.0146072
819.934	0.0146426
820.012	0.0146586
820.090	0.0145818
820.168	0.0146059
820.246	0.0145451
820.325	0.0146505
820.403	0.0146938
820.481	0.0147147
820.559	0.0146379
820.637	0.0147562
820.715	0.0146437
820.793	0.0147243
820.871	0.0147440
820.950	0.0146149
821.028	0.0146833
821.106	0.0146547
821.184	0.0146053
821.262	0.0146400
821.340	0.0146665
821.418	0.0145778
821.496	0.0147141
821.575	0.0145101
821.653	0.0144860
821.731	0.0146161
821.809	0.0148074
821.887	0.0145280
821.965	0.0146378
822.043	0.0147041
822.121	0.0145092
822.200	0.0145125
822.278	0.0145525
822.356	0.0145604
822.434	0.0147311
822.512	0.0146630
822.590	0.0145294
822.668	0.0147253
822.746	0.0145800
822.825	0.0144312
822.903	0.0145119
822.981	0.0146063
823.059	0.0144036
823.137	0.0145576
823.215	0.0146155
823.293	0.0145651
823.371	0.0146082
823.450	0.0146338
823.528	0.0145569
823.606	0.0145957
823.684	0.0147406
823.762	0.0145969
823.840	0.0146294
823.918	0.0145850
823.996	0.0146766
824.075	0.0145936
824.153	0.0145707
824.231	0.0145513
824.309	0.0145680
824.387	0.0147063
824.465	0.0147211
824.543	0.0146378
824.621	0.0145570
824.700	0.0146803
824.778	0.0146056
824.856	0.0145410
824.934	0.0145564
825.012	0.0145023
825.090	0.0144594
825.168	0.0145879
825.246	0.0145716
825.325	0.0145812
825.403	0.0145269
825.481	0.0144601
825.559	0.0145603
825.637	0.0145013
825.715	0.0143118
825.793	0.0146706
825.871	0.0146967
825.950	0.0146651
826.028	0.0145290
826.106	0.0144539
826.184	0.0146626
826.262	0.0146624
826.340	0.0144774
826.418	0.0147046
826.496	0.0147095
826.575	0.0146703
826.653	0.0146914
826.731	0.0146295
826.809	0.0147746
826.887	0.0144817
826.965	0.0145631
827.043	0.0145709
827.121	0.0145940
827.200	0.0145573
827.278	0.0145232
827.356	0.0144842
827.434	0.0144720
827.512	0.0145007
827.590	0.0142636
827.668	0.0143624
827.746	0.0144113
827.825	0.0144102
827.903	0.0143643
827.981	0.0143832
828.059	0.0143599
828.137	0.0144079
828.215	0.0144631
828.293	0.0144988
828.371	0.0145706
828.450	0.0144689
828.528	0.0145624
828.606	0.0146037
828.684	0.0146471
828.762	0.0147407
828.840	0.0146299
828.918	0.0146842
828.996	0.0146426
829.075	0.0147078
829.153	0.0147008
829.231	0.0147102
829.309	0.0147210
829.387	0.0146167
829.465	0.0145309
829.543	0.0145773
829.621	0.0146474
829.700	0.0145277
829.778	0.0144118
829.856	0.0146015
829.934	0.0145093
830.012	0.0144640
830.090	0.0144955
830.168	0.0144581
830.246	0.0145444
830.325	0.0146432
830.403	0.0145399
830.481	0.0145119
830.559	0.0146175
830.637	0.0145391
830.715	0.0144663
830.793	0.0145777
830.871	0.0145809
830.950	0.0145458
831.028	0.0145554
831.106	0.0146474
831.184	0.0147048
831.262	0.0145535
831.340	0.0146129
831.418	0.0146729
831.496	0.0146716
831.575	0.0146175
831.653	0.0145714
831.731	0.0146243
831.809	0.0146018
831.887	0.0145683
831.965	0.0146136
832.043	0.0145508
832.121	0.0147470
832.200	0.0146170
832.278	0.0146025
832.356	0.0146666
832.434	0.0146407
832.512	0.0147465
832.590	0.0145785
832.668	0.0145458
832.746	0.0144775
832.825	0.0144881
832.903	0.0146183
832.981	0.0145109
833.059	0.0144378
833.137	0.0144673
833.215	0.0147178
833.293	0.0143569
833.371	0.0143919
833.450	0.0145670
833.528	0.0145013
833.606	0.0145115
833.684	0.0144640
833.762	0.0145839
833.840	0.0145506
833.918	0.0146356
833.996	0.0145754
834.075	0.0146052
834.153	0.0146311
834.231	0.0147575
834.309	0.0146402
834.387	0.0146229
834.465	0.0147691
834.543	0.0146189
834.621	0.0146827
834.700	0.0147013
834.778	0.0146967
834.856	0.0145987
834.934	0.0147557
835.012	0.0146294
835.090	0.0146749
835.168	0.0146340
835.246	0.0146126
835.325	0.0145654
835.403	0.0145023
835.481	0.0146032
835.559	0.0145187
835.637	0.0145653
835.715	0.0144801
835.793	0.0146162
835.871	0.0144760
835.950	0.0145509
836.028	0.0146263
836.106	0.0146043
836.184	0.0146445
836.262	0.0147464
836.340	0.0146223
836.418	0.0146571
836.496	0.0147105
836.575	0.0146030
836.653	0.0146871
836.731	0.0145807
836.809	0.0147401
836.887	0.0146298
836.965	0.0145657
837.043	0.0145857
837.121	0.0146094
837.200	0.0146806
837.278	0.0146270
837.356	0.0144855
837.434	0.0145600
837.512	0.0147129
837.590	0.0146345
837.668	0.0146646
837.746	0.0146239
837.825	0.0146992
837.903	0.0147813
837.981	0.0147939
838.059	0.0147076
838.137	0.0147266
838.215	0.0147064
838.293	0.0147340
838.371	0.0147092
838.450	0.0146838
838.528	0.0147547
838.606	0.0146349
838.684	0.0145285
838.762	0.0146616
838.840	0.0146358
838.918	0.0146684
838.996	0.0146473
839.075	0.0146536
839.153	0.0146376
839.231	0.0146383
839.309	0.0145148
839.387	0.0145930
839.465	0.0146067
839.543	0.0146117
839.621	0.0146396
839.700	0.0145825
839.778	0.0145808
839.856	0.0145307
839.934	0.0146716
840.012	0.0146553
840.090	0.0146281
840.168	0.0145926
840.246	0.0146521
840.325	0.0146762
840.403	0.0146334
840.481	0.0146214
840.559	0.0145804
840.637	0.0146069
840.715	0.0147118
840.793	0.0147077
840.871	0.0146320
840.950	0.0145732
841.028	0.0146070
841.106	0.0146764
841.184	0.0147363
841.262	0.0147489
841.340	0.0146204
841.418	0.0146031
841.496	0.0146444
841.575	0.0146195
841.653	0.0147044
841.731	0.0145853
841.809	0.0145262
841.887	0.0146072
841.965	0.0146088
842.043	0.0145217
842.121	0.0148700
842.200	0.0145633
842.278	0.0145986
842.356	0.0145639
842.434	0.0144492
842.512	0.0146362
842.590	0.0145364
842.668	0.0145727
842.746	0.0145879
842.825	0.0146037
842.903	0.0145277
842.981	0.0146765
843.059	0.0145658
843.137	0.0145434
843.215	0.0146822
843.293	0.0145550
843.371	0.0145415
843.450	0.0145665
843.528	0.0145756
843.606	0.0146162
843.684	0.0145557
843.762	0.0145863
843.840	0.0145967
843.918	0.0145253
843.996	0.0145762
844.075	0.0145788
844.153	0.0145612
844.231	0.0145194
844.309	0.0146329
844.387	0.0145876
844.465	0.0146142
844.543	0.0146087
844.621	0.0146282
844.700	0.0146021
844.778	0.0146222
844.856	0.0145900
844.934	0.0146152
845.012	0.0146325
845.090	0.0146124
845.168	0.0144958
845.246	0.0145924
845.325	0.0145224
845.403	0.0145906
845.481	0.0146331
845.559	0.0144933
845.637	0.0144292
845.715	0.0145442
845.793	0.0146108
845.871	0.0144403
845.950	0.0146066
846.028	0.0144659
846.106	0.0144003
846.184	0.0144585
846.262	0.0143610
846.340	0.0144770
846.418	0.0144662
846.496	0.0144132
846.575	0.0145829
846.653	0.0144803
846.731	0.0144987
846.809	0.0145757
846.887	0.0145242
846.965	0.0144921
847.043	0.0144070
847.121	0.0145888
847.200	0.0145608
847.278	0.0146806
847.356	0.0145400
847.434	0.0145449
847.512	0.0145021
847.590	0.0146016
847.668	0.0146965
847.746	0.0146165
847.825	0.0145732
847.903	0.0144781
847.981	0.0144825
848.059	0.0145879
848.137	0.0146075
848.215	0.0145538
848.293	0.0146568
848.371	0.0144213
848.450	0.0145547
848.528	0.0146068
848.606	0.0146122
848.684	0.0146747
848.762	0.0145663
848.840	0.0145725
848.918	0.0144926
848.996	0.0145379
849.075	0.0146356
849.153	0.0144892
849.231	0.0144703
849.309	0.0145077
849.387	0.0146668
849.465	0.0145943
849.543	0.0145167
849.621	0.0145827
849.700	0.0145529
849.778	0.0145494
849.856	0.0145474
849.934	0.0147077
850.012	0.0146619
850.090	0.0146416
850.168	0.0146331
850.246	0.0147031
850.325	0.0145325
850.403	0.0146509
850.481	0.0146746
850.559	0.0145452
850.637	0.0146072
850.715	0.0147327
850.793	0.0145659
850.871	0.0146169
850.950	0.0145711
851.028	0.0145194
851.106	0.0146761
851.184	0.0146256
851.262	0.0145048
851.340	0.0146165
851.418	0.0146454
851.496	0.0145518
851.575	0.0146090
851.653	0.0145261
851.731	0.0146751
851.809	0.0145776
851.887	0.0144846
851.965	0.0146491
852.043	0.0145554
852.121	0.0145573
852.200	0.0145522
852.278	0.0145871
852.356	0.0146217
852.434	0.0145293
852.512	0.0146702
852.590	0.0145777
852.668	0.0145695
852.746	0.0147385
852.825	0.0145868
852.903	0.0147160
852.981	0.0143530
853.059	0.0145095
853.137	0.0146476
853.215	0.0146056
853.293	0.0145876
853.371	0.0146136
853.450	0.0145979
853.528	0.0146114
853.606	0.0145473
853.684	0.0146362
853.762	0.0146274
853.840	0.0145764
853.918	0.0146334
853.996	0.0145428
854.075	0.0145828
854.153	0.0146296
854.231	0.0146782
854.309	0.0145757
854.387	0.0146718
854.465	0.0146770
854.543	0.0146135
854.621	0.0146187
854.700	0.0145884
854.778	0.0147040
854.856	0.0147650
854.934	0.0147414
855.012	0.0146793
855.090	0.0145544
855.168	0.0146777
855.246	0.0147188
855.325	0.0146732
855.403	0.0146039
855.481	0.0146894
855.559	0.0144518
855.637	0.0146173
855.715	0.0147005
855.793	0.0146287
855.871	0.0144303
855.950	0.0144921
856.028	0.0145427
856.106	0.0146677
856.184	0.0145827
856.262	0.0145606
856.340	0.0145364
856.418	0.0145759
856.496	0.0145017
856.575	0.0146431
856.653	0.0146562
856.731	0.0145445
856.809	0.0147663
856.887	0.0146929
856.965	0.0146841
857.043	0.0147747
857.121	0.0145718
857.200	0.0146368
857.278	0.0146487
857.356	0.0147036
857.434	0.0146806
857.512	0.0147717
857.590	0.0147787
857.668	0.0147866
857.746	0.0146812
857.825	0.0147549
857.903	0.0147387
857.981	0.0146059
858.059	0.0145705
858.137	0.0146217
858.215	0.0145435
858.293	0.0145837
858.371	0.0146574
858.450	0.0146249
858.528	0.0144711
858.606	0.0146096
858.684	0.0145273
858.762	0.0145237
858.840	0.0146275
858.918	0.0145637
858.996	0.0144203
859.075	0.0144166
859.153	0.0145417
859.231	0.0145409
859.309	0.0146708
859.387	0.0145079
859.465	0.0145582
859.543	0.0145546
859.621	0.0144703
859.700	0.0146246
859.778	0.0146278
859.856	0.0146432
859.934	0.0145840
860.012	0.0147044
860.090	0.0146978
860.168	0.0146537
860.246	0.0146655
860.325	0.0146902
860.403	0.0147950
860.481	0.0146996
860.559	0.0146012
860.637	0.0145877
860.715	0.0145476
860.793	0.0146067
860.871	0.0146368
860.950	0.0145192
861.028	0.0144595
861.106	0.0145126
861.184	0.0145097
861.262	0.0145556
861.340	0.0144723
861.418	0.0146073
861.496	0.0145601
861.575	0.0145164
861.653	0.0145248
861.731	0.0143909
861.809	0.0144488
861.887	0.0145392
861.965	0.0146140
862.043	0.0145040
862.121	0.0144427
862.200	0.0144864
862.278	0.0146250
862.356	0.0144125
862.434	0.0143984
862.512	0.0145062
862.590	0.0144208
862.668	0.0146213
862.746	0.0144987
862.825	0.0145320
862.903	0.0145805
862.981	0.0145918
863.059	0.0145060
863.137	0.0143244
863.215	0.0145304
863.293	0.0146247
863.371	0.0146468
863.450	0.0145830
863.528	0.0145191
863.606	0.0145249
863.684	0.0146510
863.762	0.0144535
863.840	0.0144298
863.918	0.0145758
863.996	0.0144728
864.075	0.0145552
864.153	0.0145802
864.231	0.0144551
864.309	0.0145242
864.387	0.0146900
864.465	0.0145081
864.543	0.0143596
864.621	0.0145673
864.700	0.0145362
864.778	0.0145116
864.856	0.0145837
864.934	0.0145949
865.012	0.0146019
865.090	0.0146168
865.168	0.0144906
865.246	0.0145096
865.325	0.0145902
865.403	0.0144781
865.481	0.0146019
865.559	0.0146298
865.637	0.0145557
865.715	0.0146057
865.793	0.0146041
865.871	0.0147170
865.950	0.0145384
866.028	0.0145480
866.106	0.0146067
866.184	0.0145361
866.262	0.0146163
866.340	0.0145493
866.418	0.0144669
866.496	0.0144596
866.575	0.0144190
866.653	0.0147069
866.731	0.0146113
866.809	0.0146437
866.887	0.0144562
866.965	0.0146246
867.043	0.0146838
867.121	0.0145824
867.200	0.0146692
867.278	0.0146821
867.356	0.0145874
867.434	0.0145850
867.512	0.0146688
867.590	0.0146156
867.668	0.0146090
867.746	0.0145847
867.825	0.0144442
867.903	0.0146179
867.981	0.0146114
868.059	0.0146774
868.137	0.0145467
868.215	0.0145076
868.293	0.0145442
868.371	0.0145442
868.450	0.0145998
868.528	0.0144662
868.606	0.0144180
868.684	0.0146025
868.762	0.0146078
868.840	0.0145332
868.918	0.0145699
868.996	0.0145518
869.075	0.0146399
869.153	0.0146326
869.231	0.0145238
869.309	0.0146425
869.387	0.0145792
869.465	0.0146069
869.543	0.0145382
869.621	0.0147264
869.700	0.0147544
869.778	0.0146593
869.856	0.0146920
869.934	0.0145203
870.012	0.0145805
870.090	0.0145579
870.168	0.0145538
870.246	0.0147365
870.325	0.0146120
870.403	0.0146983
870.481	0.0147063
870.559	0.0146404
870.637	0.0146699
870.715	0.0145935
870.793	0.0146519
870.871	0.0147710
870.950	0.0147378
871.028	0.0146758
871.106	0.0147015
871.184	0.0145561
871.262	0.0146002
871.340	0.0146917
871.418	0.0146420
871.496	0.0146111
871.575	0.0145773
871.653	0.0145486
871.731	0.0145345
871.809	0.0144311
871.887	0.0145464
871.965	0.0144344
872.043	0.0144936
872.121	0.0145068
872.200	0.0144494
872.278	0.0145860
872.356	0.0145738
872.434	0.0145558
872.512	0.0146894
872.590	0.0144617
872.668	0.0145338
872.746	0.0147622
872.825	0.0146265
872.903	0.0145177
872.981	0.0146434
873.059	0.0147106
873.137	0.0147028
873.215	0.0146912
873.293	0.0145325
873.371	0.0145175
873.450	0.0146635
873.528	0.0147466
873.606	0.0147053
873.684	0.0144247
873.762	0.0145747
873.840	0.0145403
873.918	0.0145800
873.996	0.0143680
874.075	0.0144455
874.153	0.0145054
874.231	0.0146295
874.309	0.0144776
874.387	0.0145495
874.465	0.0145744
874.543	0.0145324
874.621	0.0144943
874.700	0.0145380
874.778	0.0144944
874.856	0.0145850
874.934	0.0145480
875.012	0.0145444
875.090	0.0144998
875.168	0.0144395
875.246	0.0146969
875.325	0.0145184
875.403	0.0145586
875.481	0.0145132
875.559	0.0144844
875.637	0.0145545
875.715	0.0144376
875.793	0.0145086
875.871	0.0145232
875.950	0.0145155
876.028	0.0145010
876.106	0.0145519
876.184	0.0146709
876.262	0.0144495
876.340	0.0145131
876.418	0.0145262
876.496	0.0146085
876.575	0.0146850
876.653	0.0145574
876.731	0.0146185
876.809	0.0145113
876.887	0.0145145
876.965	0.0144576
877.043	0.0145279
877.121	0.0145924
877.200	0.0147551
877.278	0.0145602
877.356	0.0145190
877.434	0.0145847
877.512	0.0145277
877.590	0.0143685
877.668	0.0146304
877.746	0.0144913
877.825	0.0147129
877.903	0.0146561
877.981	0.0146448
878.059	0.0146593
878.137	0.0145474
878.215	0.0146057
878.293	0.0146144
878.371	0.0146480
878.450	0.0146392
878.528	0.0146584
878.606	0.0146564
878.684	0.0145465
878.762	0.0145734
878.840	0.0146391
878.918	0.0146287
878.996	0.0146455
879.075	0.0146223
879.153	0.0145599
879.231	0.0145229
879.309	0.0146343
879.387	0.0143984
879.465	0.0146011
879.543	0.0146242
879.621	0.0144894
879.700	0.0143957
879.778	0.0144990
879.856	0.0145721
879.934	0.0145271
880.012	0.0146551
880.090	0.0145197
880.168	0.0145621
880.246	0.0144741
880.325	0.0146887
880.403	0.0146880
880.481	0.0146474
880.559	0.0147202
880.637	0.0146384
880.715	0.0146582
880.793	0.0146925
880.871	0.0146333
880.950	0.0147157
881.028	0.0147841
881.106	0.0146341
881.184	0.0146082
881.262	0.0146690
881.340	0.0147339
881.418	0.0146919
881.496	0.0146705
881.575	0.0146510
881.653	0.0145264
881.731	0.0145537
881.809	0.0146420
881.887	0.0145454
881.965	0.0146378
882.043	0.0145966
882.121	0.0145529
882.200	0.0146387
882.278	0.0147117
882.356	0.0146280
882.434	0.0144817
882.512	0.0146606
882.590	0.0145191
882.668	0.0146143
882.746	0.0146831
882.825	0.0146107
882.903	0.0146223
882.981	0.0145634
883.059	0.0145986
883.137	0.0145417
883.215	0.0147205
883.293	0.0146893
883.371	0.0144922
883.450	0.0144544
883.528	0.0146056
883.606	0.0144902
883.684	0.0146569
883.762	0.0146864
883.840	0.0145412
883.918	0.0146291
883.996	0.0144353
884.075	0.0145547
884.153	0.0144730
884.231	0.0145193
884.309	0.0145811
884.387	0.0145586
884.465	0.0145560
884.543	0.0145631
884.621	0.0145724
884.700	0.0144321
884.778	0.0144730
884.856	0.0146452
884.934	0.0144227
885.012	0.0144431
885.090	0.0145945
885.168	0.0145187
885.246	0.0144101
885.325	0.0144820
885.403	0.0144814
885.481	0.0146107
885.559	0.0145425
885.637	0.0144515
885.715	0.0145015
885.793	0.0145200
885.871	0.0145669
885.950	0.0144425
886.028	0.0145612
886.106	0.0144896
886.184	0.0145723
886.262	0.0145415
886.340	0.0145251
886.418	0.0145023
886.496	0.0144683
886.575	0.0144566
886.653	0.0144691
886.731	0.0146077
886.809	0.0145665
886.887	0.0144272
886.965	0.0144785
887.043	0.0144792
887.121	0.0143850
887.200	0.0144677
887.278	0.0144403
887.356	0.0144769
887.434	0.0144010
887.512	0.0144283
887.590	0.0144946
887.668	0.0144999
887.746	0.0144235
887.825	0.0145392
887.903	0.0145456
887.981	0.0144650
888.059	0.0146136
888.137	0.0146153
888.215	0.0146217
888.293	0.0146402
888.371	0.0147254
888.450	0.0146393
888.528	0.0145621
888.606	0.0146410
888.684	0.0145293
888.762	0.0144878
888.840	0.0147012
888.918	0.0146111
888.996	0.0146447
889.075	0.0145797
889.153	0.0145351
889.231	0.0144654
889.309	0.0146660
889.387	0.0144737
889.465	0.0144336
889.543	0.0144481
889.621	0.0144505
889.700	0.0145705
889.778	0.0144614
889.856	0.0143999
889.934	0.0146115
890.012	0.0144658
890.090	0.0144252
890.168	0.0145968
890.246	0.0146437
890.325	0.0145364
890.403	0.0146386
890.481	0.0146300
890.559	0.0146167
890.637	0.0146807
890.715	0.0145820
890.793	0.0147204
890.871	0.0145802
890.950	0.0146777
891.028	0.0146535
891.106	0.0144798
891.184	0.0145467
891.262	0.0144417
891.340	0.0147152
891.418	0.0145740
891.496	0.0147108
891.575	0.0146551
891.653	0.0146185
891.731	0.0146600
891.809	0.0145391
891.887	0.0146741
891.965	0.0145462
892.043	0.0144741
892.121	0.0146204
892.200	0.0146380
892.278	0.0146632
892.356	0.0147584
892.434	0.0145821
892.512	0.0145704
892.590	0.0145166
892.668	0.0145776
892.746	0.0147223
892.825	0.0146647
892.903	0.0146133
892.981	0.0148074
893.059	0.0146746
893.137	0.0146741
893.215	0.0148742
893.293	0.0146653
893.371	0.0146241
893.450	0.0146648
893.528	0.0145824
893.606	0.0146781
893.684	0.0146001
893.762	0.0145754
893.840	0.0147723
893.918	0.0145718
893.996	0.0145494
894.075	0.0145626
894.153	0.0146534
894.231	0.0146392
894.309	0.0144997
894.387	0.0144525
894.465	0.0145951
894.543	0.0144946
894.621	0.0146459
894.700	0.0146014
894.778	0.0146019
894.856	0.0145715
894.934	0.0145607
895.012	0.0145571
895.090	0.0144332
895.168	0.0144904
895.246	0.0146034
895.325	0.0145094
895.403	0.0147431
895.481	0.0146068
895.559	0.0145194
895.637	0.0145515
895.715	0.0146169
895.793	0.0146245
895.871	0.0147549
895.950	0.0145963
896.028	0.0145968
896.106	0.0146049
896.184	0.0145538
896.262	0.0144550
896.340	0.0144550
896.418	0.0146307
896.496	0.0144765
896.575	0.0146105
896.653	0.0146998
896.731	0.0146404
896.809	0.0146339
896.887	0.0146016
896.965	0.0145686
897.043	0.0145969
897.121	0.0145865
897.200	0.0145264
897.278	0.0146633
897.356	0.0147621
897.434	0.0146249
897.512	0.0146613
897.590	0.0144435
897.668	0.0145055
897.746	0.0144797
897.825	0.0145613
897.903	0.0146123
897.981	0.0145581
898.059	0.0146061
898.137	0.0146194
898.215	0.0144425
898.293	0.0146275
898.371	0.0147042
898.450	0.0146627
898.528	0.0146464
898.606	0.0146136
898.684	0.0148193
898.762	0.0147215
898.840	0.0146487
898.918	0.0146705
898.996	0.0148029
899.075	0.0146135
899.153	0.0147421
899.231	0.0145900
899.309	0.0145432
899.387	0.0147076
899.465	0.0147985
899.543	0.0147020
899.621	0.0146415
899.700	0.0146397
899.778	0.0146930
899.856	0.0146142
899.934	0.0147168
900.012	0.0145607
900.090	0.0146496
900.168	0.0147066
900.246	0.0146487
900.325	0.0146922
900.403	0.0146247
900.481	0.0146464
900.559	0.0144260
900.637	0.0145845
900.715	0.0145992
900.793	0.0145663
900.871	0.0147118
900.950	0.0145283
901.028	0.0146471
901.106	0.0146840
901.184	0.0145947
901.262	0.0147639
901.340	0.0146846
901.418	0.0146463
901.496	0.0148532
901.575	0.0147637
901.653	0.0146818
901.731	0.0147831
901.809	0.0146878
901.887	0.0147829
901.965	0.0146423
902.043	0.0146817
902.121	0.0146279
902.200	0.0147677
902.278	0.0146679
902.356	0.0146358
902.434	0.0145372
902.512	0.0147463
902.590	0.0146682
902.668	0.0145760
902.746	0.0146883
902.825	0.0146896
902.903	0.0147395
902.981	0.0147723
903.059	0.0146440
903.137	0.0147054
903.215	0.0145000
903.293	0.0146889
903.371	0.0147176
903.450	0.0146938
903.528	0.0146779
903.606	0.0146097
903.684	0.0144900
903.762	0.0145703
903.840	0.0146428
903.918	0.0146461
903.996	0.0145167
904.075	0.0145831
904.153	0.0147379
904.231	0.0146481
904.309	0.0146018
904.387	0.0146400
904.465	0.0146288
904.543	0.0144518
904.621	0.0146040
904.700	0.0146743
904.778	0.0145091
904.856	0.0145908
904.934	0.0145757
905.012	0.0145141
905.090	0.0145532
905.168	0.0146053
905.246	0.0145255
905.325	0.0144878
905.403	0.0145210
905.481	0.0145302
905.559	0.0146494
905.637	0.0146767
905.715	0.0145366
905.793	0.0145464
905.871	0.0145380
905.950	0.0145320
906.028	0.0145523
906.106	0.0145225
906.184	0.0145764
906.262	0.0146234
906.340	0.0145233
906.418	0.0146288
906.496	0.0146096
906.575	0.0144880
906.653	0.0144662
906.731	0.0146109
906.809	0.0145678
906.887	0.0146929
906.965	0.0146329
907.043	0.0145829
907.121	0.0146109
907.200	0.0143542
907.278	0.0145368
907.356	0.0145985
907.434	0.0144622
907.512	0.0146240
907.590	0.0146248
907.668	0.0146041
907.746	0.0146329
907.825	0.0145763
907.903	0.0145065
907.981	0.0143954
908.059	0.0144820
908.137	0.0144392
908.215	0.0144350
908.293	0.0144314
908.371	0.0145714
908.450	0.0146537
908.528	0.0146922
908.606	0.0144063
908.684	0.0146817
908.762	0.0146340
908.840	0.0145685
908.918	0.0144923
908.996	0.0147263
909.075	0.0147653
909.153	0.0147394
909.231	0.0147410
909.309	0.0147336
909.387	0.0146394
909.465	0.0147312
909.543	0.0146590
909.621	0.0145917
909.700	0.0146478
909.778	0.0146410
909.856	0.0146289
909.934	0.0145652
910.012	0.0144569
910.090	0.0144284
910.168	0.0144982
910.246	0.0145804
910.325	0.0144923
910.403	0.0145595
910.481	0.0145710
910.559	0.0146352
910.637	0.0146266
910.715	0.0146945
910.793	0.0145788
910.871	0.0145219
910.950	0.0145073
911.028	0.0145329
911.106	0.0145740
911.184	0.0147117
911.262	0.0144640
911.340	0.0145347
911.418	0.0145165
911.496	0.0146401
911.575	0.0145718
911.653	0.0146558
911.731	0.0145377
911.809	0.0146259
911.887	0.0146143
911.965	0.0145682
912.043	0.0146292
912.121	0.0146986
912.200	0.0147141
912.278	0.0146880
912.356	0.0145873
912.434	0.0146614
912.512	0.0145844
912.590	0.0147221
912.668	0.0146520
912.746	0.0146170
912.825	0.0146761
912.903	0.0146147
912.981	0.0145650
913.059	0.0146615
913.137	0.0145758
913.215	0.0146565
913.293	0.0144054
913.371	0.0144976
913.450	0.0145050
913.528	0.0146179
913.606	0.0145835
913.684	0.0145885
913.762	0.0146050
913.840	0.0147621
913.918	0.0145350
913.996	0.0145812
914.075	0.0146750
914.153	0.0145948
914.231	0.0146532
914.309	0.0147171
914.387	0.0145056
914.465	0.0146510
914.543	0.0146371
914.621	0.0146426
914.700	0.0145861
914.778	0.0145464
914.856	0.0146528
914.934	0.0146942
915.012	0.0146175
915.090	0.0145702
915.168	0.0145746
915.246	0.0146859
915.325	0.0145887
915.403	0.0145827
915.481	0.0144775
915.559	0.0145586
915.637	0.0145462
915.715	0.0144450
915.793	0.0145651
915.871	0.0146507
915.950	0.0144868
916.028	0.0145068
916.106	0.0147358
916.184	0.0145493
916.262	0.0145653
916.340	0.0144966
916.418	0.0146703
916.496	0.0146036
916.575	0.0145661
916.653	0.0145805
916.731	0.0146072
916.809	0.0145886
916.887	0.0147655
916.965	0.0145507
917.043	0.0146028
917.121	0.0146505
917.200	0.0146092
917.278	0.0146246
917.356	0.0146133
917.434	0.0146328
917.512	0.0146646
917.590	0.0146652
917.668	0.0145670
917.746	0.0146414
917.825	0.0146093
917.903	0.0145320
917.981	0.0145679
918.059	0.0146685
918.137	0.0145485
918.215	0.0144801
918.293	0.0146268
918.371	0.0145213
918.450	0.0144530
918.528	0.0146037
918.606	0.0145713
918.684	0.0145377
918.762	0.0146126
918.840	0.0145188
918.918	0.0144553
918.996	0.0143898
919.075	0.0145256
919.153	0.0144460
919.231	0.0145641
919.309	0.0145631
919.387	0.0144665
919.465	0.0145238
919.543	0.0145042
919.621	0.0145785
919.700	0.0145641
919.778	0.0144440
919.856	0.0145463
919.934	0.0145566
920.012	0.0145377
920.090	0.0146758
920.168	0.0145785
920.246	0.0146609
920.325	0.0146117
920.403	0.0146018
920.481	0.0146293
920.559	0.0145967
920.637	0.0146160
920.715	0.0146561
920.793	0.0146701
920.871	0.0147349
920.950	0.0146202
921.028	0.0146046
921.106	0.0146647
921.184	0.0145347
921.262	0.0144626
921.340	0.0145918
921.418	0.0145727
921.496	0.0145865
921.575	0.0147076
921.653	0.0146776
921.731	0.0145638
921.809	0.0145465
921.887	0.0146490
921.965	0.0145924
922.043	0.0146105
922.121	0.0146033
922.200	0.0144852
922.278	0.0146873
922.356	0.0147617
922.434	0.0147120
922.512	0.0144804
922.590	0.0146313
922.668	0.0146763
922.746	0.0145910
922.825	0.0146448
922.903	0.0145687
922.981	0.0146751
923.059	0.0145325
923.137	0.0144986
923.215	0.0144246
923.293	0.0144651
923.371	0.0146490
923.450	0.0145513
923.528	0.0145419
923.606	0.0144462
923.684	0.0144540
923.762	0.0143806
923.840	0.0143699
923.918	0.0145954
923.996	0.0145560
924.075	0.0145210
924.153	0.0145164
924.231	0.0144891
924.309	0.0145326
924.387	0.0146769
924.465	0.0145313
924.543	0.0145664
924.621	0.0144395
924.700	0.0145358
924.778	0.0145506
924.856	0.0147331
924.934	0.0145775
925.012	0.0146125
925.090	0.0145841
925.168	0.0145576
925.246	0.0144404
925.325	0.0145889
925.403	0.0145115
925.481	0.0145165
925.559	0.0145638
925.637	0.0145416
925.715	0.0145037
925.793	0.0144275
925.871	0.0143703
925.950	0.0145015
926.028	0.0145866
926.106	0.0144356
926.184	0.0144810
926.262	0.0144830
926.340	0.0145728
926.418	0.0145403
926.496	0.0144803
926.575	0.0147089
926.653	0.0146218
926.731	0.0145521
926.809	0.0146686
926.887	0.0146515
926.965	0.0147124
927.043	0.0145978
927.121	0.0146454
927.200	0.0146375
927.278	0.0145827
927.356	0.0145408
927.434	0.0145105
927.512	0.0145999
927.590	0.0145451
927.668	0.0144682
927.746	0.0145946
927.825	0.0145821
927.903	0.0145693
927.981	0.0143573
928.059	0.0144124
928.137	0.0146513
928.215	0.0145873
928.293	0.0144939
928.371	0.0145368
928.450	0.0144844
928.528	0.0146703
928.606	0.0144571
928.684	0.0145744
928.762	0.0146069
928.840	0.0144577
928.918	0.0144620
928.996	0.0146085
929.075	0.0145979
929.153	0.0145380
929.231	0.0144504
929.309	0.0145107
929.387	0.0145402
929.465	0.0145654
929.543	0.0144592
929.621	0.0145547
929.700	0.0145910
929.778	0.0147112
929.856	0.0145293
929.934	0.0146621
930.012	0.0145585
930.090	0.0145587
930.168	0.0146304
930.246	0.0146850
930.325	0.0145619
930.403	0.0146806
930.481	0.0145663
930.559	0.0147181
930.637	0.0147221
930.715	0.0145995
930.793	0.0144956
930.871	0.0146790
930.950	0.0145274
931.028	0.0146241
931.106	0.0145937
931.184	0.0146090
931.262	0.0148428
931.340	0.0146925
931.418	0.0146015
931.496	0.0146983
931.575	0.0145898
931.653	0.0145982
931.731	0.0146285
931.809	0.0146042
931.887	0.0147101
931.965	0.0146680
932.043	0.0146894
932.121	0.0147254
932.200	0.0146677
932.278	0.0146851
932.356	0.0145659
932.434	0.0146191
932.512	0.0147878
932.590	0.0146645
932.668	0.0147801
932.746	0.0147426
932.825	0.0147446
932.903	0.0146423
932.981	0.0145515
933.059	0.0144971
933.137	0.0147054
933.215	0.0146250
933.293	0.0146143
933.371	0.0145323
933.450	0.0144780
933.528	0.0145987
933.606	0.0144236
933.684	0.0144263
933.762	0.0146565
933.840	0.0144238
933.918	0.0144842
933.996	0.0145299
934.075	0.0145094
934.153	0.0145030
934.231	0.0145531
934.309	0.0145997
934.387	0.0146550
934.465	0.0146420
934.543	0.0145007
934.621	0.0144620
934.700	0.0145973
934.778	0.0145305
934.856	0.0145473
934.934	0.0146152
935.012	0.0145966
935.090	0.0145840
935.168	0.0147472
935.246	0.0146561
935.325	0.0144494
935.403	0.0146338
935.481	0.0146138
935.559	0.0145776
935.637	0.0145406
935.715	0.0145811
935.793	0.0145865
935.871	0.0145910
935.950	0.0144901
936.028	0.0146098
936.106	0.0146584
936.184	0.0146720
936.262	0.0145472
936.340	0.0145620
936.418	0.0145557
936.496	0.0145883
936.575	0.0146575
936.653	0.0145332
936.731	0.0146095
936.809	0.0146407
936.887	0.0145792
936.965	0.0144878
937.043	0.0146259
937.121	0.0146908
937.200	0.0145950
937.278	0.0147028
937.356	0.0146518
937.434	0.0145995
937.512	0.0146995
937.590	0.0146955
937.668	0.0148261
937.746	0.0147148
937.825	0.0145089
937.903	0.0146507
937.981	0.0145693
938.059	0.0146526
938.137	0.0145439
938.215	0.0145293
938.293	0.0145766
938.371	0.0146745
938.450	0.0146659
938.528	0.0145953
938.606	0.0145612
938.684	0.0144898
938.762	0.0143710
938.840	0.0145412
938.918	0.0145013
938.996	0.0145792
939.075	0.0144973
939.153	0.0144537
939.231	0.0144035
939.309	0.0144613
939.387	0.0144440
939.465	0.0143817
939.543	0.0145509
939.621	0.0145779
939.700	0.0146616
939.778	0.0145245
939.856	0.0146531
939.934	0.0145876
940.012	0.0146553
940.090	0.0147223
940.168	0.0148102
940.246	0.0148136
940.325	0.0148773
940.403	0.0145999
940.481	0.0146512
940.559	0.0147703
940.637	0.0146202
940.715	0.0147426
940.793	0.0147865
940.871	0.0146695
940.950	0.0145104
941.028	0.0146043
941.106	0.0145649
941.184	0.0145947
941.262	0.0146415
941.340	0.0146518
941.418	0.0144730
941.496	0.0146265
941.575	0.0147446
941.653	0.0145470
941.731	0.0145596
941.809	0.0146400
941.887	0.0145953
941.965	0.0145486
942.043	0.0146098
942.121	0.0146004
942.200	0.0146379
942.278	0.0144462
942.356	0.0143626
942.434	0.0146187
942.512	0.0145219
942.590	0.0145924
942.668	0.0144934
942.746	0.0144886
942.825	0.0145007
942.903	0.0146143
942.981	0.0146011
943.059	0.0146823
943.137	0.0146510
943.215	0.0145524
943.293	0.0145464
943.371	0.0147657
943.450	0.0146380
943.528	0.0146293
943.606	0.0146777
943.684	0.0146797
943.762	0.0145587
943.840	0.0146410
943.918	0.0147662
943.996	0.0146617
944.075	0.0146170
944.153	0.0146013
944.231	0.0146198
944.309	0.0145728
944.387	0.0146793
944.465	0.0144772
944.543	0.0145531
944.621	0.0144960
944.700	0.0146090
944.778	0.0144673
944.856	0.0144498
944.934	0.0146299
945.012	0.0145892
945.090	0.0146684
945.168	0.0145764
945.246	0.0145399
945.325	0.0145647
945.403	0.0146894
945.481	0.0148201
945.559	0.0146880
945.637	0.0145954
945.715	0.0146690
945.793	0.0147398
945.871	0.0146823
945.950	0.0147295
946.028	0.0147440
946.106	0.0145853
946.184	0.0145579
946.262	0.0146187
946.340	0.0147198
946.418	0.0146117
946.496	0.0146449
946.575	0.0146300
946.653	0.0145942
946.731	0.0144575
946.809	0.0145829
946.887	0.0146689
946.965	0.0143719
947.043	0.0146560
947.121	0.0146030
947.200	0.0145522
947.278	0.0146136
947.356	0.0145342
947.434	0.0146648
947.512	0.0147327
947.590	0.0145271
947.668	0.0144637
947.746	0.0145251
947.825	0.0145862
947.903	0.0145086
947.981	0.0145324
948.059	0.0145346
948.137	0.0146264
948.215	0.0146307
948.293	0.0146401
948.371	0.0146439
948.450	0.0144585
948.528	0.0144632
948.606	0.0145136
948.684	0.0143819
948.762	0.0144567
948.840	0.0146391
948.918	0.0143854
948.996	0.0146684
949.075	0.0144060
949.153	0.0143935
949.231	0.0146204
949.309	0.0146423
949.387	0.0144987
949.465	0.0147844
949.543	0.0146048
949.621	0.0146386
949.700	0.0147369
949.778	0.0146598
949.856	0.0147707
949.934	0.0147834
950.012	0.0146078
950.090	0.0145209
950.168	0.0146224
950.246	0.0147159
950.325	0.0145351
950.403	0.0147035
950.481	0.0146970
950.559	0.0146638
950.637	0.0145714
950.715	0.0146027
950.793	0.0146094
950.871	0.0146916
950.950	0.0146844
951.028	0.0145480
951.106	0.0145892
951.184	0.0146772
951.262	0.0147236
951.340	0.0146018
951.418	0.0146565
951.496	0.0144465
951.575	0.0146613
951.653	0.0146575
951.731	0.0145846
951.809	0.0144946
951.887	0.0146429
951.965	0.0145950
952.043	0.0146480
952.121	0.0147201
952.200	0.0146660
952.278	0.0145278
952.356	0.0145918
952.434	0.0146133
952.512	0.0146280
952.590	0.0146866
952.668	0.0146453
952.746	0.0145995
952.825	0.0145367
952.903	0.0145334
952.981	0.0145757
953.059	0.0146468
953.137	0.0146268
953.215	0.0145589
953.293	0.0144942
953.371	0.0147155
953.450	0.0146612
953.528	0.0145898
953.606	0.0146026
953.684	0.0145286
953.762	0.0146295
953.840	0.0147535
953.918	0.0146709
953.996	0.0146260
954.075	0.0145442
954.153	0.0145271
954.231	0.0146114
954.309	0.0146812
954.387	0.0145377
954.465	0.0145787
954.543	0.0147073
954.621	0.0145668
954.700	0.0144356
954.778	0.0144245
954.856	0.0146274
954.934	0.0145485
955.012	0.0146767
955.090	0.0144785
955.168	0.0145570
955.246	0.0145573
955.325	0.0146371
955.403	0.0146927
955.481	0.0146744
955.559	0.0146261
955.637	0.0146655
955.715	0.0146227
955.793	0.0146536
955.871	0.0145443
955.950	0.0146971
956.028	0.0146593
956.106	0.0146230
956.184	0.0145496
956.262	0.0145779
956.340	0.0147153
956.418	0.0145649
956.496	0.0146418
956.575	0.0145204
956.653	0.0146129
956.731	0.0146862
956.809	0.0145183
956.887	0.0146809
956.965	0.0146149
957.043	0.0145236
957.121	0.0144643
957.200	0.0144791
957.278	0.0145879
957.356	0.0144180
957.434	0.0145093
957.512	0.0145274
957.590	0.0145971
957.668	0.0146713
957.746	0.0144901
957.825	0.0145143
957.903	0.0146500
957.981	0.0144531
958.059	0.0146702
958.137	0.0146746
958.215	0.0145563
958.293	0.0146469
958.371	0.0146892
958.450	0.0146815
958.528	0.0144597
958.606	0.0146693
958.684	0.0147155
958.762	0.0145461
958.840	0.0145133
958.918	0.0145311
958.996	0.0146098
959.075	0.0146136
959.153	0.0145584
959.231	0.0146375
959.309	0.0146306
959.387	0.0146870
959.465	0.0145409
959.543	0.0144162
959.621	0.0146306
959.700	0.0145496
959.778	0.0146609
959.856	0.0146642
959.934	0.0146835
960.012	0.0145783
960.090	0.0146196
960.168	0.0146645
960.246	0.0145155
960.325	0.0145137
960.403	0.0146977
960.481	0.0145403
960.559	0.0145593
960.637	0.0146076
960.715	0.0146651
960.793	0.0146571
960.871	0.0145440
960.950	0.0145564
961.028	0.0145132
961.106	0.0146184
961.184	0.0145064
961.262	0.0145402
961.340	0.0147534
961.418	0.0145943
961.496	0.0145511
961.575	0.0146576
961.653	0.0145569
961.731	0.0146293
961.809	0.0145544
961.887	0.0144641
961.965	0.0146677
962.043	0.0145692
962.121	0.0145355
962.200	0.0146130
962.278	0.0146865
962.356	0.0146175
962.434	0.0144608
962.512	0.0146143
962.590	0.0146080
962.668	0.0144696
962.746	0.0145580
962.825	0.0145839
962.903	0.0146490
962.981	0.0144757
963.059	0.0143787
963.137	0.0146079
963.215	0.0146179
963.293	0.0146639
963.371	0.0145949
963.450	0.0144228
963.528	0.0146249
963.606	0.0145998
963.684	0.0145988
963.762	0.0146236
963.840	0.0146314
963.918	0.0144711
963.996	0.0144566
964.075	0.0145124
964.153	0.0144392
964.231	0.0146873
964.309	0.0145894
964.387	0.0146555
964.465	0.0145754
964.543	0.0146097
964.621	0.0146320
964.700	0.0145615
964.778	0.0145127
964.856	0.0145317
964.934	0.0146309
965.012	0.0146097
965.090	0.0146479
965.168	0.0145617
965.246	0.0145704
965.325	0.0145584
965.403	0.0145016
965.481	0.0146383
965.559	0.0145314
965.637	0.0146084
965.715	0.0145085
965.793	0.0145764
965.871	0.0146006
965.950	0.0145524
966.028	0.0145361
966.106	0.0146474
966.184	0.0145082
966.262	0.0145985
966.340	0.0145539
966.418	0.0145445
966.496	0.0145402
966.575	0.0145644
966.653	0.0146408
966.731	0.0145467
966.809	0.0144342
966.887	0.0144216
966.965	0.0146085
967.043	0.0145281
967.121	0.0146303
967.200	0.0145886
967.278	0.0145607
967.356	0.0145818
967.434	0.0145462
967.512	0.0145744
967.590	0.0145185
967.668	0.0145768
967.746	0.0147238
967.825	0.0146236
967.903	0.0146141
967.981	0.0144884
968.059	0.0146213
968.137	0.0146973
968.215	0.0144662
968.293	0.0146896
968.371	0.0145557
968.450	0.0144125
968.528	0.0146133
968.606	0.0146521
968.684	0.0146444
968.762	0.0146754
968.840	0.0146931
968.918	0.0147701
968.996	0.0146125
969.075	0.0146645
969.153	0.0146739
969.231	0.0148001
969.309	0.0145776
969.387	0.0145503
969.465	0.0146119
969.543	0.0145662
969.621	0.0146519
969.700	0.0146768
969.778	0.0147881
969.856	0.0144962
969.934	0.0144942
970.012	0.0145184
970.090	0.0145565
970.168	0.0145764
970.246	0.0145384
970.325	0.0145930
970.403	0.0147337
970.481	0.0145084
970.559	0.0145219
970.637	0.0145137
970.715	0.0145761
970.793	0.0145842
970.871	0.0146992
970.950	0.0144992
971.028	0.0144984
971.106	0.0147095
971.184	0.0146032
971.262	0.0146568
971.340	0.0146947
971.418	0.0146107
971.496	0.0145843
971.575	0.0146560
971.653	0.0147020
971.731	0.0146180
971.809	0.0146373
971.887	0.0146562
971.965	0.0144795
972.043	0.0145622
972.121	0.0145808
972.200	0.0145431
972.278	0.0144918
972.356	0.0146041
972.434	0.0145161
972.512	0.0144526
972.590	0.0145018
972.668	0.0144670
972.746	0.0144752
972.825	0.0144930
972.903	0.0144691
972.981	0.0144888
973.059	0.0145852
973.137	0.0145265
973.215	0.0144724
973.293	0.0144871
973.371	0.0144596
973.450	0.0145542
973.528	0.0147357
973.606	0.0147658
973.684	0.0146828
973.762	0.0146996
973.840	0.0145743
973.918	0.0145385
973.996	0.0147304
974.075	0.0146352
974.153	0.0146124
974.231	0.0146133
974.309	0.0146336
974.387	0.0146316
974.465	0.0144709
974.543	0.0144691
974.621	0.0145091
974.700	0.0146231
974.778	0.0144766
974.856	0.0145026
974.934	0.0145691
975.012	0.0145094
975.090	0.0145084
975.168	0.0144833
975.246	0.0144765
975.325	0.0145232
975.403	0.0145012
975.481	0.0144947
975.559	0.0144636
975.637	0.0145273
975.715	0.0144679
975.793	0.0143748
975.871	0.0144595
975.950	0.0145898
976.028	0.0145145
976.106	0.0145633
976.184	0.0146169
976.262	0.0146726
976.340	0.0146127
976.418	0.0146938
976.496	0.0146457
976.575	0.0147948
976.653	0.0147302
976.731	0.0147636
976.809	0.0146023
976.887	0.0146591
976.965	0.0146865
977.043	0.0146353
977.121	0.0147090
977.200	0.0145029
977.278	0.0147791
977.356	0.0146193
977.434	0.0145463
977.512	0.0146560
977.590	0.0145872
977.668	0.0145625
977.746	0.0144858
977.825	0.0145507
977.903	0.0145487
977.981	0.0145409
978.059	0.0145455
978.137	0.0143884
978.215	0.0144579
978.293	0.0145145
978.371	0.0145564
978.450	0.0146355
978.528	0.0144292
978.606	0.0145345
978.684	0.0145583
978.762	0.0146102
978.840	0.0145132
978.918	0.0146433
978.996	0.0147184
979.075	0.0146807
979.153	0.0146310
979.231	0.0147048
979.309	0.0146654
979.387	0.0147002
979.465	0.0147356
979.543	0.0147594
979.621	0.0146693
979.700	0.0147280
979.778	0.0147598
979.856	0.0147275
979.934	0.0146858
980.012	0.0147872
980.090	0.0146450
980.168	0.0146239
980.246	0.0145728
980.325	0.0145698
980.403	0.0146571
980.481	0.0146937
980.559	0.0145934
980.637	0.0145873
980.715	0.0146938
980.793	0.0146422
980.871	0.0145414
980.950	0.0145039
981.028	0.0146497
981.106	0.0146217
981.184	0.0144685
981.262	0.0145438
981.340	0.0146706
981.418	0.0146626
981.496	0.0145320
981.575	0.0145177
981.653	0.0145238
981.731	0.0145592
981.809	0.0144342
981.887	0.0146288
981.965	0.0145833
982.043	0.0146960
982.121	0.0146947
982.200	0.0145794
982.278	0.0144936
982.356	0.0145987
982.434	0.0145413
982.512	0.0145183
982.590	0.0144106
982.668	0.0145374
982.746	0.0145242
982.825	0.0145435
982.903	0.0145411
982.981	0.0145728
983.059	0.0146455
983.137	0.0145210
983.215	0.0145594
983.293	0.0146551
983.371	0.0146496
983.450	0.0146508
983.528	0.0145692
983.606	0.0146181
983.684	0.0146641
983.762	0.0146584
983.840	0.0145121
983.918	0.0145580
983.996	0.0146623
984.075	0.0146576
984.153	0.0144960
984.231	0.0144981
984.309	0.0145770
984.387	0.0145702
984.465	0.0144521
984.543	0.0145939
984.621	0.0146188
984.700	0.0146919
984.778	0.0146188
984.856	0.0145380
984.934	0.0146104
985.012	0.0145319
985.090	0.0146014
985.168	0.0144566
985.246	0.0146072
985.325	0.0146115
985.403	0.0147547
985.481	0.0146666
985.559	0.0145432
985.637	0.0147085
985.715	0.0145208
985.793	0.0146110
985.871	0.0146807
985.950	0.0145534
986.028	0.0146281
986.106	0.0145877
986.184	0.0147050
986.262	0.0145713
986.340	0.0145980
986.418	0.0146164
986.496	0.0147061
986.575	0.0145850
986.653	0.0145798
986.731	0.0146265
986.809	0.0146581
986.887	0.0146522
986.965	0.0145837
987.043	0.0144987
987.121	0.0145293
987.200	0.0145152
987.278	0.0145348
987.356	0.0144828
987.434	0.0145840
987.512	0.0146175
987.590	0.0146446
987.668	0.0145665
987.746	0.0144264
987.825	0.0146461
987.903	0.0145986
987.981	0.0145579
988.059	0.0146778
988.137	0.0146690
988.215	0.0146543
988.293	0.0146626
988.371	0.0145886
988.450	0.0145860
988.528	0.0147182
988.606	0.0147269
988.684	0.0146291
988.762	0.0146092
988.840	0.0145538
988.918	0.0146307
988.996	0.0148004
989.075	0.0146710
989.153	0.0145113
989.231	0.0145082
989.309	0.0145174
989.387	0.0144069
989.465	0.0146072
989.543	0.0144743
989.621	0.0144530
989.700	0.0145855
989.778	0.0145747
989.856	0.0145839
989.934	0.0146658
990.012	0.0145469
990.090	0.0145041
990.168	0.0146580
990.246	0.0147198
990.325	0.0144566
990.403	0.0145847
990.481	0.0145175
990.559	0.0146177
990.637	0.0146998
990.715	0.0147047
990.793	0.0146401
990.871	0.0146883
990.950	0.0146236
991.028	0.0146301
991.106	0.0147239
991.184	0.0146461
991.262	0.0146055
991.340	0.0144777
991.418	0.0145945
991.496	0.0146765
991.575	0.0146670
991.653	0.0145045
991.731	0.0145431
991.809	0.0145846
991.887	0.0146254
991.965	0.0145807
992.043	0.0145066
992.121	0.0145404
992.200	0.0145851
992.278	0.0144685
992.356	0.0146015
992.434	0.0145374
992.512	0.0145576
992.590	0.0145213
992.668	0.0146351
992.746	0.0147561
992.825	0.0146928
992.903	0.0146188
992.981	0.0146285
993.059	0.0145793
993.137	0.0146255
993.215	0.0147017
993.293	0.0146889
993.371	0.0146241
993.450	0.0144278
993.528	0.0144272
993.606	0.0145876
993.684	0.0145846
993.762	0.0145461
993.840	0.0145963
993.918	0.0145645
993.996	0.0146041
994.075	0.0145477
994.153	0.0144434
994.231	0.0146046
994.309	0.0147265
994.387	0.0146920
994.465	0.0145253
994.543	0.0146698
994.621	0.0146549
994.700	0.0145749
994.778	0.0145693
994.856	0.0146120
994.934	0.0145686
995.012	0.0146369
995.090	0.0145006
995.168	0.0146258
995.246	0.0144259
995.325	0.0144673
995.403	0.0145705
995.481	0.0146037
995.559	0.0146104
995.637	0.0146210
995.715	0.0145842
995.793	0.0145695
995.871	0.0146516
995.950	0.0145964
996.028	0.0145461
996.106	0.0144356
996.184	0.0146668
996.262	0.0146056
996.340	0.0146879
996.418	0.0144855
996.496	0.0144844
996.575	0.0144945
996.653	0.0145139
996.731	0.0143512
996.809	0.0144599
996.887	0.0145810
996.965	0.0145966
997.043	0.0144274
997.121	0.0145635
997.200	0.0146138
997.278	0.0146189
997.356	0.0145312
997.434	0.0146387
997.512	0.0145686
997.590	0.0145399
997.668	0.0146133
997.746	0.0146616
997.825	0.0145510
997.903	0.0146201
997.981	0.0145805
998.059	0.0146102
998.137	0.0147802
998.215	0.0147529
998.293	0.0147726
998.371	0.0146150
998.450	0.0146117
998.528	0.0146140
998.606	0.0145300
998.684	0.0145159
998.762	0.0146567
998.840	0.0146541
998.918	0.0146603
