05/28/2022	14:30:57	Ver.	4.1	UNKNOWN
Optical Delay	599.988409	Delta X		0.078125	Sweeps	1	Scan Rate	0/0
Coordinates	Axis 1	NaN	Axis 2	NaN	Axis 3	NaN	Axis 4	NaN	Axis 5	NaN	Axis 6	0.000000
TX Power	0.000000	RX Power	0.000000

599.988	0.0142613
600.067	0.0142624
600.145	0.0142684
600.223	0.0142429
600.301	0.0142913
600.379	0.0142091
600.457	0.0142915
600.535	0.0141451
600.613	0.0142072
600.692	0.0142156
600.770	0.0141506
600.848	0.0141733
600.926	0.0141888
601.004	0.0142841
601.082	0.0141879
601.160	0.0142744
601.238	0.0143344
601.317	0.0142389
601.395	0.0144003
601.473	0.0142294
601.551	0.0141383
601.629	0.0141026
601.707	0.0141867
601.785	0.0142004
601.863	0.0141719
601.942	0.0142215
602.020	0.0142393
602.098	0.0140550
602.176	0.0140453
602.254	0.0141840
602.332	0.0142142
602.410	0.0142171
602.488	0.0141248
602.567	0.0142422
602.645	0.0141679
602.723	0.0141677
602.801	0.0142583
602.879	0.0141338
602.957	0.0140388
603.035	0.0141429
603.113	0.0141560
603.192	0.0141539
603.270	0.0141354
603.348	0.0141208
603.426	0.0141977
603.504	0.0141458
603.582	0.0140279
603.660	0.0141115
603.738	0.0141139
603.817	0.0142137
603.895	0.0140572
603.973	0.0142829
604.051	0.0142436
604.129	0.0141463
604.207	0.0141256
604.285	0.0140771
604.363	0.0140237
604.442	0.0140834
604.520	0.0141302
604.598	0.0142120
604.676	0.0140951
604.754	0.0142017
604.832	0.0142848
604.910	0.0141595
604.988	0.0142251
605.067	0.0141264
605.145	0.0142817
605.223	0.0140910
605.301	0.0142936
605.379	0.0141934
605.457	0.0143112
605.535	0.0143218
605.613	0.0141603
605.692	0.0142740
605.770	0.0143747
605.848	0.0143011
605.926	0.0142156
606.004	0.0142016
606.082	0.0143842
606.160	0.0143089
606.238	0.0142533
606.317	0.0141462
606.395	0.0142822
606.473	0.0141838
606.551	0.0142451
606.629	0.0142720
606.707	0.0141917
606.785	0.0143555
606.863	0.0142760
606.942	0.0144058
607.020	0.0144810
607.098	0.0142146
607.176	0.0142681
607.254	0.0143645
607.332	0.0143786
607.410	0.0142493
607.488	0.0143203
607.567	0.0143163
607.645	0.0143326
607.723	0.0143470
607.801	0.0143808
607.879	0.0141492
607.957	0.0143172
608.035	0.0144153
608.113	0.0142392
608.192	0.0144371
608.270	0.0143748
608.348	0.0143047
608.426	0.0143977
608.504	0.0142513
608.582	0.0144199
608.660	0.0143240
608.738	0.0143069
608.817	0.0144685
608.895	0.0143591
608.973	0.0144196
609.051	0.0143516
609.129	0.0144674
609.207	0.0144748
609.285	0.0142836
609.363	0.0144433
609.442	0.0143735
609.520	0.0143780
609.598	0.0144029
609.676	0.0144487
609.754	0.0144064
609.832	0.0143942
609.910	0.0144238
609.988	0.0144169
610.067	0.0144226
610.145	0.0145480
610.223	0.0142423
610.301	0.0143438
610.379	0.0143539
610.457	0.0143298
610.535	0.0144681
610.613	0.0144501
610.692	0.0144290
610.770	0.0143799
610.848	0.0142706
610.926	0.0144805
611.004	0.0144814
611.082	0.0144176
611.160	0.0143849
611.238	0.0143881
611.317	0.0143066
611.395	0.0142969
611.473	0.0143484
611.551	0.0144708
611.629	0.0144494
611.707	0.0144582
611.785	0.0144047
611.863	0.0146044
611.942	0.0144589
612.020	0.0143510
612.098	0.0144863
612.176	0.0144498
612.254	0.0145112
612.332	0.0144533
612.410	0.0144753
612.488	0.0143748
612.567	0.0143804
612.645	0.0144122
612.723	0.0144375
612.801	0.0145102
612.879	0.0145318
612.957	0.0144307
613.035	0.0145004
613.113	0.0145873
613.192	0.0144473
613.270	0.0144130
613.348	0.0144554
613.426	0.0144907
613.504	0.0144353
613.582	0.0145107
613.660	0.0144432
613.738	0.0144215
613.817	0.0142981
613.895	0.0145564
613.973	0.0144228
614.051	0.0142903
614.129	0.0144291
614.207	0.0144429
614.285	0.0145396
614.363	0.0143024
614.442	0.0143513
614.520	0.0143787
614.598	0.0144168
614.676	0.0143675
614.754	0.0144206
614.832	0.0143151
614.910	0.0143785
614.988	0.0143418
615.067	0.0142966
615.145	0.0143246
615.223	0.0144032
615.301	0.0143326
615.379	0.0143761
615.457	0.0144273
615.535	0.0143598
615.613	0.0144376
615.692	0.0143932
615.770	0.0142839
615.848	0.0143286
615.926	0.0143149
616.004	0.0143948
616.082	0.0143058
616.160	0.0142828
616.238	0.0142498
616.317	0.0143522
616.395	0.0142537
616.473	0.0143824
616.551	0.0143218
616.629	0.0142670
616.707	0.0142606
616.785	0.0142961
616.863	0.0143232
616.942	0.0143721
617.020	0.0143546
617.098	0.0141077
617.176	0.0143040
617.254	0.0144980
617.332	0.0142254
617.410	0.0142374
617.488	0.0144664
617.567	0.0142653
617.645	0.0142596
617.723	0.0143340
617.801	0.0142956
617.879	0.0142980
617.957	0.0142310
618.035	0.0142711
618.113	0.0142649
618.192	0.0142999
618.270	0.0144668
618.348	0.0144252
618.426	0.0143058
618.504	0.0143744
618.582	0.0142704
618.660	0.0143391
618.738	0.0143352
618.817	0.0142711
618.895	0.0142923
618.973	0.0144007
619.051	0.0143034
619.129	0.0143948
619.207	0.0143142
619.285	0.0143668
619.363	0.0143983
619.442	0.0143454
619.520	0.0143130
619.598	0.0143092
619.676	0.0142999
619.754	0.0144716
619.832	0.0144498
619.910	0.0143525
619.988	0.0142476
620.067	0.0143291
620.145	0.0143319
620.223	0.0143141
620.301	0.0142683
620.379	0.0143128
620.457	0.0143037
620.535	0.0143955
620.613	0.0143083
620.692	0.0143932
620.770	0.0143751
620.848	0.0143513
620.926	0.0144169
621.004	0.0143452
621.082	0.0145023
621.160	0.0143517
621.238	0.0143298
621.317	0.0143868
621.395	0.0145556
621.473	0.0143440
621.551	0.0143472
621.629	0.0144363
621.707	0.0143382
621.785	0.0142568
621.863	0.0144212
621.942	0.0144115
622.020	0.0143053
622.098	0.0143446
622.176	0.0143109
622.254	0.0143543
622.332	0.0143737
622.410	0.0142229
622.488	0.0143001
622.567	0.0142766
622.645	0.0142970
622.723	0.0142576
622.801	0.0142592
622.879	0.0143362
622.957	0.0143194
623.035	0.0142909
623.113	0.0142524
623.192	0.0144087
623.270	0.0142253
623.348	0.0141209
623.426	0.0143685
623.504	0.0142692
623.582	0.0144333
623.660	0.0142738
623.738	0.0142680
623.817	0.0143015
623.895	0.0143243
623.973	0.0144240
624.051	0.0143043
624.129	0.0142767
624.207	0.0143126
624.285	0.0142680
624.363	0.0142016
624.442	0.0142592
624.520	0.0144353
624.598	0.0144637
624.676	0.0143276
624.754	0.0140634
624.832	0.0143117
624.910	0.0141632
624.988	0.0142874
625.067	0.0142970
625.145	0.0141649
625.223	0.0141373
625.301	0.0141445
625.379	0.0141853
625.457	0.0141513
625.535	0.0140680
625.613	0.0141254
625.692	0.0142255
625.770	0.0142454
625.848	0.0141577
625.926	0.0141788
626.004	0.0141471
626.082	0.0142055
626.160	0.0141091
626.238	0.0141389
626.317	0.0140646
626.395	0.0141585
626.473	0.0142062
626.551	0.0141529
626.629	0.0141460
626.707	0.0142436
626.785	0.0143070
626.863	0.0142637
626.942	0.0141767
627.020	0.0140850
627.098	0.0143031
627.176	0.0142338
627.254	0.0141199
627.332	0.0142410
627.410	0.0142313
627.488	0.0141608
627.567	0.0143590
627.645	0.0144321
627.723	0.0142661
627.801	0.0141566
627.879	0.0143552
627.957	0.0141320
628.035	0.0140965
628.113	0.0143054
628.192	0.0141798
628.270	0.0139773
628.348	0.0140424
628.426	0.0141820
628.504	0.0141503
628.582	0.0142108
628.660	0.0140695
628.738	0.0140774
628.817	0.0141839
628.895	0.0141240
628.973	0.0140021
629.051	0.0140447
629.129	0.0140782
629.207	0.0141136
629.285	0.0140491
629.363	0.0141879
629.442	0.0142231
629.520	0.0141804
629.598	0.0140934
629.676	0.0142783
629.754	0.0141785
629.832	0.0143179
629.910	0.0142009
629.988	0.0143294
630.067	0.0143980
630.145	0.0143442
630.223	0.0142444
630.301	0.0142027
630.379	0.0141558
630.457	0.0142885
630.535	0.0142760
630.613	0.0143321
630.692	0.0142877
630.770	0.0142040
630.848	0.0142142
630.926	0.0142912
631.004	0.0142131
631.082	0.0141073
631.160	0.0142213
631.238	0.0141687
631.317	0.0142883
631.395	0.0143648
631.473	0.0143019
631.551	0.0144070
631.629	0.0143314
631.707	0.0143475
631.785	0.0145300
631.863	0.0145161
631.942	0.0144096
632.020	0.0144917
632.098	0.0144659
632.176	0.0144844
632.254	0.0145499
632.332	0.0145373
632.410	0.0143616
632.488	0.0145238
632.567	0.0147273
632.645	0.0144863
632.723	0.0145504
632.801	0.0145402
632.879	0.0145196
632.957	0.0145360
633.035	0.0145713
633.113	0.0143887
633.192	0.0144380
633.270	0.0143010
633.348	0.0141843
633.426	0.0141970
633.504	0.0141122
633.582	0.0142226
633.660	0.0140780
633.738	0.0140125
633.817	0.0138969
633.895	0.0138354
633.973	0.0137997
634.051	0.0139574
634.129	0.0138403
634.207	0.0139059
634.285	0.0139154
634.363	0.0140134
634.442	0.0140899
634.520	0.0141545
634.598	0.0142506
634.676	0.0142142
634.754	0.0143022
634.832	0.0144418
634.910	0.0144923
634.988	0.0144199
635.067	0.0144627
635.145	0.0144246
635.223	0.0145168
635.301	0.0146268
635.379	0.0145145
635.457	0.0145605
635.535	0.0145211
635.613	0.0144942
635.692	0.0146272
635.770	0.0145356
635.848	0.0144290
635.926	0.0144855
636.004	0.0144875
636.082	0.0146354
636.160	0.0146134
636.238	0.0146128
636.317	0.0144706
636.395	0.0144113
636.473	0.0143737
636.551	0.0143812
636.629	0.0143736
636.707	0.0145232
636.785	0.0145235
636.863	0.0144653
636.942	0.0145738
637.020	0.0145013
637.098	0.0145435
637.176	0.0145524
637.254	0.0143990
637.332	0.0144955
637.410	0.0144465
637.488	0.0143440
637.567	0.0143328
637.645	0.0143803
637.723	0.0143225
637.801	0.0142630
637.879	0.0141507
637.957	0.0142580
638.035	0.0141682
638.113	0.0141109
638.192	0.0139590
638.270	0.0138672
638.348	0.0139784
638.426	0.0139845
638.504	0.0140050
638.582	0.0139184
638.660	0.0141127
638.738	0.0140089
638.817	0.0141047
638.895	0.0141306
638.973	0.0140717
639.051	0.0139994
639.129	0.0140690
639.207	0.0141246
639.285	0.0140918
639.363	0.0140963
639.442	0.0141617
639.520	0.0141322
639.598	0.0140498
639.676	0.0142118
639.754	0.0142472
639.832	0.0143192
639.910	0.0143887
639.988	0.0144072
640.067	0.0143170
640.145	0.0144543
640.223	0.0145712
640.301	0.0144978
640.379	0.0145357
640.457	0.0146606
640.535	0.0147195
640.613	0.0146466
640.692	0.0146136
640.770	0.0146735
640.848	0.0145042
640.926	0.0145322
641.004	0.0146497
641.082	0.0146532
641.160	0.0146756
641.238	0.0145528
641.317	0.0144796
641.395	0.0143698
641.473	0.0144077
641.551	0.0143957
641.629	0.0143738
641.707	0.0143013
641.785	0.0144028
641.863	0.0142609
641.942	0.0144146
642.020	0.0144797
642.098	0.0143275
642.176	0.0144868
642.254	0.0143568
642.332	0.0142641
642.410	0.0144551
642.488	0.0145097
642.567	0.0143439
642.645	0.0143529
642.723	0.0143276
642.801	0.0143257
642.879	0.0142419
642.957	0.0142725
643.035	0.0142702
643.113	0.0143390
643.192	0.0142214
643.270	0.0142744
643.348	0.0141364
643.426	0.0141577
643.504	0.0140845
643.582	0.0141599
643.660	0.0141805
643.738	0.0142144
643.817	0.0142594
643.895	0.0145105
643.973	0.0143521
644.051	0.0143010
644.129	0.0143545
644.207	0.0143634
644.285	0.0143794
644.363	0.0142567
644.442	0.0143029
644.520	0.0143237
644.598	0.0142941
644.676	0.0143536
644.754	0.0142280
644.832	0.0143555
644.910	0.0143159
644.988	0.0143301
645.067	0.0143823
645.145	0.0143624
645.223	0.0141830
645.301	0.0144899
645.379	0.0145026
645.457	0.0144685
645.535	0.0145177
645.613	0.0144854
645.692	0.0145020
645.770	0.0145474
645.848	0.0145882
645.926	0.0143999
646.004	0.0146437
646.082	0.0145648
646.160	0.0144186
646.238	0.0144395
646.317	0.0146439
646.395	0.0145478
646.473	0.0144826
646.551	0.0145010
646.629	0.0143661
646.707	0.0143793
646.785	0.0143750
646.863	0.0143492
646.942	0.0143258
647.020	0.0142855
647.098	0.0141883
647.176	0.0141506
647.254	0.0142534
647.332	0.0142339
647.410	0.0141694
647.488	0.0140345
647.567	0.0140835
647.645	0.0141641
647.723	0.0141547
647.801	0.0141303
647.879	0.0141495
647.957	0.0141560
648.035	0.0142586
648.113	0.0142780
648.192	0.0143504
648.270	0.0142508
648.348	0.0144112
648.426	0.0143837
648.504	0.0144870
648.582	0.0145140
648.660	0.0145704
648.738	0.0143569
648.817	0.0143193
648.895	0.0143410
648.973	0.0143040
649.051	0.0142317
649.129	0.0143658
649.207	0.0143813
649.285	0.0143679
649.363	0.0143594
649.442	0.0142431
649.520	0.0144518
649.598	0.0144125
649.676	0.0145225
649.754	0.0144482
649.832	0.0144058
649.910	0.0145416
649.988	0.0143964
650.067	0.0142935
650.145	0.0143934
650.223	0.0144431
650.301	0.0144251
650.379	0.0144831
650.457	0.0144091
650.535	0.0143355
650.613	0.0142272
650.692	0.0142702
650.770	0.0142786
650.848	0.0142525
650.926	0.0141531
651.004	0.0142662
651.082	0.0140939
651.160	0.0140137
651.238	0.0140411
651.317	0.0141116
651.395	0.0142139
651.473	0.0140857
651.551	0.0142109
651.629	0.0141707
651.707	0.0141232
651.785	0.0141979
651.863	0.0141745
651.942	0.0141338
652.020	0.0140257
652.098	0.0143552
652.176	0.0142564
652.254	0.0142961
652.332	0.0142652
652.410	0.0142289
652.488	0.0143414
652.567	0.0143430
652.645	0.0144096
652.723	0.0144982
652.801	0.0144627
652.879	0.0144881
652.957	0.0144368
653.035	0.0145328
653.113	0.0145457
653.192	0.0143766
653.270	0.0143199
653.348	0.0144991
653.426	0.0144485
653.504	0.0143777
653.582	0.0144402
653.660	0.0144229
653.738	0.0143425
653.817	0.0144714
653.895	0.0144846
653.973	0.0142648
654.051	0.0143826
654.129	0.0145597
654.207	0.0143744
654.285	0.0145398
654.363	0.0144366
654.442	0.0144034
654.520	0.0144453
654.598	0.0144592
654.676	0.0143044
654.754	0.0142755
654.832	0.0144475
654.910	0.0143173
654.988	0.0142818
655.067	0.0141668
655.145	0.0140414
655.223	0.0142362
655.301	0.0142005
655.379	0.0141418
655.457	0.0138850
655.535	0.0141178
655.613	0.0140398
655.692	0.0140323
655.770	0.0142740
655.848	0.0141196
655.926	0.0140046
656.004	0.0140543
656.082	0.0142712
656.160	0.0140226
656.238	0.0142029
656.317	0.0141852
656.395	0.0140777
656.473	0.0140987
656.551	0.0142159
656.629	0.0141718
656.707	0.0141391
656.785	0.0141315
656.863	0.0143304
656.942	0.0141190
657.020	0.0142015
657.098	0.0142258
657.176	0.0142165
657.254	0.0143873
657.332	0.0144783
657.410	0.0144150
657.488	0.0144376
657.567	0.0144234
657.645	0.0145776
657.723	0.0144557
657.801	0.0145574
657.879	0.0146286
657.957	0.0147282
658.035	0.0147990
658.113	0.0145705
658.192	0.0147392
658.270	0.0147090
658.348	0.0147424
658.426	0.0147071
658.504	0.0148035
658.582	0.0146879
658.660	0.0148186
658.738	0.0148229
658.817	0.0148859
658.895	0.0146531
658.973	0.0147105
659.051	0.0146568
659.129	0.0148515
659.207	0.0145878
659.285	0.0145491
659.363	0.0147395
659.442	0.0146032
659.520	0.0144022
659.598	0.0143905
659.676	0.0143744
659.754	0.0143916
659.832	0.0144376
659.910	0.0142677
659.988	0.0143900
660.067	0.0143802
660.145	0.0142460
660.223	0.0142506
660.301	0.0142002
660.379	0.0142070
660.457	0.0141372
660.535	0.0140267
660.613	0.0141745
660.692	0.0140536
660.770	0.0139445
660.848	0.0141102
660.926	0.0139988
661.004	0.0137527
661.082	0.0138908
661.160	0.0139408
661.238	0.0139421
661.317	0.0138977
661.395	0.0137274
661.473	0.0138630
661.551	0.0137619
661.629	0.0137650
661.707	0.0137305
661.785	0.0137740
661.863	0.0137851
661.942	0.0138268
662.020	0.0138022
662.098	0.0138429
662.176	0.0139608
662.254	0.0138615
662.332	0.0139297
662.410	0.0142139
662.488	0.0141396
662.567	0.0140873
662.645	0.0143277
662.723	0.0145399
662.801	0.0143736
662.879	0.0144550
662.957	0.0145660
663.035	0.0145940
663.113	0.0147567
663.192	0.0146114
663.270	0.0145056
663.348	0.0147581
663.426	0.0147582
663.504	0.0145863
663.582	0.0145663
663.660	0.0146341
663.738	0.0146674
663.817	0.0145042
663.895	0.0146436
663.973	0.0145913
664.051	0.0144486
664.129	0.0144867
664.207	0.0145915
664.285	0.0144739
664.363	0.0144197
664.442	0.0144032
664.520	0.0143437
664.598	0.0143360
664.676	0.0142747
664.754	0.0141621
664.832	0.0141055
664.910	0.0141687
664.988	0.0140903
665.067	0.0139718
665.145	0.0140245
665.223	0.0139181
665.301	0.0137376
665.379	0.0139130
665.457	0.0139192
665.535	0.0138214
665.613	0.0138247
665.692	0.0138310
665.770	0.0138168
665.848	0.0140237
665.926	0.0139010
666.004	0.0140499
666.082	0.0140631
666.160	0.0142307
666.238	0.0143229
666.317	0.0142222
666.395	0.0144641
666.473	0.0143925
666.551	0.0143040
666.629	0.0146211
666.707	0.0146371
666.785	0.0147157
666.863	0.0147425
666.942	0.0148666
667.020	0.0147901
667.098	0.0147744
667.176	0.0149269
667.254	0.0149177
667.332	0.0149313
667.410	0.0149171
667.488	0.0148741
667.567	0.0148864
667.645	0.0147205
667.723	0.0149172
667.801	0.0148248
667.879	0.0145477
667.957	0.0145872
668.035	0.0145393
668.113	0.0143865
668.192	0.0142886
668.270	0.0143136
668.348	0.0141586
668.426	0.0139438
668.504	0.0140049
668.582	0.0139951
668.660	0.0139013
668.738	0.0138559
668.817	0.0139154
668.895	0.0140222
668.973	0.0139455
669.051	0.0141204
669.129	0.0140577
669.207	0.0139451
669.285	0.0142101
669.363	0.0142633
669.442	0.0143124
669.520	0.0142205
669.598	0.0142598
669.676	0.0143720
669.754	0.0144150
669.832	0.0145340
669.910	0.0146620
669.988	0.0146378
670.067	0.0147358
670.145	0.0147434
670.223	0.0148777
670.301	0.0148489
670.379	0.0148634
670.457	0.0146228
670.535	0.0145372
670.613	0.0146183
670.692	0.0145419
670.770	0.0144548
670.848	0.0145227
670.926	0.0142297
671.004	0.0140650
671.082	0.0140765
671.160	0.0140692
671.238	0.0140495
671.317	0.0139043
671.395	0.0138520
671.473	0.0139332
671.551	0.0138743
671.629	0.0137938
671.707	0.0138849
671.785	0.0140443
671.863	0.0140725
671.942	0.0141673
672.020	0.0140814
672.098	0.0143666
672.176	0.0142903
672.254	0.0143349
672.332	0.0144840
672.410	0.0144967
672.488	0.0146947
672.567	0.0147189
672.645	0.0147524
672.723	0.0147749
672.801	0.0148909
672.879	0.0147876
672.957	0.0149094
673.035	0.0147434
673.113	0.0146169
673.192	0.0146350
673.270	0.0144786
673.348	0.0143644
673.426	0.0144164
673.504	0.0143282
673.582	0.0141702
673.660	0.0140289
673.738	0.0139175
673.817	0.0138024
673.895	0.0139452
673.973	0.0138620
674.051	0.0138760
674.129	0.0137987
674.207	0.0137929
674.285	0.0138931
674.363	0.0138583
674.442	0.0137810
674.520	0.0139202
674.598	0.0140021
674.676	0.0140494
674.754	0.0142158
674.832	0.0143039
674.910	0.0143662
674.988	0.0144326
675.067	0.0144995
675.145	0.0145837
675.223	0.0147099
675.301	0.0148093
675.379	0.0148747
675.457	0.0149534
675.535	0.0149762
675.613	0.0149504
675.692	0.0148978
675.770	0.0149759
675.848	0.0149297
675.926	0.0147617
676.004	0.0149702
676.082	0.0148801
676.160	0.0146032
676.238	0.0146276
676.317	0.0146585
676.395	0.0145881
676.473	0.0145952
676.551	0.0145160
676.629	0.0144155
676.707	0.0142376
676.785	0.0142570
676.863	0.0143352
676.942	0.0143362
677.020	0.0142858
677.098	0.0143277
677.176	0.0141143
677.254	0.0142617
677.332	0.0141882
677.410	0.0140323
677.488	0.0140234
677.567	0.0140819
677.645	0.0141127
677.723	0.0139697
677.801	0.0140474
677.879	0.0140008
677.957	0.0140911
678.035	0.0140144
678.113	0.0140895
678.192	0.0141179
678.270	0.0139900
678.348	0.0142245
678.426	0.0140840
678.504	0.0140802
678.582	0.0140211
678.660	0.0140909
678.738	0.0141339
678.817	0.0139099
678.895	0.0140633
678.973	0.0140952
679.051	0.0140679
679.129	0.0141955
679.207	0.0141217
679.285	0.0142171
679.363	0.0142117
679.442	0.0142958
679.520	0.0141563
679.598	0.0143447
679.676	0.0142763
679.754	0.0144768
679.832	0.0144301
679.910	0.0144346
679.988	0.0144300
680.067	0.0145107
680.145	0.0146424
680.223	0.0146534
680.301	0.0146214
680.379	0.0146835
680.457	0.0147703
680.535	0.0147148
680.613	0.0148547
680.692	0.0148988
680.770	0.0148849
680.848	0.0149766
680.926	0.0149397
681.004	0.0148647
681.082	0.0146982
681.160	0.0146852
681.238	0.0146036
681.317	0.0147152
681.395	0.0146613
681.473	0.0144485
681.551	0.0143697
681.629	0.0142788
681.707	0.0141643
681.785	0.0143275
681.863	0.0139561
681.942	0.0139272
682.020	0.0139176
682.098	0.0138165
682.176	0.0136308
682.254	0.0136227
682.332	0.0136927
682.410	0.0134806
682.488	0.0135892
682.567	0.0135992
682.645	0.0134393
682.723	0.0136063
682.801	0.0135358
682.879	0.0135246
682.957	0.0136613
683.035	0.0136043
683.113	0.0136820
683.192	0.0139133
683.270	0.0137923
683.348	0.0138475
683.426	0.0139766
683.504	0.0141924
683.582	0.0143301
683.660	0.0142931
683.738	0.0143656
683.817	0.0145371
683.895	0.0145860
683.973	0.0146002
684.051	0.0148510
684.129	0.0149130
684.207	0.0149114
684.285	0.0150856
684.363	0.0149158
684.442	0.0150526
684.520	0.0148673
684.598	0.0149820
684.676	0.0148651
684.754	0.0149588
684.832	0.0148733
684.910	0.0147324
684.988	0.0147028
685.067	0.0146070
685.145	0.0146072
685.223	0.0144047
685.301	0.0143134
685.379	0.0142136
685.457	0.0141431
685.535	0.0141545
685.613	0.0140856
685.692	0.0141531
685.770	0.0140307
685.848	0.0139394
685.926	0.0139010
686.004	0.0140055
686.082	0.0139988
686.160	0.0139074
686.238	0.0140536
686.317	0.0140105
686.395	0.0140414
686.473	0.0140859
686.551	0.0140971
686.629	0.0139773
686.707	0.0140511
686.785	0.0140226
686.863	0.0139910
686.942	0.0139487
687.020	0.0141112
687.098	0.0141557
687.176	0.0141998
687.254	0.0141741
687.332	0.0141092
687.410	0.0143340
687.488	0.0143839
687.567	0.0144205
687.645	0.0146323
687.723	0.0144346
687.801	0.0145486
687.879	0.0146845
687.957	0.0148356
688.035	0.0146524
688.113	0.0148267
688.192	0.0150535
688.270	0.0149108
688.348	0.0150884
688.426	0.0149673
688.504	0.0151337
688.582	0.0151750
688.660	0.0151085
688.738	0.0151312
688.817	0.0151571
688.895	0.0150941
688.973	0.0151094
689.051	0.0151541
689.129	0.0150846
689.207	0.0150421
689.285	0.0149766
689.363	0.0148661
689.442	0.0148808
689.520	0.0149245
689.598	0.0147382
689.676	0.0148151
689.754	0.0147787
689.832	0.0147239
689.910	0.0145399
689.988	0.0146786
690.067	0.0144516
690.145	0.0144854
690.223	0.0144254
690.301	0.0142492
690.379	0.0142781
690.457	0.0140907
690.535	0.0141099
690.613	0.0140654
690.692	0.0138655
690.770	0.0139572
690.848	0.0138263
690.926	0.0139101
691.004	0.0137863
691.082	0.0137626
691.160	0.0137828
691.238	0.0135670
691.317	0.0136124
691.395	0.0138200
691.473	0.0135864
691.551	0.0135178
691.629	0.0135793
691.707	0.0136133
691.785	0.0135953
691.863	0.0135570
691.942	0.0137396
692.020	0.0138379
692.098	0.0138647
692.176	0.0139274
692.254	0.0140178
692.332	0.0141434
692.410	0.0141029
692.488	0.0142397
692.567	0.0144204
692.645	0.0144241
692.723	0.0144636
692.801	0.0145664
692.879	0.0146701
692.957	0.0148313
693.035	0.0148707
693.113	0.0149339
693.192	0.0149754
693.270	0.0150774
693.348	0.0149654
693.426	0.0149724
693.504	0.0150520
693.582	0.0150713
693.660	0.0150626
693.738	0.0149190
693.817	0.0149446
693.895	0.0146943
693.973	0.0148529
694.051	0.0147855
694.129	0.0145665
694.207	0.0146302
694.285	0.0143252
694.363	0.0143547
694.442	0.0142862
694.520	0.0141550
694.598	0.0139609
694.676	0.0140096
694.754	0.0140127
694.832	0.0139759
694.910	0.0139156
694.988	0.0138627
695.067	0.0137215
695.145	0.0137894
695.223	0.0136831
695.301	0.0137792
695.379	0.0136538
695.457	0.0136122
695.535	0.0136825
695.613	0.0136521
695.692	0.0135133
695.770	0.0135501
695.848	0.0135210
695.926	0.0134696
696.004	0.0134048
696.082	0.0134581
696.160	0.0135728
696.238	0.0134785
696.317	0.0137100
696.395	0.0136576
696.473	0.0136166
696.551	0.0136198
696.629	0.0136664
696.707	0.0139605
696.785	0.0139613
696.863	0.0139170
696.942	0.0139851
697.020	0.0142252
697.098	0.0142230
697.176	0.0143294
697.254	0.0145831
697.332	0.0146082
697.410	0.0145586
697.488	0.0147883
697.567	0.0147587
697.645	0.0149667
697.723	0.0150782
697.801	0.0151355
697.879	0.0153234
697.957	0.0151547
698.035	0.0152696
698.113	0.0152202
698.192	0.0153065
698.270	0.0152450
698.348	0.0153293
698.426	0.0151133
698.504	0.0151945
698.582	0.0149390
698.660	0.0149057
698.738	0.0149545
698.817	0.0147639
698.895	0.0147154
698.973	0.0146777
699.051	0.0145374
699.129	0.0145525
699.207	0.0145547
699.285	0.0143482
699.363	0.0142097
699.442	0.0142217
699.520	0.0140738
699.598	0.0140937
699.676	0.0139848
699.754	0.0138560
699.832	0.0138613
699.910	0.0138387
699.988	0.0137373
700.067	0.0137914
700.145	0.0137246
700.223	0.0137608
700.301	0.0137754
700.379	0.0137605
700.457	0.0137077
700.535	0.0136974
700.613	0.0137257
700.692	0.0139606
700.770	0.0139275
700.848	0.0138900
700.926	0.0139407
701.004	0.0140853
701.082	0.0141459
701.160	0.0140712
701.238	0.0140168
701.317	0.0140961
701.395	0.0141238
701.473	0.0141924
701.551	0.0142258
701.629	0.0143525
701.707	0.0143697
701.785	0.0143526
701.863	0.0144682
701.942	0.0146352
702.020	0.0145330
702.098	0.0146426
702.176	0.0147345
702.254	0.0148086
702.332	0.0147901
702.410	0.0147886
702.488	0.0148244
702.567	0.0149608
702.645	0.0149474
702.723	0.0149621
702.801	0.0147780
702.879	0.0148483
702.957	0.0149448
703.035	0.0148564
703.113	0.0148118
703.192	0.0147340
703.270	0.0148260
703.348	0.0149068
703.426	0.0146799
703.504	0.0145844
703.582	0.0145808
703.660	0.0145145
703.738	0.0145545
703.817	0.0145322
703.895	0.0144273
703.973	0.0143102
704.051	0.0142042
704.129	0.0143326
704.207	0.0142080
704.285	0.0142067
704.363	0.0140911
704.442	0.0140866
704.520	0.0141238
704.598	0.0141681
704.676	0.0141402
704.754	0.0139398
704.832	0.0140230
704.910	0.0140108
704.988	0.0139292
705.067	0.0140322
705.145	0.0138142
705.223	0.0139597
705.301	0.0138977
705.379	0.0138336
705.457	0.0138068
705.535	0.0137863
705.613	0.0138917
705.692	0.0137927
705.770	0.0137910
705.848	0.0138360
705.926	0.0138635
706.004	0.0137842
706.082	0.0136282
706.160	0.0139378
706.238	0.0139131
706.317	0.0138309
706.395	0.0140205
706.473	0.0138958
706.551	0.0141450
706.629	0.0142191
706.707	0.0142691
706.785	0.0142753
706.863	0.0144473
706.942	0.0145500
707.020	0.0145822
707.098	0.0146931
707.176	0.0147191
707.254	0.0148508
707.332	0.0146959
707.410	0.0147180
707.488	0.0148528
707.567	0.0148054
707.645	0.0147804
707.723	0.0147213
707.801	0.0144638
707.879	0.0144827
707.957	0.0146453
708.035	0.0144858
708.113	0.0145708
708.192	0.0145203
708.270	0.0145109
708.348	0.0145149
708.426	0.0145148
708.504	0.0143298
708.582	0.0143683
708.660	0.0143747
708.738	0.0144151
708.817	0.0144287
708.895	0.0142974
708.973	0.0143835
709.051	0.0144469
709.129	0.0144603
709.207	0.0145145
709.285	0.0144641
709.363	0.0144142
709.442	0.0143899
709.520	0.0144478
709.598	0.0144270
709.676	0.0144532
709.754	0.0142420
709.832	0.0144931
709.910	0.0143776
709.988	0.0142175
710.067	0.0143455
710.145	0.0143041
710.223	0.0142775
710.301	0.0141733
710.379	0.0142221
710.457	0.0142438
710.535	0.0141792
710.613	0.0141514
710.692	0.0140871
710.770	0.0142197
710.848	0.0140070
710.926	0.0140616
711.004	0.0140292
711.082	0.0140121
711.160	0.0141341
711.238	0.0140444
711.317	0.0140821
711.395	0.0140828
711.473	0.0140502
711.551	0.0140170
711.629	0.0142674
711.707	0.0143161
711.785	0.0142511
711.863	0.0142652
711.942	0.0142731
712.020	0.0144899
712.098	0.0145329
712.176	0.0144842
712.254	0.0144749
712.332	0.0145052
712.410	0.0144870
712.488	0.0144460
712.567	0.0144806
712.645	0.0145895
712.723	0.0146541
712.801	0.0145016
712.879	0.0145403
712.957	0.0146302
713.035	0.0146296
713.113	0.0146225
713.192	0.0144994
713.270	0.0144621
713.348	0.0146281
713.426	0.0144905
713.504	0.0145345
713.582	0.0145033
713.660	0.0145818
713.738	0.0145925
713.817	0.0145153
713.895	0.0144469
713.973	0.0146368
714.051	0.0145122
714.129	0.0144211
714.207	0.0146158
714.285	0.0145567
714.363	0.0146114
714.442	0.0147441
714.520	0.0145163
714.598	0.0145391
714.676	0.0147003
714.754	0.0146677
714.832	0.0146053
714.910	0.0145181
714.988	0.0144849
715.067	0.0144609
715.145	0.0143727
715.223	0.0145272
715.301	0.0144291
715.379	0.0142169
715.457	0.0143838
715.535	0.0141349
715.613	0.0142455
715.692	0.0143887
715.770	0.0142641
715.848	0.0142915
715.926	0.0142133
716.004	0.0143289
716.082	0.0143286
716.160	0.0142104
716.238	0.0144324
716.317	0.0144289
716.395	0.0143423
716.473	0.0143736
716.551	0.0145325
716.629	0.0146203
716.707	0.0145219
716.785	0.0144392
716.863	0.0144608
716.942	0.0145560
717.020	0.0145708
717.098	0.0144140
717.176	0.0144263
717.254	0.0142652
717.332	0.0143398
717.410	0.0144185
717.488	0.0142620
717.567	0.0142237
717.645	0.0142491
717.723	0.0139635
717.801	0.0140788
717.879	0.0141002
717.957	0.0139732
718.035	0.0138873
718.113	0.0140721
718.192	0.0140329
718.270	0.0140544
718.348	0.0140881
718.426	0.0141632
718.504	0.0142059
718.582	0.0140884
718.660	0.0141635
718.738	0.0141850
718.817	0.0142331
718.895	0.0143130
718.973	0.0143229
719.051	0.0143203
719.129	0.0143452
719.207	0.0144119
719.285	0.0144505
719.363	0.0145461
719.442	0.0145200
719.520	0.0143882
719.598	0.0144199
719.676	0.0143726
719.754	0.0145047
719.832	0.0145142
719.910	0.0144653
719.988	0.0143893
720.067	0.0144990
720.145	0.0143771
720.223	0.0144036
720.301	0.0143259
720.379	0.0144323
720.457	0.0143098
720.535	0.0142963
720.613	0.0143666
720.692	0.0142887
720.770	0.0143105
720.848	0.0142366
720.926	0.0142368
721.004	0.0143420
721.082	0.0142120
721.160	0.0142667
721.238	0.0143418
721.317	0.0142935
721.395	0.0144292
721.473	0.0143029
721.551	0.0143218
721.629	0.0143114
721.707	0.0143080
721.785	0.0143767
721.863	0.0143713
721.942	0.0143728
722.020	0.0142673
722.098	0.0143333
722.176	0.0141639
722.254	0.0141348
722.332	0.0140959
722.410	0.0140813
722.488	0.0141557
722.567	0.0140753
722.645	0.0140489
722.723	0.0140444
722.801	0.0139932
722.879	0.0140818
722.957	0.0141026
723.035	0.0141933
723.113	0.0141827
723.192	0.0141160
723.270	0.0142974
723.348	0.0142069
723.426	0.0142976
723.504	0.0141634
723.582	0.0144350
723.660	0.0143228
723.738	0.0143361
723.817	0.0143491
723.895	0.0145496
723.973	0.0145010
724.051	0.0143498
724.129	0.0144685
724.207	0.0144377
724.285	0.0145165
724.363	0.0145909
724.442	0.0145164
724.520	0.0144406
724.598	0.0144968
724.676	0.0146701
724.754	0.0144465
724.832	0.0142846
724.910	0.0144850
724.988	0.0144250
725.067	0.0143262
725.145	0.0143585
725.223	0.0143162
725.301	0.0143937
725.379	0.0143240
725.457	0.0143905
725.535	0.0143329
725.613	0.0143764
725.692	0.0143891
725.770	0.0143781
725.848	0.0143875
725.926	0.0142924
726.004	0.0143274
726.082	0.0143672
726.160	0.0145457
726.238	0.0144713
726.317	0.0143672
726.395	0.0144061
726.473	0.0145554
726.551	0.0144037
726.629	0.0143705
726.707	0.0143984
726.785	0.0143694
726.863	0.0142483
726.942	0.0142775
727.020	0.0143623
727.098	0.0142970
727.176	0.0143568
727.254	0.0144028
727.332	0.0141479
727.410	0.0142185
727.488	0.0143521
727.567	0.0143347
727.645	0.0142203
727.723	0.0142054
727.801	0.0141992
727.879	0.0144706
727.957	0.0142426
728.035	0.0144257
728.113	0.0143910
728.192	0.0143584
728.270	0.0143897
728.348	0.0145096
728.426	0.0144711
728.504	0.0144962
728.582	0.0145817
728.660	0.0144654
728.738	0.0145509
728.817	0.0145788
728.895	0.0144569
728.973	0.0143893
729.051	0.0145304
729.129	0.0144174
729.207	0.0145143
729.285	0.0145486
729.363	0.0144513
729.442	0.0145094
729.520	0.0145142
729.598	0.0143824
729.676	0.0144116
729.754	0.0144032
729.832	0.0143867
729.910	0.0142346
729.988	0.0143090
730.067	0.0143373
730.145	0.0142686
730.223	0.0143043
730.301	0.0143432
730.379	0.0142788
730.457	0.0143144
730.535	0.0142407
730.613	0.0144173
730.692	0.0143542
730.770	0.0142176
730.848	0.0142997
730.926	0.0142455
731.004	0.0142828
731.082	0.0143405
731.160	0.0142321
731.238	0.0143896
731.317	0.0144000
731.395	0.0144556
731.473	0.0144245
731.551	0.0144396
731.629	0.0143552
731.707	0.0144038
731.785	0.0144210
731.863	0.0144377
731.942	0.0143059
732.020	0.0142914
732.098	0.0144277
732.176	0.0143613
732.254	0.0142071
732.332	0.0142640
732.410	0.0143012
732.488	0.0141485
732.567	0.0143215
732.645	0.0141981
732.723	0.0144028
732.801	0.0142863
732.879	0.0142400
732.957	0.0143079
733.035	0.0143515
733.113	0.0143973
733.192	0.0142596
733.270	0.0142460
733.348	0.0143573
733.426	0.0143884
733.504	0.0143253
733.582	0.0142020
733.660	0.0142185
733.738	0.0142200
733.817	0.0141451
733.895	0.0140688
733.973	0.0142358
734.051	0.0140978
734.129	0.0142022
734.207	0.0143731
734.285	0.0140290
734.363	0.0141134
734.442	0.0141415
734.520	0.0141009
734.598	0.0142006
734.676	0.0144182
734.754	0.0142550
734.832	0.0141022
734.910	0.0142206
734.988	0.0143137
735.067	0.0143507
735.145	0.0143634
735.223	0.0141915
735.301	0.0143789
735.379	0.0143851
735.457	0.0142733
735.535	0.0142156
735.613	0.0144374
735.692	0.0144432
735.770	0.0142460
735.848	0.0143783
735.926	0.0144286
736.004	0.0143214
736.082	0.0143451
736.160	0.0142129
736.238	0.0141103
736.317	0.0141537
736.395	0.0141785
736.473	0.0142834
736.551	0.0142226
736.629	0.0143228
736.707	0.0143092
736.785	0.0142612
736.863	0.0141829
736.942	0.0143623
737.020	0.0141902
737.098	0.0141844
737.176	0.0143093
737.254	0.0142828
737.332	0.0141348
737.410	0.0143249
737.488	0.0142452
737.567	0.0142293
737.645	0.0142631
737.723	0.0141976
737.801	0.0141586
737.879	0.0142149
737.957	0.0142033
738.035	0.0141585
738.113	0.0142995
738.192	0.0141308
738.270	0.0142199
738.348	0.0143005
738.426	0.0141420
738.504	0.0143116
738.582	0.0143324
738.660	0.0142096
738.738	0.0143163
738.817	0.0144112
738.895	0.0142552
738.973	0.0141584
739.051	0.0143104
739.129	0.0143044
739.207	0.0143025
739.285	0.0141942
739.363	0.0141161
739.442	0.0143027
739.520	0.0143295
739.598	0.0143176
739.676	0.0142893
739.754	0.0142635
739.832	0.0142315
739.910	0.0141953
739.988	0.0143022
740.067	0.0142764
740.145	0.0142659
740.223	0.0143002
740.301	0.0142523
740.379	0.0143246
740.457	0.0142123
740.535	0.0142053
740.613	0.0141802
740.692	0.0142653
740.770	0.0143140
740.848	0.0143739
740.926	0.0143236
741.004	0.0142722
741.082	0.0142794
741.160	0.0142506
741.238	0.0143812
741.317	0.0143582
741.395	0.0143729
741.473	0.0143335
741.551	0.0143715
741.629	0.0141664
741.707	0.0141907
741.785	0.0141887
741.863	0.0141860
741.942	0.0142889
742.020	0.0141654
742.098	0.0142734
742.176	0.0142875
742.254	0.0143850
742.332	0.0142916
742.410	0.0143102
742.488	0.0143146
742.567	0.0143579
742.645	0.0142330
742.723	0.0142883
742.801	0.0144066
742.879	0.0144479
742.957	0.0143777
743.035	0.0143787
743.113	0.0143783
743.192	0.0144396
743.270	0.0143060
743.348	0.0143507
743.426	0.0142921
743.504	0.0143866
743.582	0.0142960
743.660	0.0142943
743.738	0.0143450
743.817	0.0142756
743.895	0.0144097
743.973	0.0145018
744.051	0.0143485
744.129	0.0143325
744.207	0.0143481
744.285	0.0142970
744.363	0.0143917
744.442	0.0145896
744.520	0.0144430
744.598	0.0144317
744.676	0.0145901
744.754	0.0143362
744.832	0.0143288
744.910	0.0145518
744.988	0.0146078
745.067	0.0145165
745.145	0.0144949
745.223	0.0144043
745.301	0.0144335
745.379	0.0144479
745.457	0.0145199
745.535	0.0145064
745.613	0.0145313
745.692	0.0144874
745.770	0.0145284
745.848	0.0144244
745.926	0.0143948
746.004	0.0144701
746.082	0.0144724
746.160	0.0144875
746.238	0.0143963
746.317	0.0143472
746.395	0.0143303
746.473	0.0143307
746.551	0.0143694
746.629	0.0144237
746.707	0.0144712
746.785	0.0143688
746.863	0.0143342
746.942	0.0143874
747.020	0.0144396
747.098	0.0142686
747.176	0.0142819
747.254	0.0142439
747.332	0.0142304
747.410	0.0142679
747.488	0.0141739
747.567	0.0141776
747.645	0.0142932
747.723	0.0140919
747.801	0.0142603
747.879	0.0141883
747.957	0.0142657
748.035	0.0141707
748.113	0.0141314
748.192	0.0143690
748.270	0.0142425
748.348	0.0141560
748.426	0.0143043
748.504	0.0144123
748.582	0.0142702
748.660	0.0142084
748.738	0.0143901
748.817	0.0143983
748.895	0.0144725
748.973	0.0144194
749.051	0.0143575
749.129	0.0143909
749.207	0.0143176
749.285	0.0143855
749.363	0.0144258
749.442	0.0145236
749.520	0.0144329
749.598	0.0144515
749.676	0.0143452
749.754	0.0142775
749.832	0.0143509
749.910	0.0143154
749.988	0.0143072
750.067	0.0142818
750.145	0.0143011
750.223	0.0142412
750.301	0.0142190
750.379	0.0142933
750.457	0.0142719
750.535	0.0143032
750.613	0.0142959
750.692	0.0141358
750.770	0.0141976
750.848	0.0141470
750.926	0.0142049
751.004	0.0142912
751.082	0.0143353
751.160	0.0142004
751.238	0.0141609
751.317	0.0143555
751.395	0.0142285
751.473	0.0142226
751.551	0.0140613
751.629	0.0142386
751.707	0.0142260
751.785	0.0141080
751.863	0.0141881
751.942	0.0141090
752.020	0.0141516
752.098	0.0143190
752.176	0.0142510
752.254	0.0142178
752.332	0.0140525
752.410	0.0141853
752.488	0.0140896
752.567	0.0140907
752.645	0.0141908
752.723	0.0141611
752.801	0.0141357
752.879	0.0141970
752.957	0.0142648
753.035	0.0143711
753.113	0.0142397
753.192	0.0141738
753.270	0.0142188
753.348	0.0143053
753.426	0.0142892
753.504	0.0141794
753.582	0.0143861
753.660	0.0143359
753.738	0.0143094
753.817	0.0142836
753.895	0.0144413
753.973	0.0142586
754.051	0.0142019
754.129	0.0142858
754.207	0.0142064
754.285	0.0142299
754.363	0.0142908
754.442	0.0141248
754.520	0.0141808
754.598	0.0143752
754.676	0.0142798
754.754	0.0143735
754.832	0.0142197
754.910	0.0142311
754.988	0.0143134
755.067	0.0143322
755.145	0.0142565
755.223	0.0143041
755.301	0.0142094
755.379	0.0143279
755.457	0.0142947
755.535	0.0141705
755.613	0.0144427
755.692	0.0144183
755.770	0.0143592
755.848	0.0143110
755.926	0.0142355
756.004	0.0143752
756.082	0.0142741
756.160	0.0143546
756.238	0.0142938
756.317	0.0143587
756.395	0.0143237
756.473	0.0143438
756.551	0.0143112
756.629	0.0142011
756.707	0.0141765
756.785	0.0141801
756.863	0.0142741
756.942	0.0142429
757.020	0.0142415
757.098	0.0143856
757.176	0.0142958
757.254	0.0141986
757.332	0.0142471
757.410	0.0142719
757.488	0.0143430
757.567	0.0142566
757.645	0.0142992
757.723	0.0142809
757.801	0.0142391
757.879	0.0142496
757.957	0.0141784
758.035	0.0142111
758.113	0.0141641
758.192	0.0141962
758.270	0.0141565
758.348	0.0143388
758.426	0.0142146
758.504	0.0141460
758.582	0.0143146
758.660	0.0141458
758.738	0.0142035
758.817	0.0142427
758.895	0.0142353
758.973	0.0143110
759.051	0.0143233
759.129	0.0144276
759.207	0.0141390
759.285	0.0143453
759.363	0.0142393
759.442	0.0143589
759.520	0.0141063
759.598	0.0142419
759.676	0.0143497
759.754	0.0142283
759.832	0.0141081
759.910	0.0141706
759.988	0.0141090
760.067	0.0141680
760.145	0.0141764
760.223	0.0141154
760.301	0.0141817
760.379	0.0142355
760.457	0.0141624
760.535	0.0141532
760.613	0.0141346
760.692	0.0141321
760.770	0.0141549
760.848	0.0141513
760.926	0.0142118
761.004	0.0142574
761.082	0.0142980
761.160	0.0142969
761.238	0.0143095
761.317	0.0142494
761.395	0.0142371
761.473	0.0143156
761.551	0.0142394
761.629	0.0143759
761.707	0.0143082
761.785	0.0144180
761.863	0.0141776
761.942	0.0142561
762.020	0.0143935
762.098	0.0142934
762.176	0.0142553
762.254	0.0142419
762.332	0.0142327
762.410	0.0143555
762.488	0.0142504
762.567	0.0143008
762.645	0.0142383
762.723	0.0141774
762.801	0.0142915
762.879	0.0141799
762.957	0.0142159
763.035	0.0142178
763.113	0.0142328
763.192	0.0142702
763.270	0.0144291
763.348	0.0142439
763.426	0.0142887
763.504	0.0143614
763.582	0.0142648
763.660	0.0143556
763.738	0.0143200
763.817	0.0143114
763.895	0.0142507
763.973	0.0143817
764.051	0.0144064
764.129	0.0142417
764.207	0.0142344
764.285	0.0143564
764.363	0.0141281
764.442	0.0143210
764.520	0.0144105
764.598	0.0142917
764.676	0.0143609
764.754	0.0142558
764.832	0.0142391
764.910	0.0142499
764.988	0.0142216
765.067	0.0142671
765.145	0.0140907
765.223	0.0141814
765.301	0.0142683
765.379	0.0142641
765.457	0.0141755
765.535	0.0141602
765.613	0.0142329
765.692	0.0142126
765.770	0.0142503
765.848	0.0142759
765.926	0.0143320
766.004	0.0142557
766.082	0.0143376
766.160	0.0143873
766.238	0.0143298
766.317	0.0142529
766.395	0.0143861
766.473	0.0142625
766.551	0.0142596
766.629	0.0144370
766.707	0.0144402
766.785	0.0143943
766.863	0.0146024
766.942	0.0143820
767.020	0.0144563
767.098	0.0145535
767.176	0.0144511
767.254	0.0145741
767.332	0.0144994
767.410	0.0144096
767.488	0.0145550
767.567	0.0144740
767.645	0.0144814
767.723	0.0143946
767.801	0.0143206
767.879	0.0144144
767.957	0.0145563
768.035	0.0144609
768.113	0.0144588
768.192	0.0144069
768.270	0.0144080
768.348	0.0144682
768.426	0.0144282
768.504	0.0143557
768.582	0.0143138
768.660	0.0143641
768.738	0.0142403
768.817	0.0142810
768.895	0.0143842
768.973	0.0143353
769.051	0.0142597
769.129	0.0142164
769.207	0.0143080
769.285	0.0142767
769.363	0.0143771
769.442	0.0142463
769.520	0.0142368
769.598	0.0142966
769.676	0.0142614
769.754	0.0143110
769.832	0.0142788
769.910	0.0143698
769.988	0.0142671
770.067	0.0142638
770.145	0.0143311
770.223	0.0143666
770.301	0.0142328
770.379	0.0143089
770.457	0.0142883
770.535	0.0143584
770.613	0.0143681
770.692	0.0143376
770.770	0.0143549
770.848	0.0144473
770.926	0.0143620
771.004	0.0144457
771.082	0.0143403
771.160	0.0143497
771.238	0.0145169
771.317	0.0145054
771.395	0.0144926
771.473	0.0143880
771.551	0.0144251
771.629	0.0144736
771.707	0.0144249
771.785	0.0144387
771.863	0.0143791
771.942	0.0143327
772.020	0.0142335
772.098	0.0144707
772.176	0.0143150
772.254	0.0143527
772.332	0.0144154
772.410	0.0143069
772.488	0.0142755
772.567	0.0144479
772.645	0.0143018
772.723	0.0143192
772.801	0.0143137
772.879	0.0144033
772.957	0.0144296
773.035	0.0143546
773.113	0.0141946
773.192	0.0142529
773.270	0.0142641
773.348	0.0142427
773.426	0.0143711
773.504	0.0143177
773.582	0.0142982
773.660	0.0141699
773.738	0.0142010
773.817	0.0141206
773.895	0.0141471
773.973	0.0142036
774.051	0.0142442
774.129	0.0140838
774.207	0.0141685
774.285	0.0141259
774.363	0.0141985
774.442	0.0140881
774.520	0.0141211
774.598	0.0141364
774.676	0.0141709
774.754	0.0141563
774.832	0.0142303
774.910	0.0142996
774.988	0.0141582
775.067	0.0142202
775.145	0.0142480
775.223	0.0141729
775.301	0.0142367
775.379	0.0142333
775.457	0.0142210
775.535	0.0142259
775.613	0.0142084
775.692	0.0141724
775.770	0.0142653
775.848	0.0140662
775.926	0.0141728
776.004	0.0141017
776.082	0.0141004
776.160	0.0141116
776.238	0.0141217
776.317	0.0141079
776.395	0.0142091
776.473	0.0142722
776.551	0.0141962
776.629	0.0140923
776.707	0.0141427
776.785	0.0142158
776.863	0.0142680
776.942	0.0142758
777.020	0.0142038
777.098	0.0142541
777.176	0.0140585
777.254	0.0143116
777.332	0.0142289
777.410	0.0141985
777.488	0.0142817
777.567	0.0143115
777.645	0.0143282
777.723	0.0142616
777.801	0.0143162
777.879	0.0144364
777.957	0.0143092
778.035	0.0143821
778.113	0.0142467
778.192	0.0143279
778.270	0.0144896
778.348	0.0144022
778.426	0.0144232
778.504	0.0144296
778.582	0.0145409
778.660	0.0143805
778.738	0.0143433
778.817	0.0145527
778.895	0.0145388
778.973	0.0144244
779.051	0.0144131
779.129	0.0144341
779.207	0.0142992
779.285	0.0144911
779.363	0.0144798
779.442	0.0143340
779.520	0.0143893
779.598	0.0143756
779.676	0.0144623
779.754	0.0142288
779.832	0.0143183
779.910	0.0141438
779.988	0.0142656
780.067	0.0142670
780.145	0.0142843
780.223	0.0141682
780.301	0.0143725
780.379	0.0143355
780.457	0.0143078
780.535	0.0142253
780.613	0.0143703
780.692	0.0142937
780.770	0.0143391
780.848	0.0143468
780.926	0.0143330
781.004	0.0142606
781.082	0.0143552
781.160	0.0144263
781.238	0.0145372
781.317	0.0143221
781.395	0.0142912
781.473	0.0143528
781.551	0.0143604
781.629	0.0144033
781.707	0.0142289
781.785	0.0142665
781.863	0.0142754
781.942	0.0143001
782.020	0.0143291
782.098	0.0142792
782.176	0.0141774
782.254	0.0142750
782.332	0.0142429
782.410	0.0143284
782.488	0.0143636
782.567	0.0141131
782.645	0.0142509
782.723	0.0142927
782.801	0.0142220
782.879	0.0142660
782.957	0.0143137
783.035	0.0142804
783.113	0.0143505
783.192	0.0144562
783.270	0.0142976
783.348	0.0142603
783.426	0.0143834
783.504	0.0142982
783.582	0.0143712
783.660	0.0144308
783.738	0.0144680
783.817	0.0143224
783.895	0.0143230
783.973	0.0143677
784.051	0.0143335
784.129	0.0143750
784.207	0.0144469
784.285	0.0145411
784.363	0.0143925
784.442	0.0144624
784.520	0.0144905
784.598	0.0145152
784.676	0.0144899
784.754	0.0143941
784.832	0.0144028
784.910	0.0145655
784.988	0.0143438
785.067	0.0145528
785.145	0.0144402
785.223	0.0144579
785.301	0.0143922
785.379	0.0144357
785.457	0.0144836
785.535	0.0143861
785.613	0.0143824
785.692	0.0145601
785.770	0.0144492
785.848	0.0145338
785.926	0.0144827
786.004	0.0143101
786.082	0.0144305
786.160	0.0144711
786.238	0.0145451
786.317	0.0145642
786.395	0.0143925
786.473	0.0143684
786.551	0.0144070
786.629	0.0145839
786.707	0.0146181
786.785	0.0144666
786.863	0.0144773
786.942	0.0145300
787.020	0.0144436
787.098	0.0144031
787.176	0.0144553
787.254	0.0144042
787.332	0.0144367
787.410	0.0145061
787.488	0.0144838
787.567	0.0143388
787.645	0.0144994
787.723	0.0143651
787.801	0.0144894
787.879	0.0144363
787.957	0.0143596
788.035	0.0144237
788.113	0.0143787
788.192	0.0142419
788.270	0.0143865
788.348	0.0144472
788.426	0.0143561
788.504	0.0144588
788.582	0.0143214
788.660	0.0143701
788.738	0.0143169
788.817	0.0144891
788.895	0.0144999
788.973	0.0142890
789.051	0.0143117
789.129	0.0144879
789.207	0.0144570
789.285	0.0143716
789.363	0.0143436
789.442	0.0143852
789.520	0.0142527
789.598	0.0143083
789.676	0.0144791
789.754	0.0143639
789.832	0.0143435
789.910	0.0142661
789.988	0.0144873
790.067	0.0145513
790.145	0.0143784
790.223	0.0142375
790.301	0.0142416
790.379	0.0141811
790.457	0.0143660
790.535	0.0142295
790.613	0.0141140
790.692	0.0142749
790.770	0.0140933
790.848	0.0141686
790.926	0.0140989
791.004	0.0142778
791.082	0.0142206
791.160	0.0140574
791.238	0.0140234
791.317	0.0140363
791.395	0.0141841
791.473	0.0141634
791.551	0.0141790
791.629	0.0141222
791.707	0.0141035
791.785	0.0140471
791.863	0.0141583
791.942	0.0141692
792.020	0.0140205
792.098	0.0141409
792.176	0.0142373
792.254	0.0142345
792.332	0.0141300
792.410	0.0141340
792.488	0.0141351
792.567	0.0142253
792.645	0.0142696
792.723	0.0143114
792.801	0.0141504
792.879	0.0141591
792.957	0.0142361
793.035	0.0141773
793.113	0.0141752
793.192	0.0142458
793.270	0.0141571
793.348	0.0142933
793.426	0.0142783
793.504	0.0143235
793.582	0.0142506
793.660	0.0141750
793.738	0.0140322
793.817	0.0142310
793.895	0.0144579
793.973	0.0144301
794.051	0.0144650
794.129	0.0144221
794.207	0.0144320
794.285	0.0144562
794.363	0.0143733
794.442	0.0143982
794.520	0.0145526
794.598	0.0144663
794.676	0.0145241
794.754	0.0144741
794.832	0.0145762
794.910	0.0144115
794.988	0.0144615
795.067	0.0144822
795.145	0.0146083
795.223	0.0145267
795.301	0.0144667
795.379	0.0145874
795.457	0.0144195
795.535	0.0143326
795.613	0.0143591
795.692	0.0143688
795.770	0.0143723
795.848	0.0143909
795.926	0.0143870
796.004	0.0142973
796.082	0.0143721
796.160	0.0143268
796.238	0.0143041
796.317	0.0143002
796.395	0.0142428
796.473	0.0142033
796.551	0.0141792
796.629	0.0142112
796.707	0.0142485
796.785	0.0141972
796.863	0.0143138
796.942	0.0142923
797.020	0.0140781
797.098	0.0143511
797.176	0.0142794
797.254	0.0142786
797.332	0.0141755
797.410	0.0140498
797.488	0.0142057
797.567	0.0142267
797.645	0.0141055
797.723	0.0142563
797.801	0.0141922
797.879	0.0142986
797.957	0.0142596
798.035	0.0142439
798.113	0.0143223
798.192	0.0143095
798.270	0.0142235
798.348	0.0143401
798.426	0.0143013
798.504	0.0144332
798.582	0.0144437
798.660	0.0143411
798.738	0.0143997
798.817	0.0145229
798.895	0.0143050
798.973	0.0142923
799.051	0.0143634
799.129	0.0145128
799.207	0.0144515
799.285	0.0143563
799.363	0.0144973
799.442	0.0144800
799.520	0.0144086
799.598	0.0145203
799.676	0.0145180
799.754	0.0144939
799.832	0.0145889
799.910	0.0144007
799.988	0.0145831
800.067	0.0144294
800.145	0.0145509
800.223	0.0145449
800.301	0.0143981
800.379	0.0143958
800.457	0.0144492
800.535	0.0144560
800.613	0.0144032
800.692	0.0143700
800.770	0.0143824
800.848	0.0144864
800.926	0.0144189
801.004	0.0143623
801.082	0.0142978
801.160	0.0143230
801.238	0.0142947
801.317	0.0143867
801.395	0.0142483
801.473	0.0143732
801.551	0.0144286
801.629	0.0143780
801.707	0.0142172
801.785	0.0143236
801.863	0.0142985
801.942	0.0142805
802.020	0.0144374
802.098	0.0142811
802.176	0.0142137
802.254	0.0143873
802.332	0.0144024
802.410	0.0144305
802.488	0.0143245
802.567	0.0143529
802.645	0.0144980
802.723	0.0143961
802.801	0.0145029
802.879	0.0144154
802.957	0.0146225
803.035	0.0145493
803.113	0.0144846
803.192	0.0144476
803.270	0.0144982
803.348	0.0144995
803.426	0.0144200
803.504	0.0145477
803.582	0.0145922
803.660	0.0145216
803.738	0.0145012
803.817	0.0145033
803.895	0.0145914
803.973	0.0145390
804.051	0.0144662
804.129	0.0145197
804.207	0.0144870
804.285	0.0145775
804.363	0.0143768
804.442	0.0144726
804.520	0.0145697
804.598	0.0144797
804.676	0.0146030
804.754	0.0144410
804.832	0.0144047
804.910	0.0144864
804.988	0.0144366
805.067	0.0144798
805.145	0.0144754
805.223	0.0144408
805.301	0.0144524
805.379	0.0144619
805.457	0.0144519
805.535	0.0145023
805.613	0.0145690
805.692	0.0145774
805.770	0.0144165
805.848	0.0143628
805.926	0.0143429
806.004	0.0144656
806.082	0.0144935
806.160	0.0143356
806.238	0.0144264
806.317	0.0145548
806.395	0.0142983
806.473	0.0144202
806.551	0.0143621
806.629	0.0144180
806.707	0.0143839
806.785	0.0143565
806.863	0.0143210
806.942	0.0144686
807.020	0.0143938
807.098	0.0144572
807.176	0.0142904
807.254	0.0144114
807.332	0.0142105
807.410	0.0143303
807.488	0.0143736
807.567	0.0141908
807.645	0.0143072
807.723	0.0143124
807.801	0.0143414
807.879	0.0142802
807.957	0.0142861
808.035	0.0144554
808.113	0.0143918
808.192	0.0144196
808.270	0.0144695
808.348	0.0144221
808.426	0.0145170
808.504	0.0144296
808.582	0.0145143
808.660	0.0144462
808.738	0.0144112
808.817	0.0143655
808.895	0.0145726
808.973	0.0144861
809.051	0.0145126
809.129	0.0144392
809.207	0.0144826
809.285	0.0145590
809.363	0.0144727
809.442	0.0144712
809.520	0.0145075
809.598	0.0144752
809.676	0.0143900
809.754	0.0144112
809.832	0.0145392
809.910	0.0145456
809.988	0.0143716
810.067	0.0143664
810.145	0.0145711
810.223	0.0146615
810.301	0.0144460
810.379	0.0143938
810.457	0.0144527
810.535	0.0143721
810.613	0.0144586
810.692	0.0144135
810.770	0.0143842
810.848	0.0144897
810.926	0.0144387
811.004	0.0143930
811.082	0.0144363
811.160	0.0144592
811.238	0.0144476
811.317	0.0144534
811.395	0.0144965
811.473	0.0143768
811.551	0.0143555
811.629	0.0142879
811.707	0.0142479
811.785	0.0143256
811.863	0.0144695
811.942	0.0143698
812.020	0.0143373
812.098	0.0141479
812.176	0.0143387
812.254	0.0142965
812.332	0.0142413
812.410	0.0142521
812.488	0.0142400
812.567	0.0143879
812.645	0.0142098
812.723	0.0142389
812.801	0.0142133
812.879	0.0142631
812.957	0.0142819
813.035	0.0144147
813.113	0.0143547
813.192	0.0141167
813.270	0.0142489
813.348	0.0142355
813.426	0.0142272
813.504	0.0141948
813.582	0.0142047
813.660	0.0141202
813.738	0.0143293
813.817	0.0142508
813.895	0.0140096
813.973	0.0140975
814.051	0.0142120
814.129	0.0142187
814.207	0.0141910
814.285	0.0142293
814.363	0.0141997
814.442	0.0141965
814.520	0.0141449
814.598	0.0141266
814.676	0.0141637
814.754	0.0141299
814.832	0.0141681
814.910	0.0141758
814.988	0.0142029
815.067	0.0140651
815.145	0.0138889
815.223	0.0142204
815.301	0.0141639
815.379	0.0141089
815.457	0.0139822
815.535	0.0140802
815.613	0.0141835
815.692	0.0140586
815.770	0.0140194
815.848	0.0140874
815.926	0.0141561
816.004	0.0141107
816.082	0.0141183
816.160	0.0141171
816.238	0.0141753
816.317	0.0140959
816.395	0.0142353
816.473	0.0143007
816.551	0.0140893
816.629	0.0140840
816.707	0.0142408
816.785	0.0142438
816.863	0.0142217
816.942	0.0142248
817.020	0.0142484
817.098	0.0141757
817.176	0.0142139
817.254	0.0142493
817.332	0.0141820
817.410	0.0142423
817.488	0.0142223
817.567	0.0143536
817.645	0.0140874
817.723	0.0143658
817.801	0.0142195
817.879	0.0142283
817.957	0.0143845
818.035	0.0143832
818.113	0.0142699
818.192	0.0144213
818.270	0.0141939
818.348	0.0143355
818.426	0.0143565
818.504	0.0143417
818.582	0.0142375
818.660	0.0142335
818.738	0.0144088
818.817	0.0142162
818.895	0.0143058
818.973	0.0142904
819.051	0.0142412
819.129	0.0142414
819.207	0.0143332
819.285	0.0143553
819.363	0.0143472
819.442	0.0142725
819.520	0.0146236
819.598	0.0143355
819.676	0.0143719
819.754	0.0142287
819.832	0.0143698
819.910	0.0144220
819.988	0.0144714
820.067	0.0143703
820.145	0.0143488
820.223	0.0144078
820.301	0.0144250
820.379	0.0143517
820.457	0.0144804
820.535	0.0143150
820.613	0.0144522
820.692	0.0144290
820.770	0.0143664
820.848	0.0143270
820.926	0.0143360
821.004	0.0143568
821.082	0.0143568
821.160	0.0143631
821.238	0.0142131
821.317	0.0142661
821.395	0.0143439
821.473	0.0143491
821.551	0.0142984
821.629	0.0143209
821.707	0.0144437
821.785	0.0143346
821.863	0.0141937
821.942	0.0143674
822.020	0.0143642
822.098	0.0143341
822.176	0.0141655
822.254	0.0142415
822.332	0.0142873
822.410	0.0141691
822.488	0.0142617
822.567	0.0143981
822.645	0.0143313
822.723	0.0142638
822.801	0.0142313
822.879	0.0142021
822.957	0.0142818
823.035	0.0142572
823.113	0.0141319
823.192	0.0142337
823.270	0.0143485
823.348	0.0143684
823.426	0.0141679
823.504	0.0142528
823.582	0.0144157
823.660	0.0142602
823.738	0.0143241
823.817	0.0144079
823.895	0.0143449
823.973	0.0143593
824.051	0.0142693
824.129	0.0143938
824.207	0.0143896
824.285	0.0143382
824.363	0.0142752
824.442	0.0144210
824.520	0.0144745
824.598	0.0144250
824.676	0.0144122
824.754	0.0144355
824.832	0.0144353
824.910	0.0145353
824.988	0.0144629
825.067	0.0144689
825.145	0.0144230
825.223	0.0145387
825.301	0.0144916
825.379	0.0144990
825.457	0.0145811
825.535	0.0145287
825.613	0.0144808
825.692	0.0143468
825.770	0.0144760
825.848	0.0145446
825.926	0.0143596
826.004	0.0143718
826.082	0.0143499
826.160	0.0144270
826.238	0.0144855
826.317	0.0143513
826.395	0.0144322
826.473	0.0144283
826.551	0.0144450
826.629	0.0142616
826.707	0.0143078
826.785	0.0145511
826.863	0.0144530
826.942	0.0143892
827.020	0.0143678
827.098	0.0144743
827.176	0.0143523
827.254	0.0143174
827.332	0.0143507
827.410	0.0143427
827.488	0.0145150
827.567	0.0144482
827.645	0.0143600
827.723	0.0142377
827.801	0.0144867
827.879	0.0143629
827.957	0.0143965
828.035	0.0144443
828.113	0.0143626
828.192	0.0143684
828.270	0.0144247
828.348	0.0144774
828.426	0.0144615
828.504	0.0143714
828.582	0.0143858
828.660	0.0143515
828.738	0.0142456
828.817	0.0144440
828.895	0.0144501
828.973	0.0144380
829.051	0.0144322
829.129	0.0143798
829.207	0.0144070
829.285	0.0144718
829.363	0.0143280
829.442	0.0144401
829.520	0.0144788
829.598	0.0145344
829.676	0.0143737
829.754	0.0145937
829.832	0.0143919
829.910	0.0143822
829.988	0.0144213
830.067	0.0143963
830.145	0.0143327
830.223	0.0144059
830.301	0.0144706
830.379	0.0145193
830.457	0.0142287
830.535	0.0143314
830.613	0.0145158
830.692	0.0144639
830.770	0.0143574
830.848	0.0143255
830.926	0.0144559
831.004	0.0143416
831.082	0.0145225
831.160	0.0144356
831.238	0.0144246
831.317	0.0143091
831.395	0.0143573
831.473	0.0142815
831.551	0.0144040
831.629	0.0142396
831.707	0.0143144
831.785	0.0144269
831.863	0.0143087
831.942	0.0142628
832.020	0.0142771
832.098	0.0141618
832.176	0.0143989
832.254	0.0142094
832.332	0.0141785
832.410	0.0141791
832.488	0.0141814
832.567	0.0140576
832.645	0.0140546
832.723	0.0141687
832.801	0.0141727
832.879	0.0140950
832.957	0.0140637
833.035	0.0141333
833.113	0.0140055
833.192	0.0142876
833.270	0.0141143
833.348	0.0141574
833.426	0.0140415
833.504	0.0140193
833.582	0.0140207
833.660	0.0141859
833.738	0.0141982
833.817	0.0140424
833.895	0.0141115
833.973	0.0141004
834.051	0.0141495
834.129	0.0140898
834.207	0.0141375
834.285	0.0141358
834.363	0.0140111
834.442	0.0142021
834.520	0.0140352
834.598	0.0141428
834.676	0.0142034
834.754	0.0140352
834.832	0.0140959
834.910	0.0141650
834.988	0.0143044
835.067	0.0140971
835.145	0.0142242
835.223	0.0141168
835.301	0.0142155
835.379	0.0143335
835.457	0.0142413
835.535	0.0142929
835.613	0.0141872
835.692	0.0142474
835.770	0.0142966
835.848	0.0142836
835.926	0.0142369
836.004	0.0141368
836.082	0.0141187
836.160	0.0141496
836.238	0.0142509
836.317	0.0141945
836.395	0.0142497
836.473	0.0142856
836.551	0.0143192
836.629	0.0142525
836.707	0.0143108
836.785	0.0141020
836.863	0.0142285
836.942	0.0141354
837.020	0.0140986
837.098	0.0141955
837.176	0.0143404
837.254	0.0140382
837.332	0.0142330
837.410	0.0142076
837.488	0.0141745
837.567	0.0141335
837.645	0.0142359
837.723	0.0141038
837.801	0.0142562
837.879	0.0141781
837.957	0.0142022
838.035	0.0144089
838.113	0.0141973
838.192	0.0142709
838.270	0.0143134
838.348	0.0143274
838.426	0.0141349
838.504	0.0143043
838.582	0.0143762
838.660	0.0142664
838.738	0.0143842
838.817	0.0142962
838.895	0.0141959
838.973	0.0144001
839.051	0.0143383
839.129	0.0141963
839.207	0.0143464
839.285	0.0142481
839.363	0.0141427
839.442	0.0141498
839.520	0.0143058
839.598	0.0143073
839.676	0.0141451
839.754	0.0142999
839.832	0.0142612
839.910	0.0143273
839.988	0.0142110
840.067	0.0142464
840.145	0.0142576
840.223	0.0143281
840.301	0.0144067
840.379	0.0143369
840.457	0.0142564
840.535	0.0144293
840.613	0.0142338
840.692	0.0143242
840.770	0.0145294
840.848	0.0143750
840.926	0.0143184
841.004	0.0143768
841.082	0.0143189
841.160	0.0142181
841.238	0.0143360
841.317	0.0144086
841.395	0.0143160
841.473	0.0143844
841.551	0.0143653
841.629	0.0142899
841.707	0.0142944
841.785	0.0144582
841.863	0.0142341
841.942	0.0142876
842.020	0.0144501
842.098	0.0143573
842.176	0.0143059
842.254	0.0143446
842.332	0.0143613
842.410	0.0143869
842.488	0.0143164
842.567	0.0143038
842.645	0.0143946
842.723	0.0142527
842.801	0.0143547
842.879	0.0144306
842.957	0.0144143
843.035	0.0143913
843.113	0.0143027
843.192	0.0143313
843.270	0.0144273
843.348	0.0143523
843.426	0.0142681
843.504	0.0144507
843.582	0.0142464
843.660	0.0142934
843.738	0.0143413
843.817	0.0143366
843.895	0.0142664
843.973	0.0143308
844.051	0.0143498
844.129	0.0143948
844.207	0.0141615
844.285	0.0143876
844.363	0.0143036
844.442	0.0143773
844.520	0.0143690
844.598	0.0142834
844.676	0.0141535
844.754	0.0143338
844.832	0.0143383
844.910	0.0143372
844.988	0.0143440
845.067	0.0144247
845.145	0.0143941
845.223	0.0143003
845.301	0.0144791
845.379	0.0144565
845.457	0.0143214
845.535	0.0143256
845.613	0.0143207
845.692	0.0143123
845.770	0.0142391
845.848	0.0144773
845.926	0.0144708
846.004	0.0145493
846.082	0.0144457
846.160	0.0144244
846.238	0.0142798
846.317	0.0144324
846.395	0.0143987
846.473	0.0144436
846.551	0.0142852
846.629	0.0143439
846.707	0.0144668
846.785	0.0142850
846.863	0.0143378
846.942	0.0142936
847.020	0.0142491
847.098	0.0143989
847.176	0.0142927
847.254	0.0142146
847.332	0.0142474
847.410	0.0142721
847.488	0.0143256
847.567	0.0142747
847.645	0.0141740
847.723	0.0141534
847.801	0.0141960
847.879	0.0142696
847.957	0.0141689
848.035	0.0142021
848.113	0.0141523
848.192	0.0140590
848.270	0.0143538
848.348	0.0141829
848.426	0.0141043
848.504	0.0143074
848.582	0.0142427
848.660	0.0142256
848.738	0.0140637
848.817	0.0143462
848.895	0.0142579
848.973	0.0141870
849.051	0.0142023
849.129	0.0142461
849.207	0.0141846
849.285	0.0143378
849.363	0.0142730
849.442	0.0141586
849.520	0.0142737
849.598	0.0142397
849.676	0.0142450
849.754	0.0142425
849.832	0.0143121
849.910	0.0143987
849.988	0.0143464
850.067	0.0143780
850.145	0.0142483
850.223	0.0143073
850.301	0.0143538
850.379	0.0143137
850.457	0.0144156
850.535	0.0144220
850.613	0.0143069
850.692	0.0143601
850.770	0.0143420
850.848	0.0144462
850.926	0.0143620
851.004	0.0143156
851.082	0.0144260
851.160	0.0144054
851.238	0.0145461
851.317	0.0145000
851.395	0.0145193
851.473	0.0144335
851.551	0.0143847
851.629	0.0144399
851.707	0.0143461
851.785	0.0143755
851.863	0.0144056
851.942	0.0143296
852.020	0.0144005
852.098	0.0143522
852.176	0.0144518
852.254	0.0145054
852.332	0.0142742
852.410	0.0144643
852.488	0.0142578
852.567	0.0142424
852.645	0.0143552
852.723	0.0144348
852.801	0.0141210
852.879	0.0142582
852.957	0.0142196
853.035	0.0142086
853.113	0.0141415
853.192	0.0143238
853.270	0.0143005
853.348	0.0143085
853.426	0.0143690
853.504	0.0140857
853.582	0.0142482
853.660	0.0141136
853.738	0.0141076
853.817	0.0142779
853.895	0.0143321
853.973	0.0139248
854.051	0.0140456
854.129	0.0142437
854.207	0.0141814
854.285	0.0142142
854.363	0.0141880
854.442	0.0142791
854.520	0.0142126
854.598	0.0142482
854.676	0.0142371
854.754	0.0142313
854.832	0.0141732
854.910	0.0141402
854.988	0.0141924
855.067	0.0141727
855.145	0.0143369
855.223	0.0142585
855.301	0.0140868
855.379	0.0141678
855.457	0.0141724
855.535	0.0141489
855.613	0.0141721
855.692	0.0142509
855.770	0.0141970
855.848	0.0141959
855.926	0.0142323
856.004	0.0141912
856.082	0.0142302
856.160	0.0144025
856.238	0.0143123
856.317	0.0142292
856.395	0.0142130
856.473	0.0142439
856.551	0.0142657
856.629	0.0142776
856.707	0.0142583
856.785	0.0143231
856.863	0.0144903
856.942	0.0143405
857.020	0.0142348
857.098	0.0143355
857.176	0.0143020
857.254	0.0143644
857.332	0.0143972
857.410	0.0144319
857.488	0.0143401
857.567	0.0144379
857.645	0.0143214
857.723	0.0143417
857.801	0.0144088
857.879	0.0142773
857.957	0.0143543
858.035	0.0144597
858.113	0.0143384
858.192	0.0143647
858.270	0.0143632
858.348	0.0142772
858.426	0.0142864
858.504	0.0144382
858.582	0.0143388
858.660	0.0142329
858.738	0.0143051
858.817	0.0144061
858.895	0.0144167
858.973	0.0142002
859.051	0.0141555
859.129	0.0143742
859.207	0.0143713
859.285	0.0142824
859.363	0.0142921
859.442	0.0141244
859.520	0.0144439
859.598	0.0144339
859.676	0.0142495
859.754	0.0141742
859.832	0.0143848
859.910	0.0142522
859.988	0.0142968
860.067	0.0142686
860.145	0.0143714
860.223	0.0142383
860.301	0.0143332
860.379	0.0143549
860.457	0.0142921
860.535	0.0143446
860.613	0.0143015
860.692	0.0143374
860.770	0.0143419
860.848	0.0144170
860.926	0.0143573
861.004	0.0142316
861.082	0.0143617
861.160	0.0143566
861.238	0.0142977
861.317	0.0145103
861.395	0.0143777
861.473	0.0143632
861.551	0.0144049
861.629	0.0144086
861.707	0.0143318
861.785	0.0142935
861.863	0.0143761
861.942	0.0142448
862.020	0.0141935
862.098	0.0144063
862.176	0.0143342
862.254	0.0144337
862.332	0.0142274
862.410	0.0144630
862.488	0.0144459
862.567	0.0142941
862.645	0.0144098
862.723	0.0143878
862.801	0.0143325
862.879	0.0144350
862.957	0.0142142
863.035	0.0142651
863.113	0.0144514
863.192	0.0143316
863.270	0.0142527
863.348	0.0144283
863.426	0.0143229
863.504	0.0141863
863.582	0.0142290
863.660	0.0142869
863.738	0.0143293
863.817	0.0142819
863.895	0.0142480
863.973	0.0143163
864.051	0.0143865
864.129	0.0143254
864.207	0.0143100
864.285	0.0141573
864.363	0.0143607
864.442	0.0143163
864.520	0.0141398
864.598	0.0142367
864.676	0.0143559
864.754	0.0143070
864.832	0.0142857
864.910	0.0142565
864.988	0.0142343
865.067	0.0142446
865.145	0.0142735
865.223	0.0142693
865.301	0.0142416
865.379	0.0142626
865.457	0.0143201
865.535	0.0143229
865.613	0.0142782
865.692	0.0142844
865.770	0.0143631
865.848	0.0141865
865.926	0.0143100
866.004	0.0143771
866.082	0.0143427
866.160	0.0142694
866.238	0.0143566
866.317	0.0143832
866.395	0.0141883
866.473	0.0142807
866.551	0.0142429
866.629	0.0143440
866.707	0.0143874
866.785	0.0144810
866.863	0.0145369
866.942	0.0143896
867.020	0.0142873
867.098	0.0142621
867.176	0.0141841
867.254	0.0143174
867.332	0.0143979
867.410	0.0142549
867.488	0.0142474
867.567	0.0142034
867.645	0.0141090
867.723	0.0142097
867.801	0.0142348
867.879	0.0143717
867.957	0.0142454
868.035	0.0142744
868.113	0.0143447
868.192	0.0144000
868.270	0.0143337
868.348	0.0144835
868.426	0.0142436
868.504	0.0143540
868.582	0.0144559
868.660	0.0143550
868.738	0.0143294
868.817	0.0142177
868.895	0.0144436
868.973	0.0143538
869.051	0.0143884
869.129	0.0145115
869.207	0.0143215
869.285	0.0144110
869.363	0.0143133
869.442	0.0143137
869.520	0.0146317
869.598	0.0144351
869.676	0.0143034
869.754	0.0144541
869.832	0.0143842
869.910	0.0143910
869.988	0.0143739
870.067	0.0144312
870.145	0.0142953
870.223	0.0143406
870.301	0.0144984
870.379	0.0145260
870.457	0.0144256
870.535	0.0145024
870.613	0.0144296
870.692	0.0144131
870.770	0.0143052
870.848	0.0143629
870.926	0.0144234
871.004	0.0144550
871.082	0.0143872
871.160	0.0145470
871.238	0.0143600
871.317	0.0143470
871.395	0.0143910
871.473	0.0143503
871.551	0.0142677
871.629	0.0143748
871.707	0.0144045
871.785	0.0143529
871.863	0.0143081
871.942	0.0143137
872.020	0.0143456
872.098	0.0143333
872.176	0.0142870
872.254	0.0142301
872.332	0.0142925
872.410	0.0141145
872.488	0.0142772
872.567	0.0142809
872.645	0.0141873
872.723	0.0142426
872.801	0.0141469
872.879	0.0142161
872.957	0.0142253
873.035	0.0142551
873.113	0.0142030
873.192	0.0142985
873.270	0.0143236
873.348	0.0143276
873.426	0.0142404
873.504	0.0142800
873.582	0.0143015
873.660	0.0143211
873.738	0.0142631
873.817	0.0143484
873.895	0.0143223
873.973	0.0142773
874.051	0.0143456
874.129	0.0143008
874.207	0.0141959
874.285	0.0142912
874.363	0.0143613
874.442	0.0142615
874.520	0.0143726
874.598	0.0142722
874.676	0.0143327
874.754	0.0143515
874.832	0.0144845
874.910	0.0145084
874.988	0.0143785
875.067	0.0144212
875.145	0.0145534
875.223	0.0145332
875.301	0.0144343
875.379	0.0143950
875.457	0.0144546
875.535	0.0145378
875.613	0.0144046
875.692	0.0144330
875.770	0.0144767
875.848	0.0145140
875.926	0.0143996
876.004	0.0143379
876.082	0.0143474
876.160	0.0143864
876.238	0.0145068
876.317	0.0144247
876.395	0.0143513
876.473	0.0143152
876.551	0.0143610
876.629	0.0143346
876.707	0.0143892
876.785	0.0144717
876.863	0.0142944
876.942	0.0142455
877.020	0.0143576
877.098	0.0143584
877.176	0.0142959
877.254	0.0142873
877.332	0.0141871
877.410	0.0139977
877.488	0.0141947
877.567	0.0142667
877.645	0.0143953
877.723	0.0143101
877.801	0.0140622
877.879	0.0141865
877.957	0.0142210
878.035	0.0142213
878.113	0.0141395
878.192	0.0142024
878.270	0.0141555
878.348	0.0140845
878.426	0.0140509
878.504	0.0141824
878.582	0.0141911
878.660	0.0141456
878.738	0.0141879
878.817	0.0142229
878.895	0.0142985
878.973	0.0142995
879.051	0.0142247
879.129	0.0142509
879.207	0.0142409
879.285	0.0143662
879.363	0.0143217
879.442	0.0141929
879.520	0.0143226
879.598	0.0142044
879.676	0.0141734
879.754	0.0143100
879.832	0.0141689
879.910	0.0141901
879.988	0.0142470
880.067	0.0141059
880.145	0.0141510
880.223	0.0142631
880.301	0.0141188
880.379	0.0141423
880.457	0.0142076
880.535	0.0142551
880.613	0.0140904
880.692	0.0140337
880.770	0.0140273
880.848	0.0139703
880.926	0.0141675
881.004	0.0141708
881.082	0.0141711
881.160	0.0141809
881.238	0.0141108
881.317	0.0142120
881.395	0.0140051
881.473	0.0141755
881.551	0.0141241
881.629	0.0142075
881.707	0.0142392
881.785	0.0142671
881.863	0.0141064
881.942	0.0141577
882.020	0.0141844
882.098	0.0142989
882.176	0.0142039
882.254	0.0143121
882.332	0.0142677
882.410	0.0141980
882.488	0.0143392
882.567	0.0143193
882.645	0.0142373
882.723	0.0143090
882.801	0.0142817
882.879	0.0143357
882.957	0.0144353
883.035	0.0144318
883.113	0.0142737
883.192	0.0144012
883.270	0.0144833
883.348	0.0144315
883.426	0.0144115
883.504	0.0144268
883.582	0.0145361
883.660	0.0146000
883.738	0.0144742
883.817	0.0145920
883.895	0.0145418
883.973	0.0145969
884.051	0.0147165
884.129	0.0146413
884.207	0.0146622
884.285	0.0146314
884.363	0.0144746
884.442	0.0145035
884.520	0.0145544
884.598	0.0145648
884.676	0.0146691
884.754	0.0146188
884.832	0.0146772
884.910	0.0145834
884.988	0.0144693
885.067	0.0145819
885.145	0.0145418
885.223	0.0144630
885.301	0.0146536
885.379	0.0145961
885.457	0.0145701
885.535	0.0145841
885.613	0.0145447
885.692	0.0145782
885.770	0.0146062
885.848	0.0145413
885.926	0.0145644
886.004	0.0145310
886.082	0.0144241
886.160	0.0145317
886.238	0.0145149
886.317	0.0144617
886.395	0.0144193
886.473	0.0144432
886.551	0.0145114
886.629	0.0145526
886.707	0.0144714
886.785	0.0144703
886.863	0.0144035
886.942	0.0143858
887.020	0.0144955
887.098	0.0145428
887.176	0.0144305
887.254	0.0144818
887.332	0.0145579
887.410	0.0144516
887.488	0.0144111
887.567	0.0145156
887.645	0.0144718
887.723	0.0144331
887.801	0.0143584
887.879	0.0144724
887.957	0.0144203
888.035	0.0143590
888.113	0.0142611
888.192	0.0143766
888.270	0.0144747
888.348	0.0143233
888.426	0.0144437
888.504	0.0143746
888.582	0.0142892
888.660	0.0143222
888.738	0.0143482
888.817	0.0143600
888.895	0.0143945
888.973	0.0144015
889.051	0.0143616
889.129	0.0143375
889.207	0.0142732
889.285	0.0143767
889.363	0.0143221
889.442	0.0144119
889.520	0.0142369
889.598	0.0142524
889.676	0.0143478
889.754	0.0143114
889.832	0.0144435
889.910	0.0142645
889.988	0.0142908
890.067	0.0144777
890.145	0.0143883
890.223	0.0143729
890.301	0.0142931
890.379	0.0142551
890.457	0.0142125
890.535	0.0142694
890.613	0.0142496
890.692	0.0144279
890.770	0.0144386
890.848	0.0143095
890.926	0.0142139
891.004	0.0142708
891.082	0.0143852
891.160	0.0143146
891.238	0.0143526
891.317	0.0142731
891.395	0.0143748
891.473	0.0142896
891.551	0.0144994
891.629	0.0143916
891.707	0.0143401
891.785	0.0143228
891.863	0.0142998
891.942	0.0143573
892.020	0.0144733
892.098	0.0142979
892.176	0.0143314
892.254	0.0143755
892.332	0.0144560
892.410	0.0145409
892.488	0.0144765
892.567	0.0144795
892.645	0.0144762
892.723	0.0144411
892.801	0.0144144
892.879	0.0143858
892.957	0.0145522
893.035	0.0145191
893.113	0.0142962
893.192	0.0144278
893.270	0.0145345
893.348	0.0143489
893.426	0.0142748
893.504	0.0143661
893.582	0.0143024
893.660	0.0142389
893.738	0.0144037
893.817	0.0142233
893.895	0.0143239
893.973	0.0142089
894.051	0.0142300
894.129	0.0142474
894.207	0.0142736
894.285	0.0142947
894.363	0.0143959
894.442	0.0142714
894.520	0.0142221
894.598	0.0142627
894.676	0.0142270
894.754	0.0142014
894.832	0.0142307
894.910	0.0141283
894.988	0.0142606
895.067	0.0140973
895.145	0.0142339
895.223	0.0142538
895.301	0.0143562
895.379	0.0142266
895.457	0.0142087
895.535	0.0142750
895.613	0.0143842
895.692	0.0141558
895.770	0.0143800
895.848	0.0143704
895.926	0.0143095
896.004	0.0142763
896.082	0.0142781
896.160	0.0143500
896.238	0.0142564
896.317	0.0145061
896.395	0.0144633
896.473	0.0144536
896.551	0.0143590
896.629	0.0143502
896.707	0.0144231
896.785	0.0144325
896.863	0.0145544
896.942	0.0144898
897.020	0.0143156
897.098	0.0143560
897.176	0.0143652
897.254	0.0144301
897.332	0.0144501
897.410	0.0143450
897.488	0.0144084
897.567	0.0143930
897.645	0.0144058
897.723	0.0143574
897.801	0.0143362
897.879	0.0143424
897.957	0.0142983
898.035	0.0143716
898.113	0.0144485
898.192	0.0143353
898.270	0.0143386
898.348	0.0145377
898.426	0.0142854
898.504	0.0143086
898.582	0.0143948
898.660	0.0144202
898.738	0.0142961
898.817	0.0141930
898.895	0.0142511
898.973	0.0144128
899.051	0.0143916
899.129	0.0142471
899.207	0.0143962
899.285	0.0143353
899.363	0.0144438
899.442	0.0144498
899.520	0.0143311
899.598	0.0142715
899.676	0.0142742
899.754	0.0144023
899.832	0.0143943
899.910	0.0144498
899.988	0.0142139
900.067	0.0142906
900.145	0.0144044
900.223	0.0142988
900.301	0.0143451
900.379	0.0143074
900.457	0.0143611
900.535	0.0144109
900.613	0.0144751
900.692	0.0143559
900.770	0.0144012
900.848	0.0144313
900.926	0.0143555
901.004	0.0145413
901.082	0.0144188
901.160	0.0143568
901.238	0.0143835
901.317	0.0142755
901.395	0.0144230
901.473	0.0144042
901.551	0.0144320
901.629	0.0144553
901.707	0.0143857
901.785	0.0145650
901.863	0.0142826
901.942	0.0144003
902.020	0.0143051
902.098	0.0142519
902.176	0.0144725
902.254	0.0144010
902.332	0.0144096
902.410	0.0144008
902.488	0.0144002
902.567	0.0143512
902.645	0.0143318
902.723	0.0143106
902.801	0.0144093
902.879	0.0142292
902.957	0.0143526
903.035	0.0143134
903.113	0.0141248
903.192	0.0143209
903.270	0.0143363
903.348	0.0142492
903.426	0.0142081
903.504	0.0143226
903.582	0.0144704
903.660	0.0143592
903.738	0.0142348
903.817	0.0142386
903.895	0.0142470
903.973	0.0142220
904.051	0.0142005
904.129	0.0144275
904.207	0.0142046
904.285	0.0141217
904.363	0.0143100
904.442	0.0143014
904.520	0.0142813
904.598	0.0142903
904.676	0.0141553
904.754	0.0142760
904.832	0.0143623
904.910	0.0142180
904.988	0.0141151
905.067	0.0142632
905.145	0.0143062
905.223	0.0143852
905.301	0.0142435
905.379	0.0142775
905.457	0.0143797
905.535	0.0142245
905.613	0.0143120
905.692	0.0143852
905.770	0.0145055
905.848	0.0143758
905.926	0.0143542
906.004	0.0141497
906.082	0.0142263
906.160	0.0143356
906.238	0.0142787
906.317	0.0141692
906.395	0.0141991
906.473	0.0144418
906.551	0.0141584
906.629	0.0142312
906.707	0.0143174
906.785	0.0141914
906.863	0.0141664
906.942	0.0143073
907.020	0.0143130
907.098	0.0142469
907.176	0.0141576
907.254	0.0141536
907.332	0.0142053
907.410	0.0142017
907.488	0.0143085
907.567	0.0142388
907.645	0.0142065
907.723	0.0143175
907.801	0.0142585
907.879	0.0142365
907.957	0.0143060
908.035	0.0141109
908.113	0.0142519
908.192	0.0144202
908.270	0.0145103
908.348	0.0143534
908.426	0.0142706
908.504	0.0142397
908.582	0.0143271
908.660	0.0143291
908.738	0.0144569
908.817	0.0143880
908.895	0.0143677
908.973	0.0142121
909.051	0.0142516
909.129	0.0143426
909.207	0.0144281
909.285	0.0144878
909.363	0.0143221
909.442	0.0143036
909.520	0.0144106
909.598	0.0143294
909.676	0.0143917
909.754	0.0143416
909.832	0.0144032
909.910	0.0144347
909.988	0.0143747
910.067	0.0144210
910.145	0.0144689
910.223	0.0143465
910.301	0.0145345
910.379	0.0144891
910.457	0.0144904
910.535	0.0144661
910.613	0.0143728
910.692	0.0144685
910.770	0.0144201
910.848	0.0145335
910.926	0.0144142
911.004	0.0143477
911.082	0.0143704
911.160	0.0144686
911.238	0.0142266
911.317	0.0143789
911.395	0.0143292
911.473	0.0144716
911.551	0.0144145
911.629	0.0144735
911.707	0.0144046
911.785	0.0143579
911.863	0.0143430
911.942	0.0143686
912.020	0.0142683
912.098	0.0142971
912.176	0.0142875
912.254	0.0141661
912.332	0.0144159
912.410	0.0142855
912.488	0.0143588
912.567	0.0143559
912.645	0.0143964
912.723	0.0143996
912.801	0.0142803
912.879	0.0142939
912.957	0.0144524
913.035	0.0144653
913.113	0.0143286
913.192	0.0143566
913.270	0.0144333
913.348	0.0143999
913.426	0.0144072
913.504	0.0144530
913.582	0.0145253
913.660	0.0144227
913.738	0.0144363
913.817	0.0144417
913.895	0.0144229
913.973	0.0145025
914.051	0.0144397
914.129	0.0145428
914.207	0.0144521
914.285	0.0144395
914.363	0.0145808
914.442	0.0145267
914.520	0.0144843
914.598	0.0144704
914.676	0.0144500
914.754	0.0145386
914.832	0.0145176
914.910	0.0144936
914.988	0.0144281
915.067	0.0144479
915.145	0.0145534
915.223	0.0143499
915.301	0.0144400
915.379	0.0144572
915.457	0.0144498
915.535	0.0143230
915.613	0.0144261
915.692	0.0145021
915.770	0.0143507
915.848	0.0144267
915.926	0.0145521
916.004	0.0145706
916.082	0.0144086
916.160	0.0144770
916.238	0.0144394
916.317	0.0145242
916.395	0.0145387
916.473	0.0144535
916.551	0.0144294
916.629	0.0145108
916.707	0.0145491
916.785	0.0146959
916.863	0.0145628
916.942	0.0143411
917.020	0.0144999
917.098	0.0143527
917.176	0.0145183
917.254	0.0145192
917.332	0.0144309
917.410	0.0145416
917.488	0.0146465
917.567	0.0145213
917.645	0.0144409
917.723	0.0145495
917.801	0.0143975
917.879	0.0144029
917.957	0.0144896
918.035	0.0144274
918.113	0.0143890
918.192	0.0143938
918.270	0.0144112
918.348	0.0145678
918.426	0.0144855
918.504	0.0145494
918.582	0.0145340
918.660	0.0144513
918.738	0.0144151
918.817	0.0143589
918.895	0.0143430
918.973	0.0143230
919.051	0.0143338
919.129	0.0144463
919.207	0.0144517
919.285	0.0144563
919.363	0.0142976
919.442	0.0143451
919.520	0.0144247
919.598	0.0143231
919.676	0.0143918
919.754	0.0142904
919.832	0.0142477
919.910	0.0143755
