05/28/2022	14:31:17	Ver.	4.1	UNKNOWN
Optical Delay	599.988409	Delta X		0.078125	Sweeps	1	Scan Rate	0/0
Coordinates	Axis 1	NaN	Axis 2	NaN	Axis 3	NaN	Axis 4	NaN	Axis 5	NaN	Axis 6	0.000000
TX Power	0.000000	RX Power	0.000000

599.988	0.0141302
600.067	0.0142269
600.145	0.0140340
600.223	0.0142075
600.301	0.0139221
600.379	0.0140121
600.457	0.0141750
600.535	0.0140675
600.613	0.0139659
600.692	0.0140956
600.770	0.0140522
600.848	0.0140901
600.926	0.0142199
601.004	0.0140744
601.082	0.0140606
601.160	0.0141286
601.238	0.0141506
601.317	0.0142319
601.395	0.0142766
601.473	0.0142825
601.551	0.0141533
601.629	0.0141360
601.707	0.0142331
601.785	0.0141900
601.863	0.0142510
601.942	0.0143425
602.020	0.0143274
602.098	0.0143458
602.176	0.0143170
602.254	0.0142754
602.332	0.0144292
602.410	0.0144330
602.488	0.0143484
602.567	0.0143349
602.645	0.0143192
602.723	0.0145335
602.801	0.0144979
602.879	0.0144595
602.957	0.0144252
603.035	0.0142942
603.113	0.0143620
603.192	0.0144091
603.270	0.0144572
603.348	0.0145235
603.426	0.0143687
603.504	0.0144289
603.582	0.0144254
603.660	0.0145026
603.738	0.0143224
603.817	0.0142332
603.895	0.0144533
603.973	0.0144487
604.051	0.0143546
604.129	0.0143166
604.207	0.0143958
604.285	0.0142693
604.363	0.0144335
604.442	0.0143945
604.520	0.0144405
604.598	0.0145245
604.676	0.0144362
604.754	0.0144252
604.832	0.0143776
604.910	0.0144335
604.988	0.0144277
605.067	0.0144378
605.145	0.0143932
605.223	0.0143906
605.301	0.0143988
605.379	0.0142265
605.457	0.0143084
605.535	0.0142171
605.613	0.0142913
605.692	0.0143243
605.770	0.0143164
605.848	0.0142983
605.926	0.0143411
606.004	0.0143099
606.082	0.0144653
606.160	0.0144444
606.238	0.0143568
606.317	0.0144013
606.395	0.0142345
606.473	0.0142522
606.551	0.0143532
606.629	0.0143661
606.707	0.0144370
606.785	0.0144081
606.863	0.0143594
606.942	0.0143876
607.020	0.0143009
607.098	0.0143723
607.176	0.0143851
607.254	0.0142989
607.332	0.0143255
607.410	0.0143775
607.488	0.0143064
607.567	0.0143528
607.645	0.0143146
607.723	0.0143038
607.801	0.0142892
607.879	0.0143031
607.957	0.0144097
608.035	0.0141790
608.113	0.0142933
608.192	0.0143531
608.270	0.0142031
608.348	0.0144591
608.426	0.0142788
608.504	0.0144263
608.582	0.0143164
608.660	0.0142881
608.738	0.0143813
608.817	0.0142944
608.895	0.0143496
608.973	0.0144045
609.051	0.0143961
609.129	0.0143315
609.207	0.0142186
609.285	0.0143216
609.363	0.0144385
609.442	0.0145415
609.520	0.0144377
609.598	0.0143259
609.676	0.0144747
609.754	0.0144747
609.832	0.0145491
609.910	0.0145707
609.988	0.0144651
610.067	0.0145113
610.145	0.0143373
610.223	0.0143532
610.301	0.0145331
610.379	0.0144547
610.457	0.0145759
610.535	0.0144429
610.613	0.0145207
610.692	0.0144665
610.770	0.0144952
610.848	0.0143875
610.926	0.0143951
611.004	0.0143804
611.082	0.0144740
611.160	0.0144875
611.238	0.0143269
611.317	0.0143279
611.395	0.0145278
611.473	0.0144090
611.551	0.0144893
611.629	0.0144019
611.707	0.0145108
611.785	0.0143885
611.863	0.0143680
611.942	0.0143608
612.020	0.0143329
612.098	0.0144497
612.176	0.0143942
612.254	0.0143365
612.332	0.0143136
612.410	0.0143443
612.488	0.0143517
612.567	0.0144985
612.645	0.0143672
612.723	0.0143301
612.801	0.0144404
612.879	0.0143296
612.957	0.0143372
613.035	0.0144054
613.113	0.0143494
613.192	0.0143382
613.270	0.0142876
613.348	0.0142820
613.426	0.0142068
613.504	0.0143894
613.582	0.0144498
613.660	0.0142547
613.738	0.0142123
613.817	0.0142921
613.895	0.0142469
613.973	0.0142533
614.051	0.0142395
614.129	0.0142618
614.207	0.0142466
614.285	0.0143279
614.363	0.0143921
614.442	0.0142257
614.520	0.0142779
614.598	0.0145559
614.676	0.0142966
614.754	0.0141736
614.832	0.0143373
614.910	0.0143072
614.988	0.0142178
615.067	0.0143918
615.145	0.0142941
615.223	0.0143519
615.301	0.0142835
615.379	0.0142255
615.457	0.0143293
615.535	0.0141910
615.613	0.0143841
615.692	0.0143674
615.770	0.0143814
615.848	0.0142510
615.926	0.0143114
616.004	0.0143205
616.082	0.0143170
616.160	0.0142708
616.238	0.0144009
616.317	0.0143830
616.395	0.0143378
616.473	0.0142819
616.551	0.0142520
616.629	0.0143024
616.707	0.0143801
616.785	0.0144691
616.863	0.0143824
616.942	0.0143964
617.020	0.0143349
617.098	0.0144467
617.176	0.0143223
617.254	0.0142145
617.332	0.0145079
617.410	0.0143301
617.488	0.0144072
617.567	0.0144044
617.645	0.0143916
617.723	0.0142249
617.801	0.0143463
617.879	0.0143119
617.957	0.0144025
618.035	0.0143206
618.113	0.0143210
618.192	0.0143494
618.270	0.0145182
618.348	0.0144478
618.426	0.0143781
618.504	0.0143194
618.582	0.0144637
618.660	0.0144709
618.738	0.0143461
618.817	0.0144556
618.895	0.0144360
618.973	0.0143142
619.051	0.0144215
619.129	0.0144190
619.207	0.0143290
619.285	0.0144657
619.363	0.0144518
619.442	0.0143139
619.520	0.0143026
619.598	0.0142576
619.676	0.0143243
619.754	0.0142889
619.832	0.0143943
619.910	0.0143671
619.988	0.0145435
620.067	0.0143285
620.145	0.0142719
620.223	0.0143886
620.301	0.0144466
620.379	0.0143251
620.457	0.0142591
620.535	0.0143477
620.613	0.0142983
620.692	0.0142976
620.770	0.0143764
620.848	0.0143135
620.926	0.0143277
621.004	0.0143228
621.082	0.0143798
621.160	0.0142786
621.238	0.0141626
621.317	0.0143446
621.395	0.0142519
621.473	0.0143153
621.551	0.0142385
621.629	0.0143512
621.707	0.0140919
621.785	0.0142295
621.863	0.0142110
621.942	0.0141803
622.020	0.0141538
622.098	0.0143171
622.176	0.0142268
622.254	0.0142663
622.332	0.0142020
622.410	0.0142094
622.488	0.0142847
622.567	0.0142475
622.645	0.0143322
622.723	0.0140818
622.801	0.0143050
622.879	0.0143080
622.957	0.0142584
623.035	0.0142599
623.113	0.0142010
623.192	0.0142822
623.270	0.0142783
623.348	0.0143149
623.426	0.0142232
623.504	0.0142239
623.582	0.0141692
623.660	0.0142910
623.738	0.0141895
623.817	0.0141284
623.895	0.0142278
623.973	0.0141980
624.051	0.0140470
624.129	0.0141476
624.207	0.0141409
624.285	0.0141392
624.363	0.0140815
624.442	0.0142189
624.520	0.0140115
624.598	0.0141169
624.676	0.0140444
624.754	0.0140427
624.832	0.0140721
624.910	0.0141405
624.988	0.0141873
625.067	0.0140847
625.145	0.0140350
625.223	0.0141407
625.301	0.0140989
625.379	0.0142043
625.457	0.0141499
625.535	0.0142033
625.613	0.0141770
625.692	0.0141129
625.770	0.0142760
625.848	0.0141949
625.926	0.0141957
626.004	0.0142991
626.082	0.0142220
626.160	0.0143693
626.238	0.0142316
626.317	0.0142979
626.395	0.0142569
626.473	0.0143342
626.551	0.0142642
626.629	0.0142750
626.707	0.0143703
626.785	0.0142555
626.863	0.0143256
626.942	0.0144204
627.020	0.0143477
627.098	0.0143783
627.176	0.0144434
627.254	0.0142661
627.332	0.0142085
627.410	0.0143437
627.488	0.0142822
627.567	0.0141692
627.645	0.0143426
627.723	0.0141882
627.801	0.0142171
627.879	0.0142509
627.957	0.0143131
628.035	0.0141323
628.113	0.0141390
628.192	0.0142340
628.270	0.0143324
628.348	0.0143526
628.426	0.0141885
628.504	0.0142715
628.582	0.0142621
628.660	0.0142887
628.738	0.0143663
628.817	0.0143095
628.895	0.0143303
628.973	0.0142692
629.051	0.0144911
629.129	0.0143360
629.207	0.0144672
629.285	0.0145082
629.363	0.0142917
629.442	0.0145155
629.520	0.0144270
629.598	0.0143867
629.676	0.0144749
629.754	0.0144469
629.832	0.0143965
629.910	0.0144221
629.988	0.0142310
630.067	0.0142948
630.145	0.0144165
630.223	0.0142181
630.301	0.0142633
630.379	0.0143613
630.457	0.0142181
630.535	0.0142394
630.613	0.0142956
630.692	0.0143316
630.770	0.0142805
630.848	0.0144021
630.926	0.0144432
631.004	0.0143867
631.082	0.0145098
631.160	0.0144523
631.238	0.0144196
631.317	0.0144786
631.395	0.0145155
631.473	0.0144917
631.551	0.0143705
631.629	0.0145625
631.707	0.0145860
631.785	0.0146395
631.863	0.0146404
631.942	0.0144826
632.020	0.0147142
632.098	0.0145874
632.176	0.0144893
632.254	0.0144380
632.332	0.0145252
632.410	0.0143740
632.488	0.0143224
632.567	0.0144107
632.645	0.0143168
632.723	0.0142097
632.801	0.0142400
632.879	0.0142580
632.957	0.0139991
633.035	0.0140916
633.113	0.0138700
633.192	0.0139565
633.270	0.0139651
633.348	0.0140181
633.426	0.0138517
633.504	0.0139122
633.582	0.0138921
633.660	0.0138592
633.738	0.0140578
633.817	0.0140555
633.895	0.0140360
633.973	0.0141959
634.051	0.0140791
634.129	0.0141527
634.207	0.0143611
634.285	0.0145327
634.363	0.0144353
634.442	0.0144714
634.520	0.0144032
634.598	0.0144585
634.676	0.0145028
634.754	0.0145084
634.832	0.0145559
634.910	0.0145736
634.988	0.0145364
635.067	0.0144200
635.145	0.0144215
635.223	0.0144937
635.301	0.0145740
635.379	0.0143383
635.457	0.0146302
635.535	0.0145979
635.613	0.0146033
635.692	0.0143115
635.770	0.0143593
635.848	0.0144372
635.926	0.0145084
636.004	0.0145535
636.082	0.0144479
636.160	0.0144038
636.238	0.0145294
636.317	0.0144877
636.395	0.0145657
636.473	0.0145385
636.551	0.0145181
636.629	0.0144852
636.707	0.0143783
636.785	0.0144736
636.863	0.0145518
636.942	0.0144444
637.020	0.0144286
637.098	0.0144820
637.176	0.0143420
637.254	0.0142351
637.332	0.0143053
637.410	0.0143127
637.488	0.0141130
637.567	0.0141527
637.645	0.0141476
637.723	0.0140236
637.801	0.0139590
637.879	0.0141147
637.957	0.0142105
638.035	0.0141461
638.113	0.0140973
638.192	0.0140989
638.270	0.0140746
638.348	0.0141364
638.426	0.0142403
638.504	0.0142319
638.582	0.0141514
638.660	0.0141698
638.738	0.0143036
638.817	0.0142154
638.895	0.0143497
638.973	0.0142931
639.051	0.0141261
639.129	0.0142700
639.207	0.0143469
639.285	0.0143085
639.363	0.0143988
639.442	0.0144756
639.520	0.0145856
639.598	0.0147004
639.676	0.0145690
639.754	0.0145763
639.832	0.0146249
639.910	0.0145884
639.988	0.0147257
640.067	0.0146795
640.145	0.0146523
640.223	0.0146059
640.301	0.0146095
640.379	0.0145806
640.457	0.0144646
640.535	0.0146158
640.613	0.0144505
640.692	0.0143545
640.770	0.0144973
640.848	0.0143704
640.926	0.0144331
641.004	0.0143548
641.082	0.0143548
641.160	0.0142401
641.238	0.0141335
641.317	0.0142110
641.395	0.0143472
641.473	0.0143610
641.551	0.0142820
641.629	0.0143172
641.707	0.0143370
641.785	0.0142929
641.863	0.0144178
641.942	0.0144400
642.020	0.0143586
642.098	0.0143385
642.176	0.0143195
642.254	0.0141521
642.332	0.0142297
642.410	0.0140972
642.488	0.0142234
642.567	0.0143448
642.645	0.0141947
642.723	0.0140472
642.801	0.0141512
642.879	0.0141756
642.957	0.0141786
643.035	0.0142806
643.113	0.0143142
643.192	0.0143776
643.270	0.0142784
643.348	0.0143255
643.426	0.0144286
643.504	0.0144527
643.582	0.0142870
643.660	0.0143260
643.738	0.0144843
643.817	0.0142525
643.895	0.0143391
643.973	0.0143601
644.051	0.0142721
644.129	0.0142708
644.207	0.0143027
644.285	0.0142213
644.363	0.0142487
644.442	0.0143047
644.520	0.0142868
644.598	0.0143214
644.676	0.0144385
644.754	0.0144571
644.832	0.0144299
644.910	0.0144841
644.988	0.0144530
645.067	0.0145782
645.145	0.0145675
645.223	0.0145117
645.301	0.0145316
645.379	0.0145540
645.457	0.0146382
645.535	0.0146497
645.613	0.0145599
645.692	0.0145327
645.770	0.0145590
645.848	0.0146708
645.926	0.0144892
646.004	0.0144746
646.082	0.0143711
646.160	0.0144491
646.238	0.0145198
646.317	0.0142754
646.395	0.0142103
646.473	0.0142925
646.551	0.0141888
646.629	0.0141049
646.707	0.0140808
646.785	0.0141721
646.863	0.0141043
646.942	0.0141425
647.020	0.0140894
647.098	0.0139998
647.176	0.0140872
647.254	0.0140086
647.332	0.0142036
647.410	0.0142829
647.488	0.0142514
647.567	0.0142409
647.645	0.0141740
647.723	0.0142847
647.801	0.0142963
647.879	0.0143134
647.957	0.0143989
648.035	0.0143572
648.113	0.0144588
648.192	0.0144620
648.270	0.0143346
648.348	0.0144025
648.426	0.0144694
648.504	0.0144800
648.582	0.0143221
648.660	0.0143420
648.738	0.0144086
648.817	0.0143509
648.895	0.0143436
648.973	0.0143942
649.051	0.0145815
649.129	0.0145271
649.207	0.0145453
649.285	0.0143685
649.363	0.0142977
649.442	0.0144827
649.520	0.0144817
649.598	0.0143600
649.676	0.0142787
649.754	0.0143681
649.832	0.0143011
649.910	0.0144196
649.988	0.0142593
650.067	0.0141631
650.145	0.0141234
650.223	0.0142464
650.301	0.0140528
650.379	0.0140707
650.457	0.0141104
650.535	0.0141205
650.613	0.0139845
650.692	0.0139536
650.770	0.0140376
650.848	0.0140639
650.926	0.0141486
651.004	0.0141118
651.082	0.0140902
651.160	0.0141309
651.238	0.0141960
651.317	0.0141032
651.395	0.0142462
651.473	0.0142456
651.551	0.0141476
651.629	0.0142850
651.707	0.0142525
651.785	0.0143168
651.863	0.0143123
651.942	0.0143835
652.020	0.0144253
652.098	0.0146492
652.176	0.0145377
652.254	0.0146661
652.332	0.0146275
652.410	0.0145602
652.488	0.0146204
652.567	0.0146277
652.645	0.0147516
652.723	0.0147514
652.801	0.0147245
652.879	0.0146340
652.957	0.0146591
653.035	0.0146206
653.113	0.0146891
653.192	0.0147484
653.270	0.0147430
653.348	0.0145835
653.426	0.0146137
653.504	0.0146477
653.582	0.0146821
653.660	0.0147209
653.738	0.0146686
653.817	0.0147034
653.895	0.0147879
653.973	0.0147025
654.051	0.0147906
654.129	0.0146341
654.207	0.0145635
654.285	0.0145306
654.363	0.0143638
654.442	0.0146055
654.520	0.0145507
654.598	0.0142412
654.676	0.0143961
654.754	0.0143089
654.832	0.0142287
654.910	0.0142747
654.988	0.0143047
655.067	0.0141554
655.145	0.0142056
655.223	0.0141681
655.301	0.0141952
655.379	0.0142847
655.457	0.0140913
655.535	0.0142059
655.613	0.0142016
655.692	0.0140932
655.770	0.0142158
655.848	0.0141239
655.926	0.0141634
656.004	0.0140942
656.082	0.0139944
656.160	0.0141834
656.238	0.0142237
656.317	0.0140858
656.395	0.0141329
656.473	0.0141714
656.551	0.0142310
656.629	0.0141149
656.707	0.0141547
656.785	0.0143666
656.863	0.0144045
656.942	0.0143060
657.020	0.0144739
657.098	0.0144196
657.176	0.0144012
657.254	0.0143483
657.332	0.0143204
657.410	0.0144333
657.488	0.0144477
657.567	0.0144089
657.645	0.0144400
657.723	0.0146464
657.801	0.0144019
657.879	0.0144866
657.957	0.0144913
658.035	0.0143063
658.113	0.0144354
658.192	0.0145808
658.270	0.0144392
658.348	0.0145660
658.426	0.0144556
658.504	0.0143933
658.582	0.0143340
658.660	0.0143909
658.738	0.0143875
658.817	0.0144064
658.895	0.0143674
658.973	0.0142493
659.051	0.0142537
659.129	0.0142261
659.207	0.0143858
659.285	0.0141667
659.363	0.0139953
659.442	0.0142176
659.520	0.0142559
659.598	0.0142255
659.676	0.0142445
659.754	0.0140803
659.832	0.0141029
659.910	0.0141493
659.988	0.0141566
660.067	0.0141126
660.145	0.0141204
660.223	0.0141075
660.301	0.0140188
660.379	0.0139915
660.457	0.0140597
660.535	0.0141238
660.613	0.0140931
660.692	0.0139681
660.770	0.0139748
660.848	0.0139009
660.926	0.0139080
661.004	0.0139266
661.082	0.0139707
661.160	0.0140028
661.238	0.0140112
661.317	0.0139555
661.395	0.0140737
661.473	0.0139750
661.551	0.0141036
661.629	0.0140874
661.707	0.0143680
661.785	0.0142462
661.863	0.0144265
661.942	0.0144997
662.020	0.0145991
662.098	0.0145498
662.176	0.0146236
662.254	0.0147336
662.332	0.0146112
662.410	0.0147988
662.488	0.0148602
662.567	0.0148537
662.645	0.0147966
662.723	0.0148479
662.801	0.0148373
662.879	0.0148288
662.957	0.0147865
663.035	0.0148257
663.113	0.0148650
663.192	0.0148556
663.270	0.0147616
663.348	0.0149066
663.426	0.0146729
663.504	0.0149434
663.582	0.0148386
663.660	0.0148560
663.738	0.0147768
663.817	0.0148022
663.895	0.0147193
663.973	0.0147190
664.051	0.0145175
664.129	0.0146273
664.207	0.0145995
664.285	0.0144606
664.363	0.0144185
664.442	0.0141958
664.520	0.0142130
664.598	0.0140962
664.676	0.0140902
664.754	0.0141726
664.832	0.0139283
664.910	0.0139567
664.988	0.0140327
665.067	0.0138159
665.145	0.0136534
665.223	0.0138220
665.301	0.0138554
665.379	0.0138158
665.457	0.0138072
665.535	0.0137920
665.613	0.0138537
665.692	0.0138273
665.770	0.0140002
665.848	0.0139465
665.926	0.0140212
666.004	0.0140848
666.082	0.0141589
666.160	0.0142344
666.238	0.0143918
666.317	0.0144125
666.395	0.0145064
666.473	0.0145650
666.551	0.0145999
666.629	0.0145928
666.707	0.0148142
666.785	0.0147517
666.863	0.0147283
666.942	0.0148080
667.020	0.0148305
667.098	0.0147659
667.176	0.0147922
667.254	0.0147059
667.332	0.0148219
667.410	0.0146562
667.488	0.0145741
667.567	0.0145602
667.645	0.0144781
667.723	0.0143885
667.801	0.0144116
667.879	0.0143213
667.957	0.0143586
668.035	0.0141573
668.113	0.0140150
668.192	0.0141130
668.270	0.0140676
668.348	0.0139488
668.426	0.0138400
668.504	0.0139612
668.582	0.0138922
668.660	0.0139080
668.738	0.0138958
668.817	0.0139317
668.895	0.0140051
668.973	0.0139120
669.051	0.0141541
669.129	0.0141286
669.207	0.0142143
669.285	0.0142780
669.363	0.0143633
669.442	0.0143745
669.520	0.0144953
669.598	0.0145181
669.676	0.0146021
669.754	0.0146317
669.832	0.0145363
669.910	0.0147419
669.988	0.0147762
670.067	0.0148473
670.145	0.0148536
670.223	0.0149149
670.301	0.0148646
670.379	0.0148598
670.457	0.0148110
670.535	0.0146416
670.613	0.0147489
670.692	0.0145061
670.770	0.0143712
670.848	0.0142167
670.926	0.0143204
671.004	0.0141582
671.082	0.0140434
671.160	0.0140186
671.238	0.0139918
671.317	0.0139323
671.395	0.0140591
671.473	0.0140871
671.551	0.0141429
671.629	0.0140570
671.707	0.0142158
671.785	0.0143606
671.863	0.0143192
671.942	0.0142886
672.020	0.0144946
672.098	0.0146438
672.176	0.0146986
672.254	0.0148218
672.332	0.0147778
672.410	0.0149192
672.488	0.0149186
672.567	0.0149352
672.645	0.0147516
672.723	0.0148376
672.801	0.0147749
672.879	0.0147259
672.957	0.0144526
673.035	0.0145561
673.113	0.0144123
673.192	0.0142991
673.270	0.0141508
673.348	0.0139275
673.426	0.0139873
673.504	0.0137913
673.582	0.0137185
673.660	0.0138079
673.738	0.0137457
673.817	0.0136026
673.895	0.0137904
673.973	0.0137101
674.051	0.0136026
674.129	0.0138700
674.207	0.0139172
674.285	0.0139175
674.363	0.0139633
674.442	0.0139368
674.520	0.0139259
674.598	0.0142112
674.676	0.0142872
674.754	0.0143198
674.832	0.0143790
674.910	0.0145514
674.988	0.0145126
675.067	0.0145697
675.145	0.0146340
675.223	0.0147810
675.301	0.0146109
675.379	0.0147557
675.457	0.0147572
675.535	0.0147134
675.613	0.0146425
675.692	0.0146276
675.770	0.0147932
675.848	0.0146841
675.926	0.0146682
676.004	0.0147318
676.082	0.0148080
676.160	0.0145477
676.238	0.0145721
676.317	0.0146535
676.395	0.0145698
676.473	0.0143861
676.551	0.0143977
676.629	0.0142777
676.707	0.0143857
676.785	0.0142885
676.863	0.0142128
676.942	0.0142925
677.020	0.0141019
677.098	0.0140340
677.176	0.0140324
677.254	0.0141425
677.332	0.0140478
677.410	0.0140598
677.488	0.0139640
677.567	0.0139773
677.645	0.0139569
677.723	0.0141496
677.801	0.0140584
677.879	0.0139294
677.957	0.0139695
678.035	0.0138527
678.113	0.0139367
678.192	0.0139272
678.270	0.0139546
678.348	0.0139165
678.426	0.0138978
678.504	0.0139044
678.582	0.0140202
678.660	0.0139274
678.738	0.0137961
678.817	0.0139559
678.895	0.0139289
678.973	0.0140032
679.051	0.0140647
679.129	0.0141064
679.207	0.0142037
679.285	0.0141292
679.363	0.0142864
679.442	0.0143342
679.520	0.0144024
679.598	0.0145074
679.676	0.0144353
679.754	0.0145515
679.832	0.0146011
679.910	0.0146427
679.988	0.0146003
680.067	0.0147110
680.145	0.0147188
680.223	0.0147050
680.301	0.0147402
680.379	0.0147798
680.457	0.0147828
680.535	0.0148142
680.613	0.0147430
680.692	0.0146936
680.770	0.0148351
680.848	0.0148648
680.926	0.0148157
681.004	0.0145720
681.082	0.0144516
681.160	0.0146384
681.238	0.0144656
681.317	0.0144983
681.395	0.0143372
681.473	0.0143165
681.551	0.0141434
681.629	0.0140413
681.707	0.0139571
681.785	0.0138795
681.863	0.0137412
681.942	0.0136430
682.020	0.0136313
682.098	0.0137573
682.176	0.0138023
682.254	0.0137871
682.332	0.0136227
682.410	0.0137196
682.488	0.0138329
682.567	0.0136243
682.645	0.0136298
682.723	0.0137419
682.801	0.0138882
682.879	0.0137680
682.957	0.0139613
683.035	0.0140575
683.113	0.0140290
683.192	0.0142717
683.270	0.0144635
683.348	0.0145014
683.426	0.0145334
683.504	0.0146934
683.582	0.0147111
683.660	0.0147334
683.738	0.0148718
683.817	0.0150784
683.895	0.0152579
683.973	0.0152967
684.051	0.0151086
684.129	0.0154475
684.207	0.0155433
684.285	0.0154742
684.363	0.0153168
684.442	0.0152959
684.520	0.0154032
684.598	0.0152571
684.676	0.0151405
684.754	0.0150781
684.832	0.0150485
684.910	0.0149994
684.988	0.0148257
685.067	0.0148055
685.145	0.0146114
685.223	0.0143940
685.301	0.0144336
685.379	0.0144567
685.457	0.0142419
685.535	0.0142068
685.613	0.0140639
685.692	0.0141083
685.770	0.0140324
685.848	0.0139381
685.926	0.0139915
686.004	0.0141656
686.082	0.0140424
686.160	0.0139314
686.238	0.0139445
686.317	0.0138635
686.395	0.0139925
686.473	0.0141286
686.551	0.0139855
686.629	0.0140356
686.707	0.0138832
686.785	0.0140601
686.863	0.0139447
686.942	0.0140884
687.020	0.0140471
687.098	0.0142226
687.176	0.0142755
687.254	0.0142043
687.332	0.0143688
687.410	0.0143497
687.488	0.0142211
687.567	0.0143810
687.645	0.0144058
687.723	0.0146790
687.801	0.0145120
687.879	0.0145835
687.957	0.0146492
688.035	0.0146922
688.113	0.0146861
688.192	0.0147233
688.270	0.0148407
688.348	0.0147875
688.426	0.0148814
688.504	0.0148501
688.582	0.0148571
688.660	0.0148446
688.738	0.0147469
688.817	0.0146778
688.895	0.0146856
688.973	0.0146208
689.051	0.0146449
689.129	0.0146307
689.207	0.0145119
689.285	0.0145519
689.363	0.0143640
689.442	0.0144714
689.520	0.0144283
689.598	0.0143835
689.676	0.0142538
689.754	0.0141373
689.832	0.0141698
689.910	0.0140091
689.988	0.0139705
690.067	0.0139469
690.145	0.0138937
690.223	0.0137524
690.301	0.0137318
690.379	0.0138821
690.457	0.0137814
690.535	0.0137382
690.613	0.0137922
690.692	0.0136256
690.770	0.0137520
690.848	0.0138550
690.926	0.0136938
691.004	0.0138325
691.082	0.0137010
691.160	0.0136995
691.238	0.0137988
691.317	0.0136406
691.395	0.0137623
691.473	0.0136897
691.551	0.0137631
691.629	0.0138428
691.707	0.0137390
691.785	0.0137745
691.863	0.0139923
691.942	0.0139773
692.020	0.0140186
692.098	0.0140620
692.176	0.0140689
692.254	0.0142339
692.332	0.0144106
692.410	0.0144267
692.488	0.0146026
692.567	0.0146792
692.645	0.0146574
692.723	0.0148670
692.801	0.0149667
692.879	0.0150070
692.957	0.0152115
693.035	0.0150127
693.113	0.0149929
693.192	0.0152810
693.270	0.0151904
693.348	0.0152477
693.426	0.0152848
693.504	0.0151279
693.582	0.0153173
693.660	0.0151891
693.738	0.0150294
693.817	0.0150574
693.895	0.0149851
693.973	0.0147168
694.051	0.0146004
694.129	0.0145253
694.207	0.0144370
694.285	0.0143554
694.363	0.0144318
694.442	0.0142500
694.520	0.0140460
694.598	0.0139964
694.676	0.0140573
694.754	0.0138643
694.832	0.0138193
694.910	0.0138098
694.988	0.0138116
695.067	0.0138049
695.145	0.0137777
695.223	0.0137474
695.301	0.0137903
695.379	0.0136558
695.457	0.0136325
695.535	0.0136384
695.613	0.0135620
695.692	0.0136856
695.770	0.0136424
695.848	0.0135532
695.926	0.0134867
696.004	0.0136105
696.082	0.0137879
696.160	0.0138249
696.238	0.0137004
696.317	0.0138743
696.395	0.0138986
696.473	0.0139252
696.551	0.0140410
696.629	0.0141217
696.707	0.0141238
696.785	0.0142703
696.863	0.0144416
696.942	0.0142827
697.020	0.0145230
697.098	0.0146248
697.176	0.0146169
697.254	0.0147201
697.332	0.0148272
697.410	0.0149323
697.488	0.0149586
697.567	0.0150172
697.645	0.0149317
697.723	0.0149662
697.801	0.0150166
697.879	0.0151858
697.957	0.0151492
698.035	0.0150905
698.113	0.0152072
698.192	0.0149691
698.270	0.0151478
698.348	0.0152582
698.426	0.0152152
698.504	0.0151340
698.582	0.0151418
698.660	0.0149337
698.738	0.0149655
698.817	0.0148631
698.895	0.0148559
698.973	0.0147099
699.051	0.0144511
699.129	0.0144200
699.207	0.0143298
699.285	0.0141137
699.363	0.0141170
699.442	0.0140234
699.520	0.0137890
699.598	0.0140236
699.676	0.0138274
699.754	0.0137220
699.832	0.0138922
699.910	0.0136908
699.988	0.0137252
700.067	0.0138151
700.145	0.0136552
700.223	0.0135018
700.301	0.0136500
700.379	0.0136113
700.457	0.0136587
700.535	0.0137077
700.613	0.0138286
700.692	0.0136629
700.770	0.0137704
700.848	0.0139188
700.926	0.0138117
701.004	0.0139427
701.082	0.0138983
701.160	0.0140237
701.238	0.0140333
701.317	0.0141533
701.395	0.0140395
701.473	0.0140514
701.551	0.0140909
701.629	0.0142233
701.707	0.0143425
701.785	0.0142480
701.863	0.0142220
701.942	0.0145390
702.020	0.0144600
702.098	0.0144905
702.176	0.0146320
702.254	0.0146739
702.332	0.0147691
702.410	0.0147919
702.488	0.0146354
702.567	0.0147284
702.645	0.0148288
702.723	0.0148237
702.801	0.0146943
702.879	0.0146856
702.957	0.0146230
703.035	0.0147350
703.113	0.0146256
703.192	0.0146912
703.270	0.0146799
703.348	0.0145537
703.426	0.0146040
703.504	0.0145051
703.582	0.0144826
703.660	0.0143523
703.738	0.0144540
703.817	0.0144279
703.895	0.0144170
703.973	0.0143611
704.051	0.0143457
704.129	0.0144172
704.207	0.0142558
704.285	0.0142381
704.363	0.0142773
704.442	0.0143325
704.520	0.0143115
704.598	0.0143088
704.676	0.0142271
704.754	0.0142480
704.832	0.0142528
704.910	0.0141627
704.988	0.0140106
705.067	0.0141481
705.145	0.0139736
705.223	0.0138942
705.301	0.0138517
705.379	0.0138551
705.457	0.0138733
705.535	0.0137232
705.613	0.0137180
705.692	0.0137433
705.770	0.0137348
705.848	0.0138767
705.926	0.0138723
706.004	0.0137576
706.082	0.0138640
706.160	0.0139585
706.238	0.0141135
706.317	0.0141569
706.395	0.0141468
706.473	0.0143626
706.551	0.0144958
706.629	0.0145032
706.707	0.0146417
706.785	0.0145509
706.863	0.0146081
706.942	0.0148288
707.020	0.0148857
707.098	0.0149173
707.176	0.0146534
707.254	0.0147167
707.332	0.0148090
707.410	0.0148666
707.488	0.0148124
707.567	0.0146630
707.645	0.0147120
707.723	0.0146140
707.801	0.0145865
707.879	0.0144568
707.957	0.0145657
708.035	0.0145525
708.113	0.0144511
708.192	0.0144445
708.270	0.0143028
708.348	0.0144085
708.426	0.0143130
708.504	0.0145030
708.582	0.0143487
708.660	0.0143326
708.738	0.0144791
708.817	0.0144201
708.895	0.0145346
708.973	0.0144382
709.051	0.0144703
709.129	0.0145565
709.207	0.0144974
709.285	0.0145139
709.363	0.0145110
709.442	0.0145236
709.520	0.0144583
709.598	0.0144994
709.676	0.0143890
709.754	0.0144900
709.832	0.0143629
709.910	0.0144068
709.988	0.0144418
710.067	0.0143281
710.145	0.0143472
710.223	0.0141708
710.301	0.0140975
710.379	0.0141071
710.457	0.0139404
710.535	0.0139302
710.613	0.0140075
710.692	0.0140922
710.770	0.0141512
710.848	0.0140708
710.926	0.0139845
711.004	0.0140569
711.082	0.0140980
711.160	0.0140515
711.238	0.0141205
711.317	0.0141675
711.395	0.0143449
711.473	0.0144481
711.551	0.0143714
711.629	0.0143958
711.707	0.0143631
711.785	0.0145348
711.863	0.0145384
711.942	0.0144318
712.020	0.0146519
712.098	0.0145902
712.176	0.0146976
712.254	0.0145970
712.332	0.0146820
712.410	0.0145396
712.488	0.0145880
712.567	0.0146612
712.645	0.0146080
712.723	0.0144676
712.801	0.0145459
712.879	0.0144025
712.957	0.0143990
713.035	0.0143384
713.113	0.0145872
713.192	0.0144087
713.270	0.0143727
713.348	0.0142142
713.426	0.0142950
713.504	0.0144175
713.582	0.0144640
713.660	0.0143613
713.738	0.0141965
713.817	0.0143140
713.895	0.0144151
713.973	0.0144407
714.051	0.0145141
714.129	0.0145050
714.207	0.0145038
714.285	0.0144605
714.363	0.0144878
714.442	0.0144839
714.520	0.0144413
714.598	0.0144688
714.676	0.0144080
714.754	0.0144843
714.832	0.0145720
714.910	0.0143925
714.988	0.0143360
715.067	0.0143945
715.145	0.0143161
715.223	0.0141956
715.301	0.0140809
715.379	0.0141872
715.457	0.0139528
715.535	0.0139379
715.613	0.0139236
715.692	0.0138422
715.770	0.0141734
715.848	0.0140190
715.926	0.0140902
716.004	0.0141760
716.082	0.0139919
716.160	0.0142814
716.238	0.0143114
716.317	0.0143040
716.395	0.0143435
716.473	0.0143417
716.551	0.0143821
716.629	0.0143629
716.707	0.0143861
716.785	0.0143494
716.863	0.0142176
716.942	0.0142997
717.020	0.0142712
717.098	0.0143729
717.176	0.0142563
717.254	0.0143005
717.332	0.0141443
717.410	0.0142292
717.488	0.0141493
717.567	0.0140514
717.645	0.0140672
717.723	0.0140602
717.801	0.0141097
717.879	0.0141545
717.957	0.0140190
718.035	0.0141744
718.113	0.0140365
718.192	0.0140136
718.270	0.0140558
718.348	0.0141802
718.426	0.0141740
718.504	0.0142041
718.582	0.0142201
718.660	0.0142077
718.738	0.0141105
718.817	0.0143906
718.895	0.0142308
718.973	0.0142938
719.051	0.0144804
719.129	0.0144437
719.207	0.0144513
719.285	0.0144809
719.363	0.0144161
719.442	0.0145412
719.520	0.0145231
719.598	0.0144498
719.676	0.0144919
719.754	0.0146587
719.832	0.0146570
719.910	0.0145255
719.988	0.0146073
720.067	0.0145570
720.145	0.0144756
720.223	0.0145087
720.301	0.0144827
720.379	0.0144055
720.457	0.0143976
720.535	0.0143865
720.613	0.0141791
720.692	0.0142594
720.770	0.0142705
720.848	0.0144083
720.926	0.0141714
721.004	0.0142957
721.082	0.0143582
721.160	0.0144209
721.238	0.0144184
721.317	0.0143591
721.395	0.0142969
721.473	0.0143342
721.551	0.0142988
721.629	0.0144611
721.707	0.0143380
721.785	0.0143413
721.863	0.0143697
721.942	0.0142650
722.020	0.0143803
722.098	0.0142266
722.176	0.0142870
722.254	0.0142181
722.332	0.0143037
722.410	0.0142226
722.488	0.0141163
722.567	0.0141653
722.645	0.0140363
722.723	0.0141560
722.801	0.0143156
722.879	0.0141319
722.957	0.0142027
723.035	0.0142471
723.113	0.0142393
723.192	0.0142664
723.270	0.0142117
723.348	0.0143356
723.426	0.0143460
723.504	0.0143584
723.582	0.0144395
723.660	0.0142993
723.738	0.0143859
723.817	0.0145380
723.895	0.0144804
723.973	0.0146420
724.051	0.0145904
724.129	0.0145760
724.207	0.0146339
724.285	0.0145824
724.363	0.0145623
724.442	0.0148386
724.520	0.0145730
724.598	0.0144684
724.676	0.0147234
724.754	0.0145210
724.832	0.0146007
724.910	0.0145764
724.988	0.0144759
725.067	0.0144428
725.145	0.0144977
725.223	0.0144626
725.301	0.0144537
725.379	0.0143357
725.457	0.0145032
725.535	0.0144479
725.613	0.0144878
725.692	0.0142876
725.770	0.0144106
725.848	0.0144118
725.926	0.0142076
726.004	0.0142664
726.082	0.0143185
726.160	0.0143079
726.238	0.0143713
726.317	0.0141441
726.395	0.0143349
726.473	0.0144816
726.551	0.0142140
726.629	0.0142834
726.707	0.0142438
726.785	0.0141908
726.863	0.0143106
726.942	0.0142628
727.020	0.0143149
727.098	0.0142401
727.176	0.0141943
727.254	0.0141577
727.332	0.0141674
727.410	0.0143804
727.488	0.0142781
727.567	0.0143300
727.645	0.0142747
727.723	0.0142869
727.801	0.0141370
727.879	0.0141991
727.957	0.0141860
728.035	0.0141405
728.113	0.0141503
728.192	0.0142957
728.270	0.0142553
728.348	0.0142849
728.426	0.0144214
728.504	0.0142224
728.582	0.0142319
728.660	0.0143353
728.738	0.0143308
728.817	0.0142876
728.895	0.0142963
728.973	0.0143333
729.051	0.0142989
729.129	0.0142622
729.207	0.0141918
729.285	0.0144057
729.363	0.0143504
729.442	0.0142080
729.520	0.0141931
729.598	0.0143465
729.676	0.0142536
729.754	0.0141269
729.832	0.0141802
729.910	0.0142967
729.988	0.0142362
730.067	0.0143265
730.145	0.0142396
730.223	0.0141698
730.301	0.0140044
730.379	0.0141161
730.457	0.0142908
730.535	0.0142825
730.613	0.0142263
730.692	0.0142439
730.770	0.0144230
730.848	0.0142641
730.926	0.0143100
731.004	0.0142957
731.082	0.0142139
731.160	0.0142188
731.238	0.0142555
731.317	0.0143496
731.395	0.0143465
731.473	0.0142813
731.551	0.0143925
731.629	0.0142191
731.707	0.0143362
731.785	0.0142918
731.863	0.0141972
731.942	0.0143521
732.020	0.0142612
732.098	0.0144061
732.176	0.0142880
732.254	0.0141416
732.332	0.0141807
732.410	0.0143713
732.488	0.0144322
732.567	0.0141485
732.645	0.0141796
732.723	0.0142062
732.801	0.0143679
732.879	0.0141622
732.957	0.0141996
733.035	0.0141137
733.113	0.0141669
733.192	0.0142102
733.270	0.0143000
733.348	0.0143114
733.426	0.0141739
733.504	0.0142474
733.582	0.0142046
733.660	0.0141138
733.738	0.0142046
733.817	0.0141586
733.895	0.0142583
733.973	0.0143942
734.051	0.0143341
734.129	0.0142197
734.207	0.0142191
734.285	0.0142680
734.363	0.0143856
734.442	0.0142187
734.520	0.0142944
734.598	0.0144852
734.676	0.0143049
734.754	0.0144643
734.832	0.0142766
734.910	0.0143575
734.988	0.0144057
735.067	0.0143859
735.145	0.0142562
735.223	0.0143753
735.301	0.0143940
735.379	0.0144529
735.457	0.0143568
735.535	0.0142907
735.613	0.0143819
735.692	0.0143265
735.770	0.0143785
735.848	0.0145141
735.926	0.0142645
736.004	0.0143678
736.082	0.0142775
736.160	0.0143340
736.238	0.0142406
736.317	0.0142085
736.395	0.0141956
736.473	0.0143031
736.551	0.0143128
736.629	0.0142119
736.707	0.0143366
736.785	0.0142612
736.863	0.0143732
736.942	0.0141972
737.020	0.0142275
737.098	0.0142088
737.176	0.0142702
737.254	0.0143972
737.332	0.0141487
737.410	0.0142044
737.488	0.0144186
737.567	0.0143593
737.645	0.0141714
737.723	0.0142690
737.801	0.0142979
737.879	0.0143646
737.957	0.0143416
738.035	0.0142892
738.113	0.0142940
738.192	0.0144688
738.270	0.0144516
738.348	0.0144418
738.426	0.0144766
738.504	0.0145037
738.582	0.0144675
738.660	0.0144492
738.738	0.0144724
738.817	0.0144895
738.895	0.0146471
738.973	0.0145015
739.051	0.0144321
739.129	0.0143855
739.207	0.0143984
739.285	0.0144588
739.363	0.0144817
739.442	0.0144032
739.520	0.0144696
739.598	0.0144512
739.676	0.0144047
739.754	0.0144180
739.832	0.0142617
739.910	0.0143900
739.988	0.0144005
740.067	0.0142403
740.145	0.0143159
740.223	0.0143069
740.301	0.0143051
740.379	0.0143138
740.457	0.0142417
740.535	0.0142130
740.613	0.0141971
740.692	0.0144214
740.770	0.0143262
740.848	0.0144643
740.926	0.0142101
741.004	0.0142784
741.082	0.0141824
741.160	0.0143234
741.238	0.0143655
741.317	0.0143835
741.395	0.0144857
741.473	0.0144538
741.551	0.0143856
741.629	0.0144221
741.707	0.0143851
741.785	0.0143444
741.863	0.0143944
741.942	0.0144211
742.020	0.0142432
742.098	0.0145186
742.176	0.0144354
742.254	0.0144488
742.332	0.0144138
742.410	0.0144614
742.488	0.0144643
742.567	0.0143406
742.645	0.0144342
742.723	0.0144117
742.801	0.0143935
742.879	0.0145338
742.957	0.0144311
743.035	0.0143465
743.113	0.0142104
743.192	0.0143842
743.270	0.0143369
743.348	0.0142758
743.426	0.0144834
743.504	0.0143839
743.582	0.0143371
743.660	0.0142702
743.738	0.0143121
743.817	0.0144054
743.895	0.0144447
743.973	0.0145122
744.051	0.0143554
744.129	0.0144579
744.207	0.0144080
744.285	0.0143577
744.363	0.0143477
744.442	0.0143528
744.520	0.0144414
744.598	0.0143111
744.676	0.0143286
744.754	0.0141560
744.832	0.0142691
744.910	0.0142905
744.988	0.0141835
745.067	0.0141742
745.145	0.0143639
745.223	0.0143353
745.301	0.0143356
745.379	0.0143523
745.457	0.0143004
745.535	0.0144508
745.613	0.0142744
745.692	0.0143044
745.770	0.0143498
745.848	0.0143654
745.926	0.0143127
746.004	0.0143174
746.082	0.0144379
746.160	0.0143687
746.238	0.0144426
746.317	0.0144270
746.395	0.0142968
746.473	0.0144417
746.551	0.0143294
746.629	0.0142973
746.707	0.0142638
746.785	0.0144057
746.863	0.0141522
746.942	0.0141831
747.020	0.0142840
747.098	0.0142380
747.176	0.0142635
747.254	0.0141463
747.332	0.0140886
747.410	0.0140134
747.488	0.0139952
747.567	0.0140901
747.645	0.0141583
747.723	0.0140739
747.801	0.0142155
747.879	0.0141721
747.957	0.0142329
748.035	0.0142677
748.113	0.0141267
748.192	0.0141296
748.270	0.0141473
748.348	0.0142440
748.426	0.0144644
748.504	0.0144618
748.582	0.0143446
748.660	0.0142075
748.738	0.0143029
748.817	0.0143886
748.895	0.0143266
748.973	0.0143211
749.051	0.0143581
749.129	0.0143784
749.207	0.0142547
749.285	0.0142730
749.363	0.0142866
749.442	0.0142200
749.520	0.0141653
749.598	0.0141171
749.676	0.0143029
749.754	0.0142857
749.832	0.0143275
749.910	0.0141212
749.988	0.0143204
750.067	0.0142651
750.145	0.0141700
750.223	0.0144154
750.301	0.0143339
750.379	0.0143578
750.457	0.0141882
750.535	0.0142547
750.613	0.0141279
750.692	0.0141635
750.770	0.0142810
750.848	0.0143630
750.926	0.0142493
751.004	0.0142647
751.082	0.0142159
751.160	0.0142459
751.238	0.0141236
751.317	0.0141953
751.395	0.0141697
751.473	0.0142196
751.551	0.0143043
751.629	0.0143030
751.707	0.0142992
751.785	0.0143928
751.863	0.0143504
751.942	0.0143206
752.020	0.0143451
752.098	0.0142844
752.176	0.0143636
752.254	0.0143186
752.332	0.0143034
752.410	0.0143030
752.488	0.0143058
752.567	0.0143410
752.645	0.0143644
752.723	0.0143214
752.801	0.0144276
752.879	0.0142995
752.957	0.0144634
753.035	0.0145084
753.113	0.0144768
753.192	0.0143760
753.270	0.0144246
753.348	0.0142371
753.426	0.0143472
753.504	0.0144011
753.582	0.0143006
753.660	0.0142902
753.738	0.0144382
753.817	0.0143418
753.895	0.0142815
753.973	0.0143232
754.051	0.0142751
754.129	0.0142510
754.207	0.0142709
754.285	0.0143077
754.363	0.0141993
754.442	0.0141774
754.520	0.0142340
754.598	0.0142439
754.676	0.0141713
754.754	0.0143234
754.832	0.0142002
754.910	0.0142047
754.988	0.0143083
755.067	0.0143108
755.145	0.0144003
755.223	0.0143225
755.301	0.0141183
755.379	0.0143822
755.457	0.0144894
755.535	0.0143931
755.613	0.0142886
755.692	0.0142866
755.770	0.0142683
755.848	0.0143565
755.926	0.0144223
756.004	0.0143553
756.082	0.0142860
756.160	0.0143716
756.238	0.0142741
756.317	0.0142924
756.395	0.0143398
756.473	0.0142742
756.551	0.0143365
756.629	0.0143243
756.707	0.0143749
756.785	0.0142290
756.863	0.0142744
756.942	0.0142114
757.020	0.0141534
757.098	0.0141328
757.176	0.0142972
757.254	0.0141943
757.332	0.0142846
757.410	0.0141064
757.488	0.0142849
757.567	0.0143426
757.645	0.0142321
757.723	0.0141493
757.801	0.0144371
757.879	0.0142079
757.957	0.0141653
758.035	0.0142898
758.113	0.0142779
758.192	0.0142233
758.270	0.0144322
758.348	0.0144019
758.426	0.0142337
758.504	0.0141833
758.582	0.0143539
758.660	0.0143258
758.738	0.0142319
758.817	0.0143606
758.895	0.0144077
758.973	0.0142246
759.051	0.0141574
759.129	0.0142669
759.207	0.0142200
759.285	0.0142450
759.363	0.0143496
759.442	0.0141843
759.520	0.0141032
759.598	0.0142050
759.676	0.0142146
759.754	0.0141846
759.832	0.0143272
759.910	0.0142400
759.988	0.0142572
760.067	0.0142552
760.145	0.0142341
760.223	0.0141642
760.301	0.0141715
760.379	0.0142048
760.457	0.0143777
760.535	0.0142763
760.613	0.0141422
760.692	0.0141920
760.770	0.0142425
760.848	0.0141997
760.926	0.0142951
761.004	0.0143549
761.082	0.0144046
761.160	0.0143171
761.238	0.0143116
761.317	0.0143085
761.395	0.0142670
761.473	0.0142802
761.551	0.0142613
761.629	0.0142989
761.707	0.0143159
761.785	0.0142838
761.863	0.0142538
761.942	0.0143421
762.020	0.0143476
762.098	0.0142475
762.176	0.0143102
762.254	0.0144207
762.332	0.0144202
762.410	0.0142635
762.488	0.0143841
762.567	0.0143663
762.645	0.0142692
762.723	0.0143350
762.801	0.0143810
762.879	0.0144626
762.957	0.0144192
763.035	0.0143347
763.113	0.0144089
763.192	0.0144390
763.270	0.0143707
763.348	0.0144157
763.426	0.0144069
763.504	0.0144298
763.582	0.0143599
763.660	0.0145223
763.738	0.0142451
763.817	0.0142143
763.895	0.0144405
763.973	0.0142668
764.051	0.0143890
764.129	0.0143932
764.207	0.0143102
764.285	0.0142791
764.363	0.0142782
764.442	0.0143152
764.520	0.0143494
764.598	0.0143143
764.676	0.0142334
764.754	0.0142075
764.832	0.0141861
764.910	0.0141755
764.988	0.0143855
765.067	0.0143648
765.145	0.0141576
765.223	0.0142514
765.301	0.0143237
765.379	0.0142522
765.457	0.0141454
765.535	0.0142696
765.613	0.0144027
765.692	0.0143375
765.770	0.0143606
765.848	0.0143429
765.926	0.0142857
766.004	0.0145319
766.082	0.0143785
766.160	0.0143401
766.238	0.0143761
766.317	0.0144156
766.395	0.0144186
766.473	0.0144608
766.551	0.0144679
766.629	0.0144910
766.707	0.0144635
766.785	0.0144886
766.863	0.0145664
766.942	0.0145934
767.020	0.0145400
767.098	0.0143871
767.176	0.0144665
767.254	0.0144354
767.332	0.0144982
767.410	0.0144196
767.488	0.0142781
767.567	0.0143454
767.645	0.0145363
767.723	0.0143871
767.801	0.0144887
767.879	0.0144188
767.957	0.0143888
768.035	0.0143971
768.113	0.0143732
768.192	0.0144394
768.270	0.0144572
768.348	0.0143668
768.426	0.0142931
768.504	0.0142747
768.582	0.0144371
768.660	0.0144811
768.738	0.0142210
768.817	0.0144048
768.895	0.0143674
768.973	0.0142908
769.051	0.0142558
769.129	0.0143693
769.207	0.0144044
769.285	0.0143589
769.363	0.0143792
769.442	0.0143400
769.520	0.0141880
769.598	0.0143166
769.676	0.0142078
769.754	0.0143009
769.832	0.0143098
769.910	0.0143541
769.988	0.0144067
770.067	0.0142147
770.145	0.0142623
770.223	0.0142126
770.301	0.0142516
770.379	0.0141982
770.457	0.0141872
770.535	0.0144897
770.613	0.0144175
770.692	0.0142884
770.770	0.0142937
770.848	0.0143201
770.926	0.0142516
771.004	0.0142023
771.082	0.0143300
771.160	0.0143981
771.238	0.0144202
771.317	0.0143581
771.395	0.0143726
771.473	0.0141616
771.551	0.0144121
771.629	0.0142520
771.707	0.0143223
771.785	0.0142088
771.863	0.0143928
771.942	0.0142822
772.020	0.0144734
772.098	0.0144177
772.176	0.0143439
772.254	0.0141476
772.332	0.0142699
772.410	0.0143238
772.488	0.0141726
772.567	0.0142472
772.645	0.0142546
772.723	0.0143333
772.801	0.0143537
772.879	0.0142571
772.957	0.0141653
773.035	0.0142903
773.113	0.0142444
773.192	0.0141685
773.270	0.0140838
773.348	0.0142979
773.426	0.0142813
773.504	0.0142272
773.582	0.0142120
773.660	0.0142521
773.738	0.0142027
773.817	0.0142023
773.895	0.0142361
773.973	0.0142422
774.051	0.0142545
774.129	0.0141991
774.207	0.0141843
774.285	0.0141487
774.363	0.0143151
774.442	0.0140873
774.520	0.0141624
774.598	0.0143532
774.676	0.0144522
774.754	0.0144442
774.832	0.0142593
774.910	0.0141942
774.988	0.0143748
775.067	0.0143392
775.145	0.0143556
775.223	0.0143618
775.301	0.0145454
775.379	0.0145689
775.457	0.0144198
775.535	0.0142933
775.613	0.0145066
775.692	0.0144003
775.770	0.0144028
775.848	0.0142871
775.926	0.0144324
776.004	0.0144071
776.082	0.0143380
776.160	0.0144495
776.238	0.0143746
776.317	0.0143438
776.395	0.0143000
776.473	0.0142761
776.551	0.0144428
776.629	0.0143587
776.707	0.0143227
776.785	0.0143830
776.863	0.0143604
776.942	0.0143578
777.020	0.0145022
777.098	0.0143423
777.176	0.0142791
777.254	0.0143555
777.332	0.0145399
777.410	0.0144582
777.488	0.0142321
777.567	0.0143893
777.645	0.0144602
777.723	0.0143330
777.801	0.0143336
777.879	0.0143564
777.957	0.0142495
778.035	0.0144691
778.113	0.0142566
778.192	0.0142641
778.270	0.0141991
778.348	0.0143114
778.426	0.0143253
778.504	0.0141891
778.582	0.0142439
778.660	0.0142986
778.738	0.0143768
778.817	0.0142619
778.895	0.0141555
778.973	0.0142370
779.051	0.0142433
779.129	0.0142496
779.207	0.0141266
779.285	0.0144350
779.363	0.0143393
779.442	0.0142217
779.520	0.0143084
779.598	0.0143762
779.676	0.0143844
779.754	0.0143653
779.832	0.0143734
779.910	0.0144101
779.988	0.0143179
780.067	0.0144337
780.145	0.0144559
780.223	0.0144081
780.301	0.0144529
780.379	0.0143813
780.457	0.0144854
780.535	0.0145358
780.613	0.0144868
780.692	0.0144439
780.770	0.0143682
780.848	0.0144692
780.926	0.0145373
781.004	0.0145908
781.082	0.0145765
781.160	0.0144709
781.238	0.0145002
781.317	0.0144661
781.395	0.0143785
781.473	0.0143903
781.551	0.0144542
781.629	0.0143760
781.707	0.0143282
781.785	0.0145402
781.863	0.0143598
781.942	0.0144146
782.020	0.0144197
782.098	0.0145096
782.176	0.0145473
782.254	0.0143551
782.332	0.0145675
782.410	0.0145572
782.488	0.0144768
782.567	0.0144579
782.645	0.0143895
782.723	0.0145525
782.801	0.0145223
782.879	0.0144691
782.957	0.0145364
783.035	0.0143842
783.113	0.0146030
783.192	0.0145692
783.270	0.0144960
783.348	0.0144561
783.426	0.0144241
783.504	0.0145925
783.582	0.0146893
783.660	0.0144952
783.738	0.0145784
783.817	0.0145468
783.895	0.0145597
783.973	0.0144874
784.051	0.0145847
784.129	0.0146568
784.207	0.0145492
784.285	0.0145616
784.363	0.0145992
784.442	0.0145322
784.520	0.0144418
784.598	0.0145292
784.676	0.0144588
784.754	0.0145293
784.832	0.0146266
784.910	0.0144962
784.988	0.0142924
785.067	0.0145731
785.145	0.0143359
785.223	0.0143308
785.301	0.0144028
785.379	0.0145086
785.457	0.0143261
785.535	0.0143485
785.613	0.0142513
785.692	0.0144384
785.770	0.0142222
785.848	0.0142137
785.926	0.0144251
786.004	0.0143018
786.082	0.0142853
786.160	0.0143537
786.238	0.0141599
786.317	0.0141363
786.395	0.0143619
786.473	0.0141628
786.551	0.0141529
786.629	0.0142458
786.707	0.0142272
786.785	0.0141539
786.863	0.0143040
786.942	0.0143152
787.020	0.0142617
787.098	0.0142834
787.176	0.0142341
787.254	0.0141911
787.332	0.0141797
787.410	0.0141218
787.488	0.0141345
787.567	0.0140299
787.645	0.0143086
787.723	0.0141661
787.801	0.0141821
787.879	0.0142440
787.957	0.0140698
788.035	0.0141367
788.113	0.0140771
788.192	0.0141791
788.270	0.0141914
788.348	0.0141056
788.426	0.0141173
788.504	0.0140578
788.582	0.0142496
788.660	0.0141843
788.738	0.0141912
788.817	0.0141407
788.895	0.0142191
788.973	0.0143336
789.051	0.0142343
789.129	0.0142764
789.207	0.0142830
789.285	0.0142326
789.363	0.0143585
789.442	0.0143011
789.520	0.0144181
789.598	0.0144903
789.676	0.0143416
789.754	0.0142866
789.832	0.0142408
789.910	0.0144211
789.988	0.0144398
790.067	0.0143771
790.145	0.0143801
790.223	0.0143251
790.301	0.0144142
790.379	0.0144456
790.457	0.0144012
790.535	0.0144576
790.613	0.0145170
790.692	0.0144427
790.770	0.0142578
790.848	0.0143271
790.926	0.0143798
791.004	0.0144450
791.082	0.0143560
791.160	0.0143355
791.238	0.0143688
791.317	0.0143713
791.395	0.0144311
791.473	0.0144476
791.551	0.0144031
791.629	0.0143329
791.707	0.0144589
791.785	0.0144044
791.863	0.0145707
791.942	0.0145172
792.020	0.0143358
792.098	0.0145117
792.176	0.0144550
792.254	0.0144748
792.332	0.0144705
792.410	0.0143273
792.488	0.0146210
792.567	0.0143526
792.645	0.0144193
792.723	0.0144749
792.801	0.0143261
792.879	0.0142876
792.957	0.0143642
793.035	0.0143854
793.113	0.0143620
793.192	0.0144745
793.270	0.0145370
793.348	0.0143732
793.426	0.0144495
793.504	0.0143612
793.582	0.0143449
793.660	0.0143223
793.738	0.0145476
793.817	0.0143489
793.895	0.0142860
793.973	0.0144565
794.051	0.0144386
794.129	0.0144558
794.207	0.0145986
794.285	0.0145717
794.363	0.0144137
794.442	0.0144304
794.520	0.0143407
794.598	0.0143856
794.676	0.0145047
794.754	0.0144351
794.832	0.0145236
794.910	0.0144454
794.988	0.0144437
795.067	0.0144134
795.145	0.0144862
795.223	0.0145431
795.301	0.0143465
795.379	0.0143421
795.457	0.0144306
795.535	0.0144427
795.613	0.0144725
795.692	0.0144572
795.770	0.0144063
795.848	0.0142953
795.926	0.0144543
796.004	0.0144691
796.082	0.0143562
796.160	0.0143564
796.238	0.0142589
796.317	0.0141855
796.395	0.0143359
796.473	0.0142886
796.551	0.0142874
796.629	0.0142155
796.707	0.0142068
796.785	0.0142412
796.863	0.0143340
796.942	0.0143337
797.020	0.0143365
797.098	0.0142902
797.176	0.0143241
797.254	0.0143764
797.332	0.0143990
797.410	0.0142873
797.488	0.0144719
797.567	0.0144587
797.645	0.0143385
797.723	0.0143914
797.801	0.0143663
797.879	0.0144196
797.957	0.0143256
798.035	0.0144980
798.113	0.0143829
798.192	0.0143691
798.270	0.0143665
798.348	0.0142903
798.426	0.0143439
798.504	0.0143073
798.582	0.0143242
798.660	0.0143372
798.738	0.0144225
798.817	0.0143131
798.895	0.0144324
798.973	0.0144714
799.051	0.0145049
799.129	0.0143329
799.207	0.0143772
799.285	0.0145476
799.363	0.0144032
799.442	0.0145040
799.520	0.0145187
799.598	0.0145358
799.676	0.0145478
799.754	0.0145130
799.832	0.0145853
799.910	0.0144943
799.988	0.0146307
800.067	0.0145108
800.145	0.0143589
800.223	0.0143456
800.301	0.0145583
800.379	0.0146220
800.457	0.0144167
800.535	0.0143942
800.613	0.0144707
800.692	0.0144997
800.770	0.0144003
800.848	0.0145145
800.926	0.0145220
801.004	0.0145650
801.082	0.0145142
801.160	0.0143060
801.238	0.0141875
801.317	0.0143478
801.395	0.0144958
801.473	0.0142742
801.551	0.0142577
801.629	0.0142965
801.707	0.0143633
801.785	0.0144607
801.863	0.0144171
801.942	0.0144680
802.020	0.0144642
802.098	0.0143867
802.176	0.0143336
802.254	0.0143761
802.332	0.0143869
802.410	0.0142817
802.488	0.0145244
802.567	0.0143660
802.645	0.0143052
802.723	0.0144315
802.801	0.0143852
802.879	0.0144985
802.957	0.0143733
803.035	0.0143262
803.113	0.0143613
803.192	0.0145149
803.270	0.0144158
803.348	0.0145501
803.426	0.0145437
803.504	0.0144444
803.582	0.0145396
803.660	0.0143823
803.738	0.0145229
803.817	0.0145143
803.895	0.0143514
803.973	0.0143822
804.051	0.0145119
804.129	0.0145825
804.207	0.0143855
804.285	0.0144196
804.363	0.0144973
804.442	0.0143906
804.520	0.0143947
804.598	0.0144363
804.676	0.0144058
804.754	0.0143000
804.832	0.0144544
804.910	0.0143431
804.988	0.0144397
805.067	0.0144155
805.145	0.0143987
805.223	0.0144316
805.301	0.0143073
805.379	0.0144204
805.457	0.0144505
805.535	0.0142482
805.613	0.0143781
805.692	0.0143906
805.770	0.0141949
805.848	0.0144688
805.926	0.0143707
806.004	0.0143999
806.082	0.0144746
806.160	0.0143422
806.238	0.0143900
806.317	0.0143645
806.395	0.0142632
806.473	0.0144988
806.551	0.0144386
806.629	0.0143000
806.707	0.0142813
806.785	0.0143105
806.863	0.0144030
806.942	0.0145263
807.020	0.0143967
807.098	0.0144512
807.176	0.0143639
807.254	0.0143501
807.332	0.0143980
807.410	0.0142784
807.488	0.0143358
807.567	0.0144048
807.645	0.0143628
807.723	0.0144160
807.801	0.0143787
807.879	0.0142587
807.957	0.0143561
808.035	0.0144540
808.113	0.0144224
808.192	0.0143098
808.270	0.0144137
808.348	0.0144270
808.426	0.0143978
808.504	0.0143147
808.582	0.0143205
808.660	0.0142765
808.738	0.0142426
808.817	0.0144114
808.895	0.0144402
808.973	0.0143586
809.051	0.0143856
809.129	0.0142912
809.207	0.0142298
809.285	0.0143243
809.363	0.0144103
809.442	0.0143139
809.520	0.0143577
809.598	0.0142208
809.676	0.0142887
809.754	0.0142183
809.832	0.0142535
809.910	0.0141541
809.988	0.0141936
810.067	0.0141713
810.145	0.0142192
810.223	0.0142857
810.301	0.0141987
810.379	0.0141228
810.457	0.0140296
810.535	0.0142609
810.613	0.0142746
810.692	0.0141599
810.770	0.0141175
810.848	0.0142133
810.926	0.0141673
811.004	0.0141019
811.082	0.0141696
811.160	0.0142091
811.238	0.0142152
811.317	0.0141504
811.395	0.0142287
811.473	0.0141951
811.551	0.0143264
811.629	0.0142274
811.707	0.0143012
811.785	0.0141579
811.863	0.0142676
811.942	0.0141614
812.020	0.0141821
812.098	0.0142600
812.176	0.0142052
812.254	0.0141242
812.332	0.0142259
812.410	0.0141821
812.488	0.0143444
812.567	0.0141064
812.645	0.0141154
812.723	0.0141164
812.801	0.0142055
812.879	0.0140890
812.957	0.0141882
813.035	0.0140683
813.113	0.0142559
813.192	0.0140959
813.270	0.0140065
813.348	0.0140967
813.426	0.0142144
813.504	0.0141430
813.582	0.0141959
813.660	0.0142945
813.738	0.0141140
813.817	0.0141563
813.895	0.0141687
813.973	0.0141998
814.051	0.0142693
814.129	0.0141666
814.207	0.0142099
814.285	0.0143707
814.363	0.0141816
814.442	0.0141988
814.520	0.0141583
814.598	0.0142400
814.676	0.0143251
814.754	0.0143413
814.832	0.0142859
814.910	0.0142948
814.988	0.0142866
815.067	0.0142107
815.145	0.0141878
815.223	0.0143045
815.301	0.0142597
815.379	0.0142840
815.457	0.0143176
815.535	0.0142104
815.613	0.0143701
815.692	0.0143534
815.770	0.0141885
815.848	0.0144019
815.926	0.0144427
816.004	0.0142937
816.082	0.0143397
816.160	0.0144093
816.238	0.0144028
816.317	0.0144201
816.395	0.0144192
816.473	0.0143870
816.551	0.0143684
816.629	0.0143205
816.707	0.0144190
816.785	0.0144514
816.863	0.0143588
816.942	0.0144112
817.020	0.0146998
817.098	0.0144196
817.176	0.0144931
817.254	0.0144981
817.332	0.0143363
817.410	0.0144199
817.488	0.0144276
817.567	0.0145109
817.645	0.0145175
817.723	0.0143809
817.801	0.0144555
817.879	0.0144743
817.957	0.0146319
818.035	0.0143832
818.113	0.0144753
818.192	0.0144122
818.270	0.0144750
818.348	0.0143248
818.426	0.0143004
818.504	0.0143282
818.582	0.0143916
818.660	0.0143338
818.738	0.0144062
818.817	0.0142850
818.895	0.0144204
818.973	0.0144683
819.051	0.0144199
819.129	0.0144227
819.207	0.0143530
819.285	0.0142966
819.363	0.0143050
819.442	0.0144043
819.520	0.0143259
819.598	0.0143056
819.676	0.0143571
819.754	0.0143735
819.832	0.0143870
819.910	0.0143712
819.988	0.0143594
820.067	0.0143669
820.145	0.0141956
820.223	0.0141111
820.301	0.0142495
820.379	0.0142803
820.457	0.0142983
820.535	0.0142088
820.613	0.0143479
820.692	0.0142973
820.770	0.0143880
820.848	0.0143139
820.926	0.0143355
821.004	0.0144241
821.082	0.0142805
821.160	0.0143596
821.238	0.0143208
821.317	0.0143521
821.395	0.0141499
821.473	0.0142317
821.551	0.0142781
821.629	0.0143112
821.707	0.0143727
821.785	0.0142948
821.863	0.0144345
821.942	0.0143698
822.020	0.0142695
822.098	0.0144759
822.176	0.0143626
822.254	0.0143920
822.332	0.0143977
822.410	0.0143683
822.488	0.0143701
822.567	0.0143899
822.645	0.0144093
822.723	0.0143837
822.801	0.0143707
822.879	0.0143906
822.957	0.0143999
823.035	0.0143429
823.113	0.0144183
823.192	0.0143521
823.270	0.0143210
823.348	0.0143797
823.426	0.0142582
823.504	0.0144165
823.582	0.0143994
823.660	0.0142752
823.738	0.0143127
823.817	0.0143798
823.895	0.0143031
823.973	0.0144682
824.051	0.0143664
824.129	0.0143828
824.207	0.0144019
824.285	0.0142767
824.363	0.0143587
824.442	0.0143980
824.520	0.0143642
824.598	0.0143951
824.676	0.0144498
824.754	0.0142639
824.832	0.0143344
824.910	0.0143193
824.988	0.0143009
825.067	0.0144709
825.145	0.0144562
825.223	0.0143948
825.301	0.0143243
825.379	0.0143380
825.457	0.0142005
825.535	0.0145667
825.613	0.0144830
825.692	0.0144001
825.770	0.0144733
825.848	0.0144307
825.926	0.0145789
826.004	0.0146763
826.082	0.0144485
826.160	0.0144956
826.238	0.0144872
826.317	0.0144933
826.395	0.0144457
826.473	0.0144656
826.551	0.0142719
826.629	0.0143838
826.707	0.0144742
826.785	0.0143822
826.863	0.0143388
826.942	0.0143669
827.020	0.0144147
827.098	0.0144939
827.176	0.0142820
827.254	0.0143481
827.332	0.0143852
827.410	0.0142900
827.488	0.0141571
827.567	0.0143532
827.645	0.0143214
827.723	0.0141142
827.801	0.0142094
827.879	0.0143147
827.957	0.0143295
828.035	0.0142963
828.113	0.0142639
828.192	0.0142986
828.270	0.0143829
828.348	0.0143698
828.426	0.0143562
828.504	0.0143237
828.582	0.0142400
828.660	0.0143092
828.738	0.0142995
828.817	0.0141893
828.895	0.0143247
828.973	0.0142700
829.051	0.0142068
829.129	0.0143755
829.207	0.0142574
829.285	0.0141634
829.363	0.0141673
829.442	0.0141280
829.520	0.0141956
829.598	0.0142844
829.676	0.0141611
829.754	0.0142295
829.832	0.0142105
829.910	0.0141318
829.988	0.0140971
830.067	0.0140625
830.145	0.0141389
830.223	0.0142113
830.301	0.0141219
830.379	0.0141944
830.457	0.0142250
830.535	0.0142242
830.613	0.0143149
830.692	0.0142212
830.770	0.0142758
830.848	0.0142372
830.926	0.0140891
831.004	0.0142095
831.082	0.0142026
831.160	0.0141810
831.238	0.0141570
831.317	0.0141620
831.395	0.0141428
831.473	0.0143552
831.551	0.0143250
831.629	0.0141884
831.707	0.0141676
831.785	0.0141750
831.863	0.0142146
831.942	0.0140784
832.020	0.0140440
832.098	0.0141132
832.176	0.0142182
832.254	0.0141118
832.332	0.0141790
832.410	0.0141959
832.488	0.0141633
832.567	0.0143253
832.645	0.0141424
832.723	0.0142597
832.801	0.0140448
832.879	0.0141528
832.957	0.0140852
833.035	0.0142099
833.113	0.0143114
833.192	0.0141784
833.270	0.0141747
833.348	0.0141602
833.426	0.0141225
833.504	0.0141241
833.582	0.0142432
833.660	0.0143311
833.738	0.0143716
833.817	0.0142123
833.895	0.0142014
833.973	0.0141677
834.051	0.0142300
834.129	0.0141898
834.207	0.0144005
834.285	0.0142855
834.363	0.0140855
834.442	0.0143243
834.520	0.0142792
834.598	0.0142790
834.676	0.0141135
834.754	0.0142377
834.832	0.0141732
834.910	0.0141428
834.988	0.0141873
835.067	0.0142014
835.145	0.0142562
835.223	0.0142664
835.301	0.0142896
835.379	0.0142337
835.457	0.0142363
835.535	0.0142465
835.613	0.0142310
835.692	0.0142303
835.770	0.0143084
835.848	0.0141591
835.926	0.0142289
836.004	0.0142717
836.082	0.0142982
836.160	0.0142883
836.238	0.0142830
836.317	0.0143528
836.395	0.0142601
836.473	0.0141538
836.551	0.0141690
836.629	0.0141685
836.707	0.0142117
836.785	0.0142538
836.863	0.0142037
836.942	0.0142150
837.020	0.0142732
837.098	0.0142908
837.176	0.0142380
837.254	0.0142348
837.332	0.0143901
837.410	0.0142875
837.488	0.0144085
837.567	0.0141988
837.645	0.0142694
837.723	0.0143935
837.801	0.0143473
837.879	0.0142310
837.957	0.0143268
838.035	0.0144736
838.113	0.0143905
838.192	0.0143209
838.270	0.0144109
838.348	0.0142407
838.426	0.0143718
838.504	0.0142147
838.582	0.0143410
838.660	0.0145653
838.738	0.0143026
838.817	0.0142396
838.895	0.0143490
838.973	0.0144650
839.051	0.0143498
839.129	0.0143285
839.207	0.0144659
839.285	0.0143845
839.363	0.0145147
839.442	0.0144839
839.520	0.0142693
839.598	0.0145271
839.676	0.0144093
839.754	0.0142795
839.832	0.0143044
839.910	0.0142599
839.988	0.0143558
840.067	0.0144338
840.145	0.0143517
840.223	0.0143544
840.301	0.0143905
840.379	0.0143692
840.457	0.0142799
840.535	0.0144218
840.613	0.0144055
840.692	0.0143642
840.770	0.0142708
840.848	0.0143779
840.926	0.0143320
841.004	0.0143633
841.082	0.0143475
841.160	0.0144242
841.238	0.0143388
841.317	0.0144324
841.395	0.0145107
841.473	0.0143842
841.551	0.0142864
841.629	0.0144067
841.707	0.0144557
841.785	0.0143851
841.863	0.0144208
841.942	0.0143806
842.020	0.0143936
842.098	0.0143118
842.176	0.0144813
842.254	0.0144406
842.332	0.0143226
842.410	0.0143529
842.488	0.0143486
842.567	0.0143005
842.645	0.0143819
842.723	0.0144344
842.801	0.0144718
842.879	0.0143237
842.957	0.0144908
843.035	0.0142530
843.113	0.0142673
843.192	0.0142458
843.270	0.0143560
843.348	0.0143026
843.426	0.0142645
843.504	0.0142966
843.582	0.0142500
843.660	0.0141052
843.738	0.0143126
843.817	0.0142583
843.895	0.0141624
843.973	0.0141714
844.051	0.0142075
844.129	0.0142429
844.207	0.0142882
844.285	0.0142677
844.363	0.0141659
844.442	0.0142126
844.520	0.0142099
844.598	0.0141424
844.676	0.0141498
844.754	0.0143732
844.832	0.0143404
844.910	0.0142471
844.988	0.0143077
845.067	0.0141920
845.145	0.0141317
845.223	0.0142093
845.301	0.0142396
845.379	0.0142222
845.457	0.0142761
845.535	0.0142474
845.613	0.0142191
845.692	0.0142817
845.770	0.0143179
845.848	0.0143711
845.926	0.0144516
846.004	0.0143832
846.082	0.0144575
846.160	0.0143200
846.238	0.0143442
846.317	0.0143253
846.395	0.0144394
846.473	0.0144167
846.551	0.0143569
846.629	0.0142888
846.707	0.0144407
846.785	0.0143709
846.863	0.0144901
846.942	0.0145088
847.020	0.0144637
847.098	0.0144845
847.176	0.0145551
847.254	0.0143892
847.332	0.0144263
847.410	0.0143986
847.488	0.0144434
847.567	0.0144817
847.645	0.0144778
847.723	0.0143907
847.801	0.0142752
847.879	0.0144426
847.957	0.0143277
848.035	0.0141597
848.113	0.0142934
848.192	0.0143449
848.270	0.0142569
848.348	0.0141699
848.426	0.0142340
848.504	0.0141725
848.582	0.0143737
848.660	0.0143195
848.738	0.0142295
848.817	0.0143018
848.895	0.0142887
848.973	0.0143205
849.051	0.0143504
849.129	0.0143020
849.207	0.0142047
849.285	0.0143272
849.363	0.0141660
849.442	0.0141783
849.520	0.0143746
849.598	0.0141631
849.676	0.0143301
849.754	0.0142507
849.832	0.0143278
849.910	0.0141710
849.988	0.0142606
850.067	0.0141729
850.145	0.0143739
850.223	0.0143262
850.301	0.0143162
850.379	0.0143462
850.457	0.0142059
850.535	0.0143264
850.613	0.0143249
850.692	0.0141583
850.770	0.0142672
850.848	0.0143887
850.926	0.0141383
851.004	0.0142290
851.082	0.0141791
851.160	0.0142199
851.238	0.0141420
851.317	0.0141780
851.395	0.0141945
851.473	0.0142057
851.551	0.0143704
851.629	0.0142936
851.707	0.0142058
851.785	0.0142740
851.863	0.0141063
851.942	0.0142989
852.020	0.0142632
852.098	0.0143428
852.176	0.0143312
852.254	0.0142777
852.332	0.0142950
852.410	0.0143206
852.488	0.0143757
852.567	0.0143731
852.645	0.0143585
852.723	0.0144208
852.801	0.0144469
852.879	0.0141889
852.957	0.0142088
853.035	0.0143510
853.113	0.0143710
853.192	0.0142861
853.270	0.0142927
853.348	0.0143686
853.426	0.0144544
853.504	0.0143355
853.582	0.0141919
853.660	0.0142620
853.738	0.0144611
853.817	0.0143731
853.895	0.0143536
853.973	0.0143729
854.051	0.0143439
854.129	0.0144031
854.207	0.0142503
854.285	0.0143164
854.363	0.0143774
854.442	0.0143629
854.520	0.0143923
854.598	0.0142113
854.676	0.0142704
854.754	0.0143015
854.832	0.0143217
854.910	0.0142520
854.988	0.0142777
855.067	0.0142881
855.145	0.0142245
855.223	0.0143398
855.301	0.0141127
855.379	0.0142142
855.457	0.0142975
855.535	0.0142285
855.613	0.0140939
855.692	0.0142554
855.770	0.0142750
855.848	0.0142326
855.926	0.0142511
856.004	0.0142305
856.082	0.0141938
856.160	0.0142963
856.238	0.0142239
856.317	0.0142439
856.395	0.0143594
856.473	0.0143705
856.551	0.0142754
856.629	0.0141854
856.707	0.0141528
856.785	0.0142578
856.863	0.0143221
856.942	0.0143672
857.020	0.0143682
857.098	0.0142617
857.176	0.0143433
857.254	0.0143652
857.332	0.0144726
857.410	0.0143075
857.488	0.0143035
857.567	0.0144941
857.645	0.0144948
857.723	0.0142959
857.801	0.0143848
857.879	0.0143384
857.957	0.0144776
858.035	0.0144274
858.113	0.0144962
858.192	0.0145618
858.270	0.0145756
858.348	0.0145542
858.426	0.0145425
858.504	0.0144718
858.582	0.0144367
858.660	0.0145416
858.738	0.0144296
858.817	0.0144345
858.895	0.0143320
858.973	0.0143398
859.051	0.0144351
859.129	0.0144897
859.207	0.0143752
859.285	0.0142892
859.363	0.0141244
859.442	0.0143346
859.520	0.0142979
859.598	0.0143001
859.676	0.0142815
859.754	0.0142835
859.832	0.0143064
859.910	0.0142639
859.988	0.0143143
860.067	0.0143238
860.145	0.0142358
860.223	0.0142380
860.301	0.0142307
860.379	0.0142202
860.457	0.0141240
860.535	0.0143085
860.613	0.0142811
860.692	0.0143011
860.770	0.0142728
860.848	0.0144389
860.926	0.0143037
861.004	0.0143113
861.082	0.0142716
861.160	0.0142685
861.238	0.0144510
861.317	0.0143290
861.395	0.0142761
861.473	0.0142570
861.551	0.0142625
861.629	0.0142355
861.707	0.0143707
861.785	0.0142414
861.863	0.0142619
861.942	0.0143163
862.020	0.0142091
862.098	0.0142356
862.176	0.0144422
862.254	0.0140847
862.332	0.0141203
862.410	0.0142849
862.488	0.0142860
862.567	0.0142101
862.645	0.0141504
862.723	0.0142105
862.801	0.0141604
862.879	0.0141353
862.957	0.0141634
863.035	0.0142033
863.113	0.0144086
863.192	0.0142997
863.270	0.0143478
863.348	0.0144366
863.426	0.0143420
863.504	0.0143321
863.582	0.0141869
863.660	0.0143312
863.738	0.0142468
863.817	0.0143347
863.895	0.0142479
863.973	0.0143391
864.051	0.0144419
864.129	0.0141502
864.207	0.0143467
864.285	0.0143756
864.363	0.0143107
864.442	0.0141575
864.520	0.0142626
864.598	0.0143291
864.676	0.0144161
864.754	0.0143533
864.832	0.0142184
864.910	0.0143098
864.988	0.0143292
865.067	0.0142439
865.145	0.0143173
865.223	0.0142333
865.301	0.0143427
865.379	0.0144529
865.457	0.0143083
865.535	0.0143671
865.613	0.0144175
865.692	0.0143346
865.770	0.0144783
865.848	0.0143169
865.926	0.0143361
866.004	0.0145100
866.082	0.0143353
866.160	0.0144737
866.238	0.0144360
866.317	0.0144395
866.395	0.0143541
866.473	0.0142470
866.551	0.0144695
866.629	0.0142805
866.707	0.0143198
866.785	0.0145068
866.863	0.0143457
866.942	0.0142021
867.020	0.0143495
867.098	0.0142908
867.176	0.0143670
867.254	0.0145013
867.332	0.0143482
867.410	0.0145344
867.488	0.0144006
867.567	0.0144142
867.645	0.0144994
867.723	0.0143530
867.801	0.0143980
867.879	0.0144351
867.957	0.0145153
868.035	0.0145179
868.113	0.0143744
868.192	0.0144102
868.270	0.0144073
868.348	0.0142798
868.426	0.0144350
868.504	0.0144654
868.582	0.0143964
868.660	0.0142809
868.738	0.0144539
868.817	0.0143280
868.895	0.0143370
868.973	0.0142676
869.051	0.0142419
869.129	0.0143034
869.207	0.0142017
869.285	0.0142456
869.363	0.0141885
869.442	0.0143134
869.520	0.0142850
869.598	0.0143078
869.676	0.0144006
869.754	0.0143168
869.832	0.0143679
869.910	0.0142390
869.988	0.0142927
870.067	0.0144599
870.145	0.0144012
870.223	0.0144070
870.301	0.0142433
870.379	0.0143214
870.457	0.0143694
870.535	0.0141914
870.613	0.0143298
870.692	0.0142555
870.770	0.0144741
870.848	0.0144151
870.926	0.0143491
871.004	0.0144671
871.082	0.0142802
871.160	0.0144296
871.238	0.0144302
871.317	0.0144562
871.395	0.0144117
871.473	0.0143345
871.551	0.0144405
871.629	0.0143633
871.707	0.0144748
871.785	0.0143929
871.863	0.0142761
871.942	0.0143121
872.020	0.0144440
872.098	0.0144516
872.176	0.0143567
872.254	0.0145010
872.332	0.0143542
872.410	0.0145103
872.488	0.0145770
872.567	0.0144293
872.645	0.0143999
872.723	0.0143832
872.801	0.0142838
872.879	0.0144315
872.957	0.0143897
873.035	0.0142654
873.113	0.0144486
873.192	0.0143330
873.270	0.0142944
873.348	0.0141644
873.426	0.0142513
873.504	0.0142995
873.582	0.0141438
873.660	0.0141900
873.738	0.0143315
873.817	0.0142155
873.895	0.0141730
873.973	0.0143668
874.051	0.0142417
874.129	0.0142341
874.207	0.0142477
874.285	0.0141975
874.363	0.0142153
874.442	0.0141812
874.520	0.0140926
874.598	0.0141346
874.676	0.0143130
874.754	0.0142233
874.832	0.0142501
874.910	0.0142596
874.988	0.0142175
875.067	0.0142814
875.145	0.0142921
875.223	0.0142075
875.301	0.0142540
875.379	0.0141726
875.457	0.0141615
875.535	0.0142479
875.613	0.0142110
875.692	0.0142187
875.770	0.0142085
875.848	0.0143148
875.926	0.0141634
876.004	0.0142618
876.082	0.0142685
876.160	0.0142182
876.238	0.0142982
876.317	0.0143217
876.395	0.0141593
876.473	0.0140790
876.551	0.0142712
876.629	0.0141402
876.707	0.0141914
876.785	0.0143008
876.863	0.0141499
876.942	0.0140517
877.020	0.0142630
877.098	0.0140792
877.176	0.0140747
877.254	0.0141779
877.332	0.0140440
877.410	0.0140939
877.488	0.0141043
877.567	0.0140885
877.645	0.0141606
877.723	0.0140436
877.801	0.0142286
877.879	0.0141218
877.957	0.0141415
878.035	0.0141308
878.113	0.0141676
878.192	0.0141344
878.270	0.0142657
878.348	0.0142146
878.426	0.0141879
878.504	0.0142564
878.582	0.0142986
878.660	0.0142631
878.738	0.0142943
878.817	0.0142947
878.895	0.0141943
878.973	0.0142118
879.051	0.0142741
879.129	0.0143392
879.207	0.0143353
879.285	0.0143485
879.363	0.0142332
879.442	0.0143334
879.520	0.0144210
879.598	0.0144337
879.676	0.0143710
879.754	0.0143980
879.832	0.0144478
879.910	0.0145775
879.988	0.0144804
880.067	0.0144284
880.145	0.0144140
880.223	0.0145649
880.301	0.0145277
880.379	0.0145601
880.457	0.0145512
880.535	0.0146738
880.613	0.0146219
880.692	0.0146873
880.770	0.0147121
880.848	0.0147014
880.926	0.0147217
881.004	0.0145183
881.082	0.0145803
881.160	0.0146912
881.238	0.0146671
881.317	0.0147155
881.395	0.0147128
881.473	0.0145310
881.551	0.0146564
881.629	0.0145792
881.707	0.0146008
881.785	0.0144638
881.863	0.0146141
881.942	0.0146408
882.020	0.0145110
882.098	0.0144568
882.176	0.0144522
882.254	0.0144936
882.332	0.0144661
882.410	0.0144341
882.488	0.0143973
882.567	0.0144510
882.645	0.0144625
882.723	0.0144371
882.801	0.0144283
882.879	0.0143262
882.957	0.0143046
883.035	0.0144585
883.113	0.0143584
883.192	0.0142857
883.270	0.0144217
883.348	0.0143520
883.426	0.0145340
883.504	0.0145260
883.582	0.0144798
883.660	0.0144648
883.738	0.0144296
883.817	0.0145055
883.895	0.0143714
883.973	0.0144821
884.051	0.0145544
884.129	0.0144080
884.207	0.0144947
884.285	0.0147450
884.363	0.0144654
884.442	0.0144748
884.520	0.0145318
884.598	0.0143501
884.676	0.0144478
884.754	0.0144814
884.832	0.0147269
884.910	0.0145972
884.988	0.0144754
885.067	0.0144350
885.145	0.0145071
885.223	0.0143859
885.301	0.0143450
885.379	0.0144205
885.457	0.0142835
885.535	0.0143844
885.613	0.0144363
885.692	0.0142597
885.770	0.0142659
885.848	0.0143182
885.926	0.0142940
886.004	0.0143343
886.082	0.0143708
886.160	0.0142664
886.238	0.0142571
886.317	0.0143339
886.395	0.0142216
886.473	0.0144328
886.551	0.0143222
886.629	0.0143723
886.707	0.0143703
886.785	0.0142867
886.863	0.0143608
886.942	0.0144485
887.020	0.0143118
887.098	0.0144437
887.176	0.0142467
887.254	0.0144028
887.332	0.0144090
887.410	0.0144467
887.488	0.0144752
887.567	0.0143213
887.645	0.0144018
887.723	0.0144052
887.801	0.0144049
887.879	0.0143848
887.957	0.0144314
888.035	0.0145058
888.113	0.0144086
888.192	0.0143601
888.270	0.0143870
888.348	0.0144870
888.426	0.0144812
888.504	0.0144887
888.582	0.0143486
888.660	0.0144919
888.738	0.0144410
888.817	0.0145029
888.895	0.0144026
888.973	0.0144053
889.051	0.0144726
889.129	0.0145516
889.207	0.0144585
889.285	0.0145229
889.363	0.0144822
889.442	0.0144844
889.520	0.0144430
889.598	0.0144964
889.676	0.0144426
889.754	0.0144382
889.832	0.0143524
889.910	0.0144703
889.988	0.0144556
890.067	0.0144072
890.145	0.0144439
890.223	0.0142764
890.301	0.0144513
890.379	0.0143494
890.457	0.0143427
890.535	0.0143005
890.613	0.0143265
890.692	0.0143150
890.770	0.0144035
890.848	0.0141840
890.926	0.0143617
891.004	0.0144682
891.082	0.0142689
891.160	0.0144080
891.238	0.0144815
891.317	0.0143271
891.395	0.0143511
891.473	0.0143299
891.551	0.0144037
891.629	0.0142803
891.707	0.0142442
891.785	0.0143835
891.863	0.0141344
891.942	0.0143786
892.020	0.0142632
892.098	0.0141241
892.176	0.0143719
892.254	0.0144791
892.332	0.0143923
892.410	0.0143015
892.488	0.0144772
892.567	0.0143781
892.645	0.0144267
892.723	0.0144180
892.801	0.0143258
892.879	0.0143471
892.957	0.0144423
893.035	0.0144672
893.113	0.0143218
893.192	0.0145215
893.270	0.0143290
893.348	0.0143860
893.426	0.0144885
893.504	0.0143794
893.582	0.0144294
893.660	0.0143770
893.738	0.0144219
893.817	0.0143204
893.895	0.0143359
893.973	0.0143903
894.051	0.0143861
894.129	0.0144199
894.207	0.0143168
894.285	0.0144205
894.363	0.0143931
894.442	0.0143535
894.520	0.0145884
894.598	0.0144537
894.676	0.0143502
894.754	0.0144401
894.832	0.0144242
894.910	0.0143810
894.988	0.0144442
895.067	0.0143837
895.145	0.0143886
895.223	0.0144955
895.301	0.0143858
895.379	0.0142841
895.457	0.0144274
895.535	0.0143341
895.613	0.0144420
895.692	0.0144598
895.770	0.0143343
895.848	0.0142422
895.926	0.0143095
896.004	0.0144797
896.082	0.0143546
896.160	0.0143011
896.238	0.0143288
896.317	0.0144178
896.395	0.0143593
896.473	0.0145028
896.551	0.0143729
896.629	0.0142673
896.707	0.0143262
896.785	0.0144431
896.863	0.0143925
896.942	0.0143303
897.020	0.0142297
897.098	0.0142891
897.176	0.0144946
897.254	0.0142914
897.332	0.0143347
897.410	0.0143004
897.488	0.0144257
897.567	0.0142415
897.645	0.0142711
897.723	0.0142759
897.801	0.0143628
897.879	0.0143523
897.957	0.0142050
898.035	0.0144173
898.113	0.0143785
898.192	0.0141410
898.270	0.0141946
898.348	0.0143066
898.426	0.0143333
898.504	0.0142083
898.582	0.0142767
898.660	0.0142402
898.738	0.0143948
898.817	0.0141708
898.895	0.0141715
898.973	0.0142700
899.051	0.0142815
899.129	0.0142576
899.207	0.0142203
899.285	0.0141688
899.363	0.0142338
899.442	0.0143821
899.520	0.0142854
899.598	0.0142300
899.676	0.0142342
899.754	0.0141014
899.832	0.0139360
899.910	0.0142326
899.988	0.0142653
900.067	0.0142432
900.145	0.0141869
900.223	0.0140977
900.301	0.0142605
900.379	0.0141518
900.457	0.0142548
900.535	0.0144286
900.613	0.0141885
900.692	0.0142100
900.770	0.0143213
900.848	0.0142603
900.926	0.0142017
901.004	0.0142226
901.082	0.0142458
901.160	0.0141679
901.238	0.0141611
901.317	0.0142406
901.395	0.0141285
901.473	0.0143146
901.551	0.0141821
901.629	0.0143546
901.707	0.0142979
901.785	0.0140862
901.863	0.0142233
901.942	0.0140605
902.020	0.0141515
902.098	0.0143925
902.176	0.0142660
902.254	0.0143042
902.332	0.0141283
902.410	0.0140673
902.488	0.0141895
902.567	0.0142323
902.645	0.0141531
902.723	0.0143261
902.801	0.0142304
902.879	0.0140913
902.957	0.0142603
903.035	0.0142210
903.113	0.0142205
903.192	0.0142529
903.270	0.0140556
903.348	0.0142448
903.426	0.0142062
903.504	0.0142441
903.582	0.0141302
903.660	0.0142665
903.738	0.0142538
903.817	0.0143394
903.895	0.0143965
903.973	0.0142310
904.051	0.0143222
904.129	0.0144405
904.207	0.0142434
904.285	0.0142865
904.363	0.0143121
904.442	0.0143275
904.520	0.0142894
904.598	0.0144096
904.676	0.0142003
904.754	0.0143517
904.832	0.0143687
904.910	0.0144219
904.988	0.0143766
905.067	0.0143460
905.145	0.0142652
905.223	0.0142624
905.301	0.0144678
905.379	0.0144293
905.457	0.0143089
905.535	0.0142793
905.613	0.0143513
905.692	0.0144361
905.770	0.0144957
905.848	0.0143562
905.926	0.0143803
906.004	0.0144041
906.082	0.0145086
906.160	0.0143832
906.238	0.0144487
906.317	0.0143965
906.395	0.0143433
906.473	0.0144691
906.551	0.0144403
906.629	0.0143076
906.707	0.0144093
906.785	0.0144055
906.863	0.0142970
906.942	0.0143234
907.020	0.0142195
907.098	0.0143407
907.176	0.0143633
907.254	0.0142905
907.332	0.0144161
907.410	0.0143513
907.488	0.0141798
907.567	0.0144488
907.645	0.0143418
907.723	0.0143553
907.801	0.0142342
907.879	0.0143725
907.957	0.0144090
908.035	0.0143414
908.113	0.0142034
908.192	0.0142360
908.270	0.0143477
908.348	0.0144376
908.426	0.0142504
908.504	0.0143382
908.582	0.0142906
908.660	0.0143945
908.738	0.0144250
908.817	0.0143829
908.895	0.0143342
908.973	0.0144083
909.051	0.0144007
909.129	0.0144144
909.207	0.0143640
909.285	0.0142976
909.363	0.0144704
909.442	0.0144493
909.520	0.0143658
909.598	0.0144101
909.676	0.0143681
909.754	0.0144069
909.832	0.0143965
909.910	0.0144329
909.988	0.0145282
910.067	0.0145393
910.145	0.0143319
910.223	0.0143578
910.301	0.0144444
910.379	0.0144382
910.457	0.0145146
910.535	0.0143082
910.613	0.0144609
910.692	0.0144473
910.770	0.0144189
910.848	0.0145085
910.926	0.0144526
911.004	0.0145962
911.082	0.0143976
911.160	0.0144646
911.238	0.0145242
911.317	0.0143905
911.395	0.0143116
911.473	0.0142471
911.551	0.0144861
911.629	0.0143356
911.707	0.0143431
911.785	0.0144424
911.863	0.0143978
911.942	0.0142577
912.020	0.0142911
912.098	0.0145045
912.176	0.0143633
912.254	0.0143457
912.332	0.0144403
912.410	0.0143573
912.488	0.0143105
912.567	0.0142319
912.645	0.0144448
912.723	0.0143872
912.801	0.0144036
912.879	0.0143681
912.957	0.0143908
913.035	0.0143435
913.113	0.0144190
913.192	0.0144314
913.270	0.0145334
913.348	0.0144728
913.426	0.0144472
913.504	0.0144730
913.582	0.0145418
913.660	0.0143799
913.738	0.0145751
913.817	0.0145491
913.895	0.0144769
913.973	0.0145371
914.051	0.0145827
914.129	0.0144864
914.207	0.0145497
914.285	0.0146602
914.363	0.0144022
914.442	0.0143846
914.520	0.0144759
914.598	0.0145664
914.676	0.0145678
914.754	0.0144959
914.832	0.0143610
914.910	0.0144994
914.988	0.0145883
915.067	0.0144424
915.145	0.0144270
915.223	0.0144197
915.301	0.0142821
915.379	0.0144354
915.457	0.0143275
915.535	0.0145116
915.613	0.0144718
915.692	0.0143435
915.770	0.0142062
915.848	0.0142456
915.926	0.0143591
916.004	0.0142618
916.082	0.0142666
916.160	0.0142950
916.238	0.0143066
916.317	0.0143677
916.395	0.0143507
916.473	0.0144408
916.551	0.0144348
916.629	0.0143770
916.707	0.0143993
916.785	0.0143133
916.863	0.0143965
916.942	0.0142327
917.020	0.0143472
917.098	0.0143199
917.176	0.0142435
917.254	0.0141634
917.332	0.0142549
917.410	0.0142054
917.488	0.0145048
917.567	0.0143004
917.645	0.0143036
917.723	0.0142828
917.801	0.0143333
917.879	0.0143875
917.957	0.0141499
918.035	0.0142251
918.113	0.0142232
918.192	0.0143366
918.270	0.0143289
918.348	0.0141451
918.426	0.0141776
918.504	0.0143074
918.582	0.0142527
918.660	0.0143660
918.738	0.0144000
918.817	0.0142883
918.895	0.0142335
918.973	0.0142243
919.051	0.0143130
919.129	0.0142565
919.207	0.0142038
919.285	0.0143184
919.363	0.0143910
919.442	0.0142257
919.520	0.0143182
919.598	0.0141180
919.676	0.0143047
919.754	0.0143410
919.832	0.0141655
919.910	0.0142601
