05/28/2022	14:32:02	Ver.	4.1	UNKNOWN
Optical Delay	599.988409	Delta X		0.078125	Sweeps	1	Scan Rate	0/0
Coordinates	Axis 1	NaN	Axis 2	NaN	Axis 3	NaN	Axis 4	NaN	Axis 5	NaN	Axis 6	0.000000
TX Power	0.000000	RX Power	0.000000

599.988	0.0147931
600.067	0.0148673
600.145	0.0148189
600.223	0.0148808
600.301	0.0147166
600.379	0.0149306
600.457	0.0148470
600.535	0.0147349
600.613	0.0147009
600.692	0.0148563
600.770	0.0148367
600.848	0.0148325
600.926	0.0147749
601.004	0.0148235
601.082	0.0145886
601.160	0.0146966
601.238	0.0148219
601.317	0.0148582
601.395	0.0149702
601.473	0.0147137
601.551	0.0146869
601.629	0.0148820
601.707	0.0147740
601.785	0.0146585
601.863	0.0147291
601.942	0.0149310
602.020	0.0147427
602.098	0.0146483
602.176	0.0147274
602.254	0.0146851
602.332	0.0146484
602.410	0.0147374
602.488	0.0146801
602.567	0.0147392
602.645	0.0147301
602.723	0.0147010
602.801	0.0147629
602.879	0.0147578
602.957	0.0146586
603.035	0.0146457
603.113	0.0147781
603.192	0.0146368
603.270	0.0146520
603.348	0.0147118
603.426	0.0147268
603.504	0.0146886
603.582	0.0147365
603.660	0.0147658
603.738	0.0147224
603.817	0.0147032
603.895	0.0146240
603.973	0.0145599
604.051	0.0147529
604.129	0.0146296
604.207	0.0147003
604.285	0.0146454
604.363	0.0146682
604.442	0.0147667
604.520	0.0145595
604.598	0.0146227
604.676	0.0146617
604.754	0.0146141
604.832	0.0146910
604.910	0.0146662
604.988	0.0146759
605.067	0.0145868
605.145	0.0146943
605.223	0.0146384
605.301	0.0147653
605.379	0.0147318
605.457	0.0145158
605.535	0.0145702
605.613	0.0147776
605.692	0.0146309
605.770	0.0146658
605.848	0.0147246
605.926	0.0146123
606.004	0.0147861
606.082	0.0146439
606.160	0.0146672
606.238	0.0146476
606.317	0.0145180
606.395	0.0145018
606.473	0.0146236
606.551	0.0146873
606.629	0.0147001
606.707	0.0146349
606.785	0.0145213
606.863	0.0147565
606.942	0.0146680
607.020	0.0145721
607.098	0.0146190
607.176	0.0147437
607.254	0.0147559
607.332	0.0145985
607.410	0.0147710
607.488	0.0147102
607.567	0.0147115
607.645	0.0148148
607.723	0.0147257
607.801	0.0146570
607.879	0.0146526
607.957	0.0146571
608.035	0.0146957
608.113	0.0146963
608.192	0.0147052
608.270	0.0147584
608.348	0.0146391
608.426	0.0147441
608.504	0.0147106
608.582	0.0147487
608.660	0.0147847
608.738	0.0148283
608.817	0.0146194
608.895	0.0147540
608.973	0.0147143
609.051	0.0147096
609.129	0.0148178
609.207	0.0146922
609.285	0.0146432
609.363	0.0147384
609.442	0.0147295
609.520	0.0145570
609.598	0.0148240
609.676	0.0146334
609.754	0.0147170
609.832	0.0148649
609.910	0.0146754
609.988	0.0147092
610.067	0.0146451
610.145	0.0147596
610.223	0.0147421
610.301	0.0146733
610.379	0.0145919
610.457	0.0146896
610.535	0.0146032
610.613	0.0147920
610.692	0.0146812
610.770	0.0145975
610.848	0.0147911
610.926	0.0147284
611.004	0.0147263
611.082	0.0145695
611.160	0.0145320
611.238	0.0146925
611.317	0.0146413
611.395	0.0146113
611.473	0.0147041
611.551	0.0146961
611.629	0.0147169
611.707	0.0147073
611.785	0.0147371
611.863	0.0145365
611.942	0.0146535
612.020	0.0147550
612.098	0.0145567
612.176	0.0145152
612.254	0.0145775
612.332	0.0146127
612.410	0.0146520
612.488	0.0145511
612.567	0.0146604
612.645	0.0145821
612.723	0.0146606
612.801	0.0145852
612.879	0.0144859
612.957	0.0145218
613.035	0.0146564
613.113	0.0146618
613.192	0.0146185
613.270	0.0145776
613.348	0.0146143
613.426	0.0146935
613.504	0.0146233
613.582	0.0145619
613.660	0.0145887
613.738	0.0145266
613.817	0.0146312
613.895	0.0145649
613.973	0.0144585
614.051	0.0145901
614.129	0.0145000
614.207	0.0145736
614.285	0.0146945
614.363	0.0145651
614.442	0.0146004
614.520	0.0146039
614.598	0.0145423
614.676	0.0145841
614.754	0.0145837
614.832	0.0146546
614.910	0.0147620
614.988	0.0146975
615.067	0.0145318
615.145	0.0146557
615.223	0.0147301
615.301	0.0146146
615.379	0.0147491
615.457	0.0146600
615.535	0.0147275
615.613	0.0146170
615.692	0.0147543
615.770	0.0146494
615.848	0.0145953
615.926	0.0147153
616.004	0.0145695
616.082	0.0147465
616.160	0.0146194
616.238	0.0147617
616.317	0.0146684
616.395	0.0146416
616.473	0.0146199
616.551	0.0147198
616.629	0.0146901
616.707	0.0147530
616.785	0.0147845
616.863	0.0149008
616.942	0.0148301
617.020	0.0147057
617.098	0.0146822
617.176	0.0148857
617.254	0.0146858
617.332	0.0147832
617.410	0.0146952
617.488	0.0147736
617.567	0.0147469
617.645	0.0148972
617.723	0.0148087
617.801	0.0147604
617.879	0.0147308
617.957	0.0148579
618.035	0.0148289
618.113	0.0148903
618.192	0.0147758
618.270	0.0146449
618.348	0.0147546
618.426	0.0149854
618.504	0.0148987
618.582	0.0147846
618.660	0.0148367
618.738	0.0150058
618.817	0.0149241
618.895	0.0148016
618.973	0.0148163
619.051	0.0148686
619.129	0.0148765
619.207	0.0147646
619.285	0.0148403
619.363	0.0147520
619.442	0.0149778
619.520	0.0148502
619.598	0.0148715
619.676	0.0150226
619.754	0.0149059
619.832	0.0146940
619.910	0.0147232
619.988	0.0147712
620.067	0.0147777
620.145	0.0149009
620.223	0.0148637
620.301	0.0148047
620.379	0.0147295
620.457	0.0147649
620.535	0.0148691
620.613	0.0146777
620.692	0.0146381
620.770	0.0147724
620.848	0.0147999
620.926	0.0149062
621.004	0.0149364
621.082	0.0148479
621.160	0.0148012
621.238	0.0147828
621.317	0.0147072
621.395	0.0147437
621.473	0.0146995
621.551	0.0148769
621.629	0.0149116
621.707	0.0147417
621.785	0.0147511
621.863	0.0147980
621.942	0.0147748
622.020	0.0146972
622.098	0.0147750
622.176	0.0147823
622.254	0.0147372
622.332	0.0146426
622.410	0.0147519
622.488	0.0148132
622.567	0.0146616
622.645	0.0147005
622.723	0.0149194
622.801	0.0147462
622.879	0.0146836
622.957	0.0148064
623.035	0.0146432
623.113	0.0148153
623.192	0.0148051
623.270	0.0148592
623.348	0.0148071
623.426	0.0147343
623.504	0.0148301
623.582	0.0148223
623.660	0.0148640
623.738	0.0148151
623.817	0.0149536
623.895	0.0149281
623.973	0.0147804
624.051	0.0149308
624.129	0.0150252
624.207	0.0148209
624.285	0.0148095
624.363	0.0148476
624.442	0.0148959
624.520	0.0148529
624.598	0.0148052
624.676	0.0148810
624.754	0.0148198
624.832	0.0148511
624.910	0.0149046
624.988	0.0148165
625.067	0.0148209
625.145	0.0148769
625.223	0.0148830
625.301	0.0146252
625.379	0.0146926
625.457	0.0148301
625.535	0.0146553
625.613	0.0147393
625.692	0.0146973
625.770	0.0145444
625.848	0.0145813
625.926	0.0145899
626.004	0.0147801
626.082	0.0146662
626.160	0.0145742
626.238	0.0146014
626.317	0.0145506
626.395	0.0145274
626.473	0.0146034
626.551	0.0145397
626.629	0.0145934
626.707	0.0146031
626.785	0.0145441
626.863	0.0146420
626.942	0.0146998
627.020	0.0147186
627.098	0.0147211
627.176	0.0146336
627.254	0.0146992
627.332	0.0148255
627.410	0.0148379
627.488	0.0147684
627.567	0.0146723
627.645	0.0148428
627.723	0.0148797
627.801	0.0147557
627.879	0.0148451
627.957	0.0147659
628.035	0.0145378
628.113	0.0146624
628.192	0.0145786
628.270	0.0146364
628.348	0.0145556
628.426	0.0146753
628.504	0.0146181
628.582	0.0144491
628.660	0.0145306
628.738	0.0145600
628.817	0.0145099
628.895	0.0145848
628.973	0.0146915
629.051	0.0143651
629.129	0.0146880
629.207	0.0147391
629.285	0.0146783
629.363	0.0147169
629.442	0.0146901
629.520	0.0147781
629.598	0.0147552
629.676	0.0147525
629.754	0.0148438
629.832	0.0148750
629.910	0.0148669
629.988	0.0147946
630.067	0.0148502
630.145	0.0149018
630.223	0.0147965
630.301	0.0146671
630.379	0.0148026
630.457	0.0147324
630.535	0.0146925
630.613	0.0146397
630.692	0.0144063
630.770	0.0144444
630.848	0.0145294
630.926	0.0144287
631.004	0.0144627
631.082	0.0142391
631.160	0.0142223
631.238	0.0142946
631.317	0.0143336
631.395	0.0142674
631.473	0.0143027
631.551	0.0142500
631.629	0.0143149
631.707	0.0145419
631.785	0.0144733
631.863	0.0145777
631.942	0.0145335
632.020	0.0146957
632.098	0.0148211
632.176	0.0146413
632.254	0.0148499
632.332	0.0148214
632.410	0.0148333
632.488	0.0148785
632.567	0.0149918
632.645	0.0150652
632.723	0.0150591
632.801	0.0149774
632.879	0.0148431
632.957	0.0151078
633.035	0.0151011
633.113	0.0148417
633.192	0.0149885
633.270	0.0149829
633.348	0.0149422
633.426	0.0149673
633.504	0.0147966
633.582	0.0147031
633.660	0.0148931
633.738	0.0147687
633.817	0.0148042
633.895	0.0147963
633.973	0.0148257
634.051	0.0146615
634.129	0.0148465
634.207	0.0147189
634.285	0.0146868
634.363	0.0147057
634.442	0.0147680
634.520	0.0147948
634.598	0.0147250
634.676	0.0148409
634.754	0.0147348
634.832	0.0148116
634.910	0.0147468
634.988	0.0147204
635.067	0.0147160
635.145	0.0148251
635.223	0.0146701
635.301	0.0146295
635.379	0.0147341
635.457	0.0145901
635.535	0.0144933
635.613	0.0144843
635.692	0.0147092
635.770	0.0145672
635.848	0.0146252
635.926	0.0144932
636.004	0.0144748
636.082	0.0144482
636.160	0.0144345
636.238	0.0143900
636.317	0.0145015
636.395	0.0144280
636.473	0.0144397
636.551	0.0144432
636.629	0.0145763
636.707	0.0144861
636.785	0.0145981
636.863	0.0146903
636.942	0.0146162
637.020	0.0146398
637.098	0.0147868
637.176	0.0148014
637.254	0.0147699
637.332	0.0149232
637.410	0.0149448
637.488	0.0148315
637.567	0.0148397
637.645	0.0149905
637.723	0.0149406
637.801	0.0149499
637.879	0.0151649
637.957	0.0150235
638.035	0.0149559
638.113	0.0150330
638.192	0.0151119
638.270	0.0150495
638.348	0.0150796
638.426	0.0151167
638.504	0.0149766
638.582	0.0150383
638.660	0.0150623
638.738	0.0149181
638.817	0.0148820
638.895	0.0149710
638.973	0.0148631
639.051	0.0148801
639.129	0.0148209
639.207	0.0147457
639.285	0.0148376
639.363	0.0148681
639.442	0.0147990
639.520	0.0146681
639.598	0.0147404
639.676	0.0147749
639.754	0.0147668
639.832	0.0149038
639.910	0.0147916
639.988	0.0146034
640.067	0.0148341
640.145	0.0147707
640.223	0.0146565
640.301	0.0146390
640.379	0.0147480
640.457	0.0144965
640.535	0.0147412
640.613	0.0146231
640.692	0.0144389
640.770	0.0144843
640.848	0.0146685
640.926	0.0145657
641.004	0.0145926
641.082	0.0147178
641.160	0.0144982
641.238	0.0145124
641.317	0.0146146
641.395	0.0146767
641.473	0.0145829
641.551	0.0147403
641.629	0.0147673
641.707	0.0146888
641.785	0.0146201
641.863	0.0146110
641.942	0.0147092
642.020	0.0147203
642.098	0.0146104
642.176	0.0146454
642.254	0.0145261
642.332	0.0147366
642.410	0.0146973
642.488	0.0147343
642.567	0.0146631
642.645	0.0146059
642.723	0.0147270
642.801	0.0146705
642.879	0.0144659
642.957	0.0146591
643.035	0.0145206
643.113	0.0145515
643.192	0.0146651
643.270	0.0145426
643.348	0.0146947
643.426	0.0147291
643.504	0.0145558
643.582	0.0146680
643.660	0.0147705
643.738	0.0148346
643.817	0.0148759
643.895	0.0148310
643.973	0.0148557
644.051	0.0149022
644.129	0.0148512
644.207	0.0147620
644.285	0.0149694
644.363	0.0147878
644.442	0.0147913
644.520	0.0146906
644.598	0.0146665
644.676	0.0144991
644.754	0.0146432
644.832	0.0147939
644.910	0.0144548
644.988	0.0143142
645.067	0.0142766
645.145	0.0144361
645.223	0.0143685
645.301	0.0144398
645.379	0.0145145
645.457	0.0145289
645.535	0.0144373
645.613	0.0145226
645.692	0.0144685
645.770	0.0145454
645.848	0.0144931
645.926	0.0146268
646.004	0.0146881
646.082	0.0146212
646.160	0.0146453
646.238	0.0145042
646.317	0.0146504
646.395	0.0148415
646.473	0.0149198
646.551	0.0147285
646.629	0.0148409
646.707	0.0149827
646.785	0.0149852
646.863	0.0149702
646.942	0.0151105
647.020	0.0150989
647.098	0.0151436
647.176	0.0150841
647.254	0.0150749
647.332	0.0151640
647.410	0.0150699
647.488	0.0150653
647.567	0.0150269
647.645	0.0149995
647.723	0.0149731
647.801	0.0149430
647.879	0.0146532
647.957	0.0148445
648.035	0.0148602
648.113	0.0147920
648.192	0.0148351
648.270	0.0147944
648.348	0.0146343
648.426	0.0146748
648.504	0.0147686
648.582	0.0146949
648.660	0.0145145
648.738	0.0147877
648.817	0.0146914
648.895	0.0147161
648.973	0.0146911
649.051	0.0145539
649.129	0.0147824
649.207	0.0146781
649.285	0.0147209
649.363	0.0147724
649.442	0.0146481
649.520	0.0146881
649.598	0.0146003
649.676	0.0146693
649.754	0.0146130
649.832	0.0145033
649.910	0.0146651
649.988	0.0146402
650.067	0.0146357
650.145	0.0148427
650.223	0.0149142
650.301	0.0147728
650.379	0.0147776
650.457	0.0148853
650.535	0.0150416
650.613	0.0148969
650.692	0.0150881
650.770	0.0148151
650.848	0.0148798
650.926	0.0150285
651.004	0.0151689
651.082	0.0150436
651.160	0.0150275
651.238	0.0149996
651.317	0.0150050
651.395	0.0149596
651.473	0.0151000
651.551	0.0149892
651.629	0.0148252
651.707	0.0148426
651.785	0.0150195
651.863	0.0146525
651.942	0.0146368
652.020	0.0147474
652.098	0.0147559
652.176	0.0146785
652.254	0.0147830
652.332	0.0147326
652.410	0.0146666
652.488	0.0145664
652.567	0.0146104
652.645	0.0145502
652.723	0.0143868
652.801	0.0145267
652.879	0.0145917
652.957	0.0145628
653.035	0.0145677
653.113	0.0144942
653.192	0.0143929
653.270	0.0145388
653.348	0.0145929
653.426	0.0143791
653.504	0.0145356
653.582	0.0145395
653.660	0.0144301
653.738	0.0144413
653.817	0.0144502
653.895	0.0144405
653.973	0.0144565
654.051	0.0145151
654.129	0.0145633
654.207	0.0146384
654.285	0.0145490
654.363	0.0147330
654.442	0.0146460
654.520	0.0148016
654.598	0.0147122
654.676	0.0147205
654.754	0.0147941
654.832	0.0147585
654.910	0.0150191
654.988	0.0149564
655.067	0.0148909
655.145	0.0148110
655.223	0.0150620
655.301	0.0150456
655.379	0.0149300
655.457	0.0149140
655.535	0.0149702
655.613	0.0148997
655.692	0.0149789
655.770	0.0148913
655.848	0.0149940
655.926	0.0149537
656.004	0.0149854
656.082	0.0148944
656.160	0.0148920
656.238	0.0149266
656.317	0.0148934
656.395	0.0148322
656.473	0.0148051
656.551	0.0149317
656.629	0.0148149
656.707	0.0148620
656.785	0.0149564
656.863	0.0149410
656.942	0.0149892
657.020	0.0149436
657.098	0.0150957
657.176	0.0151794
657.254	0.0150066
657.332	0.0149715
657.410	0.0149715
657.488	0.0149581
657.567	0.0150145
657.645	0.0150555
657.723	0.0149789
657.801	0.0149284
657.879	0.0148437
657.957	0.0147485
658.035	0.0148566
658.113	0.0147646
658.192	0.0147984
658.270	0.0147187
658.348	0.0146748
658.426	0.0146409
658.504	0.0146544
658.582	0.0146556
658.660	0.0145331
658.738	0.0144611
658.817	0.0145936
658.895	0.0147365
658.973	0.0145530
659.051	0.0145844
659.129	0.0147711
659.207	0.0146249
659.285	0.0145549
659.363	0.0145132
659.442	0.0145058
659.520	0.0143861
659.598	0.0144481
659.676	0.0144358
659.754	0.0145612
659.832	0.0146251
659.910	0.0143060
659.988	0.0144889
660.067	0.0143887
660.145	0.0145341
660.223	0.0145361
660.301	0.0146338
660.379	0.0146416
660.457	0.0148038
660.535	0.0147567
660.613	0.0148765
660.692	0.0149032
660.770	0.0149352
660.848	0.0149831
660.926	0.0150713
661.004	0.0149597
661.082	0.0151371
661.160	0.0149819
661.238	0.0150879
661.317	0.0150420
661.395	0.0151089
661.473	0.0150449
661.551	0.0149981
661.629	0.0150337
661.707	0.0148647
661.785	0.0148157
661.863	0.0148196
661.942	0.0149538
662.020	0.0148474
662.098	0.0146662
662.176	0.0148740
662.254	0.0147281
662.332	0.0149089
662.410	0.0150014
662.488	0.0148161
662.567	0.0148665
662.645	0.0147651
662.723	0.0146032
662.801	0.0146493
662.879	0.0146867
662.957	0.0148004
663.035	0.0146744
663.113	0.0147009
663.192	0.0146648
663.270	0.0145016
663.348	0.0145960
663.426	0.0144450
663.504	0.0144608
663.582	0.0143139
663.660	0.0142591
663.738	0.0142024
663.817	0.0140563
663.895	0.0141002
663.973	0.0139188
664.051	0.0139550
664.129	0.0139036
664.207	0.0138308
664.285	0.0139855
664.363	0.0138142
664.442	0.0139891
664.520	0.0140536
664.598	0.0141212
664.676	0.0141926
664.754	0.0142607
664.832	0.0144804
664.910	0.0144806
664.988	0.0145246
665.067	0.0146988
665.145	0.0147089
665.223	0.0148713
665.301	0.0149561
665.379	0.0149765
665.457	0.0151219
665.535	0.0150055
665.613	0.0150584
665.692	0.0151601
665.770	0.0151923
665.848	0.0151632
665.926	0.0152199
666.004	0.0153008
666.082	0.0151466
666.160	0.0151084
666.238	0.0151263
666.317	0.0150237
666.395	0.0150397
666.473	0.0149800
666.551	0.0151246
666.629	0.0149485
666.707	0.0148407
666.785	0.0149576
666.863	0.0149291
666.942	0.0148121
667.020	0.0148810
667.098	0.0148273
667.176	0.0146803
667.254	0.0146838
667.332	0.0147914
667.410	0.0147820
667.488	0.0145832
667.567	0.0145030
667.645	0.0146587
667.723	0.0144659
667.801	0.0144612
667.879	0.0146289
667.957	0.0145317
668.035	0.0144772
668.113	0.0143620
668.192	0.0145419
668.270	0.0144004
668.348	0.0145108
668.426	0.0145535
668.504	0.0144771
668.582	0.0144402
668.660	0.0146981
668.738	0.0146418
668.817	0.0146419
668.895	0.0147104
668.973	0.0147903
669.051	0.0148198
669.129	0.0148887
669.207	0.0149168
669.285	0.0151479
669.363	0.0150800
669.442	0.0150528
669.520	0.0153296
669.598	0.0152457
669.676	0.0151329
669.754	0.0151691
669.832	0.0152789
669.910	0.0153172
669.988	0.0153275
670.067	0.0153062
670.145	0.0151123
670.223	0.0151391
670.301	0.0151916
670.379	0.0151219
670.457	0.0149827
670.535	0.0149331
670.613	0.0148878
670.692	0.0147860
670.770	0.0147229
670.848	0.0146945
670.926	0.0145065
671.004	0.0146734
671.082	0.0145473
671.160	0.0146162
671.238	0.0146880
671.317	0.0145727
671.395	0.0147051
671.473	0.0146584
671.551	0.0145937
671.629	0.0147186
671.707	0.0147858
671.785	0.0146965
671.863	0.0146758
671.942	0.0147237
672.020	0.0148720
672.098	0.0148838
672.176	0.0148518
672.254	0.0149254
672.332	0.0148174
672.410	0.0149924
672.488	0.0149052
672.567	0.0149136
672.645	0.0147842
672.723	0.0147475
672.801	0.0147575
672.879	0.0146711
672.957	0.0145816
673.035	0.0148369
673.113	0.0146442
673.192	0.0145522
673.270	0.0145716
673.348	0.0144947
673.426	0.0145703
673.504	0.0142614
673.582	0.0144975
673.660	0.0144231
673.738	0.0143319
673.817	0.0145535
673.895	0.0143736
673.973	0.0143177
674.051	0.0145216
674.129	0.0145360
674.207	0.0145736
674.285	0.0146019
674.363	0.0145885
674.442	0.0147063
674.520	0.0147733
674.598	0.0149453
674.676	0.0151182
674.754	0.0151077
674.832	0.0151969
674.910	0.0151563
674.988	0.0153864
675.067	0.0152617
675.145	0.0153486
675.223	0.0154603
675.301	0.0154752
675.379	0.0154620
675.457	0.0153789
675.535	0.0154208
675.613	0.0153856
675.692	0.0153585
675.770	0.0151508
675.848	0.0152073
675.926	0.0152340
676.004	0.0150777
676.082	0.0148951
676.160	0.0149855
676.238	0.0147649
676.317	0.0147999
676.395	0.0147337
676.473	0.0146888
676.551	0.0146143
676.629	0.0146335
676.707	0.0145778
676.785	0.0143813
676.863	0.0143587
676.942	0.0144363
677.020	0.0143252
677.098	0.0143841
677.176	0.0142784
677.254	0.0143456
677.332	0.0142757
677.410	0.0143320
677.488	0.0142323
677.567	0.0143797
677.645	0.0145068
677.723	0.0143695
677.801	0.0144806
677.879	0.0145229
677.957	0.0145633
678.035	0.0147047
678.113	0.0146562
678.192	0.0148106
678.270	0.0148000
678.348	0.0149315
678.426	0.0149400
678.504	0.0149152
678.582	0.0149896
678.660	0.0151745
678.738	0.0151079
678.817	0.0152068
678.895	0.0152752
678.973	0.0152740
679.051	0.0152580
679.129	0.0152577
679.207	0.0152114
679.285	0.0152007
679.363	0.0152755
679.442	0.0153687
679.520	0.0151740
679.598	0.0153745
679.676	0.0152720
679.754	0.0153091
679.832	0.0152657
679.910	0.0150698
679.988	0.0150420
680.067	0.0151296
680.145	0.0152610
680.223	0.0150910
680.301	0.0150493
680.379	0.0151508
680.457	0.0150264
680.535	0.0149495
680.613	0.0148491
680.692	0.0148914
680.770	0.0148260
680.848	0.0147743
680.926	0.0146184
681.004	0.0145535
681.082	0.0146516
681.160	0.0143790
681.238	0.0143025
681.317	0.0141578
681.395	0.0141873
681.473	0.0141769
681.551	0.0139593
681.629	0.0141349
681.707	0.0140493
681.785	0.0139376
681.863	0.0138451
681.942	0.0140660
682.020	0.0139296
682.098	0.0140560
682.176	0.0141985
682.254	0.0141381
682.332	0.0142365
682.410	0.0141090
682.488	0.0142950
682.567	0.0143118
682.645	0.0144083
682.723	0.0144572
682.801	0.0147398
682.879	0.0147881
682.957	0.0146806
683.035	0.0147936
683.113	0.0149272
683.192	0.0150760
683.270	0.0150114
683.348	0.0151507
683.426	0.0152111
683.504	0.0153049
683.582	0.0154291
683.660	0.0153036
683.738	0.0153814
683.817	0.0154670
683.895	0.0156667
683.973	0.0156234
684.051	0.0155944
684.129	0.0155357
684.207	0.0156795
684.285	0.0155594
684.363	0.0155212
684.442	0.0153201
684.520	0.0151117
684.598	0.0151526
684.676	0.0150896
684.754	0.0148773
684.832	0.0148830
684.910	0.0145911
684.988	0.0146315
685.067	0.0144506
685.145	0.0142387
685.223	0.0141656
685.301	0.0141721
685.379	0.0142689
685.457	0.0141512
685.535	0.0141004
685.613	0.0140971
685.692	0.0141375
685.770	0.0139853
685.848	0.0140443
685.926	0.0141440
686.004	0.0142970
686.082	0.0143055
686.160	0.0143220
686.238	0.0143603
686.317	0.0144595
686.395	0.0144446
686.473	0.0144376
686.551	0.0145333
686.629	0.0145354
686.707	0.0146096
686.785	0.0145528
686.863	0.0145273
686.942	0.0146577
687.020	0.0145456
687.098	0.0145519
687.176	0.0145777
687.254	0.0145942
687.332	0.0147140
687.410	0.0146851
687.488	0.0146341
687.567	0.0148295
687.645	0.0148470
687.723	0.0149676
687.801	0.0150218
687.879	0.0150735
687.957	0.0151501
688.035	0.0151533
688.113	0.0151837
688.192	0.0151011
688.270	0.0151665
688.348	0.0152982
688.426	0.0151743
688.504	0.0151209
688.582	0.0150890
688.660	0.0150189
688.738	0.0150709
688.817	0.0148583
688.895	0.0149617
688.973	0.0148746
689.051	0.0147629
689.129	0.0148034
689.207	0.0147129
689.285	0.0145157
689.363	0.0145211
689.442	0.0146760
689.520	0.0146476
689.598	0.0146865
689.676	0.0146457
689.754	0.0146478
689.832	0.0147967
689.910	0.0145931
689.988	0.0146098
690.067	0.0146214
690.145	0.0146625
690.223	0.0146553
690.301	0.0146002
690.379	0.0145227
690.457	0.0144363
690.535	0.0145541
690.613	0.0144892
690.692	0.0143980
690.770	0.0143048
690.848	0.0142394
690.926	0.0143817
691.004	0.0142758
691.082	0.0141581
691.160	0.0142627
691.238	0.0142262
691.317	0.0142094
691.395	0.0143226
691.473	0.0142112
691.551	0.0143152
691.629	0.0143409
691.707	0.0143856
691.785	0.0144682
691.863	0.0144125
691.942	0.0145911
692.020	0.0145915
692.098	0.0145564
692.176	0.0148590
692.254	0.0148911
692.332	0.0147581
692.410	0.0148904
692.488	0.0150811
692.567	0.0151567
692.645	0.0151302
692.723	0.0151630
692.801	0.0154649
692.879	0.0153307
692.957	0.0153454
693.035	0.0153556
693.113	0.0154350
693.192	0.0154746
693.270	0.0155080
693.348	0.0154704
693.426	0.0153254
693.504	0.0156453
693.582	0.0155183
693.660	0.0154079
693.738	0.0153688
693.817	0.0153545
693.895	0.0153411
693.973	0.0151601
694.051	0.0151151
694.129	0.0150629
694.207	0.0150944
694.285	0.0147993
694.363	0.0149157
694.442	0.0147990
694.520	0.0147004
694.598	0.0145325
694.676	0.0146290
694.754	0.0144836
694.832	0.0143929
694.910	0.0144937
694.988	0.0143579
695.067	0.0142242
695.145	0.0143056
695.223	0.0142287
695.301	0.0140606
695.379	0.0141467
695.457	0.0142310
695.535	0.0142167
695.613	0.0140400
695.692	0.0141931
695.770	0.0141411
695.848	0.0142935
695.926	0.0141956
696.004	0.0143030
696.082	0.0143585
696.160	0.0144261
696.238	0.0143951
696.317	0.0145266
696.395	0.0144814
696.473	0.0145771
696.551	0.0146706
696.629	0.0147185
696.707	0.0148443
696.785	0.0149911
696.863	0.0149898
696.942	0.0149055
697.020	0.0150368
697.098	0.0153268
697.176	0.0153903
697.254	0.0153092
697.332	0.0152905
697.410	0.0154819
697.488	0.0154336
697.567	0.0155654
697.645	0.0155054
697.723	0.0155519
697.801	0.0155089
697.879	0.0154661
697.957	0.0154683
698.035	0.0155068
698.113	0.0153788
698.192	0.0152877
698.270	0.0154328
698.348	0.0154283
698.426	0.0152230
698.504	0.0150912
698.582	0.0151569
698.660	0.0151211
698.738	0.0150319
698.817	0.0150199
698.895	0.0149178
698.973	0.0148087
699.051	0.0146183
699.129	0.0146351
699.207	0.0145876
699.285	0.0146485
699.363	0.0145246
699.442	0.0144279
699.520	0.0142722
699.598	0.0143922
699.676	0.0143436
699.754	0.0143517
699.832	0.0142262
699.910	0.0142457
699.988	0.0141901
700.067	0.0142326
700.145	0.0142090
700.223	0.0141763
700.301	0.0142062
700.379	0.0144344
700.457	0.0142659
700.535	0.0143003
700.613	0.0143092
700.692	0.0143798
700.770	0.0144397
700.848	0.0145168
700.926	0.0142981
701.004	0.0145454
701.082	0.0146288
701.160	0.0144354
701.238	0.0143588
701.317	0.0144687
701.395	0.0146078
701.473	0.0145731
701.551	0.0146471
701.629	0.0146844
701.707	0.0147010
701.785	0.0146899
701.863	0.0149670
701.942	0.0148206
702.020	0.0149625
702.098	0.0149784
702.176	0.0149841
702.254	0.0151552
702.332	0.0151600
702.410	0.0151785
702.488	0.0152673
702.567	0.0153392
702.645	0.0152670
702.723	0.0152646
702.801	0.0154200
702.879	0.0151692
702.957	0.0153474
703.035	0.0153590
703.113	0.0152008
703.192	0.0151497
703.270	0.0150658
703.348	0.0151205
703.426	0.0149883
703.504	0.0149027
703.582	0.0148798
703.660	0.0147101
703.738	0.0147311
703.817	0.0146168
703.895	0.0145146
703.973	0.0146236
704.051	0.0146457
704.129	0.0145505
704.207	0.0144730
704.285	0.0144452
704.363	0.0146019
704.442	0.0145407
704.520	0.0145129
704.598	0.0145138
704.676	0.0145728
704.754	0.0145775
704.832	0.0146150
704.910	0.0145379
704.988	0.0145145
705.067	0.0145446
705.145	0.0144779
705.223	0.0143727
705.301	0.0145795
705.379	0.0144981
705.457	0.0143942
705.535	0.0144080
705.613	0.0143358
705.692	0.0142947
705.770	0.0143190
705.848	0.0142649
705.926	0.0143622
706.004	0.0143668
706.082	0.0142109
706.160	0.0142626
706.238	0.0144850
706.317	0.0144559
706.395	0.0143394
706.473	0.0144569
706.551	0.0144997
706.629	0.0145254
706.707	0.0145000
706.785	0.0146884
706.863	0.0146633
706.942	0.0146776
707.020	0.0148015
707.098	0.0147753
707.176	0.0147451
707.254	0.0147747
707.332	0.0148841
707.410	0.0148785
707.488	0.0148604
707.567	0.0149725
707.645	0.0148772
707.723	0.0147519
707.801	0.0148224
707.879	0.0148429
707.957	0.0149909
708.035	0.0150283
708.113	0.0148785
708.192	0.0148035
708.270	0.0149473
708.348	0.0148096
708.426	0.0147834
708.504	0.0149898
708.582	0.0148044
708.660	0.0150089
708.738	0.0148178
708.817	0.0148051
708.895	0.0147997
708.973	0.0146591
709.051	0.0147272
709.129	0.0146795
709.207	0.0146233
709.285	0.0147294
709.363	0.0145934
709.442	0.0145692
709.520	0.0145458
709.598	0.0145774
709.676	0.0146534
709.754	0.0143595
709.832	0.0144420
709.910	0.0145882
709.988	0.0145274
710.067	0.0144778
710.145	0.0144681
710.223	0.0145229
710.301	0.0145971
710.379	0.0145357
710.457	0.0145635
710.535	0.0146186
710.613	0.0145233
710.692	0.0145729
710.770	0.0145308
710.848	0.0144988
710.926	0.0144413
711.004	0.0145438
711.082	0.0145722
711.160	0.0146110
711.238	0.0146479
711.317	0.0145750
711.395	0.0145573
711.473	0.0146223
711.551	0.0146866
711.629	0.0146346
711.707	0.0147802
711.785	0.0146352
711.863	0.0145824
711.942	0.0147459
712.020	0.0146420
712.098	0.0145421
712.176	0.0147891
712.254	0.0148057
712.332	0.0147342
712.410	0.0148975
712.488	0.0146186
712.567	0.0146711
712.645	0.0147756
712.723	0.0147681
712.801	0.0147121
712.879	0.0147495
712.957	0.0148661
713.035	0.0148823
713.113	0.0149252
713.192	0.0150406
713.270	0.0150138
713.348	0.0147740
713.426	0.0149812
713.504	0.0151958
713.582	0.0151491
713.660	0.0151202
713.738	0.0151389
713.817	0.0150903
713.895	0.0150449
713.973	0.0152459
714.051	0.0151043
714.129	0.0151244
714.207	0.0151192
714.285	0.0151518
714.363	0.0149814
714.442	0.0148521
714.520	0.0150336
714.598	0.0148743
714.676	0.0148071
714.754	0.0148934
714.832	0.0147904
714.910	0.0146027
714.988	0.0146239
715.067	0.0146542
715.145	0.0147092
715.223	0.0147681
715.301	0.0145080
715.379	0.0146506
715.457	0.0146975
715.535	0.0145239
715.613	0.0145276
715.692	0.0144474
715.770	0.0145808
715.848	0.0146554
715.926	0.0145930
716.004	0.0146303
716.082	0.0147091
716.160	0.0147498
716.238	0.0148734
716.317	0.0148778
716.395	0.0147246
716.473	0.0146499
716.551	0.0146616
716.629	0.0146270
716.707	0.0147112
716.785	0.0145912
716.863	0.0146453
716.942	0.0145680
717.020	0.0146767
717.098	0.0144949
717.176	0.0146753
717.254	0.0144464
717.332	0.0146144
717.410	0.0145430
717.488	0.0144727
717.567	0.0145172
717.645	0.0145831
717.723	0.0146131
717.801	0.0146538
717.879	0.0145910
717.957	0.0147184
718.035	0.0148233
718.113	0.0148859
718.192	0.0148012
718.270	0.0148824
718.348	0.0149304
718.426	0.0150168
718.504	0.0149825
718.582	0.0148676
718.660	0.0150361
718.738	0.0150251
718.817	0.0149888
718.895	0.0149913
718.973	0.0149855
719.051	0.0149281
719.129	0.0149854
719.207	0.0148535
719.285	0.0149245
719.363	0.0149348
719.442	0.0148795
719.520	0.0148513
719.598	0.0148383
719.676	0.0146619
719.754	0.0146633
719.832	0.0147272
719.910	0.0147417
719.988	0.0146856
720.067	0.0146868
720.145	0.0146822
720.223	0.0146122
720.301	0.0145718
720.379	0.0145380
720.457	0.0145042
720.535	0.0145050
720.613	0.0145028
720.692	0.0144798
720.770	0.0145300
720.848	0.0144919
720.926	0.0144830
721.004	0.0144609
721.082	0.0146701
721.160	0.0146375
721.238	0.0147134
721.317	0.0147944
721.395	0.0145803
721.473	0.0145436
721.551	0.0147545
721.629	0.0147141
721.707	0.0146969
721.785	0.0147497
721.863	0.0145334
721.942	0.0143940
722.020	0.0144753
722.098	0.0143626
722.176	0.0145367
722.254	0.0144676
722.332	0.0143459
722.410	0.0144843
722.488	0.0145197
722.567	0.0143774
722.645	0.0144093
722.723	0.0144256
722.801	0.0145495
722.879	0.0145173
722.957	0.0145345
723.035	0.0146552
723.113	0.0146912
723.192	0.0145854
723.270	0.0147955
723.348	0.0148361
723.426	0.0148891
723.504	0.0147965
723.582	0.0148467
723.660	0.0148965
723.738	0.0148512
723.817	0.0148713
723.895	0.0149592
723.973	0.0149689
724.051	0.0148605
724.129	0.0148955
724.207	0.0149286
724.285	0.0148078
724.363	0.0147754
724.442	0.0147686
724.520	0.0149439
724.598	0.0148688
724.676	0.0147620
724.754	0.0146127
724.832	0.0145942
724.910	0.0148502
724.988	0.0146571
725.067	0.0146671
725.145	0.0148094
725.223	0.0146973
725.301	0.0147195
725.379	0.0147163
725.457	0.0146729
725.535	0.0148075
725.613	0.0148042
725.692	0.0148823
725.770	0.0148506
725.848	0.0148006
725.926	0.0148325
726.004	0.0149136
726.082	0.0146991
726.160	0.0148583
726.238	0.0148923
726.317	0.0148280
726.395	0.0147583
726.473	0.0148022
726.551	0.0148045
726.629	0.0147707
726.707	0.0147800
726.785	0.0148064
726.863	0.0146240
726.942	0.0146803
727.020	0.0146789
727.098	0.0146099
727.176	0.0145506
727.254	0.0146089
727.332	0.0145205
727.410	0.0144640
727.488	0.0145752
727.567	0.0145385
727.645	0.0144368
727.723	0.0144862
727.801	0.0144419
727.879	0.0145341
727.957	0.0146181
728.035	0.0146334
728.113	0.0145809
728.192	0.0145216
728.270	0.0144483
728.348	0.0145609
728.426	0.0147396
728.504	0.0146564
728.582	0.0147212
728.660	0.0146793
728.738	0.0146661
728.817	0.0146238
728.895	0.0145668
728.973	0.0146159
729.051	0.0147832
729.129	0.0147059
729.207	0.0146472
729.285	0.0146197
729.363	0.0146909
729.442	0.0146843
729.520	0.0146865
729.598	0.0146388
729.676	0.0146319
729.754	0.0145976
729.832	0.0145988
729.910	0.0145077
729.988	0.0146218
730.067	0.0145918
730.145	0.0146043
730.223	0.0145760
730.301	0.0146590
730.379	0.0146549
730.457	0.0145668
730.535	0.0145567
730.613	0.0146484
730.692	0.0146608
730.770	0.0147156
730.848	0.0145383
730.926	0.0146390
731.004	0.0147903
731.082	0.0145059
731.160	0.0147155
731.238	0.0145612
731.317	0.0146830
731.395	0.0146673
731.473	0.0146765
731.551	0.0146514
731.629	0.0146188
731.707	0.0144971
731.785	0.0145895
731.863	0.0146512
731.942	0.0145643
732.020	0.0146652
732.098	0.0146406
732.176	0.0147771
732.254	0.0145391
732.332	0.0146093
732.410	0.0146114
732.488	0.0146618
732.567	0.0147402
732.645	0.0146749
732.723	0.0145852
732.801	0.0146127
732.879	0.0145631
732.957	0.0147015
733.035	0.0146572
733.113	0.0146921
733.192	0.0148374
733.270	0.0148959
733.348	0.0146320
733.426	0.0147243
733.504	0.0149609
733.582	0.0146444
733.660	0.0149158
733.738	0.0147678
733.817	0.0147251
733.895	0.0147702
733.973	0.0148804
734.051	0.0148301
734.129	0.0148737
734.207	0.0149005
734.285	0.0147890
734.363	0.0146304
734.442	0.0146877
734.520	0.0147669
734.598	0.0147682
734.676	0.0146535
734.754	0.0148260
734.832	0.0148816
734.910	0.0146922
734.988	0.0148252
735.067	0.0147970
735.145	0.0148767
735.223	0.0147988
735.301	0.0147270
735.379	0.0147528
735.457	0.0148312
735.535	0.0147736
735.613	0.0147445
735.692	0.0150505
735.770	0.0148005
735.848	0.0147850
735.926	0.0148844
736.004	0.0147375
736.082	0.0148096
736.160	0.0148476
736.238	0.0147414
736.317	0.0146934
736.395	0.0148553
736.473	0.0148050
736.551	0.0148130
736.629	0.0147027
736.707	0.0147807
736.785	0.0147679
736.863	0.0149350
736.942	0.0148354
737.020	0.0147400
737.098	0.0148665
737.176	0.0148238
737.254	0.0148377
737.332	0.0149310
737.410	0.0149714
737.488	0.0149000
737.567	0.0148746
737.645	0.0148499
737.723	0.0148225
737.801	0.0148676
737.879	0.0149324
737.957	0.0148663
738.035	0.0148658
738.113	0.0148612
738.192	0.0148898
738.270	0.0148788
738.348	0.0148429
738.426	0.0148196
738.504	0.0146908
738.582	0.0147579
738.660	0.0147746
738.738	0.0147433
738.817	0.0147895
738.895	0.0146416
738.973	0.0145965
739.051	0.0146733
739.129	0.0146735
739.207	0.0148489
739.285	0.0145733
739.363	0.0146824
739.442	0.0146290
739.520	0.0149055
739.598	0.0148408
739.676	0.0146844
739.754	0.0144847
739.832	0.0146833
739.910	0.0146612
739.988	0.0146982
740.067	0.0148235
740.145	0.0149009
740.223	0.0149221
740.301	0.0146386
740.379	0.0148907
740.457	0.0148721
740.535	0.0148350
740.613	0.0148546
740.692	0.0147884
740.770	0.0148135
740.848	0.0146964
740.926	0.0146484
741.004	0.0148435
741.082	0.0147472
741.160	0.0146658
741.238	0.0145417
741.317	0.0146780
741.395	0.0147109
741.473	0.0145779
741.551	0.0145486
741.629	0.0145544
741.707	0.0144025
741.785	0.0144851
741.863	0.0145830
741.942	0.0147231
742.020	0.0146946
742.098	0.0146671
742.176	0.0146719
742.254	0.0146947
742.332	0.0146333
742.410	0.0146021
742.488	0.0147055
742.567	0.0147651
742.645	0.0146484
742.723	0.0146687
742.801	0.0148087
742.879	0.0147822
742.957	0.0149017
743.035	0.0149506
743.113	0.0148765
743.192	0.0149368
743.270	0.0148739
743.348	0.0149255
743.426	0.0148067
743.504	0.0148074
743.582	0.0146925
743.660	0.0147487
743.738	0.0148690
743.817	0.0148663
743.895	0.0146515
743.973	0.0147208
744.051	0.0146942
744.129	0.0149007
744.207	0.0147820
744.285	0.0147856
744.363	0.0147043
744.442	0.0146754
744.520	0.0147070
744.598	0.0148137
744.676	0.0145688
744.754	0.0146072
744.832	0.0146346
744.910	0.0146545
744.988	0.0147529
745.067	0.0146542
745.145	0.0145216
745.223	0.0145374
745.301	0.0145997
745.379	0.0146972
745.457	0.0146883
745.535	0.0145389
745.613	0.0146214
745.692	0.0147102
745.770	0.0146296
745.848	0.0145803
745.926	0.0146775
746.004	0.0146230
746.082	0.0145265
746.160	0.0146130
746.238	0.0147385
746.317	0.0147174
746.395	0.0145847
746.473	0.0146810
746.551	0.0148347
746.629	0.0146533
746.707	0.0146840
746.785	0.0146323
746.863	0.0145995
746.942	0.0146800
747.020	0.0148312
747.098	0.0147397
747.176	0.0146236
747.254	0.0147333
747.332	0.0147950
747.410	0.0147535
747.488	0.0146804
747.567	0.0147075
747.645	0.0147433
747.723	0.0148441
747.801	0.0149340
747.879	0.0146759
747.957	0.0146970
748.035	0.0148327
748.113	0.0147538
748.192	0.0147031
748.270	0.0147510
748.348	0.0149857
748.426	0.0146963
748.504	0.0148380
748.582	0.0147273
748.660	0.0147257
748.738	0.0147762
748.817	0.0146333
748.895	0.0146704
748.973	0.0147966
749.051	0.0147466
749.129	0.0147041
749.207	0.0145040
749.285	0.0145325
749.363	0.0146935
749.442	0.0145530
749.520	0.0144241
749.598	0.0144907
749.676	0.0144957
749.754	0.0145284
749.832	0.0145657
749.910	0.0144835
749.988	0.0145473
750.067	0.0145588
750.145	0.0144917
750.223	0.0145879
750.301	0.0145199
750.379	0.0146077
750.457	0.0146308
750.535	0.0146471
750.613	0.0145596
750.692	0.0145892
750.770	0.0146685
750.848	0.0147146
750.926	0.0146699
751.004	0.0147430
751.082	0.0146950
751.160	0.0148059
751.238	0.0145596
751.317	0.0147024
751.395	0.0148360
751.473	0.0148270
751.551	0.0146202
751.629	0.0146850
751.707	0.0149001
751.785	0.0147315
751.863	0.0147757
751.942	0.0147788
752.020	0.0148669
752.098	0.0148606
752.176	0.0148047
752.254	0.0146054
752.332	0.0146622
752.410	0.0147440
752.488	0.0145881
752.567	0.0147488
752.645	0.0147222
752.723	0.0147968
752.801	0.0145693
752.879	0.0146111
752.957	0.0147514
753.035	0.0147884
753.113	0.0149184
753.192	0.0148160
753.270	0.0147578
753.348	0.0148799
753.426	0.0148260
753.504	0.0148918
753.582	0.0148668
753.660	0.0147393
753.738	0.0147486
753.817	0.0147506
753.895	0.0148232
753.973	0.0148051
754.051	0.0147925
754.129	0.0147398
754.207	0.0147122
754.285	0.0148442
754.363	0.0148642
754.442	0.0147079
754.520	0.0147429
754.598	0.0147068
754.676	0.0147459
754.754	0.0146535
754.832	0.0147480
754.910	0.0147627
754.988	0.0146917
755.067	0.0147237
755.145	0.0146716
755.223	0.0145358
755.301	0.0147511
755.379	0.0147787
755.457	0.0146568
755.535	0.0146863
755.613	0.0146674
755.692	0.0147124
755.770	0.0148474
755.848	0.0147561
755.926	0.0146595
756.004	0.0148289
756.082	0.0146644
756.160	0.0149141
756.238	0.0148682
756.317	0.0147934
756.395	0.0148311
756.473	0.0148481
756.551	0.0149038
756.629	0.0150361
756.707	0.0147699
756.785	0.0148800
756.863	0.0150222
756.942	0.0149001
757.020	0.0150118
757.098	0.0148846
757.176	0.0150154
757.254	0.0150655
757.332	0.0150166
757.410	0.0150053
757.488	0.0149843
757.567	0.0149641
757.645	0.0149090
757.723	0.0148906
757.801	0.0150655
757.879	0.0149545
757.957	0.0149185
758.035	0.0148759
758.113	0.0149364
758.192	0.0148309
758.270	0.0149442
758.348	0.0149875
758.426	0.0150030
758.504	0.0148937
758.582	0.0150058
758.660	0.0149722
758.738	0.0149429
758.817	0.0149445
758.895	0.0149731
758.973	0.0149108
759.051	0.0149159
759.129	0.0149229
759.207	0.0149853
759.285	0.0149208
759.363	0.0149056
759.442	0.0148914
759.520	0.0147174
759.598	0.0148549
759.676	0.0148293
759.754	0.0148624
759.832	0.0148212
759.910	0.0147531
759.988	0.0146575
760.067	0.0148833
760.145	0.0146245
760.223	0.0147250
760.301	0.0146138
760.379	0.0145697
760.457	0.0147916
760.535	0.0147296
760.613	0.0146306
760.692	0.0146470
760.770	0.0146295
760.848	0.0146476
760.926	0.0146519
761.004	0.0146997
761.082	0.0147132
761.160	0.0146419
761.238	0.0145810
761.317	0.0146867
761.395	0.0146999
761.473	0.0146915
761.551	0.0146103
761.629	0.0146861
761.707	0.0147031
761.785	0.0147234
761.863	0.0147015
761.942	0.0147504
762.020	0.0147777
762.098	0.0146533
762.176	0.0146748
762.254	0.0148022
762.332	0.0148162
762.410	0.0147939
762.488	0.0147759
762.567	0.0146768
762.645	0.0147086
762.723	0.0147996
762.801	0.0148103
762.879	0.0146870
762.957	0.0144664
763.035	0.0146026
763.113	0.0146855
763.192	0.0147134
763.270	0.0147310
763.348	0.0146046
763.426	0.0145857
763.504	0.0145834
763.582	0.0144773
763.660	0.0144994
763.738	0.0145802
763.817	0.0145819
763.895	0.0143467
763.973	0.0144511
764.051	0.0145036
764.129	0.0144967
764.207	0.0145100
764.285	0.0145351
764.363	0.0144752
764.442	0.0144794
764.520	0.0145909
764.598	0.0144541
764.676	0.0145459
764.754	0.0145387
764.832	0.0145402
764.910	0.0144910
764.988	0.0145905
765.067	0.0145132
765.145	0.0145893
765.223	0.0146700
765.301	0.0146614
765.379	0.0146793
765.457	0.0146580
765.535	0.0147251
765.613	0.0145838
765.692	0.0146445
765.770	0.0146748
765.848	0.0147603
765.926	0.0146864
766.004	0.0147829
766.082	0.0147058
766.160	0.0147034
766.238	0.0147619
766.317	0.0146504
766.395	0.0147553
766.473	0.0147644
766.551	0.0147548
766.629	0.0146799
766.707	0.0147009
766.785	0.0147152
766.863	0.0147772
766.942	0.0147384
767.020	0.0146626
767.098	0.0147004
767.176	0.0148030
767.254	0.0147774
767.332	0.0147705
767.410	0.0146886
767.488	0.0148425
767.567	0.0149406
767.645	0.0150655
767.723	0.0148208
767.801	0.0146683
767.879	0.0148077
767.957	0.0148627
768.035	0.0147918
768.113	0.0147863
768.192	0.0148937
768.270	0.0148806
768.348	0.0148755
768.426	0.0149291
768.504	0.0148295
768.582	0.0149281
768.660	0.0149178
768.738	0.0148578
768.817	0.0148758
768.895	0.0148025
768.973	0.0147809
769.051	0.0147932
769.129	0.0147381
769.207	0.0147350
769.285	0.0147686
769.363	0.0147527
769.442	0.0147711
769.520	0.0147176
769.598	0.0147891
769.676	0.0147478
769.754	0.0148152
769.832	0.0146024
769.910	0.0145174
769.988	0.0146863
770.067	0.0148216
770.145	0.0149810
770.223	0.0149624
770.301	0.0147205
770.379	0.0146358
770.457	0.0146819
770.535	0.0148136
770.613	0.0148092
770.692	0.0148393
770.770	0.0149168
770.848	0.0149842
770.926	0.0147631
771.004	0.0148695
771.082	0.0148537
771.160	0.0148312
771.238	0.0148255
771.317	0.0149765
771.395	0.0149515
771.473	0.0149010
771.551	0.0149586
771.629	0.0149468
771.707	0.0148347
771.785	0.0147896
771.863	0.0148312
771.942	0.0147363
772.020	0.0147494
772.098	0.0148146
772.176	0.0146568
772.254	0.0149750
772.332	0.0149195
772.410	0.0149041
772.488	0.0148766
772.567	0.0147316
772.645	0.0149104
772.723	0.0150826
772.801	0.0147721
772.879	0.0148878
772.957	0.0149115
773.035	0.0147810
773.113	0.0148102
773.192	0.0148598
773.270	0.0148808
773.348	0.0147819
773.426	0.0148339
773.504	0.0147782
773.582	0.0147681
773.660	0.0148461
773.738	0.0149405
773.817	0.0149188
773.895	0.0148465
773.973	0.0147704
774.051	0.0149183
774.129	0.0147995
774.207	0.0147726
774.285	0.0149506
774.363	0.0147855
774.442	0.0147588
774.520	0.0147872
774.598	0.0147836
774.676	0.0148863
774.754	0.0149949
774.832	0.0149304
774.910	0.0149652
774.988	0.0149028
775.067	0.0149330
775.145	0.0148895
775.223	0.0149852
775.301	0.0149619
775.379	0.0149326
775.457	0.0148807
775.535	0.0150037
775.613	0.0150169
775.692	0.0149805
775.770	0.0149796
775.848	0.0150226
775.926	0.0149124
776.004	0.0149365
776.082	0.0148582
776.160	0.0149521
776.238	0.0149994
776.317	0.0148160
776.395	0.0147799
776.473	0.0150813
776.551	0.0149059
776.629	0.0149052
776.707	0.0148988
776.785	0.0147182
776.863	0.0148071
776.942	0.0149371
777.020	0.0149675
777.098	0.0148832
777.176	0.0148128
777.254	0.0148621
777.332	0.0148928
777.410	0.0147735
777.488	0.0148835
777.567	0.0147726
777.645	0.0147674
777.723	0.0148209
777.801	0.0148045
777.879	0.0148904
777.957	0.0147055
778.035	0.0148763
778.113	0.0148654
778.192	0.0147564
778.270	0.0147355
778.348	0.0147733
778.426	0.0148038
778.504	0.0148472
778.582	0.0147847
778.660	0.0147592
778.738	0.0148777
778.817	0.0148103
778.895	0.0149066
778.973	0.0148431
779.051	0.0147496
779.129	0.0149543
779.207	0.0149313
779.285	0.0148864
779.363	0.0148157
779.442	0.0149514
779.520	0.0148584
779.598	0.0147709
779.676	0.0149538
779.754	0.0149870
779.832	0.0147736
779.910	0.0149818
779.988	0.0148629
780.067	0.0148060
780.145	0.0149608
780.223	0.0150110
780.301	0.0150354
780.379	0.0150014
780.457	0.0149475
780.535	0.0149985
780.613	0.0149993
780.692	0.0150201
780.770	0.0149376
780.848	0.0149743
780.926	0.0149900
781.004	0.0150446
781.082	0.0148718
781.160	0.0147243
781.238	0.0147768
781.317	0.0148677
781.395	0.0148039
781.473	0.0147872
781.551	0.0149085
781.629	0.0148679
781.707	0.0147986
781.785	0.0146450
781.863	0.0148637
781.942	0.0147415
782.020	0.0147911
782.098	0.0148060
782.176	0.0148053
782.254	0.0147669
782.332	0.0149670
782.410	0.0150025
782.488	0.0148475
782.567	0.0147778
782.645	0.0148222
782.723	0.0148763
782.801	0.0148701
782.879	0.0148660
782.957	0.0148396
783.035	0.0147573
783.113	0.0147955
783.192	0.0147723
783.270	0.0148531
783.348	0.0148016
783.426	0.0146641
783.504	0.0147352
783.582	0.0146565
783.660	0.0147574
783.738	0.0147069
783.817	0.0147054
783.895	0.0146953
783.973	0.0146282
784.051	0.0147144
784.129	0.0146878
784.207	0.0146404
784.285	0.0145567
784.363	0.0146028
784.442	0.0147331
784.520	0.0146784
784.598	0.0147529
784.676	0.0147590
784.754	0.0147672
784.832	0.0148077
784.910	0.0146567
784.988	0.0147903
785.067	0.0147350
785.145	0.0147845
785.223	0.0146251
785.301	0.0146931
785.379	0.0147141
785.457	0.0146079
785.535	0.0147055
785.613	0.0148522
785.692	0.0148596
785.770	0.0146568
785.848	0.0146818
785.926	0.0146116
786.004	0.0146342
786.082	0.0146357
786.160	0.0145531
786.238	0.0147015
786.317	0.0146509
786.395	0.0146503
786.473	0.0146943
786.551	0.0146040
786.629	0.0145930
786.707	0.0145640
786.785	0.0146809
786.863	0.0146495
786.942	0.0145838
787.020	0.0146397
787.098	0.0146282
787.176	0.0147736
787.254	0.0146130
787.332	0.0147167
787.410	0.0146756
787.488	0.0145469
787.567	0.0146479
787.645	0.0145026
787.723	0.0147125
787.801	0.0146078
787.879	0.0145937
787.957	0.0145670
788.035	0.0146270
788.113	0.0146502
788.192	0.0146658
788.270	0.0146094
788.348	0.0145118
788.426	0.0146037
788.504	0.0145696
788.582	0.0146471
788.660	0.0147250
788.738	0.0146541
788.817	0.0147003
788.895	0.0146677
788.973	0.0147367
789.051	0.0147591
789.129	0.0146698
789.207	0.0149010
789.285	0.0148393
789.363	0.0148811
789.442	0.0149007
789.520	0.0146774
789.598	0.0149163
789.676	0.0147604
789.754	0.0149312
789.832	0.0148869
789.910	0.0149650
789.988	0.0148729
790.067	0.0149094
790.145	0.0146999
790.223	0.0148122
790.301	0.0148735
790.379	0.0148291
790.457	0.0149619
790.535	0.0147646
790.613	0.0148759
790.692	0.0148713
790.770	0.0149023
790.848	0.0147411
790.926	0.0147224
791.004	0.0148238
791.082	0.0149183
791.160	0.0148492
791.238	0.0147890
791.317	0.0148373
791.395	0.0148487
791.473	0.0147842
791.551	0.0148412
791.629	0.0148029
791.707	0.0146750
791.785	0.0148885
791.863	0.0147901
791.942	0.0147390
792.020	0.0148145
792.098	0.0147910
792.176	0.0147342
792.254	0.0147359
792.332	0.0148338
792.410	0.0147661
792.488	0.0147601
792.567	0.0146485
792.645	0.0147850
792.723	0.0146634
792.801	0.0147509
792.879	0.0147669
792.957	0.0147277
793.035	0.0147346
793.113	0.0146851
793.192	0.0147885
793.270	0.0148269
793.348	0.0148606
793.426	0.0146788
793.504	0.0147841
793.582	0.0147554
793.660	0.0146311
793.738	0.0149327
793.817	0.0148484
793.895	0.0148119
793.973	0.0148716
794.051	0.0148180
794.129	0.0147955
794.207	0.0148694
794.285	0.0149997
794.363	0.0147279
794.442	0.0148105
794.520	0.0147678
794.598	0.0150752
794.676	0.0149338
794.754	0.0149391
794.832	0.0147554
794.910	0.0147866
794.988	0.0149258
795.067	0.0147813
795.145	0.0150797
795.223	0.0149099
795.301	0.0149476
795.379	0.0147770
795.457	0.0148572
795.535	0.0148515
795.613	0.0149052
795.692	0.0147839
795.770	0.0146125
795.848	0.0147073
795.926	0.0146640
796.004	0.0148140
796.082	0.0148207
796.160	0.0146374
796.238	0.0147164
796.317	0.0146525
796.395	0.0145357
796.473	0.0145679
796.551	0.0146954
796.629	0.0146976
796.707	0.0147191
796.785	0.0146949
796.863	0.0146712
796.942	0.0146894
797.020	0.0146329
797.098	0.0146843
797.176	0.0147794
797.254	0.0147745
797.332	0.0147821
797.410	0.0147135
797.488	0.0147607
797.567	0.0147526
797.645	0.0148548
797.723	0.0148042
797.801	0.0147680
797.879	0.0147746
797.957	0.0148759
798.035	0.0148143
798.113	0.0148045
798.192	0.0147986
798.270	0.0148766
798.348	0.0148747
798.426	0.0149140
798.504	0.0148454
798.582	0.0148325
798.660	0.0147106
798.738	0.0148198
798.817	0.0149648
798.895	0.0149463
798.973	0.0149956
799.051	0.0149484
799.129	0.0148803
799.207	0.0150474
799.285	0.0150126
799.363	0.0149400
799.442	0.0151115
799.520	0.0150235
799.598	0.0150211
799.676	0.0149177
799.754	0.0150064
799.832	0.0150217
799.910	0.0149945
799.988	0.0150159
800.067	0.0149619
800.145	0.0148442
800.223	0.0148544
800.301	0.0148485
800.379	0.0149155
800.457	0.0148201
800.535	0.0147186
800.613	0.0148907
800.692	0.0147752
800.770	0.0147044
800.848	0.0148459
800.926	0.0146674
801.004	0.0146539
801.082	0.0147257
801.160	0.0145787
801.238	0.0148341
801.317	0.0146505
801.395	0.0145376
801.473	0.0148539
801.551	0.0147051
801.629	0.0146974
801.707	0.0146370
801.785	0.0145419
801.863	0.0147062
801.942	0.0147122
802.020	0.0145260
802.098	0.0147489
802.176	0.0147162
802.254	0.0146229
802.332	0.0146205
802.410	0.0146435
802.488	0.0145478
802.567	0.0146474
802.645	0.0146960
802.723	0.0147180
802.801	0.0146771
802.879	0.0146825
802.957	0.0146300
803.035	0.0148318
803.113	0.0149290
803.192	0.0148448
803.270	0.0148063
803.348	0.0148253
803.426	0.0148103
803.504	0.0147980
803.582	0.0148212
803.660	0.0147369
803.738	0.0147328
803.817	0.0146293
803.895	0.0146605
803.973	0.0147115
804.051	0.0147734
804.129	0.0147990
804.207	0.0146929
804.285	0.0146460
804.363	0.0146444
804.442	0.0145560
804.520	0.0146339
804.598	0.0146178
804.676	0.0145917
804.754	0.0146757
804.832	0.0146539
804.910	0.0145833
804.988	0.0147025
805.067	0.0146961
805.145	0.0146774
805.223	0.0146030
805.301	0.0145649
805.379	0.0146862
805.457	0.0147499
805.535	0.0147776
805.613	0.0145715
805.692	0.0147673
805.770	0.0147947
805.848	0.0146992
805.926	0.0148621
806.004	0.0148058
806.082	0.0147701
806.160	0.0148100
806.238	0.0148171
806.317	0.0147153
806.395	0.0148212
806.473	0.0147169
806.551	0.0149250
806.629	0.0147145
806.707	0.0147113
806.785	0.0148145
806.863	0.0147585
806.942	0.0145580
807.020	0.0146126
807.098	0.0148114
807.176	0.0147560
807.254	0.0145862
807.332	0.0146018
807.410	0.0148315
807.488	0.0146117
807.567	0.0147108
807.645	0.0147858
807.723	0.0147083
807.801	0.0147136
807.879	0.0146722
807.957	0.0146570
808.035	0.0146727
808.113	0.0147155
808.192	0.0147158
808.270	0.0147665
808.348	0.0146407
808.426	0.0146848
808.504	0.0147932
808.582	0.0147404
808.660	0.0147050
808.738	0.0147125
808.817	0.0147534
808.895	0.0148035
808.973	0.0147457
809.051	0.0146450
809.129	0.0147662
809.207	0.0147647
809.285	0.0146603
809.363	0.0147181
809.442	0.0146822
809.520	0.0146837
809.598	0.0146665
809.676	0.0145281
809.754	0.0146897
809.832	0.0146112
809.910	0.0146658
809.988	0.0144907
810.067	0.0146437
810.145	0.0143814
810.223	0.0143347
810.301	0.0145139
810.379	0.0145306
810.457	0.0145448
810.535	0.0145509
810.613	0.0144871
810.692	0.0146233
810.770	0.0145112
810.848	0.0145251
810.926	0.0145867
811.004	0.0145296
811.082	0.0145423
811.160	0.0145485
811.238	0.0146335
811.317	0.0146651
811.395	0.0148213
811.473	0.0145748
811.551	0.0146333
811.629	0.0147148
811.707	0.0146324
811.785	0.0147586
811.863	0.0146919
811.942	0.0145894
812.020	0.0147419
812.098	0.0146751
812.176	0.0147393
812.254	0.0146796
812.332	0.0146386
812.410	0.0146435
812.488	0.0146664
812.567	0.0146832
812.645	0.0147661
812.723	0.0147463
812.801	0.0146732
812.879	0.0148065
812.957	0.0146437
813.035	0.0147009
813.113	0.0147845
813.192	0.0147267
813.270	0.0146169
813.348	0.0147113
813.426	0.0148645
813.504	0.0148471
813.582	0.0147542
813.660	0.0148770
813.738	0.0146236
813.817	0.0147736
813.895	0.0149199
813.973	0.0148656
814.051	0.0147311
814.129	0.0148206
814.207	0.0147604
814.285	0.0146056
814.363	0.0148184
814.442	0.0146661
814.520	0.0147271
814.598	0.0148745
814.676	0.0147022
814.754	0.0147410
814.832	0.0148785
814.910	0.0147289
814.988	0.0147446
815.067	0.0148311
815.145	0.0149004
815.223	0.0149229
815.301	0.0147441
815.379	0.0146857
815.457	0.0146964
815.535	0.0147196
815.613	0.0148215
815.692	0.0148311
815.770	0.0148431
815.848	0.0149138
815.926	0.0148153
816.004	0.0148087
816.082	0.0147191
816.160	0.0148139
816.238	0.0147457
816.317	0.0148555
816.395	0.0149090
816.473	0.0148498
816.551	0.0148537
816.629	0.0148816
816.707	0.0147395
816.785	0.0149542
816.863	0.0149157
816.942	0.0149274
817.020	0.0148983
817.098	0.0148522
817.176	0.0148870
817.254	0.0148218
817.332	0.0146204
817.410	0.0146396
817.488	0.0147466
817.567	0.0146007
817.645	0.0146665
817.723	0.0148733
817.801	0.0147127
817.879	0.0147453
817.957	0.0147591
818.035	0.0147653
818.113	0.0147158
818.192	0.0146103
818.270	0.0147780
818.348	0.0147529
818.426	0.0145151
818.504	0.0147017
818.582	0.0146616
818.660	0.0145902
818.738	0.0147161
818.817	0.0146909
818.895	0.0146666
818.973	0.0146722
819.051	0.0148444
819.129	0.0148571
819.207	0.0147156
819.285	0.0146590
819.363	0.0148682
819.442	0.0148399
819.520	0.0146397
819.598	0.0147940
819.676	0.0149100
819.754	0.0148941
819.832	0.0147478
819.910	0.0147049
819.988	0.0147633
820.067	0.0146494
820.145	0.0147671
820.223	0.0149212
820.301	0.0147392
820.379	0.0147813
820.457	0.0147482
820.535	0.0148232
820.613	0.0147815
820.692	0.0146990
820.770	0.0147052
820.848	0.0147446
820.926	0.0146813
821.004	0.0147538
821.082	0.0147271
821.160	0.0147141
821.238	0.0146761
821.317	0.0147159
821.395	0.0147996
821.473	0.0147108
821.551	0.0146255
821.629	0.0147295
821.707	0.0146275
821.785	0.0146729
821.863	0.0147214
821.942	0.0146514
822.020	0.0146748
822.098	0.0146240
822.176	0.0146178
822.254	0.0147218
822.332	0.0146975
822.410	0.0146883
822.488	0.0146852
822.567	0.0145250
822.645	0.0146074
822.723	0.0147482
822.801	0.0146601
822.879	0.0144810
822.957	0.0146925
823.035	0.0145229
823.113	0.0146215
823.192	0.0146250
823.270	0.0145790
823.348	0.0145588
823.426	0.0144481
823.504	0.0145747
823.582	0.0147205
823.660	0.0145795
823.738	0.0145554
823.817	0.0145985
823.895	0.0145207
823.973	0.0147144
824.051	0.0146738
824.129	0.0146616
824.207	0.0146072
824.285	0.0146449
824.363	0.0146828
824.442	0.0147369
824.520	0.0145081
824.598	0.0146741
824.676	0.0146306
824.754	0.0146645
824.832	0.0145668
824.910	0.0146739
824.988	0.0146808
825.067	0.0148866
825.145	0.0147279
825.223	0.0145958
825.301	0.0147295
825.379	0.0146965
825.457	0.0146866
825.535	0.0147560
825.613	0.0146678
825.692	0.0146764
825.770	0.0147577
825.848	0.0146281
825.926	0.0148040
826.004	0.0147739
826.082	0.0146790
826.160	0.0147507
826.238	0.0146935
826.317	0.0148396
826.395	0.0147530
826.473	0.0146804
826.551	0.0147726
826.629	0.0147533
826.707	0.0147455
826.785	0.0146988
826.863	0.0147457
826.942	0.0145892
827.020	0.0145621
827.098	0.0146819
827.176	0.0147057
827.254	0.0145984
827.332	0.0146433
827.410	0.0146944
827.488	0.0146176
827.567	0.0145792
827.645	0.0144303
827.723	0.0144949
827.801	0.0144973
827.879	0.0146271
827.957	0.0145135
828.035	0.0144797
828.113	0.0145161
828.192	0.0145646
828.270	0.0145375
828.348	0.0145389
828.426	0.0145689
828.504	0.0145277
828.582	0.0145174
828.660	0.0144827
828.738	0.0145166
828.817	0.0144505
828.895	0.0143227
828.973	0.0144875
829.051	0.0146120
829.129	0.0144666
829.207	0.0144802
829.285	0.0144733
829.363	0.0146116
829.442	0.0145458
829.520	0.0145750
829.598	0.0145190
829.676	0.0144593
829.754	0.0144409
829.832	0.0145666
829.910	0.0146194
829.988	0.0146588
830.067	0.0145078
830.145	0.0145107
830.223	0.0145626
830.301	0.0144927
830.379	0.0146505
830.457	0.0146622
830.535	0.0145706
830.613	0.0146166
830.692	0.0147976
830.770	0.0145522
830.848	0.0145319
830.926	0.0148213
831.004	0.0147615
831.082	0.0146202
831.160	0.0148325
831.238	0.0148981
831.317	0.0146883
831.395	0.0146416
831.473	0.0146696
831.551	0.0148779
831.629	0.0149005
831.707	0.0148480
831.785	0.0147850
831.863	0.0146817
831.942	0.0148180
832.020	0.0148754
832.098	0.0149623
832.176	0.0148712
832.254	0.0148327
832.332	0.0149653
832.410	0.0147838
832.488	0.0149065
832.567	0.0149490
832.645	0.0148872
832.723	0.0148862
832.801	0.0147984
832.879	0.0148175
832.957	0.0149438
833.035	0.0148170
833.113	0.0148581
833.192	0.0149370
833.270	0.0149839
833.348	0.0149277
833.426	0.0149078
833.504	0.0149373
833.582	0.0150166
833.660	0.0149612
833.738	0.0150585
833.817	0.0149823
833.895	0.0150983
833.973	0.0148892
834.051	0.0150620
834.129	0.0148476
834.207	0.0148624
834.285	0.0149593
834.363	0.0148563
834.442	0.0148586
834.520	0.0149348
834.598	0.0149870
834.676	0.0149780
834.754	0.0150105
834.832	0.0148293
834.910	0.0148602
834.988	0.0148443
835.067	0.0147629
835.145	0.0147511
835.223	0.0147955
835.301	0.0147912
835.379	0.0148251
835.457	0.0148315
835.535	0.0148259
835.613	0.0148173
835.692	0.0148054
835.770	0.0147761
835.848	0.0148698
835.926	0.0148154
836.004	0.0149699
836.082	0.0148230
836.160	0.0149084
836.238	0.0149662
836.317	0.0148098
836.395	0.0147927
836.473	0.0148560
836.551	0.0148618
836.629	0.0148782
836.707	0.0147962
836.785	0.0147926
836.863	0.0149652
836.942	0.0147942
837.020	0.0149156
837.098	0.0148853
837.176	0.0148573
837.254	0.0148969
837.332	0.0148753
837.410	0.0148668
837.488	0.0148355
837.567	0.0149519
837.645	0.0147302
837.723	0.0149194
837.801	0.0148338
837.879	0.0147160
837.957	0.0147886
838.035	0.0147507
838.113	0.0147401
838.192	0.0147915
838.270	0.0148207
838.348	0.0146532
838.426	0.0147144
838.504	0.0147484
838.582	0.0147400
838.660	0.0147922
838.738	0.0147304
838.817	0.0146709
838.895	0.0148071
838.973	0.0147192
839.051	0.0146683
839.129	0.0146410
839.207	0.0146699
839.285	0.0147906
839.363	0.0147889
839.442	0.0146770
839.520	0.0147179
839.598	0.0147102
839.676	0.0146793
839.754	0.0146764
839.832	0.0147012
839.910	0.0146632
839.988	0.0147156
840.067	0.0148400
840.145	0.0146794
840.223	0.0147275
840.301	0.0147079
840.379	0.0145288
840.457	0.0146571
840.535	0.0147400
840.613	0.0147090
840.692	0.0147067
840.770	0.0147050
840.848	0.0146993
840.926	0.0146560
841.004	0.0146429
841.082	0.0145818
841.160	0.0147169
841.238	0.0148587
841.317	0.0146947
841.395	0.0147215
841.473	0.0146971
841.551	0.0146806
841.629	0.0147501
841.707	0.0145889
841.785	0.0147193
841.863	0.0147222
841.942	0.0147253
842.020	0.0146468
842.098	0.0147929
842.176	0.0146533
842.254	0.0148482
842.332	0.0147812
842.410	0.0147105
842.488	0.0145708
842.567	0.0146148
842.645	0.0147701
842.723	0.0147202
842.801	0.0147734
842.879	0.0145787
842.957	0.0147301
843.035	0.0145898
843.113	0.0146744
843.192	0.0147305
843.270	0.0147586
843.348	0.0146970
843.426	0.0147181
843.504	0.0146284
843.582	0.0146638
843.660	0.0145976
843.738	0.0145686
843.817	0.0147218
843.895	0.0147387
843.973	0.0147404
844.051	0.0146732
844.129	0.0147856
844.207	0.0147495
844.285	0.0146699
844.363	0.0145617
844.442	0.0147253
844.520	0.0147249
844.598	0.0148315
844.676	0.0148249
844.754	0.0148293
844.832	0.0147682
844.910	0.0147528
844.988	0.0147874
845.067	0.0147922
845.145	0.0147757
845.223	0.0148954
845.301	0.0147182
845.379	0.0147653
845.457	0.0148401
845.535	0.0149258
845.613	0.0147079
845.692	0.0147208
845.770	0.0148420
845.848	0.0148538
845.926	0.0148541
846.004	0.0148600
846.082	0.0147449
846.160	0.0148830
846.238	0.0147573
846.317	0.0149870
846.395	0.0148631
846.473	0.0148073
846.551	0.0148705
846.629	0.0147350
846.707	0.0145467
846.785	0.0148257
846.863	0.0148674
846.942	0.0148743
847.020	0.0147417
847.098	0.0147238
847.176	0.0148286
847.254	0.0148335
847.332	0.0147875
847.410	0.0147940
847.488	0.0147793
847.567	0.0147368
847.645	0.0148991
847.723	0.0148355
847.801	0.0147073
847.879	0.0147514
847.957	0.0147206
848.035	0.0146944
848.113	0.0147323
848.192	0.0148148
848.270	0.0147538
848.348	0.0148806
848.426	0.0146893
848.504	0.0148081
848.582	0.0147170
848.660	0.0148886
848.738	0.0147431
848.817	0.0147540
848.895	0.0147952
848.973	0.0147886
849.051	0.0146422
849.129	0.0146369
849.207	0.0147223
849.285	0.0148093
849.363	0.0147847
849.442	0.0148231
849.520	0.0146599
849.598	0.0145611
849.676	0.0146664
849.754	0.0147073
849.832	0.0146390
849.910	0.0146765
849.988	0.0145547
850.067	0.0147050
850.145	0.0146668
850.223	0.0146719
850.301	0.0147002
850.379	0.0148431
850.457	0.0147230
850.535	0.0147979
850.613	0.0146441
850.692	0.0147693
850.770	0.0148051
850.848	0.0147530
850.926	0.0147520
851.004	0.0147517
851.082	0.0148414
851.160	0.0146433
851.238	0.0147577
851.317	0.0147868
851.395	0.0148650
851.473	0.0149335
851.551	0.0147809
851.629	0.0147322
851.707	0.0147270
851.785	0.0146469
851.863	0.0147825
851.942	0.0147771
852.020	0.0147151
852.098	0.0147578
852.176	0.0147708
852.254	0.0148685
852.332	0.0148106
852.410	0.0146845
852.488	0.0146819
852.567	0.0147749
852.645	0.0146916
852.723	0.0147123
852.801	0.0145909
852.879	0.0146471
852.957	0.0147614
853.035	0.0147517
853.113	0.0146272
853.192	0.0147196
853.270	0.0147275
853.348	0.0147784
853.426	0.0148118
853.504	0.0145900
853.582	0.0146639
853.660	0.0147811
853.738	0.0147272
853.817	0.0146976
853.895	0.0145396
853.973	0.0146666
854.051	0.0146461
854.129	0.0147693
854.207	0.0146432
854.285	0.0147442
854.363	0.0147356
854.442	0.0146612
854.520	0.0146931
854.598	0.0148751
854.676	0.0148563
854.754	0.0147434
854.832	0.0148063
854.910	0.0148096
854.988	0.0148380
855.067	0.0148038
855.145	0.0148935
855.223	0.0148313
855.301	0.0148742
855.379	0.0148100
855.457	0.0147617
855.535	0.0148073
855.613	0.0148591
855.692	0.0150259
855.770	0.0148177
855.848	0.0147412
855.926	0.0149581
856.004	0.0149644
856.082	0.0150242
856.160	0.0149905
856.238	0.0149545
856.317	0.0149911
856.395	0.0150042
856.473	0.0149980
856.551	0.0148880
856.629	0.0150411
856.707	0.0149763
856.785	0.0149839
856.863	0.0150193
856.942	0.0150143
857.020	0.0148367
857.098	0.0150249
857.176	0.0151323
857.254	0.0150427
857.332	0.0151139
857.410	0.0150020
857.488	0.0149068
857.567	0.0149789
857.645	0.0150285
857.723	0.0150156
857.801	0.0148244
857.879	0.0149533
857.957	0.0149807
858.035	0.0149705
858.113	0.0148265
858.192	0.0148342
858.270	0.0149984
858.348	0.0148029
858.426	0.0148115
858.504	0.0148867
858.582	0.0149496
858.660	0.0148082
858.738	0.0149385
858.817	0.0150076
858.895	0.0148269
858.973	0.0148685
859.051	0.0148441
859.129	0.0148478
859.207	0.0148121
859.285	0.0147678
859.363	0.0148024
859.442	0.0148768
859.520	0.0147695
859.598	0.0147635
859.676	0.0147231
859.754	0.0147736
859.832	0.0148211
859.910	0.0148660
859.988	0.0146764
860.067	0.0147147
860.145	0.0147614
860.223	0.0148199
860.301	0.0147317
860.379	0.0147656
860.457	0.0147141
860.535	0.0147785
860.613	0.0148232
860.692	0.0148724
860.770	0.0146117
860.848	0.0146914
860.926	0.0146991
861.004	0.0147273
861.082	0.0147898
861.160	0.0146584
861.238	0.0147399
861.317	0.0147416
861.395	0.0146507
861.473	0.0147516
861.551	0.0146719
861.629	0.0147264
861.707	0.0146883
861.785	0.0145412
861.863	0.0145030
861.942	0.0146792
862.020	0.0145864
862.098	0.0146812
862.176	0.0145769
862.254	0.0146307
862.332	0.0146012
862.410	0.0145210
862.488	0.0146513
862.567	0.0146075
862.645	0.0146859
862.723	0.0146917
862.801	0.0144456
862.879	0.0145133
862.957	0.0147276
863.035	0.0147376
863.113	0.0147432
863.192	0.0146698
863.270	0.0146027
863.348	0.0148433
863.426	0.0147624
863.504	0.0148238
863.582	0.0147092
863.660	0.0147812
863.738	0.0146644
863.817	0.0148466
863.895	0.0147695
863.973	0.0146272
864.051	0.0148515
864.129	0.0148625
864.207	0.0148420
864.285	0.0147182
864.363	0.0147372
864.442	0.0147727
864.520	0.0148487
864.598	0.0148140
864.676	0.0148563
864.754	0.0147780
864.832	0.0147183
864.910	0.0149072
864.988	0.0148881
865.067	0.0146673
865.145	0.0148547
865.223	0.0148846
865.301	0.0146361
865.379	0.0147843
865.457	0.0148579
865.535	0.0149100
865.613	0.0148572
865.692	0.0148477
865.770	0.0147496
865.848	0.0148336
865.926	0.0147337
866.004	0.0147045
866.082	0.0147989
866.160	0.0147304
866.238	0.0147963
866.317	0.0147801
866.395	0.0148013
866.473	0.0147443
866.551	0.0146362
866.629	0.0147936
866.707	0.0147488
866.785	0.0147366
866.863	0.0146658
866.942	0.0147068
867.020	0.0146868
867.098	0.0148936
867.176	0.0149034
867.254	0.0146582
867.332	0.0147868
867.410	0.0147089
867.488	0.0147417
867.567	0.0146423
867.645	0.0146762
867.723	0.0145740
867.801	0.0147543
867.879	0.0147318
867.957	0.0146103
868.035	0.0146964
868.113	0.0146461
868.192	0.0146980
868.270	0.0147282
868.348	0.0147366
868.426	0.0148148
868.504	0.0147168
868.582	0.0145735
868.660	0.0147230
868.738	0.0146717
868.817	0.0147024
868.895	0.0145934
868.973	0.0147015
869.051	0.0146551
869.129	0.0147709
869.207	0.0148112
869.285	0.0145537
869.363	0.0145486
869.442	0.0146397
869.520	0.0148344
869.598	0.0146223
869.676	0.0147179
869.754	0.0147331
869.832	0.0145908
869.910	0.0145266
869.988	0.0146857
870.067	0.0146915
870.145	0.0145957
870.223	0.0146240
870.301	0.0146719
870.379	0.0146663
870.457	0.0148205
870.535	0.0147312
870.613	0.0147825
870.692	0.0147571
870.770	0.0147214
870.848	0.0147577
870.926	0.0147592
871.004	0.0146725
871.082	0.0147150
871.160	0.0148582
871.238	0.0148209
871.317	0.0147571
871.395	0.0147592
871.473	0.0148502
871.551	0.0147426
871.629	0.0148660
871.707	0.0150047
871.785	0.0148786
871.863	0.0148487
871.942	0.0149158
872.020	0.0148093
872.098	0.0148409
872.176	0.0148910
872.254	0.0149370
872.332	0.0149110
872.410	0.0148016
872.488	0.0148578
872.567	0.0149037
872.645	0.0147362
872.723	0.0147349
872.801	0.0148036
872.879	0.0148366
872.957	0.0149320
873.035	0.0149017
873.113	0.0149521
873.192	0.0146970
873.270	0.0148498
873.348	0.0149748
873.426	0.0148521
873.504	0.0148895
873.582	0.0148568
873.660	0.0149312
873.738	0.0149631
873.817	0.0149526
873.895	0.0149706
873.973	0.0149103
874.051	0.0149350
874.129	0.0150771
874.207	0.0151854
874.285	0.0150729
874.363	0.0150926
874.442	0.0151003
874.520	0.0149409
874.598	0.0150957
874.676	0.0148942
874.754	0.0150370
874.832	0.0151875
874.910	0.0149459
874.988	0.0149051
875.067	0.0150002
875.145	0.0150544
875.223	0.0149834
875.301	0.0149647
875.379	0.0150057
875.457	0.0150044
875.535	0.0148773
875.613	0.0150027
875.692	0.0149783
875.770	0.0148241
875.848	0.0148586
875.926	0.0147942
876.004	0.0147379
876.082	0.0147832
876.160	0.0148380
876.238	0.0147910
876.317	0.0146181
876.395	0.0146429
876.473	0.0146320
876.551	0.0147270
876.629	0.0147380
876.707	0.0145730
876.785	0.0147613
876.863	0.0147298
876.942	0.0146262
877.020	0.0147045
877.098	0.0145796
877.176	0.0145445
877.254	0.0146435
877.332	0.0146545
877.410	0.0145921
877.488	0.0145495
877.567	0.0144640
877.645	0.0146664
877.723	0.0147344
877.801	0.0147288
877.879	0.0147167
877.957	0.0146617
878.035	0.0146602
878.113	0.0146511
878.192	0.0148590
878.270	0.0147519
878.348	0.0147580
878.426	0.0148013
878.504	0.0147717
878.582	0.0149348
878.660	0.0148041
878.738	0.0147102
878.817	0.0148523
878.895	0.0146966
878.973	0.0147874
879.051	0.0147366
879.129	0.0147768
879.207	0.0148644
879.285	0.0148034
879.363	0.0147866
879.442	0.0149181
879.520	0.0148952
879.598	0.0147013
879.676	0.0148473
879.754	0.0149162
879.832	0.0149097
879.910	0.0147495
879.988	0.0148266
880.067	0.0148209
880.145	0.0147404
880.223	0.0148748
880.301	0.0148553
880.379	0.0146944
880.457	0.0147920
880.535	0.0147372
880.613	0.0147923
880.692	0.0148013
880.770	0.0148167
880.848	0.0147054
880.926	0.0145713
881.004	0.0147984
881.082	0.0147315
881.160	0.0148048
881.238	0.0148104
881.317	0.0146654
881.395	0.0147266
881.473	0.0147607
881.551	0.0147234
881.629	0.0146053
881.707	0.0145459
881.785	0.0147614
881.863	0.0147350
881.942	0.0146644
882.020	0.0145605
882.098	0.0145219
882.176	0.0147494
882.254	0.0147218
882.332	0.0147720
882.410	0.0146071
882.488	0.0146785
882.567	0.0146618
882.645	0.0146912
882.723	0.0147139
882.801	0.0145776
882.879	0.0146207
882.957	0.0147462
883.035	0.0148027
883.113	0.0146673
883.192	0.0147125
883.270	0.0147427
883.348	0.0147321
883.426	0.0148615
883.504	0.0147869
883.582	0.0148172
883.660	0.0147813
883.738	0.0149046
883.817	0.0149262
883.895	0.0149023
883.973	0.0147577
884.051	0.0147736
884.129	0.0147623
884.207	0.0148080
884.285	0.0148985
884.363	0.0146508
884.442	0.0148755
884.520	0.0148412
884.598	0.0149116
884.676	0.0147737
884.754	0.0145687
884.832	0.0148463
884.910	0.0147250
884.988	0.0147499
885.067	0.0147617
885.145	0.0146829
885.223	0.0146459
885.301	0.0146087
885.379	0.0147383
885.457	0.0145782
885.535	0.0146169
885.613	0.0146268
885.692	0.0146461
885.770	0.0145308
885.848	0.0146851
885.926	0.0145045
886.004	0.0146443
886.082	0.0145319
886.160	0.0144745
886.238	0.0145319
886.317	0.0146352
886.395	0.0146354
886.473	0.0145075
886.551	0.0145608
886.629	0.0145481
886.707	0.0145232
886.785	0.0146481
886.863	0.0145114
886.942	0.0145924
887.020	0.0146450
887.098	0.0145808
887.176	0.0143390
887.254	0.0144600
887.332	0.0145789
887.410	0.0145726
887.488	0.0145263
887.567	0.0145630
887.645	0.0147575
887.723	0.0145686
887.801	0.0146355
887.879	0.0145792
887.957	0.0147153
888.035	0.0146298
888.113	0.0145984
888.192	0.0146154
888.270	0.0144804
888.348	0.0146645
888.426	0.0147620
888.504	0.0148933
888.582	0.0146353
888.660	0.0146487
888.738	0.0147297
888.817	0.0146412
888.895	0.0147295
888.973	0.0147909
889.051	0.0148392
889.129	0.0147678
889.207	0.0148252
889.285	0.0148627
889.363	0.0147842
889.442	0.0148141
889.520	0.0147384
889.598	0.0148761
889.676	0.0146981
889.754	0.0148197
889.832	0.0148462
889.910	0.0148670
889.988	0.0148548
890.067	0.0148730
890.145	0.0148064
890.223	0.0148526
890.301	0.0147991
890.379	0.0147923
890.457	0.0148104
890.535	0.0147850
890.613	0.0148162
890.692	0.0149173
890.770	0.0149876
890.848	0.0148571
890.926	0.0147073
891.004	0.0148438
891.082	0.0149017
891.160	0.0148281
891.238	0.0148875
891.317	0.0148247
891.395	0.0147284
891.473	0.0149304
891.551	0.0147289
891.629	0.0148006
891.707	0.0148179
891.785	0.0149258
891.863	0.0148188
891.942	0.0147705
892.020	0.0147627
892.098	0.0147598
892.176	0.0147263
892.254	0.0148454
892.332	0.0148439
892.410	0.0148154
892.488	0.0147289
892.567	0.0146840
892.645	0.0146693
892.723	0.0148473
892.801	0.0149615
892.879	0.0147278
892.957	0.0146526
893.035	0.0148309
893.113	0.0147892
893.192	0.0147596
893.270	0.0149075
893.348	0.0148117
893.426	0.0147980
893.504	0.0147866
893.582	0.0148115
893.660	0.0149544
893.738	0.0148250
893.817	0.0148054
893.895	0.0149233
893.973	0.0148111
894.051	0.0148384
894.129	0.0148885
894.207	0.0147642
894.285	0.0149684
894.363	0.0149921
894.442	0.0149200
894.520	0.0148737
894.598	0.0149613
894.676	0.0150040
894.754	0.0148116
894.832	0.0148956
894.910	0.0147031
894.988	0.0149291
895.067	0.0149164
895.145	0.0148966
895.223	0.0148001
895.301	0.0149255
895.379	0.0149871
895.457	0.0146710
895.535	0.0147099
895.613	0.0147599
895.692	0.0147498
895.770	0.0148681
895.848	0.0148264
895.926	0.0148715
896.004	0.0148332
896.082	0.0148019
896.160	0.0149577
896.238	0.0147930
896.317	0.0149357
896.395	0.0148741
896.473	0.0147326
896.551	0.0147307
896.629	0.0147702
896.707	0.0149203
896.785	0.0149138
896.863	0.0147828
896.942	0.0148100
897.020	0.0148334
897.098	0.0149334
897.176	0.0147749
897.254	0.0147890
897.332	0.0146867
897.410	0.0147373
897.488	0.0146382
897.567	0.0146992
897.645	0.0146911
897.723	0.0146659
897.801	0.0146199
897.879	0.0147688
897.957	0.0147022
898.035	0.0145193
898.113	0.0146288
898.192	0.0147031
898.270	0.0147253
898.348	0.0144591
898.426	0.0146708
898.504	0.0147495
898.582	0.0147393
898.660	0.0147153
898.738	0.0147372
898.817	0.0146922
898.895	0.0146786
898.973	0.0147974
899.051	0.0148205
899.129	0.0147762
899.207	0.0147641
899.285	0.0148829
899.363	0.0147578
899.442	0.0147364
899.520	0.0147625
899.598	0.0148470
899.676	0.0148356
899.754	0.0146614
899.832	0.0148029
899.910	0.0147663
899.988	0.0146544
900.067	0.0146874
900.145	0.0148032
900.223	0.0147066
900.301	0.0147663
900.379	0.0148148
900.457	0.0146527
900.535	0.0147354
900.613	0.0148694
900.692	0.0147690
900.770	0.0145799
900.848	0.0146572
900.926	0.0146570
901.004	0.0148204
901.082	0.0147015
901.160	0.0146394
901.238	0.0147340
901.317	0.0148342
901.395	0.0148157
901.473	0.0147533
901.551	0.0147606
901.629	0.0146490
901.707	0.0147119
901.785	0.0145641
901.863	0.0148103
901.942	0.0147427
902.020	0.0147630
902.098	0.0146931
902.176	0.0146586
902.254	0.0146630
902.332	0.0147418
902.410	0.0147075
902.488	0.0146394
902.567	0.0146817
902.645	0.0146421
902.723	0.0147057
902.801	0.0147005
902.879	0.0146880
902.957	0.0146604
903.035	0.0146670
903.113	0.0147106
903.192	0.0147201
903.270	0.0146524
903.348	0.0146623
903.426	0.0146653
903.504	0.0146140
903.582	0.0144788
903.660	0.0147339
903.738	0.0146853
903.817	0.0146505
903.895	0.0147959
903.973	0.0146037
904.051	0.0146549
904.129	0.0147098
904.207	0.0146658
904.285	0.0147247
904.363	0.0148333
904.442	0.0148010
904.520	0.0147578
904.598	0.0147018
904.676	0.0148420
904.754	0.0148920
904.832	0.0147659
904.910	0.0146981
904.988	0.0148622
905.067	0.0148550
905.145	0.0147681
905.223	0.0146915
905.301	0.0148460
905.379	0.0147648
905.457	0.0148404
905.535	0.0148584
905.613	0.0146214
905.692	0.0148536
905.770	0.0147742
905.848	0.0146226
905.926	0.0147337
906.004	0.0148956
906.082	0.0148186
906.160	0.0147510
906.238	0.0146825
906.317	0.0145950
906.395	0.0146350
906.473	0.0147655
906.551	0.0147771
906.629	0.0148070
906.707	0.0146100
906.785	0.0145934
906.863	0.0147802
906.942	0.0148385
907.020	0.0148142
907.098	0.0147648
907.176	0.0146325
907.254	0.0147300
907.332	0.0147028
907.410	0.0147156
907.488	0.0147155
907.567	0.0147660
907.645	0.0146500
907.723	0.0146459
907.801	0.0146548
907.879	0.0145305
907.957	0.0147343
908.035	0.0147094
908.113	0.0147031
908.192	0.0147412
908.270	0.0146807
908.348	0.0147869
908.426	0.0147218
908.504	0.0147430
908.582	0.0147368
908.660	0.0147368
908.738	0.0147032
908.817	0.0144958
908.895	0.0145435
908.973	0.0146784
909.051	0.0146275
909.129	0.0146296
909.207	0.0146913
909.285	0.0145882
909.363	0.0146092
909.442	0.0146639
909.520	0.0147742
909.598	0.0147379
909.676	0.0146773
909.754	0.0147082
909.832	0.0147643
909.910	0.0148083
909.988	0.0147606
910.067	0.0146560
910.145	0.0147212
910.223	0.0147079
910.301	0.0147874
910.379	0.0148751
910.457	0.0147400
910.535	0.0147745
910.613	0.0149154
910.692	0.0148878
910.770	0.0147249
910.848	0.0148206
910.926	0.0148060
911.004	0.0147805
911.082	0.0147633
911.160	0.0147035
911.238	0.0149017
911.317	0.0148212
911.395	0.0148228
911.473	0.0147653
911.551	0.0146139
911.629	0.0147113
911.707	0.0147022
911.785	0.0146465
911.863	0.0147378
911.942	0.0147339
912.020	0.0146694
912.098	0.0146786
912.176	0.0147112
912.254	0.0147906
912.332	0.0147048
912.410	0.0148053
912.488	0.0148524
912.567	0.0147838
912.645	0.0147446
912.723	0.0148029
912.801	0.0148036
912.879	0.0146722
912.957	0.0148677
913.035	0.0148936
913.113	0.0148231
913.192	0.0147793
913.270	0.0148401
913.348	0.0148138
913.426	0.0148991
913.504	0.0149216
913.582	0.0148688
913.660	0.0149001
913.738	0.0149303
913.817	0.0148111
913.895	0.0147114
913.973	0.0147873
914.051	0.0149742
914.129	0.0148496
914.207	0.0148635
914.285	0.0148073
914.363	0.0147797
914.442	0.0148016
914.520	0.0148191
914.598	0.0148288
914.676	0.0149138
914.754	0.0148842
914.832	0.0147058
914.910	0.0149145
914.988	0.0147890
915.067	0.0147819
915.145	0.0149931
915.223	0.0147298
915.301	0.0149060
915.379	0.0148148
915.457	0.0148419
915.535	0.0149319
915.613	0.0148331
915.692	0.0148592
915.770	0.0148707
915.848	0.0148257
915.926	0.0148752
916.004	0.0148917
916.082	0.0147946
916.160	0.0148503
916.238	0.0148975
916.317	0.0148138
916.395	0.0149318
916.473	0.0148004
916.551	0.0148162
916.629	0.0147531
916.707	0.0148418
916.785	0.0148944
916.863	0.0147636
916.942	0.0147048
917.020	0.0147758
917.098	0.0148254
917.176	0.0148991
917.254	0.0148892
917.332	0.0148566
917.410	0.0149226
917.488	0.0148161
917.567	0.0148365
917.645	0.0148314
917.723	0.0147280
917.801	0.0147269
917.879	0.0149396
917.957	0.0148701
918.035	0.0149332
918.113	0.0148471
918.192	0.0148711
918.270	0.0148174
918.348	0.0147223
918.426	0.0147301
918.504	0.0147775
918.582	0.0147128
918.660	0.0146896
918.738	0.0147485
918.817	0.0147465
918.895	0.0146265
918.973	0.0145706
919.051	0.0145875
919.129	0.0147057
919.207	0.0147107
919.285	0.0145483
919.363	0.0146614
919.442	0.0146826
919.520	0.0146752
919.598	0.0146258
919.676	0.0146059
919.754	0.0145484
919.832	0.0145348
919.910	0.0146478
