05/28/2022	14:32:42	Ver.	4.1	UNKNOWN
Optical Delay	599.988409	Delta X		0.078125	Sweeps	1	Scan Rate	0/0
Coordinates	Axis 1	NaN	Axis 2	NaN	Axis 3	NaN	Axis 4	NaN	Axis 5	NaN	Axis 6	0.000000
TX Power	0.000000	RX Power	0.000000

599.988	0.0143583
600.067	0.0141769
600.145	0.0143294
600.223	0.0142699
600.301	0.0142733
600.379	0.0142677
600.457	0.0142188
600.535	0.0142551
600.613	0.0142390
600.692	0.0142706
600.770	0.0142300
600.848	0.0142757
600.926	0.0142567
601.004	0.0141718
601.082	0.0143188
601.160	0.0142410
601.238	0.0141702
601.317	0.0141570
601.395	0.0141470
601.473	0.0143255
601.551	0.0142447
601.629	0.0141892
601.707	0.0143385
601.785	0.0142708
601.863	0.0143831
601.942	0.0143370
602.020	0.0142753
602.098	0.0142419
602.176	0.0142931
602.254	0.0143307
602.332	0.0142715
602.410	0.0143922
602.488	0.0143846
602.567	0.0143491
602.645	0.0141084
602.723	0.0142013
602.801	0.0142733
602.879	0.0143984
602.957	0.0143488
603.035	0.0144109
603.113	0.0144679
603.192	0.0144036
603.270	0.0143913
603.348	0.0144079
603.426	0.0143980
603.504	0.0143775
603.582	0.0144138
603.660	0.0143233
603.738	0.0142889
603.817	0.0143262
603.895	0.0143185
603.973	0.0143887
604.051	0.0143272
604.129	0.0144873
604.207	0.0144102
604.285	0.0142503
604.363	0.0144861
604.442	0.0144855
604.520	0.0144115
604.598	0.0145258
604.676	0.0144439
604.754	0.0144552
604.832	0.0143767
604.910	0.0144831
604.988	0.0144948
605.067	0.0145114
605.145	0.0144153
605.223	0.0143745
605.301	0.0144876
605.379	0.0143441
605.457	0.0144462
605.535	0.0145037
605.613	0.0144855
605.692	0.0144150
605.770	0.0143513
605.848	0.0143256
605.926	0.0145045
606.004	0.0143800
606.082	0.0144700
606.160	0.0145040
606.238	0.0144957
606.317	0.0145364
606.395	0.0144933
606.473	0.0144627
606.551	0.0143993
606.629	0.0144021
606.707	0.0144553
606.785	0.0144145
606.863	0.0143201
606.942	0.0144382
607.020	0.0143978
607.098	0.0145123
607.176	0.0143948
607.254	0.0144180
607.332	0.0143707
607.410	0.0144121
607.488	0.0143718
607.567	0.0144613
607.645	0.0144302
607.723	0.0144070
607.801	0.0144428
607.879	0.0143359
607.957	0.0143346
608.035	0.0143113
608.113	0.0144135
608.192	0.0142628
608.270	0.0142968
608.348	0.0142863
608.426	0.0144093
608.504	0.0146134
608.582	0.0143952
608.660	0.0142908
608.738	0.0143188
608.817	0.0143610
608.895	0.0143233
608.973	0.0142934
609.051	0.0141914
609.129	0.0144389
609.207	0.0143678
609.285	0.0143019
609.363	0.0143719
609.442	0.0143092
609.520	0.0143678
609.598	0.0142748
609.676	0.0144535
609.754	0.0142907
609.832	0.0143007
609.910	0.0143324
609.988	0.0142950
610.067	0.0144119
610.145	0.0142494
610.223	0.0142075
610.301	0.0143204
610.379	0.0144394
610.457	0.0144897
610.535	0.0143156
610.613	0.0141747
610.692	0.0145155
610.770	0.0144667
610.848	0.0143270
610.926	0.0142940
611.004	0.0142686
611.082	0.0142108
611.160	0.0143507
611.238	0.0144118
611.317	0.0144543
611.395	0.0143219
611.473	0.0144608
611.551	0.0144971
611.629	0.0145572
611.707	0.0145158
611.785	0.0145518
611.863	0.0143892
611.942	0.0144718
612.020	0.0143671
612.098	0.0145126
612.176	0.0145515
612.254	0.0145895
612.332	0.0144413
612.410	0.0146073
612.488	0.0144615
612.567	0.0145674
612.645	0.0144759
612.723	0.0144957
612.801	0.0144379
612.879	0.0144603
612.957	0.0145084
613.035	0.0143947
613.113	0.0145381
613.192	0.0146022
613.270	0.0144785
613.348	0.0144361
613.426	0.0145888
613.504	0.0145665
613.582	0.0146292
613.660	0.0144619
613.738	0.0144865
613.817	0.0145173
613.895	0.0145372
613.973	0.0144359
614.051	0.0144109
614.129	0.0145007
614.207	0.0145995
614.285	0.0145673
614.363	0.0145555
614.442	0.0144753
614.520	0.0145985
614.598	0.0144690
614.676	0.0144199
614.754	0.0145390
614.832	0.0143861
614.910	0.0143506
614.988	0.0145390
615.067	0.0143595
615.145	0.0146130
615.223	0.0145937
615.301	0.0145024
615.379	0.0144852
615.457	0.0145363
615.535	0.0145156
615.613	0.0144409
615.692	0.0144314
615.770	0.0144666
615.848	0.0144510
615.926	0.0144013
616.004	0.0144840
616.082	0.0143733
616.160	0.0144480
616.238	0.0145499
616.317	0.0144901
616.395	0.0145463
616.473	0.0144231
616.551	0.0144762
616.629	0.0145866
616.707	0.0145459
616.785	0.0144003
616.863	0.0144287
616.942	0.0144967
617.020	0.0145337
617.098	0.0142580
617.176	0.0145087
617.254	0.0144771
617.332	0.0144418
617.410	0.0145017
617.488	0.0144373
617.567	0.0143668
617.645	0.0143172
617.723	0.0143629
617.801	0.0144131
617.879	0.0144036
617.957	0.0143568
618.035	0.0144290
618.113	0.0143805
618.192	0.0142959
618.270	0.0143623
618.348	0.0143817
618.426	0.0143931
618.504	0.0143737
618.582	0.0142911
618.660	0.0143815
618.738	0.0144194
618.817	0.0144556
618.895	0.0143476
618.973	0.0143018
619.051	0.0145388
619.129	0.0143089
619.207	0.0142986
619.285	0.0143980
619.363	0.0143557
619.442	0.0143211
619.520	0.0143675
619.598	0.0143282
619.676	0.0143706
619.754	0.0143351
619.832	0.0144643
619.910	0.0143948
619.988	0.0144950
620.067	0.0143016
620.145	0.0142931
620.223	0.0143208
620.301	0.0142516
620.379	0.0142834
620.457	0.0143864
620.535	0.0143425
620.613	0.0142232
620.692	0.0143198
620.770	0.0142945
620.848	0.0144392
620.926	0.0143707
621.004	0.0142281
621.082	0.0141875
621.160	0.0143418
621.238	0.0143733
621.317	0.0143745
621.395	0.0143285
621.473	0.0142202
621.551	0.0142928
621.629	0.0143256
621.707	0.0142029
621.785	0.0142686
621.863	0.0141638
621.942	0.0142702
622.020	0.0143388
622.098	0.0142608
622.176	0.0142023
622.254	0.0143081
622.332	0.0142310
622.410	0.0141063
622.488	0.0144498
622.567	0.0142993
622.645	0.0143203
622.723	0.0144707
622.801	0.0143506
622.879	0.0143450
622.957	0.0143858
623.035	0.0144745
623.113	0.0143720
623.192	0.0143148
623.270	0.0143357
623.348	0.0144662
623.426	0.0144259
623.504	0.0145361
623.582	0.0143774
623.660	0.0143070
623.738	0.0144956
623.817	0.0143555
623.895	0.0144633
623.973	0.0143884
624.051	0.0144434
624.129	0.0143937
624.207	0.0144551
624.285	0.0143854
624.363	0.0143829
624.442	0.0143606
624.520	0.0143460
624.598	0.0145079
624.676	0.0143266
624.754	0.0142968
624.832	0.0142374
624.910	0.0143479
624.988	0.0144393
625.067	0.0145047
625.145	0.0142164
625.223	0.0143105
625.301	0.0144558
625.379	0.0143188
625.457	0.0142793
625.535	0.0142413
625.613	0.0143001
625.692	0.0143089
625.770	0.0141541
625.848	0.0142130
625.926	0.0143176
626.004	0.0143195
626.082	0.0143066
626.160	0.0143661
626.238	0.0142885
626.317	0.0143180
626.395	0.0145144
626.473	0.0145716
626.551	0.0144250
626.629	0.0145084
626.707	0.0143866
626.785	0.0144299
626.863	0.0144753
626.942	0.0144523
627.020	0.0145687
627.098	0.0144667
627.176	0.0143382
627.254	0.0142869
627.332	0.0142725
627.410	0.0141462
627.488	0.0143042
627.567	0.0142215
627.645	0.0142231
627.723	0.0142255
627.801	0.0142329
627.879	0.0143626
627.957	0.0142650
628.035	0.0141879
628.113	0.0142035
628.192	0.0142629
628.270	0.0143895
628.348	0.0144471
628.426	0.0143584
628.504	0.0144348
628.582	0.0144689
628.660	0.0146986
628.738	0.0145510
628.817	0.0146554
628.895	0.0146902
628.973	0.0146393
629.051	0.0146516
629.129	0.0146204
629.207	0.0146849
629.285	0.0144846
629.363	0.0146669
629.442	0.0146906
629.520	0.0145847
629.598	0.0144817
629.676	0.0145150
629.754	0.0143214
629.832	0.0143476
629.910	0.0143994
629.988	0.0143465
630.067	0.0144213
630.145	0.0143096
630.223	0.0140875
630.301	0.0142079
630.379	0.0141102
630.457	0.0141599
630.535	0.0142305
630.613	0.0141462
630.692	0.0141198
630.770	0.0141698
630.848	0.0142612
630.926	0.0143752
631.004	0.0143350
631.082	0.0143752
631.160	0.0144500
631.238	0.0144524
631.317	0.0145023
631.395	0.0148121
631.473	0.0147369
631.551	0.0147842
631.629	0.0150406
631.707	0.0149262
631.785	0.0149313
631.863	0.0149532
631.942	0.0150130
632.020	0.0148119
632.098	0.0149584
632.176	0.0148909
632.254	0.0149802
632.332	0.0147878
632.410	0.0149306
632.488	0.0148027
632.567	0.0147802
632.645	0.0147012
632.723	0.0145864
632.801	0.0146378
632.879	0.0146245
632.957	0.0146268
633.035	0.0146097
633.113	0.0143472
633.192	0.0145103
633.270	0.0145531
633.348	0.0146417
633.426	0.0144952
633.504	0.0144798
633.582	0.0143750
633.660	0.0142786
633.738	0.0142690
633.817	0.0144194
633.895	0.0144514
633.973	0.0144298
634.051	0.0144064
634.129	0.0144232
634.207	0.0143527
634.285	0.0142609
634.363	0.0142625
634.442	0.0143098
634.520	0.0141322
634.598	0.0142321
634.676	0.0143044
634.754	0.0140816
634.832	0.0141197
634.910	0.0141624
634.988	0.0138905
635.067	0.0141277
635.145	0.0139885
635.223	0.0138482
635.301	0.0139655
635.379	0.0139912
635.457	0.0141521
635.535	0.0139726
635.613	0.0138891
635.692	0.0139225
635.770	0.0140510
635.848	0.0140778
635.926	0.0141299
636.004	0.0140048
636.082	0.0140744
636.160	0.0141586
636.238	0.0143143
636.317	0.0141261
636.395	0.0140744
636.473	0.0141823
636.551	0.0144721
636.629	0.0143475
636.707	0.0142722
636.785	0.0144318
636.863	0.0144657
636.942	0.0144659
637.020	0.0144012
637.098	0.0145213
637.176	0.0145768
637.254	0.0145091
637.332	0.0144535
637.410	0.0144537
637.488	0.0145268
637.567	0.0144252
637.645	0.0144872
637.723	0.0144872
637.801	0.0145440
637.879	0.0142648
637.957	0.0143816
638.035	0.0144196
638.113	0.0143208
638.192	0.0142785
638.270	0.0144193
638.348	0.0142992
638.426	0.0142924
638.504	0.0142193
638.582	0.0142619
638.660	0.0142431
638.738	0.0142602
638.817	0.0142294
638.895	0.0142676
638.973	0.0142370
639.051	0.0142925
639.129	0.0143292
639.207	0.0142920
639.285	0.0143803
639.363	0.0142409
639.442	0.0143810
639.520	0.0145125
639.598	0.0143157
639.676	0.0144077
639.754	0.0142322
639.832	0.0143889
639.910	0.0144133
639.988	0.0144336
640.067	0.0142284
640.145	0.0143151
640.223	0.0144251
640.301	0.0144971
640.379	0.0145791
640.457	0.0145068
640.535	0.0145530
640.613	0.0144495
640.692	0.0146517
640.770	0.0145290
640.848	0.0145853
640.926	0.0145013
641.004	0.0146108
641.082	0.0145666
641.160	0.0145906
641.238	0.0146738
641.317	0.0146449
641.395	0.0146262
641.473	0.0146568
641.551	0.0147076
641.629	0.0146284
641.707	0.0145628
641.785	0.0145822
641.863	0.0145919
641.942	0.0145278
642.020	0.0146244
642.098	0.0146098
642.176	0.0145833
642.254	0.0144954
642.332	0.0144154
642.410	0.0145620
642.488	0.0146909
642.567	0.0145657
642.645	0.0146891
642.723	0.0145873
642.801	0.0146033
642.879	0.0146178
642.957	0.0147021
643.035	0.0145565
643.113	0.0146623
643.192	0.0146577
643.270	0.0147271
643.348	0.0147116
643.426	0.0146343
643.504	0.0145762
643.582	0.0144695
643.660	0.0145031
643.738	0.0145533
643.817	0.0145290
643.895	0.0144653
643.973	0.0142859
644.051	0.0143958
644.129	0.0142337
644.207	0.0142046
644.285	0.0143008
644.363	0.0142633
644.442	0.0141280
644.520	0.0142058
644.598	0.0141844
644.676	0.0141235
644.754	0.0142379
644.832	0.0142770
644.910	0.0142059
644.988	0.0141405
645.067	0.0142274
645.145	0.0143387
645.223	0.0142293
645.301	0.0143645
645.379	0.0143227
645.457	0.0142197
645.535	0.0144650
645.613	0.0142191
645.692	0.0143077
645.770	0.0144463
645.848	0.0143005
645.926	0.0144507
646.004	0.0144175
646.082	0.0146132
646.160	0.0145712
646.238	0.0146037
646.317	0.0146656
646.395	0.0146243
646.473	0.0146582
646.551	0.0146878
646.629	0.0146752
646.707	0.0147852
646.785	0.0147208
646.863	0.0147812
646.942	0.0146140
647.020	0.0147544
647.098	0.0145600
647.176	0.0144997
647.254	0.0144934
647.332	0.0144638
647.410	0.0144868
647.488	0.0143574
647.567	0.0143637
647.645	0.0143582
647.723	0.0142909
647.801	0.0143531
647.879	0.0142031
647.957	0.0142813
648.035	0.0143038
648.113	0.0143691
648.192	0.0143943
648.270	0.0142277
648.348	0.0142239
648.426	0.0142588
648.504	0.0145145
648.582	0.0142522
648.660	0.0143793
648.738	0.0142987
648.817	0.0142931
648.895	0.0142970
648.973	0.0143134
649.051	0.0143192
649.129	0.0143319
649.207	0.0143972
649.285	0.0143983
649.363	0.0143720
649.442	0.0144446
649.520	0.0144556
649.598	0.0144760
649.676	0.0144424
649.754	0.0146005
649.832	0.0145760
649.910	0.0146518
649.988	0.0145023
650.067	0.0148335
650.145	0.0148591
650.223	0.0148726
650.301	0.0147661
650.379	0.0146586
650.457	0.0147646
650.535	0.0147980
650.613	0.0145599
650.692	0.0146861
650.770	0.0146016
650.848	0.0147034
650.926	0.0145287
651.004	0.0144519
651.082	0.0145524
651.160	0.0145514
651.238	0.0144824
651.317	0.0144296
651.395	0.0143925
651.473	0.0144835
651.551	0.0143628
651.629	0.0143870
651.707	0.0143304
651.785	0.0144459
651.863	0.0143507
651.942	0.0142710
652.020	0.0142024
652.098	0.0143716
652.176	0.0144202
652.254	0.0142140
652.332	0.0143559
652.410	0.0142210
652.488	0.0142262
652.567	0.0141965
652.645	0.0142477
652.723	0.0142244
652.801	0.0141290
652.879	0.0142088
652.957	0.0140839
653.035	0.0142042
653.113	0.0140143
653.192	0.0139629
653.270	0.0141300
653.348	0.0141309
653.426	0.0140573
653.504	0.0139964
653.582	0.0142360
653.660	0.0143726
653.738	0.0143558
653.817	0.0144009
653.895	0.0143427
653.973	0.0145434
654.051	0.0145072
654.129	0.0144125
654.207	0.0146593
654.285	0.0146176
654.363	0.0145692
654.442	0.0146771
654.520	0.0145953
654.598	0.0146880
654.676	0.0147601
654.754	0.0146162
654.832	0.0146867
654.910	0.0146539
654.988	0.0146470
655.067	0.0145892
655.145	0.0145100
655.223	0.0145689
655.301	0.0145184
655.379	0.0143879
655.457	0.0143403
655.535	0.0142646
655.613	0.0144292
655.692	0.0143681
655.770	0.0143143
655.848	0.0141277
655.926	0.0141545
656.004	0.0142393
656.082	0.0142400
656.160	0.0141979
656.238	0.0142121
656.317	0.0141132
656.395	0.0143697
656.473	0.0142537
656.551	0.0141399
656.629	0.0142361
656.707	0.0142550
656.785	0.0141118
656.863	0.0142852
656.942	0.0142502
657.020	0.0142902
657.098	0.0143792
657.176	0.0143394
657.254	0.0141745
657.332	0.0141608
657.410	0.0142198
657.488	0.0142859
657.567	0.0140672
657.645	0.0141222
657.723	0.0139830
657.801	0.0138948
657.879	0.0139823
657.957	0.0140302
658.035	0.0139933
658.113	0.0140076
658.192	0.0139879
658.270	0.0140417
658.348	0.0141575
658.426	0.0140359
658.504	0.0141397
658.582	0.0141566
658.660	0.0141351
658.738	0.0140878
658.817	0.0141177
658.895	0.0141341
658.973	0.0140466
659.051	0.0139151
659.129	0.0139563
659.207	0.0141694
659.285	0.0141383
659.363	0.0141049
659.442	0.0140562
659.520	0.0139041
659.598	0.0142040
659.676	0.0143865
659.754	0.0143317
659.832	0.0142262
659.910	0.0143168
659.988	0.0143340
660.067	0.0144661
660.145	0.0145753
660.223	0.0146999
660.301	0.0146192
660.379	0.0147755
660.457	0.0148682
660.535	0.0149124
660.613	0.0149099
660.692	0.0149626
660.770	0.0148170
660.848	0.0149458
660.926	0.0149652
661.004	0.0149866
661.082	0.0149371
661.160	0.0150097
661.238	0.0147834
661.317	0.0148611
661.395	0.0149801
661.473	0.0149046
661.551	0.0149196
661.629	0.0147604
661.707	0.0148457
661.785	0.0148260
661.863	0.0146858
661.942	0.0146257
662.020	0.0145612
662.098	0.0146652
662.176	0.0146633
662.254	0.0146375
662.332	0.0145152
662.410	0.0146629
662.488	0.0146397
662.567	0.0144508
662.645	0.0144214
662.723	0.0143053
662.801	0.0144068
662.879	0.0143806
662.957	0.0143102
663.035	0.0142852
663.113	0.0143551
663.192	0.0141129
663.270	0.0140308
663.348	0.0141824
663.426	0.0141684
663.504	0.0141922
663.582	0.0139463
663.660	0.0141063
663.738	0.0139725
663.817	0.0140878
663.895	0.0140663
663.973	0.0142500
664.051	0.0141363
664.129	0.0141760
664.207	0.0142014
664.285	0.0141469
664.363	0.0141242
664.442	0.0144467
664.520	0.0143463
664.598	0.0144695
664.676	0.0146319
664.754	0.0144801
664.832	0.0145072
664.910	0.0147036
664.988	0.0147044
665.067	0.0147805
665.145	0.0149099
665.223	0.0148707
665.301	0.0148255
665.379	0.0149693
665.457	0.0149323
665.535	0.0150058
665.613	0.0148315
665.692	0.0148277
665.770	0.0149340
665.848	0.0149873
665.926	0.0149487
666.004	0.0149471
666.082	0.0147569
666.160	0.0147213
666.238	0.0147520
666.317	0.0145940
666.395	0.0146913
666.473	0.0146996
666.551	0.0145367
666.629	0.0144018
666.707	0.0143853
666.785	0.0142432
666.863	0.0143409
666.942	0.0143085
667.020	0.0143439
667.098	0.0142635
667.176	0.0141401
667.254	0.0141379
667.332	0.0141943
667.410	0.0141531
667.488	0.0140604
667.567	0.0139838
667.645	0.0141924
667.723	0.0141838
667.801	0.0140504
667.879	0.0140802
667.957	0.0139840
668.035	0.0141187
668.113	0.0141879
668.192	0.0141539
668.270	0.0140604
668.348	0.0140535
668.426	0.0141098
668.504	0.0141399
668.582	0.0141530
668.660	0.0140735
668.738	0.0142284
668.817	0.0143853
668.895	0.0143914
668.973	0.0143510
669.051	0.0144494
669.129	0.0144415
669.207	0.0145797
669.285	0.0145415
669.363	0.0145183
669.442	0.0147794
669.520	0.0148349
669.598	0.0149005
669.676	0.0149387
669.754	0.0148264
669.832	0.0149654
669.910	0.0149696
669.988	0.0150341
670.067	0.0148676
670.145	0.0148978
670.223	0.0150028
670.301	0.0148879
670.379	0.0148424
670.457	0.0148322
670.535	0.0147255
670.613	0.0146484
670.692	0.0145635
670.770	0.0146742
670.848	0.0146230
670.926	0.0145493
671.004	0.0144544
671.082	0.0143390
671.160	0.0144070
671.238	0.0143948
671.317	0.0143240
671.395	0.0142950
671.473	0.0142902
671.551	0.0144971
671.629	0.0143741
671.707	0.0144938
671.785	0.0145100
671.863	0.0144508
671.942	0.0146001
672.020	0.0145828
672.098	0.0146568
672.176	0.0147591
672.254	0.0145767
672.332	0.0147160
672.410	0.0147865
672.488	0.0148099
672.567	0.0147143
672.645	0.0146921
672.723	0.0147141
672.801	0.0147176
672.879	0.0146024
672.957	0.0145234
673.035	0.0144196
673.113	0.0145150
673.192	0.0144230
673.270	0.0144926
673.348	0.0144647
673.426	0.0141625
673.504	0.0143108
673.582	0.0143951
673.660	0.0143170
673.738	0.0140570
673.817	0.0143443
673.895	0.0143317
673.973	0.0142442
674.051	0.0143234
674.129	0.0142712
674.207	0.0143501
674.285	0.0143556
674.363	0.0143603
674.442	0.0145198
674.520	0.0145633
674.598	0.0145241
674.676	0.0147081
674.754	0.0145612
674.832	0.0147633
674.910	0.0149674
674.988	0.0147298
675.067	0.0146643
675.145	0.0149478
675.223	0.0150044
675.301	0.0149841
675.379	0.0149017
675.457	0.0148467
675.535	0.0147903
675.613	0.0147543
675.692	0.0145464
675.770	0.0145719
675.848	0.0147281
675.926	0.0145439
676.004	0.0145576
676.082	0.0144305
676.160	0.0141628
676.238	0.0142179
676.317	0.0142422
676.395	0.0140565
676.473	0.0139659
676.551	0.0139376
676.629	0.0138618
676.707	0.0138008
676.785	0.0137905
676.863	0.0137385
676.942	0.0136807
677.020	0.0136648
677.098	0.0136974
677.176	0.0136507
677.254	0.0136397
677.332	0.0136945
677.410	0.0138724
677.488	0.0138459
677.567	0.0138035
677.645	0.0139261
677.723	0.0139110
677.801	0.0139219
677.879	0.0139484
677.957	0.0142357
678.035	0.0142546
678.113	0.0142612
678.192	0.0144668
678.270	0.0144859
678.348	0.0143339
678.426	0.0144180
678.504	0.0145264
678.582	0.0144867
678.660	0.0144690
678.738	0.0146550
678.817	0.0145778
678.895	0.0146410
678.973	0.0148215
679.051	0.0146974
679.129	0.0149359
679.207	0.0148280
679.285	0.0147607
679.363	0.0146722
679.442	0.0148289
679.520	0.0145705
679.598	0.0148096
679.676	0.0147324
679.754	0.0148090
679.832	0.0146360
679.910	0.0146423
679.988	0.0143575
680.067	0.0144778
680.145	0.0144521
680.223	0.0143346
680.301	0.0142929
680.379	0.0142045
680.457	0.0141598
680.535	0.0141199
680.613	0.0143035
680.692	0.0141346
680.770	0.0140540
680.848	0.0140000
680.926	0.0140163
681.004	0.0138896
681.082	0.0138962
681.160	0.0140015
681.238	0.0139172
681.317	0.0138544
681.395	0.0139851
681.473	0.0138377
681.551	0.0138577
681.629	0.0138077
681.707	0.0137744
681.785	0.0137155
681.863	0.0137199
681.942	0.0136826
682.020	0.0138296
682.098	0.0139268
682.176	0.0138187
682.254	0.0137467
682.332	0.0138754
682.410	0.0140287
682.488	0.0140334
682.567	0.0140159
682.645	0.0142467
682.723	0.0141963
682.801	0.0142522
682.879	0.0144700
682.957	0.0145012
683.035	0.0146899
683.113	0.0145954
683.192	0.0147768
683.270	0.0149245
683.348	0.0149613
683.426	0.0148850
683.504	0.0148863
683.582	0.0151257
683.660	0.0151124
683.738	0.0151550
683.817	0.0151625
683.895	0.0153011
683.973	0.0152694
684.051	0.0153699
684.129	0.0150665
684.207	0.0150376
684.285	0.0151224
684.363	0.0149969
684.442	0.0147773
684.520	0.0148587
684.598	0.0148170
684.676	0.0145656
684.754	0.0144386
684.832	0.0144392
684.910	0.0142085
684.988	0.0141791
685.067	0.0141309
685.145	0.0141188
685.223	0.0139887
685.301	0.0139087
685.379	0.0138697
685.457	0.0138551
685.535	0.0137372
685.613	0.0138934
685.692	0.0138023
685.770	0.0138049
685.848	0.0137888
685.926	0.0139143
686.004	0.0139368
686.082	0.0140053
686.160	0.0140757
686.238	0.0140932
686.317	0.0138869
686.395	0.0140511
686.473	0.0141710
686.551	0.0141455
686.629	0.0141717
686.707	0.0141993
686.785	0.0140733
686.863	0.0143755
686.942	0.0143058
687.020	0.0142768
687.098	0.0144056
687.176	0.0143911
687.254	0.0143519
687.332	0.0143420
687.410	0.0144236
687.488	0.0144838
687.567	0.0146320
687.645	0.0145671
687.723	0.0145236
687.801	0.0147139
687.879	0.0149781
687.957	0.0148706
688.035	0.0149579
688.113	0.0149988
688.192	0.0149019
688.270	0.0148485
688.348	0.0151363
688.426	0.0150321
688.504	0.0150010
688.582	0.0149628
688.660	0.0149709
688.738	0.0148579
688.817	0.0148431
688.895	0.0149317
688.973	0.0148136
689.051	0.0148741
689.129	0.0147038
689.207	0.0146703
689.285	0.0146206
689.363	0.0146123
689.442	0.0146040
689.520	0.0144730
689.598	0.0144144
689.676	0.0144591
689.754	0.0145348
689.832	0.0144804
689.910	0.0144882
689.988	0.0144392
690.067	0.0142768
690.145	0.0143569
690.223	0.0144377
690.301	0.0142936
690.379	0.0142748
690.457	0.0143197
690.535	0.0142775
690.613	0.0143246
690.692	0.0141306
690.770	0.0140786
690.848	0.0141396
690.926	0.0140976
691.004	0.0141156
691.082	0.0141552
691.160	0.0140442
691.238	0.0140481
691.317	0.0140319
691.395	0.0140379
691.473	0.0141338
691.551	0.0141089
691.629	0.0140345
691.707	0.0140385
691.785	0.0142014
691.863	0.0141143
691.942	0.0142180
692.020	0.0143075
692.098	0.0141541
692.176	0.0143502
692.254	0.0143957
692.332	0.0144405
692.410	0.0145806
692.488	0.0147794
692.567	0.0147295
692.645	0.0146631
692.723	0.0147520
692.801	0.0148237
692.879	0.0148626
692.957	0.0148969
693.035	0.0149634
693.113	0.0149232
693.192	0.0150090
693.270	0.0148875
693.348	0.0149843
693.426	0.0150102
693.504	0.0150980
693.582	0.0151711
693.660	0.0150987
693.738	0.0149655
693.817	0.0149178
693.895	0.0149297
693.973	0.0148637
694.051	0.0148126
694.129	0.0147884
694.207	0.0148652
694.285	0.0145197
694.363	0.0144817
694.442	0.0146082
694.520	0.0144341
694.598	0.0143128
694.676	0.0141309
694.754	0.0141531
694.832	0.0141140
694.910	0.0140378
694.988	0.0138345
695.067	0.0139148
695.145	0.0137493
695.223	0.0136608
695.301	0.0136495
695.379	0.0135036
695.457	0.0134914
695.535	0.0133582
695.613	0.0134485
695.692	0.0133693
695.770	0.0134045
695.848	0.0133764
695.926	0.0134565
696.004	0.0134865
696.082	0.0137103
696.160	0.0138396
696.238	0.0139159
696.317	0.0140751
696.395	0.0141450
696.473	0.0143700
696.551	0.0142651
696.629	0.0142456
696.707	0.0144045
696.785	0.0145758
696.863	0.0146358
696.942	0.0146137
697.020	0.0148396
697.098	0.0147247
697.176	0.0147755
697.254	0.0147880
697.332	0.0149156
697.410	0.0149066
697.488	0.0148979
697.567	0.0149377
697.645	0.0148640
697.723	0.0149170
697.801	0.0148155
697.879	0.0147117
697.957	0.0147372
698.035	0.0146766
698.113	0.0148577
698.192	0.0147389
698.270	0.0147230
698.348	0.0146122
698.426	0.0145240
698.504	0.0146409
698.582	0.0145832
698.660	0.0145052
698.738	0.0144602
698.817	0.0143821
698.895	0.0141991
698.973	0.0144732
699.051	0.0143416
699.129	0.0141609
699.207	0.0143033
699.285	0.0141256
699.363	0.0142535
699.442	0.0141683
699.520	0.0141583
699.598	0.0139787
699.676	0.0140214
699.754	0.0139230
699.832	0.0139130
699.910	0.0138279
699.988	0.0136879
700.067	0.0137607
700.145	0.0138528
700.223	0.0137887
700.301	0.0137701
700.379	0.0137146
700.457	0.0136830
700.535	0.0136438
700.613	0.0138150
700.692	0.0138273
700.770	0.0138095
700.848	0.0138804
700.926	0.0138609
701.004	0.0138772
701.082	0.0139355
701.160	0.0142039
701.238	0.0144970
701.317	0.0142794
701.395	0.0142704
701.473	0.0143396
701.551	0.0144993
701.629	0.0145059
701.707	0.0146155
701.785	0.0145898
701.863	0.0146188
701.942	0.0147870
702.020	0.0146680
702.098	0.0146877
702.176	0.0147616
702.254	0.0148183
702.332	0.0147744
702.410	0.0149171
702.488	0.0147185
702.567	0.0148517
702.645	0.0147363
702.723	0.0147090
702.801	0.0146825
702.879	0.0147474
702.957	0.0147389
703.035	0.0147031
703.113	0.0147365
703.192	0.0146329
703.270	0.0145100
703.348	0.0145566
703.426	0.0144263
703.504	0.0145554
703.582	0.0145966
703.660	0.0143999
703.738	0.0141941
703.817	0.0143822
703.895	0.0144144
703.973	0.0144233
704.051	0.0143132
704.129	0.0143221
704.207	0.0142579
704.285	0.0144051
704.363	0.0144009
704.442	0.0143887
704.520	0.0143200
704.598	0.0143845
704.676	0.0145354
704.754	0.0143166
704.832	0.0142852
704.910	0.0141833
704.988	0.0141769
705.067	0.0142722
705.145	0.0141943
705.223	0.0141378
705.301	0.0141542
705.379	0.0142204
705.457	0.0141893
705.535	0.0140978
705.613	0.0140845
705.692	0.0141145
705.770	0.0141051
705.848	0.0142067
705.926	0.0141427
706.004	0.0141340
706.082	0.0142769
706.160	0.0141544
706.238	0.0141807
706.317	0.0141558
706.395	0.0142203
706.473	0.0142372
706.551	0.0143001
706.629	0.0143485
706.707	0.0143545
706.785	0.0145059
706.863	0.0146600
706.942	0.0145759
707.020	0.0145079
707.098	0.0146646
707.176	0.0147569
707.254	0.0147148
707.332	0.0146621
707.410	0.0146253
707.488	0.0146708
707.567	0.0146778
707.645	0.0146839
707.723	0.0147611
707.801	0.0148471
707.879	0.0144810
707.957	0.0146886
708.035	0.0145670
708.113	0.0146535
708.192	0.0146790
708.270	0.0146174
708.348	0.0146286
708.426	0.0147849
708.504	0.0146336
708.582	0.0146308
708.660	0.0146429
708.738	0.0145470
708.817	0.0146700
708.895	0.0146368
708.973	0.0145706
709.051	0.0145717
709.129	0.0144913
709.207	0.0144133
709.285	0.0144245
709.363	0.0143699
709.442	0.0144413
709.520	0.0144202
709.598	0.0143970
709.676	0.0143752
709.754	0.0143681
709.832	0.0143001
709.910	0.0143203
709.988	0.0144095
710.067	0.0142492
710.145	0.0143155
710.223	0.0143889
710.301	0.0142877
710.379	0.0143654
710.457	0.0144323
710.535	0.0141159
710.613	0.0142719
710.692	0.0142228
710.770	0.0142432
710.848	0.0143513
710.926	0.0142846
711.004	0.0142850
711.082	0.0142491
711.160	0.0140591
711.238	0.0142060
711.317	0.0143887
711.395	0.0143276
711.473	0.0141885
711.551	0.0142807
711.629	0.0142440
711.707	0.0142844
711.785	0.0142626
711.863	0.0142845
711.942	0.0142388
712.020	0.0143620
712.098	0.0143446
712.176	0.0143656
712.254	0.0142020
712.332	0.0142257
712.410	0.0142603
712.488	0.0143145
712.567	0.0142615
712.645	0.0143530
712.723	0.0144215
712.801	0.0143795
712.879	0.0143810
712.957	0.0143157
713.035	0.0143851
713.113	0.0143903
713.192	0.0143399
713.270	0.0146195
713.348	0.0145391
713.426	0.0144876
713.504	0.0144440
713.582	0.0146021
713.660	0.0145075
713.738	0.0145691
713.817	0.0146560
713.895	0.0145358
713.973	0.0144901
714.051	0.0145344
714.129	0.0144966
714.207	0.0143683
714.285	0.0145141
714.363	0.0144676
714.442	0.0144526
714.520	0.0143647
714.598	0.0144540
714.676	0.0144155
714.754	0.0144254
714.832	0.0144829
714.910	0.0144018
714.988	0.0144234
715.067	0.0143496
715.145	0.0141905
715.223	0.0141610
715.301	0.0142715
715.379	0.0142527
715.457	0.0140983
715.535	0.0140858
715.613	0.0143182
715.692	0.0141723
715.770	0.0140700
715.848	0.0140945
715.926	0.0141541
716.004	0.0140150
716.082	0.0141894
716.160	0.0141790
716.238	0.0141278
716.317	0.0140796
716.395	0.0140614
716.473	0.0140814
716.551	0.0140179
716.629	0.0140871
716.707	0.0140314
716.785	0.0140517
716.863	0.0141855
716.942	0.0142319
717.020	0.0141251
717.098	0.0140951
717.176	0.0141685
717.254	0.0141452
717.332	0.0140529
717.410	0.0141518
717.488	0.0142013
717.567	0.0141554
717.645	0.0140832
717.723	0.0142223
717.801	0.0144077
717.879	0.0144193
717.957	0.0143895
718.035	0.0145164
718.113	0.0145056
718.192	0.0144691
718.270	0.0145369
718.348	0.0146614
718.426	0.0146750
718.504	0.0146528
718.582	0.0146757
718.660	0.0146381
718.738	0.0148818
718.817	0.0147418
718.895	0.0147092
718.973	0.0147586
719.051	0.0146896
719.129	0.0145814
719.207	0.0145751
719.285	0.0147847
719.363	0.0147667
719.442	0.0146100
719.520	0.0145058
719.598	0.0144482
719.676	0.0144471
719.754	0.0144651
719.832	0.0143546
719.910	0.0143269
719.988	0.0142158
720.067	0.0143040
720.145	0.0143891
720.223	0.0143513
720.301	0.0141809
720.379	0.0142409
720.457	0.0143489
720.535	0.0142579
720.613	0.0142542
720.692	0.0143408
720.770	0.0143065
720.848	0.0143889
720.926	0.0142371
721.004	0.0144063
721.082	0.0142415
721.160	0.0143629
721.238	0.0143565
721.317	0.0142511
721.395	0.0143173
721.473	0.0144604
721.551	0.0142955
721.629	0.0142990
721.707	0.0142212
721.785	0.0142741
721.863	0.0141180
721.942	0.0140988
722.020	0.0142730
722.098	0.0143246
722.176	0.0140764
722.254	0.0141939
722.332	0.0141287
722.410	0.0142318
722.488	0.0142059
722.567	0.0143533
722.645	0.0142995
722.723	0.0142760
722.801	0.0143509
722.879	0.0141867
722.957	0.0142242
723.035	0.0143884
723.113	0.0142866
723.192	0.0141968
723.270	0.0142668
723.348	0.0143099
723.426	0.0143855
723.504	0.0143059
723.582	0.0144032
723.660	0.0143520
723.738	0.0143031
723.817	0.0144450
723.895	0.0143899
723.973	0.0144055
724.051	0.0144099
724.129	0.0144305
724.207	0.0142597
724.285	0.0143130
724.363	0.0143331
724.442	0.0141647
724.520	0.0142063
724.598	0.0142545
724.676	0.0143880
724.754	0.0142278
724.832	0.0142918
724.910	0.0144130
724.988	0.0142947
725.067	0.0143661
725.145	0.0142896
725.223	0.0142606
725.301	0.0143887
725.379	0.0143621
725.457	0.0143739
725.535	0.0143182
725.613	0.0143440
725.692	0.0143941
725.770	0.0143605
725.848	0.0143195
725.926	0.0143139
726.004	0.0142001
726.082	0.0144363
726.160	0.0145302
726.238	0.0143960
726.317	0.0143435
726.395	0.0143223
726.473	0.0143509
726.551	0.0143930
726.629	0.0143867
726.707	0.0143223
726.785	0.0142814
726.863	0.0143314
726.942	0.0142342
727.020	0.0142166
727.098	0.0141715
727.176	0.0142764
727.254	0.0141927
727.332	0.0142505
727.410	0.0141985
727.488	0.0141613
727.567	0.0142599
727.645	0.0142136
727.723	0.0142458
727.801	0.0143744
727.879	0.0143846
727.957	0.0143465
728.035	0.0144055
728.113	0.0143628
728.192	0.0144423
728.270	0.0144729
728.348	0.0144710
728.426	0.0145518
728.504	0.0146136
728.582	0.0146422
728.660	0.0145366
728.738	0.0145977
728.817	0.0145835
728.895	0.0147006
728.973	0.0146986
729.051	0.0146345
729.129	0.0148100
729.207	0.0146448
729.285	0.0147007
729.363	0.0147076
729.442	0.0147408
729.520	0.0146828
729.598	0.0147397
729.676	0.0146037
729.754	0.0147022
729.832	0.0147057
729.910	0.0145354
729.988	0.0145640
730.067	0.0146018
730.145	0.0145145
730.223	0.0144141
730.301	0.0144347
730.379	0.0145285
730.457	0.0146016
730.535	0.0144112
730.613	0.0145905
730.692	0.0146360
730.770	0.0146819
730.848	0.0145638
730.926	0.0143781
731.004	0.0145651
731.082	0.0146143
731.160	0.0145248
731.238	0.0145289
731.317	0.0145524
731.395	0.0146171
731.473	0.0144795
731.551	0.0144662
731.629	0.0144416
731.707	0.0145316
731.785	0.0146282
731.863	0.0142856
731.942	0.0145019
732.020	0.0145179
732.098	0.0143316
732.176	0.0144749
732.254	0.0143978
732.332	0.0143887
732.410	0.0143868
732.488	0.0142466
732.567	0.0143844
732.645	0.0144965
732.723	0.0143115
732.801	0.0144138
732.879	0.0143993
732.957	0.0144413
733.035	0.0143388
733.113	0.0143825
733.192	0.0143627
733.270	0.0142737
733.348	0.0143948
733.426	0.0144326
733.504	0.0144078
733.582	0.0143661
733.660	0.0144273
733.738	0.0145647
733.817	0.0143660
733.895	0.0143455
733.973	0.0144979
734.051	0.0142723
734.129	0.0143317
734.207	0.0144437
734.285	0.0143502
734.363	0.0143312
734.442	0.0142599
734.520	0.0142210
734.598	0.0142746
734.676	0.0143066
734.754	0.0141824
734.832	0.0142133
734.910	0.0143025
734.988	0.0141523
735.067	0.0141133
735.145	0.0142877
735.223	0.0142402
735.301	0.0142390
735.379	0.0142325
735.457	0.0142815
735.535	0.0141966
735.613	0.0142262
735.692	0.0143185
735.770	0.0142052
735.848	0.0144121
735.926	0.0144839
736.004	0.0143490
736.082	0.0141973
736.160	0.0143155
736.238	0.0143856
736.317	0.0143632
736.395	0.0144182
736.473	0.0142646
736.551	0.0144246
736.629	0.0144051
736.707	0.0144532
736.785	0.0144325
736.863	0.0144350
736.942	0.0142677
737.020	0.0143314
737.098	0.0143489
737.176	0.0143250
737.254	0.0144147
737.332	0.0143842
737.410	0.0144664
737.488	0.0144152
737.567	0.0143206
737.645	0.0144046
737.723	0.0143748
737.801	0.0143637
737.879	0.0144656
737.957	0.0143434
738.035	0.0143141
738.113	0.0143768
738.192	0.0143089
738.270	0.0142859
738.348	0.0144223
738.426	0.0144440
738.504	0.0143653
738.582	0.0144021
738.660	0.0142831
738.738	0.0144501
738.817	0.0145145
738.895	0.0144354
738.973	0.0143503
739.051	0.0144328
739.129	0.0143661
739.207	0.0144086
739.285	0.0142846
739.363	0.0143471
739.442	0.0145727
739.520	0.0144751
739.598	0.0144543
739.676	0.0144407
739.754	0.0143290
739.832	0.0143184
739.910	0.0142581
739.988	0.0142276
740.067	0.0143083
740.145	0.0144386
740.223	0.0144170
740.301	0.0143301
740.379	0.0143233
740.457	0.0144115
740.535	0.0144175
740.613	0.0143671
740.692	0.0143678
740.770	0.0144386
740.848	0.0142858
740.926	0.0143323
741.004	0.0143853
741.082	0.0143327
741.160	0.0142384
741.238	0.0142898
741.317	0.0144579
741.395	0.0143289
741.473	0.0143168
741.551	0.0143642
741.629	0.0144814
741.707	0.0145355
741.785	0.0143985
741.863	0.0144287
741.942	0.0143806
742.020	0.0142593
742.098	0.0143576
742.176	0.0142631
742.254	0.0144183
742.332	0.0142462
742.410	0.0143053
742.488	0.0143662
742.567	0.0144669
742.645	0.0144646
742.723	0.0142660
742.801	0.0142530
742.879	0.0143791
742.957	0.0144098
743.035	0.0145201
743.113	0.0144485
743.192	0.0144269
743.270	0.0142399
743.348	0.0143888
743.426	0.0143677
743.504	0.0143294
743.582	0.0143043
743.660	0.0145304
743.738	0.0143208
743.817	0.0144470
743.895	0.0144509
743.973	0.0142490
744.051	0.0144057
744.129	0.0144686
744.207	0.0145847
744.285	0.0143656
744.363	0.0143755
744.442	0.0144084
744.520	0.0142910
744.598	0.0143077
744.676	0.0142895
744.754	0.0143716
744.832	0.0144630
744.910	0.0144951
744.988	0.0144364
745.067	0.0144524
745.145	0.0143333
745.223	0.0142112
745.301	0.0142974
745.379	0.0143583
745.457	0.0142641
745.535	0.0143675
745.613	0.0144706
745.692	0.0143215
745.770	0.0144962
745.848	0.0142982
745.926	0.0141937
746.004	0.0143922
746.082	0.0142689
746.160	0.0144112
746.238	0.0143403
746.317	0.0143918
746.395	0.0144366
746.473	0.0144455
746.551	0.0142837
746.629	0.0144680
746.707	0.0144423
746.785	0.0144889
746.863	0.0143807
746.942	0.0144467
747.020	0.0144526
747.098	0.0145040
747.176	0.0144099
747.254	0.0144390
747.332	0.0143848
747.410	0.0144831
747.488	0.0145221
747.567	0.0144855
747.645	0.0145325
747.723	0.0145133
747.801	0.0145345
747.879	0.0145713
747.957	0.0142950
748.035	0.0144064
748.113	0.0145877
748.192	0.0145750
748.270	0.0144784
748.348	0.0145995
748.426	0.0144382
748.504	0.0145558
748.582	0.0144874
748.660	0.0144297
748.738	0.0144102
748.817	0.0144855
748.895	0.0145705
748.973	0.0145406
749.051	0.0144199
749.129	0.0144893
749.207	0.0143445
749.285	0.0143594
749.363	0.0143552
749.442	0.0144372
749.520	0.0142414
749.598	0.0142773
749.676	0.0142366
749.754	0.0141919
749.832	0.0142351
749.910	0.0143860
749.988	0.0144147
750.067	0.0142609
750.145	0.0141931
750.223	0.0142756
750.301	0.0143999
750.379	0.0144593
750.457	0.0143323
750.535	0.0143874
750.613	0.0143570
750.692	0.0144981
750.770	0.0145654
750.848	0.0144897
750.926	0.0145178
751.004	0.0146203
751.082	0.0145683
751.160	0.0144836
751.238	0.0145343
751.317	0.0145068
751.395	0.0145376
751.473	0.0144097
751.551	0.0144609
751.629	0.0144894
751.707	0.0144852
751.785	0.0146752
751.863	0.0144619
751.942	0.0143709
752.020	0.0144614
752.098	0.0145466
752.176	0.0144209
752.254	0.0145209
752.332	0.0146014
752.410	0.0145473
752.488	0.0145364
752.567	0.0146115
752.645	0.0145830
752.723	0.0145204
752.801	0.0145216
752.879	0.0145782
752.957	0.0145187
753.035	0.0144920
753.113	0.0146698
753.192	0.0145094
753.270	0.0145860
753.348	0.0144237
753.426	0.0146130
753.504	0.0145844
753.582	0.0144907
753.660	0.0144894
753.738	0.0145489
753.817	0.0144570
753.895	0.0145398
753.973	0.0144230
754.051	0.0143194
754.129	0.0144489
754.207	0.0144395
754.285	0.0144071
754.363	0.0143700
754.442	0.0144073
754.520	0.0142798
754.598	0.0143342
754.676	0.0143332
754.754	0.0142810
754.832	0.0143340
754.910	0.0142229
754.988	0.0141860
755.067	0.0142746
755.145	0.0142081
755.223	0.0144555
755.301	0.0141877
755.379	0.0143285
755.457	0.0142843
755.535	0.0143601
755.613	0.0142747
755.692	0.0141124
755.770	0.0143211
755.848	0.0143774
755.926	0.0142573
756.004	0.0144229
756.082	0.0142205
756.160	0.0142541
756.238	0.0143163
756.317	0.0142916
756.395	0.0142546
756.473	0.0142498
756.551	0.0143331
756.629	0.0143225
756.707	0.0143105
756.785	0.0143758
756.863	0.0143230
756.942	0.0143723
757.020	0.0143194
757.098	0.0144381
757.176	0.0142542
757.254	0.0143873
757.332	0.0142396
757.410	0.0142590
757.488	0.0142719
757.567	0.0142710
757.645	0.0142884
757.723	0.0141200
757.801	0.0142679
757.879	0.0143351
757.957	0.0142265
758.035	0.0142180
758.113	0.0143010
758.192	0.0142880
758.270	0.0142153
758.348	0.0142522
758.426	0.0145025
758.504	0.0143690
758.582	0.0142813
758.660	0.0143888
758.738	0.0143016
758.817	0.0143639
758.895	0.0143180
758.973	0.0143305
759.051	0.0141825
759.129	0.0143311
759.207	0.0143819
759.285	0.0144093
759.363	0.0142835
759.442	0.0140125
759.520	0.0142464
759.598	0.0141673
759.676	0.0142186
759.754	0.0140986
759.832	0.0142085
759.910	0.0142068
759.988	0.0141962
760.067	0.0141854
760.145	0.0141215
760.223	0.0140410
760.301	0.0141903
760.379	0.0142496
760.457	0.0143049
760.535	0.0142841
760.613	0.0142689
760.692	0.0143818
760.770	0.0144012
760.848	0.0144176
760.926	0.0144709
761.004	0.0144859
761.082	0.0146410
761.160	0.0146291
761.238	0.0144382
761.317	0.0145422
761.395	0.0146843
761.473	0.0145562
761.551	0.0146858
761.629	0.0144939
761.707	0.0147025
761.785	0.0145000
761.863	0.0146406
761.942	0.0147372
762.020	0.0146365
762.098	0.0145740
762.176	0.0146836
762.254	0.0146670
762.332	0.0146052
762.410	0.0146468
762.488	0.0144853
762.567	0.0145488
762.645	0.0144965
762.723	0.0146315
762.801	0.0146791
762.879	0.0143568
762.957	0.0145882
763.035	0.0145550
763.113	0.0145597
763.192	0.0144559
763.270	0.0145954
763.348	0.0146604
763.426	0.0143874
763.504	0.0144141
763.582	0.0143512
763.660	0.0143932
763.738	0.0145058
763.817	0.0144073
763.895	0.0143879
763.973	0.0145660
764.051	0.0144144
764.129	0.0143819
764.207	0.0143716
764.285	0.0143801
764.363	0.0144859
764.442	0.0144205
764.520	0.0144750
764.598	0.0143510
764.676	0.0144519
764.754	0.0145953
764.832	0.0145780
764.910	0.0144889
764.988	0.0144450
765.067	0.0144807
765.145	0.0145761
765.223	0.0145058
765.301	0.0144259
765.379	0.0144627
765.457	0.0144462
765.535	0.0144097
765.613	0.0144431
765.692	0.0144192
765.770	0.0142971
765.848	0.0144749
765.926	0.0144314
766.004	0.0145074
766.082	0.0144350
766.160	0.0143832
766.238	0.0143353
766.317	0.0143553
766.395	0.0143747
766.473	0.0144630
766.551	0.0142818
766.629	0.0144798
766.707	0.0145176
766.785	0.0145111
766.863	0.0144810
766.942	0.0145123
767.020	0.0144162
767.098	0.0145264
767.176	0.0144649
767.254	0.0147376
767.332	0.0144893
767.410	0.0143937
767.488	0.0146015
767.567	0.0145229
767.645	0.0145605
767.723	0.0146180
767.801	0.0146875
767.879	0.0145009
767.957	0.0146297
768.035	0.0146766
768.113	0.0146123
768.192	0.0146669
768.270	0.0145525
768.348	0.0145089
768.426	0.0147646
768.504	0.0146344
768.582	0.0145129
768.660	0.0145105
768.738	0.0145506
768.817	0.0145425
768.895	0.0147732
768.973	0.0146008
769.051	0.0146153
769.129	0.0145358
769.207	0.0145477
769.285	0.0145873
769.363	0.0146416
769.442	0.0145395
769.520	0.0146620
769.598	0.0145325
769.676	0.0145197
769.754	0.0146833
769.832	0.0145562
769.910	0.0146268
769.988	0.0145331
770.067	0.0145468
770.145	0.0146404
770.223	0.0146305
770.301	0.0146130
770.379	0.0146223
770.457	0.0145548
770.535	0.0144951
770.613	0.0146721
770.692	0.0147071
770.770	0.0146284
770.848	0.0145283
770.926	0.0145957
771.004	0.0145713
771.082	0.0144035
771.160	0.0146786
771.238	0.0144580
771.317	0.0145534
771.395	0.0146524
771.473	0.0144666
771.551	0.0145254
771.629	0.0145071
771.707	0.0145828
771.785	0.0145065
771.863	0.0146205
771.942	0.0144860
772.020	0.0145602
772.098	0.0144524
772.176	0.0143741
772.254	0.0145177
772.332	0.0144517
772.410	0.0144912
772.488	0.0143832
772.567	0.0145250
772.645	0.0144243
772.723	0.0145264
772.801	0.0144196
772.879	0.0144960
772.957	0.0146101
773.035	0.0144176
773.113	0.0143998
773.192	0.0144837
773.270	0.0142896
773.348	0.0143519
773.426	0.0145057
773.504	0.0144679
773.582	0.0144742
773.660	0.0143468
773.738	0.0143077
773.817	0.0144073
773.895	0.0143550
773.973	0.0144285
774.051	0.0142026
774.129	0.0144385
774.207	0.0144427
774.285	0.0145289
774.363	0.0143043
774.442	0.0144641
774.520	0.0144609
774.598	0.0143185
774.676	0.0144328
774.754	0.0145489
774.832	0.0145368
774.910	0.0144976
774.988	0.0146031
775.067	0.0145747
775.145	0.0145198
775.223	0.0144823
775.301	0.0145609
775.379	0.0145834
775.457	0.0146719
775.535	0.0145332
775.613	0.0146590
775.692	0.0146822
775.770	0.0144899
775.848	0.0145778
775.926	0.0145171
776.004	0.0145460
776.082	0.0144618
776.160	0.0144760
776.238	0.0146487
776.317	0.0144988
776.395	0.0143564
776.473	0.0144360
776.551	0.0143780
776.629	0.0143009
776.707	0.0143986
776.785	0.0144109
776.863	0.0142145
776.942	0.0143220
777.020	0.0144034
777.098	0.0145069
777.176	0.0143784
777.254	0.0143182
777.332	0.0142872
777.410	0.0143969
777.488	0.0143688
777.567	0.0142262
777.645	0.0143892
777.723	0.0143799
777.801	0.0142933
777.879	0.0142927
777.957	0.0143686
778.035	0.0143787
778.113	0.0142086
778.192	0.0142999
778.270	0.0143949
778.348	0.0143091
778.426	0.0143776
778.504	0.0143575
778.582	0.0143824
778.660	0.0142805
778.738	0.0144171
778.817	0.0143953
778.895	0.0143516
778.973	0.0144218
779.051	0.0144243
779.129	0.0143253
779.207	0.0143980
779.285	0.0143921
779.363	0.0143771
779.442	0.0144767
779.520	0.0144031
779.598	0.0143092
779.676	0.0143521
779.754	0.0144277
779.832	0.0143437
779.910	0.0143758
779.988	0.0144717
780.067	0.0142365
780.145	0.0142839
780.223	0.0143357
780.301	0.0143807
780.379	0.0143815
780.457	0.0143250
780.535	0.0144109
780.613	0.0141320
780.692	0.0143644
780.770	0.0144102
780.848	0.0144755
780.926	0.0142847
781.004	0.0142929
781.082	0.0143597
781.160	0.0144566
781.238	0.0144199
781.317	0.0143487
781.395	0.0143305
781.473	0.0144704
781.551	0.0145031
781.629	0.0142757
781.707	0.0143948
781.785	0.0143604
781.863	0.0144705
781.942	0.0144378
782.020	0.0143196
782.098	0.0142067
782.176	0.0144120
782.254	0.0143997
782.332	0.0143118
782.410	0.0142075
782.488	0.0143689
782.567	0.0143259
782.645	0.0143448
782.723	0.0142607
782.801	0.0141711
782.879	0.0143113
782.957	0.0144064
783.035	0.0142319
783.113	0.0141171
783.192	0.0143459
783.270	0.0142914
783.348	0.0142422
783.426	0.0143046
783.504	0.0142826
783.582	0.0143465
783.660	0.0142297
783.738	0.0143195
783.817	0.0144211
783.895	0.0143081
783.973	0.0143322
784.051	0.0144466
784.129	0.0143454
784.207	0.0145138
784.285	0.0144365
784.363	0.0145356
784.442	0.0145325
784.520	0.0144476
784.598	0.0143942
784.676	0.0143545
784.754	0.0145877
784.832	0.0144711
784.910	0.0145437
784.988	0.0144327
785.067	0.0144480
785.145	0.0145338
785.223	0.0144527
785.301	0.0143128
785.379	0.0145912
785.457	0.0144479
785.535	0.0144583
785.613	0.0144628
785.692	0.0144991
785.770	0.0144373
785.848	0.0144271
785.926	0.0143823
786.004	0.0143027
786.082	0.0143485
786.160	0.0144358
786.238	0.0144987
786.317	0.0144975
786.395	0.0144575
786.473	0.0145611
786.551	0.0145409
786.629	0.0144547
786.707	0.0145966
786.785	0.0145190
786.863	0.0145189
786.942	0.0145860
787.020	0.0145869
787.098	0.0144158
787.176	0.0143324
787.254	0.0145236
787.332	0.0144188
787.410	0.0144026
787.488	0.0144280
787.567	0.0145411
787.645	0.0144314
787.723	0.0143844
787.801	0.0144754
787.879	0.0144935
787.957	0.0143969
788.035	0.0143960
788.113	0.0143858
788.192	0.0143998
788.270	0.0143449
788.348	0.0143523
788.426	0.0144180
788.504	0.0144349
788.582	0.0145553
788.660	0.0144173
788.738	0.0143593
788.817	0.0143864
788.895	0.0143489
788.973	0.0144816
789.051	0.0144585
789.129	0.0145686
789.207	0.0145270
789.285	0.0145366
789.363	0.0145045
789.442	0.0145369
789.520	0.0144060
789.598	0.0145744
789.676	0.0146969
789.754	0.0145988
789.832	0.0144696
789.910	0.0145609
789.988	0.0145822
790.067	0.0146446
790.145	0.0144073
790.223	0.0145583
790.301	0.0145521
790.379	0.0144567
790.457	0.0145710
790.535	0.0146063
790.613	0.0144110
790.692	0.0144143
790.770	0.0144315
790.848	0.0144274
790.926	0.0144724
791.004	0.0144905
791.082	0.0143599
791.160	0.0143485
791.238	0.0142982
791.317	0.0144568
791.395	0.0142566
791.473	0.0142532
791.551	0.0142509
791.629	0.0142815
791.707	0.0144718
791.785	0.0144787
791.863	0.0143883
791.942	0.0144489
792.020	0.0143188
792.098	0.0143587
792.176	0.0144518
792.254	0.0143011
792.332	0.0143560
792.410	0.0146165
792.488	0.0143214
792.567	0.0144308
792.645	0.0144559
792.723	0.0144384
792.801	0.0143021
792.879	0.0144267
792.957	0.0143867
793.035	0.0145435
793.113	0.0144335
793.192	0.0143207
793.270	0.0143168
793.348	0.0143951
793.426	0.0143528
793.504	0.0142374
793.582	0.0144086
793.660	0.0144146
793.738	0.0144653
793.817	0.0144439
793.895	0.0144836
793.973	0.0143342
794.051	0.0144476
794.129	0.0144225
794.207	0.0144707
794.285	0.0145740
794.363	0.0144799
794.442	0.0145625
794.520	0.0145376
794.598	0.0146129
794.676	0.0146429
794.754	0.0145240
794.832	0.0143871
794.910	0.0144350
794.988	0.0146133
795.067	0.0146175
795.145	0.0145953
795.223	0.0145489
795.301	0.0145073
795.379	0.0143422
795.457	0.0145193
795.535	0.0144080
795.613	0.0145351
795.692	0.0144876
795.770	0.0144598
795.848	0.0143526
795.926	0.0143266
796.004	0.0143977
796.082	0.0142391
796.160	0.0142785
796.238	0.0143391
796.317	0.0142604
796.395	0.0141953
796.473	0.0142604
796.551	0.0142588
796.629	0.0141895
796.707	0.0142545
796.785	0.0144203
796.863	0.0142343
796.942	0.0141435
797.020	0.0142570
797.098	0.0142978
797.176	0.0142729
797.254	0.0143399
797.332	0.0141433
797.410	0.0141936
797.488	0.0142010
797.567	0.0143373
797.645	0.0142040
797.723	0.0141628
797.801	0.0142751
797.879	0.0142067
797.957	0.0142680
798.035	0.0141949
798.113	0.0141413
798.192	0.0141268
798.270	0.0141799
798.348	0.0143084
798.426	0.0142039
798.504	0.0141653
798.582	0.0142248
798.660	0.0142220
798.738	0.0142084
798.817	0.0143240
798.895	0.0142902
798.973	0.0142381
799.051	0.0140650
799.129	0.0141891
799.207	0.0142648
799.285	0.0142086
799.363	0.0142130
799.442	0.0140826
799.520	0.0141518
799.598	0.0142313
799.676	0.0141335
799.754	0.0140710
799.832	0.0142072
799.910	0.0139753
799.988	0.0140775
800.067	0.0141210
800.145	0.0142496
800.223	0.0141950
800.301	0.0141107
800.379	0.0143342
800.457	0.0142755
800.535	0.0142846
800.613	0.0142458
800.692	0.0142414
800.770	0.0142287
800.848	0.0141535
800.926	0.0141521
801.004	0.0142651
801.082	0.0142102
801.160	0.0142361
801.238	0.0142118
801.317	0.0142475
801.395	0.0141490
801.473	0.0142281
801.551	0.0142406
801.629	0.0142640
801.707	0.0142653
801.785	0.0142717
801.863	0.0141740
801.942	0.0144113
802.020	0.0143284
802.098	0.0143061
802.176	0.0143953
802.254	0.0143995
802.332	0.0144409
802.410	0.0144874
802.488	0.0144069
802.567	0.0142861
802.645	0.0143819
802.723	0.0144471
802.801	0.0143749
802.879	0.0143565
802.957	0.0143678
803.035	0.0145145
803.113	0.0145293
803.192	0.0145462
803.270	0.0145746
803.348	0.0145878
803.426	0.0145097
803.504	0.0144409
803.582	0.0145533
803.660	0.0146274
803.738	0.0144997
803.817	0.0145268
803.895	0.0143787
803.973	0.0143816
804.051	0.0144981
804.129	0.0144674
804.207	0.0144965
804.285	0.0144229
804.363	0.0144598
804.442	0.0144720
804.520	0.0142574
804.598	0.0143945
804.676	0.0143587
804.754	0.0144027
804.832	0.0144537
804.910	0.0143485
804.988	0.0143089
805.067	0.0142363
805.145	0.0143076
805.223	0.0144241
805.301	0.0143654
805.379	0.0142609
805.457	0.0141579
805.535	0.0143420
805.613	0.0142397
805.692	0.0141148
805.770	0.0142812
805.848	0.0142951
805.926	0.0142024
806.004	0.0141436
806.082	0.0142039
806.160	0.0142863
806.238	0.0141121
806.317	0.0140939
806.395	0.0142596
806.473	0.0141560
806.551	0.0141914
806.629	0.0142493
806.707	0.0142390
806.785	0.0141264
806.863	0.0142068
806.942	0.0142523
807.020	0.0141108
807.098	0.0142287
807.176	0.0142775
807.254	0.0142360
807.332	0.0143008
807.410	0.0143523
807.488	0.0142980
807.567	0.0143446
807.645	0.0144498
807.723	0.0144254
807.801	0.0143776
807.879	0.0143619
807.957	0.0144788
808.035	0.0144984
808.113	0.0145026
808.192	0.0144550
808.270	0.0144051
808.348	0.0144463
808.426	0.0145536
808.504	0.0143394
808.582	0.0144712
808.660	0.0143723
808.738	0.0144136
808.817	0.0144798
808.895	0.0145179
808.973	0.0144360
809.051	0.0144713
809.129	0.0143312
809.207	0.0143758
809.285	0.0144458
809.363	0.0143915
809.442	0.0145507
809.520	0.0143568
809.598	0.0146296
809.676	0.0145178
809.754	0.0145251
809.832	0.0145010
809.910	0.0144920
809.988	0.0144798
810.067	0.0145511
810.145	0.0144870
810.223	0.0144824
810.301	0.0144390
810.379	0.0144334
810.457	0.0143761
810.535	0.0144487
810.613	0.0145119
810.692	0.0145821
810.770	0.0144402
810.848	0.0144369
810.926	0.0143552
811.004	0.0144138
811.082	0.0144611
811.160	0.0144975
811.238	0.0144090
811.317	0.0143590
811.395	0.0145344
811.473	0.0143834
811.551	0.0144117
811.629	0.0144070
811.707	0.0144904
811.785	0.0144669
811.863	0.0144212
811.942	0.0144412
812.020	0.0145037
812.098	0.0145066
812.176	0.0144167
812.254	0.0144601
812.332	0.0144730
812.410	0.0143872
812.488	0.0143749
812.567	0.0144227
812.645	0.0144245
812.723	0.0143308
812.801	0.0144388
812.879	0.0143842
812.957	0.0143744
813.035	0.0144444
813.113	0.0143482
813.192	0.0143465
813.270	0.0144066
813.348	0.0142495
813.426	0.0144007
813.504	0.0142930
813.582	0.0143254
813.660	0.0142591
813.738	0.0142945
813.817	0.0142841
813.895	0.0143356
813.973	0.0142472
814.051	0.0143103
814.129	0.0143958
814.207	0.0142478
814.285	0.0143631
814.363	0.0143579
814.442	0.0143473
814.520	0.0143075
814.598	0.0145577
814.676	0.0144176
814.754	0.0143689
814.832	0.0144691
814.910	0.0144895
814.988	0.0143784
815.067	0.0143351
815.145	0.0144286
815.223	0.0143272
815.301	0.0144851
815.379	0.0145269
815.457	0.0144196
815.535	0.0143282
815.613	0.0143703
815.692	0.0144749
815.770	0.0143846
815.848	0.0145003
815.926	0.0143375
816.004	0.0143493
816.082	0.0145332
816.160	0.0144252
816.238	0.0143348
816.317	0.0143715
816.395	0.0143073
816.473	0.0144679
816.551	0.0142661
816.629	0.0143703
816.707	0.0143816
816.785	0.0144495
816.863	0.0143414
816.942	0.0144198
817.020	0.0143563
817.098	0.0145158
817.176	0.0144089
817.254	0.0143522
817.332	0.0143986
817.410	0.0142790
817.488	0.0142796
817.567	0.0141964
817.645	0.0143546
817.723	0.0143673
817.801	0.0143233
817.879	0.0142483
817.957	0.0143880
818.035	0.0142717
818.113	0.0142254
818.192	0.0141959
818.270	0.0143243
818.348	0.0142599
818.426	0.0143929
818.504	0.0142737
818.582	0.0143021
818.660	0.0142128
818.738	0.0141360
818.817	0.0142417
818.895	0.0142903
818.973	0.0140930
819.051	0.0142232
819.129	0.0142871
819.207	0.0142809
819.285	0.0141896
819.363	0.0141345
819.442	0.0140939
819.520	0.0141212
819.598	0.0140154
819.676	0.0141675
819.754	0.0141344
819.832	0.0141677
819.910	0.0141647
819.988	0.0141019
820.067	0.0141383
820.145	0.0143601
820.223	0.0141039
820.301	0.0141892
820.379	0.0142008
820.457	0.0142496
820.535	0.0141113
820.613	0.0141503
820.692	0.0141917
820.770	0.0142094
820.848	0.0142630
820.926	0.0142149
821.004	0.0142182
821.082	0.0143021
821.160	0.0143269
821.238	0.0142245
821.317	0.0141254
821.395	0.0142582
821.473	0.0143375
821.551	0.0143080
821.629	0.0141481
821.707	0.0143533
821.785	0.0143420
821.863	0.0141631
821.942	0.0142103
822.020	0.0142757
822.098	0.0142278
822.176	0.0142625
822.254	0.0142207
822.332	0.0143044
822.410	0.0142667
822.488	0.0143807
822.567	0.0143005
822.645	0.0141839
822.723	0.0143372
822.801	0.0143247
822.879	0.0142107
822.957	0.0141537
823.035	0.0142474
823.113	0.0142782
823.192	0.0143154
823.270	0.0142144
823.348	0.0142182
823.426	0.0142657
823.504	0.0143355
823.582	0.0144392
823.660	0.0141941
823.738	0.0143797
823.817	0.0142567
823.895	0.0143290
823.973	0.0141761
824.051	0.0143213
824.129	0.0144363
824.207	0.0143683
824.285	0.0142313
824.363	0.0144299
824.442	0.0144437
824.520	0.0142889
824.598	0.0144286
824.676	0.0142706
824.754	0.0142304
824.832	0.0143318
824.910	0.0144572
824.988	0.0145515
825.067	0.0143673
825.145	0.0144767
825.223	0.0145300
825.301	0.0145143
825.379	0.0146278
825.457	0.0143816
825.535	0.0146275
825.613	0.0145202
825.692	0.0146134
825.770	0.0145969
825.848	0.0146930
825.926	0.0146918
826.004	0.0145917
826.082	0.0144958
826.160	0.0145233
826.238	0.0146410
826.317	0.0146481
826.395	0.0146136
826.473	0.0147221
826.551	0.0147039
826.629	0.0146474
826.707	0.0145945
826.785	0.0146038
826.863	0.0145433
826.942	0.0145441
827.020	0.0145345
827.098	0.0144320
827.176	0.0144735
827.254	0.0146601
827.332	0.0144999
827.410	0.0144450
827.488	0.0145210
827.567	0.0145560
827.645	0.0144550
827.723	0.0144466
827.801	0.0145305
827.879	0.0144359
827.957	0.0144523
828.035	0.0144966
828.113	0.0144485
828.192	0.0145894
828.270	0.0145005
828.348	0.0143952
828.426	0.0145015
828.504	0.0146428
828.582	0.0143887
828.660	0.0144557
828.738	0.0144408
828.817	0.0144766
828.895	0.0145515
828.973	0.0145699
829.051	0.0145370
829.129	0.0145322
829.207	0.0144359
829.285	0.0145231
829.363	0.0145236
829.442	0.0144119
829.520	0.0146101
829.598	0.0144299
829.676	0.0144337
829.754	0.0145840
829.832	0.0145680
829.910	0.0143916
829.988	0.0143937
830.067	0.0142921
830.145	0.0143935
830.223	0.0144884
830.301	0.0143542
830.379	0.0143348
830.457	0.0143694
830.535	0.0143995
830.613	0.0143456
830.692	0.0143582
830.770	0.0143861
830.848	0.0144141
830.926	0.0143505
831.004	0.0142202
831.082	0.0144131
831.160	0.0144955
831.238	0.0143750
831.317	0.0143705
831.395	0.0144632
831.473	0.0143459
831.551	0.0144991
831.629	0.0145055
831.707	0.0144389
831.785	0.0145625
831.863	0.0145481
831.942	0.0145226
832.020	0.0143508
832.098	0.0143070
832.176	0.0143947
832.254	0.0143163
832.332	0.0145578
832.410	0.0144503
832.488	0.0143634
832.567	0.0143480
832.645	0.0144610
832.723	0.0143721
832.801	0.0142519
832.879	0.0143800
832.957	0.0144354
833.035	0.0143391
833.113	0.0142944
833.192	0.0143890
833.270	0.0143272
833.348	0.0141949
833.426	0.0143504
833.504	0.0143723
833.582	0.0143324
833.660	0.0142721
833.738	0.0143741
833.817	0.0144349
833.895	0.0143970
833.973	0.0142304
834.051	0.0143006
834.129	0.0143351
834.207	0.0143967
834.285	0.0143786
834.363	0.0142989
834.442	0.0143775
834.520	0.0144601
834.598	0.0143854
834.676	0.0143315
834.754	0.0143879
834.832	0.0143592
834.910	0.0143555
834.988	0.0144743
835.067	0.0144028
835.145	0.0145909
835.223	0.0145661
835.301	0.0144180
835.379	0.0144762
835.457	0.0144311
835.535	0.0145205
835.613	0.0144468
835.692	0.0144958
835.770	0.0144903
835.848	0.0144849
835.926	0.0144289
836.004	0.0145863
836.082	0.0144271
836.160	0.0144269
836.238	0.0144771
836.317	0.0144106
836.395	0.0145026
836.473	0.0145161
836.551	0.0144050
836.629	0.0144923
836.707	0.0144315
836.785	0.0145165
836.863	0.0143542
836.942	0.0143228
837.020	0.0144196
837.098	0.0143822
837.176	0.0142959
837.254	0.0144492
837.332	0.0143227
837.410	0.0142418
837.488	0.0143484
837.567	0.0143813
837.645	0.0142423
837.723	0.0142416
837.801	0.0142252
837.879	0.0144228
837.957	0.0143469
838.035	0.0143062
838.113	0.0143124
838.192	0.0142518
838.270	0.0143681
838.348	0.0144452
838.426	0.0143165
838.504	0.0143013
838.582	0.0143711
838.660	0.0144211
838.738	0.0143484
838.817	0.0141995
838.895	0.0143340
838.973	0.0143454
839.051	0.0143837
839.129	0.0144544
839.207	0.0144425
839.285	0.0143584
839.363	0.0142927
839.442	0.0143126
839.520	0.0144789
839.598	0.0143514
839.676	0.0144833
839.754	0.0143827
839.832	0.0143400
839.910	0.0145008
839.988	0.0143812
840.067	0.0144558
840.145	0.0143488
840.223	0.0145887
840.301	0.0143780
840.379	0.0143708
840.457	0.0145105
840.535	0.0146245
840.613	0.0143627
840.692	0.0143946
840.770	0.0144141
840.848	0.0144596
840.926	0.0143661
841.004	0.0144972
841.082	0.0144028
841.160	0.0142390
841.238	0.0144028
841.317	0.0145348
841.395	0.0144961
841.473	0.0144768
841.551	0.0145103
841.629	0.0143575
841.707	0.0143914
841.785	0.0145524
841.863	0.0144000
841.942	0.0142767
842.020	0.0144246
842.098	0.0145021
842.176	0.0144527
842.254	0.0144209
842.332	0.0143415
842.410	0.0144543
842.488	0.0143291
842.567	0.0145458
842.645	0.0144368
842.723	0.0143465
842.801	0.0144820
842.879	0.0143528
842.957	0.0144773
843.035	0.0143923
843.113	0.0144456
843.192	0.0145218
843.270	0.0146034
843.348	0.0144994
843.426	0.0143353
843.504	0.0144430
843.582	0.0143999
843.660	0.0145053
843.738	0.0144737
843.817	0.0144067
843.895	0.0145599
843.973	0.0144501
844.051	0.0145383
844.129	0.0145394
844.207	0.0142880
844.285	0.0143844
844.363	0.0144929
844.442	0.0144226
844.520	0.0143590
844.598	0.0144312
844.676	0.0144569
844.754	0.0144001
844.832	0.0143674
844.910	0.0144610
844.988	0.0144213
845.067	0.0144836
845.145	0.0144778
845.223	0.0144573
845.301	0.0143895
845.379	0.0143378
845.457	0.0144246
845.535	0.0143745
845.613	0.0144425
845.692	0.0143740
845.770	0.0143870
845.848	0.0143548
845.926	0.0143970
846.004	0.0143414
846.082	0.0143919
846.160	0.0144950
846.238	0.0144555
846.317	0.0143359
846.395	0.0143507
846.473	0.0143253
846.551	0.0144214
846.629	0.0144720
846.707	0.0144399
846.785	0.0145033
846.863	0.0144350
846.942	0.0143754
847.020	0.0144377
847.098	0.0143652
847.176	0.0143001
847.254	0.0144950
847.332	0.0143127
847.410	0.0144013
847.488	0.0144131
847.567	0.0143564
847.645	0.0143340
847.723	0.0144197
847.801	0.0144292
847.879	0.0143395
847.957	0.0144456
848.035	0.0144654
848.113	0.0143748
848.192	0.0144081
848.270	0.0143890
848.348	0.0144533
848.426	0.0144042
848.504	0.0143781
848.582	0.0143797
848.660	0.0144197
848.738	0.0144984
848.817	0.0143684
848.895	0.0144978
848.973	0.0145446
849.051	0.0144981
849.129	0.0144910
849.207	0.0145970
849.285	0.0145304
849.363	0.0145078
849.442	0.0145428
849.520	0.0145926
849.598	0.0146492
849.676	0.0143665
849.754	0.0145353
849.832	0.0145803
849.910	0.0144999
849.988	0.0146185
850.067	0.0146404
850.145	0.0144777
850.223	0.0144952
850.301	0.0145986
850.379	0.0145450
850.457	0.0145992
850.535	0.0146408
850.613	0.0145750
850.692	0.0146437
850.770	0.0144933
850.848	0.0144574
850.926	0.0145873
851.004	0.0145609
851.082	0.0145984
851.160	0.0146289
851.238	0.0145242
851.317	0.0145712
851.395	0.0145070
851.473	0.0144930
851.551	0.0144657
851.629	0.0146582
851.707	0.0145102
851.785	0.0144375
851.863	0.0145015
851.942	0.0145454
852.020	0.0144984
852.098	0.0146238
852.176	0.0146365
852.254	0.0145276
852.332	0.0144805
852.410	0.0144853
852.488	0.0144132
852.567	0.0144305
852.645	0.0143926
852.723	0.0144614
852.801	0.0144154
852.879	0.0143278
852.957	0.0145089
853.035	0.0143862
853.113	0.0143851
853.192	0.0144181
853.270	0.0143966
853.348	0.0145001
853.426	0.0144954
853.504	0.0145206
853.582	0.0144099
853.660	0.0144450
853.738	0.0144488
853.817	0.0144312
853.895	0.0145892
853.973	0.0144341
854.051	0.0144333
854.129	0.0144007
854.207	0.0144791
854.285	0.0144567
854.363	0.0145409
854.442	0.0145930
854.520	0.0145029
854.598	0.0142435
854.676	0.0144676
854.754	0.0144388
854.832	0.0144987
854.910	0.0144588
854.988	0.0143391
855.067	0.0144336
855.145	0.0144096
855.223	0.0143723
855.301	0.0143006
855.379	0.0142532
855.457	0.0144687
855.535	0.0144800
855.613	0.0142870
855.692	0.0142743
855.770	0.0144902
855.848	0.0143166
855.926	0.0142390
856.004	0.0142359
856.082	0.0144557
856.160	0.0143315
856.238	0.0143160
856.317	0.0144420
856.395	0.0143713
856.473	0.0142146
856.551	0.0145409
856.629	0.0143698
856.707	0.0144297
856.785	0.0143886
856.863	0.0145457
856.942	0.0145112
857.020	0.0143929
857.098	0.0144217
857.176	0.0143848
857.254	0.0144875
857.332	0.0145133
857.410	0.0144826
857.488	0.0143880
857.567	0.0145041
857.645	0.0144700
857.723	0.0144434
857.801	0.0144420
857.879	0.0145036
857.957	0.0144359
858.035	0.0144710
858.113	0.0144547
858.192	0.0145393
858.270	0.0145290
858.348	0.0146713
858.426	0.0146434
858.504	0.0145071
858.582	0.0145638
858.660	0.0144662
858.738	0.0145100
858.817	0.0144573
858.895	0.0145629
858.973	0.0145774
859.051	0.0144349
859.129	0.0144420
859.207	0.0143703
859.285	0.0144860
859.363	0.0144637
859.442	0.0143658
859.520	0.0144176
859.598	0.0142822
859.676	0.0146369
859.754	0.0144758
859.832	0.0143477
859.910	0.0144006
859.988	0.0143686
860.067	0.0145228
860.145	0.0144199
860.223	0.0144192
860.301	0.0143201
860.379	0.0145016
860.457	0.0144112
860.535	0.0144571
860.613	0.0145345
860.692	0.0144213
860.770	0.0144234
860.848	0.0143985
860.926	0.0143887
861.004	0.0144267
861.082	0.0143603
861.160	0.0144778
861.238	0.0145171
861.317	0.0144469
861.395	0.0143113
861.473	0.0143946
861.551	0.0144453
861.629	0.0143707
861.707	0.0144318
861.785	0.0143525
861.863	0.0143129
861.942	0.0142839
862.020	0.0143149
862.098	0.0143040
862.176	0.0142822
862.254	0.0144215
862.332	0.0143452
862.410	0.0142883
862.488	0.0143399
862.567	0.0142219
862.645	0.0143806
862.723	0.0144505
862.801	0.0142914
862.879	0.0143255
862.957	0.0144360
863.035	0.0143259
863.113	0.0143065
863.192	0.0143587
863.270	0.0142700
863.348	0.0144391
863.426	0.0144807
863.504	0.0144551
863.582	0.0143468
863.660	0.0143935
863.738	0.0142667
863.817	0.0144508
863.895	0.0143912
863.973	0.0143770
864.051	0.0143058
864.129	0.0144418
864.207	0.0145285
864.285	0.0142747
864.363	0.0143341
864.442	0.0143114
864.520	0.0142937
864.598	0.0143184
864.676	0.0142465
864.754	0.0142895
864.832	0.0143253
864.910	0.0143777
864.988	0.0143459
865.067	0.0145540
865.145	0.0143860
865.223	0.0143728
865.301	0.0143952
865.379	0.0143244
865.457	0.0143534
865.535	0.0145344
865.613	0.0142776
865.692	0.0145045
865.770	0.0143578
865.848	0.0143237
865.926	0.0143922
866.004	0.0144704
866.082	0.0144019
866.160	0.0145129
866.238	0.0143713
866.317	0.0144875
866.395	0.0145213
866.473	0.0146239
866.551	0.0145206
866.629	0.0144096
866.707	0.0144613
866.785	0.0145649
866.863	0.0145857
866.942	0.0145856
867.020	0.0146465
867.098	0.0145159
867.176	0.0147017
867.254	0.0144212
867.332	0.0144304
867.410	0.0146535
867.488	0.0145518
867.567	0.0146339
867.645	0.0145628
867.723	0.0145638
867.801	0.0145728
867.879	0.0145231
867.957	0.0145585
868.035	0.0145364
868.113	0.0146436
868.192	0.0145026
868.270	0.0144320
868.348	0.0145833
868.426	0.0144695
868.504	0.0144624
868.582	0.0143906
868.660	0.0144855
868.738	0.0144359
868.817	0.0144818
868.895	0.0144063
868.973	0.0144006
869.051	0.0143779
869.129	0.0144724
869.207	0.0143929
869.285	0.0145302
869.363	0.0145506
869.442	0.0143929
869.520	0.0144785
869.598	0.0144304
869.676	0.0145066
869.754	0.0144251
869.832	0.0145155
869.910	0.0146342
869.988	0.0146581
870.067	0.0144353
870.145	0.0143975
870.223	0.0143784
870.301	0.0143275
870.379	0.0144680
870.457	0.0144218
870.535	0.0143716
870.613	0.0143760
870.692	0.0143009
870.770	0.0144132
870.848	0.0144226
870.926	0.0144939
871.004	0.0144140
871.082	0.0143569
871.160	0.0143932
871.238	0.0143406
871.317	0.0142800
871.395	0.0142113
871.473	0.0143384
871.551	0.0143002
871.629	0.0143850
871.707	0.0142937
871.785	0.0141417
871.863	0.0141415
871.942	0.0142102
872.020	0.0141875
872.098	0.0141055
872.176	0.0141378
872.254	0.0142233
872.332	0.0142815
872.410	0.0142381
872.488	0.0142147
872.567	0.0141360
872.645	0.0141848
872.723	0.0142388
872.801	0.0142841
872.879	0.0142329
872.957	0.0143155
873.035	0.0143867
873.113	0.0143474
873.192	0.0144238
873.270	0.0144447
873.348	0.0143999
873.426	0.0142323
873.504	0.0142953
873.582	0.0144443
873.660	0.0146358
873.738	0.0144407
873.817	0.0143606
873.895	0.0144376
873.973	0.0144884
874.051	0.0145480
874.129	0.0145058
874.207	0.0145403
874.285	0.0145115
874.363	0.0145301
874.442	0.0145825
874.520	0.0145609
874.598	0.0145161
874.676	0.0146217
874.754	0.0146395
874.832	0.0143940
874.910	0.0145745
874.988	0.0145331
875.067	0.0145561
875.145	0.0145661
875.223	0.0145863
875.301	0.0145663
875.379	0.0145464
875.457	0.0145642
875.535	0.0145187
875.613	0.0144270
875.692	0.0145723
875.770	0.0145516
875.848	0.0145834
875.926	0.0144946
876.004	0.0144047
876.082	0.0145153
876.160	0.0145759
876.238	0.0145446
876.317	0.0143779
876.395	0.0143233
876.473	0.0145468
876.551	0.0144640
876.629	0.0144395
876.707	0.0145636
876.785	0.0143024
876.863	0.0144416
876.942	0.0144102
877.020	0.0143727
877.098	0.0143530
877.176	0.0142438
877.254	0.0143751
877.332	0.0142919
877.410	0.0142603
877.488	0.0144077
877.567	0.0145078
877.645	0.0143042
877.723	0.0144533
877.801	0.0142885
877.879	0.0143870
877.957	0.0143813
878.035	0.0143609
878.113	0.0144402
878.192	0.0141812
878.270	0.0142970
878.348	0.0142965
878.426	0.0143884
878.504	0.0142403
878.582	0.0143174
878.660	0.0143716
878.738	0.0142540
878.817	0.0143749
878.895	0.0143593
878.973	0.0144908
879.051	0.0142869
879.129	0.0143936
879.207	0.0143392
879.285	0.0144247
879.363	0.0143905
879.442	0.0144605
879.520	0.0144328
879.598	0.0144226
879.676	0.0143742
879.754	0.0145420
879.832	0.0145744
879.910	0.0144921
879.988	0.0144735
880.067	0.0145047
880.145	0.0144802
880.223	0.0143797
880.301	0.0145123
880.379	0.0145058
880.457	0.0143659
880.535	0.0143437
880.613	0.0144876
880.692	0.0144890
880.770	0.0143668
880.848	0.0142183
880.926	0.0144382
881.004	0.0142873
881.082	0.0142861
881.160	0.0143281
881.238	0.0143140
881.317	0.0142644
881.395	0.0143268
881.473	0.0142902
881.551	0.0143138
881.629	0.0143351
881.707	0.0143700
881.785	0.0142997
881.863	0.0143492
881.942	0.0142408
882.020	0.0142002
882.098	0.0142545
882.176	0.0142036
882.254	0.0142463
882.332	0.0142252
882.410	0.0142847
882.488	0.0142462
882.567	0.0142521
882.645	0.0142554
882.723	0.0141987
882.801	0.0142036
882.879	0.0144640
882.957	0.0142852
883.035	0.0142795
883.113	0.0143256
883.192	0.0143208
883.270	0.0143853
883.348	0.0144231
883.426	0.0144327
883.504	0.0144587
883.582	0.0144009
883.660	0.0142824
883.738	0.0143555
883.817	0.0145252
883.895	0.0144332
883.973	0.0143645
884.051	0.0141956
884.129	0.0143906
884.207	0.0144108
884.285	0.0143556
884.363	0.0144315
884.442	0.0144599
884.520	0.0144972
884.598	0.0145329
884.676	0.0144314
884.754	0.0144452
884.832	0.0144429
884.910	0.0144878
884.988	0.0144922
885.067	0.0146245
885.145	0.0144542
885.223	0.0144637
885.301	0.0144929
885.379	0.0145264
885.457	0.0145049
885.535	0.0145217
885.613	0.0145608
885.692	0.0145164
885.770	0.0144682
885.848	0.0144673
885.926	0.0145770
886.004	0.0144174
886.082	0.0144579
886.160	0.0145904
886.238	0.0143811
886.317	0.0144949
886.395	0.0143635
886.473	0.0145303
886.551	0.0143266
886.629	0.0143847
886.707	0.0144428
886.785	0.0144215
886.863	0.0144003
886.942	0.0143933
887.020	0.0142203
887.098	0.0143256
887.176	0.0143357
887.254	0.0143707
887.332	0.0142506
887.410	0.0142336
887.488	0.0142868
887.567	0.0144608
887.645	0.0143004
887.723	0.0143295
887.801	0.0144032
887.879	0.0143698
887.957	0.0144360
888.035	0.0143384
888.113	0.0144722
888.192	0.0144028
888.270	0.0143967
888.348	0.0145977
888.426	0.0144932
888.504	0.0144228
888.582	0.0144573
888.660	0.0144469
888.738	0.0145554
888.817	0.0145323
888.895	0.0143922
888.973	0.0144582
889.051	0.0145171
889.129	0.0145110
889.207	0.0145118
889.285	0.0145167
889.363	0.0144547
889.442	0.0145188
889.520	0.0144769
889.598	0.0143861
889.676	0.0144471
889.754	0.0145468
889.832	0.0145618
889.910	0.0144985
889.988	0.0146540
890.067	0.0146294
890.145	0.0143742
890.223	0.0144746
890.301	0.0145352
890.379	0.0144415
890.457	0.0145397
890.535	0.0144675
890.613	0.0144992
890.692	0.0144576
890.770	0.0145219
890.848	0.0145155
890.926	0.0144026
891.004	0.0144501
891.082	0.0145850
891.160	0.0145182
891.238	0.0144838
891.317	0.0143990
891.395	0.0144055
891.473	0.0144768
891.551	0.0143557
891.629	0.0142555
891.707	0.0143825
891.785	0.0145254
891.863	0.0145652
891.942	0.0145078
892.020	0.0144357
892.098	0.0146235
892.176	0.0144278
892.254	0.0145059
892.332	0.0145075
892.410	0.0144295
892.488	0.0144256
892.567	0.0145538
892.645	0.0143669
892.723	0.0144129
892.801	0.0143607
892.879	0.0143829
892.957	0.0145135
893.035	0.0143671
893.113	0.0144611
893.192	0.0143980
893.270	0.0143800
893.348	0.0144068
893.426	0.0143332
893.504	0.0142747
893.582	0.0142554
893.660	0.0142468
893.738	0.0143069
893.817	0.0143788
893.895	0.0142922
893.973	0.0142505
894.051	0.0142527
894.129	0.0142323
894.207	0.0143422
894.285	0.0142306
894.363	0.0141544
894.442	0.0142115
894.520	0.0141769
894.598	0.0143085
894.676	0.0141574
894.754	0.0142674
894.832	0.0142090
894.910	0.0143034
894.988	0.0141624
895.067	0.0142308
895.145	0.0141696
895.223	0.0140927
895.301	0.0141752
895.379	0.0142591
895.457	0.0141782
895.535	0.0143002
895.613	0.0143105
895.692	0.0141788
895.770	0.0142338
895.848	0.0143079
895.926	0.0142889
896.004	0.0143319
896.082	0.0143923
896.160	0.0143188
896.238	0.0143053
896.317	0.0143626
896.395	0.0143968
896.473	0.0143317
896.551	0.0144776
896.629	0.0143520
896.707	0.0143896
896.785	0.0144384
896.863	0.0143985
896.942	0.0142805
897.020	0.0143689
897.098	0.0143698
897.176	0.0143764
897.254	0.0144170
897.332	0.0143852
897.410	0.0142789
897.488	0.0142364
897.567	0.0142655
897.645	0.0144065
897.723	0.0142693
897.801	0.0142117
897.879	0.0141431
897.957	0.0143736
898.035	0.0143551
898.113	0.0143790
898.192	0.0142888
898.270	0.0142062
898.348	0.0143125
898.426	0.0142670
898.504	0.0144440
898.582	0.0142599
898.660	0.0143665
898.738	0.0144785
898.817	0.0143172
898.895	0.0142078
898.973	0.0144172
899.051	0.0144586
899.129	0.0144480
899.207	0.0144370
899.285	0.0144143
899.363	0.0144788
899.442	0.0143430
899.520	0.0143632
899.598	0.0145350
899.676	0.0144625
899.754	0.0145100
899.832	0.0145007
899.910	0.0146590
899.988	0.0146660
900.067	0.0143601
900.145	0.0145500
900.223	0.0145999
900.301	0.0145674
900.379	0.0147399
900.457	0.0146201
900.535	0.0144740
900.613	0.0145359
900.692	0.0145034
900.770	0.0144384
900.848	0.0145551
900.926	0.0145968
901.004	0.0145313
901.082	0.0145755
901.160	0.0146117
901.238	0.0145715
901.317	0.0143870
901.395	0.0145394
901.473	0.0145944
901.551	0.0145888
901.629	0.0145569
901.707	0.0145589
901.785	0.0144868
901.863	0.0143849
901.942	0.0145301
902.020	0.0144353
902.098	0.0145653
902.176	0.0145929
902.254	0.0145710
902.332	0.0146152
902.410	0.0144494
902.488	0.0144347
902.567	0.0144400
902.645	0.0145426
902.723	0.0143829
902.801	0.0144053
902.879	0.0145351
902.957	0.0144276
903.035	0.0143336
903.113	0.0142850
903.192	0.0144751
903.270	0.0145123
903.348	0.0142876
903.426	0.0143694
903.504	0.0144608
903.582	0.0144718
903.660	0.0144741
903.738	0.0144559
903.817	0.0143361
903.895	0.0142820
903.973	0.0143882
904.051	0.0143945
904.129	0.0144325
904.207	0.0142898
904.285	0.0143607
904.363	0.0143357
904.442	0.0144086
904.520	0.0143737
904.598	0.0143950
904.676	0.0144460
904.754	0.0144836
904.832	0.0144511
904.910	0.0143660
904.988	0.0143877
905.067	0.0144151
905.145	0.0144658
905.223	0.0142543
905.301	0.0144356
905.379	0.0143990
905.457	0.0145195
905.535	0.0144527
905.613	0.0143520
905.692	0.0144527
905.770	0.0145203
905.848	0.0144309
905.926	0.0142795
906.004	0.0145672
906.082	0.0143564
906.160	0.0143951
906.238	0.0143949
906.317	0.0144271
906.395	0.0143270
906.473	0.0144650
906.551	0.0143504
906.629	0.0144581
906.707	0.0144628
906.785	0.0142942
906.863	0.0145403
906.942	0.0144232
907.020	0.0144101
907.098	0.0144682
907.176	0.0144889
907.254	0.0145016
907.332	0.0143977
907.410	0.0144452
907.488	0.0144893
907.567	0.0144710
907.645	0.0143996
907.723	0.0143294
907.801	0.0144498
907.879	0.0144218
907.957	0.0144046
908.035	0.0144198
908.113	0.0143538
908.192	0.0145616
908.270	0.0144471
908.348	0.0144302
908.426	0.0143439
908.504	0.0144505
908.582	0.0144341
908.660	0.0144874
908.738	0.0144691
908.817	0.0145482
908.895	0.0144907
908.973	0.0144923
909.051	0.0144583
909.129	0.0145771
909.207	0.0146487
909.285	0.0144577
909.363	0.0143942
909.442	0.0144791
909.520	0.0147152
909.598	0.0145814
909.676	0.0144904
909.754	0.0144881
909.832	0.0146442
909.910	0.0145200
909.988	0.0146496
910.067	0.0146188
910.145	0.0145522
910.223	0.0145318
910.301	0.0145618
910.379	0.0145939
910.457	0.0146099
910.535	0.0145509
910.613	0.0144035
910.692	0.0145892
910.770	0.0145625
910.848	0.0144001
910.926	0.0144659
911.004	0.0143908
911.082	0.0145132
911.160	0.0144494
911.238	0.0143774
911.317	0.0144403
911.395	0.0143298
911.473	0.0143752
911.551	0.0143111
911.629	0.0144493
911.707	0.0142983
911.785	0.0142766
911.863	0.0144289
911.942	0.0142860
912.020	0.0142097
912.098	0.0143258
912.176	0.0143604
912.254	0.0143680
912.332	0.0142992
912.410	0.0143943
912.488	0.0143008
912.567	0.0143344
912.645	0.0142895
912.723	0.0143532
912.801	0.0142730
912.879	0.0142769
912.957	0.0143407
913.035	0.0143061
913.113	0.0143044
913.192	0.0143447
913.270	0.0143834
913.348	0.0142941
913.426	0.0142519
913.504	0.0143752
913.582	0.0143298
913.660	0.0142559
913.738	0.0143276
913.817	0.0142785
913.895	0.0142793
913.973	0.0143154
914.051	0.0145042
914.129	0.0142352
914.207	0.0142648
914.285	0.0144219
914.363	0.0143614
914.442	0.0142981
914.520	0.0142728
914.598	0.0142638
914.676	0.0144533
914.754	0.0144081
914.832	0.0143550
914.910	0.0144497
914.988	0.0142645
915.067	0.0144017
915.145	0.0143834
915.223	0.0145827
915.301	0.0143297
915.379	0.0144418
915.457	0.0143699
915.535	0.0143482
915.613	0.0143793
915.692	0.0145192
915.770	0.0143801
915.848	0.0143322
915.926	0.0144499
916.004	0.0143427
916.082	0.0143229
916.160	0.0143677
916.238	0.0144034
916.317	0.0143854
916.395	0.0144920
916.473	0.0144609
916.551	0.0143336
916.629	0.0144871
916.707	0.0144032
916.785	0.0144393
916.863	0.0143928
916.942	0.0144377
917.020	0.0144030
917.098	0.0144495
917.176	0.0143800
917.254	0.0143349
917.332	0.0144987
917.410	0.0144430
917.488	0.0143805
917.567	0.0143066
917.645	0.0144505
917.723	0.0144168
917.801	0.0143264
917.879	0.0142962
917.957	0.0143154
918.035	0.0143102
918.113	0.0144615
918.192	0.0145315
918.270	0.0143780
918.348	0.0143270
918.426	0.0143358
918.504	0.0145281
918.582	0.0144721
918.660	0.0142674
918.738	0.0143215
918.817	0.0144044
918.895	0.0144473
918.973	0.0144770
919.051	0.0144949
919.129	0.0144229
919.207	0.0143910
919.285	0.0143457
919.363	0.0144299
919.442	0.0143832
919.520	0.0143897
919.598	0.0144485
919.676	0.0144170
919.754	0.0143551
919.832	0.0142478
919.910	0.0143123
