05/28/2022	14:33:42	Ver.	4.1	UNKNOWN
Optical Delay	599.988409	Delta X		0.078125	Sweeps	1	Scan Rate	0/0
Coordinates	Axis 1	NaN	Axis 2	NaN	Axis 3	NaN	Axis 4	NaN	Axis 5	NaN	Axis 6	0.000000
TX Power	0.000000	RX Power	0.000000

599.988	0.0140473
600.067	0.0140364
600.145	0.0140269
600.223	0.0139880
600.301	0.0140539
600.379	0.0140972
600.457	0.0141997
600.535	0.0141707
600.613	0.0141001
600.692	0.0142004
600.770	0.0140903
600.848	0.0140668
600.926	0.0141840
601.004	0.0139931
601.082	0.0142189
601.160	0.0140784
601.238	0.0139429
601.317	0.0140603
601.395	0.0141473
601.473	0.0141494
601.551	0.0141243
601.629	0.0140859
601.707	0.0142107
601.785	0.0141652
601.863	0.0140977
601.942	0.0141103
602.020	0.0141708
602.098	0.0141688
602.176	0.0142033
602.254	0.0141493
602.332	0.0140788
602.410	0.0142677
602.488	0.0141677
602.567	0.0140923
602.645	0.0141240
602.723	0.0142397
602.801	0.0142056
602.879	0.0140825
602.957	0.0140089
603.035	0.0141254
603.113	0.0141251
603.192	0.0143491
603.270	0.0141456
603.348	0.0141850
603.426	0.0141418
603.504	0.0141359
603.582	0.0141375
603.660	0.0141003
603.738	0.0141385
603.817	0.0141325
603.895	0.0141132
603.973	0.0141537
604.051	0.0141416
604.129	0.0140116
604.207	0.0141412
604.285	0.0142229
604.363	0.0140195
604.442	0.0141159
604.520	0.0142600
604.598	0.0141277
604.676	0.0139462
604.754	0.0140749
604.832	0.0140986
604.910	0.0143191
604.988	0.0142547
605.067	0.0142966
605.145	0.0142063
605.223	0.0140497
605.301	0.0140365
605.379	0.0140710
605.457	0.0141977
605.535	0.0142592
605.613	0.0141643
605.692	0.0141629
605.770	0.0141763
605.848	0.0141215
605.926	0.0141129
606.004	0.0142462
606.082	0.0140791
606.160	0.0141460
606.238	0.0142088
606.317	0.0141538
606.395	0.0142269
606.473	0.0143443
606.551	0.0142524
606.629	0.0143060
606.707	0.0142054
606.785	0.0142515
606.863	0.0142844
606.942	0.0142371
607.020	0.0142816
607.098	0.0142320
607.176	0.0141370
607.254	0.0142655
607.332	0.0142558
607.410	0.0141244
607.488	0.0142169
607.567	0.0140920
607.645	0.0142416
607.723	0.0142776
607.801	0.0142948
607.879	0.0141199
607.957	0.0140601
608.035	0.0141984
608.113	0.0141846
608.192	0.0141944
608.270	0.0142109
608.348	0.0141620
608.426	0.0141516
608.504	0.0140589
608.582	0.0141994
608.660	0.0141785
608.738	0.0142093
608.817	0.0141439
608.895	0.0139899
608.973	0.0142276
609.051	0.0141482
609.129	0.0141592
609.207	0.0141409
609.285	0.0141871
609.363	0.0141909
609.442	0.0143265
609.520	0.0140601
609.598	0.0141249
609.676	0.0142290
609.754	0.0142001
609.832	0.0140634
609.910	0.0142737
609.988	0.0141785
610.067	0.0141885
610.145	0.0142838
610.223	0.0142294
610.301	0.0142415
610.379	0.0141505
610.457	0.0143776
610.535	0.0143047
610.613	0.0142583
610.692	0.0141216
610.770	0.0142304
610.848	0.0143398
610.926	0.0142519
611.004	0.0141721
611.082	0.0140688
611.160	0.0141440
611.238	0.0142467
611.317	0.0140747
611.395	0.0143391
611.473	0.0141982
611.551	0.0140797
611.629	0.0140245
611.707	0.0141856
611.785	0.0142096
611.863	0.0142089
611.942	0.0142836
612.020	0.0142751
612.098	0.0143326
612.176	0.0142377
612.254	0.0142622
612.332	0.0141261
612.410	0.0141675
612.488	0.0143180
612.567	0.0142323
612.645	0.0141662
612.723	0.0142961
612.801	0.0142973
612.879	0.0141998
612.957	0.0142265
613.035	0.0142332
613.113	0.0141557
613.192	0.0141296
613.270	0.0142815
613.348	0.0142007
613.426	0.0141913
613.504	0.0141926
613.582	0.0140601
613.660	0.0142094
613.738	0.0141352
613.817	0.0141367
613.895	0.0142723
613.973	0.0143050
614.051	0.0141833
614.129	0.0141853
614.207	0.0141319
614.285	0.0141940
614.363	0.0141701
614.442	0.0142412
614.520	0.0142035
614.598	0.0142500
614.676	0.0141009
614.754	0.0141774
614.832	0.0143106
614.910	0.0141850
614.988	0.0141827
615.067	0.0141548
615.145	0.0140432
615.223	0.0139563
615.301	0.0140295
615.379	0.0142419
615.457	0.0139806
615.535	0.0140682
615.613	0.0140433
615.692	0.0138654
615.770	0.0137866
615.848	0.0141058
615.926	0.0139288
616.004	0.0140488
616.082	0.0140004
616.160	0.0139898
616.238	0.0140070
616.317	0.0139244
616.395	0.0140147
616.473	0.0139590
616.551	0.0141038
616.629	0.0138419
616.707	0.0139605
616.785	0.0140878
616.863	0.0140179
616.942	0.0140596
617.020	0.0140490
617.098	0.0139797
617.176	0.0140311
617.254	0.0139436
617.332	0.0139695
617.410	0.0141051
617.488	0.0140491
617.567	0.0140698
617.645	0.0140549
617.723	0.0142821
617.801	0.0141540
617.879	0.0141341
617.957	0.0141870
618.035	0.0141274
618.113	0.0140894
618.192	0.0140768
618.270	0.0141073
618.348	0.0141319
618.426	0.0142504
618.504	0.0139999
618.582	0.0140562
618.660	0.0141601
618.738	0.0141524
618.817	0.0140771
618.895	0.0141689
618.973	0.0141667
619.051	0.0140480
619.129	0.0142757
619.207	0.0141962
619.285	0.0141724
619.363	0.0141637
619.442	0.0142306
619.520	0.0142420
619.598	0.0144003
619.676	0.0141406
619.754	0.0142876
619.832	0.0141029
619.910	0.0143040
619.988	0.0143162
620.067	0.0143950
620.145	0.0142750
620.223	0.0143598
620.301	0.0143135
620.379	0.0142007
620.457	0.0143932
620.535	0.0142716
620.613	0.0144022
620.692	0.0142762
620.770	0.0142759
620.848	0.0143674
620.926	0.0143657
621.004	0.0141353
621.082	0.0141747
621.160	0.0144256
621.238	0.0144035
621.317	0.0144026
621.395	0.0142921
621.473	0.0143057
621.551	0.0141923
621.629	0.0143081
621.707	0.0143531
621.785	0.0142937
621.863	0.0143098
621.942	0.0143460
622.020	0.0141179
622.098	0.0142239
622.176	0.0142472
622.254	0.0141846
622.332	0.0141737
622.410	0.0142065
622.488	0.0141586
622.567	0.0142401
622.645	0.0141117
622.723	0.0139919
622.801	0.0140948
622.879	0.0140813
622.957	0.0141164
623.035	0.0141302
623.113	0.0139925
623.192	0.0139226
623.270	0.0139310
623.348	0.0139304
623.426	0.0140334
623.504	0.0141086
623.582	0.0140171
623.660	0.0140825
623.738	0.0140833
623.817	0.0140472
623.895	0.0141687
623.973	0.0141340
624.051	0.0142398
624.129	0.0143189
624.207	0.0141328
624.285	0.0143148
624.363	0.0142504
624.442	0.0142923
624.520	0.0142645
624.598	0.0142606
624.676	0.0141696
624.754	0.0141296
624.832	0.0142245
624.910	0.0141602
624.988	0.0140370
625.067	0.0140327
625.145	0.0140607
625.223	0.0140826
625.301	0.0139815
625.379	0.0139872
625.457	0.0140322
625.535	0.0139519
625.613	0.0140685
625.692	0.0139462
625.770	0.0140268
625.848	0.0142538
625.926	0.0142026
626.004	0.0143233
626.082	0.0141582
626.160	0.0143210
626.238	0.0143435
626.317	0.0141787
626.395	0.0144116
626.473	0.0145660
626.551	0.0144914
626.629	0.0143223
626.707	0.0144769
626.785	0.0143230
626.863	0.0144032
626.942	0.0144237
627.020	0.0143626
627.098	0.0142633
627.176	0.0142584
627.254	0.0143848
627.332	0.0143680
627.410	0.0142830
627.488	0.0141753
627.567	0.0139983
627.645	0.0141765
627.723	0.0141976
627.801	0.0139990
627.879	0.0139797
627.957	0.0140277
628.035	0.0140765
628.113	0.0140004
628.192	0.0139028
628.270	0.0139310
628.348	0.0139169
628.426	0.0139801
628.504	0.0140620
628.582	0.0139615
628.660	0.0140053
628.738	0.0143459
628.817	0.0141803
628.895	0.0141810
628.973	0.0144288
629.051	0.0142076
629.129	0.0143693
629.207	0.0145314
629.285	0.0146516
629.363	0.0145402
629.442	0.0146420
629.520	0.0146848
629.598	0.0146273
629.676	0.0146567
629.754	0.0146824
629.832	0.0145866
629.910	0.0145231
629.988	0.0143541
630.067	0.0143859
630.145	0.0144083
630.223	0.0144598
630.301	0.0143365
630.379	0.0143331
630.457	0.0142446
630.535	0.0142982
630.613	0.0142835
630.692	0.0141639
630.770	0.0140292
630.848	0.0142433
630.926	0.0141792
631.004	0.0140297
631.082	0.0141853
631.160	0.0141844
631.238	0.0143240
631.317	0.0143650
631.395	0.0142154
631.473	0.0142006
631.551	0.0142854
631.629	0.0142302
631.707	0.0141718
631.785	0.0141773
631.863	0.0143024
631.942	0.0141994
632.020	0.0143105
632.098	0.0141545
632.176	0.0142004
632.254	0.0143120
632.332	0.0141918
632.410	0.0140461
632.488	0.0140575
632.567	0.0140982
632.645	0.0140659
632.723	0.0141453
632.801	0.0140113
632.879	0.0141158
632.957	0.0141680
633.035	0.0141342
633.113	0.0140575
633.192	0.0140213
633.270	0.0141457
633.348	0.0140431
633.426	0.0140337
633.504	0.0141198
633.582	0.0140818
633.660	0.0140998
633.738	0.0140823
633.817	0.0141507
633.895	0.0141661
633.973	0.0143000
634.051	0.0142915
634.129	0.0145354
634.207	0.0143645
634.285	0.0144154
634.363	0.0143787
634.442	0.0145524
634.520	0.0144389
634.598	0.0143427
634.676	0.0145095
634.754	0.0145042
634.832	0.0144266
634.910	0.0146031
634.988	0.0145347
635.067	0.0143723
635.145	0.0144530
635.223	0.0143147
635.301	0.0142182
635.379	0.0142976
635.457	0.0141924
635.535	0.0142552
635.613	0.0143071
635.692	0.0139746
635.770	0.0140753
635.848	0.0138748
635.926	0.0139262
636.004	0.0140051
636.082	0.0139854
636.160	0.0138586
636.238	0.0139535
636.317	0.0138528
636.395	0.0139001
636.473	0.0138335
636.551	0.0139149
636.629	0.0138315
636.707	0.0140033
636.785	0.0139674
636.863	0.0137315
636.942	0.0138654
637.020	0.0139573
637.098	0.0138184
637.176	0.0138578
637.254	0.0138332
637.332	0.0140274
637.410	0.0139937
637.488	0.0138874
637.567	0.0138295
637.645	0.0137688
637.723	0.0138316
637.801	0.0139840
637.879	0.0139100
637.957	0.0140374
638.035	0.0139241
638.113	0.0140762
638.192	0.0140089
638.270	0.0141473
638.348	0.0141241
638.426	0.0140636
638.504	0.0140777
638.582	0.0139732
638.660	0.0139946
638.738	0.0141092
638.817	0.0140249
638.895	0.0140117
638.973	0.0139854
639.051	0.0141393
639.129	0.0141972
639.207	0.0140742
639.285	0.0139866
639.363	0.0140609
639.442	0.0139218
639.520	0.0140720
639.598	0.0140504
639.676	0.0139374
639.754	0.0141141
639.832	0.0141574
639.910	0.0140504
639.988	0.0141528
640.067	0.0143080
640.145	0.0141712
640.223	0.0141473
640.301	0.0143076
640.379	0.0142873
640.457	0.0142151
640.535	0.0142284
640.613	0.0143217
640.692	0.0142060
640.770	0.0141840
640.848	0.0143341
640.926	0.0141927
641.004	0.0143148
641.082	0.0142094
641.160	0.0141335
641.238	0.0141521
641.317	0.0142587
641.395	0.0141663
641.473	0.0142438
641.551	0.0143705
641.629	0.0142824
641.707	0.0142641
641.785	0.0143125
641.863	0.0142603
641.942	0.0143418
642.020	0.0143328
642.098	0.0142162
642.176	0.0143134
642.254	0.0145019
642.332	0.0142973
642.410	0.0143899
642.488	0.0142686
642.567	0.0142696
642.645	0.0142577
642.723	0.0143665
642.801	0.0143859
642.879	0.0142983
642.957	0.0143732
643.035	0.0145164
643.113	0.0143565
643.192	0.0142651
643.270	0.0144315
643.348	0.0144344
643.426	0.0143281
643.504	0.0144282
643.582	0.0142787
643.660	0.0143606
643.738	0.0143089
643.817	0.0142174
643.895	0.0141857
643.973	0.0143095
644.051	0.0142676
644.129	0.0141393
644.207	0.0142003
644.285	0.0142406
644.363	0.0143636
644.442	0.0142927
644.520	0.0143264
644.598	0.0144585
644.676	0.0143262
644.754	0.0142725
644.832	0.0142322
644.910	0.0142351
644.988	0.0142355
645.067	0.0143523
645.145	0.0143283
645.223	0.0142325
645.301	0.0142153
645.379	0.0140556
645.457	0.0142043
645.535	0.0139796
645.613	0.0140272
645.692	0.0139915
645.770	0.0140168
645.848	0.0138639
645.926	0.0138486
646.004	0.0138113
646.082	0.0137778
646.160	0.0139445
646.238	0.0137936
646.317	0.0138717
646.395	0.0139581
646.473	0.0138729
646.551	0.0140723
646.629	0.0139722
646.707	0.0140839
646.785	0.0140233
646.863	0.0141899
646.942	0.0140819
647.020	0.0140401
647.098	0.0142629
647.176	0.0141986
647.254	0.0141244
647.332	0.0143428
647.410	0.0142354
647.488	0.0143127
647.567	0.0143176
647.645	0.0143779
647.723	0.0143435
647.801	0.0143990
647.879	0.0144444
647.957	0.0143095
648.035	0.0142444
648.113	0.0143290
648.192	0.0143308
648.270	0.0142259
648.348	0.0142734
648.426	0.0143321
648.504	0.0142464
648.582	0.0143534
648.660	0.0141197
648.738	0.0141676
648.817	0.0143189
648.895	0.0142664
648.973	0.0141566
649.051	0.0141353
649.129	0.0141235
649.207	0.0142073
649.285	0.0142586
649.363	0.0141485
649.442	0.0141246
649.520	0.0141900
649.598	0.0143250
649.676	0.0142641
649.754	0.0141692
649.832	0.0142065
649.910	0.0144109
649.988	0.0141750
650.067	0.0140823
650.145	0.0141993
650.223	0.0141692
650.301	0.0141949
650.379	0.0141943
650.457	0.0142332
650.535	0.0140881
650.613	0.0139283
650.692	0.0138071
650.770	0.0140348
650.848	0.0139238
650.926	0.0139667
651.004	0.0139644
651.082	0.0139500
651.160	0.0138852
651.238	0.0137864
651.317	0.0138592
651.395	0.0138491
651.473	0.0137656
651.551	0.0140261
651.629	0.0139848
651.707	0.0140280
651.785	0.0142026
651.863	0.0141862
651.942	0.0142436
652.020	0.0143302
652.098	0.0143182
652.176	0.0143742
652.254	0.0145147
652.332	0.0146928
652.410	0.0146195
652.488	0.0146352
652.567	0.0147674
652.645	0.0147438
652.723	0.0147056
652.801	0.0147173
652.879	0.0148108
652.957	0.0147448
653.035	0.0147023
653.113	0.0146962
653.192	0.0146172
653.270	0.0145796
653.348	0.0146162
653.426	0.0145299
653.504	0.0144942
653.582	0.0144498
653.660	0.0145025
653.738	0.0143723
653.817	0.0143021
653.895	0.0142938
653.973	0.0142614
654.051	0.0141113
654.129	0.0141360
654.207	0.0140710
654.285	0.0141462
654.363	0.0140336
654.442	0.0140292
654.520	0.0139026
654.598	0.0138930
654.676	0.0138997
654.754	0.0139260
654.832	0.0140099
654.910	0.0139575
654.988	0.0140369
655.067	0.0140950
655.145	0.0140295
655.223	0.0140933
655.301	0.0140585
655.379	0.0141270
655.457	0.0141605
655.535	0.0141843
655.613	0.0142728
655.692	0.0141541
655.770	0.0142722
655.848	0.0143760
655.926	0.0142121
656.004	0.0143274
656.082	0.0142982
656.160	0.0143196
656.238	0.0141866
656.317	0.0142461
656.395	0.0142407
656.473	0.0141300
656.551	0.0140130
656.629	0.0140137
656.707	0.0141875
656.785	0.0140147
656.863	0.0141344
656.942	0.0141640
657.020	0.0140328
657.098	0.0140603
657.176	0.0140508
657.254	0.0140619
657.332	0.0140723
657.410	0.0141856
657.488	0.0141265
657.567	0.0141287
657.645	0.0141074
657.723	0.0142177
657.801	0.0141539
657.879	0.0141056
657.957	0.0143074
658.035	0.0142960
658.113	0.0141957
658.192	0.0143150
658.270	0.0143465
658.348	0.0142741
658.426	0.0144057
658.504	0.0142937
658.582	0.0143637
658.660	0.0142887
658.738	0.0143266
658.817	0.0143391
658.895	0.0144256
658.973	0.0144014
659.051	0.0143677
659.129	0.0143441
659.207	0.0142645
659.285	0.0145029
659.363	0.0144866
659.442	0.0144233
659.520	0.0143832
659.598	0.0145351
659.676	0.0144162
659.754	0.0145592
659.832	0.0144578
659.910	0.0143682
659.988	0.0145369
660.067	0.0143967
660.145	0.0144511
660.223	0.0144343
660.301	0.0143539
660.379	0.0142297
660.457	0.0142635
660.535	0.0141307
660.613	0.0141561
660.692	0.0140292
660.770	0.0139511
660.848	0.0138903
660.926	0.0138131
661.004	0.0139521
661.082	0.0139857
661.160	0.0138850
661.238	0.0138631
661.317	0.0137301
661.395	0.0138332
661.473	0.0137611
661.551	0.0138844
661.629	0.0138036
661.707	0.0138715
661.785	0.0138072
661.863	0.0136903
661.942	0.0138255
662.020	0.0138033
662.098	0.0138201
662.176	0.0138783
662.254	0.0139745
662.332	0.0139084
662.410	0.0140076
662.488	0.0139560
662.567	0.0140382
662.645	0.0140005
662.723	0.0139882
662.801	0.0140849
662.879	0.0139551
662.957	0.0140343
663.035	0.0141087
663.113	0.0140356
663.192	0.0140582
663.270	0.0139612
663.348	0.0141251
663.426	0.0141225
663.504	0.0141333
663.582	0.0140468
663.660	0.0140434
663.738	0.0139703
663.817	0.0141348
663.895	0.0142168
663.973	0.0142293
664.051	0.0142863
664.129	0.0144076
664.207	0.0143212
664.285	0.0145638
664.363	0.0144630
664.442	0.0144016
664.520	0.0143974
664.598	0.0145415
664.676	0.0145512
664.754	0.0145319
664.832	0.0142904
664.910	0.0144144
664.988	0.0142960
665.067	0.0143614
665.145	0.0143539
665.223	0.0142506
665.301	0.0142290
665.379	0.0141518
665.457	0.0140764
665.535	0.0139795
665.613	0.0140556
665.692	0.0139190
665.770	0.0139630
665.848	0.0141336
665.926	0.0139973
666.004	0.0139697
666.082	0.0138700
666.160	0.0139703
666.238	0.0140133
666.317	0.0141444
666.395	0.0140468
666.473	0.0141338
666.551	0.0141833
666.629	0.0141737
666.707	0.0140977
666.785	0.0141982
666.863	0.0140334
666.942	0.0141828
667.020	0.0141470
667.098	0.0141334
667.176	0.0142365
667.254	0.0143092
667.332	0.0142251
667.410	0.0141002
667.488	0.0142291
667.567	0.0141277
667.645	0.0141896
667.723	0.0140853
667.801	0.0140303
667.879	0.0140939
667.957	0.0140371
668.035	0.0141226
668.113	0.0140908
668.192	0.0141348
668.270	0.0140903
668.348	0.0141522
668.426	0.0141087
668.504	0.0141880
668.582	0.0142101
668.660	0.0142704
668.738	0.0143400
668.817	0.0144299
668.895	0.0142352
668.973	0.0144362
669.051	0.0143807
669.129	0.0146579
669.207	0.0146487
669.285	0.0146467
669.363	0.0146695
669.442	0.0145971
669.520	0.0145698
669.598	0.0146835
669.676	0.0147155
669.754	0.0146580
669.832	0.0147986
669.910	0.0146914
669.988	0.0147118
670.067	0.0145490
670.145	0.0145213
670.223	0.0147020
670.301	0.0145634
670.379	0.0143390
670.457	0.0145059
670.535	0.0144327
670.613	0.0142162
670.692	0.0143945
670.770	0.0142193
670.848	0.0141620
670.926	0.0139857
671.004	0.0139449
671.082	0.0139094
671.160	0.0136726
671.238	0.0137013
671.317	0.0135254
671.395	0.0136978
671.473	0.0137859
671.551	0.0136389
671.629	0.0134051
671.707	0.0134793
671.785	0.0135479
671.863	0.0134701
671.942	0.0136784
672.020	0.0135879
672.098	0.0136155
672.176	0.0136828
672.254	0.0138972
672.332	0.0138995
672.410	0.0138605
672.488	0.0140849
672.567	0.0141657
672.645	0.0142281
672.723	0.0142870
672.801	0.0143836
672.879	0.0144105
672.957	0.0145322
673.035	0.0145326
673.113	0.0145722
673.192	0.0146609
673.270	0.0147130
673.348	0.0145103
673.426	0.0145990
673.504	0.0145761
673.582	0.0146145
673.660	0.0146144
673.738	0.0144804
673.817	0.0144539
673.895	0.0144447
673.973	0.0144655
674.051	0.0141988
674.129	0.0141524
674.207	0.0143420
674.285	0.0141560
674.363	0.0141220
674.442	0.0139780
674.520	0.0139854
674.598	0.0140726
674.676	0.0138845
674.754	0.0139002
674.832	0.0139796
674.910	0.0138493
674.988	0.0140066
675.067	0.0139796
675.145	0.0140830
675.223	0.0140653
675.301	0.0142112
675.379	0.0141669
675.457	0.0141626
675.535	0.0140607
675.613	0.0141910
675.692	0.0142688
675.770	0.0141083
675.848	0.0140974
675.926	0.0140591
676.004	0.0140034
676.082	0.0140559
676.160	0.0142117
676.238	0.0139701
676.317	0.0139767
676.395	0.0139893
676.473	0.0140321
676.551	0.0138124
676.629	0.0138561
676.707	0.0139212
676.785	0.0137968
676.863	0.0137904
676.942	0.0137273
677.020	0.0139187
677.098	0.0137329
677.176	0.0137830
677.254	0.0139490
677.332	0.0139069
677.410	0.0139005
677.488	0.0140072
677.567	0.0141360
677.645	0.0141096
677.723	0.0140962
677.801	0.0142479
677.879	0.0143278
677.957	0.0143991
678.035	0.0144373
678.113	0.0145107
678.192	0.0145551
678.270	0.0145296
678.348	0.0145328
678.426	0.0145643
678.504	0.0146333
678.582	0.0145739
678.660	0.0145502
678.738	0.0144505
678.817	0.0144751
678.895	0.0143596
678.973	0.0142455
679.051	0.0143287
679.129	0.0141605
679.207	0.0142795
679.285	0.0142701
679.363	0.0142879
679.442	0.0140372
679.520	0.0140768
679.598	0.0141441
679.676	0.0139941
679.754	0.0139754
679.832	0.0141388
679.910	0.0141212
679.988	0.0140662
680.067	0.0140371
680.145	0.0140839
680.223	0.0140512
680.301	0.0140878
680.379	0.0141988
680.457	0.0141904
680.535	0.0140786
680.613	0.0140550
680.692	0.0139858
680.770	0.0141296
680.848	0.0140635
680.926	0.0138871
681.004	0.0139185
681.082	0.0138808
681.160	0.0138778
681.238	0.0138811
681.317	0.0138963
681.395	0.0138538
681.473	0.0138735
681.551	0.0138084
681.629	0.0138837
681.707	0.0137730
681.785	0.0138753
681.863	0.0138689
681.942	0.0137862
682.020	0.0138577
682.098	0.0138767
682.176	0.0137244
682.254	0.0138808
682.332	0.0139803
682.410	0.0139546
682.488	0.0139732
682.567	0.0140493
682.645	0.0141147
682.723	0.0141926
682.801	0.0140816
682.879	0.0141653
682.957	0.0143182
683.035	0.0143118
683.113	0.0144337
683.192	0.0145016
683.270	0.0144000
683.348	0.0146867
683.426	0.0146626
683.504	0.0146941
683.582	0.0147479
683.660	0.0147475
683.738	0.0147166
683.817	0.0146593
683.895	0.0148003
683.973	0.0147397
684.051	0.0147477
684.129	0.0146889
684.207	0.0145979
684.285	0.0144791
684.363	0.0145857
684.442	0.0144460
684.520	0.0144597
684.598	0.0142666
684.676	0.0142591
684.754	0.0140540
684.832	0.0139998
684.910	0.0140877
684.988	0.0139394
685.067	0.0138197
685.145	0.0138028
685.223	0.0137254
685.301	0.0136279
685.379	0.0137027
685.457	0.0135147
685.535	0.0136066
685.613	0.0137207
685.692	0.0136308
685.770	0.0138468
685.848	0.0138860
685.926	0.0137864
686.004	0.0137973
686.082	0.0139491
686.160	0.0139429
686.238	0.0139524
686.317	0.0139764
686.395	0.0138705
686.473	0.0140741
686.551	0.0139787
686.629	0.0140192
686.707	0.0141081
686.785	0.0139635
686.863	0.0138866
686.942	0.0141353
687.020	0.0141325
687.098	0.0142198
687.176	0.0142881
687.254	0.0142228
687.332	0.0142494
687.410	0.0142960
687.488	0.0144156
687.567	0.0144147
687.645	0.0144946
687.723	0.0144229
687.801	0.0145126
687.879	0.0144738
687.957	0.0146095
688.035	0.0146783
688.113	0.0144198
688.192	0.0145639
688.270	0.0145090
688.348	0.0146351
688.426	0.0145805
688.504	0.0144830
688.582	0.0144105
688.660	0.0144482
688.738	0.0145496
688.817	0.0143887
688.895	0.0142778
688.973	0.0142294
689.051	0.0143347
689.129	0.0142642
689.207	0.0144135
689.285	0.0142428
689.363	0.0141850
689.442	0.0142375
689.520	0.0140550
689.598	0.0141795
689.676	0.0139978
689.754	0.0137994
689.832	0.0140810
689.910	0.0139986
689.988	0.0139961
690.067	0.0137841
690.145	0.0137215
690.223	0.0137923
690.301	0.0136569
690.379	0.0137149
690.457	0.0135977
690.535	0.0136338
690.613	0.0135130
690.692	0.0135088
690.770	0.0135577
690.848	0.0137029
690.926	0.0136324
691.004	0.0137225
691.082	0.0137256
691.160	0.0137194
691.238	0.0138609
691.317	0.0139754
691.395	0.0138763
691.473	0.0139130
691.551	0.0139806
691.629	0.0140973
691.707	0.0140382
691.785	0.0140488
691.863	0.0139955
691.942	0.0141089
692.020	0.0140894
692.098	0.0141906
692.176	0.0141645
692.254	0.0141953
692.332	0.0141404
692.410	0.0142220
692.488	0.0142477
692.567	0.0143281
692.645	0.0144804
692.723	0.0144067
692.801	0.0144118
692.879	0.0145093
692.957	0.0146195
693.035	0.0145500
693.113	0.0146645
693.192	0.0146004
693.270	0.0145962
693.348	0.0146033
693.426	0.0147043
693.504	0.0147662
693.582	0.0147245
693.660	0.0146066
693.738	0.0146374
693.817	0.0147493
693.895	0.0144736
693.973	0.0145764
694.051	0.0146013
694.129	0.0143796
694.207	0.0144728
694.285	0.0144176
694.363	0.0143831
694.442	0.0142832
694.520	0.0140538
694.598	0.0138720
694.676	0.0138840
694.754	0.0137756
694.832	0.0138235
694.910	0.0135617
694.988	0.0136860
695.067	0.0133791
695.145	0.0133842
695.223	0.0136304
695.301	0.0133322
695.379	0.0133896
695.457	0.0134145
695.535	0.0133460
695.613	0.0133981
695.692	0.0134037
695.770	0.0134079
695.848	0.0134380
695.926	0.0135356
696.004	0.0136178
696.082	0.0138399
696.160	0.0138634
696.238	0.0139074
696.317	0.0140013
696.395	0.0140726
696.473	0.0142981
696.551	0.0143145
696.629	0.0144158
696.707	0.0142788
696.785	0.0145560
696.863	0.0145119
696.942	0.0146481
697.020	0.0147788
697.098	0.0147273
697.176	0.0148681
697.254	0.0148208
697.332	0.0148917
697.410	0.0150096
697.488	0.0148811
697.567	0.0148318
697.645	0.0149085
697.723	0.0149014
697.801	0.0148190
697.879	0.0147717
697.957	0.0147043
698.035	0.0146330
698.113	0.0146415
698.192	0.0145217
698.270	0.0144348
698.348	0.0144598
698.426	0.0143514
698.504	0.0144547
698.582	0.0143134
698.660	0.0142209
698.738	0.0142603
698.817	0.0141684
698.895	0.0140193
698.973	0.0141753
699.051	0.0141317
699.129	0.0139449
699.207	0.0138956
699.285	0.0140788
699.363	0.0139087
699.442	0.0138567
699.520	0.0140398
699.598	0.0138788
699.676	0.0136797
699.754	0.0137430
699.832	0.0137894
699.910	0.0135621
699.988	0.0136981
700.067	0.0137662
700.145	0.0136425
700.223	0.0136337
700.301	0.0137677
700.379	0.0135972
700.457	0.0137214
700.535	0.0138651
700.613	0.0139319
700.692	0.0138995
700.770	0.0136945
700.848	0.0139963
700.926	0.0140527
701.004	0.0140717
701.082	0.0141327
701.160	0.0141344
701.238	0.0143481
701.317	0.0142479
701.395	0.0142734
701.473	0.0142198
701.551	0.0143679
701.629	0.0145246
701.707	0.0143959
701.785	0.0144343
701.863	0.0144973
701.942	0.0145579
702.020	0.0143220
702.098	0.0143881
702.176	0.0144302
702.254	0.0144497
702.332	0.0144424
702.410	0.0143699
702.488	0.0142928
702.567	0.0144015
702.645	0.0141239
702.723	0.0140141
702.801	0.0141319
702.879	0.0141373
702.957	0.0140738
703.035	0.0140087
703.113	0.0140658
703.192	0.0140039
703.270	0.0142516
703.348	0.0140591
703.426	0.0140448
703.504	0.0141599
703.582	0.0141798
703.660	0.0141457
703.738	0.0140418
703.817	0.0141207
703.895	0.0141022
703.973	0.0141090
704.051	0.0141632
704.129	0.0141886
704.207	0.0141129
704.285	0.0140363
704.363	0.0140026
704.442	0.0139711
704.520	0.0139336
704.598	0.0141430
704.676	0.0141570
704.754	0.0139761
704.832	0.0139728
704.910	0.0138226
704.988	0.0139290
705.067	0.0139461
705.145	0.0140600
705.223	0.0140257
705.301	0.0140867
705.379	0.0141221
705.457	0.0141936
705.535	0.0140784
705.613	0.0140848
705.692	0.0139595
705.770	0.0140269
705.848	0.0140668
705.926	0.0140910
706.004	0.0140427
706.082	0.0140010
706.160	0.0140527
706.238	0.0142332
706.317	0.0140495
706.395	0.0141411
706.473	0.0140752
706.551	0.0142934
706.629	0.0141270
706.707	0.0142764
706.785	0.0143238
706.863	0.0143027
706.942	0.0142760
707.020	0.0142590
707.098	0.0141750
707.176	0.0142146
707.254	0.0140992
707.332	0.0141942
707.410	0.0142319
707.488	0.0142778
707.567	0.0140966
707.645	0.0140710
707.723	0.0141077
707.801	0.0141293
707.879	0.0141487
707.957	0.0140679
708.035	0.0140108
708.113	0.0139809
708.192	0.0140467
708.270	0.0141940
708.348	0.0142972
708.426	0.0141888
708.504	0.0141609
708.582	0.0142104
708.660	0.0142104
708.738	0.0140594
708.817	0.0141914
708.895	0.0143137
708.973	0.0142964
709.051	0.0143085
709.129	0.0143153
709.207	0.0141338
709.285	0.0143068
709.363	0.0143227
709.442	0.0143561
709.520	0.0143551
709.598	0.0141087
709.676	0.0141466
709.754	0.0142743
709.832	0.0142282
709.910	0.0142579
709.988	0.0142567
710.067	0.0143268
710.145	0.0142156
710.223	0.0142406
710.301	0.0142038
710.379	0.0142401
710.457	0.0140931
710.535	0.0143019
710.613	0.0141878
710.692	0.0140875
710.770	0.0139518
710.848	0.0139938
710.926	0.0141582
711.004	0.0139601
711.082	0.0140036
711.160	0.0138945
711.238	0.0139790
711.317	0.0139587
711.395	0.0139542
711.473	0.0139462
711.551	0.0138868
711.629	0.0139033
711.707	0.0139797
711.785	0.0138898
711.863	0.0138428
711.942	0.0139960
712.020	0.0138226
712.098	0.0137894
712.176	0.0139483
712.254	0.0140394
712.332	0.0139834
712.410	0.0139680
712.488	0.0139565
712.567	0.0140222
712.645	0.0140781
712.723	0.0140804
712.801	0.0142342
712.879	0.0141827
712.957	0.0142301
713.035	0.0142634
713.113	0.0142110
713.192	0.0140696
713.270	0.0141254
713.348	0.0143518
713.426	0.0141055
713.504	0.0141379
713.582	0.0140939
713.660	0.0142640
713.738	0.0141763
713.817	0.0141370
713.895	0.0143302
713.973	0.0142162
714.051	0.0142305
714.129	0.0142133
714.207	0.0142691
714.285	0.0142734
714.363	0.0142467
714.442	0.0143848
714.520	0.0142448
714.598	0.0141358
714.676	0.0143505
714.754	0.0141647
714.832	0.0142262
714.910	0.0143134
714.988	0.0142825
715.067	0.0141671
715.145	0.0142274
715.223	0.0141838
715.301	0.0142823
715.379	0.0141188
715.457	0.0139153
715.535	0.0141125
715.613	0.0140643
715.692	0.0140406
715.770	0.0139192
715.848	0.0139619
715.926	0.0139747
716.004	0.0140839
716.082	0.0141336
716.160	0.0140469
716.238	0.0140265
716.317	0.0139976
716.395	0.0139437
716.473	0.0141594
716.551	0.0141560
716.629	0.0141744
716.707	0.0141251
716.785	0.0140376
716.863	0.0141563
716.942	0.0141865
717.020	0.0140466
717.098	0.0141243
717.176	0.0143022
717.254	0.0142401
717.332	0.0140304
717.410	0.0142025
717.488	0.0142477
717.567	0.0141356
717.645	0.0143188
717.723	0.0143559
717.801	0.0142964
717.879	0.0142970
717.957	0.0143784
718.035	0.0142766
718.113	0.0143555
718.192	0.0144153
718.270	0.0144730
718.348	0.0145206
718.426	0.0144416
718.504	0.0144490
718.582	0.0143755
718.660	0.0143948
718.738	0.0144576
718.817	0.0143579
718.895	0.0143945
718.973	0.0143303
719.051	0.0142916
719.129	0.0143581
719.207	0.0143666
719.285	0.0143314
719.363	0.0141389
719.442	0.0141759
719.520	0.0142699
719.598	0.0142362
719.676	0.0141993
719.754	0.0142145
719.832	0.0142913
719.910	0.0140955
719.988	0.0142448
720.067	0.0142400
720.145	0.0141482
720.223	0.0142496
720.301	0.0143197
720.379	0.0142097
720.457	0.0142150
720.535	0.0143294
720.613	0.0143095
720.692	0.0143887
720.770	0.0143028
720.848	0.0142522
720.926	0.0143472
721.004	0.0143012
721.082	0.0143169
721.160	0.0143589
721.238	0.0142679
721.317	0.0142567
721.395	0.0142206
721.473	0.0142309
721.551	0.0143283
721.629	0.0142117
721.707	0.0140990
721.785	0.0140450
721.863	0.0141333
721.942	0.0141220
722.020	0.0140410
722.098	0.0140244
722.176	0.0139209
722.254	0.0139122
722.332	0.0139745
722.410	0.0141280
722.488	0.0139217
722.567	0.0139245
722.645	0.0140259
722.723	0.0140425
722.801	0.0140442
722.879	0.0140217
722.957	0.0141639
723.035	0.0141715
723.113	0.0142477
723.192	0.0141373
723.270	0.0141884
723.348	0.0141332
723.426	0.0141293
723.504	0.0143278
723.582	0.0141817
723.660	0.0141084
723.738	0.0142905
723.817	0.0142057
723.895	0.0142568
723.973	0.0141560
724.051	0.0142654
724.129	0.0142276
724.207	0.0142305
724.285	0.0142120
724.363	0.0141933
724.442	0.0142226
724.520	0.0142441
724.598	0.0142790
724.676	0.0142210
724.754	0.0142134
724.832	0.0141615
724.910	0.0142845
724.988	0.0142268
725.067	0.0143475
725.145	0.0141323
725.223	0.0142397
725.301	0.0142455
725.379	0.0142609
725.457	0.0141784
725.535	0.0142771
725.613	0.0143550
725.692	0.0142452
725.770	0.0142137
725.848	0.0142345
725.926	0.0142723
726.004	0.0142752
726.082	0.0141792
726.160	0.0143019
726.238	0.0142089
726.317	0.0142161
726.395	0.0142062
726.473	0.0142016
726.551	0.0141614
726.629	0.0141144
726.707	0.0141422
726.785	0.0139858
726.863	0.0141377
726.942	0.0141167
727.020	0.0140871
727.098	0.0140582
727.176	0.0141277
727.254	0.0141412
727.332	0.0141932
727.410	0.0140054
727.488	0.0140454
727.567	0.0140437
727.645	0.0140836
727.723	0.0142121
727.801	0.0141196
727.879	0.0141727
727.957	0.0142070
728.035	0.0143383
728.113	0.0142088
728.192	0.0142631
728.270	0.0141084
728.348	0.0142262
728.426	0.0142084
728.504	0.0142098
728.582	0.0141940
728.660	0.0141221
728.738	0.0141702
728.817	0.0141171
728.895	0.0140771
728.973	0.0140942
729.051	0.0141494
729.129	0.0141079
729.207	0.0140089
729.285	0.0139249
729.363	0.0139664
729.442	0.0140710
729.520	0.0141324
729.598	0.0140919
729.676	0.0140094
729.754	0.0140571
729.832	0.0140758
729.910	0.0141779
729.988	0.0141356
730.067	0.0140231
730.145	0.0142014
730.223	0.0140992
730.301	0.0140348
730.379	0.0141221
730.457	0.0141200
730.535	0.0142218
730.613	0.0141018
730.692	0.0141094
730.770	0.0141307
730.848	0.0140479
730.926	0.0142935
731.004	0.0141821
731.082	0.0141375
731.160	0.0143438
731.238	0.0142368
731.317	0.0141853
731.395	0.0142372
731.473	0.0142215
731.551	0.0142336
731.629	0.0143797
731.707	0.0142871
731.785	0.0141991
731.863	0.0142548
731.942	0.0143940
732.020	0.0142342
732.098	0.0141825
732.176	0.0142809
732.254	0.0142730
732.332	0.0141819
732.410	0.0141119
732.488	0.0142284
732.567	0.0140812
732.645	0.0141613
732.723	0.0142329
732.801	0.0141299
732.879	0.0142602
732.957	0.0141956
733.035	0.0141676
733.113	0.0141120
733.192	0.0142093
733.270	0.0143708
733.348	0.0143252
733.426	0.0141019
733.504	0.0141882
733.582	0.0142849
733.660	0.0143208
733.738	0.0142973
733.817	0.0142505
733.895	0.0143615
733.973	0.0143913
734.051	0.0142032
734.129	0.0142743
734.207	0.0143549
734.285	0.0143034
734.363	0.0142984
734.442	0.0144286
734.520	0.0142952
734.598	0.0142747
734.676	0.0141984
734.754	0.0142836
734.832	0.0141517
734.910	0.0142754
734.988	0.0142977
735.067	0.0142614
735.145	0.0142842
735.223	0.0141153
735.301	0.0142934
735.379	0.0142104
735.457	0.0142106
735.535	0.0143428
735.613	0.0142575
735.692	0.0142910
735.770	0.0143674
735.848	0.0143107
735.926	0.0142653
736.004	0.0144771
736.082	0.0143257
736.160	0.0143577
736.238	0.0142326
736.317	0.0142401
736.395	0.0141762
736.473	0.0142946
736.551	0.0142281
736.629	0.0141558
736.707	0.0141903
736.785	0.0141383
736.863	0.0142564
736.942	0.0141626
737.020	0.0140863
737.098	0.0141676
737.176	0.0140028
737.254	0.0140958
737.332	0.0139754
737.410	0.0140810
737.488	0.0140199
737.567	0.0140252
737.645	0.0139082
737.723	0.0140013
737.801	0.0141428
737.879	0.0140635
737.957	0.0140652
738.035	0.0140530
738.113	0.0141237
738.192	0.0140810
738.270	0.0141058
738.348	0.0141386
738.426	0.0141016
738.504	0.0141177
738.582	0.0142207
738.660	0.0140999
738.738	0.0141861
738.817	0.0141874
738.895	0.0140509
738.973	0.0141535
739.051	0.0140958
739.129	0.0143568
739.207	0.0140646
739.285	0.0141652
739.363	0.0140801
739.442	0.0141386
739.520	0.0141679
739.598	0.0142056
739.676	0.0142390
739.754	0.0139891
739.832	0.0141387
739.910	0.0141224
739.988	0.0141768
740.067	0.0142491
740.145	0.0140024
740.223	0.0142122
740.301	0.0142668
740.379	0.0140829
740.457	0.0142650
740.535	0.0141988
740.613	0.0142890
740.692	0.0142577
740.770	0.0143401
740.848	0.0144653
740.926	0.0143407
741.004	0.0144187
741.082	0.0143631
741.160	0.0143546
741.238	0.0142755
741.317	0.0144233
741.395	0.0142688
741.473	0.0144672
741.551	0.0145517
741.629	0.0145440
741.707	0.0144850
741.785	0.0144865
741.863	0.0144686
741.942	0.0144878
742.020	0.0144371
742.098	0.0144971
742.176	0.0144389
742.254	0.0143791
742.332	0.0144038
742.410	0.0143160
742.488	0.0142528
742.567	0.0143336
742.645	0.0143269
742.723	0.0142159
742.801	0.0142957
742.879	0.0141941
742.957	0.0142665
743.035	0.0142477
743.113	0.0143130
743.192	0.0141217
743.270	0.0141277
743.348	0.0141032
743.426	0.0142416
743.504	0.0142606
743.582	0.0141045
743.660	0.0142751
743.738	0.0142477
743.817	0.0141768
743.895	0.0142232
743.973	0.0142957
744.051	0.0141440
744.129	0.0142957
744.207	0.0143301
744.285	0.0143591
744.363	0.0143398
744.442	0.0142719
744.520	0.0142982
744.598	0.0142451
744.676	0.0142188
744.754	0.0142101
744.832	0.0141338
744.910	0.0142203
744.988	0.0140767
745.067	0.0140555
745.145	0.0142594
745.223	0.0141280
745.301	0.0141224
745.379	0.0141578
745.457	0.0140295
745.535	0.0141424
745.613	0.0140300
745.692	0.0140808
745.770	0.0141278
745.848	0.0141171
745.926	0.0141527
746.004	0.0142108
746.082	0.0141010
746.160	0.0140456
746.238	0.0140900
746.317	0.0141937
746.395	0.0141135
746.473	0.0141657
746.551	0.0140679
746.629	0.0141787
746.707	0.0143166
746.785	0.0141067
746.863	0.0140596
746.942	0.0140380
747.020	0.0138848
747.098	0.0140016
747.176	0.0140431
747.254	0.0140177
747.332	0.0141146
747.410	0.0140681
747.488	0.0140907
747.567	0.0140836
747.645	0.0140295
747.723	0.0140057
747.801	0.0140279
747.879	0.0140168
747.957	0.0141186
748.035	0.0139558
748.113	0.0141058
748.192	0.0140756
748.270	0.0141557
748.348	0.0142469
748.426	0.0140804
748.504	0.0142220
748.582	0.0141970
748.660	0.0143150
748.738	0.0142824
748.817	0.0142910
748.895	0.0142926
748.973	0.0141421
749.051	0.0143764
749.129	0.0142477
749.207	0.0141369
749.285	0.0144317
749.363	0.0144511
749.442	0.0142395
749.520	0.0142039
749.598	0.0142543
749.676	0.0141942
749.754	0.0143292
749.832	0.0143128
749.910	0.0140231
749.988	0.0141661
750.067	0.0142343
750.145	0.0142712
750.223	0.0140986
750.301	0.0139818
750.379	0.0141730
750.457	0.0141616
750.535	0.0140140
750.613	0.0141977
750.692	0.0141634
750.770	0.0141609
750.848	0.0141963
750.926	0.0140401
751.004	0.0139530
751.082	0.0140861
751.160	0.0141435
751.238	0.0142100
751.317	0.0141084
751.395	0.0141602
751.473	0.0142641
751.551	0.0143053
751.629	0.0144038
751.707	0.0142888
751.785	0.0143729
751.863	0.0143087
751.942	0.0142812
752.020	0.0143427
752.098	0.0143842
752.176	0.0144107
752.254	0.0144237
752.332	0.0144899
752.410	0.0143015
752.488	0.0145140
752.567	0.0144018
752.645	0.0142979
752.723	0.0143954
752.801	0.0142692
752.879	0.0143160
752.957	0.0144493
753.035	0.0143831
753.113	0.0142799
753.192	0.0142654
753.270	0.0141958
753.348	0.0143689
753.426	0.0143288
753.504	0.0142332
753.582	0.0143108
753.660	0.0143507
753.738	0.0142728
753.817	0.0143079
753.895	0.0143310
753.973	0.0143206
754.051	0.0142295
754.129	0.0144690
754.207	0.0143989
754.285	0.0143023
754.363	0.0142278
754.442	0.0143673
754.520	0.0143489
754.598	0.0143659
754.676	0.0144669
754.754	0.0143974
754.832	0.0144464
754.910	0.0143701
754.988	0.0142411
755.067	0.0143825
755.145	0.0143018
755.223	0.0144180
755.301	0.0142645
755.379	0.0142902
755.457	0.0143543
755.535	0.0142806
755.613	0.0141528
755.692	0.0143077
755.770	0.0143785
755.848	0.0143608
755.926	0.0142826
756.004	0.0141854
756.082	0.0143894
756.160	0.0141444
756.238	0.0141706
756.317	0.0142441
756.395	0.0142284
756.473	0.0143864
756.551	0.0143165
756.629	0.0143611
756.707	0.0142893
756.785	0.0143390
756.863	0.0142682
756.942	0.0144771
757.020	0.0143237
757.098	0.0143161
757.176	0.0143350
757.254	0.0144387
757.332	0.0144340
757.410	0.0143255
757.488	0.0142798
757.567	0.0143492
757.645	0.0143462
757.723	0.0142325
757.801	0.0142078
757.879	0.0142270
757.957	0.0142349
758.035	0.0141830
758.113	0.0141630
758.192	0.0141464
758.270	0.0142506
758.348	0.0142107
758.426	0.0141803
758.504	0.0141442
758.582	0.0141075
758.660	0.0141834
758.738	0.0140295
758.817	0.0140987
758.895	0.0141219
758.973	0.0140648
759.051	0.0141627
759.129	0.0141283
759.207	0.0140338
759.285	0.0141178
759.363	0.0140530
759.442	0.0141083
759.520	0.0141024
759.598	0.0141143
759.676	0.0140117
759.754	0.0141474
759.832	0.0140979
759.910	0.0142016
759.988	0.0141344
760.067	0.0142072
760.145	0.0141028
760.223	0.0140991
760.301	0.0141821
760.379	0.0143112
760.457	0.0141898
760.535	0.0141426
760.613	0.0143241
760.692	0.0142046
760.770	0.0143686
760.848	0.0142096
760.926	0.0141424
761.004	0.0143017
761.082	0.0142892
761.160	0.0142231
761.238	0.0142179
761.317	0.0142398
761.395	0.0141888
761.473	0.0141985
761.551	0.0143197
761.629	0.0143122
761.707	0.0141497
761.785	0.0141882
761.863	0.0143922
761.942	0.0142448
762.020	0.0142130
762.098	0.0144276
762.176	0.0144984
762.254	0.0142529
762.332	0.0143683
762.410	0.0143501
762.488	0.0142857
762.567	0.0145261
762.645	0.0143161
762.723	0.0143307
762.801	0.0143485
762.879	0.0144140
762.957	0.0143942
763.035	0.0143085
763.113	0.0143484
763.192	0.0142293
763.270	0.0144325
763.348	0.0144180
763.426	0.0143116
763.504	0.0142509
763.582	0.0141502
763.660	0.0143158
763.738	0.0143398
763.817	0.0143322
763.895	0.0142757
763.973	0.0141196
764.051	0.0142320
764.129	0.0141974
764.207	0.0143246
764.285	0.0142168
764.363	0.0142249
764.442	0.0140970
764.520	0.0140581
764.598	0.0141822
764.676	0.0142229
764.754	0.0142745
764.832	0.0142715
764.910	0.0142822
764.988	0.0141804
765.067	0.0142656
765.145	0.0142976
765.223	0.0141750
765.301	0.0143213
765.379	0.0142545
765.457	0.0143165
765.535	0.0142803
765.613	0.0141869
765.692	0.0143573
765.770	0.0143462
765.848	0.0141711
765.926	0.0143385
766.004	0.0141001
766.082	0.0141734
766.160	0.0143510
766.238	0.0141146
766.317	0.0141861
766.395	0.0141724
766.473	0.0143365
766.551	0.0141481
766.629	0.0141919
766.707	0.0140073
766.785	0.0140444
766.863	0.0140966
766.942	0.0140340
767.020	0.0140178
767.098	0.0140260
767.176	0.0140794
767.254	0.0139712
767.332	0.0140532
767.410	0.0140849
767.488	0.0139228
767.567	0.0139412
767.645	0.0138344
767.723	0.0139377
767.801	0.0138792
767.879	0.0140919
767.957	0.0138654
768.035	0.0139909
768.113	0.0140898
768.192	0.0141422
768.270	0.0140418
768.348	0.0141851
768.426	0.0139748
768.504	0.0140237
768.582	0.0140191
768.660	0.0140524
768.738	0.0141076
768.817	0.0139828
768.895	0.0141247
768.973	0.0141177
769.051	0.0141505
769.129	0.0139885
769.207	0.0139874
769.285	0.0142011
769.363	0.0141895
769.442	0.0141240
769.520	0.0139767
769.598	0.0141245
769.676	0.0141829
769.754	0.0139542
769.832	0.0139870
769.910	0.0140007
769.988	0.0139364
770.067	0.0140478
770.145	0.0139711
770.223	0.0140166
770.301	0.0141123
770.379	0.0140587
770.457	0.0140070
770.535	0.0139766
770.613	0.0140015
770.692	0.0142043
770.770	0.0140540
770.848	0.0140739
770.926	0.0141573
771.004	0.0139129
771.082	0.0140746
771.160	0.0141966
771.238	0.0142850
771.317	0.0141974
771.395	0.0142467
771.473	0.0140501
771.551	0.0141070
771.629	0.0141801
771.707	0.0141076
771.785	0.0140984
771.863	0.0140624
771.942	0.0141939
772.020	0.0142773
772.098	0.0142091
772.176	0.0140197
772.254	0.0141489
772.332	0.0141402
772.410	0.0142327
772.488	0.0142076
772.567	0.0141515
772.645	0.0141418
772.723	0.0141325
772.801	0.0141984
772.879	0.0141985
772.957	0.0141913
773.035	0.0142423
773.113	0.0141016
773.192	0.0141866
773.270	0.0140945
773.348	0.0141452
773.426	0.0142229
773.504	0.0142579
773.582	0.0142709
773.660	0.0140548
773.738	0.0141914
773.817	0.0142387
773.895	0.0141869
773.973	0.0142087
774.051	0.0141814
774.129	0.0143655
774.207	0.0142747
774.285	0.0141961
774.363	0.0141914
774.442	0.0142657
774.520	0.0142416
774.598	0.0141536
774.676	0.0142107
774.754	0.0141909
774.832	0.0142321
774.910	0.0141881
774.988	0.0143201
775.067	0.0141036
775.145	0.0142631
775.223	0.0142995
775.301	0.0141936
775.379	0.0141290
775.457	0.0142155
775.535	0.0142330
775.613	0.0142273
775.692	0.0141710
775.770	0.0141298
775.848	0.0141929
775.926	0.0141160
776.004	0.0139900
776.082	0.0141558
776.160	0.0140897
776.238	0.0140829
776.317	0.0141599
776.395	0.0141653
776.473	0.0142281
776.551	0.0140527
776.629	0.0140222
776.707	0.0141565
776.785	0.0141470
776.863	0.0140582
776.942	0.0140967
777.020	0.0142281
777.098	0.0140286
777.176	0.0140899
777.254	0.0141018
777.332	0.0140931
777.410	0.0141834
777.488	0.0141212
777.567	0.0140701
777.645	0.0141927
777.723	0.0141194
777.801	0.0140785
777.879	0.0139282
777.957	0.0140943
778.035	0.0139207
778.113	0.0140609
778.192	0.0140191
778.270	0.0139686
778.348	0.0140887
778.426	0.0139751
778.504	0.0140800
778.582	0.0139960
778.660	0.0140458
778.738	0.0140923
778.817	0.0140810
778.895	0.0140855
778.973	0.0140998
779.051	0.0141303
779.129	0.0141706
779.207	0.0141158
779.285	0.0139688
779.363	0.0141383
779.442	0.0141117
779.520	0.0142105
779.598	0.0141556
779.676	0.0140819
779.754	0.0140467
779.832	0.0141118
779.910	0.0142015
779.988	0.0141369
780.067	0.0141368
780.145	0.0142361
780.223	0.0142868
780.301	0.0142360
780.379	0.0141970
780.457	0.0142243
780.535	0.0142752
780.613	0.0141010
780.692	0.0141340
780.770	0.0141746
780.848	0.0140900
780.926	0.0141172
781.004	0.0141718
781.082	0.0143181
781.160	0.0142763
781.238	0.0140980
781.317	0.0140540
781.395	0.0140559
781.473	0.0142852
781.551	0.0142445
781.629	0.0141931
781.707	0.0141997
781.785	0.0142878
781.863	0.0143197
781.942	0.0142392
782.020	0.0142201
782.098	0.0142318
782.176	0.0143010
782.254	0.0142200
782.332	0.0143473
782.410	0.0140791
782.488	0.0143594
782.567	0.0143759
782.645	0.0142330
782.723	0.0142899
782.801	0.0142361
782.879	0.0142632
782.957	0.0143110
783.035	0.0143291
783.113	0.0141914
783.192	0.0142229
783.270	0.0142882
783.348	0.0142603
783.426	0.0142310
783.504	0.0142016
783.582	0.0141492
783.660	0.0141592
783.738	0.0140172
783.817	0.0141455
783.895	0.0141452
783.973	0.0142676
784.051	0.0141622
784.129	0.0141180
784.207	0.0140234
784.285	0.0141486
784.363	0.0142702
784.442	0.0142527
784.520	0.0140231
784.598	0.0140315
784.676	0.0142030
784.754	0.0141420
784.832	0.0140260
784.910	0.0141951
784.988	0.0140102
785.067	0.0138714
785.145	0.0141072
785.223	0.0142235
785.301	0.0141598
785.379	0.0140852
785.457	0.0141481
785.535	0.0139816
785.613	0.0139639
785.692	0.0140028
785.770	0.0140372
785.848	0.0140173
785.926	0.0140221
786.004	0.0138932
786.082	0.0140414
786.160	0.0139516
786.238	0.0139607
786.317	0.0140948
786.395	0.0138628
786.473	0.0138764
786.551	0.0140195
786.629	0.0139450
786.707	0.0138724
786.785	0.0139128
786.863	0.0138710
786.942	0.0139756
787.020	0.0139318
787.098	0.0138985
787.176	0.0138543
787.254	0.0138359
787.332	0.0138017
787.410	0.0139156
787.488	0.0138849
787.567	0.0138890
787.645	0.0138561
787.723	0.0138788
787.801	0.0139367
787.879	0.0139036
787.957	0.0139452
788.035	0.0140611
788.113	0.0140981
788.192	0.0139024
788.270	0.0140504
788.348	0.0139712
788.426	0.0140079
788.504	0.0141516
788.582	0.0142904
788.660	0.0141600
788.738	0.0142293
788.817	0.0141389
788.895	0.0140169
788.973	0.0142126
789.051	0.0144103
789.129	0.0142984
789.207	0.0142212
789.285	0.0142281
789.363	0.0143140
789.442	0.0144347
789.520	0.0142289
789.598	0.0143898
789.676	0.0142118
789.754	0.0143610
789.832	0.0143387
789.910	0.0142732
789.988	0.0142358
790.067	0.0141493
790.145	0.0141698
790.223	0.0143288
790.301	0.0143053
790.379	0.0143085
790.457	0.0142478
790.535	0.0141537
790.613	0.0143366
790.692	0.0143443
790.770	0.0141473
790.848	0.0141911
790.926	0.0142646
791.004	0.0142239
791.082	0.0143065
791.160	0.0142171
791.238	0.0142046
791.317	0.0143230
791.395	0.0142481
791.473	0.0142097
791.551	0.0142299
791.629	0.0141717
791.707	0.0142198
791.785	0.0142578
791.863	0.0143310
791.942	0.0142110
792.020	0.0141170
792.098	0.0141218
792.176	0.0142094
792.254	0.0140177
792.332	0.0141827
792.410	0.0140498
792.488	0.0141576
792.567	0.0140464
792.645	0.0138864
792.723	0.0140775
792.801	0.0140431
792.879	0.0140646
792.957	0.0139131
793.035	0.0140517
793.113	0.0139905
793.192	0.0138605
793.270	0.0138664
793.348	0.0141550
793.426	0.0138576
793.504	0.0139845
793.582	0.0139332
793.660	0.0138428
793.738	0.0139872
793.817	0.0140499
793.895	0.0139867
793.973	0.0138024
794.051	0.0139863
794.129	0.0139616
794.207	0.0140916
794.285	0.0140683
794.363	0.0139856
794.442	0.0139212
794.520	0.0140417
794.598	0.0139681
794.676	0.0140829
794.754	0.0139657
794.832	0.0140695
794.910	0.0141431
794.988	0.0141624
795.067	0.0139756
795.145	0.0140081
795.223	0.0139957
795.301	0.0140063
795.379	0.0140258
795.457	0.0140304
795.535	0.0140018
795.613	0.0141712
795.692	0.0139593
795.770	0.0140069
795.848	0.0140941
795.926	0.0142371
796.004	0.0139790
796.082	0.0139655
796.160	0.0140364
796.238	0.0142038
796.317	0.0140917
796.395	0.0142204
796.473	0.0140842
796.551	0.0141644
796.629	0.0142091
796.707	0.0142377
796.785	0.0141984
796.863	0.0141047
796.942	0.0141098
797.020	0.0141899
797.098	0.0143002
797.176	0.0141344
797.254	0.0141663
797.332	0.0141746
797.410	0.0141911
797.488	0.0141862
797.567	0.0142152
797.645	0.0141740
797.723	0.0140187
797.801	0.0140021
797.879	0.0141988
797.957	0.0142132
798.035	0.0141592
798.113	0.0139822
798.192	0.0141096
798.270	0.0141298
798.348	0.0142130
798.426	0.0141004
798.504	0.0140747
798.582	0.0141645
798.660	0.0141675
798.738	0.0142398
798.817	0.0141785
798.895	0.0141897
798.973	0.0140393
799.051	0.0141827
799.129	0.0141883
799.207	0.0141962
799.285	0.0143230
799.363	0.0142170
799.442	0.0142285
799.520	0.0143058
799.598	0.0143233
799.676	0.0141915
799.754	0.0142287
799.832	0.0142144
799.910	0.0142493
799.988	0.0142381
800.067	0.0141579
800.145	0.0143887
800.223	0.0143103
800.301	0.0142138
800.379	0.0141568
800.457	0.0142033
800.535	0.0142619
800.613	0.0142851
800.692	0.0142014
800.770	0.0141142
800.848	0.0141345
800.926	0.0141312
801.004	0.0141174
801.082	0.0141749
801.160	0.0140799
801.238	0.0141584
801.317	0.0142731
801.395	0.0140549
801.473	0.0141769
801.551	0.0141843
801.629	0.0142450
801.707	0.0141568
801.785	0.0142400
801.863	0.0142231
801.942	0.0143085
802.020	0.0142253
802.098	0.0143207
802.176	0.0142812
802.254	0.0141869
802.332	0.0142371
802.410	0.0140106
802.488	0.0143007
802.567	0.0141911
802.645	0.0141248
802.723	0.0143534
802.801	0.0142411
802.879	0.0141522
802.957	0.0140512
803.035	0.0141012
803.113	0.0142312
803.192	0.0141563
803.270	0.0140339
803.348	0.0141035
803.426	0.0142053
803.504	0.0141504
803.582	0.0139396
803.660	0.0140054
803.738	0.0139741
803.817	0.0140247
803.895	0.0139127
803.973	0.0138871
804.051	0.0139030
804.129	0.0138445
804.207	0.0139695
804.285	0.0139273
804.363	0.0139842
804.442	0.0140594
804.520	0.0140282
804.598	0.0140518
804.676	0.0139905
804.754	0.0140019
804.832	0.0140004
804.910	0.0139346
804.988	0.0142198
805.067	0.0140981
805.145	0.0139577
805.223	0.0140879
805.301	0.0142068
805.379	0.0141429
805.457	0.0140935
805.535	0.0140559
805.613	0.0141915
805.692	0.0141553
805.770	0.0142346
805.848	0.0140387
805.926	0.0141145
806.004	0.0141995
806.082	0.0140900
806.160	0.0140630
806.238	0.0140512
806.317	0.0142626
806.395	0.0139986
806.473	0.0139543
806.551	0.0142468
806.629	0.0139800
806.707	0.0140656
806.785	0.0140798
806.863	0.0140905
806.942	0.0140697
807.020	0.0139937
807.098	0.0140397
807.176	0.0141075
807.254	0.0141383
807.332	0.0141359
807.410	0.0141434
807.488	0.0139407
807.567	0.0140327
807.645	0.0141132
807.723	0.0140771
807.801	0.0140479
807.879	0.0141080
807.957	0.0141627
808.035	0.0140479
808.113	0.0142371
808.192	0.0142039
808.270	0.0141779
808.348	0.0140804
808.426	0.0140892
808.504	0.0142135
808.582	0.0141548
808.660	0.0140413
808.738	0.0142120
808.817	0.0140933
808.895	0.0140734
808.973	0.0141257
809.051	0.0140403
809.129	0.0142194
809.207	0.0141193
809.285	0.0139735
809.363	0.0139994
809.442	0.0141203
809.520	0.0138693
809.598	0.0139849
809.676	0.0139052
809.754	0.0141210
809.832	0.0139674
809.910	0.0139954
809.988	0.0139188
810.067	0.0139639
810.145	0.0140354
810.223	0.0139838
810.301	0.0140253
810.379	0.0140659
810.457	0.0139310
810.535	0.0139814
810.613	0.0140873
810.692	0.0142788
810.770	0.0139806
810.848	0.0140540
810.926	0.0140882
811.004	0.0140548
811.082	0.0140865
811.160	0.0141070
811.238	0.0141581
811.317	0.0141946
811.395	0.0142605
811.473	0.0141497
811.551	0.0139975
811.629	0.0141215
811.707	0.0141986
811.785	0.0141761
811.863	0.0142029
811.942	0.0140319
812.020	0.0141067
812.098	0.0142054
812.176	0.0140629
812.254	0.0142766
812.332	0.0141989
812.410	0.0140583
812.488	0.0141286
812.567	0.0141106
812.645	0.0142905
812.723	0.0141702
812.801	0.0142191
812.879	0.0142610
812.957	0.0140925
813.035	0.0142245
813.113	0.0141682
813.192	0.0143113
813.270	0.0141022
813.348	0.0140886
813.426	0.0140881
813.504	0.0142352
813.582	0.0141409
813.660	0.0142873
813.738	0.0142917
813.817	0.0142164
813.895	0.0142233
813.973	0.0140759
814.051	0.0141684
814.129	0.0142038
814.207	0.0142061
814.285	0.0142609
814.363	0.0142317
814.442	0.0140938
814.520	0.0140653
814.598	0.0141353
814.676	0.0141149
814.754	0.0141402
814.832	0.0141691
814.910	0.0141028
814.988	0.0141637
815.067	0.0140993
815.145	0.0142238
815.223	0.0141623
815.301	0.0141777
815.379	0.0141801
815.457	0.0143539
815.535	0.0143137
815.613	0.0142191
815.692	0.0142889
815.770	0.0142204
815.848	0.0142509
815.926	0.0143715
816.004	0.0141720
816.082	0.0143171
816.160	0.0143762
816.238	0.0143710
816.317	0.0143074
816.395	0.0142580
816.473	0.0142704
816.551	0.0142455
816.629	0.0143134
816.707	0.0143672
816.785	0.0141481
816.863	0.0141843
816.942	0.0142745
817.020	0.0141262
817.098	0.0141821
817.176	0.0143024
817.254	0.0142625
817.332	0.0143514
817.410	0.0142958
817.488	0.0144105
817.567	0.0143646
817.645	0.0143066
817.723	0.0142897
817.801	0.0143526
817.879	0.0144353
817.957	0.0142970
818.035	0.0141547
818.113	0.0142068
818.192	0.0143595
818.270	0.0141645
818.348	0.0143707
818.426	0.0140802
818.504	0.0143237
818.582	0.0142159
818.660	0.0142416
818.738	0.0142390
818.817	0.0143335
818.895	0.0142722
818.973	0.0142366
819.051	0.0143481
819.129	0.0143734
819.207	0.0143112
819.285	0.0142200
819.363	0.0142464
819.442	0.0143250
819.520	0.0142697
819.598	0.0141994
819.676	0.0142619
819.754	0.0143878
819.832	0.0142777
819.910	0.0141934
819.988	0.0142301
820.067	0.0143131
820.145	0.0143066
820.223	0.0142196
820.301	0.0142964
820.379	0.0142719
820.457	0.0142550
820.535	0.0141650
820.613	0.0141831
820.692	0.0143139
820.770	0.0142696
820.848	0.0142619
820.926	0.0143848
821.004	0.0144276
821.082	0.0142519
821.160	0.0142489
821.238	0.0142165
821.317	0.0144040
821.395	0.0144215
821.473	0.0143807
821.551	0.0142016
821.629	0.0143505
821.707	0.0142533
821.785	0.0142812
821.863	0.0142226
821.942	0.0142484
822.020	0.0142445
822.098	0.0143150
822.176	0.0143961
822.254	0.0143062
822.332	0.0141980
822.410	0.0143635
822.488	0.0143465
822.567	0.0143356
822.645	0.0143680
822.723	0.0143916
822.801	0.0142811
822.879	0.0143738
822.957	0.0145564
823.035	0.0142689
823.113	0.0142591
823.192	0.0144007
823.270	0.0143342
823.348	0.0143559
823.426	0.0142525
823.504	0.0143468
823.582	0.0143391
823.660	0.0143079
823.738	0.0142702
823.817	0.0142636
823.895	0.0142373
823.973	0.0143536
824.051	0.0141655
824.129	0.0141045
824.207	0.0141210
824.285	0.0142274
824.363	0.0141209
824.442	0.0142113
824.520	0.0141214
824.598	0.0140944
824.676	0.0141207
824.754	0.0141297
824.832	0.0141219
824.910	0.0141711
824.988	0.0142040
825.067	0.0141102
825.145	0.0140777
825.223	0.0140392
825.301	0.0141235
825.379	0.0140127
825.457	0.0141325
825.535	0.0141861
825.613	0.0142008
825.692	0.0141730
825.770	0.0140195
825.848	0.0141996
825.926	0.0140500
826.004	0.0141605
826.082	0.0142275
826.160	0.0141438
826.238	0.0140907
826.317	0.0142014
826.395	0.0141467
826.473	0.0141096
826.551	0.0142311
826.629	0.0141684
826.707	0.0140851
826.785	0.0141331
826.863	0.0141515
826.942	0.0140542
827.020	0.0139616
827.098	0.0142349
827.176	0.0141556
827.254	0.0140060
827.332	0.0141124
827.410	0.0139720
827.488	0.0140587
827.567	0.0140928
827.645	0.0140829
827.723	0.0141798
827.801	0.0142091
827.879	0.0141868
827.957	0.0141396
828.035	0.0140458
828.113	0.0141178
828.192	0.0142378
828.270	0.0141470
828.348	0.0140830
828.426	0.0142057
828.504	0.0142339
828.582	0.0143000
828.660	0.0141959
828.738	0.0141885
828.817	0.0141179
828.895	0.0141716
828.973	0.0142400
829.051	0.0142272
829.129	0.0141933
829.207	0.0141857
829.285	0.0142064
829.363	0.0144198
829.442	0.0142395
829.520	0.0142107
829.598	0.0142831
829.676	0.0142074
829.754	0.0141586
829.832	0.0141344
829.910	0.0141627
829.988	0.0142448
830.067	0.0142342
830.145	0.0142342
830.223	0.0143070
830.301	0.0142594
830.379	0.0141150
830.457	0.0142470
830.535	0.0142905
830.613	0.0144508
830.692	0.0144004
830.770	0.0144939
830.848	0.0144857
830.926	0.0144068
831.004	0.0143077
831.082	0.0143664
831.160	0.0144138
831.238	0.0144208
831.317	0.0143077
831.395	0.0144431
831.473	0.0142902
831.551	0.0142826
831.629	0.0143569
831.707	0.0143230
831.785	0.0143662
831.863	0.0143121
831.942	0.0142450
832.020	0.0143027
832.098	0.0143256
832.176	0.0142235
832.254	0.0142608
832.332	0.0141795
832.410	0.0141335
832.488	0.0140745
832.567	0.0142519
832.645	0.0142134
832.723	0.0141691
832.801	0.0142100
832.879	0.0140587
832.957	0.0142239
833.035	0.0142205
833.113	0.0141557
833.192	0.0140245
833.270	0.0140828
833.348	0.0142017
833.426	0.0141029
833.504	0.0142223
833.582	0.0142640
833.660	0.0143243
833.738	0.0142025
833.817	0.0141982
833.895	0.0142211
833.973	0.0141994
834.051	0.0142217
834.129	0.0142462
834.207	0.0142319
834.285	0.0141211
834.363	0.0141113
834.442	0.0141499
834.520	0.0140150
834.598	0.0140981
834.676	0.0142442
834.754	0.0142300
834.832	0.0140934
834.910	0.0140551
834.988	0.0140826
835.067	0.0141421
835.145	0.0140571
835.223	0.0140229
835.301	0.0142601
835.379	0.0140742
835.457	0.0141785
835.535	0.0141318
835.613	0.0139907
835.692	0.0140681
835.770	0.0139920
835.848	0.0140905
835.926	0.0141492
836.004	0.0142089
836.082	0.0142491
836.160	0.0141862
836.238	0.0141819
836.317	0.0141307
836.395	0.0141918
836.473	0.0142216
836.551	0.0141459
836.629	0.0143066
836.707	0.0142303
836.785	0.0141694
836.863	0.0142602
836.942	0.0141188
837.020	0.0141297
837.098	0.0142313
837.176	0.0142540
837.254	0.0142509
837.332	0.0142760
837.410	0.0141276
837.488	0.0141985
837.567	0.0141298
837.645	0.0142575
837.723	0.0142672
837.801	0.0142662
837.879	0.0142197
837.957	0.0141827
838.035	0.0142551
838.113	0.0142213
838.192	0.0143894
838.270	0.0143188
838.348	0.0141460
838.426	0.0141294
838.504	0.0142636
838.582	0.0142225
838.660	0.0143021
838.738	0.0142603
838.817	0.0142961
838.895	0.0142955
838.973	0.0143874
839.051	0.0141228
839.129	0.0142472
839.207	0.0143001
839.285	0.0143559
839.363	0.0143204
839.442	0.0143762
839.520	0.0142551
839.598	0.0143098
839.676	0.0142026
839.754	0.0142208
839.832	0.0144054
839.910	0.0143075
839.988	0.0142248
840.067	0.0142207
840.145	0.0143085
840.223	0.0143121
840.301	0.0142786
840.379	0.0142512
840.457	0.0142593
840.535	0.0142932
840.613	0.0142036
840.692	0.0142442
840.770	0.0142505
840.848	0.0142241
840.926	0.0142953
841.004	0.0143514
841.082	0.0143507
841.160	0.0143559
841.238	0.0142728
841.317	0.0143036
841.395	0.0142560
841.473	0.0142000
841.551	0.0143895
841.629	0.0143506
841.707	0.0142678
841.785	0.0142638
841.863	0.0142951
841.942	0.0144245
842.020	0.0144196
842.098	0.0142110
842.176	0.0145144
842.254	0.0143044
842.332	0.0141728
842.410	0.0143091
842.488	0.0142782
842.567	0.0142992
842.645	0.0142109
842.723	0.0142592
842.801	0.0141980
842.879	0.0142674
842.957	0.0141268
843.035	0.0140577
843.113	0.0141185
843.192	0.0139853
843.270	0.0141341
843.348	0.0141059
843.426	0.0141406
843.504	0.0141240
843.582	0.0141436
843.660	0.0141586
843.738	0.0141393
843.817	0.0142359
843.895	0.0140252
843.973	0.0141044
844.051	0.0142269
844.129	0.0142223
844.207	0.0142193
844.285	0.0141475
844.363	0.0142599
844.442	0.0141914
844.520	0.0141997
844.598	0.0141371
844.676	0.0142233
844.754	0.0142176
844.832	0.0142366
844.910	0.0141242
844.988	0.0142773
845.067	0.0140074
845.145	0.0141423
845.223	0.0141425
845.301	0.0141071
845.379	0.0142049
845.457	0.0142307
845.535	0.0142187
845.613	0.0141943
845.692	0.0140959
845.770	0.0141068
845.848	0.0142358
845.926	0.0142595
846.004	0.0142772
846.082	0.0142789
846.160	0.0140377
846.238	0.0143648
846.317	0.0143538
846.395	0.0142498
846.473	0.0142555
846.551	0.0142314
846.629	0.0141314
846.707	0.0142989
846.785	0.0142859
846.863	0.0143310
846.942	0.0142490
847.020	0.0143327
847.098	0.0142176
847.176	0.0143371
847.254	0.0142255
847.332	0.0142313
847.410	0.0143398
847.488	0.0141846
847.567	0.0140179
847.645	0.0141951
847.723	0.0141933
847.801	0.0142160
847.879	0.0142603
847.957	0.0141770
848.035	0.0141631
848.113	0.0141261
848.192	0.0140742
848.270	0.0141493
848.348	0.0142696
848.426	0.0141765
848.504	0.0140443
848.582	0.0140685
848.660	0.0141306
848.738	0.0140986
848.817	0.0141367
848.895	0.0141594
848.973	0.0142239
849.051	0.0140950
849.129	0.0140681
849.207	0.0141998
849.285	0.0143081
849.363	0.0141680
849.442	0.0142002
849.520	0.0142951
849.598	0.0141253
849.676	0.0140638
849.754	0.0141153
849.832	0.0140406
849.910	0.0140542
849.988	0.0141021
850.067	0.0141354
850.145	0.0141933
850.223	0.0141915
850.301	0.0140518
850.379	0.0141872
850.457	0.0141745
850.535	0.0141525
850.613	0.0139952
850.692	0.0140314
850.770	0.0142420
850.848	0.0140396
850.926	0.0140949
851.004	0.0141385
851.082	0.0140092
851.160	0.0141287
851.238	0.0140720
851.317	0.0140167
851.395	0.0142679
851.473	0.0142184
851.551	0.0140688
851.629	0.0141886
851.707	0.0140903
851.785	0.0141080
851.863	0.0140886
851.942	0.0141868
852.020	0.0141457
852.098	0.0141682
852.176	0.0141949
852.254	0.0142012
852.332	0.0141425
852.410	0.0141137
852.488	0.0141635
852.567	0.0140778
852.645	0.0140067
852.723	0.0142281
852.801	0.0139895
852.879	0.0140334
852.957	0.0142380
853.035	0.0140318
853.113	0.0140436
853.192	0.0141152
853.270	0.0140998
853.348	0.0141506
853.426	0.0142030
853.504	0.0141069
853.582	0.0141950
853.660	0.0141317
853.738	0.0141135
853.817	0.0142171
853.895	0.0140348
853.973	0.0140662
854.051	0.0141749
854.129	0.0142590
854.207	0.0142632
854.285	0.0142322
854.363	0.0142380
854.442	0.0141933
854.520	0.0142310
854.598	0.0142039
854.676	0.0142691
854.754	0.0143616
854.832	0.0143173
854.910	0.0142983
854.988	0.0143135
855.067	0.0142051
855.145	0.0143728
855.223	0.0142855
855.301	0.0143314
855.379	0.0143446
855.457	0.0143852
855.535	0.0143227
855.613	0.0143535
855.692	0.0143636
855.770	0.0144411
855.848	0.0143644
855.926	0.0142378
856.004	0.0144241
856.082	0.0144438
856.160	0.0141923
856.238	0.0143787
856.317	0.0145276
856.395	0.0143842
856.473	0.0144122
856.551	0.0143426
856.629	0.0143644
856.707	0.0143391
856.785	0.0143459
856.863	0.0142804
856.942	0.0144383
857.020	0.0143243
857.098	0.0144163
857.176	0.0143109
857.254	0.0143349
857.332	0.0143349
857.410	0.0144029
857.488	0.0145331
857.567	0.0143504
857.645	0.0142448
857.723	0.0143614
857.801	0.0143506
857.879	0.0143559
857.957	0.0142880
858.035	0.0143882
858.113	0.0143170
858.192	0.0142628
858.270	0.0141665
858.348	0.0142085
858.426	0.0142366
858.504	0.0141261
858.582	0.0140186
858.660	0.0140343
858.738	0.0139777
858.817	0.0140424
858.895	0.0138673
858.973	0.0140814
859.051	0.0140865
859.129	0.0139426
859.207	0.0138970
859.285	0.0137064
859.363	0.0138638
859.442	0.0139581
859.520	0.0139989
859.598	0.0138980
859.676	0.0139657
859.754	0.0139494
859.832	0.0139983
859.910	0.0138341
859.988	0.0140205
860.067	0.0138850
860.145	0.0140226
860.223	0.0140127
860.301	0.0139276
860.379	0.0137556
860.457	0.0140347
860.535	0.0140903
860.613	0.0141164
860.692	0.0140806
860.770	0.0141177
860.848	0.0140726
860.926	0.0140861
861.004	0.0140134
861.082	0.0141225
861.160	0.0141711
861.238	0.0142027
861.317	0.0141647
861.395	0.0141210
861.473	0.0143507
861.551	0.0142085
861.629	0.0142741
861.707	0.0142395
861.785	0.0140928
861.863	0.0141461
861.942	0.0142282
862.020	0.0143418
862.098	0.0142788
862.176	0.0142210
862.254	0.0143164
862.332	0.0141574
862.410	0.0140849
862.488	0.0142879
862.567	0.0142414
862.645	0.0142214
862.723	0.0142127
862.801	0.0142063
862.879	0.0142788
862.957	0.0142378
863.035	0.0141119
863.113	0.0143339
863.192	0.0142661
863.270	0.0142014
863.348	0.0142586
863.426	0.0144344
863.504	0.0142377
863.582	0.0142017
863.660	0.0140853
863.738	0.0140524
863.817	0.0142323
863.895	0.0141125
863.973	0.0141670
864.051	0.0142270
864.129	0.0142444
864.207	0.0140690
864.285	0.0141039
864.363	0.0141534
864.442	0.0141985
864.520	0.0142287
864.598	0.0142293
864.676	0.0141560
864.754	0.0142245
864.832	0.0143506
864.910	0.0142204
864.988	0.0141640
865.067	0.0141323
865.145	0.0141908
865.223	0.0141917
865.301	0.0142163
865.379	0.0140879
865.457	0.0142762
865.535	0.0142135
865.613	0.0140952
865.692	0.0142090
865.770	0.0141783
865.848	0.0142265
865.926	0.0141972
866.004	0.0141283
866.082	0.0141946
866.160	0.0142392
866.238	0.0142827
866.317	0.0141364
866.395	0.0142026
866.473	0.0141235
866.551	0.0142604
866.629	0.0140455
866.707	0.0142312
866.785	0.0142126
866.863	0.0142507
866.942	0.0142159
867.020	0.0141032
867.098	0.0143301
867.176	0.0143305
867.254	0.0142454
867.332	0.0141395
867.410	0.0142167
867.488	0.0141952
867.567	0.0141269
867.645	0.0141923
867.723	0.0141949
867.801	0.0141168
867.879	0.0142712
867.957	0.0142255
868.035	0.0141888
868.113	0.0141002
868.192	0.0143157
868.270	0.0142486
868.348	0.0142627
868.426	0.0140563
868.504	0.0139488
868.582	0.0140347
868.660	0.0140501
868.738	0.0139531
868.817	0.0139873
868.895	0.0140443
868.973	0.0140076
869.051	0.0139497
869.129	0.0140842
869.207	0.0138777
869.285	0.0138303
869.363	0.0139870
869.442	0.0139951
869.520	0.0140349
869.598	0.0139433
869.676	0.0140569
869.754	0.0139124
869.832	0.0138638
869.910	0.0139317
869.988	0.0141376
870.067	0.0140608
870.145	0.0139999
870.223	0.0139695
870.301	0.0138503
870.379	0.0139836
870.457	0.0139776
870.535	0.0139558
870.613	0.0140742
870.692	0.0140859
870.770	0.0140598
870.848	0.0140987
870.926	0.0140090
871.004	0.0140603
871.082	0.0141224
871.160	0.0140688
871.238	0.0142113
871.317	0.0141142
871.395	0.0141222
871.473	0.0141426
871.551	0.0141551
871.629	0.0140810
871.707	0.0140807
871.785	0.0141345
871.863	0.0140150
871.942	0.0140166
872.020	0.0141199
872.098	0.0140130
872.176	0.0141592
872.254	0.0141660
872.332	0.0139103
872.410	0.0141806
872.488	0.0140740
872.567	0.0141196
872.645	0.0140350
872.723	0.0141002
872.801	0.0141284
872.879	0.0141479
872.957	0.0141480
873.035	0.0140858
873.113	0.0142078
873.192	0.0142165
873.270	0.0141291
873.348	0.0140757
873.426	0.0142255
873.504	0.0142230
873.582	0.0143155
873.660	0.0140352
873.738	0.0141940
873.817	0.0142359
873.895	0.0142335
873.973	0.0142238
874.051	0.0141959
874.129	0.0142455
874.207	0.0140971
874.285	0.0141137
874.363	0.0141293
874.442	0.0141917
874.520	0.0141860
874.598	0.0141273
874.676	0.0141103
874.754	0.0141097
874.832	0.0141979
874.910	0.0142233
874.988	0.0140429
875.067	0.0140751
875.145	0.0141228
875.223	0.0142300
875.301	0.0141663
875.379	0.0140460
875.457	0.0140639
875.535	0.0141345
875.613	0.0141087
875.692	0.0142532
875.770	0.0141435
875.848	0.0142560
875.926	0.0140969
876.004	0.0142747
876.082	0.0141153
876.160	0.0142570
876.238	0.0143230
876.317	0.0141441
876.395	0.0140836
876.473	0.0142052
876.551	0.0142406
876.629	0.0142645
876.707	0.0141930
876.785	0.0142991
876.863	0.0142492
876.942	0.0143179
877.020	0.0142940
877.098	0.0142748
877.176	0.0142921
877.254	0.0141936
877.332	0.0140924
877.410	0.0142025
877.488	0.0143694
877.567	0.0141962
877.645	0.0142323
877.723	0.0141853
877.801	0.0142799
877.879	0.0142173
877.957	0.0142657
878.035	0.0142638
878.113	0.0142528
878.192	0.0141498
878.270	0.0141637
878.348	0.0140898
878.426	0.0140711
878.504	0.0140676
878.582	0.0141679
878.660	0.0143340
878.738	0.0142273
878.817	0.0141219
878.895	0.0141329
878.973	0.0143213
879.051	0.0144109
879.129	0.0143710
879.207	0.0143179
879.285	0.0141933
879.363	0.0142495
879.442	0.0142760
879.520	0.0143042
879.598	0.0142721
879.676	0.0141626
879.754	0.0144032
879.832	0.0142268
879.910	0.0141094
879.988	0.0141118
880.067	0.0141325
880.145	0.0141720
880.223	0.0142857
880.301	0.0140818
880.379	0.0141666
880.457	0.0140460
880.535	0.0141759
880.613	0.0142068
880.692	0.0140022
880.770	0.0140349
880.848	0.0140274
880.926	0.0141096
881.004	0.0140725
881.082	0.0142035
881.160	0.0140414
881.238	0.0141742
881.317	0.0142517
881.395	0.0140232
881.473	0.0139897
881.551	0.0140887
881.629	0.0140186
881.707	0.0140051
881.785	0.0142085
881.863	0.0141153
881.942	0.0140624
882.020	0.0140316
882.098	0.0141473
882.176	0.0140089
882.254	0.0140590
882.332	0.0141647
882.410	0.0141061
882.488	0.0141817
882.567	0.0141692
882.645	0.0141873
882.723	0.0139929
882.801	0.0141196
882.879	0.0141211
882.957	0.0141734
883.035	0.0140667
883.113	0.0140553
883.192	0.0141393
883.270	0.0140270
883.348	0.0140951
883.426	0.0141106
883.504	0.0140146
883.582	0.0140448
883.660	0.0141074
883.738	0.0141172
883.817	0.0142186
883.895	0.0141223
883.973	0.0141766
884.051	0.0142564
884.129	0.0142452
884.207	0.0141993
884.285	0.0142001
884.363	0.0143289
884.442	0.0141563
884.520	0.0141142
884.598	0.0141578
884.676	0.0142176
884.754	0.0142262
884.832	0.0142282
884.910	0.0142761
884.988	0.0142168
885.067	0.0140446
885.145	0.0140514
885.223	0.0141679
885.301	0.0142675
885.379	0.0142404
885.457	0.0140662
885.535	0.0142440
885.613	0.0142406
885.692	0.0142699
885.770	0.0141957
885.848	0.0141917
885.926	0.0142732
886.004	0.0141962
886.082	0.0142806
886.160	0.0143587
886.238	0.0142749
886.317	0.0142227
886.395	0.0142245
886.473	0.0143439
886.551	0.0142593
886.629	0.0142416
886.707	0.0142339
886.785	0.0142008
886.863	0.0143185
886.942	0.0141934
887.020	0.0141972
887.098	0.0142769
887.176	0.0142374
887.254	0.0144406
887.332	0.0141692
887.410	0.0141141
887.488	0.0142993
887.567	0.0143913
887.645	0.0140481
887.723	0.0141376
887.801	0.0143353
887.879	0.0143355
887.957	0.0143265
888.035	0.0142875
888.113	0.0143944
888.192	0.0143097
888.270	0.0141873
888.348	0.0143765
888.426	0.0143433
888.504	0.0142152
888.582	0.0142088
888.660	0.0143068
888.738	0.0142370
888.817	0.0143251
888.895	0.0145148
888.973	0.0143882
889.051	0.0143221
889.129	0.0143428
889.207	0.0143694
889.285	0.0142362
889.363	0.0142811
889.442	0.0141742
889.520	0.0142673
889.598	0.0141370
889.676	0.0141096
889.754	0.0141180
889.832	0.0142873
889.910	0.0143176
889.988	0.0142793
890.067	0.0141442
890.145	0.0141754
890.223	0.0143916
890.301	0.0143560
890.379	0.0141347
890.457	0.0141837
890.535	0.0142758
890.613	0.0141630
890.692	0.0141238
890.770	0.0140221
890.848	0.0141028
890.926	0.0140775
891.004	0.0141059
891.082	0.0140808
891.160	0.0141531
891.238	0.0140557
891.317	0.0141410
891.395	0.0141101
891.473	0.0140512
891.551	0.0139761
891.629	0.0141337
891.707	0.0141673
891.785	0.0140102
891.863	0.0140065
891.942	0.0141957
892.020	0.0140553
892.098	0.0141464
892.176	0.0140710
892.254	0.0140609
892.332	0.0139818
892.410	0.0141293
892.488	0.0141504
892.567	0.0141702
892.645	0.0141949
892.723	0.0141145
892.801	0.0141438
892.879	0.0141476
892.957	0.0140304
893.035	0.0140908
893.113	0.0140305
893.192	0.0142206
893.270	0.0141751
893.348	0.0140951
893.426	0.0141552
893.504	0.0141042
893.582	0.0141889
893.660	0.0141963
893.738	0.0140858
893.817	0.0141747
893.895	0.0141157
893.973	0.0140057
894.051	0.0141369
894.129	0.0141946
894.207	0.0140836
894.285	0.0141457
894.363	0.0141328
894.442	0.0140977
894.520	0.0141550
894.598	0.0141863
894.676	0.0140684
894.754	0.0140622
894.832	0.0140051
894.910	0.0139526
894.988	0.0140778
895.067	0.0139967
895.145	0.0141367
895.223	0.0141936
895.301	0.0140810
895.379	0.0141701
895.457	0.0141074
895.535	0.0141216
895.613	0.0141847
895.692	0.0142228
895.770	0.0141776
895.848	0.0141467
895.926	0.0141629
896.004	0.0142181
896.082	0.0141048
896.160	0.0140882
896.238	0.0143151
896.317	0.0142525
896.395	0.0139800
896.473	0.0141751
896.551	0.0142127
896.629	0.0142953
896.707	0.0142235
896.785	0.0141486
896.863	0.0141821
896.942	0.0141553
897.020	0.0142589
897.098	0.0141541
897.176	0.0142067
897.254	0.0142380
897.332	0.0142104
897.410	0.0141818
897.488	0.0142416
897.567	0.0142957
897.645	0.0142108
897.723	0.0142607
897.801	0.0142642
897.879	0.0141944
897.957	0.0140810
898.035	0.0142596
898.113	0.0142584
898.192	0.0141889
898.270	0.0142078
898.348	0.0141736
898.426	0.0141658
898.504	0.0141154
898.582	0.0140813
898.660	0.0140934
898.738	0.0141193
898.817	0.0141135
898.895	0.0141492
898.973	0.0141467
899.051	0.0141718
899.129	0.0141686
899.207	0.0141646
899.285	0.0141077
899.363	0.0142004
899.442	0.0140874
899.520	0.0141952
899.598	0.0142851
899.676	0.0141671
899.754	0.0143102
899.832	0.0141410
899.910	0.0141243
899.988	0.0141941
900.067	0.0142920
900.145	0.0143039
900.223	0.0142574
900.301	0.0141444
900.379	0.0142202
900.457	0.0141785
900.535	0.0141302
900.613	0.0142843
900.692	0.0141816
900.770	0.0142194
900.848	0.0144569
900.926	0.0141953
901.004	0.0141481
901.082	0.0141367
901.160	0.0141798
901.238	0.0143152
901.317	0.0142593
901.395	0.0143281
901.473	0.0143734
901.551	0.0143455
901.629	0.0142358
901.707	0.0143154
901.785	0.0143528
901.863	0.0143376
901.942	0.0143986
902.020	0.0142702
902.098	0.0143914
902.176	0.0143031
902.254	0.0143601
902.332	0.0144438
902.410	0.0142003
902.488	0.0143230
902.567	0.0142950
902.645	0.0143215
902.723	0.0142938
902.801	0.0142760
902.879	0.0142464
902.957	0.0142352
903.035	0.0140019
903.113	0.0142084
903.192	0.0141721
903.270	0.0141128
903.348	0.0141846
903.426	0.0142588
903.504	0.0140781
903.582	0.0141813
903.660	0.0140168
903.738	0.0141376
903.817	0.0140822
903.895	0.0140069
903.973	0.0140694
904.051	0.0142344
904.129	0.0140638
904.207	0.0141152
904.285	0.0141515
904.363	0.0143040
904.442	0.0141480
904.520	0.0141589
904.598	0.0143559
904.676	0.0142004
904.754	0.0143373
904.832	0.0141974
904.910	0.0143771
904.988	0.0142603
905.067	0.0142950
905.145	0.0142131
905.223	0.0142631
905.301	0.0142843
905.379	0.0144047
905.457	0.0142356
905.535	0.0141798
905.613	0.0143739
905.692	0.0142914
905.770	0.0142938
905.848	0.0143254
905.926	0.0141943
906.004	0.0142500
906.082	0.0142552
906.160	0.0142344
906.238	0.0142899
906.317	0.0143681
906.395	0.0142323
906.473	0.0143301
906.551	0.0142693
906.629	0.0142611
906.707	0.0142286
906.785	0.0142628
906.863	0.0142242
906.942	0.0142353
907.020	0.0141948
907.098	0.0142516
907.176	0.0142272
907.254	0.0142496
907.332	0.0142564
907.410	0.0141205
907.488	0.0141943
907.567	0.0140901
907.645	0.0141402
907.723	0.0141860
907.801	0.0140108
907.879	0.0140353
907.957	0.0142014
908.035	0.0140923
908.113	0.0141451
908.192	0.0140934
908.270	0.0141373
908.348	0.0142318
908.426	0.0140915
908.504	0.0141627
908.582	0.0142448
908.660	0.0141765
908.738	0.0141317
908.817	0.0142981
908.895	0.0142709
908.973	0.0141969
909.051	0.0141389
909.129	0.0140887
909.207	0.0142085
909.285	0.0141548
909.363	0.0141918
909.442	0.0141497
909.520	0.0141647
909.598	0.0141508
909.676	0.0141087
909.754	0.0141046
909.832	0.0140201
909.910	0.0141528
909.988	0.0141771
910.067	0.0140150
910.145	0.0140103
910.223	0.0141256
910.301	0.0141502
910.379	0.0140982
910.457	0.0140716
910.535	0.0140680
910.613	0.0141940
910.692	0.0141556
910.770	0.0140512
910.848	0.0141533
910.926	0.0141141
911.004	0.0140785
911.082	0.0141114
911.160	0.0141762
911.238	0.0141927
911.317	0.0142142
911.395	0.0140164
911.473	0.0141246
911.551	0.0141988
911.629	0.0141062
911.707	0.0139776
911.785	0.0141538
911.863	0.0141580
911.942	0.0141756
912.020	0.0142400
912.098	0.0141850
912.176	0.0142855
912.254	0.0141139
912.332	0.0139802
912.410	0.0141425
912.488	0.0142249
912.567	0.0142125
912.645	0.0142564
912.723	0.0142813
912.801	0.0141727
912.879	0.0142225
912.957	0.0142061
913.035	0.0141974
913.113	0.0142393
913.192	0.0142764
913.270	0.0143764
913.348	0.0142289
913.426	0.0142236
913.504	0.0142979
913.582	0.0142863
913.660	0.0143727
913.738	0.0144901
913.817	0.0144608
913.895	0.0144912
913.973	0.0145303
914.051	0.0144029
914.129	0.0144636
914.207	0.0144096
914.285	0.0143917
914.363	0.0144622
914.442	0.0144060
914.520	0.0143655
914.598	0.0144595
914.676	0.0143506
914.754	0.0144235
914.832	0.0144975
914.910	0.0144286
914.988	0.0142142
915.067	0.0143314
915.145	0.0142612
915.223	0.0142693
915.301	0.0143441
915.379	0.0142213
915.457	0.0141894
915.535	0.0142381
915.613	0.0141856
915.692	0.0141606
915.770	0.0141831
915.848	0.0141061
915.926	0.0141003
916.004	0.0140763
916.082	0.0140107
916.160	0.0142381
916.238	0.0141927
916.317	0.0140374
916.395	0.0141025
916.473	0.0141209
916.551	0.0141445
916.629	0.0141577
916.707	0.0140786
916.785	0.0140990
916.863	0.0142306
916.942	0.0141097
917.020	0.0140282
917.098	0.0141887
917.176	0.0141001
917.254	0.0140845
917.332	0.0140940
917.410	0.0141599
917.488	0.0142228
917.567	0.0140521
917.645	0.0140691
917.723	0.0140328
917.801	0.0140511
917.879	0.0140794
917.957	0.0140947
918.035	0.0140813
918.113	0.0141154
918.192	0.0141047
918.270	0.0140991
918.348	0.0140429
918.426	0.0141566
918.504	0.0141508
918.582	0.0140871
918.660	0.0142116
918.738	0.0140935
918.817	0.0141322
918.895	0.0141561
918.973	0.0141522
919.051	0.0140346
919.129	0.0141672
919.207	0.0140840
919.285	0.0142198
919.363	0.0142072
919.442	0.0141669
919.520	0.0142095
919.598	0.0142976
919.676	0.0142226
919.754	0.0142182
919.832	0.0141428
919.910	0.0140388
