05/28/2022	14:34:07	Ver.	4.1	UNKNOWN
Optical Delay	599.988409	Delta X		0.078125	Sweeps	1	Scan Rate	0/0
Coordinates	Axis 1	NaN	Axis 2	NaN	Axis 3	NaN	Axis 4	NaN	Axis 5	NaN	Axis 6	0.000000
TX Power	0.000000	RX Power	0.000000

599.988	0.0142966
600.067	0.0141700
600.145	0.0144300
600.223	0.0143564
600.301	0.0141871
600.379	0.0144802
600.457	0.0142323
600.535	0.0141142
600.613	0.0142660
600.692	0.0143437
600.770	0.0142348
600.848	0.0142641
600.926	0.0143726
601.004	0.0144250
601.082	0.0142841
601.160	0.0142250
601.238	0.0142920
601.317	0.0143023
601.395	0.0142081
601.473	0.0143092
601.551	0.0142442
601.629	0.0143156
601.707	0.0143813
601.785	0.0143806
601.863	0.0143780
601.942	0.0143331
602.020	0.0142932
602.098	0.0143580
602.176	0.0142831
602.254	0.0143892
602.332	0.0143626
602.410	0.0142851
602.488	0.0143977
602.567	0.0144758
602.645	0.0143833
602.723	0.0142769
602.801	0.0142910
602.879	0.0143316
602.957	0.0144382
603.035	0.0144592
603.113	0.0143390
603.192	0.0144323
603.270	0.0144604
603.348	0.0143216
603.426	0.0142413
603.504	0.0143156
603.582	0.0143507
603.660	0.0143978
603.738	0.0143453
603.817	0.0143907
603.895	0.0144136
603.973	0.0143063
604.051	0.0143384
604.129	0.0144161
604.207	0.0143352
604.285	0.0143719
604.363	0.0143582
604.442	0.0143353
604.520	0.0144884
604.598	0.0145914
604.676	0.0145225
604.754	0.0144897
604.832	0.0143195
604.910	0.0143608
604.988	0.0145516
605.067	0.0144650
605.145	0.0144844
605.223	0.0145020
605.301	0.0145696
605.379	0.0145255
605.457	0.0143760
605.535	0.0145811
605.613	0.0145062
605.692	0.0144598
605.770	0.0143456
605.848	0.0144759
605.926	0.0144508
606.004	0.0144585
606.082	0.0145472
606.160	0.0145598
606.238	0.0145493
606.317	0.0145217
606.395	0.0144003
606.473	0.0144588
606.551	0.0144481
606.629	0.0143430
606.707	0.0143455
606.785	0.0145190
606.863	0.0144060
606.942	0.0143374
607.020	0.0142661
607.098	0.0143485
607.176	0.0143285
607.254	0.0143851
607.332	0.0142911
607.410	0.0143948
607.488	0.0142329
607.567	0.0143269
607.645	0.0144691
607.723	0.0143940
607.801	0.0142886
607.879	0.0142180
607.957	0.0142170
608.035	0.0144055
608.113	0.0142072
608.192	0.0141559
608.270	0.0141852
608.348	0.0142902
608.426	0.0142694
608.504	0.0141356
608.582	0.0142561
608.660	0.0141291
608.738	0.0141853
608.817	0.0141069
608.895	0.0141696
608.973	0.0140860
609.051	0.0142145
609.129	0.0141475
609.207	0.0141591
609.285	0.0141490
609.363	0.0141814
609.442	0.0141380
609.520	0.0141727
609.598	0.0141326
609.676	0.0140632
609.754	0.0140561
609.832	0.0142171
609.910	0.0142235
609.988	0.0141276
610.067	0.0140799
610.145	0.0141577
610.223	0.0141014
610.301	0.0141834
610.379	0.0141679
610.457	0.0141359
610.535	0.0142023
610.613	0.0141414
610.692	0.0141005
610.770	0.0140833
610.848	0.0140900
610.926	0.0143313
611.004	0.0142428
611.082	0.0142458
611.160	0.0141622
611.238	0.0141169
611.317	0.0140807
611.395	0.0141403
611.473	0.0141960
611.551	0.0141312
611.629	0.0143543
611.707	0.0141960
611.785	0.0140769
611.863	0.0142924
611.942	0.0142926
612.020	0.0142877
612.098	0.0142706
612.176	0.0142622
612.254	0.0142998
612.332	0.0143981
612.410	0.0143406
612.488	0.0144003
612.567	0.0143578
612.645	0.0142962
612.723	0.0142506
612.801	0.0143251
612.879	0.0144237
612.957	0.0143198
613.035	0.0143959
613.113	0.0144805
613.192	0.0144687
613.270	0.0144531
613.348	0.0144854
613.426	0.0144283
613.504	0.0143744
613.582	0.0144904
613.660	0.0145663
613.738	0.0144540
613.817	0.0144442
613.895	0.0144897
613.973	0.0143854
614.051	0.0144363
614.129	0.0144061
614.207	0.0146195
614.285	0.0144827
614.363	0.0144508
614.442	0.0145159
614.520	0.0144221
614.598	0.0144952
614.676	0.0143914
614.754	0.0143786
614.832	0.0144877
614.910	0.0143783
614.988	0.0144107
615.067	0.0144193
615.145	0.0145084
615.223	0.0144489
615.301	0.0145142
615.379	0.0145496
615.457	0.0144406
615.535	0.0142971
615.613	0.0144772
615.692	0.0144820
615.770	0.0144655
615.848	0.0144062
615.926	0.0143559
616.004	0.0143599
616.082	0.0144149
616.160	0.0143202
616.238	0.0143575
616.317	0.0143881
616.395	0.0143246
616.473	0.0143420
616.551	0.0143243
616.629	0.0142603
616.707	0.0142767
616.785	0.0144604
616.863	0.0144451
616.942	0.0144614
617.020	0.0143591
617.098	0.0144655
617.176	0.0143231
617.254	0.0142731
617.332	0.0142941
617.410	0.0143732
617.488	0.0143517
617.567	0.0143256
617.645	0.0142525
617.723	0.0142339
617.801	0.0142673
617.879	0.0142508
617.957	0.0142291
618.035	0.0142227
618.113	0.0141342
618.192	0.0141154
618.270	0.0142055
618.348	0.0142470
618.426	0.0143072
618.504	0.0143407
618.582	0.0141836
618.660	0.0140896
618.738	0.0141920
618.817	0.0144044
618.895	0.0142534
618.973	0.0140528
619.051	0.0143175
619.129	0.0142696
619.207	0.0142071
619.285	0.0141954
619.363	0.0143157
619.442	0.0143466
619.520	0.0141835
619.598	0.0140811
619.676	0.0143020
619.754	0.0142268
619.832	0.0141801
619.910	0.0143289
619.988	0.0144299
620.067	0.0143114
620.145	0.0141072
620.223	0.0143536
620.301	0.0143685
620.379	0.0142785
620.457	0.0142779
620.535	0.0142979
620.613	0.0143151
620.692	0.0142545
620.770	0.0143677
620.848	0.0143230
620.926	0.0143048
621.004	0.0142239
621.082	0.0143389
621.160	0.0143634
621.238	0.0143923
621.317	0.0143855
621.395	0.0143434
621.473	0.0143051
621.551	0.0142442
621.629	0.0143157
621.707	0.0142607
621.785	0.0143212
621.863	0.0143349
621.942	0.0142818
622.020	0.0141708
622.098	0.0141212
622.176	0.0143506
622.254	0.0144305
622.332	0.0143301
622.410	0.0143181
622.488	0.0144469
622.567	0.0142005
622.645	0.0142229
622.723	0.0144253
622.801	0.0142681
622.879	0.0141932
622.957	0.0143761
623.035	0.0143687
623.113	0.0145021
623.192	0.0145834
623.270	0.0144814
623.348	0.0146635
623.426	0.0144649
623.504	0.0144250
623.582	0.0146677
623.660	0.0145956
623.738	0.0145602
623.817	0.0146156
623.895	0.0146262
623.973	0.0145280
624.051	0.0145420
624.129	0.0146531
624.207	0.0143442
624.285	0.0144529
624.363	0.0145422
624.442	0.0144711
624.520	0.0144753
624.598	0.0141836
624.676	0.0142996
624.754	0.0143795
624.832	0.0142653
624.910	0.0143349
624.988	0.0142126
625.067	0.0143945
625.145	0.0145003
625.223	0.0143904
625.301	0.0145644
625.379	0.0144455
625.457	0.0144895
625.535	0.0146374
625.613	0.0146935
625.692	0.0145444
625.770	0.0147258
625.848	0.0147337
625.926	0.0147234
626.004	0.0147528
626.082	0.0146507
626.160	0.0146352
626.238	0.0145523
626.317	0.0145609
626.395	0.0146337
626.473	0.0146635
626.551	0.0144621
626.629	0.0144337
626.707	0.0145405
626.785	0.0144623
626.863	0.0143319
626.942	0.0144170
627.020	0.0143346
627.098	0.0142812
627.176	0.0143291
627.254	0.0143392
627.332	0.0140871
627.410	0.0143001
627.488	0.0142434
627.567	0.0140119
627.645	0.0141365
627.723	0.0142415
627.801	0.0141903
627.879	0.0143808
627.957	0.0142757
628.035	0.0143912
628.113	0.0144714
628.192	0.0143809
628.270	0.0144623
628.348	0.0145998
628.426	0.0147073
628.504	0.0147223
628.582	0.0146773
628.660	0.0145311
628.738	0.0147719
628.817	0.0146942
628.895	0.0146343
628.973	0.0146629
629.051	0.0146117
629.129	0.0147605
629.207	0.0147658
629.285	0.0145714
629.363	0.0145487
629.442	0.0146301
629.520	0.0144125
629.598	0.0143598
629.676	0.0142851
629.754	0.0143220
629.832	0.0141845
629.910	0.0142518
629.988	0.0142697
630.067	0.0142905
630.145	0.0140881
630.223	0.0142723
630.301	0.0141566
630.379	0.0141362
630.457	0.0141575
630.535	0.0142363
630.613	0.0142319
630.692	0.0142200
630.770	0.0141286
630.848	0.0141776
630.926	0.0142341
631.004	0.0142098
631.082	0.0141656
631.160	0.0142198
631.238	0.0141080
631.317	0.0141661
631.395	0.0141533
631.473	0.0141682
631.551	0.0141890
631.629	0.0142191
631.707	0.0140497
631.785	0.0140680
631.863	0.0141270
631.942	0.0141848
632.020	0.0140181
632.098	0.0139954
632.176	0.0140314
632.254	0.0141580
632.332	0.0141326
632.410	0.0141536
632.488	0.0140511
632.567	0.0140547
632.645	0.0140328
632.723	0.0141198
632.801	0.0141759
632.879	0.0140755
632.957	0.0142136
633.035	0.0142626
633.113	0.0141938
633.192	0.0141765
633.270	0.0141980
633.348	0.0144083
633.426	0.0143325
633.504	0.0143002
633.582	0.0143181
633.660	0.0144149
633.738	0.0144176
633.817	0.0146020
633.895	0.0144514
633.973	0.0145673
634.051	0.0144693
634.129	0.0145303
634.207	0.0144997
634.285	0.0145636
634.363	0.0145433
634.442	0.0144887
634.520	0.0144672
634.598	0.0144470
634.676	0.0143785
634.754	0.0143308
634.832	0.0142325
634.910	0.0142314
634.988	0.0143085
635.067	0.0143546
635.145	0.0143322
635.223	0.0142740
635.301	0.0142642
635.379	0.0141394
635.457	0.0143439
635.535	0.0143714
635.613	0.0141364
635.692	0.0142334
635.770	0.0142827
635.848	0.0143535
635.926	0.0143382
636.004	0.0142664
636.082	0.0142973
636.160	0.0143132
636.238	0.0143300
636.317	0.0143488
636.395	0.0143983
636.473	0.0142920
636.551	0.0144746
636.629	0.0144991
636.707	0.0143481
636.785	0.0144434
636.863	0.0144023
636.942	0.0143929
637.020	0.0144196
637.098	0.0143834
637.176	0.0144184
637.254	0.0144659
637.332	0.0143962
637.410	0.0144175
637.488	0.0145454
637.567	0.0145064
637.645	0.0145052
637.723	0.0144296
637.801	0.0144480
637.879	0.0145789
637.957	0.0145663
638.035	0.0145845
638.113	0.0145947
638.192	0.0145300
638.270	0.0144404
638.348	0.0144896
638.426	0.0146169
638.504	0.0145654
638.582	0.0144272
638.660	0.0145459
638.738	0.0144109
638.817	0.0143221
638.895	0.0144177
638.973	0.0143137
639.051	0.0143417
639.129	0.0144015
639.207	0.0144327
639.285	0.0144039
639.363	0.0143694
639.442	0.0144521
639.520	0.0143473
639.598	0.0144559
639.676	0.0143864
639.754	0.0143865
639.832	0.0142789
639.910	0.0143652
639.988	0.0142320
640.067	0.0143294
640.145	0.0143207
640.223	0.0142241
640.301	0.0141512
640.379	0.0141953
640.457	0.0142023
640.535	0.0141240
640.613	0.0140849
640.692	0.0141309
640.770	0.0141380
640.848	0.0140488
640.926	0.0139742
641.004	0.0141245
641.082	0.0140072
641.160	0.0140206
641.238	0.0141826
641.317	0.0141438
641.395	0.0141479
641.473	0.0141756
641.551	0.0141108
641.629	0.0141619
641.707	0.0141532
641.785	0.0141885
641.863	0.0141766
641.942	0.0141315
642.020	0.0142533
642.098	0.0143863
642.176	0.0142453
642.254	0.0142575
642.332	0.0142814
642.410	0.0143513
642.488	0.0142452
642.567	0.0143879
642.645	0.0140609
642.723	0.0141738
642.801	0.0143132
642.879	0.0142866
642.957	0.0142126
643.035	0.0141192
643.113	0.0143259
643.192	0.0143417
643.270	0.0143933
643.348	0.0143035
643.426	0.0144456
643.504	0.0143721
643.582	0.0144250
643.660	0.0143770
643.738	0.0143162
643.817	0.0143779
643.895	0.0144677
643.973	0.0143888
644.051	0.0144025
644.129	0.0143115
644.207	0.0143857
644.285	0.0143298
644.363	0.0143631
644.442	0.0143337
644.520	0.0143851
644.598	0.0144617
644.676	0.0145003
644.754	0.0144423
644.832	0.0145760
644.910	0.0144525
644.988	0.0145182
645.067	0.0144125
645.145	0.0144633
645.223	0.0144533
645.301	0.0144619
645.379	0.0145294
645.457	0.0143381
645.535	0.0142283
645.613	0.0143930
645.692	0.0143900
645.770	0.0143692
645.848	0.0143562
645.926	0.0142033
646.004	0.0142578
646.082	0.0142850
646.160	0.0143983
646.238	0.0144009
646.317	0.0145074
646.395	0.0144609
646.473	0.0144732
646.551	0.0144223
646.629	0.0143875
646.707	0.0144643
646.785	0.0144401
646.863	0.0145246
646.942	0.0145521
647.020	0.0144829
647.098	0.0146500
647.176	0.0145856
647.254	0.0146385
647.332	0.0146159
647.410	0.0144318
647.488	0.0144557
647.567	0.0145456
647.645	0.0146232
647.723	0.0145016
647.801	0.0144978
647.879	0.0143034
647.957	0.0144202
648.035	0.0145134
648.113	0.0144092
648.192	0.0143870
648.270	0.0144267
648.348	0.0144048
648.426	0.0143660
648.504	0.0143957
648.582	0.0142799
648.660	0.0142402
648.738	0.0143687
648.817	0.0144365
648.895	0.0143549
648.973	0.0143228
649.051	0.0143627
649.129	0.0144069
649.207	0.0144285
649.285	0.0144910
649.363	0.0144273
649.442	0.0143652
649.520	0.0143883
649.598	0.0143590
649.676	0.0144753
649.754	0.0143586
649.832	0.0143131
649.910	0.0141775
649.988	0.0141823
650.067	0.0141882
650.145	0.0141630
650.223	0.0142497
650.301	0.0141480
650.379	0.0140604
650.457	0.0138863
650.535	0.0140189
650.613	0.0139043
650.692	0.0139863
650.770	0.0139896
650.848	0.0140500
650.926	0.0140219
651.004	0.0142205
651.082	0.0142337
651.160	0.0142553
651.238	0.0143642
651.317	0.0142229
651.395	0.0143700
651.473	0.0144247
651.551	0.0144276
651.629	0.0143912
651.707	0.0145730
651.785	0.0145554
651.863	0.0145810
651.942	0.0146619
652.020	0.0146977
652.098	0.0146697
652.176	0.0145710
652.254	0.0146114
652.332	0.0147087
652.410	0.0146884
652.488	0.0146902
652.567	0.0147173
652.645	0.0147019
652.723	0.0146937
652.801	0.0146393
652.879	0.0147124
652.957	0.0146679
653.035	0.0145731
653.113	0.0146304
653.192	0.0146236
653.270	0.0144280
653.348	0.0144516
653.426	0.0144960
653.504	0.0143941
653.582	0.0143118
653.660	0.0143707
653.738	0.0141986
653.817	0.0142181
653.895	0.0142728
653.973	0.0142574
654.051	0.0141540
654.129	0.0142094
654.207	0.0141268
654.285	0.0141239
654.363	0.0141254
654.442	0.0141756
654.520	0.0141844
654.598	0.0142752
654.676	0.0141879
654.754	0.0142053
654.832	0.0142149
654.910	0.0143864
654.988	0.0141747
655.067	0.0144523
655.145	0.0143129
655.223	0.0143481
655.301	0.0143621
655.379	0.0144741
655.457	0.0145023
655.535	0.0142046
655.613	0.0144407
655.692	0.0144590
655.770	0.0144076
655.848	0.0143866
655.926	0.0144714
656.004	0.0145500
656.082	0.0143171
656.160	0.0144283
656.238	0.0143104
656.317	0.0143453
656.395	0.0142633
656.473	0.0142597
656.551	0.0143179
656.629	0.0143647
656.707	0.0143880
656.785	0.0141752
656.863	0.0142614
656.942	0.0143208
657.020	0.0143328
657.098	0.0143969
657.176	0.0143544
657.254	0.0142828
657.332	0.0143795
657.410	0.0143536
657.488	0.0143956
657.567	0.0144780
657.645	0.0143697
657.723	0.0141608
657.801	0.0143422
657.879	0.0142466
657.957	0.0143916
658.035	0.0143221
658.113	0.0142944
658.192	0.0141841
658.270	0.0142375
658.348	0.0144395
658.426	0.0143265
658.504	0.0142985
658.582	0.0143599
658.660	0.0143954
658.738	0.0144974
658.817	0.0142914
658.895	0.0143343
658.973	0.0143499
659.051	0.0142759
659.129	0.0143407
659.207	0.0143709
659.285	0.0145049
659.363	0.0142891
659.442	0.0143439
659.520	0.0144096
659.598	0.0144006
659.676	0.0142701
659.754	0.0142793
659.832	0.0143439
659.910	0.0143066
659.988	0.0144170
660.067	0.0144116
660.145	0.0143489
660.223	0.0144608
660.301	0.0143156
660.379	0.0142054
660.457	0.0141588
660.535	0.0141201
660.613	0.0140764
660.692	0.0139660
660.770	0.0140478
660.848	0.0141236
660.926	0.0140343
661.004	0.0139997
661.082	0.0142054
661.160	0.0141673
661.238	0.0141451
661.317	0.0141997
661.395	0.0143029
661.473	0.0141205
661.551	0.0142144
661.629	0.0141839
661.707	0.0144015
661.785	0.0142939
661.863	0.0142693
661.942	0.0141703
662.020	0.0142435
662.098	0.0143813
662.176	0.0142452
662.254	0.0143258
662.332	0.0145146
662.410	0.0144225
662.488	0.0145156
662.567	0.0144868
662.645	0.0145767
662.723	0.0145115
662.801	0.0145685
662.879	0.0146182
662.957	0.0145521
663.035	0.0146534
663.113	0.0143620
663.192	0.0144044
663.270	0.0146739
663.348	0.0146392
663.426	0.0146015
663.504	0.0144683
663.582	0.0146513
663.660	0.0148073
663.738	0.0145979
663.817	0.0145394
663.895	0.0146394
663.973	0.0147015
664.051	0.0148398
664.129	0.0146837
664.207	0.0147179
664.285	0.0144833
664.363	0.0146393
664.442	0.0145473
664.520	0.0146364
664.598	0.0144117
664.676	0.0145021
664.754	0.0144527
664.832	0.0144456
664.910	0.0142730
664.988	0.0144266
665.067	0.0144395
665.145	0.0143334
665.223	0.0143004
665.301	0.0142575
665.379	0.0143044
665.457	0.0142657
665.535	0.0142114
665.613	0.0143065
665.692	0.0142880
665.770	0.0142072
665.848	0.0142973
665.926	0.0143907
666.004	0.0143652
666.082	0.0143891
666.160	0.0143418
666.238	0.0143520
666.317	0.0144376
666.395	0.0144115
666.473	0.0143677
666.551	0.0144096
666.629	0.0142739
666.707	0.0141767
666.785	0.0142895
666.863	0.0142834
666.942	0.0142241
667.020	0.0142316
667.098	0.0142484
667.176	0.0142625
667.254	0.0142558
667.332	0.0141797
667.410	0.0141199
667.488	0.0142326
667.567	0.0142960
667.645	0.0143280
667.723	0.0142406
667.801	0.0142318
667.879	0.0144874
667.957	0.0143073
668.035	0.0141685
668.113	0.0142808
668.192	0.0142240
668.270	0.0143933
668.348	0.0144138
668.426	0.0143248
668.504	0.0143235
668.582	0.0142520
668.660	0.0144336
668.738	0.0143273
668.817	0.0143408
668.895	0.0144533
668.973	0.0144252
669.051	0.0145467
669.129	0.0144978
669.207	0.0145599
669.285	0.0145325
669.363	0.0145097
669.442	0.0147378
669.520	0.0146638
669.598	0.0147112
669.676	0.0147505
669.754	0.0146991
669.832	0.0147546
669.910	0.0148443
669.988	0.0146902
670.067	0.0145284
670.145	0.0145945
670.223	0.0146739
670.301	0.0145605
670.379	0.0144261
670.457	0.0144408
670.535	0.0145274
670.613	0.0144343
670.692	0.0143882
670.770	0.0142891
670.848	0.0141541
670.926	0.0141354
671.004	0.0138179
671.082	0.0138139
671.160	0.0137251
671.238	0.0138352
671.317	0.0136414
671.395	0.0135210
671.473	0.0134557
671.551	0.0134830
671.629	0.0134064
671.707	0.0134642
671.785	0.0135091
671.863	0.0134854
671.942	0.0135811
672.020	0.0136016
672.098	0.0137457
672.176	0.0138821
672.254	0.0139978
672.332	0.0140868
672.410	0.0142654
672.488	0.0143704
672.567	0.0144039
672.645	0.0144289
672.723	0.0146021
672.801	0.0146780
672.879	0.0147646
672.957	0.0147597
673.035	0.0147810
673.113	0.0149585
673.192	0.0149766
673.270	0.0149157
673.348	0.0149171
673.426	0.0148840
673.504	0.0149486
673.582	0.0149133
673.660	0.0148913
673.738	0.0147827
673.817	0.0148109
673.895	0.0145783
673.973	0.0145130
674.051	0.0143832
674.129	0.0142840
674.207	0.0141313
674.285	0.0140678
674.363	0.0141734
674.442	0.0139526
674.520	0.0138480
674.598	0.0140487
674.676	0.0137994
674.754	0.0138671
674.832	0.0139125
674.910	0.0139102
674.988	0.0138464
675.067	0.0139162
675.145	0.0139283
675.223	0.0141779
675.301	0.0142242
675.379	0.0142087
675.457	0.0140610
675.535	0.0143633
675.613	0.0144453
675.692	0.0142870
675.770	0.0142883
675.848	0.0144436
675.926	0.0144344
676.004	0.0143848
676.082	0.0142719
676.160	0.0143127
676.238	0.0143233
676.317	0.0141209
676.395	0.0141138
676.473	0.0141991
676.551	0.0141626
676.629	0.0141780
676.707	0.0141728
676.785	0.0140376
676.863	0.0139806
676.942	0.0140472
677.020	0.0140786
677.098	0.0140694
677.176	0.0140748
677.254	0.0141079
677.332	0.0141491
677.410	0.0141130
677.488	0.0141657
677.567	0.0143408
677.645	0.0142984
677.723	0.0143382
677.801	0.0143712
677.879	0.0144618
677.957	0.0145502
678.035	0.0145890
678.113	0.0146611
678.192	0.0147134
678.270	0.0147317
678.348	0.0146342
678.426	0.0146053
678.504	0.0146471
678.582	0.0146535
678.660	0.0145228
678.738	0.0146842
678.817	0.0145733
678.895	0.0143399
678.973	0.0144420
679.051	0.0144622
679.129	0.0143987
679.207	0.0143897
679.285	0.0143328
679.363	0.0142359
679.442	0.0142669
679.520	0.0141998
679.598	0.0143266
679.676	0.0141810
679.754	0.0141863
679.832	0.0144282
679.910	0.0142184
679.988	0.0142216
680.067	0.0142057
680.145	0.0142570
680.223	0.0142542
680.301	0.0143249
680.379	0.0143023
680.457	0.0141893
680.535	0.0142596
680.613	0.0142782
680.692	0.0142552
680.770	0.0142774
680.848	0.0142123
680.926	0.0141956
681.004	0.0142155
681.082	0.0140054
681.160	0.0142112
681.238	0.0141867
681.317	0.0141718
681.395	0.0142139
681.473	0.0141365
681.551	0.0143024
681.629	0.0141161
681.707	0.0143207
681.785	0.0140873
681.863	0.0141153
681.942	0.0141900
682.020	0.0141085
682.098	0.0141394
682.176	0.0141526
682.254	0.0142313
682.332	0.0141645
682.410	0.0141471
682.488	0.0139452
682.567	0.0141089
682.645	0.0141870
682.723	0.0142899
682.801	0.0142467
682.879	0.0143531
682.957	0.0143915
683.035	0.0144698
683.113	0.0145461
683.192	0.0146361
683.270	0.0145325
683.348	0.0146502
683.426	0.0146011
683.504	0.0146374
683.582	0.0146830
683.660	0.0148296
683.738	0.0147678
683.817	0.0147385
683.895	0.0147195
683.973	0.0147738
684.051	0.0148138
684.129	0.0147993
684.207	0.0146368
684.285	0.0147917
684.363	0.0146263
684.442	0.0146575
684.520	0.0144727
684.598	0.0145348
684.676	0.0143636
684.754	0.0142261
684.832	0.0140997
684.910	0.0141542
684.988	0.0140195
685.067	0.0141113
685.145	0.0140601
685.223	0.0140028
685.301	0.0139351
685.379	0.0139493
685.457	0.0139211
685.535	0.0139148
685.613	0.0139780
685.692	0.0137202
685.770	0.0136544
685.848	0.0138262
685.926	0.0137811
686.004	0.0138378
686.082	0.0139363
686.160	0.0138338
686.238	0.0137717
686.317	0.0137758
686.395	0.0140168
686.473	0.0140692
686.551	0.0140792
686.629	0.0139577
686.707	0.0140135
686.785	0.0141070
686.863	0.0141146
686.942	0.0142672
687.020	0.0144114
687.098	0.0142451
687.176	0.0144321
687.254	0.0145786
687.332	0.0145838
687.410	0.0145876
687.488	0.0147355
687.567	0.0146118
687.645	0.0146097
687.723	0.0146606
687.801	0.0148145
687.879	0.0147889
687.957	0.0147296
688.035	0.0147607
688.113	0.0147285
688.192	0.0148657
688.270	0.0146846
688.348	0.0148179
688.426	0.0148607
688.504	0.0146827
688.582	0.0145825
688.660	0.0146642
688.738	0.0147159
688.817	0.0146228
688.895	0.0146268
688.973	0.0144997
689.051	0.0144567
689.129	0.0144850
689.207	0.0144733
689.285	0.0145568
689.363	0.0143620
689.442	0.0143814
689.520	0.0142908
689.598	0.0142326
689.676	0.0141355
689.754	0.0141742
689.832	0.0142783
689.910	0.0140626
689.988	0.0140111
690.067	0.0140012
690.145	0.0139874
690.223	0.0137930
690.301	0.0136901
690.379	0.0138694
690.457	0.0138066
690.535	0.0140539
690.613	0.0138256
690.692	0.0138909
690.770	0.0138216
690.848	0.0138644
690.926	0.0140166
691.004	0.0140467
691.082	0.0140289
691.160	0.0141255
691.238	0.0140707
691.317	0.0141940
691.395	0.0141982
691.473	0.0142875
691.551	0.0142885
691.629	0.0142437
691.707	0.0143475
691.785	0.0143353
691.863	0.0142699
691.942	0.0143470
692.020	0.0144141
692.098	0.0143410
692.176	0.0144235
692.254	0.0143343
692.332	0.0143192
692.410	0.0142813
692.488	0.0144065
692.567	0.0145170
692.645	0.0143822
692.723	0.0145269
692.801	0.0145375
692.879	0.0146127
692.957	0.0147144
693.035	0.0147980
693.113	0.0146110
693.192	0.0148140
693.270	0.0149449
693.348	0.0150360
693.426	0.0150722
693.504	0.0149649
693.582	0.0150494
693.660	0.0149963
693.738	0.0150021
693.817	0.0149864
693.895	0.0149686
693.973	0.0147867
694.051	0.0148760
694.129	0.0146494
694.207	0.0146029
694.285	0.0144804
694.363	0.0143890
694.442	0.0143935
694.520	0.0143545
694.598	0.0143020
694.676	0.0140646
694.754	0.0141255
694.832	0.0138168
694.910	0.0139031
694.988	0.0137646
695.067	0.0138176
695.145	0.0135686
695.223	0.0134612
695.301	0.0136563
695.379	0.0134786
695.457	0.0136472
695.535	0.0135436
695.613	0.0135838
695.692	0.0135134
695.770	0.0136335
695.848	0.0136345
695.926	0.0135835
696.004	0.0137329
696.082	0.0137680
696.160	0.0137714
696.238	0.0139429
696.317	0.0140839
696.395	0.0142375
696.473	0.0141705
696.551	0.0144017
696.629	0.0145073
696.707	0.0144270
696.785	0.0146433
696.863	0.0146581
696.942	0.0145477
697.020	0.0147315
697.098	0.0146242
697.176	0.0146671
697.254	0.0146339
697.332	0.0145787
697.410	0.0146531
697.488	0.0146420
697.567	0.0146796
697.645	0.0145285
697.723	0.0146383
697.801	0.0145034
697.879	0.0145085
697.957	0.0144958
698.035	0.0146509
698.113	0.0145229
698.192	0.0144164
698.270	0.0145762
698.348	0.0144254
698.426	0.0143969
698.504	0.0143874
698.582	0.0143931
698.660	0.0143620
698.738	0.0144066
698.817	0.0143621
698.895	0.0142794
698.973	0.0142422
699.051	0.0142747
699.129	0.0142074
699.207	0.0142133
699.285	0.0140799
699.363	0.0139516
699.442	0.0140961
699.520	0.0139076
699.598	0.0138277
699.676	0.0137593
699.754	0.0139005
699.832	0.0135918
699.910	0.0136673
699.988	0.0138056
700.067	0.0137079
700.145	0.0136739
700.223	0.0136732
700.301	0.0138244
700.379	0.0137595
700.457	0.0136694
700.535	0.0138188
700.613	0.0137852
700.692	0.0139449
700.770	0.0139419
700.848	0.0140366
700.926	0.0141762
701.004	0.0140986
701.082	0.0141393
701.160	0.0142867
701.238	0.0143958
701.317	0.0144511
701.395	0.0144753
701.473	0.0144025
701.551	0.0144664
701.629	0.0145620
701.707	0.0145051
701.785	0.0147001
701.863	0.0146057
701.942	0.0146580
702.020	0.0147230
702.098	0.0147636
702.176	0.0145788
702.254	0.0144402
702.332	0.0145313
702.410	0.0145343
702.488	0.0145374
702.567	0.0144907
702.645	0.0144949
702.723	0.0143757
702.801	0.0143961
702.879	0.0143489
702.957	0.0144495
703.035	0.0144688
703.113	0.0142042
703.192	0.0142451
703.270	0.0143814
703.348	0.0143445
703.426	0.0144013
703.504	0.0142683
703.582	0.0141479
703.660	0.0142797
703.738	0.0143038
703.817	0.0143052
703.895	0.0144395
703.973	0.0143310
704.051	0.0144589
704.129	0.0143484
704.207	0.0143488
704.285	0.0143474
704.363	0.0143380
704.442	0.0143213
704.520	0.0142702
704.598	0.0142602
704.676	0.0142001
704.754	0.0144549
704.832	0.0142831
704.910	0.0141718
704.988	0.0142523
705.067	0.0142345
705.145	0.0143557
705.223	0.0141173
705.301	0.0142146
705.379	0.0141866
705.457	0.0141974
705.535	0.0143551
705.613	0.0140780
705.692	0.0141343
705.770	0.0141784
705.848	0.0141898
705.926	0.0141943
706.004	0.0141004
706.082	0.0141097
706.160	0.0142353
706.238	0.0142530
706.317	0.0141502
706.395	0.0140844
706.473	0.0141637
706.551	0.0140540
706.629	0.0142612
706.707	0.0143084
706.785	0.0142977
706.863	0.0144785
706.942	0.0144849
707.020	0.0143135
707.098	0.0143989
707.176	0.0142735
707.254	0.0143368
707.332	0.0143497
707.410	0.0143134
707.488	0.0141932
707.567	0.0143343
707.645	0.0143092
707.723	0.0142174
707.801	0.0141832
707.879	0.0141772
707.957	0.0142245
708.035	0.0141595
708.113	0.0140431
708.192	0.0141228
708.270	0.0141522
708.348	0.0140697
708.426	0.0140540
708.504	0.0141126
708.582	0.0140661
708.660	0.0142571
708.738	0.0141674
708.817	0.0140045
708.895	0.0142780
708.973	0.0143648
709.051	0.0143420
709.129	0.0141964
709.207	0.0142987
709.285	0.0143288
709.363	0.0144850
709.442	0.0146004
709.520	0.0144346
709.598	0.0144685
709.676	0.0143748
709.754	0.0145266
709.832	0.0145070
709.910	0.0147036
709.988	0.0146188
710.067	0.0142458
710.145	0.0145208
710.223	0.0144740
710.301	0.0144576
710.379	0.0145320
710.457	0.0144873
710.535	0.0143536
710.613	0.0143343
710.692	0.0143438
710.770	0.0143587
710.848	0.0143374
710.926	0.0140407
711.004	0.0143301
711.082	0.0142815
711.160	0.0141366
711.238	0.0143147
711.317	0.0142154
711.395	0.0140282
711.473	0.0141147
711.551	0.0141629
711.629	0.0141254
711.707	0.0141481
711.785	0.0140733
711.863	0.0140572
711.942	0.0141959
712.020	0.0141144
712.098	0.0140099
712.176	0.0141155
712.254	0.0142963
712.332	0.0143076
712.410	0.0143922
712.488	0.0142524
712.567	0.0143515
712.645	0.0144277
712.723	0.0143990
712.801	0.0143888
712.879	0.0144843
712.957	0.0143517
713.035	0.0143930
713.113	0.0143703
713.192	0.0144312
713.270	0.0143694
713.348	0.0144665
713.426	0.0144601
713.504	0.0144096
713.582	0.0145333
713.660	0.0144916
713.738	0.0144126
713.817	0.0144447
713.895	0.0144236
713.973	0.0144347
714.051	0.0144799
714.129	0.0145706
714.207	0.0145631
714.285	0.0147459
714.363	0.0146592
714.442	0.0146457
714.520	0.0145425
714.598	0.0146759
714.676	0.0146833
714.754	0.0146616
714.832	0.0146774
714.910	0.0146978
714.988	0.0148431
715.067	0.0146714
715.145	0.0146088
715.223	0.0145156
715.301	0.0146030
715.379	0.0145946
715.457	0.0144122
715.535	0.0144243
715.613	0.0145222
715.692	0.0142398
715.770	0.0142834
715.848	0.0141718
715.926	0.0141892
716.004	0.0141378
716.082	0.0141331
716.160	0.0141135
716.238	0.0142817
716.317	0.0141585
716.395	0.0141196
716.473	0.0140709
716.551	0.0141946
716.629	0.0141692
716.707	0.0141190
716.785	0.0141505
716.863	0.0141700
716.942	0.0142174
717.020	0.0141787
717.098	0.0141550
717.176	0.0144723
717.254	0.0144339
717.332	0.0141985
717.410	0.0143008
717.488	0.0143248
717.567	0.0142464
717.645	0.0143151
717.723	0.0143700
717.801	0.0143191
717.879	0.0144408
717.957	0.0144614
718.035	0.0144931
718.113	0.0143365
718.192	0.0143131
718.270	0.0142230
718.348	0.0142786
718.426	0.0143268
718.504	0.0142289
718.582	0.0141805
718.660	0.0142492
718.738	0.0142539
718.817	0.0142486
718.895	0.0142522
718.973	0.0142323
719.051	0.0142751
719.129	0.0141776
719.207	0.0142259
719.285	0.0143027
719.363	0.0143232
719.442	0.0142505
719.520	0.0143392
719.598	0.0143704
719.676	0.0142563
719.754	0.0143089
719.832	0.0143739
719.910	0.0144525
719.988	0.0143825
720.067	0.0143169
720.145	0.0142924
720.223	0.0145199
720.301	0.0145251
720.379	0.0144642
720.457	0.0143562
720.535	0.0144843
720.613	0.0145036
720.692	0.0143152
720.770	0.0143287
720.848	0.0144629
720.926	0.0144332
721.004	0.0144052
721.082	0.0142678
721.160	0.0142908
721.238	0.0142644
721.317	0.0144405
721.395	0.0144343
721.473	0.0142824
721.551	0.0142828
721.629	0.0143060
721.707	0.0142578
721.785	0.0142545
721.863	0.0143359
721.942	0.0142677
722.020	0.0142052
722.098	0.0141959
722.176	0.0141741
722.254	0.0141510
722.332	0.0142319
722.410	0.0144019
722.488	0.0141756
722.567	0.0141579
722.645	0.0142280
722.723	0.0142657
722.801	0.0141575
722.879	0.0143034
722.957	0.0143047
723.035	0.0141901
723.113	0.0142429
723.192	0.0141394
723.270	0.0141314
723.348	0.0142050
723.426	0.0143449
723.504	0.0142236
723.582	0.0141373
723.660	0.0143013
723.738	0.0142812
723.817	0.0142538
723.895	0.0142729
723.973	0.0144644
724.051	0.0142767
724.129	0.0143694
724.207	0.0143179
724.285	0.0141965
724.363	0.0144038
724.442	0.0142797
724.520	0.0143372
724.598	0.0144556
724.676	0.0145055
724.754	0.0144050
724.832	0.0144904
724.910	0.0144982
724.988	0.0144118
725.067	0.0145706
725.145	0.0145425
725.223	0.0145894
725.301	0.0145784
725.379	0.0146000
725.457	0.0143616
725.535	0.0144724
725.613	0.0144725
725.692	0.0144633
725.770	0.0144151
725.848	0.0146231
725.926	0.0143752
726.004	0.0144521
726.082	0.0145223
726.160	0.0145160
726.238	0.0144595
726.317	0.0144485
726.395	0.0144432
726.473	0.0144137
726.551	0.0144318
726.629	0.0142986
726.707	0.0143407
726.785	0.0143053
726.863	0.0142356
726.942	0.0142855
727.020	0.0142108
727.098	0.0143971
727.176	0.0143522
727.254	0.0143871
727.332	0.0142860
727.410	0.0143272
727.488	0.0143679
727.567	0.0142435
727.645	0.0142921
727.723	0.0143079
727.801	0.0143015
727.879	0.0144643
727.957	0.0145158
728.035	0.0144740
728.113	0.0144942
728.192	0.0142982
728.270	0.0142334
728.348	0.0144830
728.426	0.0144341
728.504	0.0143962
728.582	0.0144457
728.660	0.0144157
728.738	0.0144383
728.817	0.0141525
728.895	0.0142621
728.973	0.0144006
729.051	0.0144433
729.129	0.0142664
729.207	0.0143484
729.285	0.0143395
729.363	0.0142597
729.442	0.0142503
729.520	0.0143657
729.598	0.0142531
729.676	0.0141602
729.754	0.0143027
729.832	0.0142200
729.910	0.0142693
729.988	0.0141740
730.067	0.0141843
730.145	0.0143130
730.223	0.0143930
730.301	0.0144070
730.379	0.0143572
730.457	0.0142730
730.535	0.0144382
730.613	0.0143488
730.692	0.0144630
730.770	0.0144996
730.848	0.0145484
730.926	0.0146262
731.004	0.0145078
731.082	0.0144671
731.160	0.0144673
731.238	0.0145090
731.317	0.0144795
731.395	0.0144663
731.473	0.0144074
731.551	0.0144644
731.629	0.0144308
731.707	0.0143934
731.785	0.0142563
731.863	0.0142618
731.942	0.0143955
732.020	0.0143138
732.098	0.0142747
732.176	0.0143157
732.254	0.0143351
732.332	0.0143175
732.410	0.0142729
732.488	0.0141994
732.567	0.0144556
732.645	0.0141072
732.723	0.0141376
732.801	0.0142867
732.879	0.0143321
732.957	0.0142444
733.035	0.0142912
733.113	0.0143800
733.192	0.0142997
733.270	0.0143011
733.348	0.0141651
733.426	0.0141735
733.504	0.0143481
733.582	0.0143114
733.660	0.0142992
733.738	0.0142760
733.817	0.0144419
733.895	0.0143591
733.973	0.0144294
734.051	0.0143708
734.129	0.0143710
734.207	0.0144521
734.285	0.0144155
734.363	0.0144258
734.442	0.0144667
734.520	0.0143310
734.598	0.0142500
734.676	0.0143764
734.754	0.0144579
734.832	0.0142800
734.910	0.0143116
734.988	0.0142542
735.067	0.0141969
735.145	0.0142796
735.223	0.0143259
735.301	0.0142645
735.379	0.0142393
735.457	0.0143469
735.535	0.0144394
735.613	0.0144448
735.692	0.0143151
735.770	0.0143080
735.848	0.0143304
735.926	0.0143129
736.004	0.0143631
736.082	0.0144872
736.160	0.0143609
736.238	0.0143718
736.317	0.0144666
736.395	0.0144042
736.473	0.0144174
736.551	0.0144482
736.629	0.0144112
736.707	0.0144176
736.785	0.0145004
736.863	0.0143409
736.942	0.0142804
737.020	0.0145042
737.098	0.0145644
737.176	0.0143546
737.254	0.0144537
737.332	0.0144346
737.410	0.0145149
737.488	0.0143541
737.567	0.0145232
737.645	0.0145679
737.723	0.0144582
737.801	0.0144544
737.879	0.0144790
737.957	0.0144098
738.035	0.0142799
738.113	0.0143330
738.192	0.0143796
738.270	0.0144630
738.348	0.0144612
738.426	0.0144340
738.504	0.0143683
738.582	0.0144098
738.660	0.0143504
738.738	0.0142213
738.817	0.0144342
738.895	0.0142159
738.973	0.0143803
739.051	0.0143777
739.129	0.0143616
739.207	0.0142963
739.285	0.0143831
739.363	0.0143013
739.442	0.0142310
739.520	0.0144060
739.598	0.0142273
739.676	0.0141446
739.754	0.0143946
739.832	0.0141137
739.910	0.0141930
739.988	0.0141730
740.067	0.0141886
740.145	0.0140164
740.223	0.0141604
740.301	0.0142234
740.379	0.0141584
740.457	0.0139930
740.535	0.0141689
740.613	0.0142657
740.692	0.0141496
740.770	0.0142882
740.848	0.0142893
740.926	0.0142129
741.004	0.0142648
741.082	0.0144119
741.160	0.0144199
741.238	0.0144789
741.317	0.0144874
741.395	0.0144791
741.473	0.0145197
741.551	0.0146760
741.629	0.0146025
741.707	0.0145458
741.785	0.0144772
741.863	0.0144398
741.942	0.0144480
742.020	0.0144608
742.098	0.0143660
742.176	0.0145659
742.254	0.0144063
742.332	0.0143281
742.410	0.0144383
742.488	0.0144366
742.567	0.0142160
742.645	0.0142882
742.723	0.0142152
742.801	0.0142143
742.879	0.0142050
742.957	0.0141465
743.035	0.0142164
743.113	0.0140835
743.192	0.0141301
743.270	0.0141073
743.348	0.0141867
743.426	0.0139827
743.504	0.0141090
743.582	0.0141422
743.660	0.0140811
743.738	0.0142519
743.817	0.0142078
743.895	0.0143134
743.973	0.0143472
744.051	0.0143405
744.129	0.0143916
744.207	0.0142812
744.285	0.0143121
744.363	0.0144673
744.442	0.0144648
744.520	0.0142587
744.598	0.0144135
744.676	0.0143587
744.754	0.0143806
744.832	0.0144167
744.910	0.0145221
744.988	0.0142532
745.067	0.0142535
745.145	0.0143649
745.223	0.0144273
745.301	0.0142418
745.379	0.0143928
745.457	0.0142606
745.535	0.0143222
745.613	0.0144205
745.692	0.0144345
745.770	0.0143504
745.848	0.0143405
745.926	0.0143331
746.004	0.0143864
746.082	0.0144543
746.160	0.0143481
746.238	0.0144276
746.317	0.0144287
746.395	0.0144406
746.473	0.0144036
746.551	0.0144142
746.629	0.0144051
746.707	0.0143836
746.785	0.0144659
746.863	0.0144673
746.942	0.0143338
747.020	0.0144091
747.098	0.0144289
747.176	0.0143481
747.254	0.0144434
747.332	0.0145389
747.410	0.0143078
747.488	0.0144256
747.567	0.0144724
747.645	0.0144194
747.723	0.0145711
747.801	0.0144381
747.879	0.0144818
747.957	0.0145233
748.035	0.0145643
748.113	0.0144601
748.192	0.0145660
748.270	0.0145647
748.348	0.0144207
748.426	0.0144257
748.504	0.0144260
748.582	0.0145569
748.660	0.0145319
748.738	0.0145016
748.817	0.0145147
748.895	0.0144180
748.973	0.0143373
749.051	0.0145254
749.129	0.0145219
749.207	0.0145406
749.285	0.0145682
749.363	0.0146653
749.442	0.0144792
749.520	0.0145536
749.598	0.0146179
749.676	0.0145111
749.754	0.0145085
749.832	0.0145351
749.910	0.0145219
749.988	0.0145030
750.067	0.0146767
750.145	0.0143934
750.223	0.0143489
750.301	0.0144162
750.379	0.0143927
750.457	0.0144557
750.535	0.0144178
750.613	0.0144564
750.692	0.0143170
750.770	0.0143314
750.848	0.0144350
750.926	0.0143899
751.004	0.0142429
751.082	0.0144102
751.160	0.0144342
751.238	0.0143089
751.317	0.0143163
751.395	0.0142773
751.473	0.0144280
751.551	0.0143967
751.629	0.0144881
751.707	0.0143582
751.785	0.0144602
751.863	0.0145658
751.942	0.0146071
752.020	0.0146855
752.098	0.0145663
752.176	0.0144669
752.254	0.0145552
752.332	0.0146589
752.410	0.0146033
752.488	0.0145146
752.567	0.0146660
752.645	0.0146571
752.723	0.0145522
752.801	0.0144131
752.879	0.0144615
752.957	0.0143411
753.035	0.0145058
753.113	0.0144624
753.192	0.0144180
753.270	0.0145004
753.348	0.0143430
753.426	0.0144162
753.504	0.0144527
753.582	0.0144260
753.660	0.0144557
753.738	0.0142796
753.817	0.0146033
753.895	0.0143786
753.973	0.0143567
754.051	0.0144090
754.129	0.0143004
754.207	0.0143442
754.285	0.0144910
754.363	0.0144241
754.442	0.0143502
754.520	0.0144389
754.598	0.0144670
754.676	0.0144080
754.754	0.0144099
754.832	0.0144582
754.910	0.0144061
754.988	0.0142113
755.067	0.0142572
755.145	0.0144289
755.223	0.0144221
755.301	0.0143531
755.379	0.0143710
755.457	0.0143717
755.535	0.0145149
755.613	0.0144438
755.692	0.0142612
755.770	0.0143864
755.848	0.0142495
755.926	0.0142482
756.004	0.0143182
756.082	0.0143519
756.160	0.0142482
756.238	0.0142168
756.317	0.0143294
756.395	0.0143317
756.473	0.0142258
756.551	0.0142552
756.629	0.0142629
756.707	0.0142440
756.785	0.0141247
756.863	0.0143188
756.942	0.0143673
757.020	0.0142267
757.098	0.0142709
757.176	0.0143334
757.254	0.0142730
757.332	0.0144523
757.410	0.0143258
757.488	0.0144318
757.567	0.0146032
757.645	0.0144581
757.723	0.0144150
757.801	0.0143743
757.879	0.0143289
757.957	0.0145087
758.035	0.0142828
758.113	0.0144019
758.192	0.0144631
758.270	0.0144163
758.348	0.0144347
758.426	0.0143419
758.504	0.0143673
758.582	0.0143929
758.660	0.0143974
758.738	0.0143941
758.817	0.0142860
758.895	0.0142738
758.973	0.0143238
759.051	0.0142152
759.129	0.0143110
759.207	0.0142841
759.285	0.0143913
759.363	0.0142969
759.442	0.0142626
759.520	0.0142635
759.598	0.0143024
759.676	0.0142886
759.754	0.0142891
759.832	0.0142649
759.910	0.0143317
759.988	0.0144461
760.067	0.0143190
760.145	0.0143686
760.223	0.0143355
760.301	0.0143736
760.379	0.0142562
760.457	0.0143885
760.535	0.0142889
760.613	0.0142761
760.692	0.0143080
760.770	0.0142624
760.848	0.0142918
760.926	0.0143607
761.004	0.0143450
761.082	0.0143839
761.160	0.0142308
761.238	0.0142182
761.317	0.0141261
761.395	0.0141946
761.473	0.0142445
761.551	0.0142197
761.629	0.0142963
761.707	0.0142065
761.785	0.0140649
761.863	0.0141486
761.942	0.0142303
762.020	0.0142415
762.098	0.0142795
762.176	0.0142370
762.254	0.0142179
762.332	0.0142887
762.410	0.0142683
762.488	0.0141813
762.567	0.0142945
762.645	0.0142698
762.723	0.0142712
762.801	0.0142637
762.879	0.0142280
762.957	0.0141422
763.035	0.0141342
763.113	0.0142174
763.192	0.0142724
763.270	0.0142611
763.348	0.0140583
763.426	0.0141629
763.504	0.0141498
763.582	0.0139898
763.660	0.0141035
763.738	0.0141727
763.817	0.0141077
763.895	0.0140492
763.973	0.0141926
764.051	0.0140924
764.129	0.0140704
764.207	0.0142014
764.285	0.0141466
764.363	0.0141116
764.442	0.0141331
764.520	0.0140543
764.598	0.0142907
764.676	0.0143648
764.754	0.0140870
764.832	0.0142293
764.910	0.0142448
764.988	0.0143412
765.067	0.0142971
765.145	0.0144378
765.223	0.0143604
765.301	0.0143361
765.379	0.0144291
765.457	0.0143824
765.535	0.0143448
765.613	0.0144653
765.692	0.0144170
765.770	0.0142790
765.848	0.0144861
765.926	0.0143128
766.004	0.0143018
766.082	0.0143443
766.160	0.0145142
766.238	0.0143895
766.317	0.0143032
766.395	0.0142213
766.473	0.0142661
766.551	0.0142564
766.629	0.0143106
766.707	0.0141489
766.785	0.0142568
766.863	0.0142974
766.942	0.0143295
767.020	0.0142886
767.098	0.0142374
767.176	0.0143922
767.254	0.0142723
767.332	0.0142336
767.410	0.0142002
767.488	0.0143886
767.567	0.0144321
767.645	0.0143602
767.723	0.0142977
767.801	0.0143245
767.879	0.0143872
767.957	0.0141992
768.035	0.0143463
768.113	0.0143025
768.192	0.0143063
768.270	0.0142802
768.348	0.0143178
768.426	0.0142921
768.504	0.0141727
768.582	0.0142336
768.660	0.0143193
768.738	0.0142678
768.817	0.0143782
768.895	0.0143407
768.973	0.0142808
769.051	0.0141824
769.129	0.0144515
769.207	0.0142645
769.285	0.0142545
769.363	0.0143967
769.442	0.0143051
769.520	0.0142575
769.598	0.0142630
769.676	0.0143367
769.754	0.0144112
769.832	0.0142770
769.910	0.0143658
769.988	0.0142715
770.067	0.0143807
770.145	0.0144279
770.223	0.0144404
770.301	0.0143931
770.379	0.0144582
770.457	0.0144324
770.535	0.0144157
770.613	0.0143819
770.692	0.0143953
770.770	0.0143849
770.848	0.0143907
770.926	0.0146533
771.004	0.0145508
771.082	0.0144667
771.160	0.0144197
771.238	0.0143827
771.317	0.0143888
771.395	0.0144382
771.473	0.0143030
771.551	0.0143640
771.629	0.0143372
771.707	0.0143560
771.785	0.0142449
771.863	0.0142149
771.942	0.0143387
772.020	0.0141494
772.098	0.0141505
772.176	0.0141034
772.254	0.0141149
772.332	0.0143037
772.410	0.0141373
772.488	0.0141470
772.567	0.0141132
772.645	0.0140808
772.723	0.0141555
772.801	0.0141359
772.879	0.0140113
772.957	0.0141562
773.035	0.0141695
773.113	0.0141500
773.192	0.0142191
773.270	0.0141847
773.348	0.0142324
773.426	0.0141825
773.504	0.0141843
773.582	0.0142343
773.660	0.0142126
773.738	0.0142152
773.817	0.0143031
773.895	0.0143575
773.973	0.0143590
774.051	0.0144089
774.129	0.0142762
774.207	0.0141767
774.285	0.0142604
774.363	0.0144157
774.442	0.0143955
774.520	0.0143045
774.598	0.0142909
774.676	0.0144419
774.754	0.0144017
774.832	0.0144227
774.910	0.0145000
774.988	0.0142983
775.067	0.0142531
775.145	0.0144188
775.223	0.0143124
775.301	0.0143396
775.379	0.0143233
775.457	0.0142471
775.535	0.0142608
775.613	0.0144035
775.692	0.0142690
775.770	0.0143450
775.848	0.0142350
775.926	0.0143141
776.004	0.0142580
776.082	0.0141776
776.160	0.0142410
776.238	0.0142721
776.317	0.0142754
776.395	0.0143439
776.473	0.0143433
776.551	0.0143642
776.629	0.0143086
776.707	0.0142867
776.785	0.0143581
776.863	0.0143017
776.942	0.0143625
777.020	0.0143944
777.098	0.0142828
777.176	0.0143406
777.254	0.0143082
777.332	0.0143219
777.410	0.0142971
777.488	0.0143233
777.567	0.0145325
777.645	0.0144022
777.723	0.0142963
777.801	0.0144616
777.879	0.0143427
777.957	0.0143681
778.035	0.0142596
778.113	0.0143907
778.192	0.0143199
778.270	0.0143040
778.348	0.0143791
778.426	0.0143819
778.504	0.0142836
778.582	0.0143105
778.660	0.0142998
778.738	0.0143113
778.817	0.0143948
778.895	0.0143356
778.973	0.0143797
779.051	0.0142313
779.129	0.0142646
779.207	0.0141511
779.285	0.0143043
779.363	0.0143642
779.442	0.0142690
779.520	0.0142336
779.598	0.0144635
779.676	0.0144779
779.754	0.0143270
779.832	0.0142065
779.910	0.0142431
779.988	0.0141731
780.067	0.0142054
780.145	0.0142480
780.223	0.0141127
780.301	0.0141954
780.379	0.0141373
780.457	0.0140935
780.535	0.0142105
780.613	0.0141456
780.692	0.0140836
780.770	0.0141026
780.848	0.0141022
780.926	0.0141552
781.004	0.0141193
781.082	0.0142053
781.160	0.0141761
781.238	0.0140530
781.317	0.0141532
781.395	0.0140584
781.473	0.0141061
781.551	0.0140787
781.629	0.0140861
781.707	0.0140285
781.785	0.0140882
781.863	0.0141171
781.942	0.0141029
782.020	0.0139990
782.098	0.0142390
782.176	0.0142754
782.254	0.0141503
782.332	0.0140691
782.410	0.0141095
782.488	0.0141269
782.567	0.0142142
782.645	0.0141550
782.723	0.0141099
782.801	0.0142319
782.879	0.0141824
782.957	0.0140742
783.035	0.0142502
783.113	0.0142316
783.192	0.0142180
783.270	0.0142001
783.348	0.0142969
783.426	0.0142005
783.504	0.0140829
783.582	0.0141349
783.660	0.0141938
783.738	0.0142492
783.817	0.0142270
783.895	0.0142162
783.973	0.0142974
784.051	0.0143090
784.129	0.0141656
784.207	0.0143042
784.285	0.0144397
784.363	0.0143536
784.442	0.0143827
784.520	0.0144108
784.598	0.0143217
784.676	0.0144084
784.754	0.0144663
784.832	0.0143292
784.910	0.0142609
784.988	0.0144129
785.067	0.0144738
785.145	0.0144691
785.223	0.0143262
785.301	0.0143697
785.379	0.0144213
785.457	0.0143449
785.535	0.0145649
785.613	0.0144645
785.692	0.0144974
785.770	0.0143606
785.848	0.0144419
785.926	0.0146465
786.004	0.0144315
786.082	0.0143262
786.160	0.0142923
786.238	0.0145240
786.317	0.0144785
786.395	0.0144791
786.473	0.0144183
786.551	0.0144453
786.629	0.0143346
786.707	0.0143986
786.785	0.0144549
786.863	0.0144590
786.942	0.0144193
787.020	0.0142420
787.098	0.0143939
787.176	0.0144873
787.254	0.0142997
787.332	0.0142412
787.410	0.0144279
787.488	0.0143295
787.567	0.0143736
787.645	0.0145253
787.723	0.0143463
787.801	0.0144172
787.879	0.0143718
787.957	0.0144513
788.035	0.0143383
788.113	0.0143915
788.192	0.0143270
788.270	0.0143025
788.348	0.0141808
788.426	0.0142221
788.504	0.0142118
788.582	0.0142661
788.660	0.0142452
788.738	0.0143081
788.817	0.0139761
788.895	0.0142186
788.973	0.0141961
789.051	0.0142139
789.129	0.0141798
789.207	0.0140842
789.285	0.0140430
789.363	0.0140842
789.442	0.0141833
789.520	0.0142438
789.598	0.0140854
789.676	0.0141396
789.754	0.0142371
789.832	0.0140691
789.910	0.0142110
789.988	0.0143732
790.067	0.0141778
790.145	0.0141187
790.223	0.0141948
790.301	0.0141096
790.379	0.0142219
790.457	0.0142601
790.535	0.0141341
790.613	0.0142574
790.692	0.0142049
790.770	0.0142534
790.848	0.0143338
790.926	0.0142032
791.004	0.0142130
791.082	0.0142622
791.160	0.0142831
791.238	0.0142064
791.317	0.0142745
791.395	0.0142216
791.473	0.0142354
791.551	0.0142126
791.629	0.0143835
791.707	0.0143570
791.785	0.0142408
791.863	0.0144212
791.942	0.0143090
792.020	0.0142893
792.098	0.0142875
792.176	0.0142165
792.254	0.0142332
792.332	0.0142082
792.410	0.0142993
792.488	0.0143485
792.567	0.0143075
792.645	0.0143988
792.723	0.0142716
792.801	0.0142052
792.879	0.0142412
792.957	0.0142350
793.035	0.0143018
793.113	0.0142406
793.192	0.0142902
793.270	0.0143001
793.348	0.0142581
793.426	0.0141548
793.504	0.0143060
793.582	0.0143011
793.660	0.0143082
793.738	0.0141801
793.817	0.0140836
793.895	0.0142741
793.973	0.0141690
794.051	0.0141341
794.129	0.0142368
794.207	0.0143587
794.285	0.0141454
794.363	0.0143605
794.442	0.0142286
794.520	0.0143011
794.598	0.0144079
794.676	0.0142961
794.754	0.0141971
794.832	0.0141698
794.910	0.0142789
794.988	0.0142858
795.067	0.0143066
795.145	0.0143649
795.223	0.0144122
795.301	0.0143119
795.379	0.0143340
795.457	0.0144272
795.535	0.0144157
795.613	0.0144021
795.692	0.0143408
795.770	0.0143549
795.848	0.0141827
795.926	0.0143299
796.004	0.0144225
796.082	0.0144011
796.160	0.0142898
796.238	0.0142368
796.317	0.0142878
796.395	0.0143540
796.473	0.0143134
796.551	0.0142511
796.629	0.0141386
796.707	0.0141391
796.785	0.0142651
796.863	0.0144433
796.942	0.0142914
797.020	0.0141970
797.098	0.0143188
797.176	0.0143478
797.254	0.0142934
797.332	0.0140862
797.410	0.0142258
797.488	0.0142719
797.567	0.0142072
797.645	0.0141965
797.723	0.0142059
797.801	0.0143745
797.879	0.0142461
797.957	0.0141560
798.035	0.0143842
798.113	0.0142549
798.192	0.0143749
798.270	0.0143172
798.348	0.0142196
798.426	0.0144550
798.504	0.0142722
798.582	0.0142128
798.660	0.0142113
798.738	0.0143484
798.817	0.0143261
798.895	0.0143765
798.973	0.0141947
799.051	0.0142199
799.129	0.0142477
799.207	0.0142207
799.285	0.0142262
799.363	0.0141131
799.442	0.0142461
799.520	0.0142635
799.598	0.0142486
799.676	0.0141521
799.754	0.0141878
799.832	0.0143266
799.910	0.0142213
799.988	0.0142480
800.067	0.0141665
800.145	0.0142529
800.223	0.0142795
800.301	0.0141501
800.379	0.0142962
800.457	0.0143988
800.535	0.0142223
800.613	0.0142479
800.692	0.0142946
800.770	0.0141777
800.848	0.0142746
800.926	0.0141872
801.004	0.0142472
801.082	0.0142324
801.160	0.0141913
801.238	0.0142868
801.317	0.0142728
801.395	0.0142210
801.473	0.0141171
801.551	0.0142333
801.629	0.0141484
801.707	0.0141977
801.785	0.0141928
801.863	0.0141735
801.942	0.0140936
802.020	0.0140850
802.098	0.0143729
802.176	0.0142313
802.254	0.0141219
802.332	0.0143076
802.410	0.0141801
802.488	0.0142283
802.567	0.0140934
802.645	0.0141202
802.723	0.0141758
802.801	0.0141418
802.879	0.0143524
802.957	0.0142394
803.035	0.0141924
803.113	0.0141818
803.192	0.0142947
803.270	0.0143060
803.348	0.0142699
803.426	0.0142077
803.504	0.0143586
803.582	0.0143995
803.660	0.0142632
803.738	0.0142314
803.817	0.0142535
803.895	0.0142711
803.973	0.0142699
804.051	0.0142025
804.129	0.0141937
804.207	0.0141980
804.285	0.0143585
804.363	0.0142975
804.442	0.0142026
804.520	0.0141156
804.598	0.0142114
804.676	0.0141721
804.754	0.0142601
804.832	0.0141722
804.910	0.0142604
804.988	0.0141717
805.067	0.0140676
805.145	0.0142469
805.223	0.0141248
805.301	0.0141491
805.379	0.0140958
805.457	0.0142273
805.535	0.0140993
805.613	0.0141641
805.692	0.0141179
805.770	0.0143145
805.848	0.0143011
805.926	0.0142377
806.004	0.0141508
806.082	0.0142319
806.160	0.0142887
806.238	0.0142565
806.317	0.0140608
806.395	0.0141922
806.473	0.0140858
806.551	0.0140292
806.629	0.0141438
806.707	0.0142641
806.785	0.0140099
806.863	0.0140794
806.942	0.0141597
807.020	0.0141496
807.098	0.0141134
807.176	0.0141171
807.254	0.0142659
807.332	0.0140434
807.410	0.0141788
807.488	0.0141600
807.567	0.0141869
807.645	0.0142430
807.723	0.0142465
807.801	0.0142081
807.879	0.0141985
807.957	0.0141515
808.035	0.0142177
808.113	0.0141844
808.192	0.0143911
808.270	0.0143238
808.348	0.0142946
808.426	0.0142973
808.504	0.0143032
808.582	0.0145189
808.660	0.0143608
808.738	0.0142918
808.817	0.0143472
808.895	0.0143640
808.973	0.0144926
809.051	0.0143932
809.129	0.0143630
809.207	0.0144472
809.285	0.0143870
809.363	0.0144945
809.442	0.0144878
809.520	0.0142373
809.598	0.0144688
809.676	0.0145692
809.754	0.0144079
809.832	0.0143168
809.910	0.0144676
809.988	0.0145258
810.067	0.0144341
810.145	0.0144543
810.223	0.0144366
810.301	0.0145832
810.379	0.0144771
810.457	0.0145130
810.535	0.0144019
810.613	0.0145847
810.692	0.0145014
810.770	0.0146336
810.848	0.0145013
810.926	0.0145354
811.004	0.0146622
811.082	0.0146187
811.160	0.0145110
811.238	0.0145020
811.317	0.0145447
811.395	0.0145783
811.473	0.0145026
811.551	0.0145008
811.629	0.0146056
811.707	0.0145689
811.785	0.0144729
811.863	0.0144190
811.942	0.0143491
812.020	0.0144847
812.098	0.0143715
812.176	0.0143649
812.254	0.0142973
812.332	0.0144296
812.410	0.0143471
812.488	0.0143640
812.567	0.0144125
812.645	0.0143577
812.723	0.0143032
812.801	0.0144475
812.879	0.0144646
812.957	0.0143539
813.035	0.0143826
813.113	0.0143768
813.192	0.0143925
813.270	0.0142205
813.348	0.0144311
813.426	0.0143832
813.504	0.0141330
813.582	0.0143431
813.660	0.0145358
813.738	0.0143638
813.817	0.0143202
813.895	0.0144881
813.973	0.0143283
814.051	0.0143697
814.129	0.0144078
814.207	0.0143150
814.285	0.0142942
814.363	0.0143346
814.442	0.0142677
814.520	0.0145164
814.598	0.0144562
814.676	0.0143395
814.754	0.0143172
814.832	0.0143925
814.910	0.0143880
814.988	0.0143941
815.067	0.0144347
815.145	0.0143626
815.223	0.0145074
815.301	0.0144476
815.379	0.0144455
815.457	0.0144486
815.535	0.0143472
815.613	0.0144055
815.692	0.0143984
815.770	0.0144427
815.848	0.0144445
815.926	0.0146130
816.004	0.0144787
816.082	0.0144422
816.160	0.0144048
816.238	0.0144225
816.317	0.0144965
816.395	0.0143821
816.473	0.0144913
816.551	0.0144366
816.629	0.0145687
816.707	0.0144612
816.785	0.0144884
816.863	0.0145650
816.942	0.0143141
817.020	0.0145469
817.098	0.0145084
817.176	0.0144585
817.254	0.0144861
817.332	0.0145407
817.410	0.0145421
817.488	0.0145126
817.567	0.0144254
817.645	0.0145119
817.723	0.0145480
817.801	0.0144411
817.879	0.0144646
817.957	0.0145475
818.035	0.0144967
818.113	0.0144669
818.192	0.0143543
818.270	0.0143943
818.348	0.0144016
818.426	0.0143255
818.504	0.0144505
818.582	0.0143359
818.660	0.0143621
818.738	0.0145110
818.817	0.0142947
818.895	0.0142838
818.973	0.0145124
819.051	0.0144218
819.129	0.0143723
819.207	0.0143260
819.285	0.0144049
819.363	0.0143858
819.442	0.0143449
819.520	0.0143410
819.598	0.0143665
819.676	0.0143563
819.754	0.0143725
819.832	0.0143398
819.910	0.0142680
819.988	0.0143118
820.067	0.0144714
820.145	0.0143177
820.223	0.0142979
820.301	0.0144718
820.379	0.0143922
820.457	0.0144643
820.535	0.0142522
820.613	0.0142779
820.692	0.0142787
820.770	0.0143523
820.848	0.0141384
820.926	0.0143841
821.004	0.0142502
821.082	0.0142623
821.160	0.0142625
821.238	0.0141680
821.317	0.0141460
821.395	0.0142612
821.473	0.0142342
821.551	0.0141079
821.629	0.0140707
821.707	0.0141962
821.785	0.0143633
821.863	0.0142799
821.942	0.0141266
822.020	0.0141036
822.098	0.0140877
822.176	0.0143855
822.254	0.0142107
822.332	0.0143023
822.410	0.0141658
822.488	0.0143664
822.567	0.0141620
822.645	0.0142886
822.723	0.0142242
822.801	0.0142244
822.879	0.0142619
822.957	0.0143053
823.035	0.0144692
823.113	0.0143594
823.192	0.0143590
823.270	0.0142569
823.348	0.0143380
823.426	0.0142691
823.504	0.0143166
823.582	0.0143892
823.660	0.0144209
823.738	0.0143713
823.817	0.0143330
823.895	0.0144240
823.973	0.0142930
824.051	0.0143573
824.129	0.0143551
824.207	0.0143609
824.285	0.0143864
824.363	0.0143442
824.442	0.0144645
824.520	0.0143919
824.598	0.0146033
824.676	0.0144627
824.754	0.0144842
824.832	0.0144314
824.910	0.0144952
824.988	0.0144266
825.067	0.0144720
825.145	0.0144322
825.223	0.0143073
825.301	0.0144270
825.379	0.0145827
825.457	0.0143916
825.535	0.0143669
825.613	0.0144888
825.692	0.0144761
825.770	0.0144612
825.848	0.0143246
825.926	0.0145091
826.004	0.0144827
826.082	0.0145095
826.160	0.0144398
826.238	0.0144469
826.317	0.0145023
826.395	0.0144746
826.473	0.0143433
826.551	0.0144875
826.629	0.0144481
826.707	0.0144578
826.785	0.0145974
826.863	0.0143703
826.942	0.0144109
827.020	0.0145492
827.098	0.0143758
827.176	0.0144136
827.254	0.0144868
827.332	0.0142892
827.410	0.0142456
827.488	0.0143350
827.567	0.0144239
827.645	0.0143478
827.723	0.0141692
827.801	0.0143552
827.879	0.0143767
827.957	0.0143301
828.035	0.0142175
828.113	0.0143362
828.192	0.0143861
828.270	0.0144878
828.348	0.0141985
828.426	0.0143419
828.504	0.0142501
828.582	0.0143105
828.660	0.0142820
828.738	0.0143702
828.817	0.0141702
828.895	0.0142739
828.973	0.0141023
829.051	0.0141214
829.129	0.0141434
829.207	0.0141726
829.285	0.0141817
829.363	0.0141856
829.442	0.0141794
829.520	0.0141365
829.598	0.0141809
829.676	0.0143134
829.754	0.0142331
829.832	0.0140712
829.910	0.0141174
829.988	0.0142181
830.067	0.0141835
830.145	0.0142442
830.223	0.0142164
830.301	0.0142123
830.379	0.0142325
830.457	0.0142776
830.535	0.0141978
830.613	0.0143443
830.692	0.0141903
830.770	0.0141997
830.848	0.0142405
830.926	0.0141805
831.004	0.0141562
831.082	0.0142001
831.160	0.0143793
831.238	0.0142006
831.317	0.0142620
831.395	0.0141882
831.473	0.0142517
831.551	0.0142999
831.629	0.0142155
831.707	0.0142570
831.785	0.0142080
831.863	0.0142017
831.942	0.0141994
832.020	0.0142488
832.098	0.0142500
832.176	0.0141133
832.254	0.0142330
832.332	0.0141813
832.410	0.0140823
832.488	0.0141335
832.567	0.0142519
832.645	0.0141830
832.723	0.0142358
832.801	0.0141718
832.879	0.0142844
832.957	0.0143138
833.035	0.0143572
833.113	0.0141730
833.192	0.0142419
833.270	0.0142116
833.348	0.0143975
833.426	0.0143773
833.504	0.0143819
833.582	0.0142832
833.660	0.0143014
833.738	0.0142881
833.817	0.0143394
833.895	0.0144352
833.973	0.0143158
834.051	0.0143495
834.129	0.0142754
834.207	0.0144553
834.285	0.0144218
834.363	0.0144260
834.442	0.0143497
834.520	0.0143792
834.598	0.0143644
834.676	0.0142956
834.754	0.0143147
834.832	0.0143198
834.910	0.0143237
834.988	0.0142433
835.067	0.0142477
835.145	0.0144693
835.223	0.0143114
835.301	0.0144354
835.379	0.0144427
835.457	0.0143559
835.535	0.0144630
835.613	0.0144286
835.692	0.0143934
835.770	0.0143796
835.848	0.0144619
835.926	0.0146107
836.004	0.0146175
836.082	0.0144427
836.160	0.0144684
836.238	0.0144928
836.317	0.0144797
836.395	0.0144951
836.473	0.0144518
836.551	0.0144742
836.629	0.0144759
836.707	0.0143499
836.785	0.0144923
836.863	0.0144785
836.942	0.0143975
837.020	0.0144699
837.098	0.0144115
837.176	0.0143455
837.254	0.0143880
837.332	0.0144046
837.410	0.0145351
837.488	0.0143375
837.567	0.0145090
837.645	0.0144562
837.723	0.0144332
837.801	0.0143564
837.879	0.0144142
837.957	0.0143752
838.035	0.0144062
838.113	0.0143026
838.192	0.0143790
838.270	0.0144206
838.348	0.0143093
838.426	0.0143600
838.504	0.0143797
838.582	0.0142634
838.660	0.0143833
838.738	0.0144273
838.817	0.0143902
838.895	0.0143678
838.973	0.0143683
839.051	0.0143554
839.129	0.0144214
839.207	0.0144450
839.285	0.0143618
839.363	0.0143259
839.442	0.0142620
839.520	0.0143194
839.598	0.0143918
839.676	0.0144228
839.754	0.0143176
839.832	0.0144090
839.910	0.0143867
839.988	0.0144673
840.067	0.0143283
840.145	0.0142651
840.223	0.0144472
840.301	0.0143683
840.379	0.0141610
840.457	0.0143480
840.535	0.0143333
840.613	0.0143883
840.692	0.0145016
840.770	0.0144466
840.848	0.0144548
840.926	0.0143742
841.004	0.0143599
841.082	0.0144870
841.160	0.0143988
841.238	0.0144743
841.317	0.0145255
841.395	0.0144130
841.473	0.0144540
841.551	0.0144253
841.629	0.0144236
841.707	0.0145069
841.785	0.0143743
841.863	0.0144446
841.942	0.0144610
842.020	0.0144485
842.098	0.0142831
842.176	0.0143462
842.254	0.0144231
842.332	0.0144694
842.410	0.0142677
842.488	0.0142348
842.567	0.0142799
842.645	0.0142961
842.723	0.0143246
842.801	0.0141371
842.879	0.0141652
842.957	0.0142271
843.035	0.0141339
843.113	0.0141969
843.192	0.0142662
843.270	0.0142642
843.348	0.0140724
843.426	0.0143031
843.504	0.0142881
843.582	0.0142041
843.660	0.0140498
843.738	0.0141707
843.817	0.0141948
843.895	0.0142225
843.973	0.0142597
844.051	0.0143298
844.129	0.0141427
844.207	0.0142350
844.285	0.0142276
844.363	0.0142195
844.442	0.0143722
844.520	0.0143404
844.598	0.0142352
844.676	0.0142918
844.754	0.0142708
844.832	0.0142631
844.910	0.0142945
844.988	0.0143823
845.067	0.0143687
845.145	0.0143544
845.223	0.0143736
845.301	0.0143546
845.379	0.0143307
845.457	0.0143426
845.535	0.0142754
845.613	0.0141927
845.692	0.0141936
845.770	0.0142904
845.848	0.0143659
845.926	0.0143478
846.004	0.0142616
846.082	0.0142748
846.160	0.0142390
846.238	0.0142278
846.317	0.0142234
846.395	0.0144070
846.473	0.0142805
846.551	0.0143356
846.629	0.0143787
846.707	0.0142155
846.785	0.0143712
846.863	0.0144844
846.942	0.0144472
847.020	0.0145130
847.098	0.0143188
847.176	0.0143693
847.254	0.0144276
847.332	0.0143068
847.410	0.0142811
847.488	0.0143468
847.567	0.0145519
847.645	0.0144827
847.723	0.0144736
847.801	0.0144065
847.879	0.0143208
847.957	0.0143467
848.035	0.0143236
848.113	0.0144778
848.192	0.0143778
848.270	0.0144107
848.348	0.0143199
848.426	0.0142349
848.504	0.0143752
848.582	0.0143880
848.660	0.0143157
848.738	0.0142121
848.817	0.0144306
848.895	0.0142863
848.973	0.0142957
849.051	0.0142020
849.129	0.0142747
849.207	0.0142537
849.285	0.0142653
849.363	0.0142908
849.442	0.0142592
849.520	0.0143504
849.598	0.0142849
849.676	0.0143014
849.754	0.0142200
849.832	0.0142943
849.910	0.0141998
849.988	0.0143690
850.067	0.0144566
850.145	0.0142819
850.223	0.0144479
850.301	0.0144925
850.379	0.0142512
850.457	0.0145024
850.535	0.0145809
850.613	0.0143983
850.692	0.0144299
850.770	0.0144443
850.848	0.0143435
850.926	0.0143218
851.004	0.0144685
851.082	0.0145129
851.160	0.0144099
851.238	0.0144598
851.317	0.0144601
851.395	0.0143694
851.473	0.0143501
851.551	0.0144746
851.629	0.0144528
851.707	0.0142950
851.785	0.0144743
851.863	0.0143993
851.942	0.0144223
852.020	0.0144515
852.098	0.0144247
852.176	0.0143977
852.254	0.0143220
852.332	0.0143780
852.410	0.0144611
852.488	0.0145323
852.567	0.0145110
852.645	0.0143476
852.723	0.0145425
852.801	0.0145282
852.879	0.0144277
852.957	0.0144973
853.035	0.0145098
853.113	0.0144164
853.192	0.0144155
853.270	0.0143820
853.348	0.0144147
853.426	0.0143646
853.504	0.0142817
853.582	0.0142294
853.660	0.0143684
853.738	0.0142833
853.817	0.0143510
853.895	0.0142735
853.973	0.0143162
854.051	0.0142544
854.129	0.0141399
854.207	0.0141740
854.285	0.0141709
854.363	0.0141616
854.442	0.0141319
854.520	0.0141248
854.598	0.0140331
854.676	0.0140067
854.754	0.0140623
854.832	0.0140731
854.910	0.0141187
854.988	0.0140099
855.067	0.0139133
855.145	0.0139718
855.223	0.0140923
855.301	0.0139860
855.379	0.0141115
855.457	0.0140175
855.535	0.0140721
855.613	0.0142413
855.692	0.0141459
855.770	0.0140276
855.848	0.0141847
855.926	0.0141406
856.004	0.0140714
856.082	0.0140970
856.160	0.0141106
856.238	0.0143143
856.317	0.0142561
856.395	0.0142817
856.473	0.0141862
856.551	0.0142179
856.629	0.0143195
856.707	0.0141640
856.785	0.0142535
856.863	0.0142542
856.942	0.0144085
857.020	0.0143228
857.098	0.0141160
857.176	0.0142883
857.254	0.0143430
857.332	0.0143494
857.410	0.0141798
857.488	0.0143256
857.567	0.0143005
857.645	0.0143138
857.723	0.0144243
857.801	0.0144115
857.879	0.0142885
857.957	0.0143358
858.035	0.0142568
858.113	0.0144146
858.192	0.0142956
858.270	0.0143504
858.348	0.0142572
858.426	0.0141683
858.504	0.0141823
858.582	0.0143304
858.660	0.0142181
858.738	0.0143255
858.817	0.0142110
858.895	0.0142783
858.973	0.0144308
859.051	0.0141414
859.129	0.0142892
859.207	0.0142400
859.285	0.0143845
859.363	0.0142515
859.442	0.0142673
859.520	0.0142043
859.598	0.0143334
859.676	0.0143121
859.754	0.0142107
859.832	0.0141869
859.910	0.0142086
859.988	0.0141950
860.067	0.0142244
860.145	0.0142640
860.223	0.0141101
860.301	0.0141472
860.379	0.0142150
860.457	0.0141386
860.535	0.0143344
860.613	0.0141309
860.692	0.0141161
860.770	0.0141989
860.848	0.0142693
860.926	0.0141797
861.004	0.0140736
861.082	0.0141202
861.160	0.0142522
861.238	0.0143240
861.317	0.0141285
861.395	0.0141964
861.473	0.0141131
861.551	0.0142241
861.629	0.0141810
861.707	0.0143007
861.785	0.0142121
861.863	0.0142361
861.942	0.0140939
862.020	0.0143618
862.098	0.0143026
862.176	0.0143425
862.254	0.0143077
862.332	0.0144503
862.410	0.0142072
862.488	0.0143539
862.567	0.0143989
862.645	0.0143070
862.723	0.0144328
862.801	0.0143649
862.879	0.0141791
862.957	0.0144105
863.035	0.0143887
863.113	0.0142651
863.192	0.0143635
863.270	0.0145741
863.348	0.0144698
863.426	0.0142049
863.504	0.0143082
863.582	0.0143061
863.660	0.0142085
863.738	0.0142081
863.817	0.0144955
863.895	0.0142995
863.973	0.0143144
864.051	0.0142592
864.129	0.0142124
864.207	0.0142160
864.285	0.0142816
864.363	0.0142313
864.442	0.0143384
864.520	0.0143793
864.598	0.0142335
864.676	0.0143678
864.754	0.0144565
864.832	0.0143453
864.910	0.0142183
864.988	0.0143029
865.067	0.0143467
865.145	0.0143510
865.223	0.0142771
865.301	0.0142139
865.379	0.0141670
865.457	0.0142734
865.535	0.0141130
865.613	0.0141537
865.692	0.0142712
865.770	0.0141348
865.848	0.0142136
865.926	0.0141132
866.004	0.0142216
866.082	0.0141298
866.160	0.0141502
866.238	0.0141217
866.317	0.0143812
866.395	0.0142079
866.473	0.0141567
866.551	0.0141954
866.629	0.0141241
866.707	0.0143007
866.785	0.0142710
866.863	0.0143349
866.942	0.0142101
867.020	0.0141985
867.098	0.0142821
867.176	0.0142287
867.254	0.0143390
867.332	0.0141898
867.410	0.0141051
867.488	0.0142616
867.567	0.0143484
867.645	0.0141695
867.723	0.0141793
867.801	0.0142364
867.879	0.0142170
867.957	0.0140871
868.035	0.0141964
868.113	0.0142902
868.192	0.0142982
868.270	0.0142576
868.348	0.0142591
868.426	0.0144017
868.504	0.0141566
868.582	0.0142369
868.660	0.0142653
868.738	0.0142350
868.817	0.0142102
868.895	0.0141399
868.973	0.0142165
869.051	0.0142297
869.129	0.0142387
869.207	0.0141894
869.285	0.0142603
869.363	0.0143034
869.442	0.0143443
869.520	0.0143089
869.598	0.0143375
869.676	0.0142359
869.754	0.0143673
869.832	0.0142046
869.910	0.0143423
869.988	0.0144220
870.067	0.0141782
870.145	0.0144864
870.223	0.0141849
870.301	0.0142226
870.379	0.0143267
870.457	0.0143391
870.535	0.0142724
870.613	0.0143920
870.692	0.0142434
870.770	0.0143217
870.848	0.0143797
870.926	0.0143510
871.004	0.0144408
871.082	0.0143890
871.160	0.0142583
871.238	0.0142616
871.317	0.0143317
871.395	0.0144449
871.473	0.0142888
871.551	0.0142680
871.629	0.0142771
871.707	0.0143095
871.785	0.0142260
871.863	0.0142464
871.942	0.0141640
872.020	0.0143668
872.098	0.0142924
872.176	0.0144321
872.254	0.0143638
872.332	0.0143865
872.410	0.0144444
872.488	0.0144472
872.567	0.0144958
872.645	0.0142574
872.723	0.0143290
872.801	0.0143936
872.879	0.0144086
872.957	0.0142748
873.035	0.0143082
873.113	0.0142988
873.192	0.0143942
873.270	0.0142489
873.348	0.0143164
873.426	0.0143163
873.504	0.0143469
873.582	0.0143877
873.660	0.0143710
873.738	0.0142213
873.817	0.0142061
873.895	0.0143560
873.973	0.0143454
874.051	0.0143018
874.129	0.0143916
874.207	0.0142167
874.285	0.0143899
874.363	0.0142785
874.442	0.0143159
874.520	0.0143643
874.598	0.0142289
874.676	0.0142352
874.754	0.0144480
874.832	0.0143767
874.910	0.0143612
874.988	0.0143740
875.067	0.0143087
875.145	0.0143206
875.223	0.0144066
875.301	0.0143281
875.379	0.0143197
875.457	0.0144304
875.535	0.0143797
875.613	0.0143977
875.692	0.0142841
875.770	0.0144508
875.848	0.0143960
875.926	0.0143667
876.004	0.0141844
876.082	0.0142559
876.160	0.0143512
876.238	0.0143079
876.317	0.0143804
876.395	0.0143101
876.473	0.0142346
876.551	0.0143384
876.629	0.0142245
876.707	0.0143153
876.785	0.0142558
876.863	0.0142174
876.942	0.0142315
877.020	0.0142504
877.098	0.0142547
877.176	0.0142228
877.254	0.0142739
877.332	0.0142278
877.410	0.0141160
877.488	0.0142949
877.567	0.0140730
877.645	0.0142167
877.723	0.0142548
877.801	0.0142876
877.879	0.0142986
877.957	0.0142097
878.035	0.0142630
878.113	0.0141825
878.192	0.0141933
878.270	0.0141019
878.348	0.0142332
878.426	0.0141335
878.504	0.0141924
878.582	0.0141680
878.660	0.0142999
878.738	0.0142999
878.817	0.0143505
878.895	0.0142780
878.973	0.0142498
879.051	0.0144372
879.129	0.0142882
879.207	0.0142857
879.285	0.0142217
879.363	0.0142999
879.442	0.0142592
879.520	0.0142402
879.598	0.0143544
879.676	0.0144120
879.754	0.0142524
879.832	0.0144022
879.910	0.0143547
879.988	0.0142479
880.067	0.0141568
880.145	0.0143987
880.223	0.0141454
880.301	0.0141389
880.379	0.0141718
880.457	0.0142852
880.535	0.0141447
880.613	0.0142065
880.692	0.0142239
880.770	0.0142656
880.848	0.0142460
880.926	0.0140965
881.004	0.0142282
881.082	0.0143767
881.160	0.0142166
881.238	0.0141685
881.317	0.0142435
881.395	0.0142294
881.473	0.0140739
881.551	0.0144084
881.629	0.0143217
881.707	0.0142693
881.785	0.0143192
881.863	0.0144865
881.942	0.0143746
882.020	0.0143029
882.098	0.0143350
882.176	0.0143885
882.254	0.0143102
882.332	0.0144711
882.410	0.0142590
882.488	0.0144109
882.567	0.0143481
882.645	0.0144385
882.723	0.0143532
882.801	0.0144382
882.879	0.0144269
882.957	0.0143785
883.035	0.0143464
883.113	0.0143381
883.192	0.0144100
883.270	0.0145203
883.348	0.0144736
883.426	0.0143518
883.504	0.0143540
883.582	0.0144235
883.660	0.0144549
883.738	0.0144275
883.817	0.0145936
883.895	0.0144996
883.973	0.0144621
884.051	0.0144608
884.129	0.0145155
884.207	0.0145636
884.285	0.0144808
884.363	0.0144318
884.442	0.0144641
884.520	0.0144225
884.598	0.0145325
884.676	0.0144678
884.754	0.0144778
884.832	0.0144710
884.910	0.0144992
884.988	0.0145929
885.067	0.0143843
885.145	0.0144149
885.223	0.0144508
885.301	0.0143729
885.379	0.0144474
885.457	0.0143876
885.535	0.0144260
885.613	0.0144115
885.692	0.0144968
885.770	0.0144298
885.848	0.0143387
885.926	0.0142151
886.004	0.0143727
886.082	0.0142425
886.160	0.0143039
886.238	0.0144519
886.317	0.0143185
886.395	0.0143338
886.473	0.0142767
886.551	0.0142911
886.629	0.0143261
886.707	0.0142853
886.785	0.0142438
886.863	0.0142616
886.942	0.0142771
887.020	0.0142085
887.098	0.0142516
887.176	0.0143334
887.254	0.0142957
887.332	0.0143914
887.410	0.0143000
887.488	0.0142330
887.567	0.0142253
887.645	0.0143649
887.723	0.0142496
887.801	0.0142915
887.879	0.0142274
887.957	0.0142961
888.035	0.0143162
888.113	0.0143230
888.192	0.0142308
888.270	0.0142245
888.348	0.0143471
888.426	0.0142606
888.504	0.0142928
888.582	0.0143240
888.660	0.0143698
888.738	0.0143030
888.817	0.0142158
888.895	0.0142461
888.973	0.0142735
889.051	0.0142229
889.129	0.0143817
889.207	0.0142816
889.285	0.0142847
889.363	0.0143419
889.442	0.0142652
889.520	0.0142538
889.598	0.0143203
889.676	0.0143345
889.754	0.0142617
889.832	0.0143140
889.910	0.0143309
889.988	0.0142622
890.067	0.0142758
890.145	0.0142480
890.223	0.0142848
890.301	0.0142808
890.379	0.0141980
890.457	0.0143744
890.535	0.0141719
890.613	0.0142767
890.692	0.0143935
890.770	0.0141778
890.848	0.0143482
890.926	0.0143671
891.004	0.0143896
891.082	0.0142910
891.160	0.0143176
891.238	0.0143678
891.317	0.0142825
891.395	0.0143199
891.473	0.0143505
891.551	0.0142741
891.629	0.0142481
891.707	0.0142883
891.785	0.0141646
891.863	0.0142494
891.942	0.0141697
892.020	0.0142257
892.098	0.0142783
892.176	0.0142442
892.254	0.0143394
892.332	0.0143085
892.410	0.0142622
892.488	0.0144479
892.567	0.0144406
892.645	0.0142764
892.723	0.0144684
892.801	0.0143092
892.879	0.0144958
892.957	0.0142844
893.035	0.0143227
893.113	0.0143820
893.192	0.0144621
893.270	0.0144347
893.348	0.0143609
893.426	0.0144157
893.504	0.0143848
893.582	0.0143436
893.660	0.0143467
893.738	0.0143056
893.817	0.0144096
893.895	0.0142749
893.973	0.0143424
894.051	0.0146675
894.129	0.0144621
894.207	0.0143922
894.285	0.0145518
894.363	0.0143786
894.442	0.0144347
894.520	0.0145202
894.598	0.0143813
894.676	0.0145376
894.754	0.0145488
894.832	0.0145203
894.910	0.0146855
894.988	0.0145457
895.067	0.0144281
895.145	0.0145361
895.223	0.0144673
895.301	0.0144726
895.379	0.0146002
895.457	0.0144685
895.535	0.0145346
895.613	0.0145065
895.692	0.0144825
895.770	0.0145046
895.848	0.0145163
895.926	0.0145924
896.004	0.0145364
896.082	0.0144132
896.160	0.0143223
896.238	0.0145302
896.317	0.0143092
896.395	0.0142906
896.473	0.0143864
896.551	0.0143928
896.629	0.0145100
896.707	0.0142787
896.785	0.0143739
896.863	0.0142915
896.942	0.0144077
897.020	0.0143528
897.098	0.0142862
897.176	0.0144059
897.254	0.0143527
897.332	0.0143384
897.410	0.0143124
897.488	0.0142479
897.567	0.0144015
897.645	0.0143723
897.723	0.0142355
897.801	0.0142331
897.879	0.0142994
897.957	0.0142836
898.035	0.0141992
898.113	0.0141463
898.192	0.0143461
898.270	0.0142533
898.348	0.0142142
898.426	0.0142410
898.504	0.0143578
898.582	0.0142043
898.660	0.0140880
898.738	0.0141619
898.817	0.0143736
898.895	0.0141116
898.973	0.0140760
899.051	0.0142144
899.129	0.0141851
899.207	0.0140605
899.285	0.0141098
899.363	0.0141056
899.442	0.0143080
899.520	0.0142552
899.598	0.0141628
899.676	0.0142721
899.754	0.0142605
899.832	0.0142705
899.910	0.0141549
899.988	0.0142169
900.067	0.0142789
900.145	0.0143845
900.223	0.0143031
900.301	0.0142279
900.379	0.0143095
900.457	0.0144011
900.535	0.0144189
900.613	0.0142662
900.692	0.0143262
900.770	0.0142258
900.848	0.0142555
900.926	0.0142966
901.004	0.0143554
901.082	0.0144241
901.160	0.0144003
901.238	0.0144009
901.317	0.0142496
901.395	0.0143491
901.473	0.0142522
901.551	0.0143182
901.629	0.0144408
901.707	0.0143079
901.785	0.0142947
901.863	0.0142263
901.942	0.0144262
902.020	0.0143341
902.098	0.0143509
902.176	0.0144228
902.254	0.0145100
902.332	0.0144873
902.410	0.0144256
902.488	0.0142912
902.567	0.0144507
902.645	0.0144627
902.723	0.0144910
902.801	0.0143422
902.879	0.0142245
902.957	0.0144222
903.035	0.0144331
903.113	0.0144920
903.192	0.0144083
903.270	0.0143674
903.348	0.0144849
903.426	0.0142641
903.504	0.0144289
903.582	0.0142866
903.660	0.0142722
903.738	0.0143011
903.817	0.0142811
903.895	0.0142265
903.973	0.0142988
904.051	0.0144005
904.129	0.0144168
904.207	0.0143250
904.285	0.0142831
904.363	0.0143733
904.442	0.0143600
904.520	0.0144154
904.598	0.0143058
904.676	0.0142209
904.754	0.0143629
904.832	0.0143832
904.910	0.0142941
904.988	0.0143391
905.067	0.0143843
905.145	0.0143245
905.223	0.0144771
905.301	0.0142705
905.379	0.0143732
905.457	0.0143420
905.535	0.0143921
905.613	0.0144028
905.692	0.0143275
905.770	0.0144640
905.848	0.0142706
905.926	0.0143169
906.004	0.0143316
906.082	0.0143076
906.160	0.0144350
906.238	0.0143200
906.317	0.0143397
906.395	0.0144220
906.473	0.0143852
906.551	0.0144349
906.629	0.0143699
906.707	0.0144261
906.785	0.0143884
906.863	0.0142838
906.942	0.0144028
907.020	0.0144566
907.098	0.0144040
907.176	0.0144811
907.254	0.0144997
907.332	0.0144193
907.410	0.0144891
907.488	0.0143375
907.567	0.0144450
907.645	0.0142464
907.723	0.0143443
907.801	0.0143615
907.879	0.0144634
907.957	0.0144271
908.035	0.0143729
908.113	0.0144562
908.192	0.0144186
908.270	0.0144065
908.348	0.0143335
908.426	0.0144392
908.504	0.0143674
908.582	0.0144493
908.660	0.0143658
908.738	0.0143262
908.817	0.0144310
908.895	0.0143604
908.973	0.0143243
909.051	0.0145829
909.129	0.0143609
909.207	0.0143923
909.285	0.0144423
909.363	0.0143440
909.442	0.0145438
909.520	0.0144821
909.598	0.0144780
909.676	0.0145024
909.754	0.0145404
909.832	0.0143515
909.910	0.0143968
909.988	0.0144893
910.067	0.0144572
910.145	0.0144527
910.223	0.0144654
910.301	0.0144268
910.379	0.0143140
910.457	0.0144501
910.535	0.0144242
910.613	0.0143515
910.692	0.0142372
910.770	0.0143285
910.848	0.0143035
910.926	0.0143294
911.004	0.0142612
911.082	0.0141913
911.160	0.0142664
911.238	0.0142669
911.317	0.0142504
911.395	0.0142953
911.473	0.0142962
911.551	0.0142372
911.629	0.0143638
911.707	0.0143426
911.785	0.0144793
911.863	0.0143327
911.942	0.0141953
912.020	0.0142393
912.098	0.0143497
912.176	0.0142976
912.254	0.0143330
912.332	0.0144003
912.410	0.0142798
912.488	0.0143749
912.567	0.0142919
912.645	0.0143172
912.723	0.0143121
912.801	0.0142922
912.879	0.0142728
912.957	0.0143209
913.035	0.0142473
913.113	0.0141925
913.192	0.0141877
913.270	0.0142848
913.348	0.0142849
913.426	0.0142568
913.504	0.0143192
913.582	0.0144040
913.660	0.0142443
913.738	0.0143485
913.817	0.0143279
913.895	0.0142661
913.973	0.0143990
914.051	0.0143554
914.129	0.0143270
914.207	0.0143732
914.285	0.0144108
914.363	0.0143926
914.442	0.0144051
914.520	0.0143924
914.598	0.0143759
914.676	0.0142819
914.754	0.0142169
914.832	0.0144894
914.910	0.0144175
914.988	0.0141959
915.067	0.0142936
915.145	0.0143047
915.223	0.0143559
915.301	0.0142850
915.379	0.0143591
915.457	0.0144248
915.535	0.0143002
915.613	0.0143976
915.692	0.0144588
915.770	0.0143946
915.848	0.0142994
915.926	0.0143273
916.004	0.0145827
916.082	0.0142608
916.160	0.0143421
916.238	0.0144968
916.317	0.0143449
916.395	0.0143347
916.473	0.0145590
916.551	0.0144225
916.629	0.0144347
916.707	0.0144924
916.785	0.0144566
916.863	0.0145432
916.942	0.0143719
917.020	0.0144204
917.098	0.0145429
917.176	0.0145302
917.254	0.0145381
917.332	0.0143642
917.410	0.0143514
917.488	0.0143823
917.567	0.0144343
917.645	0.0142996
917.723	0.0144268
917.801	0.0143756
917.879	0.0142461
917.957	0.0142866
918.035	0.0143776
918.113	0.0142902
918.192	0.0144338
918.270	0.0142175
918.348	0.0143089
918.426	0.0144073
918.504	0.0143283
918.582	0.0142283
918.660	0.0143166
918.738	0.0143658
918.817	0.0142963
918.895	0.0143321
918.973	0.0143999
919.051	0.0142585
919.129	0.0144044
919.207	0.0142740
919.285	0.0142211
919.363	0.0142161
919.442	0.0143545
919.520	0.0143330
919.598	0.0142840
919.676	0.0142451
919.754	0.0142387
919.832	0.0142194
919.910	0.0141522
