05/28/2022	14:36:42	Ver.	4.1	UNKNOWN
Optical Delay	599.988409	Delta X		0.078125	Sweeps	1	Scan Rate	0/0
Coordinates	Axis 1	NaN	Axis 2	NaN	Axis 3	NaN	Axis 4	NaN	Axis 5	NaN	Axis 6	0.000000
TX Power	0.000000	RX Power	0.000000

599.988	0.0141364
600.067	0.0142180
600.145	0.0142344
600.223	0.0143000
600.301	0.0140601
600.379	0.0140347
600.457	0.0141412
600.535	0.0142008
600.613	0.0142780
600.692	0.0142638
600.770	0.0141973
600.848	0.0142202
600.926	0.0142825
601.004	0.0143452
601.082	0.0144268
601.160	0.0142922
601.238	0.0142405
601.317	0.0143111
601.395	0.0143351
601.473	0.0143854
601.551	0.0142121
601.629	0.0143274
601.707	0.0144631
601.785	0.0143114
601.863	0.0142049
601.942	0.0141550
602.020	0.0142702
602.098	0.0142876
602.176	0.0142445
602.254	0.0142181
602.332	0.0142568
602.410	0.0141810
602.488	0.0141969
602.567	0.0142630
602.645	0.0140800
602.723	0.0142590
602.801	0.0141350
602.879	0.0143578
602.957	0.0141685
603.035	0.0141330
603.113	0.0142995
603.192	0.0142898
603.270	0.0142168
603.348	0.0143153
603.426	0.0142617
603.504	0.0144247
603.582	0.0142798
603.660	0.0142986
603.738	0.0143502
603.817	0.0143311
603.895	0.0143305
603.973	0.0143160
604.051	0.0142072
604.129	0.0143316
604.207	0.0142650
604.285	0.0142589
604.363	0.0142725
604.442	0.0144184
604.520	0.0143720
604.598	0.0142599
604.676	0.0142451
604.754	0.0143964
604.832	0.0143580
604.910	0.0141444
604.988	0.0141290
605.067	0.0143098
605.145	0.0142196
605.223	0.0141544
605.301	0.0141460
605.379	0.0142676
605.457	0.0142789
605.535	0.0142591
605.613	0.0143806
605.692	0.0142565
605.770	0.0142896
605.848	0.0141534
605.926	0.0141853
606.004	0.0141891
606.082	0.0143522
606.160	0.0142713
606.238	0.0142918
606.317	0.0143774
606.395	0.0143398
606.473	0.0142472
606.551	0.0141969
606.629	0.0143311
606.707	0.0143948
606.785	0.0143962
606.863	0.0144150
606.942	0.0142636
607.020	0.0143237
607.098	0.0143546
607.176	0.0143471
607.254	0.0142563
607.332	0.0142973
607.410	0.0142687
607.488	0.0144477
607.567	0.0143113
607.645	0.0141721
607.723	0.0142283
607.801	0.0142300
607.879	0.0141503
607.957	0.0143696
608.035	0.0142984
608.113	0.0141998
608.192	0.0142764
608.270	0.0141092
608.348	0.0141795
608.426	0.0141111
608.504	0.0141218
608.582	0.0140811
608.660	0.0140215
608.738	0.0141319
608.817	0.0139685
608.895	0.0140897
608.973	0.0141425
609.051	0.0139013
609.129	0.0140480
609.207	0.0139594
609.285	0.0139611
609.363	0.0141167
609.442	0.0139922
609.520	0.0141156
609.598	0.0141222
609.676	0.0140497
609.754	0.0140644
609.832	0.0141293
609.910	0.0141315
609.988	0.0141711
610.067	0.0141333
610.145	0.0141543
610.223	0.0140671
610.301	0.0140877
610.379	0.0139471
610.457	0.0140625
610.535	0.0141248
610.613	0.0141452
610.692	0.0140374
610.770	0.0139695
610.848	0.0141039
610.926	0.0142081
611.004	0.0139328
611.082	0.0140321
611.160	0.0141051
611.238	0.0140681
611.317	0.0139658
611.395	0.0140652
611.473	0.0142017
611.551	0.0141278
611.629	0.0140192
611.707	0.0141485
611.785	0.0140699
611.863	0.0140950
611.942	0.0141171
612.020	0.0142327
612.098	0.0143011
612.176	0.0142252
612.254	0.0141717
612.332	0.0142232
612.410	0.0142043
612.488	0.0141739
612.567	0.0142404
612.645	0.0143077
612.723	0.0143202
612.801	0.0141613
612.879	0.0143526
612.957	0.0143309
613.035	0.0142812
613.113	0.0143832
613.192	0.0143532
613.270	0.0142928
613.348	0.0141591
613.426	0.0142267
613.504	0.0141889
613.582	0.0141088
613.660	0.0142436
613.738	0.0142468
613.817	0.0142759
613.895	0.0141537
613.973	0.0141348
614.051	0.0141290
614.129	0.0142901
614.207	0.0142053
614.285	0.0141088
614.363	0.0140817
614.442	0.0140952
614.520	0.0140224
614.598	0.0140167
614.676	0.0141271
614.754	0.0140265
614.832	0.0140446
614.910	0.0139606
614.988	0.0140273
615.067	0.0141028
615.145	0.0140336
615.223	0.0140111
615.301	0.0140559
615.379	0.0140784
615.457	0.0140837
615.535	0.0139230
615.613	0.0141477
615.692	0.0140276
615.770	0.0140591
615.848	0.0141552
615.926	0.0140719
616.004	0.0141019
616.082	0.0142207
616.160	0.0143345
616.238	0.0142738
616.317	0.0141121
616.395	0.0141753
616.473	0.0143620
616.551	0.0141254
616.629	0.0143582
616.707	0.0143029
616.785	0.0141914
616.863	0.0140969
616.942	0.0142805
617.020	0.0141286
617.098	0.0142922
617.176	0.0142313
617.254	0.0141854
617.332	0.0142513
617.410	0.0142245
617.488	0.0142426
617.567	0.0141344
617.645	0.0141679
617.723	0.0141623
617.801	0.0142413
617.879	0.0143119
617.957	0.0141628
618.035	0.0141988
618.113	0.0139912
618.192	0.0141109
618.270	0.0141637
618.348	0.0142648
618.426	0.0141088
618.504	0.0140746
618.582	0.0140907
618.660	0.0140861
618.738	0.0141537
618.817	0.0140948
618.895	0.0142310
618.973	0.0142377
619.051	0.0141613
619.129	0.0141264
619.207	0.0141262
619.285	0.0142586
619.363	0.0143158
619.442	0.0142871
619.520	0.0142410
619.598	0.0141892
619.676	0.0142080
619.754	0.0143378
619.832	0.0143623
619.910	0.0143599
619.988	0.0143587
620.067	0.0144209
620.145	0.0142461
620.223	0.0141920
620.301	0.0142920
620.379	0.0142467
620.457	0.0143746
620.535	0.0142417
620.613	0.0142230
620.692	0.0141683
620.770	0.0140271
620.848	0.0141332
620.926	0.0140892
621.004	0.0141212
621.082	0.0141396
621.160	0.0142016
621.238	0.0141706
621.317	0.0141750
621.395	0.0141859
621.473	0.0141920
621.551	0.0142809
621.629	0.0142371
621.707	0.0145345
621.785	0.0143218
621.863	0.0142982
621.942	0.0144352
622.020	0.0144608
622.098	0.0143170
622.176	0.0144032
622.254	0.0143191
622.332	0.0144759
622.410	0.0144748
622.488	0.0142334
622.567	0.0144169
622.645	0.0142107
622.723	0.0143317
622.801	0.0143269
622.879	0.0142621
622.957	0.0143545
623.035	0.0143301
623.113	0.0142617
623.192	0.0142086
623.270	0.0142062
623.348	0.0142719
623.426	0.0140729
623.504	0.0141154
623.582	0.0142236
623.660	0.0141078
623.738	0.0141306
623.817	0.0141047
623.895	0.0140505
623.973	0.0140847
624.051	0.0139983
624.129	0.0140229
624.207	0.0140355
624.285	0.0142605
624.363	0.0142811
624.442	0.0141781
624.520	0.0143356
624.598	0.0144144
624.676	0.0144411
624.754	0.0143465
624.832	0.0144283
624.910	0.0145810
624.988	0.0146785
625.067	0.0146502
625.145	0.0145941
625.223	0.0145916
625.301	0.0147508
625.379	0.0146459
625.457	0.0146881
625.535	0.0145963
625.613	0.0145956
625.692	0.0144738
625.770	0.0145623
625.848	0.0146581
625.926	0.0144140
626.004	0.0143071
626.082	0.0144273
626.160	0.0143927
626.238	0.0143619
626.317	0.0142326
626.395	0.0142921
626.473	0.0143083
626.551	0.0142867
626.629	0.0141177
626.707	0.0141075
626.785	0.0141220
626.863	0.0141447
626.942	0.0141200
627.020	0.0141405
627.098	0.0141751
627.176	0.0142673
627.254	0.0141705
627.332	0.0143360
627.410	0.0143026
627.488	0.0143263
627.567	0.0142889
627.645	0.0144166
627.723	0.0143420
627.801	0.0143719
627.879	0.0144341
627.957	0.0143768
628.035	0.0144622
628.113	0.0145040
628.192	0.0144832
628.270	0.0143586
628.348	0.0144253
628.426	0.0144003
628.504	0.0143143
628.582	0.0143443
628.660	0.0143003
628.738	0.0143600
628.817	0.0141332
628.895	0.0143781
628.973	0.0143120
629.051	0.0143012
629.129	0.0142549
629.207	0.0143850
629.285	0.0142467
629.363	0.0142979
629.442	0.0144101
629.520	0.0143056
629.598	0.0143578
629.676	0.0142562
629.754	0.0142712
629.832	0.0143628
629.910	0.0143911
629.988	0.0143414
630.067	0.0143326
630.145	0.0144947
630.223	0.0144721
630.301	0.0144349
630.379	0.0144145
630.457	0.0144687
630.535	0.0144648
630.613	0.0144451
630.692	0.0142935
630.770	0.0143461
630.848	0.0144365
630.926	0.0143516
631.004	0.0143382
631.082	0.0142789
631.160	0.0142790
631.238	0.0141185
631.317	0.0141095
631.395	0.0140484
631.473	0.0139335
631.551	0.0139095
631.629	0.0139034
631.707	0.0138056
631.785	0.0138813
631.863	0.0137614
631.942	0.0137946
632.020	0.0138660
632.098	0.0137991
632.176	0.0137838
632.254	0.0137298
632.332	0.0138918
632.410	0.0140296
632.488	0.0140148
632.567	0.0138547
632.645	0.0139927
632.723	0.0140275
632.801	0.0138542
632.879	0.0139347
632.957	0.0138869
633.035	0.0138619
633.113	0.0139569
633.192	0.0139629
633.270	0.0138726
633.348	0.0139824
633.426	0.0139320
633.504	0.0138621
633.582	0.0139588
633.660	0.0139286
633.738	0.0139547
633.817	0.0140254
633.895	0.0139986
633.973	0.0140858
634.051	0.0139439
634.129	0.0139771
634.207	0.0141255
634.285	0.0140762
634.363	0.0140615
634.442	0.0141329
634.520	0.0140630
634.598	0.0140999
634.676	0.0141725
634.754	0.0142249
634.832	0.0141391
634.910	0.0140756
634.988	0.0141381
635.067	0.0142601
635.145	0.0141412
635.223	0.0140588
635.301	0.0141184
635.379	0.0141055
635.457	0.0141612
635.535	0.0141826
635.613	0.0141359
635.692	0.0140027
635.770	0.0142094
635.848	0.0142288
635.926	0.0140211
636.004	0.0140048
636.082	0.0141514
636.160	0.0141462
636.238	0.0140678
636.317	0.0139629
636.395	0.0140820
636.473	0.0140461
636.551	0.0140344
636.629	0.0141311
636.707	0.0139980
636.785	0.0141747
636.863	0.0141276
636.942	0.0141856
637.020	0.0141213
637.098	0.0141904
637.176	0.0141757
637.254	0.0140417
637.332	0.0140523
637.410	0.0141129
637.488	0.0141239
637.567	0.0139898
637.645	0.0141171
637.723	0.0140718
637.801	0.0141116
637.879	0.0141042
637.957	0.0141139
638.035	0.0142001
638.113	0.0142007
638.192	0.0142430
638.270	0.0142793
638.348	0.0143208
638.426	0.0142283
638.504	0.0142043
638.582	0.0142779
638.660	0.0144139
638.738	0.0144633
638.817	0.0142820
638.895	0.0143319
638.973	0.0143382
639.051	0.0144338
639.129	0.0144796
639.207	0.0143906
639.285	0.0144381
639.363	0.0143998
639.442	0.0144124
639.520	0.0143266
639.598	0.0143218
639.676	0.0145276
639.754	0.0143984
639.832	0.0144138
639.910	0.0143364
639.988	0.0144593
640.067	0.0143029
640.145	0.0143948
640.223	0.0142666
640.301	0.0142479
640.379	0.0144038
640.457	0.0143703
640.535	0.0143160
640.613	0.0143049
640.692	0.0143054
640.770	0.0141576
640.848	0.0141558
640.926	0.0141660
641.004	0.0142171
641.082	0.0141759
641.160	0.0142505
641.238	0.0141756
641.317	0.0140127
641.395	0.0140720
641.473	0.0140285
641.551	0.0141219
641.629	0.0141183
641.707	0.0142279
641.785	0.0140335
641.863	0.0141270
641.942	0.0140788
642.020	0.0142035
642.098	0.0141524
642.176	0.0141467
642.254	0.0142303
642.332	0.0141825
642.410	0.0142377
642.488	0.0142551
642.567	0.0143777
642.645	0.0142789
642.723	0.0144278
642.801	0.0145380
642.879	0.0144905
642.957	0.0143853
643.035	0.0145180
643.113	0.0146413
643.192	0.0144529
643.270	0.0143479
643.348	0.0144003
643.426	0.0142120
643.504	0.0142640
643.582	0.0141936
643.660	0.0141648
643.738	0.0142085
643.817	0.0140569
643.895	0.0139605
643.973	0.0140240
644.051	0.0141068
644.129	0.0141261
644.207	0.0140489
644.285	0.0139899
644.363	0.0139108
644.442	0.0141577
644.520	0.0140874
644.598	0.0140459
644.676	0.0141259
644.754	0.0142711
644.832	0.0141138
644.910	0.0140576
644.988	0.0141843
645.067	0.0142708
645.145	0.0141365
645.223	0.0143313
645.301	0.0141544
645.379	0.0142862
645.457	0.0143375
645.535	0.0143240
645.613	0.0143420
645.692	0.0143098
645.770	0.0143559
645.848	0.0143555
645.926	0.0143970
646.004	0.0142097
646.082	0.0142308
646.160	0.0142902
646.238	0.0143618
646.317	0.0143096
646.395	0.0142972
646.473	0.0143407
646.551	0.0140104
646.629	0.0139911
646.707	0.0141801
646.785	0.0141272
646.863	0.0140309
646.942	0.0141290
647.020	0.0142493
647.098	0.0140751
647.176	0.0140375
647.254	0.0141973
647.332	0.0141581
647.410	0.0143163
647.488	0.0143837
647.567	0.0144701
647.645	0.0144124
647.723	0.0143839
647.801	0.0144627
647.879	0.0144521
647.957	0.0145860
648.035	0.0145094
648.113	0.0145957
648.192	0.0145844
648.270	0.0143809
648.348	0.0144753
648.426	0.0144912
648.504	0.0144027
648.582	0.0143161
648.660	0.0144038
648.738	0.0140365
648.817	0.0143801
648.895	0.0143694
648.973	0.0142523
649.051	0.0142614
649.129	0.0142188
649.207	0.0141460
649.285	0.0143018
649.363	0.0141889
649.442	0.0140886
649.520	0.0141267
649.598	0.0142251
649.676	0.0141039
649.754	0.0142052
649.832	0.0143062
649.910	0.0141964
649.988	0.0143961
650.067	0.0142614
650.145	0.0142252
650.223	0.0143063
650.301	0.0143320
650.379	0.0142326
650.457	0.0141286
650.535	0.0143409
650.613	0.0142793
650.692	0.0143462
650.770	0.0143469
650.848	0.0143106
650.926	0.0143088
651.004	0.0144797
651.082	0.0145226
651.160	0.0145509
651.238	0.0144125
651.317	0.0143231
651.395	0.0142970
651.473	0.0143444
651.551	0.0141659
651.629	0.0141720
651.707	0.0143150
651.785	0.0141286
651.863	0.0139870
651.942	0.0140973
652.020	0.0141702
652.098	0.0140843
652.176	0.0140731
652.254	0.0140457
652.332	0.0141122
652.410	0.0139516
652.488	0.0140325
652.567	0.0140708
652.645	0.0140797
652.723	0.0140271
652.801	0.0141908
652.879	0.0141861
652.957	0.0143054
653.035	0.0142943
653.113	0.0142449
653.192	0.0144028
653.270	0.0142996
653.348	0.0144147
653.426	0.0144700
653.504	0.0144394
653.582	0.0143543
653.660	0.0145383
653.738	0.0144364
653.817	0.0142780
653.895	0.0143185
653.973	0.0144037
654.051	0.0144714
654.129	0.0143938
654.207	0.0143426
654.285	0.0145023
654.363	0.0143449
654.442	0.0143280
654.520	0.0143256
654.598	0.0144922
654.676	0.0142492
654.754	0.0142600
654.832	0.0143760
654.910	0.0143051
654.988	0.0142790
655.067	0.0143047
655.145	0.0142276
655.223	0.0142178
655.301	0.0142064
655.379	0.0143335
655.457	0.0143562
655.535	0.0141780
655.613	0.0142014
655.692	0.0142005
655.770	0.0142259
655.848	0.0141547
655.926	0.0139834
656.004	0.0140018
656.082	0.0141631
656.160	0.0140057
656.238	0.0139951
656.317	0.0141246
656.395	0.0140064
656.473	0.0139370
656.551	0.0139779
656.629	0.0140611
656.707	0.0139325
656.785	0.0141103
656.863	0.0140192
656.942	0.0139671
657.020	0.0141757
657.098	0.0140611
657.176	0.0142112
657.254	0.0140244
657.332	0.0141494
657.410	0.0142693
657.488	0.0140396
657.567	0.0141599
657.645	0.0141161
657.723	0.0143627
657.801	0.0142973
657.879	0.0141720
657.957	0.0141822
658.035	0.0141515
658.113	0.0141971
658.192	0.0141068
658.270	0.0142640
658.348	0.0142941
658.426	0.0140827
658.504	0.0141943
658.582	0.0141817
658.660	0.0140833
658.738	0.0141297
658.817	0.0141666
658.895	0.0141497
658.973	0.0141462
659.051	0.0141071
659.129	0.0141666
659.207	0.0141263
659.285	0.0142986
659.363	0.0141074
659.442	0.0141995
659.520	0.0140814
659.598	0.0141178
659.676	0.0140905
659.754	0.0142683
659.832	0.0142522
659.910	0.0140804
659.988	0.0141251
660.067	0.0141136
660.145	0.0140617
660.223	0.0141748
660.301	0.0142764
660.379	0.0142267
660.457	0.0142281
660.535	0.0143089
660.613	0.0142798
660.692	0.0141479
660.770	0.0143690
660.848	0.0143111
660.926	0.0142216
661.004	0.0143465
661.082	0.0142924
661.160	0.0143716
661.238	0.0143639
661.317	0.0142680
661.395	0.0144622
661.473	0.0143752
661.551	0.0144383
661.629	0.0144484
661.707	0.0142542
661.785	0.0144044
661.863	0.0143470
661.942	0.0143125
662.020	0.0142957
662.098	0.0142776
662.176	0.0142585
662.254	0.0144296
662.332	0.0143487
662.410	0.0142718
662.488	0.0144344
662.567	0.0143833
662.645	0.0142809
662.723	0.0143848
662.801	0.0144386
662.879	0.0143690
662.957	0.0145514
663.035	0.0145222
663.113	0.0143874
663.192	0.0144617
663.270	0.0144865
663.348	0.0144531
663.426	0.0143802
663.504	0.0142616
663.582	0.0143079
663.660	0.0142637
663.738	0.0141184
663.817	0.0142088
663.895	0.0142471
663.973	0.0141608
664.051	0.0141208
664.129	0.0141975
664.207	0.0141652
664.285	0.0140668
664.363	0.0140491
664.442	0.0142275
664.520	0.0140771
664.598	0.0139861
664.676	0.0141200
664.754	0.0140813
664.832	0.0142543
664.910	0.0142142
664.988	0.0141733
665.067	0.0142020
665.145	0.0142967
665.223	0.0142491
665.301	0.0141118
665.379	0.0142290
665.457	0.0141472
665.535	0.0141930
665.613	0.0142083
665.692	0.0141718
665.770	0.0142132
665.848	0.0142431
665.926	0.0141355
666.004	0.0142083
666.082	0.0141487
666.160	0.0141897
666.238	0.0142589
666.317	0.0142806
666.395	0.0142197
666.473	0.0143559
666.551	0.0143346
666.629	0.0143900
666.707	0.0142970
666.785	0.0144101
666.863	0.0145280
666.942	0.0143680
667.020	0.0142607
667.098	0.0142232
667.176	0.0143318
667.254	0.0142548
667.332	0.0142113
667.410	0.0141705
667.488	0.0142754
667.567	0.0142532
667.645	0.0141839
667.723	0.0142583
667.801	0.0141267
667.879	0.0141613
667.957	0.0143623
668.035	0.0142101
668.113	0.0142242
668.192	0.0141730
668.270	0.0144243
668.348	0.0144301
668.426	0.0143178
668.504	0.0143632
668.582	0.0143726
668.660	0.0142828
668.738	0.0143768
668.817	0.0143649
668.895	0.0143213
668.973	0.0140635
669.051	0.0140910
669.129	0.0142460
669.207	0.0141874
669.285	0.0141219
669.363	0.0139861
669.442	0.0140837
669.520	0.0140260
669.598	0.0139404
669.676	0.0139507
669.754	0.0138647
669.832	0.0140099
669.910	0.0141077
669.988	0.0139949
670.067	0.0139987
670.145	0.0141073
670.223	0.0142161
670.301	0.0139970
670.379	0.0140439
670.457	0.0140894
670.535	0.0141982
670.613	0.0142303
670.692	0.0140670
670.770	0.0140148
670.848	0.0140517
670.926	0.0141733
671.004	0.0140022
671.082	0.0139886
671.160	0.0140479
671.238	0.0140954
671.317	0.0140511
671.395	0.0140659
671.473	0.0141597
671.551	0.0142975
671.629	0.0141402
671.707	0.0142015
671.785	0.0140777
671.863	0.0141816
671.942	0.0142732
672.020	0.0142374
672.098	0.0143183
672.176	0.0143174
672.254	0.0142941
672.332	0.0143124
672.410	0.0141496
672.488	0.0142572
672.567	0.0142297
672.645	0.0142996
672.723	0.0144380
672.801	0.0144210
672.879	0.0141765
672.957	0.0142535
673.035	0.0143050
673.113	0.0144059
673.192	0.0142928
673.270	0.0143503
673.348	0.0144270
673.426	0.0142974
673.504	0.0143239
673.582	0.0140765
673.660	0.0141014
673.738	0.0141645
673.817	0.0141223
673.895	0.0141042
673.973	0.0140520
674.051	0.0140412
674.129	0.0140168
674.207	0.0138802
674.285	0.0138348
674.363	0.0138358
674.442	0.0140355
674.520	0.0137769
674.598	0.0136222
674.676	0.0137516
674.754	0.0136860
674.832	0.0137627
674.910	0.0137710
674.988	0.0136890
675.067	0.0136404
675.145	0.0138173
675.223	0.0137919
675.301	0.0139324
675.379	0.0138745
675.457	0.0138020
675.535	0.0140234
675.613	0.0140318
675.692	0.0141222
675.770	0.0139204
675.848	0.0140508
675.926	0.0141975
676.004	0.0142724
676.082	0.0141190
676.160	0.0142935
676.238	0.0145047
676.317	0.0144480
676.395	0.0144654
676.473	0.0145718
676.551	0.0146253
676.629	0.0146890
676.707	0.0145380
676.785	0.0145953
676.863	0.0145191
676.942	0.0145860
677.020	0.0144836
677.098	0.0145558
677.176	0.0144334
677.254	0.0145073
677.332	0.0145196
677.410	0.0144332
677.488	0.0143325
677.567	0.0144456
677.645	0.0145006
677.723	0.0143845
677.801	0.0142387
677.879	0.0143498
677.957	0.0142745
678.035	0.0142022
678.113	0.0141904
678.192	0.0140598
678.270	0.0141050
678.348	0.0141770
678.426	0.0140343
678.504	0.0139925
678.582	0.0141818
678.660	0.0140379
678.738	0.0140971
678.817	0.0139130
678.895	0.0140389
678.973	0.0141615
679.051	0.0139407
679.129	0.0138881
679.207	0.0139396
679.285	0.0139963
679.363	0.0139654
679.442	0.0139307
679.520	0.0140688
679.598	0.0141171
679.676	0.0142014
679.754	0.0141222
679.832	0.0140364
679.910	0.0141444
679.988	0.0141599
680.067	0.0142905
680.145	0.0141628
680.223	0.0141462
680.301	0.0141417
680.379	0.0140625
680.457	0.0140413
680.535	0.0140036
680.613	0.0140430
680.692	0.0139339
680.770	0.0138919
680.848	0.0139450
680.926	0.0139684
681.004	0.0138825
681.082	0.0140491
681.160	0.0141080
681.238	0.0139367
681.317	0.0140823
681.395	0.0139960
681.473	0.0141558
681.551	0.0140790
681.629	0.0140776
681.707	0.0141901
681.785	0.0143444
681.863	0.0141136
681.942	0.0143008
682.020	0.0142986
682.098	0.0141596
682.176	0.0142973
682.254	0.0142682
682.332	0.0142984
682.410	0.0142648
682.488	0.0141602
682.567	0.0142609
682.645	0.0141681
682.723	0.0141673
682.801	0.0142322
682.879	0.0141067
682.957	0.0141003
683.035	0.0141406
683.113	0.0141055
683.192	0.0140894
683.270	0.0141660
683.348	0.0140563
683.426	0.0141451
683.504	0.0139908
683.582	0.0141074
683.660	0.0141264
683.738	0.0140554
683.817	0.0141260
683.895	0.0141535
683.973	0.0142159
684.051	0.0141067
684.129	0.0141406
684.207	0.0141115
684.285	0.0141610
684.363	0.0142511
684.442	0.0142625
684.520	0.0143066
684.598	0.0142315
684.676	0.0142393
684.754	0.0141480
684.832	0.0142350
684.910	0.0141712
684.988	0.0142068
685.067	0.0143579
685.145	0.0142068
685.223	0.0142258
685.301	0.0141902
685.379	0.0142385
685.457	0.0142473
685.535	0.0142165
685.613	0.0142863
685.692	0.0141679
685.770	0.0140266
685.848	0.0141086
685.926	0.0140348
686.004	0.0142079
686.082	0.0140899
686.160	0.0139762
686.238	0.0141854
686.317	0.0141507
686.395	0.0141293
686.473	0.0141309
686.551	0.0139616
686.629	0.0140294
686.707	0.0140009
686.785	0.0140754
686.863	0.0141875
686.942	0.0141806
687.020	0.0141139
687.098	0.0142528
687.176	0.0142525
687.254	0.0143510
687.332	0.0143241
687.410	0.0143352
687.488	0.0145052
687.567	0.0144312
687.645	0.0144745
687.723	0.0146275
687.801	0.0146075
687.879	0.0144247
687.957	0.0144966
688.035	0.0144469
688.113	0.0146162
688.192	0.0145650
688.270	0.0144534
688.348	0.0143670
688.426	0.0143886
688.504	0.0144338
688.582	0.0142474
688.660	0.0144736
688.738	0.0142989
688.817	0.0142677
688.895	0.0141517
688.973	0.0142482
689.051	0.0143003
689.129	0.0142195
689.207	0.0142855
689.285	0.0142062
689.363	0.0142651
689.442	0.0140405
689.520	0.0140410
689.598	0.0141502
689.676	0.0140928
689.754	0.0141388
689.832	0.0139333
689.910	0.0140292
689.988	0.0141733
690.067	0.0140022
690.145	0.0139169
690.223	0.0141459
690.301	0.0140278
690.379	0.0140814
690.457	0.0140400
690.535	0.0138921
690.613	0.0138813
690.692	0.0139742
690.770	0.0140633
690.848	0.0139165
690.926	0.0139836
691.004	0.0139132
691.082	0.0139288
691.160	0.0140015
691.238	0.0140356
691.317	0.0139909
691.395	0.0140649
691.473	0.0140833
691.551	0.0141203
691.629	0.0141240
691.707	0.0141833
691.785	0.0142191
691.863	0.0142207
691.942	0.0141044
692.020	0.0141277
692.098	0.0142146
692.176	0.0142066
692.254	0.0141689
692.332	0.0140688
692.410	0.0141476
692.488	0.0140630
692.567	0.0140769
692.645	0.0141362
692.723	0.0141981
692.801	0.0140756
692.879	0.0141431
692.957	0.0141462
693.035	0.0141098
693.113	0.0142790
693.192	0.0141901
693.270	0.0141866
693.348	0.0142035
693.426	0.0143269
693.504	0.0144093
693.582	0.0144445
693.660	0.0144226
693.738	0.0144055
693.817	0.0144959
693.895	0.0145486
693.973	0.0146319
694.051	0.0145142
694.129	0.0144941
694.207	0.0145413
694.285	0.0144865
694.363	0.0145487
694.442	0.0145560
694.520	0.0144515
694.598	0.0144859
694.676	0.0144283
694.754	0.0145410
694.832	0.0146149
694.910	0.0146055
694.988	0.0143755
695.067	0.0143149
695.145	0.0143064
695.223	0.0144022
695.301	0.0144193
695.379	0.0142747
695.457	0.0140349
695.535	0.0142591
695.613	0.0141056
695.692	0.0140475
695.770	0.0140672
695.848	0.0140015
695.926	0.0139461
696.004	0.0138242
696.082	0.0138937
696.160	0.0140418
696.238	0.0138239
696.317	0.0138027
696.395	0.0138003
696.473	0.0136668
696.551	0.0137534
696.629	0.0136597
696.707	0.0136871
696.785	0.0137326
696.863	0.0137766
696.942	0.0137037
697.020	0.0136534
697.098	0.0136692
697.176	0.0138431
697.254	0.0138030
697.332	0.0138280
697.410	0.0139191
697.488	0.0139096
697.567	0.0139458
697.645	0.0140467
697.723	0.0141881
697.801	0.0141278
697.879	0.0141929
697.957	0.0143080
698.035	0.0142683
698.113	0.0143390
698.192	0.0145030
698.270	0.0145147
698.348	0.0144032
698.426	0.0145442
698.504	0.0145699
698.582	0.0145805
698.660	0.0144971
698.738	0.0144840
698.817	0.0145027
698.895	0.0144639
698.973	0.0145402
699.051	0.0146217
699.129	0.0143093
699.207	0.0144275
699.285	0.0142714
699.363	0.0142072
699.442	0.0142075
699.520	0.0141752
699.598	0.0141785
699.676	0.0140855
699.754	0.0139960
699.832	0.0138930
699.910	0.0139225
699.988	0.0140131
700.067	0.0139525
700.145	0.0138252
700.223	0.0137595
700.301	0.0137390
700.379	0.0137098
700.457	0.0137415
700.535	0.0137222
700.613	0.0135678
700.692	0.0135952
700.770	0.0137572
700.848	0.0135419
700.926	0.0136688
701.004	0.0136744
701.082	0.0137125
701.160	0.0136431
701.238	0.0137189
701.317	0.0137096
701.395	0.0137283
701.473	0.0138000
701.551	0.0138107
701.629	0.0138644
701.707	0.0138330
701.785	0.0139324
701.863	0.0140018
701.942	0.0139477
702.020	0.0141143
702.098	0.0141302
702.176	0.0140923
702.254	0.0142451
702.332	0.0142976
702.410	0.0142298
702.488	0.0143306
702.567	0.0143666
702.645	0.0145303
702.723	0.0146641
702.801	0.0145184
702.879	0.0145584
702.957	0.0144687
703.035	0.0144687
703.113	0.0146349
703.192	0.0145683
703.270	0.0146048
703.348	0.0144872
703.426	0.0145190
703.504	0.0144314
703.582	0.0144366
703.660	0.0144131
703.738	0.0144221
703.817	0.0145342
703.895	0.0144224
703.973	0.0143362
704.051	0.0142252
704.129	0.0143968
704.207	0.0144435
704.285	0.0142858
704.363	0.0143100
704.442	0.0141587
704.520	0.0143032
704.598	0.0142578
704.676	0.0141687
704.754	0.0141443
704.832	0.0141875
704.910	0.0141977
704.988	0.0141766
705.067	0.0142583
705.145	0.0142666
705.223	0.0142953
705.301	0.0142673
705.379	0.0141735
705.457	0.0142406
705.535	0.0142439
705.613	0.0143015
705.692	0.0142458
705.770	0.0142741
705.848	0.0142165
705.926	0.0141909
706.004	0.0142693
706.082	0.0143151
706.160	0.0141500
706.238	0.0141223
706.317	0.0141058
706.395	0.0141908
706.473	0.0140501
706.551	0.0139813
706.629	0.0140891
706.707	0.0141368
706.785	0.0140872
706.863	0.0141178
706.942	0.0140208
707.020	0.0140137
707.098	0.0141328
707.176	0.0141098
707.254	0.0142143
707.332	0.0143094
707.410	0.0143333
707.488	0.0143423
707.567	0.0142377
707.645	0.0143703
707.723	0.0143043
707.801	0.0143716
707.879	0.0144413
707.957	0.0143767
708.035	0.0144804
708.113	0.0144410
708.192	0.0146683
708.270	0.0145248
708.348	0.0144459
708.426	0.0145947
708.504	0.0144444
708.582	0.0144794
708.660	0.0143623
708.738	0.0143136
708.817	0.0143973
708.895	0.0145172
708.973	0.0142634
709.051	0.0142169
709.129	0.0142262
709.207	0.0141078
709.285	0.0141289
709.363	0.0141084
709.442	0.0141412
709.520	0.0141109
709.598	0.0142096
709.676	0.0141579
709.754	0.0141803
709.832	0.0141760
709.910	0.0140972
709.988	0.0141584
710.067	0.0140907
710.145	0.0142419
710.223	0.0142333
710.301	0.0142067
710.379	0.0144387
710.457	0.0142256
710.535	0.0144549
710.613	0.0142970
710.692	0.0141309
710.770	0.0143630
710.848	0.0143975
710.926	0.0144761
711.004	0.0143124
711.082	0.0143054
711.160	0.0143011
711.238	0.0141954
711.317	0.0143497
711.395	0.0142313
711.473	0.0141473
711.551	0.0140326
711.629	0.0140150
711.707	0.0141348
711.785	0.0140994
711.863	0.0139645
711.942	0.0140399
712.020	0.0140311
712.098	0.0139829
712.176	0.0138749
712.254	0.0140810
712.332	0.0141134
712.410	0.0138497
712.488	0.0140178
712.567	0.0141461
712.645	0.0140845
712.723	0.0141762
712.801	0.0141451
712.879	0.0140959
712.957	0.0142135
713.035	0.0141223
713.113	0.0142544
713.192	0.0142000
713.270	0.0142751
713.348	0.0142515
713.426	0.0142109
713.504	0.0143258
713.582	0.0141688
713.660	0.0143431
713.738	0.0142576
713.817	0.0141985
713.895	0.0142658
713.973	0.0143119
714.051	0.0141616
714.129	0.0142410
714.207	0.0142441
714.285	0.0142012
714.363	0.0142467
714.442	0.0141718
714.520	0.0141354
714.598	0.0141057
714.676	0.0140195
714.754	0.0140173
714.832	0.0140619
714.910	0.0141013
714.988	0.0140422
715.067	0.0139845
715.145	0.0139735
715.223	0.0141129
715.301	0.0140852
715.379	0.0141732
715.457	0.0140598
715.535	0.0140970
715.613	0.0141957
715.692	0.0142477
715.770	0.0142150
715.848	0.0141749
715.926	0.0142883
716.004	0.0142914
716.082	0.0144432
716.160	0.0142197
716.238	0.0142754
716.317	0.0143195
716.395	0.0142909
716.473	0.0143111
716.551	0.0142332
716.629	0.0141160
716.707	0.0141998
716.785	0.0142178
716.863	0.0141305
716.942	0.0139985
717.020	0.0140936
717.098	0.0140824
717.176	0.0142136
717.254	0.0144106
717.332	0.0143767
717.410	0.0143844
717.488	0.0140772
717.567	0.0142356
717.645	0.0142929
717.723	0.0143298
717.801	0.0144163
717.879	0.0142894
717.957	0.0143950
718.035	0.0142710
718.113	0.0142836
718.192	0.0143326
718.270	0.0143102
718.348	0.0143247
718.426	0.0142548
718.504	0.0142629
718.582	0.0142846
718.660	0.0141389
718.738	0.0142708
718.817	0.0143407
718.895	0.0142663
718.973	0.0144682
719.051	0.0142406
719.129	0.0142612
719.207	0.0143321
719.285	0.0143191
719.363	0.0143016
719.442	0.0143108
719.520	0.0143974
719.598	0.0143980
719.676	0.0144676
719.754	0.0143113
719.832	0.0142814
719.910	0.0142517
719.988	0.0142825
720.067	0.0144489
720.145	0.0144524
720.223	0.0143062
720.301	0.0143200
720.379	0.0143434
720.457	0.0143066
720.535	0.0143520
720.613	0.0143624
720.692	0.0143484
720.770	0.0143191
720.848	0.0144510
720.926	0.0143500
721.004	0.0142365
721.082	0.0142698
721.160	0.0142065
721.238	0.0142778
721.317	0.0143183
721.395	0.0142379
721.473	0.0141975
721.551	0.0141278
721.629	0.0142002
721.707	0.0141905
721.785	0.0143550
721.863	0.0142284
721.942	0.0142702
722.020	0.0141754
722.098	0.0143470
722.176	0.0141911
722.254	0.0141585
722.332	0.0143218
722.410	0.0142483
722.488	0.0142638
722.567	0.0142921
722.645	0.0143113
722.723	0.0142591
722.801	0.0143795
722.879	0.0145142
722.957	0.0145250
723.035	0.0144514
723.113	0.0144662
723.192	0.0144095
723.270	0.0143629
723.348	0.0142609
723.426	0.0142501
723.504	0.0142154
723.582	0.0141348
723.660	0.0142357
723.738	0.0143401
723.817	0.0141689
723.895	0.0141949
723.973	0.0142426
724.051	0.0140507
724.129	0.0140878
724.207	0.0139227
724.285	0.0141299
724.363	0.0140175
724.442	0.0139935
724.520	0.0140353
724.598	0.0138937
724.676	0.0139790
724.754	0.0141483
724.832	0.0140801
724.910	0.0140466
724.988	0.0141396
725.067	0.0141331
725.145	0.0141126
725.223	0.0140923
725.301	0.0142616
725.379	0.0141733
725.457	0.0141615
725.535	0.0141860
725.613	0.0142096
725.692	0.0143074
725.770	0.0141822
725.848	0.0144020
725.926	0.0143626
726.004	0.0142533
726.082	0.0143137
726.160	0.0143459
726.238	0.0143620
726.317	0.0140995
726.395	0.0142945
726.473	0.0142593
726.551	0.0142974
726.629	0.0143645
726.707	0.0143713
726.785	0.0143269
726.863	0.0143275
726.942	0.0142735
727.020	0.0142030
727.098	0.0142898
727.176	0.0142818
727.254	0.0141969
727.332	0.0143740
727.410	0.0144242
727.488	0.0144373
727.567	0.0143078
727.645	0.0141432
727.723	0.0141016
727.801	0.0142481
727.879	0.0141349
727.957	0.0141180
728.035	0.0142696
728.113	0.0142786
728.192	0.0141849
728.270	0.0142506
728.348	0.0142877
728.426	0.0142695
728.504	0.0142010
728.582	0.0143001
728.660	0.0143517
728.738	0.0143566
728.817	0.0143768
728.895	0.0143610
728.973	0.0142167
729.051	0.0143156
729.129	0.0142485
729.207	0.0143648
729.285	0.0143843
729.363	0.0142244
729.442	0.0143036
729.520	0.0143775
729.598	0.0142175
729.676	0.0144036
729.754	0.0142133
729.832	0.0140182
729.910	0.0142469
729.988	0.0141363
730.067	0.0142075
730.145	0.0140694
730.223	0.0141218
730.301	0.0141196
730.379	0.0140125
730.457	0.0140091
730.535	0.0140657
730.613	0.0140738
730.692	0.0141286
730.770	0.0139957
730.848	0.0141795
730.926	0.0141723
731.004	0.0141097
731.082	0.0141655
731.160	0.0141530
731.238	0.0141840
731.317	0.0141771
731.395	0.0143678
731.473	0.0143816
731.551	0.0143497
731.629	0.0143650
731.707	0.0145238
731.785	0.0144682
731.863	0.0142943
731.942	0.0144049
732.020	0.0144218
732.098	0.0145157
732.176	0.0144718
732.254	0.0144291
732.332	0.0144715
732.410	0.0145255
732.488	0.0144456
732.567	0.0143974
732.645	0.0144864
732.723	0.0143861
732.801	0.0143980
732.879	0.0145362
732.957	0.0143803
733.035	0.0143390
733.113	0.0143118
733.192	0.0143468
733.270	0.0143153
733.348	0.0143635
733.426	0.0143039
733.504	0.0141956
733.582	0.0142719
733.660	0.0143298
733.738	0.0142257
733.817	0.0140875
733.895	0.0142645
733.973	0.0142257
734.051	0.0141551
734.129	0.0141019
734.207	0.0140211
734.285	0.0141492
734.363	0.0140680
734.442	0.0140361
734.520	0.0140521
734.598	0.0140885
734.676	0.0140443
734.754	0.0139793
734.832	0.0142181
734.910	0.0141424
734.988	0.0141162
735.067	0.0142694
735.145	0.0141251
735.223	0.0141135
735.301	0.0139844
735.379	0.0139892
735.457	0.0140634
735.535	0.0141196
735.613	0.0140394
735.692	0.0140076
735.770	0.0139860
735.848	0.0140813
735.926	0.0139495
736.004	0.0140151
736.082	0.0140524
736.160	0.0139891
736.238	0.0140160
736.317	0.0139176
736.395	0.0141233
736.473	0.0139414
736.551	0.0139825
736.629	0.0140382
736.707	0.0139715
736.785	0.0139093
736.863	0.0139874
736.942	0.0138634
737.020	0.0140292
737.098	0.0139429
737.176	0.0139537
737.254	0.0140160
737.332	0.0140262
737.410	0.0140234
737.488	0.0141500
737.567	0.0139148
737.645	0.0140631
737.723	0.0140590
737.801	0.0141477
737.879	0.0140700
737.957	0.0141457
738.035	0.0141042
738.113	0.0140618
738.192	0.0142545
738.270	0.0142226
738.348	0.0141321
738.426	0.0142498
738.504	0.0142631
738.582	0.0142904
738.660	0.0142773
738.738	0.0143437
738.817	0.0142506
738.895	0.0141569
738.973	0.0141202
739.051	0.0140666
739.129	0.0141061
739.207	0.0141702
739.285	0.0140639
739.363	0.0141503
739.442	0.0141705
739.520	0.0141649
739.598	0.0142069
739.676	0.0141562
739.754	0.0140679
739.832	0.0141216
739.910	0.0141713
739.988	0.0141114
740.067	0.0141811
740.145	0.0141666
740.223	0.0141148
740.301	0.0142272
740.379	0.0141908
740.457	0.0141363
740.535	0.0141957
740.613	0.0143693
740.692	0.0142386
740.770	0.0143037
740.848	0.0142654
740.926	0.0142152
741.004	0.0141626
741.082	0.0143516
741.160	0.0141367
741.238	0.0142250
741.317	0.0142615
741.395	0.0142447
741.473	0.0142329
741.551	0.0142942
741.629	0.0142323
741.707	0.0141161
741.785	0.0142121
741.863	0.0142958
741.942	0.0141335
742.020	0.0142036
742.098	0.0141859
742.176	0.0141756
742.254	0.0144218
742.332	0.0141869
742.410	0.0141951
742.488	0.0142576
742.567	0.0141811
742.645	0.0141941
742.723	0.0142657
742.801	0.0141088
742.879	0.0142863
742.957	0.0143034
743.035	0.0143097
743.113	0.0143741
743.192	0.0142188
743.270	0.0140648
743.348	0.0141061
743.426	0.0142058
743.504	0.0143530
743.582	0.0142704
743.660	0.0142024
743.738	0.0143097
743.817	0.0142938
743.895	0.0142373
743.973	0.0142413
744.051	0.0142975
744.129	0.0142361
744.207	0.0142085
744.285	0.0141996
744.363	0.0141786
744.442	0.0142322
744.520	0.0142953
744.598	0.0141679
744.676	0.0142262
744.754	0.0143360
744.832	0.0143356
744.910	0.0141868
744.988	0.0142303
745.067	0.0142937
745.145	0.0143615
745.223	0.0142553
745.301	0.0142062
745.379	0.0140630
745.457	0.0143855
745.535	0.0142342
745.613	0.0142617
745.692	0.0142702
745.770	0.0141692
745.848	0.0142418
745.926	0.0142453
746.004	0.0143043
746.082	0.0142893
746.160	0.0142782
746.238	0.0142259
746.317	0.0140801
746.395	0.0141228
746.473	0.0141658
746.551	0.0141675
746.629	0.0141125
746.707	0.0138993
746.785	0.0140279
746.863	0.0142023
746.942	0.0140613
747.020	0.0140088
747.098	0.0140459
747.176	0.0141096
747.254	0.0142068
747.332	0.0140374
747.410	0.0140288
747.488	0.0140900
747.567	0.0142097
747.645	0.0140373
747.723	0.0140428
747.801	0.0141272
747.879	0.0141729
747.957	0.0141863
748.035	0.0141293
748.113	0.0141848
748.192	0.0142511
748.270	0.0140891
748.348	0.0141035
748.426	0.0140355
748.504	0.0140655
748.582	0.0142264
748.660	0.0140166
748.738	0.0141803
748.817	0.0141041
748.895	0.0140696
748.973	0.0141436
749.051	0.0141447
749.129	0.0142863
749.207	0.0141195
749.285	0.0141808
749.363	0.0141675
749.442	0.0142149
749.520	0.0142522
749.598	0.0143337
749.676	0.0143784
749.754	0.0144008
749.832	0.0144106
749.910	0.0144525
749.988	0.0143987
750.067	0.0144557
750.145	0.0145909
750.223	0.0144456
750.301	0.0143630
750.379	0.0143199
750.457	0.0145126
750.535	0.0145113
750.613	0.0144337
750.692	0.0144249
750.770	0.0143291
750.848	0.0145843
750.926	0.0144959
751.004	0.0144067
751.082	0.0143831
751.160	0.0144754
751.238	0.0145143
751.317	0.0143238
751.395	0.0144995
751.473	0.0144151
751.551	0.0144601
751.629	0.0144320
751.707	0.0144179
751.785	0.0145013
751.863	0.0144732
751.942	0.0143922
752.020	0.0143465
752.098	0.0144619
752.176	0.0144521
752.254	0.0142956
752.332	0.0143959
752.410	0.0143401
752.488	0.0144434
752.567	0.0143869
752.645	0.0142667
752.723	0.0143554
752.801	0.0145619
752.879	0.0141530
752.957	0.0144104
753.035	0.0144060
753.113	0.0144303
753.192	0.0143455
753.270	0.0142769
753.348	0.0143313
753.426	0.0142159
753.504	0.0143285
753.582	0.0142305
753.660	0.0141882
753.738	0.0142587
753.817	0.0140604
753.895	0.0141535
753.973	0.0142133
754.051	0.0141991
754.129	0.0141891
754.207	0.0140826
754.285	0.0139675
754.363	0.0140777
754.442	0.0141806
754.520	0.0141180
754.598	0.0140784
754.676	0.0140874
754.754	0.0140479
754.832	0.0141360
754.910	0.0140282
754.988	0.0140979
755.067	0.0140319
755.145	0.0141440
755.223	0.0140374
755.301	0.0139964
755.379	0.0139910
755.457	0.0141164
755.535	0.0139083
755.613	0.0139754
755.692	0.0138669
755.770	0.0139722
755.848	0.0140450
755.926	0.0140927
756.004	0.0138615
756.082	0.0139957
756.160	0.0140326
756.238	0.0140253
756.317	0.0139516
756.395	0.0139799
756.473	0.0138623
756.551	0.0140132
756.629	0.0139643
756.707	0.0139049
756.785	0.0138180
756.863	0.0140067
756.942	0.0140172
757.020	0.0139114
757.098	0.0138931
757.176	0.0140287
757.254	0.0139263
757.332	0.0140256
757.410	0.0140503
757.488	0.0139999
757.567	0.0139605
757.645	0.0139573
757.723	0.0139275
757.801	0.0139434
757.879	0.0139339
757.957	0.0139526
758.035	0.0139651
758.113	0.0139729
758.192	0.0138693
758.270	0.0139222
758.348	0.0138945
758.426	0.0139307
758.504	0.0139239
758.582	0.0138450
758.660	0.0138708
758.738	0.0139157
758.817	0.0138660
758.895	0.0139056
758.973	0.0138837
759.051	0.0140408
759.129	0.0138658
759.207	0.0138869
759.285	0.0139587
759.363	0.0140452
759.442	0.0140352
759.520	0.0140440
759.598	0.0142170
759.676	0.0140717
759.754	0.0142363
759.832	0.0140643
759.910	0.0141145
759.988	0.0142033
760.067	0.0141737
760.145	0.0141476
760.223	0.0141930
760.301	0.0142205
760.379	0.0142379
760.457	0.0142866
760.535	0.0142931
760.613	0.0143702
760.692	0.0143970
760.770	0.0142988
760.848	0.0143463
760.926	0.0144872
761.004	0.0145259
761.082	0.0142864
761.160	0.0143469
761.238	0.0143236
761.317	0.0143011
761.395	0.0143545
761.473	0.0142650
761.551	0.0143674
761.629	0.0142624
761.707	0.0141986
761.785	0.0141917
761.863	0.0142853
761.942	0.0143224
762.020	0.0142668
762.098	0.0141625
762.176	0.0142593
762.254	0.0143736
762.332	0.0143113
762.410	0.0142657
762.488	0.0142921
762.567	0.0141745
762.645	0.0141861
762.723	0.0142920
762.801	0.0143594
762.879	0.0141452
762.957	0.0142205
763.035	0.0142681
763.113	0.0142272
763.192	0.0142966
763.270	0.0142358
763.348	0.0143459
763.426	0.0143682
763.504	0.0142706
763.582	0.0142759
763.660	0.0143389
763.738	0.0143149
763.817	0.0142806
763.895	0.0141178
763.973	0.0142747
764.051	0.0141775
764.129	0.0142045
764.207	0.0142306
764.285	0.0140727
764.363	0.0141297
764.442	0.0140300
764.520	0.0140794
764.598	0.0140920
764.676	0.0140756
764.754	0.0141318
764.832	0.0141325
764.910	0.0140414
764.988	0.0139756
765.067	0.0140517
765.145	0.0139219
765.223	0.0139082
765.301	0.0140432
765.379	0.0140697
765.457	0.0139200
765.535	0.0139618
765.613	0.0139297
765.692	0.0139600
765.770	0.0140632
765.848	0.0139639
765.926	0.0139384
766.004	0.0141313
766.082	0.0139497
766.160	0.0139532
766.238	0.0140273
766.317	0.0141077
766.395	0.0139947
766.473	0.0138809
766.551	0.0140098
766.629	0.0139102
766.707	0.0138961
766.785	0.0140549
766.863	0.0139939
766.942	0.0139943
767.020	0.0139632
767.098	0.0140958
767.176	0.0139388
767.254	0.0141173
767.332	0.0140167
767.410	0.0140621
767.488	0.0140934
767.567	0.0141468
767.645	0.0140960
767.723	0.0141932
767.801	0.0140694
767.879	0.0140862
767.957	0.0141184
768.035	0.0142400
768.113	0.0141662
768.192	0.0141529
768.270	0.0141537
768.348	0.0142512
768.426	0.0142430
768.504	0.0139638
768.582	0.0140897
768.660	0.0143401
768.738	0.0142682
768.817	0.0142317
768.895	0.0141599
768.973	0.0143107
769.051	0.0143371
769.129	0.0141753
769.207	0.0141792
769.285	0.0144110
769.363	0.0142141
769.442	0.0143599
769.520	0.0143246
769.598	0.0143298
769.676	0.0143932
769.754	0.0142820
769.832	0.0142799
769.910	0.0142835
769.988	0.0143273
770.067	0.0142258
770.145	0.0142596
770.223	0.0141747
770.301	0.0142866
770.379	0.0142970
770.457	0.0143308
770.535	0.0144652
770.613	0.0142410
770.692	0.0141096
770.770	0.0143858
770.848	0.0142271
770.926	0.0143975
771.004	0.0144110
771.082	0.0143552
771.160	0.0141576
771.238	0.0142471
771.317	0.0142216
771.395	0.0141457
771.473	0.0142310
771.551	0.0143297
771.629	0.0143796
771.707	0.0142865
771.785	0.0142812
771.863	0.0143179
771.942	0.0144328
772.020	0.0142375
772.098	0.0142139
772.176	0.0144136
772.254	0.0143690
772.332	0.0143132
772.410	0.0143683
772.488	0.0143681
772.567	0.0144594
772.645	0.0145087
772.723	0.0143722
772.801	0.0143531
772.879	0.0144657
772.957	0.0145156
773.035	0.0143726
773.113	0.0143512
773.192	0.0143016
773.270	0.0143696
773.348	0.0142665
773.426	0.0143289
773.504	0.0143044
773.582	0.0142714
773.660	0.0143514
773.738	0.0142599
773.817	0.0142287
773.895	0.0143073
773.973	0.0141322
774.051	0.0141141
774.129	0.0142229
774.207	0.0141824
774.285	0.0142203
774.363	0.0142500
774.442	0.0141534
774.520	0.0142993
774.598	0.0141184
774.676	0.0140078
774.754	0.0140340
774.832	0.0141359
774.910	0.0140184
774.988	0.0140752
775.067	0.0141071
775.145	0.0141638
775.223	0.0140836
775.301	0.0139939
775.379	0.0141123
775.457	0.0139825
775.535	0.0141060
775.613	0.0141756
775.692	0.0140983
775.770	0.0139663
775.848	0.0141084
775.926	0.0141292
776.004	0.0142009
776.082	0.0141258
776.160	0.0140345
776.238	0.0142365
776.317	0.0142574
776.395	0.0142361
776.473	0.0141257
776.551	0.0141228
776.629	0.0142046
776.707	0.0143153
776.785	0.0143117
776.863	0.0141476
776.942	0.0143210
777.020	0.0142130
777.098	0.0141523
777.176	0.0142972
777.254	0.0140887
777.332	0.0140501
777.410	0.0142471
777.488	0.0143145
777.567	0.0140585
777.645	0.0140974
777.723	0.0140951
777.801	0.0141523
777.879	0.0141290
777.957	0.0141241
778.035	0.0142068
778.113	0.0142200
778.192	0.0140703
778.270	0.0141002
778.348	0.0140677
778.426	0.0141660
778.504	0.0140838
778.582	0.0140455
778.660	0.0140985
778.738	0.0141572
778.817	0.0140399
778.895	0.0139777
778.973	0.0140992
779.051	0.0141005
779.129	0.0141586
779.207	0.0140741
779.285	0.0140245
779.363	0.0140045
779.442	0.0139619
779.520	0.0140273
779.598	0.0141734
779.676	0.0141464
779.754	0.0141945
779.832	0.0141788
779.910	0.0139948
779.988	0.0141271
780.067	0.0141956
780.145	0.0139767
780.223	0.0141985
780.301	0.0141969
780.379	0.0140562
780.457	0.0140565
780.535	0.0140916
780.613	0.0140343
780.692	0.0140176
780.770	0.0140285
780.848	0.0140619
780.926	0.0140930
781.004	0.0140714
781.082	0.0141311
781.160	0.0140205
781.238	0.0141154
781.317	0.0139388
781.395	0.0141104
781.473	0.0140769
781.551	0.0141481
781.629	0.0139899
781.707	0.0141859
781.785	0.0141624
781.863	0.0141089
781.942	0.0140289
782.020	0.0141332
782.098	0.0140379
782.176	0.0141634
782.254	0.0142749
782.332	0.0141766
782.410	0.0141097
782.488	0.0141306
782.567	0.0141676
782.645	0.0142640
782.723	0.0142155
782.801	0.0141404
782.879	0.0141476
782.957	0.0142368
783.035	0.0141852
783.113	0.0141441
783.192	0.0141858
783.270	0.0141675
783.348	0.0140767
783.426	0.0141848
783.504	0.0142919
783.582	0.0142428
783.660	0.0143164
783.738	0.0145057
783.817	0.0142969
783.895	0.0142850
783.973	0.0143772
784.051	0.0144604
784.129	0.0145106
784.207	0.0145728
784.285	0.0143929
784.363	0.0144138
784.442	0.0144565
784.520	0.0144558
784.598	0.0143564
784.676	0.0143616
784.754	0.0144193
784.832	0.0144924
784.910	0.0143513
784.988	0.0143206
785.067	0.0143460
785.145	0.0143818
785.223	0.0144024
785.301	0.0143155
785.379	0.0142708
785.457	0.0144499
785.535	0.0142854
785.613	0.0143251
785.692	0.0142610
785.770	0.0143079
785.848	0.0143175
785.926	0.0142385
786.004	0.0142519
786.082	0.0142286
786.160	0.0142380
786.238	0.0142384
786.317	0.0142527
786.395	0.0141151
786.473	0.0140229
786.551	0.0142557
786.629	0.0141740
786.707	0.0142967
786.785	0.0142301
786.863	0.0142630
786.942	0.0143297
787.020	0.0142159
787.098	0.0142995
787.176	0.0143188
787.254	0.0141801
787.332	0.0143243
787.410	0.0144219
787.488	0.0143835
787.567	0.0143941
787.645	0.0144404
787.723	0.0142438
787.801	0.0143632
787.879	0.0143819
787.957	0.0143900
788.035	0.0143583
788.113	0.0143951
788.192	0.0144717
788.270	0.0144627
788.348	0.0141580
788.426	0.0141978
788.504	0.0142399
788.582	0.0141928
788.660	0.0142548
788.738	0.0142378
788.817	0.0141647
788.895	0.0141849
788.973	0.0142613
789.051	0.0143487
789.129	0.0140688
789.207	0.0141589
789.285	0.0141733
789.363	0.0141355
789.442	0.0142938
789.520	0.0142745
789.598	0.0141694
789.676	0.0142372
789.754	0.0142515
789.832	0.0142616
789.910	0.0142201
789.988	0.0140503
790.067	0.0141987
790.145	0.0143254
790.223	0.0142078
790.301	0.0143195
790.379	0.0142437
790.457	0.0142959
790.535	0.0143378
790.613	0.0143462
790.692	0.0142655
790.770	0.0142679
790.848	0.0143363
790.926	0.0143105
791.004	0.0143088
791.082	0.0142922
791.160	0.0142925
791.238	0.0142978
791.317	0.0142995
791.395	0.0144578
791.473	0.0143259
791.551	0.0144342
791.629	0.0144246
791.707	0.0143304
791.785	0.0142381
791.863	0.0145071
791.942	0.0144724
792.020	0.0143111
792.098	0.0143855
792.176	0.0143795
792.254	0.0144021
792.332	0.0142937
792.410	0.0143005
792.488	0.0143576
792.567	0.0144043
792.645	0.0143885
792.723	0.0143241
792.801	0.0143224
792.879	0.0142173
792.957	0.0143095
793.035	0.0142794
793.113	0.0143097
793.192	0.0143252
793.270	0.0143313
793.348	0.0142876
793.426	0.0143911
793.504	0.0142959
793.582	0.0142805
793.660	0.0143131
793.738	0.0142603
793.817	0.0141722
793.895	0.0141698
793.973	0.0141611
794.051	0.0142609
794.129	0.0141222
794.207	0.0141170
794.285	0.0141924
794.363	0.0140028
794.442	0.0142363
794.520	0.0141302
794.598	0.0141628
794.676	0.0142190
794.754	0.0140642
794.832	0.0138628
794.910	0.0141458
794.988	0.0140886
795.067	0.0142060
795.145	0.0141901
795.223	0.0141518
795.301	0.0142071
795.379	0.0142401
795.457	0.0142242
795.535	0.0141435
795.613	0.0142377
795.692	0.0142529
795.770	0.0142071
795.848	0.0141933
795.926	0.0142313
796.004	0.0142524
796.082	0.0141997
796.160	0.0140707
796.238	0.0143037
796.317	0.0143578
796.395	0.0141895
796.473	0.0141963
796.551	0.0143532
796.629	0.0141804
796.707	0.0140164
796.785	0.0140885
796.863	0.0140979
796.942	0.0140150
797.020	0.0141861
797.098	0.0141235
797.176	0.0141030
797.254	0.0142097
797.332	0.0140051
797.410	0.0140729
797.488	0.0140838
797.567	0.0141547
797.645	0.0141566
797.723	0.0141949
797.801	0.0140851
797.879	0.0142300
797.957	0.0142220
798.035	0.0142120
798.113	0.0141459
798.192	0.0140717
798.270	0.0141545
798.348	0.0142355
798.426	0.0141348
798.504	0.0141437
798.582	0.0140849
798.660	0.0142200
798.738	0.0140939
798.817	0.0141442
798.895	0.0141273
798.973	0.0140352
799.051	0.0141094
799.129	0.0140338
799.207	0.0141025
799.285	0.0139564
799.363	0.0141686
799.442	0.0141756
799.520	0.0140331
799.598	0.0140916
799.676	0.0142477
799.754	0.0140623
799.832	0.0140719
799.910	0.0140347
799.988	0.0141293
800.067	0.0141154
800.145	0.0140525
800.223	0.0141296
800.301	0.0141158
800.379	0.0142286
800.457	0.0141596
800.535	0.0140942
800.613	0.0140093
800.692	0.0141681
800.770	0.0141710
800.848	0.0144000
800.926	0.0142410
801.004	0.0141284
801.082	0.0143314
801.160	0.0143740
801.238	0.0142295
801.317	0.0141685
801.395	0.0142365
801.473	0.0143210
801.551	0.0142541
801.629	0.0142975
801.707	0.0141658
801.785	0.0141826
801.863	0.0141674
801.942	0.0141383
802.020	0.0142651
802.098	0.0142683
802.176	0.0141432
802.254	0.0141070
802.332	0.0140832
802.410	0.0142636
802.488	0.0142937
802.567	0.0141998
802.645	0.0141937
802.723	0.0142032
802.801	0.0142362
802.879	0.0141522
802.957	0.0142540
803.035	0.0143475
803.113	0.0143098
803.192	0.0142790
803.270	0.0143168
803.348	0.0141961
803.426	0.0141862
803.504	0.0142819
803.582	0.0144116
803.660	0.0142427
803.738	0.0142400
803.817	0.0144285
803.895	0.0143121
803.973	0.0142686
804.051	0.0144135
804.129	0.0142918
804.207	0.0141748
804.285	0.0143006
804.363	0.0143281
804.442	0.0143001
804.520	0.0144038
804.598	0.0143478
804.676	0.0142251
804.754	0.0143194
804.832	0.0142384
804.910	0.0141629
804.988	0.0142180
805.067	0.0142034
805.145	0.0141261
805.223	0.0141474
805.301	0.0140876
805.379	0.0141731
805.457	0.0140555
805.535	0.0142165
805.613	0.0141542
805.692	0.0140324
805.770	0.0140955
805.848	0.0141334
805.926	0.0139973
806.004	0.0140823
806.082	0.0140118
806.160	0.0140438
806.238	0.0141100
806.317	0.0140567
806.395	0.0140075
806.473	0.0140928
806.551	0.0140012
806.629	0.0140930
806.707	0.0141934
806.785	0.0141112
806.863	0.0141277
806.942	0.0143227
807.020	0.0142698
807.098	0.0143214
807.176	0.0143106
807.254	0.0142321
807.332	0.0142950
807.410	0.0143640
807.488	0.0142686
807.567	0.0142855
807.645	0.0143919
807.723	0.0142785
807.801	0.0143366
807.879	0.0144096
807.957	0.0142717
808.035	0.0142983
808.113	0.0141713
808.192	0.0143180
808.270	0.0143014
808.348	0.0143063
808.426	0.0142553
808.504	0.0144260
808.582	0.0142278
808.660	0.0142033
808.738	0.0142992
808.817	0.0142078
808.895	0.0143060
808.973	0.0143814
809.051	0.0142561
809.129	0.0143111
809.207	0.0143522
809.285	0.0143724
809.363	0.0142770
809.442	0.0143042
809.520	0.0143637
809.598	0.0143142
809.676	0.0142783
809.754	0.0143910
809.832	0.0142709
809.910	0.0141723
809.988	0.0144525
810.067	0.0142617
810.145	0.0142533
810.223	0.0142702
810.301	0.0141569
810.379	0.0142305
810.457	0.0142568
810.535	0.0142619
810.613	0.0142613
810.692	0.0142654
810.770	0.0141611
810.848	0.0141943
810.926	0.0141465
811.004	0.0142221
811.082	0.0142397
811.160	0.0142416
811.238	0.0141856
811.317	0.0141787
811.395	0.0142239
811.473	0.0142818
811.551	0.0142379
811.629	0.0142627
811.707	0.0143565
811.785	0.0142207
811.863	0.0142979
811.942	0.0143489
812.020	0.0142182
812.098	0.0142929
812.176	0.0143994
812.254	0.0143381
812.332	0.0142965
812.410	0.0142263
812.488	0.0143246
812.567	0.0142774
812.645	0.0144809
812.723	0.0143577
812.801	0.0142805
812.879	0.0142245
812.957	0.0142350
813.035	0.0142625
813.113	0.0143052
813.192	0.0143230
813.270	0.0142360
813.348	0.0141615
813.426	0.0143127
813.504	0.0141820
813.582	0.0141857
813.660	0.0141238
813.738	0.0141544
813.817	0.0141211
813.895	0.0143920
813.973	0.0143145
814.051	0.0141225
814.129	0.0141560
814.207	0.0140838
814.285	0.0141050
814.363	0.0141174
814.442	0.0141982
814.520	0.0140884
814.598	0.0142331
814.676	0.0141515
814.754	0.0140734
814.832	0.0141791
814.910	0.0141418
814.988	0.0142013
815.067	0.0142516
815.145	0.0142591
815.223	0.0143240
815.301	0.0143298
815.379	0.0142088
815.457	0.0142289
815.535	0.0143978
815.613	0.0141855
815.692	0.0142774
815.770	0.0143377
815.848	0.0142136
815.926	0.0142892
816.004	0.0142192
816.082	0.0142273
816.160	0.0141750
816.238	0.0142818
816.317	0.0142194
816.395	0.0139883
816.473	0.0141188
816.551	0.0142371
816.629	0.0142236
816.707	0.0142078
816.785	0.0140060
816.863	0.0142052
816.942	0.0141032
817.020	0.0141021
817.098	0.0140665
817.176	0.0141483
817.254	0.0141430
817.332	0.0141676
817.410	0.0142377
817.488	0.0141098
817.567	0.0142648
817.645	0.0141479
817.723	0.0142274
817.801	0.0142028
817.879	0.0142442
817.957	0.0142440
818.035	0.0142709
818.113	0.0142988
818.192	0.0143021
818.270	0.0141573
818.348	0.0142767
818.426	0.0143038
818.504	0.0142375
818.582	0.0143425
818.660	0.0142593
818.738	0.0142973
818.817	0.0142643
818.895	0.0142980
818.973	0.0142341
819.051	0.0142171
819.129	0.0142324
819.207	0.0142211
819.285	0.0141267
819.363	0.0140998
819.442	0.0141816
819.520	0.0142017
819.598	0.0140960
819.676	0.0142007
819.754	0.0141537
819.832	0.0141199
819.910	0.0141697
819.988	0.0142058
820.067	0.0142104
820.145	0.0141198
820.223	0.0141542
820.301	0.0140609
820.379	0.0140974
820.457	0.0140836
820.535	0.0140763
820.613	0.0141791
820.692	0.0142322
820.770	0.0140714
820.848	0.0140688
820.926	0.0141068
821.004	0.0141860
821.082	0.0141608
821.160	0.0141607
821.238	0.0141563
821.317	0.0140717
821.395	0.0139774
821.473	0.0140578
821.551	0.0140696
821.629	0.0140177
821.707	0.0139998
821.785	0.0140236
821.863	0.0140912
821.942	0.0140270
822.020	0.0140337
822.098	0.0140910
822.176	0.0139770
822.254	0.0140631
822.332	0.0140249
822.410	0.0139159
822.488	0.0140156
822.567	0.0140017
822.645	0.0140302
822.723	0.0139179
822.801	0.0140456
822.879	0.0141157
822.957	0.0140413
823.035	0.0139975
823.113	0.0140802
823.192	0.0141285
823.270	0.0140825
823.348	0.0140477
823.426	0.0141865
823.504	0.0140800
823.582	0.0141845
823.660	0.0141517
823.738	0.0141620
823.817	0.0142205
823.895	0.0142098
823.973	0.0142106
824.051	0.0141885
824.129	0.0143839
824.207	0.0144106
824.285	0.0141510
824.363	0.0142115
824.442	0.0143256
824.520	0.0143311
824.598	0.0142422
824.676	0.0142633
824.754	0.0142345
824.832	0.0143107
824.910	0.0141422
824.988	0.0142619
825.067	0.0143749
825.145	0.0142989
825.223	0.0142757
825.301	0.0142079
825.379	0.0141508
825.457	0.0142583
825.535	0.0142709
825.613	0.0144101
825.692	0.0143842
825.770	0.0143738
825.848	0.0144122
825.926	0.0144334
826.004	0.0143592
826.082	0.0144844
826.160	0.0143519
826.238	0.0144730
826.317	0.0142937
826.395	0.0144190
826.473	0.0144716
826.551	0.0145695
826.629	0.0145116
826.707	0.0145121
826.785	0.0144696
826.863	0.0145018
826.942	0.0143545
827.020	0.0144733
827.098	0.0145278
827.176	0.0145197
827.254	0.0144088
827.332	0.0143213
827.410	0.0142819
827.488	0.0143343
827.567	0.0142237
827.645	0.0141827
827.723	0.0142168
827.801	0.0141602
827.879	0.0140673
827.957	0.0139312
828.035	0.0140645
828.113	0.0139904
828.192	0.0141219
828.270	0.0140663
828.348	0.0140045
828.426	0.0139894
828.504	0.0138802
828.582	0.0138199
828.660	0.0139867
828.738	0.0140036
828.817	0.0138798
828.895	0.0138895
828.973	0.0137864
829.051	0.0140025
829.129	0.0139819
829.207	0.0139063
829.285	0.0138612
829.363	0.0140166
829.442	0.0139883
829.520	0.0139360
829.598	0.0141627
829.676	0.0139864
829.754	0.0139864
829.832	0.0141561
829.910	0.0141818
829.988	0.0140769
830.067	0.0141008
830.145	0.0141380
830.223	0.0141521
830.301	0.0142636
830.379	0.0142247
830.457	0.0141872
830.535	0.0141214
830.613	0.0141851
830.692	0.0142403
830.770	0.0141457
830.848	0.0142308
830.926	0.0142415
831.004	0.0141309
831.082	0.0142848
831.160	0.0141883
831.238	0.0143055
831.317	0.0143907
831.395	0.0143296
831.473	0.0141782
831.551	0.0142535
831.629	0.0143064
831.707	0.0142203
831.785	0.0142622
831.863	0.0142744
831.942	0.0143351
832.020	0.0142108
832.098	0.0141914
832.176	0.0142658
832.254	0.0142860
832.332	0.0142421
832.410	0.0141775
832.488	0.0141657
832.567	0.0141964
832.645	0.0142000
832.723	0.0142976
832.801	0.0140759
832.879	0.0141502
832.957	0.0141448
833.035	0.0141069
833.113	0.0140927
833.192	0.0141678
833.270	0.0142247
833.348	0.0141354
833.426	0.0140832
833.504	0.0142049
833.582	0.0141904
833.660	0.0140985
833.738	0.0141579
833.817	0.0139970
833.895	0.0141697
833.973	0.0141844
834.051	0.0142091
834.129	0.0141875
834.207	0.0141588
834.285	0.0142376
834.363	0.0142385
834.442	0.0142367
834.520	0.0142856
834.598	0.0142021
834.676	0.0142274
834.754	0.0142615
834.832	0.0142952
834.910	0.0142168
834.988	0.0140811
835.067	0.0142503
835.145	0.0142708
835.223	0.0142899
835.301	0.0144680
835.379	0.0142921
835.457	0.0142490
835.535	0.0143496
835.613	0.0140854
835.692	0.0141730
835.770	0.0141560
835.848	0.0141594
835.926	0.0141476
836.004	0.0142387
836.082	0.0141709
836.160	0.0141753
836.238	0.0141422
836.317	0.0142218
836.395	0.0142893
836.473	0.0143031
836.551	0.0141222
836.629	0.0142704
836.707	0.0141602
836.785	0.0142561
836.863	0.0142338
836.942	0.0142087
837.020	0.0141680
837.098	0.0142227
837.176	0.0141456
837.254	0.0143430
837.332	0.0142078
837.410	0.0142240
837.488	0.0142035
837.567	0.0141850
837.645	0.0142674
837.723	0.0142165
837.801	0.0141293
837.879	0.0142098
837.957	0.0142201
838.035	0.0140741
838.113	0.0140405
838.192	0.0142228
838.270	0.0141458
838.348	0.0139850
838.426	0.0139993
838.504	0.0139954
838.582	0.0139432
838.660	0.0140501
838.738	0.0138894
838.817	0.0140081
838.895	0.0140760
838.973	0.0140134
839.051	0.0139687
839.129	0.0139220
839.207	0.0140739
839.285	0.0139289
839.363	0.0139558
839.442	0.0139227
839.520	0.0140436
839.598	0.0141655
839.676	0.0139853
839.754	0.0140388
839.832	0.0140713
839.910	0.0139522
839.988	0.0141723
840.067	0.0139704
840.145	0.0140604
840.223	0.0140319
840.301	0.0140208
840.379	0.0140967
840.457	0.0140767
840.535	0.0141210
840.613	0.0140742
840.692	0.0141034
840.770	0.0141174
840.848	0.0141656
840.926	0.0141410
841.004	0.0141256
841.082	0.0142035
841.160	0.0141706
841.238	0.0139870
841.317	0.0140454
841.395	0.0140656
841.473	0.0140648
841.551	0.0140992
841.629	0.0142362
841.707	0.0140714
841.785	0.0140241
841.863	0.0140482
841.942	0.0140316
842.020	0.0140656
842.098	0.0140350
842.176	0.0142754
842.254	0.0141535
842.332	0.0141724
842.410	0.0140466
842.488	0.0141022
842.567	0.0141571
842.645	0.0140932
842.723	0.0141646
842.801	0.0141382
842.879	0.0142648
842.957	0.0142071
843.035	0.0142082
843.113	0.0141510
843.192	0.0141331
843.270	0.0140639
843.348	0.0142057
843.426	0.0142444
843.504	0.0143150
843.582	0.0141463
843.660	0.0140740
843.738	0.0140696
843.817	0.0140871
843.895	0.0141006
843.973	0.0140182
844.051	0.0141595
844.129	0.0140425
844.207	0.0140108
844.285	0.0140594
844.363	0.0140115
844.442	0.0140756
844.520	0.0140523
844.598	0.0139904
844.676	0.0139595
844.754	0.0139811
844.832	0.0139824
844.910	0.0140945
844.988	0.0139682
845.067	0.0140702
845.145	0.0140647
845.223	0.0140911
845.301	0.0140496
845.379	0.0140412
845.457	0.0140672
845.535	0.0142036
845.613	0.0142097
845.692	0.0140778
845.770	0.0141708
845.848	0.0142005
845.926	0.0140097
846.004	0.0141669
846.082	0.0143267
846.160	0.0141805
846.238	0.0141942
846.317	0.0142925
846.395	0.0144180
846.473	0.0143590
846.551	0.0142289
846.629	0.0143409
846.707	0.0143681
846.785	0.0142384
846.863	0.0144153
846.942	0.0143643
847.020	0.0144035
847.098	0.0145913
847.176	0.0144308
847.254	0.0142505
847.332	0.0144102
847.410	0.0143798
847.488	0.0144630
847.567	0.0143819
847.645	0.0143063
847.723	0.0142994
847.801	0.0142966
847.879	0.0143383
847.957	0.0144134
848.035	0.0143567
848.113	0.0143251
848.192	0.0142626
848.270	0.0143279
848.348	0.0143673
848.426	0.0143005
848.504	0.0143398
848.582	0.0143365
848.660	0.0143098
848.738	0.0141947
848.817	0.0142165
848.895	0.0141946
848.973	0.0143092
849.051	0.0142651
849.129	0.0143182
849.207	0.0143227
849.285	0.0141723
849.363	0.0141774
849.442	0.0143189
849.520	0.0142741
849.598	0.0143772
849.676	0.0143712
849.754	0.0141074
849.832	0.0142034
849.910	0.0142615
849.988	0.0141840
850.067	0.0142867
850.145	0.0143190
850.223	0.0142023
850.301	0.0142630
850.379	0.0142645
850.457	0.0141945
850.535	0.0142296
850.613	0.0141555
850.692	0.0142399
850.770	0.0142821
850.848	0.0142381
850.926	0.0142667
851.004	0.0142606
851.082	0.0143173
851.160	0.0142491
851.238	0.0143043
851.317	0.0142666
851.395	0.0143946
851.473	0.0141690
851.551	0.0141370
851.629	0.0142030
851.707	0.0140577
851.785	0.0142621
851.863	0.0141823
851.942	0.0142839
852.020	0.0141759
852.098	0.0143288
852.176	0.0142522
852.254	0.0141562
852.332	0.0142352
852.410	0.0143243
852.488	0.0142721
852.567	0.0141434
852.645	0.0141897
852.723	0.0142746
852.801	0.0141716
852.879	0.0141485
852.957	0.0141065
853.035	0.0142251
853.113	0.0143232
853.192	0.0141889
853.270	0.0142532
853.348	0.0142014
853.426	0.0141281
853.504	0.0141687
853.582	0.0141938
853.660	0.0141909
853.738	0.0141724
853.817	0.0141280
853.895	0.0142115
853.973	0.0141779
854.051	0.0142516
854.129	0.0143457
854.207	0.0143164
854.285	0.0142755
854.363	0.0143623
854.442	0.0144030
854.520	0.0143574
854.598	0.0143568
854.676	0.0142000
854.754	0.0142755
854.832	0.0143997
854.910	0.0143140
854.988	0.0142396
855.067	0.0143121
855.145	0.0143562
855.223	0.0142776
855.301	0.0143263
855.379	0.0142840
855.457	0.0143942
855.535	0.0142684
855.613	0.0141399
855.692	0.0142941
855.770	0.0141530
855.848	0.0141985
855.926	0.0142231
856.004	0.0141439
856.082	0.0141442
856.160	0.0140897
856.238	0.0141718
856.317	0.0142226
856.395	0.0143339
856.473	0.0142032
856.551	0.0142042
856.629	0.0141474
856.707	0.0143005
856.785	0.0140324
856.863	0.0141183
856.942	0.0142622
857.020	0.0143362
857.098	0.0142606
857.176	0.0141643
857.254	0.0142601
857.332	0.0142478
857.410	0.0140686
857.488	0.0142109
857.567	0.0142483
857.645	0.0142050
857.723	0.0142902
857.801	0.0142609
857.879	0.0141629
857.957	0.0143272
858.035	0.0142859
858.113	0.0141821
858.192	0.0141146
858.270	0.0142576
858.348	0.0143044
858.426	0.0142096
858.504	0.0142228
858.582	0.0142832
858.660	0.0142067
858.738	0.0140711
858.817	0.0141572
858.895	0.0142184
858.973	0.0141334
859.051	0.0141996
859.129	0.0141368
859.207	0.0141046
859.285	0.0141154
859.363	0.0142007
859.442	0.0141278
859.520	0.0141190
859.598	0.0141061
859.676	0.0140965
859.754	0.0141411
859.832	0.0141722
859.910	0.0141442
859.988	0.0142593
860.067	0.0140465
860.145	0.0140055
860.223	0.0139779
860.301	0.0141076
860.379	0.0140206
860.457	0.0140142
860.535	0.0141322
860.613	0.0141326
860.692	0.0140285
860.770	0.0141299
860.848	0.0140823
860.926	0.0140115
861.004	0.0140926
861.082	0.0139714
861.160	0.0139772
861.238	0.0140215
861.317	0.0139886
861.395	0.0139511
861.473	0.0140591
861.551	0.0140814
861.629	0.0140286
861.707	0.0139723
861.785	0.0139044
861.863	0.0139116
861.942	0.0139642
862.020	0.0140350
862.098	0.0139897
862.176	0.0139928
862.254	0.0138934
862.332	0.0141376
862.410	0.0139867
862.488	0.0140559
862.567	0.0139849
862.645	0.0139551
862.723	0.0140980
862.801	0.0138728
862.879	0.0139997
862.957	0.0140983
863.035	0.0141076
863.113	0.0141255
863.192	0.0140012
863.270	0.0140311
863.348	0.0142404
863.426	0.0141367
863.504	0.0140353
863.582	0.0141286
863.660	0.0141071
863.738	0.0142439
863.817	0.0143367
863.895	0.0141558
863.973	0.0140825
864.051	0.0141809
864.129	0.0141832
864.207	0.0143657
864.285	0.0143397
864.363	0.0141891
864.442	0.0142814
864.520	0.0142951
864.598	0.0141848
864.676	0.0140810
864.754	0.0142747
864.832	0.0143062
864.910	0.0142454
864.988	0.0143236
865.067	0.0141239
865.145	0.0144524
865.223	0.0142794
865.301	0.0142050
865.379	0.0143694
865.457	0.0142838
865.535	0.0142908
865.613	0.0144382
865.692	0.0143453
865.770	0.0144089
865.848	0.0143123
865.926	0.0142847
866.004	0.0144109
866.082	0.0143734
866.160	0.0143332
866.238	0.0144131
866.317	0.0143433
866.395	0.0145300
866.473	0.0144486
866.551	0.0143520
866.629	0.0144392
866.707	0.0143822
866.785	0.0143480
866.863	0.0142482
866.942	0.0143709
867.020	0.0144271
867.098	0.0143195
867.176	0.0145816
867.254	0.0144722
867.332	0.0143404
867.410	0.0143423
867.488	0.0143108
867.567	0.0141618
867.645	0.0142722
867.723	0.0144941
867.801	0.0143968
867.879	0.0143190
867.957	0.0143870
868.035	0.0143491
868.113	0.0142780
868.192	0.0143642
868.270	0.0143269
868.348	0.0143369
868.426	0.0143671
868.504	0.0142428
868.582	0.0141435
868.660	0.0143169
868.738	0.0143182
868.817	0.0143958
868.895	0.0143982
868.973	0.0143593
869.051	0.0144350
869.129	0.0142899
869.207	0.0141485
869.285	0.0143507
869.363	0.0142919
869.442	0.0143719
869.520	0.0142979
869.598	0.0143945
869.676	0.0143267
869.754	0.0142899
869.832	0.0143737
869.910	0.0142771
869.988	0.0142549
870.067	0.0143595
870.145	0.0142777
870.223	0.0142622
870.301	0.0143800
870.379	0.0141176
870.457	0.0142804
870.535	0.0142773
870.613	0.0142654
870.692	0.0141562
870.770	0.0141145
870.848	0.0142352
870.926	0.0140662
871.004	0.0140616
871.082	0.0142207
871.160	0.0141032
871.238	0.0142066
871.317	0.0141173
871.395	0.0141768
871.473	0.0142817
871.551	0.0142258
871.629	0.0141993
871.707	0.0140878
871.785	0.0142361
871.863	0.0141142
871.942	0.0142204
872.020	0.0142401
872.098	0.0142815
872.176	0.0143458
872.254	0.0143204
872.332	0.0142390
872.410	0.0143497
872.488	0.0143571
872.567	0.0142724
872.645	0.0142074
872.723	0.0143775
872.801	0.0142696
872.879	0.0142245
872.957	0.0142959
873.035	0.0143705
873.113	0.0143073
873.192	0.0142770
873.270	0.0143800
873.348	0.0143979
873.426	0.0142722
873.504	0.0143020
873.582	0.0142246
873.660	0.0142535
873.738	0.0143197
873.817	0.0142814
873.895	0.0142027
873.973	0.0142837
874.051	0.0143660
874.129	0.0143678
874.207	0.0143481
874.285	0.0143272
874.363	0.0143540
874.442	0.0142882
874.520	0.0143066
874.598	0.0142919
874.676	0.0142685
874.754	0.0143665
874.832	0.0143007
874.910	0.0141409
874.988	0.0142530
875.067	0.0142278
875.145	0.0141422
875.223	0.0143221
875.301	0.0142577
875.379	0.0142588
875.457	0.0142658
875.535	0.0141550
875.613	0.0142181
875.692	0.0142422
875.770	0.0142254
875.848	0.0140819
875.926	0.0142313
876.004	0.0142661
876.082	0.0142212
876.160	0.0142072
876.238	0.0140193
876.317	0.0141426
876.395	0.0143407
876.473	0.0142072
876.551	0.0142775
876.629	0.0141523
876.707	0.0141793
876.785	0.0142130
876.863	0.0142614
876.942	0.0143456
877.020	0.0141513
877.098	0.0142825
877.176	0.0144422
877.254	0.0142640
877.332	0.0142480
877.410	0.0142806
877.488	0.0142426
877.567	0.0142079
877.645	0.0143403
877.723	0.0143520
877.801	0.0143118
877.879	0.0142731
877.957	0.0143448
878.035	0.0142669
878.113	0.0141461
878.192	0.0142548
878.270	0.0144589
878.348	0.0142899
878.426	0.0142092
878.504	0.0144186
878.582	0.0146173
878.660	0.0143365
878.738	0.0144201
878.817	0.0144455
878.895	0.0142444
878.973	0.0143021
879.051	0.0144541
879.129	0.0143362
879.207	0.0144541
879.285	0.0141816
879.363	0.0142855
879.442	0.0144473
879.520	0.0143028
879.598	0.0142375
879.676	0.0143217
879.754	0.0142512
879.832	0.0142651
879.910	0.0142264
879.988	0.0143339
880.067	0.0142816
880.145	0.0142179
880.223	0.0142552
880.301	0.0142311
880.379	0.0142820
880.457	0.0142312
880.535	0.0141968
880.613	0.0140883
880.692	0.0142153
880.770	0.0142235
880.848	0.0141501
880.926	0.0140523
881.004	0.0141356
881.082	0.0140900
881.160	0.0141278
881.238	0.0140141
881.317	0.0141759
881.395	0.0141972
881.473	0.0142476
881.551	0.0141409
881.629	0.0141888
881.707	0.0142248
881.785	0.0141207
881.863	0.0142652
881.942	0.0142486
882.020	0.0141566
882.098	0.0141653
882.176	0.0140616
882.254	0.0142250
882.332	0.0141752
882.410	0.0141175
882.488	0.0141521
882.567	0.0142793
882.645	0.0142551
882.723	0.0142708
882.801	0.0142921
882.879	0.0142874
882.957	0.0142029
883.035	0.0142914
883.113	0.0144086
883.192	0.0143098
883.270	0.0142524
883.348	0.0142370
883.426	0.0143394
883.504	0.0142012
883.582	0.0142567
883.660	0.0142769
883.738	0.0143693
883.817	0.0140839
883.895	0.0141213
883.973	0.0141190
884.051	0.0143136
884.129	0.0142406
884.207	0.0141407
884.285	0.0142065
884.363	0.0142405
884.442	0.0141502
884.520	0.0142003
884.598	0.0140543
884.676	0.0139964
884.754	0.0139748
884.832	0.0141303
884.910	0.0140334
884.988	0.0139216
885.067	0.0138400
885.145	0.0139565
885.223	0.0137855
885.301	0.0138640
885.379	0.0138741
885.457	0.0138884
885.535	0.0139563
885.613	0.0138765
885.692	0.0139273
885.770	0.0141255
885.848	0.0140430
885.926	0.0140942
886.004	0.0141081
886.082	0.0139990
886.160	0.0139697
886.238	0.0141336
886.317	0.0141748
886.395	0.0141599
886.473	0.0141507
886.551	0.0141565
886.629	0.0142239
886.707	0.0141500
886.785	0.0141563
886.863	0.0141656
886.942	0.0141537
887.020	0.0142514
887.098	0.0143487
887.176	0.0142130
887.254	0.0142093
887.332	0.0142286
887.410	0.0142015
887.488	0.0145132
887.567	0.0141531
887.645	0.0143276
887.723	0.0143232
887.801	0.0143191
887.879	0.0143668
887.957	0.0143523
888.035	0.0143173
888.113	0.0142791
888.192	0.0142552
888.270	0.0141974
888.348	0.0140728
888.426	0.0142118
888.504	0.0142187
888.582	0.0140823
888.660	0.0142160
888.738	0.0141122
888.817	0.0143217
888.895	0.0143312
888.973	0.0142992
889.051	0.0142582
889.129	0.0142996
889.207	0.0142596
889.285	0.0142628
889.363	0.0141865
889.442	0.0141927
889.520	0.0141745
889.598	0.0142044
889.676	0.0141985
889.754	0.0141499
889.832	0.0142516
889.910	0.0143023
889.988	0.0141438
890.067	0.0142004
890.145	0.0142414
890.223	0.0142710
890.301	0.0142927
890.379	0.0142497
890.457	0.0143014
890.535	0.0141689
890.613	0.0142847
890.692	0.0142666
890.770	0.0143282
890.848	0.0142793
890.926	0.0144064
891.004	0.0143636
891.082	0.0141969
891.160	0.0142682
891.238	0.0143642
891.317	0.0143734
891.395	0.0144357
891.473	0.0144466
891.551	0.0142570
891.629	0.0142803
891.707	0.0143452
891.785	0.0144182
891.863	0.0142010
891.942	0.0143464
892.020	0.0145119
892.098	0.0144705
892.176	0.0145277
892.254	0.0144996
892.332	0.0145110
892.410	0.0143327
892.488	0.0143966
892.567	0.0144850
892.645	0.0144538
892.723	0.0145650
892.801	0.0144049
892.879	0.0144398
892.957	0.0144929
893.035	0.0143904
893.113	0.0144654
893.192	0.0145677
893.270	0.0143532
893.348	0.0143369
893.426	0.0144143
893.504	0.0143858
893.582	0.0143422
893.660	0.0142047
893.738	0.0142496
893.817	0.0142680
893.895	0.0143593
893.973	0.0143636
894.051	0.0142591
894.129	0.0142179
894.207	0.0143532
894.285	0.0143784
894.363	0.0143209
894.442	0.0142491
894.520	0.0142781
894.598	0.0142797
894.676	0.0143594
894.754	0.0143253
894.832	0.0141533
894.910	0.0143847
894.988	0.0143551
895.067	0.0143051
895.145	0.0142805
895.223	0.0142423
895.301	0.0143471
895.379	0.0141824
895.457	0.0141666
895.535	0.0142813
895.613	0.0141096
895.692	0.0142883
895.770	0.0140957
895.848	0.0140933
895.926	0.0140693
896.004	0.0141489
896.082	0.0140890
896.160	0.0140714
896.238	0.0141565
896.317	0.0140539
896.395	0.0140336
896.473	0.0140485
896.551	0.0139207
896.629	0.0141354
896.707	0.0140578
896.785	0.0141892
896.863	0.0140986
896.942	0.0142384
897.020	0.0140173
897.098	0.0140292
897.176	0.0139093
897.254	0.0140747
897.332	0.0142664
897.410	0.0141975
897.488	0.0140737
897.567	0.0142025
897.645	0.0142634
897.723	0.0141603
897.801	0.0142887
897.879	0.0142074
897.957	0.0143945
898.035	0.0143502
898.113	0.0142706
898.192	0.0143106
898.270	0.0142258
898.348	0.0143295
898.426	0.0142132
898.504	0.0142957
898.582	0.0143451
898.660	0.0143847
898.738	0.0141713
898.817	0.0142179
898.895	0.0143942
898.973	0.0143089
899.051	0.0143665
899.129	0.0144454
899.207	0.0142816
899.285	0.0143890
899.363	0.0143729
899.442	0.0143687
899.520	0.0141784
899.598	0.0141270
899.676	0.0142304
899.754	0.0142354
899.832	0.0143005
899.910	0.0142619
899.988	0.0143503
900.067	0.0142980
900.145	0.0142747
900.223	0.0143313
900.301	0.0143830
900.379	0.0142312
900.457	0.0141962
900.535	0.0142155
900.613	0.0142822
900.692	0.0142317
900.770	0.0140788
900.848	0.0142577
900.926	0.0141265
901.004	0.0143291
901.082	0.0141880
901.160	0.0141121
901.238	0.0140602
901.317	0.0141135
901.395	0.0141666
901.473	0.0141043
901.551	0.0140497
901.629	0.0140914
901.707	0.0141152
901.785	0.0142306
901.863	0.0143033
901.942	0.0140457
902.020	0.0141344
902.098	0.0141615
902.176	0.0140610
902.254	0.0141275
902.332	0.0142432
902.410	0.0141593
902.488	0.0141002
902.567	0.0142069
902.645	0.0141174
902.723	0.0140637
902.801	0.0141435
902.879	0.0141561
902.957	0.0141338
903.035	0.0140221
903.113	0.0141599
903.192	0.0139890
903.270	0.0141031
903.348	0.0140886
903.426	0.0141943
903.504	0.0140119
903.582	0.0140535
903.660	0.0139842
903.738	0.0139825
903.817	0.0139517
903.895	0.0140402
903.973	0.0140524
904.051	0.0139333
904.129	0.0140790
904.207	0.0139745
904.285	0.0139694
904.363	0.0139850
904.442	0.0141149
904.520	0.0141406
904.598	0.0139809
904.676	0.0141420
904.754	0.0142162
904.832	0.0141518
904.910	0.0140269
904.988	0.0140961
905.067	0.0142075
905.145	0.0141909
905.223	0.0141145
905.301	0.0143043
905.379	0.0141918
905.457	0.0142838
905.535	0.0142509
905.613	0.0141605
905.692	0.0143719
905.770	0.0144596
905.848	0.0143674
905.926	0.0142722
906.004	0.0143029
906.082	0.0143836
906.160	0.0142835
906.238	0.0143394
906.317	0.0143664
906.395	0.0142547
906.473	0.0144339
906.551	0.0143756
906.629	0.0144249
906.707	0.0143488
906.785	0.0142891
906.863	0.0142992
906.942	0.0143260
907.020	0.0143185
907.098	0.0142474
907.176	0.0143063
907.254	0.0140921
907.332	0.0141531
907.410	0.0142273
907.488	0.0141927
907.567	0.0140451
907.645	0.0141612
907.723	0.0140785
907.801	0.0139287
907.879	0.0140199
907.957	0.0141457
908.035	0.0140295
908.113	0.0139819
908.192	0.0139816
908.270	0.0140971
908.348	0.0138982
908.426	0.0140509
908.504	0.0140520
908.582	0.0141094
908.660	0.0140524
908.738	0.0140594
908.817	0.0141608
908.895	0.0139951
908.973	0.0142989
909.051	0.0142499
909.129	0.0141303
909.207	0.0142406
909.285	0.0142396
909.363	0.0142311
909.442	0.0140662
909.520	0.0141806
909.598	0.0140795
909.676	0.0140713
909.754	0.0141304
909.832	0.0140998
909.910	0.0140533
909.988	0.0140546
910.067	0.0141390
910.145	0.0141480
910.223	0.0140547
910.301	0.0140503
910.379	0.0141393
910.457	0.0140650
910.535	0.0140227
910.613	0.0140054
910.692	0.0139117
910.770	0.0139298
910.848	0.0140609
910.926	0.0139926
911.004	0.0140832
911.082	0.0140414
911.160	0.0140200
911.238	0.0140923
911.317	0.0139237
911.395	0.0139352
911.473	0.0138765
911.551	0.0138377
911.629	0.0139203
911.707	0.0139700
911.785	0.0138378
911.863	0.0139321
911.942	0.0139197
912.020	0.0139105
912.098	0.0138532
912.176	0.0139967
912.254	0.0139016
912.332	0.0137389
912.410	0.0137937
912.488	0.0138086
912.567	0.0138104
912.645	0.0139696
912.723	0.0138795
912.801	0.0138738
912.879	0.0139049
912.957	0.0138757
913.035	0.0138229
913.113	0.0139863
913.192	0.0141031
913.270	0.0139069
913.348	0.0140020
913.426	0.0139285
913.504	0.0138808
913.582	0.0139137
913.660	0.0140591
913.738	0.0138731
913.817	0.0139851
913.895	0.0140524
913.973	0.0140040
914.051	0.0139574
914.129	0.0139990
914.207	0.0140975
914.285	0.0140633
914.363	0.0141074
914.442	0.0140035
914.520	0.0140675
914.598	0.0140874
914.676	0.0141026
914.754	0.0140485
914.832	0.0141808
914.910	0.0140555
914.988	0.0141308
915.067	0.0142588
915.145	0.0143379
915.223	0.0142666
915.301	0.0141486
915.379	0.0142007
915.457	0.0142987
915.535	0.0143190
915.613	0.0143710
915.692	0.0143632
915.770	0.0143452
915.848	0.0142939
915.926	0.0143210
916.004	0.0143497
916.082	0.0143272
916.160	0.0142976
916.238	0.0143924
916.317	0.0143313
916.395	0.0142832
916.473	0.0142437
916.551	0.0142145
916.629	0.0142783
916.707	0.0143467
916.785	0.0144888
916.863	0.0143704
916.942	0.0141697
917.020	0.0143085
917.098	0.0144639
917.176	0.0143143
917.254	0.0142416
917.332	0.0142581
917.410	0.0143784
917.488	0.0142725
917.567	0.0141933
917.645	0.0143179
917.723	0.0142480
917.801	0.0144742
917.879	0.0142878
917.957	0.0142463
918.035	0.0142941
918.113	0.0142593
918.192	0.0143668
918.270	0.0141774
918.348	0.0142864
918.426	0.0143536
918.504	0.0142333
918.582	0.0142735
918.660	0.0142204
918.738	0.0142739
918.817	0.0144960
918.895	0.0143777
918.973	0.0144044
919.051	0.0144115
919.129	0.0144244
919.207	0.0144516
919.285	0.0143896
919.363	0.0144698
919.442	0.0144918
919.520	0.0144167
919.598	0.0143397
919.676	0.0142764
919.754	0.0143414
919.832	0.0143401
919.910	0.0143943
