05/28/2022	13:54:55	Ver.	4.1	UNKNOWN
Optical Delay	599.988409	Delta X		0.078125	Sweeps	1	Scan Rate	0/0
Coordinates	Axis 1	NaN	Axis 2	NaN	Axis 3	NaN	Axis 4	NaN	Axis 5	NaN	Axis 6	0.000000
TX Power	0.000000	RX Power	0.000000

599.988	0.0148915
600.067	0.0149117
600.145	0.0148697
600.223	0.0149876
600.301	0.0149963
600.379	0.0148655
600.457	0.0149416
600.535	0.0150109
600.613	0.0149616
600.692	0.0150280
600.770	0.0148087
600.848	0.0149486
600.926	0.0149469
601.004	0.0150294
601.082	0.0149626
601.160	0.0148974
601.238	0.0149865
601.317	0.0148598
601.395	0.0148298
601.473	0.0149416
601.551	0.0148228
601.629	0.0149470
601.707	0.0151040
601.785	0.0148839
601.863	0.0148884
601.942	0.0148257
602.020	0.0149434
602.098	0.0149284
602.176	0.0149975
602.254	0.0148562
602.332	0.0148849
602.410	0.0148695
602.488	0.0149458
602.567	0.0148244
602.645	0.0149456
602.723	0.0149496
602.801	0.0148750
602.879	0.0149611
602.957	0.0147364
603.035	0.0149030
603.113	0.0148734
603.192	0.0148553
603.270	0.0149155
603.348	0.0148768
603.426	0.0148753
603.504	0.0148834
603.582	0.0150022
603.660	0.0149751
603.738	0.0148395
603.817	0.0149412
603.895	0.0148890
603.973	0.0149533
604.051	0.0149472
604.129	0.0148792
604.207	0.0149171
604.285	0.0147793
604.363	0.0150026
604.442	0.0148928
604.520	0.0149111
604.598	0.0147747
604.676	0.0148534
604.754	0.0148669
604.832	0.0148821
604.910	0.0147372
604.988	0.0149406
605.067	0.0149884
605.145	0.0148134
605.223	0.0147371
605.301	0.0148287
605.379	0.0148951
605.457	0.0149292
605.535	0.0148396
605.613	0.0149572
605.692	0.0149464
605.770	0.0149326
605.848	0.0148550
605.926	0.0148106
606.004	0.0148347
606.082	0.0147552
606.160	0.0150301
606.238	0.0148927
606.317	0.0149689
606.395	0.0149659
606.473	0.0149299
606.551	0.0148920
606.629	0.0149895
606.707	0.0149214
606.785	0.0149020
606.863	0.0148747
606.942	0.0149287
607.020	0.0150150
607.098	0.0149212
607.176	0.0150233
607.254	0.0150042
607.332	0.0148979
607.410	0.0148319
607.488	0.0148683
607.567	0.0148569
607.645	0.0149676
607.723	0.0149841
607.801	0.0149546
607.879	0.0148358
607.957	0.0149864
608.035	0.0149702
608.113	0.0149321
608.192	0.0148815
608.270	0.0150030
608.348	0.0148987
608.426	0.0149229
608.504	0.0149348
608.582	0.0148888
608.660	0.0147673
608.738	0.0149556
608.817	0.0149578
608.895	0.0148833
608.973	0.0149086
609.051	0.0148841
609.129	0.0149532
609.207	0.0149890
609.285	0.0149206
609.363	0.0149104
609.442	0.0149084
609.520	0.0149566
609.598	0.0150274
609.676	0.0148296
609.754	0.0148729
609.832	0.0148515
609.910	0.0148231
609.988	0.0149017
610.067	0.0148543
610.145	0.0149000
610.223	0.0148250
610.301	0.0149600
610.379	0.0150005
610.457	0.0147482
610.535	0.0148624
610.613	0.0149789
610.692	0.0149980
610.770	0.0148354
610.848	0.0148294
610.926	0.0148151
611.004	0.0147147
611.082	0.0149562
611.160	0.0149628
611.238	0.0149257
611.317	0.0148991
611.395	0.0148939
611.473	0.0149647
611.551	0.0150720
611.629	0.0149031
611.707	0.0150002
611.785	0.0149088
611.863	0.0149405
611.942	0.0148944
612.020	0.0149902
612.098	0.0149975
612.176	0.0149152
612.254	0.0148428
612.332	0.0149154
612.410	0.0151165
612.488	0.0149963
612.567	0.0149229
612.645	0.0148149
612.723	0.0148708
612.801	0.0148496
612.879	0.0150009
612.957	0.0148709
613.035	0.0149618
613.113	0.0148354
613.192	0.0149316
613.270	0.0149464
613.348	0.0148110
613.426	0.0148026
613.504	0.0148560
613.582	0.0148819
613.660	0.0148208
613.738	0.0149005
613.817	0.0148981
613.895	0.0148023
613.973	0.0149339
614.051	0.0148071
614.129	0.0148860
614.207	0.0149159
614.285	0.0149147
614.363	0.0148755
614.442	0.0149851
614.520	0.0149088
614.598	0.0148596
614.676	0.0150245
614.754	0.0150871
614.832	0.0148092
614.910	0.0149683
614.988	0.0148994
615.067	0.0149268
615.145	0.0148770
615.223	0.0148854
615.301	0.0148204
615.379	0.0150198
615.457	0.0149934
615.535	0.0149232
615.613	0.0149395
615.692	0.0149209
615.770	0.0148931
615.848	0.0148823
615.926	0.0146896
616.004	0.0148807
616.082	0.0149409
616.160	0.0148460
616.238	0.0148935
616.317	0.0149020
616.395	0.0149111
616.473	0.0148984
616.551	0.0149162
616.629	0.0148359
616.707	0.0149448
616.785	0.0149487
616.863	0.0150035
616.942	0.0149798
617.020	0.0148532
617.098	0.0148409
617.176	0.0149929
617.254	0.0150064
617.332	0.0150257
617.410	0.0148227
617.488	0.0147095
617.567	0.0148549
617.645	0.0148209
617.723	0.0148624
617.801	0.0149646
617.879	0.0149079
617.957	0.0149431
618.035	0.0148532
618.113	0.0149786
618.192	0.0150220
618.270	0.0148901
618.348	0.0148073
618.426	0.0149851
618.504	0.0148932
618.582	0.0148834
618.660	0.0148269
618.738	0.0148161
618.817	0.0148424
618.895	0.0148003
618.973	0.0148850
619.051	0.0149373
619.129	0.0148867
619.207	0.0149489
619.285	0.0148707
619.363	0.0147452
619.442	0.0148782
619.520	0.0148112
619.598	0.0150556
619.676	0.0149779
619.754	0.0148770
619.832	0.0147657
619.910	0.0149136
619.988	0.0149407
620.067	0.0148857
620.145	0.0149388
620.223	0.0149471
620.301	0.0149384
620.379	0.0147896
620.457	0.0148303
620.535	0.0150037
620.613	0.0149496
620.692	0.0149405
620.770	0.0149863
620.848	0.0149812
620.926	0.0148853
621.004	0.0149908
621.082	0.0150034
621.160	0.0148456
621.238	0.0148674
621.317	0.0150187
621.395	0.0150377
621.473	0.0149286
621.551	0.0148369
621.629	0.0149334
621.707	0.0149612
621.785	0.0148572
621.863	0.0147303
621.942	0.0149220
622.020	0.0149316
622.098	0.0148929
622.176	0.0149649
622.254	0.0149696
622.332	0.0149326
622.410	0.0149055
622.488	0.0148615
622.567	0.0148767
622.645	0.0149377
622.723	0.0149374
622.801	0.0150014
622.879	0.0148591
622.957	0.0148717
623.035	0.0147526
623.113	0.0148336
623.192	0.0149332
623.270	0.0149323
623.348	0.0149327
623.426	0.0149205
623.504	0.0148797
623.582	0.0148363
623.660	0.0148921
623.738	0.0148524
623.817	0.0149190
623.895	0.0149777
623.973	0.0148354
624.051	0.0149068
624.129	0.0149144
624.207	0.0149243
624.285	0.0148262
624.363	0.0149446
624.442	0.0148936
624.520	0.0147997
624.598	0.0149705
624.676	0.0149023
624.754	0.0147937
624.832	0.0148350
624.910	0.0149541
624.988	0.0148577
625.067	0.0148888
625.145	0.0147914
625.223	0.0149109
625.301	0.0150569
625.379	0.0148243
625.457	0.0147817
625.535	0.0148630
625.613	0.0148829
625.692	0.0148132
625.770	0.0148659
625.848	0.0150395
625.926	0.0149739
626.004	0.0147388
626.082	0.0148346
626.160	0.0148217
626.238	0.0148674
626.317	0.0147849
626.395	0.0149371
626.473	0.0148405
626.551	0.0147952
626.629	0.0148603
626.707	0.0148537
626.785	0.0150332
626.863	0.0149129
626.942	0.0148977
627.020	0.0148206
627.098	0.0148505
627.176	0.0149444
627.254	0.0149183
627.332	0.0148475
627.410	0.0149051
627.488	0.0149036
627.567	0.0149483
627.645	0.0149364
627.723	0.0148723
627.801	0.0148895
627.879	0.0147423
627.957	0.0148975
628.035	0.0149975
628.113	0.0148493
628.192	0.0147496
628.270	0.0148746
628.348	0.0148878
628.426	0.0147920
628.504	0.0148530
628.582	0.0148867
628.660	0.0149400
628.738	0.0150343
628.817	0.0149553
628.895	0.0149547
628.973	0.0148643
629.051	0.0149269
629.129	0.0148161
629.207	0.0148717
629.285	0.0148714
629.363	0.0148475
629.442	0.0149599
629.520	0.0151243
629.598	0.0148652
629.676	0.0148707
629.754	0.0149209
629.832	0.0148470
629.910	0.0149149
629.988	0.0150676
630.067	0.0148894
630.145	0.0149081
630.223	0.0149148
630.301	0.0148608
630.379	0.0149585
630.457	0.0149394
630.535	0.0148508
630.613	0.0148858
630.692	0.0149442
630.770	0.0147572
630.848	0.0149191
630.926	0.0149864
631.004	0.0149054
631.082	0.0149515
631.160	0.0150462
631.238	0.0147506
631.317	0.0148198
631.395	0.0149284
631.473	0.0149648
631.551	0.0149264
631.629	0.0149827
631.707	0.0149626
631.785	0.0149181
631.863	0.0148853
631.942	0.0148508
632.020	0.0149074
632.098	0.0150235
632.176	0.0147981
632.254	0.0148840
632.332	0.0149258
632.410	0.0148811
632.488	0.0148850
632.567	0.0149329
632.645	0.0149561
632.723	0.0149963
632.801	0.0148809
632.879	0.0148013
632.957	0.0149953
633.035	0.0147771
633.113	0.0148285
633.192	0.0148656
633.270	0.0148283
633.348	0.0149502
633.426	0.0150201
633.504	0.0148522
633.582	0.0149279
633.660	0.0150224
633.738	0.0149144
633.817	0.0148454
633.895	0.0148528
633.973	0.0149940
634.051	0.0149294
634.129	0.0148141
634.207	0.0150491
634.285	0.0148457
634.363	0.0149423
634.442	0.0150332
634.520	0.0149348
634.598	0.0149774
634.676	0.0149309
634.754	0.0148403
634.832	0.0150736
634.910	0.0149363
634.988	0.0148715
635.067	0.0149986
635.145	0.0150524
635.223	0.0149368
635.301	0.0148758
635.379	0.0147905
635.457	0.0148490
635.535	0.0150000
635.613	0.0150335
635.692	0.0147753
635.770	0.0148135
635.848	0.0149512
635.926	0.0149117
636.004	0.0148865
636.082	0.0147881
636.160	0.0148993
636.238	0.0147340
636.317	0.0148484
636.395	0.0149426
636.473	0.0147877
636.551	0.0148703
636.629	0.0149553
636.707	0.0148504
636.785	0.0148721
636.863	0.0150298
636.942	0.0148353
637.020	0.0148909
637.098	0.0149197
637.176	0.0149940
637.254	0.0148885
637.332	0.0148631
637.410	0.0149921
637.488	0.0148371
637.567	0.0148441
637.645	0.0147974
637.723	0.0149348
637.801	0.0148196
637.879	0.0148452
637.957	0.0150522
638.035	0.0148428
638.113	0.0148757
638.192	0.0147324
638.270	0.0147692
638.348	0.0148425
638.426	0.0148788
638.504	0.0148397
638.582	0.0148389
638.660	0.0149632
638.738	0.0149359
638.817	0.0148779
638.895	0.0149088
638.973	0.0148482
639.051	0.0148691
639.129	0.0149553
639.207	0.0148582
639.285	0.0148751
639.363	0.0149473
639.442	0.0148652
639.520	0.0148598
639.598	0.0149307
639.676	0.0149022
639.754	0.0149181
639.832	0.0148333
639.910	0.0147899
639.988	0.0148119
640.067	0.0149598
640.145	0.0150177
640.223	0.0148746
640.301	0.0149526
640.379	0.0149135
640.457	0.0149437
640.535	0.0149041
640.613	0.0149412
640.692	0.0150822
640.770	0.0147897
640.848	0.0149381
640.926	0.0148858
641.004	0.0149597
641.082	0.0149379
641.160	0.0148548
641.238	0.0147662
641.317	0.0148716
641.395	0.0149327
641.473	0.0149664
641.551	0.0148947
641.629	0.0149406
641.707	0.0148228
641.785	0.0148375
641.863	0.0148743
641.942	0.0147392
642.020	0.0148660
642.098	0.0148418
642.176	0.0149708
642.254	0.0147984
642.332	0.0148512
642.410	0.0148878
642.488	0.0148889
642.567	0.0148023
642.645	0.0149014
642.723	0.0148703
642.801	0.0149288
642.879	0.0147385
642.957	0.0148403
643.035	0.0147970
643.113	0.0149252
643.192	0.0148983
643.270	0.0149261
643.348	0.0148781
643.426	0.0148676
643.504	0.0148163
643.582	0.0148681
643.660	0.0149239
643.738	0.0147738
643.817	0.0148265
643.895	0.0149829
643.973	0.0149253
644.051	0.0147737
644.129	0.0149387
644.207	0.0148654
644.285	0.0148823
644.363	0.0150092
644.442	0.0149018
644.520	0.0149467
644.598	0.0149110
644.676	0.0149626
644.754	0.0147762
644.832	0.0149297
644.910	0.0148855
644.988	0.0147919
645.067	0.0149778
645.145	0.0149682
645.223	0.0148780
645.301	0.0150351
645.379	0.0149953
645.457	0.0149435
645.535	0.0148326
645.613	0.0149376
645.692	0.0149378
645.770	0.0148563
645.848	0.0148137
645.926	0.0147911
646.004	0.0149254
646.082	0.0149218
646.160	0.0148174
646.238	0.0148856
646.317	0.0149236
646.395	0.0148495
646.473	0.0148969
646.551	0.0149355
646.629	0.0148788
646.707	0.0147881
646.785	0.0148273
646.863	0.0148978
646.942	0.0149586
647.020	0.0148132
647.098	0.0148280
647.176	0.0148782
647.254	0.0148421
647.332	0.0149204
647.410	0.0149061
647.488	0.0148886
647.567	0.0147565
647.645	0.0149204
647.723	0.0150412
647.801	0.0148508
647.879	0.0148282
647.957	0.0148635
648.035	0.0148490
648.113	0.0150018
648.192	0.0149245
648.270	0.0147736
648.348	0.0149068
648.426	0.0149033
648.504	0.0149217
648.582	0.0148573
648.660	0.0149352
648.738	0.0150526
648.817	0.0150227
648.895	0.0149518
648.973	0.0149234
649.051	0.0149077
649.129	0.0149196
649.207	0.0149958
649.285	0.0149541
649.363	0.0148816
649.442	0.0150052
649.520	0.0149437
649.598	0.0148979
649.676	0.0149693
649.754	0.0150342
649.832	0.0149207
649.910	0.0147839
649.988	0.0149215
650.067	0.0148669
650.145	0.0149522
650.223	0.0149174
650.301	0.0150140
650.379	0.0149445
650.457	0.0149640
650.535	0.0148780
650.613	0.0149923
650.692	0.0149574
650.770	0.0149366
650.848	0.0147111
650.926	0.0148058
651.004	0.0148444
651.082	0.0149096
651.160	0.0149865
651.238	0.0149527
651.317	0.0149000
651.395	0.0149618
651.473	0.0147905
651.551	0.0148765
651.629	0.0149338
651.707	0.0148550
651.785	0.0149249
651.863	0.0148637
651.942	0.0150198
652.020	0.0149427
652.098	0.0150077
652.176	0.0148827
652.254	0.0149320
652.332	0.0149419
652.410	0.0148161
652.488	0.0148425
652.567	0.0149087
652.645	0.0149124
652.723	0.0149091
652.801	0.0148259
652.879	0.0149207
652.957	0.0149065
653.035	0.0147759
653.113	0.0148263
653.192	0.0148457
653.270	0.0148470
653.348	0.0147951
653.426	0.0148888
653.504	0.0148694
653.582	0.0148641
653.660	0.0148228
653.738	0.0147435
653.817	0.0147544
653.895	0.0148440
653.973	0.0149351
654.051	0.0148644
654.129	0.0149414
654.207	0.0148521
654.285	0.0149190
654.363	0.0149476
654.442	0.0147577
654.520	0.0148907
654.598	0.0149361
654.676	0.0149265
654.754	0.0148846
654.832	0.0148409
654.910	0.0148723
654.988	0.0149861
655.067	0.0149694
655.145	0.0149103
655.223	0.0148567
655.301	0.0149564
655.379	0.0148431
655.457	0.0149477
655.535	0.0148997
655.613	0.0148656
655.692	0.0148648
655.770	0.0149350
655.848	0.0148754
655.926	0.0148820
656.004	0.0147211
656.082	0.0148019
656.160	0.0150121
656.238	0.0149229
656.317	0.0150477
656.395	0.0147332
656.473	0.0148911
656.551	0.0148674
656.629	0.0149905
656.707	0.0148221
656.785	0.0149171
656.863	0.0149529
656.942	0.0148882
657.020	0.0148701
657.098	0.0147697
657.176	0.0148240
657.254	0.0148637
657.332	0.0149419
657.410	0.0148975
657.488	0.0148389
657.567	0.0147823
657.645	0.0149400
657.723	0.0148116
657.801	0.0147991
657.879	0.0148790
657.957	0.0148731
658.035	0.0149007
658.113	0.0148733
658.192	0.0148558
658.270	0.0149097
658.348	0.0147990
658.426	0.0147887
658.504	0.0147739
658.582	0.0149039
658.660	0.0149886
658.738	0.0148930
658.817	0.0147272
658.895	0.0148032
658.973	0.0149649
659.051	0.0149344
659.129	0.0148009
659.207	0.0148319
659.285	0.0148283
659.363	0.0148203
659.442	0.0149866
659.520	0.0148557
659.598	0.0148988
659.676	0.0149722
659.754	0.0149490
659.832	0.0148112
659.910	0.0147542
659.988	0.0148022
660.067	0.0149426
660.145	0.0148251
660.223	0.0148729
660.301	0.0148768
660.379	0.0148580
660.457	0.0148790
660.535	0.0147900
660.613	0.0147687
660.692	0.0148505
660.770	0.0147971
660.848	0.0146848
660.926	0.0148656
661.004	0.0148849
661.082	0.0149715
661.160	0.0149387
661.238	0.0149203
661.317	0.0149625
661.395	0.0149258
661.473	0.0148031
661.551	0.0148723
661.629	0.0150323
661.707	0.0148353
661.785	0.0149347
661.863	0.0147694
661.942	0.0149205
662.020	0.0148808
662.098	0.0148218
662.176	0.0148902
662.254	0.0148926
662.332	0.0149191
662.410	0.0149644
662.488	0.0148653
662.567	0.0147495
662.645	0.0148660
662.723	0.0150198
662.801	0.0148383
662.879	0.0148250
662.957	0.0148191
663.035	0.0147301
663.113	0.0149465
663.192	0.0149540
663.270	0.0149606
663.348	0.0148971
663.426	0.0147943
663.504	0.0148697
663.582	0.0148619
663.660	0.0148283
663.738	0.0149076
663.817	0.0146990
663.895	0.0149024
663.973	0.0147686
664.051	0.0148124
664.129	0.0147964
664.207	0.0149519
664.285	0.0148680
664.363	0.0148280
664.442	0.0148389
664.520	0.0151289
664.598	0.0149197
664.676	0.0148883
664.754	0.0147573
664.832	0.0148413
664.910	0.0148565
664.988	0.0149136
665.067	0.0148906
665.145	0.0147653
665.223	0.0148637
665.301	0.0148542
665.379	0.0149323
665.457	0.0148498
665.535	0.0149238
665.613	0.0149393
665.692	0.0148837
665.770	0.0148230
665.848	0.0149243
665.926	0.0148241
666.004	0.0148209
666.082	0.0148895
666.160	0.0148621
666.238	0.0149026
666.317	0.0149097
666.395	0.0148932
666.473	0.0148811
666.551	0.0149828
666.629	0.0148882
666.707	0.0149280
666.785	0.0148515
666.863	0.0148891
666.942	0.0148621
667.020	0.0148893
667.098	0.0148094
667.176	0.0148864
667.254	0.0149828
667.332	0.0149507
667.410	0.0147506
667.488	0.0149110
667.567	0.0149593
667.645	0.0148433
667.723	0.0148139
667.801	0.0147144
667.879	0.0149113
667.957	0.0148236
668.035	0.0149020
668.113	0.0147960
668.192	0.0149269
668.270	0.0149874
668.348	0.0147398
668.426	0.0148860
668.504	0.0149243
668.582	0.0149059
668.660	0.0147982
668.738	0.0147872
668.817	0.0148247
668.895	0.0148282
668.973	0.0150157
669.051	0.0149529
669.129	0.0150509
669.207	0.0148256
669.285	0.0148557
669.363	0.0149131
669.442	0.0148933
669.520	0.0148555
669.598	0.0148167
669.676	0.0148495
669.754	0.0147528
669.832	0.0148838
669.910	0.0149100
669.988	0.0149530
670.067	0.0149535
670.145	0.0149133
670.223	0.0148270
670.301	0.0147984
670.379	0.0149926
670.457	0.0149078
670.535	0.0148329
670.613	0.0148887
670.692	0.0148206
670.770	0.0147842
670.848	0.0148332
670.926	0.0147773
671.004	0.0148584
671.082	0.0148210
671.160	0.0147405
671.238	0.0147688
671.317	0.0148444
671.395	0.0148821
671.473	0.0148711
671.551	0.0147504
671.629	0.0147827
671.707	0.0148180
671.785	0.0147549
671.863	0.0147157
671.942	0.0147446
672.020	0.0148170
672.098	0.0149152
672.176	0.0148736
672.254	0.0147011
672.332	0.0147082
672.410	0.0149618
672.488	0.0148432
672.567	0.0147834
672.645	0.0148301
672.723	0.0147453
672.801	0.0147467
672.879	0.0149687
672.957	0.0148488
673.035	0.0148205
673.113	0.0148466
673.192	0.0149355
673.270	0.0149332
673.348	0.0149597
673.426	0.0147931
673.504	0.0149227
673.582	0.0148319
673.660	0.0147638
673.738	0.0148446
673.817	0.0149582
673.895	0.0149174
673.973	0.0147581
674.051	0.0148535
674.129	0.0148944
674.207	0.0150208
674.285	0.0149854
674.363	0.0147670
674.442	0.0148605
674.520	0.0148198
674.598	0.0147972
674.676	0.0149574
674.754	0.0149220
674.832	0.0149582
674.910	0.0148608
674.988	0.0148579
675.067	0.0149784
675.145	0.0147934
675.223	0.0148687
675.301	0.0149197
675.379	0.0149565
675.457	0.0149141
675.535	0.0148816
675.613	0.0148512
675.692	0.0148367
675.770	0.0148666
675.848	0.0149583
675.926	0.0149512
676.004	0.0149647
676.082	0.0150837
676.160	0.0149818
676.238	0.0149546
676.317	0.0150681
676.395	0.0149321
676.473	0.0148879
676.551	0.0148844
676.629	0.0150948
676.707	0.0149567
676.785	0.0149282
676.863	0.0148775
676.942	0.0150718
677.020	0.0150813
677.098	0.0148966
677.176	0.0148782
677.254	0.0149325
677.332	0.0149993
677.410	0.0149877
677.488	0.0149420
677.567	0.0150449
677.645	0.0149887
677.723	0.0149908
677.801	0.0150206
677.879	0.0148773
677.957	0.0148475
678.035	0.0149779
678.113	0.0149427
678.192	0.0149321
678.270	0.0148767
678.348	0.0149355
678.426	0.0149186
678.504	0.0149239
678.582	0.0150002
678.660	0.0148515
678.738	0.0149007
678.817	0.0148939
678.895	0.0150423
678.973	0.0149509
679.051	0.0148635
679.129	0.0149944
679.207	0.0149283
679.285	0.0148507
679.363	0.0149763
679.442	0.0150971
679.520	0.0149681
679.598	0.0149049
679.676	0.0149326
679.754	0.0149052
679.832	0.0148798
679.910	0.0148461
679.988	0.0149200
680.067	0.0149183
680.145	0.0148302
680.223	0.0149783
680.301	0.0150373
680.379	0.0149915
680.457	0.0150360
680.535	0.0148660
680.613	0.0148005
680.692	0.0148630
680.770	0.0148646
680.848	0.0148702
680.926	0.0149143
681.004	0.0149677
681.082	0.0149467
681.160	0.0148994
681.238	0.0148672
681.317	0.0148534
681.395	0.0147050
681.473	0.0148434
681.551	0.0149911
681.629	0.0148975
681.707	0.0148425
681.785	0.0148357
681.863	0.0148924
681.942	0.0149451
682.020	0.0148347
682.098	0.0148183
682.176	0.0147367
682.254	0.0148308
682.332	0.0147349
682.410	0.0148227
682.488	0.0147938
682.567	0.0148175
682.645	0.0148885
682.723	0.0147849
682.801	0.0148367
682.879	0.0148603
682.957	0.0147865
683.035	0.0148917
683.113	0.0148575
683.192	0.0147765
683.270	0.0147894
683.348	0.0148632
683.426	0.0147805
683.504	0.0149658
683.582	0.0148415
683.660	0.0148579
683.738	0.0148145
683.817	0.0148004
683.895	0.0147926
683.973	0.0148473
684.051	0.0147998
684.129	0.0147965
684.207	0.0148482
684.285	0.0148162
684.363	0.0149006
684.442	0.0148994
684.520	0.0147929
684.598	0.0147269
684.676	0.0148278
684.754	0.0147809
684.832	0.0147730
684.910	0.0147845
684.988	0.0149744
685.067	0.0148537
685.145	0.0148108
685.223	0.0148462
685.301	0.0148896
685.379	0.0147781
685.457	0.0147142
685.535	0.0146990
685.613	0.0149208
685.692	0.0149158
685.770	0.0149063
685.848	0.0149104
685.926	0.0149009
686.004	0.0148402
686.082	0.0148989
686.160	0.0148694
686.238	0.0146441
686.317	0.0147894
686.395	0.0149419
686.473	0.0149355
686.551	0.0148423
686.629	0.0148792
686.707	0.0147591
686.785	0.0148306
686.863	0.0150526
686.942	0.0149069
687.020	0.0148908
687.098	0.0149789
687.176	0.0148240
687.254	0.0149218
687.332	0.0149229
687.410	0.0149290
687.488	0.0148902
687.567	0.0148497
687.645	0.0147463
687.723	0.0148478
687.801	0.0148816
687.879	0.0150603
687.957	0.0148267
688.035	0.0148620
688.113	0.0150494
688.192	0.0150422
688.270	0.0147345
688.348	0.0148193
688.426	0.0149859
688.504	0.0148504
688.582	0.0148966
688.660	0.0148701
688.738	0.0149211
688.817	0.0148735
688.895	0.0150069
688.973	0.0148634
689.051	0.0148748
689.129	0.0149924
689.207	0.0149645
689.285	0.0149718
689.363	0.0147411
689.442	0.0148756
689.520	0.0149769
689.598	0.0149257
689.676	0.0149561
689.754	0.0149025
689.832	0.0149356
689.910	0.0149294
689.988	0.0148627
690.067	0.0147715
690.145	0.0147572
690.223	0.0147884
690.301	0.0148721
690.379	0.0147886
690.457	0.0148520
690.535	0.0147385
690.613	0.0147562
690.692	0.0148213
690.770	0.0149646
690.848	0.0150809
690.926	0.0150803
691.004	0.0150398
691.082	0.0151798
691.160	0.0152934
691.238	0.0153566
691.317	0.0153811
691.395	0.0153189
691.473	0.0151809
691.551	0.0151092
691.629	0.0149036
691.707	0.0149173
691.785	0.0146632
691.863	0.0145903
691.942	0.0144822
692.020	0.0143708
692.098	0.0143327
692.176	0.0143544
692.254	0.0142162
692.332	0.0144580
692.410	0.0145433
692.488	0.0148552
692.567	0.0150246
692.645	0.0152964
692.723	0.0155119
692.801	0.0157922
692.879	0.0158277
692.957	0.0159707
693.035	0.0158794
693.113	0.0158726
693.192	0.0157114
693.270	0.0154455
693.348	0.0150913
693.426	0.0149034
693.504	0.0148347
693.582	0.0145876
693.660	0.0144743
693.738	0.0142880
693.817	0.0144976
693.895	0.0144694
693.973	0.0145576
694.051	0.0147776
694.129	0.0147697
694.207	0.0150399
694.285	0.0152734
694.363	0.0153031
694.442	0.0151630
694.520	0.0152254
694.598	0.0152265
694.676	0.0151075
694.754	0.0150132
694.832	0.0147034
694.910	0.0144336
694.988	0.0143542
695.067	0.0140917
695.145	0.0139456
695.223	0.0137717
695.301	0.0136784
695.379	0.0136691
695.457	0.0136969
695.535	0.0138257
695.613	0.0139468
695.692	0.0140601
695.770	0.0144023
695.848	0.0145829
695.926	0.0148129
696.004	0.0151180
696.082	0.0155128
696.160	0.0157355
696.238	0.0159779
696.317	0.0161053
696.395	0.0163914
696.473	0.0164597
696.551	0.0164740
696.629	0.0165481
696.707	0.0165374
696.785	0.0165761
696.863	0.0162894
696.942	0.0160511
697.020	0.0157973
697.098	0.0153551
697.176	0.0151218
697.254	0.0146867
697.332	0.0144017
697.410	0.0138956
697.488	0.0136536
697.567	0.0133386
697.645	0.0130697
697.723	0.0129702
697.801	0.0126921
697.879	0.0125680
697.957	0.0126144
698.035	0.0125655
698.113	0.0126794
698.192	0.0128513
698.270	0.0130743
698.348	0.0135413
698.426	0.0139615
698.504	0.0143847
698.582	0.0147313
698.660	0.0151289
698.738	0.0156833
698.817	0.0162434
698.895	0.0165916
698.973	0.0167973
699.051	0.0171781
699.129	0.0172049
699.207	0.0173319
699.285	0.0173071
699.363	0.0174538
699.442	0.0172527
699.520	0.0168343
699.598	0.0165645
699.676	0.0162865
699.754	0.0158705
699.832	0.0153075
699.910	0.0147181
699.988	0.0142636
700.067	0.0138386
700.145	0.0133380
700.223	0.0129426
700.301	0.0126855
700.379	0.0125631
700.457	0.0123036
700.535	0.0125359
700.613	0.0126379
700.692	0.0130382
700.770	0.0133878
700.848	0.0138023
700.926	0.0141895
701.004	0.0148068
701.082	0.0154036
701.160	0.0157140
701.238	0.0161057
701.317	0.0164699
701.395	0.0169717
701.473	0.0171503
701.551	0.0171134
701.629	0.0173932
701.707	0.0173971
701.785	0.0171185
701.863	0.0168958
701.942	0.0166950
702.020	0.0160832
702.098	0.0158107
702.176	0.0152677
702.254	0.0146605
702.332	0.0142246
702.410	0.0136514
702.488	0.0133208
702.567	0.0129058
702.645	0.0127998
702.723	0.0125514
702.801	0.0124000
702.879	0.0126402
702.957	0.0126643
703.035	0.0128244
703.113	0.0133240
703.192	0.0135479
703.270	0.0139201
703.348	0.0143819
703.426	0.0147544
703.504	0.0150391
703.582	0.0153231
703.660	0.0156151
703.738	0.0159752
703.817	0.0162233
703.895	0.0163815
703.973	0.0163924
704.051	0.0163474
704.129	0.0163188
704.207	0.0161675
704.285	0.0162461
704.363	0.0161060
704.442	0.0159976
704.520	0.0158105
704.598	0.0156741
704.676	0.0154479
704.754	0.0152558
704.832	0.0151797
704.910	0.0150272
704.988	0.0150519
705.067	0.0148602
705.145	0.0148537
705.223	0.0148570
705.301	0.0147645
705.379	0.0147311
705.457	0.0148588
705.535	0.0146685
705.613	0.0148243
705.692	0.0147335
705.770	0.0147464
705.848	0.0146584
705.926	0.0145915
706.004	0.0145754
706.082	0.0145444
706.160	0.0145490
706.238	0.0143476
706.317	0.0144364
706.395	0.0144373
706.473	0.0144612
706.551	0.0145017
706.629	0.0144018
706.707	0.0145272
706.785	0.0146602
706.863	0.0145428
706.942	0.0145287
707.020	0.0147035
707.098	0.0146696
707.176	0.0148417
707.254	0.0151587
707.332	0.0152144
707.410	0.0153915
707.488	0.0153898
707.567	0.0153605
707.645	0.0153420
707.723	0.0153841
707.801	0.0152590
707.879	0.0153053
707.957	0.0149700
708.035	0.0148630
708.113	0.0147135
708.192	0.0146255
708.270	0.0143724
708.348	0.0141573
708.426	0.0138603
708.504	0.0138395
708.582	0.0138037
708.660	0.0135615
708.738	0.0135179
708.817	0.0136729
708.895	0.0136765
708.973	0.0138577
709.051	0.0140613
709.129	0.0142577
709.207	0.0145523
709.285	0.0148163
709.363	0.0149583
709.442	0.0153194
709.520	0.0155858
709.598	0.0159267
709.676	0.0160258
709.754	0.0162519
709.832	0.0163251
709.910	0.0162350
709.988	0.0161118
710.067	0.0162629
710.145	0.0161010
710.223	0.0157938
710.301	0.0157990
710.379	0.0155467
710.457	0.0153174
710.535	0.0152079
710.613	0.0150928
710.692	0.0150541
710.770	0.0150540
710.848	0.0149423
710.926	0.0149458
711.004	0.0149668
711.082	0.0149284
711.160	0.0149554
711.238	0.0151466
711.317	0.0151143
711.395	0.0151267
711.473	0.0151968
711.551	0.0153265
711.629	0.0152072
711.707	0.0151084
711.785	0.0150070
711.863	0.0149610
711.942	0.0146088
712.020	0.0144700
712.098	0.0144002
712.176	0.0142213
712.254	0.0140845
712.332	0.0139967
712.410	0.0138586
712.488	0.0138842
712.567	0.0138289
712.645	0.0138761
712.723	0.0139587
712.801	0.0141082
712.879	0.0142143
712.957	0.0145163
713.035	0.0146899
713.113	0.0147413
713.192	0.0150689
713.270	0.0150387
713.348	0.0151639
713.426	0.0152777
713.504	0.0154121
713.582	0.0154755
713.660	0.0154164
713.738	0.0153982
713.817	0.0153201
713.895	0.0152557
713.973	0.0151577
714.051	0.0150662
714.129	0.0149673
714.207	0.0148012
714.285	0.0147948
714.363	0.0148699
714.442	0.0147575
714.520	0.0145864
714.598	0.0148750
714.676	0.0148639
714.754	0.0149501
714.832	0.0148974
714.910	0.0153182
714.988	0.0152768
715.067	0.0152290
715.145	0.0152081
715.223	0.0153996
715.301	0.0153884
715.379	0.0153105
715.457	0.0153675
715.535	0.0151810
715.613	0.0151182
715.692	0.0151699
715.770	0.0149677
715.848	0.0148804
715.926	0.0147366
716.004	0.0147058
716.082	0.0147279
716.160	0.0144450
716.238	0.0143990
716.317	0.0145421
716.395	0.0143925
716.473	0.0143256
716.551	0.0143664
716.629	0.0144614
716.707	0.0145316
716.785	0.0146242
716.863	0.0146590
716.942	0.0147034
717.020	0.0148940
717.098	0.0151013
717.176	0.0152499
717.254	0.0152364
717.332	0.0151400
717.410	0.0153114
717.488	0.0152457
717.567	0.0153380
717.645	0.0153749
717.723	0.0151967
717.801	0.0149149
717.879	0.0148900
717.957	0.0147790
718.035	0.0143740
718.113	0.0144711
718.192	0.0142511
718.270	0.0141859
718.348	0.0140589
718.426	0.0139716
718.504	0.0137933
718.582	0.0139592
718.660	0.0140540
718.738	0.0141700
718.817	0.0142967
718.895	0.0144347
718.973	0.0145953
719.051	0.0147705
719.129	0.0149983
719.207	0.0152361
719.285	0.0153472
719.363	0.0155463
719.442	0.0159365
719.520	0.0158817
719.598	0.0158830
719.676	0.0160057
719.754	0.0161104
719.832	0.0157919
719.910	0.0156670
719.988	0.0155762
720.067	0.0155315
720.145	0.0154191
720.223	0.0150663
720.301	0.0147964
720.379	0.0147180
720.457	0.0144656
720.535	0.0144014
720.613	0.0143732
720.692	0.0141280
720.770	0.0141189
720.848	0.0141382
720.926	0.0142488
721.004	0.0142400
721.082	0.0144100
721.160	0.0147129
721.238	0.0147073
721.317	0.0148647
721.395	0.0150830
721.473	0.0152023
721.551	0.0152604
721.629	0.0153822
721.707	0.0154268
721.785	0.0155546
721.863	0.0154668
721.942	0.0154855
722.020	0.0153838
722.098	0.0152763
722.176	0.0152605
722.254	0.0150416
722.332	0.0151791
722.410	0.0150318
722.488	0.0147653
722.567	0.0147256
722.645	0.0144207
722.723	0.0142861
722.801	0.0142640
722.879	0.0141985
722.957	0.0142004
723.035	0.0140716
723.113	0.0141551
723.192	0.0140546
723.270	0.0140982
723.348	0.0143389
723.426	0.0143749
723.504	0.0144273
723.582	0.0147717
723.660	0.0146645
723.738	0.0149387
723.817	0.0149189
723.895	0.0152913
723.973	0.0152290
724.051	0.0153461
724.129	0.0153242
724.207	0.0153046
724.285	0.0154565
724.363	0.0153020
724.442	0.0151501
724.520	0.0152879
724.598	0.0151030
724.676	0.0149532
724.754	0.0150212
724.832	0.0149320
724.910	0.0149561
724.988	0.0147788
725.067	0.0147703
725.145	0.0147728
725.223	0.0149467
725.301	0.0148756
725.379	0.0146564
725.457	0.0151134
725.535	0.0150170
725.613	0.0150156
725.692	0.0150486
725.770	0.0152176
725.848	0.0153193
725.926	0.0151677
726.004	0.0151648
726.082	0.0152029
726.160	0.0152011
726.238	0.0150982
726.317	0.0150014
726.395	0.0150957
726.473	0.0149128
726.551	0.0150414
726.629	0.0147477
726.707	0.0146811
726.785	0.0148379
726.863	0.0146030
726.942	0.0144572
727.020	0.0146571
727.098	0.0146438
727.176	0.0143786
727.254	0.0144852
727.332	0.0146278
727.410	0.0143153
727.488	0.0143658
727.567	0.0146278
727.645	0.0144662
727.723	0.0144682
727.801	0.0145795
727.879	0.0147067
727.957	0.0146807
728.035	0.0149052
728.113	0.0147894
728.192	0.0148684
728.270	0.0149120
728.348	0.0150162
728.426	0.0149421
728.504	0.0151486
728.582	0.0151891
728.660	0.0151881
728.738	0.0151243
728.817	0.0152180
728.895	0.0152501
728.973	0.0152451
729.051	0.0151688
729.129	0.0152338
729.207	0.0153250
729.285	0.0153834
729.363	0.0153541
729.442	0.0153263
729.520	0.0151167
729.598	0.0152203
729.676	0.0151421
729.754	0.0150906
729.832	0.0149582
729.910	0.0150493
729.988	0.0149569
730.067	0.0148323
730.145	0.0148997
730.223	0.0147668
730.301	0.0148548
730.379	0.0147247
730.457	0.0146262
730.535	0.0146305
730.613	0.0147790
730.692	0.0148331
730.770	0.0146312
730.848	0.0148195
730.926	0.0147553
731.004	0.0146567
731.082	0.0148374
731.160	0.0150254
731.238	0.0150335
731.317	0.0149963
731.395	0.0150723
731.473	0.0149793
731.551	0.0149052
731.629	0.0150392
731.707	0.0151366
731.785	0.0148789
731.863	0.0149757
731.942	0.0148505
732.020	0.0148517
732.098	0.0148270
732.176	0.0148064
732.254	0.0147392
732.332	0.0147180
732.410	0.0148437
732.488	0.0147327
732.567	0.0147798
732.645	0.0146630
732.723	0.0147337
732.801	0.0148977
732.879	0.0148224
732.957	0.0148839
733.035	0.0149052
733.113	0.0150278
733.192	0.0150438
733.270	0.0151543
733.348	0.0151917
733.426	0.0152422
733.504	0.0151060
733.582	0.0152343
733.660	0.0152624
733.738	0.0150903
733.817	0.0151598
733.895	0.0151128
733.973	0.0149255
734.051	0.0148978
734.129	0.0147704
734.207	0.0148249
734.285	0.0147062
734.363	0.0145716
734.442	0.0146102
734.520	0.0145670
734.598	0.0145993
734.676	0.0146623
734.754	0.0147375
734.832	0.0147532
734.910	0.0148804
734.988	0.0148138
735.067	0.0149031
735.145	0.0149870
735.223	0.0149581
735.301	0.0149284
735.379	0.0149776
735.457	0.0150255
735.535	0.0150272
735.613	0.0150363
735.692	0.0149267
735.770	0.0149274
735.848	0.0150530
735.926	0.0149904
736.004	0.0149713
736.082	0.0148689
736.160	0.0148793
736.238	0.0147170
736.317	0.0146004
736.395	0.0145560
736.473	0.0144805
736.551	0.0144941
736.629	0.0145361
736.707	0.0145285
736.785	0.0143572
736.863	0.0144724
736.942	0.0145511
737.020	0.0144486
737.098	0.0145629
737.176	0.0146252
737.254	0.0147099
737.332	0.0147990
737.410	0.0147596
737.488	0.0149179
737.567	0.0149273
737.645	0.0149662
737.723	0.0150052
737.801	0.0151260
737.879	0.0151632
737.957	0.0151764
738.035	0.0152088
738.113	0.0153285
738.192	0.0153235
738.270	0.0152820
738.348	0.0153130
738.426	0.0154184
738.504	0.0154469
738.582	0.0153140
738.660	0.0153564
738.738	0.0153378
738.817	0.0152779
738.895	0.0151694
738.973	0.0150835
739.051	0.0149839
739.129	0.0148621
739.207	0.0147035
739.285	0.0146969
739.363	0.0146368
739.442	0.0145856
739.520	0.0144576
739.598	0.0144405
739.676	0.0144383
739.754	0.0146295
739.832	0.0147417
739.910	0.0147037
739.988	0.0147186
740.067	0.0148943
740.145	0.0149551
740.223	0.0149569
740.301	0.0151241
740.379	0.0152389
740.457	0.0151497
740.535	0.0151903
740.613	0.0151135
740.692	0.0150059
740.770	0.0152429
740.848	0.0150500
740.926	0.0150005
741.004	0.0149973
741.082	0.0149948
741.160	0.0149531
741.238	0.0148714
741.317	0.0149085
741.395	0.0149706
741.473	0.0149100
741.551	0.0148743
741.629	0.0148024
741.707	0.0146934
741.785	0.0146111
741.863	0.0147379
741.942	0.0146909
742.020	0.0145737
742.098	0.0147141
742.176	0.0147680
742.254	0.0148286
742.332	0.0148369
742.410	0.0147868
742.488	0.0148351
742.567	0.0148465
742.645	0.0150339
742.723	0.0151354
742.801	0.0150390
742.879	0.0150259
742.957	0.0150928
743.035	0.0152429
743.113	0.0152172
743.192	0.0151885
743.270	0.0151822
743.348	0.0153220
743.426	0.0151958
743.504	0.0152142
743.582	0.0151951
743.660	0.0151262
743.738	0.0150387
743.817	0.0151221
743.895	0.0148620
743.973	0.0148452
744.051	0.0148567
744.129	0.0148857
744.207	0.0148588
744.285	0.0147716
744.363	0.0146339
744.442	0.0146272
744.520	0.0145857
744.598	0.0147183
744.676	0.0147009
744.754	0.0146545
744.832	0.0148939
744.910	0.0147913
744.988	0.0147635
745.067	0.0149725
745.145	0.0149965
745.223	0.0151375
745.301	0.0150646
745.379	0.0151107
745.457	0.0152645
745.535	0.0152244
745.613	0.0151395
745.692	0.0151529
745.770	0.0151696
745.848	0.0150450
745.926	0.0150217
746.004	0.0149673
746.082	0.0150029
746.160	0.0148838
746.238	0.0147337
746.317	0.0145363
746.395	0.0145956
746.473	0.0144481
746.551	0.0144411
746.629	0.0146325
746.707	0.0143868
746.785	0.0143716
746.863	0.0144457
746.942	0.0144404
747.020	0.0143293
747.098	0.0143921
747.176	0.0145935
747.254	0.0146069
747.332	0.0144463
747.410	0.0145805
747.488	0.0146405
747.567	0.0147607
747.645	0.0146584
747.723	0.0148837
747.801	0.0149316
747.879	0.0150046
747.957	0.0151480
748.035	0.0151194
748.113	0.0150544
748.192	0.0151440
748.270	0.0151493
748.348	0.0151651
748.426	0.0153374
748.504	0.0150755
748.582	0.0151438
748.660	0.0150126
748.738	0.0148974
748.817	0.0148212
748.895	0.0147018
748.973	0.0146031
749.051	0.0145150
749.129	0.0145156
749.207	0.0146373
749.285	0.0145090
749.363	0.0144991
749.442	0.0146114
749.520	0.0144719
749.598	0.0145252
749.676	0.0145882
749.754	0.0147163
749.832	0.0147264
749.910	0.0147915
749.988	0.0149003
750.067	0.0149965
750.145	0.0147794
750.223	0.0149794
750.301	0.0151250
750.379	0.0150971
750.457	0.0150160
750.535	0.0151658
750.613	0.0152627
750.692	0.0152440
750.770	0.0151821
750.848	0.0152169
750.926	0.0150247
751.004	0.0150272
751.082	0.0149437
751.160	0.0148912
751.238	0.0148651
751.317	0.0148508
751.395	0.0147954
751.473	0.0145609
751.551	0.0146719
751.629	0.0145785
751.707	0.0145877
751.785	0.0145292
751.863	0.0145044
751.942	0.0144565
752.020	0.0145963
752.098	0.0146603
752.176	0.0145073
752.254	0.0146898
752.332	0.0146294
752.410	0.0147713
752.488	0.0146542
752.567	0.0147893
752.645	0.0148797
752.723	0.0149185
752.801	0.0149934
752.879	0.0149960
752.957	0.0150001
753.035	0.0151651
753.113	0.0150851
753.192	0.0151067
753.270	0.0152733
753.348	0.0151465
753.426	0.0152454
753.504	0.0151958
753.582	0.0151601
753.660	0.0152580
753.738	0.0152885
753.817	0.0152110
753.895	0.0151317
753.973	0.0153157
754.051	0.0150671
754.129	0.0149512
754.207	0.0149253
754.285	0.0148303
754.363	0.0149339
754.442	0.0149403
754.520	0.0146986
754.598	0.0148542
754.676	0.0147940
754.754	0.0147745
754.832	0.0145819
754.910	0.0146201
754.988	0.0146557
755.067	0.0145867
755.145	0.0145779
755.223	0.0146571
755.301	0.0145298
755.379	0.0145982
755.457	0.0146699
755.535	0.0147701
755.613	0.0148860
755.692	0.0148547
755.770	0.0147973
755.848	0.0149789
755.926	0.0150165
756.004	0.0150388
756.082	0.0150783
756.160	0.0151367
756.238	0.0151487
756.317	0.0151772
756.395	0.0151606
756.473	0.0151371
756.551	0.0151154
756.629	0.0151128
756.707	0.0151552
756.785	0.0149937
756.863	0.0148815
756.942	0.0147836
757.020	0.0146783
757.098	0.0146606
757.176	0.0146082
757.254	0.0145829
757.332	0.0145968
757.410	0.0145191
757.488	0.0145393
757.567	0.0146704
757.645	0.0147242
757.723	0.0146587
757.801	0.0147665
757.879	0.0149067
757.957	0.0148603
758.035	0.0148034
758.113	0.0149923
758.192	0.0151062
758.270	0.0150548
758.348	0.0150429
758.426	0.0150845
758.504	0.0151807
758.582	0.0150520
758.660	0.0150650
758.738	0.0151497
758.817	0.0151628
758.895	0.0150593
758.973	0.0150259
759.051	0.0151334
759.129	0.0150117
759.207	0.0149483
759.285	0.0148674
759.363	0.0147137
759.442	0.0146931
759.520	0.0147388
759.598	0.0147050
759.676	0.0145602
759.754	0.0146278
759.832	0.0146877
759.910	0.0145074
759.988	0.0145811
760.067	0.0146466
760.145	0.0147160
760.223	0.0148077
760.301	0.0148512
760.379	0.0147416
760.457	0.0147167
760.535	0.0149443
760.613	0.0150327
760.692	0.0152471
760.770	0.0150480
760.848	0.0150250
760.926	0.0151042
761.004	0.0151070
761.082	0.0150447
761.160	0.0150381
761.238	0.0152807
761.317	0.0150668
761.395	0.0150468
761.473	0.0150811
761.551	0.0150306
761.629	0.0149881
761.707	0.0150970
761.785	0.0149309
761.863	0.0149752
761.942	0.0149998
762.020	0.0149531
762.098	0.0148280
762.176	0.0149295
762.254	0.0148364
762.332	0.0147812
762.410	0.0148315
762.488	0.0147559
762.567	0.0148093
762.645	0.0147065
762.723	0.0148950
762.801	0.0147581
762.879	0.0147065
762.957	0.0146858
763.035	0.0147557
763.113	0.0148480
763.192	0.0146944
763.270	0.0148014
763.348	0.0148322
763.426	0.0149628
763.504	0.0149548
763.582	0.0150305
763.660	0.0150024
763.738	0.0150452
763.817	0.0150162
763.895	0.0149967
763.973	0.0150423
764.051	0.0149913
764.129	0.0149866
764.207	0.0150320
764.285	0.0150327
764.363	0.0149191
764.442	0.0149388
764.520	0.0149361
764.598	0.0149746
764.676	0.0149093
764.754	0.0150430
764.832	0.0149539
764.910	0.0147433
764.988	0.0146317
765.067	0.0148093
765.145	0.0148063
765.223	0.0147353
765.301	0.0146957
765.379	0.0147089
765.457	0.0147508
765.535	0.0146817
765.613	0.0147387
765.692	0.0148540
765.770	0.0146687
765.848	0.0149974
765.926	0.0149094
766.004	0.0150126
766.082	0.0149586
766.160	0.0150529
766.238	0.0149046
766.317	0.0150857
766.395	0.0150410
766.473	0.0149464
766.551	0.0151749
766.629	0.0151875
766.707	0.0150299
766.785	0.0150614
766.863	0.0151470
766.942	0.0150635
767.020	0.0149014
767.098	0.0149814
767.176	0.0149701
767.254	0.0148051
767.332	0.0148114
767.410	0.0149024
767.488	0.0148573
767.567	0.0147185
767.645	0.0146535
767.723	0.0145577
767.801	0.0145033
767.879	0.0147034
767.957	0.0147475
768.035	0.0146635
768.113	0.0147256
768.192	0.0147697
768.270	0.0148508
768.348	0.0147562
768.426	0.0148276
768.504	0.0150275
768.582	0.0149310
768.660	0.0149609
768.738	0.0149119
768.817	0.0151255
768.895	0.0151785
768.973	0.0149422
769.051	0.0148608
769.129	0.0148705
769.207	0.0149483
769.285	0.0150333
769.363	0.0150038
769.442	0.0149636
769.520	0.0150729
769.598	0.0147784
769.676	0.0149145
769.754	0.0149088
769.832	0.0147971
769.910	0.0148035
769.988	0.0147480
770.067	0.0147825
770.145	0.0146790
770.223	0.0147833
770.301	0.0146824
770.379	0.0147816
770.457	0.0147129
770.535	0.0146709
770.613	0.0146579
770.692	0.0146844
770.770	0.0146147
770.848	0.0148273
770.926	0.0148192
771.004	0.0147060
771.082	0.0147084
771.160	0.0149673
771.238	0.0147329
771.317	0.0146632
771.395	0.0148454
771.473	0.0146971
771.551	0.0149175
771.629	0.0150914
771.707	0.0149686
771.785	0.0148589
771.863	0.0147919
771.942	0.0148857
772.020	0.0148653
772.098	0.0149106
772.176	0.0148875
772.254	0.0149615
772.332	0.0149377
772.410	0.0149496
772.488	0.0148448
772.567	0.0148312
772.645	0.0148923
772.723	0.0149446
772.801	0.0149760
772.879	0.0150166
772.957	0.0150163
773.035	0.0149158
773.113	0.0147670
773.192	0.0147352
773.270	0.0147563
773.348	0.0147854
773.426	0.0147844
773.504	0.0148606
773.582	0.0149474
773.660	0.0149216
773.738	0.0148636
773.817	0.0149995
773.895	0.0148116
773.973	0.0149290
774.051	0.0149313
774.129	0.0147626
774.207	0.0148228
774.285	0.0149266
774.363	0.0149284
774.442	0.0149483
774.520	0.0149632
774.598	0.0146602
774.676	0.0147584
774.754	0.0148512
774.832	0.0149253
774.910	0.0148692
774.988	0.0148321
775.067	0.0147407
775.145	0.0148100
775.223	0.0148263
775.301	0.0148359
775.379	0.0147137
775.457	0.0148312
775.535	0.0149664
775.613	0.0148190
775.692	0.0147457
775.770	0.0147499
775.848	0.0149088
775.926	0.0148869
776.004	0.0148823
776.082	0.0148618
776.160	0.0149570
776.238	0.0149955
776.317	0.0149682
776.395	0.0149571
776.473	0.0149747
776.551	0.0150422
776.629	0.0148150
776.707	0.0149435
776.785	0.0150142
776.863	0.0149477
776.942	0.0150163
777.020	0.0148641
777.098	0.0149063
777.176	0.0148728
777.254	0.0148687
777.332	0.0147614
777.410	0.0148887
777.488	0.0148355
777.567	0.0148134
777.645	0.0147486
777.723	0.0149512
777.801	0.0147974
777.879	0.0147250
777.957	0.0150147
778.035	0.0148650
778.113	0.0148936
778.192	0.0149023
778.270	0.0150378
778.348	0.0150283
778.426	0.0148595
778.504	0.0148863
778.582	0.0149092
778.660	0.0149489
778.738	0.0148759
778.817	0.0149675
778.895	0.0149575
778.973	0.0149788
779.051	0.0149182
779.129	0.0148679
779.207	0.0148432
779.285	0.0148674
779.363	0.0148711
779.442	0.0149072
779.520	0.0148369
779.598	0.0147243
779.676	0.0148990
779.754	0.0149869
779.832	0.0148445
779.910	0.0147935
779.988	0.0147771
780.067	0.0147665
780.145	0.0147653
780.223	0.0146403
780.301	0.0147956
780.379	0.0148282
780.457	0.0147913
780.535	0.0147659
780.613	0.0147575
780.692	0.0147634
780.770	0.0147497
780.848	0.0148215
780.926	0.0147990
781.004	0.0147378
781.082	0.0147728
781.160	0.0148516
781.238	0.0147075
781.317	0.0146808
781.395	0.0149363
781.473	0.0149052
781.551	0.0147038
781.629	0.0148502
781.707	0.0148477
781.785	0.0148929
781.863	0.0147620
781.942	0.0150343
782.020	0.0148525
782.098	0.0149953
782.176	0.0149199
782.254	0.0147842
782.332	0.0151068
782.410	0.0150796
782.488	0.0150122
782.567	0.0152205
782.645	0.0151765
782.723	0.0150515
782.801	0.0150599
782.879	0.0150816
782.957	0.0149485
783.035	0.0150573
783.113	0.0149778
783.192	0.0150570
783.270	0.0149944
783.348	0.0149728
783.426	0.0149681
783.504	0.0147990
783.582	0.0148224
783.660	0.0148805
783.738	0.0147472
783.817	0.0148040
783.895	0.0148798
783.973	0.0149249
784.051	0.0148508
784.129	0.0149745
784.207	0.0148613
784.285	0.0148862
784.363	0.0149621
784.442	0.0149826
784.520	0.0150694
784.598	0.0150646
784.676	0.0150664
784.754	0.0149535
784.832	0.0150604
784.910	0.0150822
784.988	0.0150983
785.067	0.0150179
785.145	0.0150032
785.223	0.0149797
785.301	0.0149870
785.379	0.0151742
785.457	0.0150475
785.535	0.0149305
785.613	0.0148255
785.692	0.0148861
785.770	0.0148669
785.848	0.0147446
785.926	0.0147778
786.004	0.0148949
786.082	0.0147239
786.160	0.0146530
786.238	0.0147167
786.317	0.0147052
786.395	0.0147926
786.473	0.0147565
786.551	0.0147417
786.629	0.0147343
786.707	0.0147582
786.785	0.0147716
786.863	0.0150110
786.942	0.0148753
787.020	0.0148817
787.098	0.0148815
787.176	0.0149988
787.254	0.0150447
787.332	0.0149815
787.410	0.0151261
787.488	0.0150354
787.567	0.0150420
787.645	0.0149633
787.723	0.0151064
787.801	0.0150978
787.879	0.0150419
787.957	0.0150237
788.035	0.0148862
788.113	0.0149837
788.192	0.0149415
788.270	0.0147708
788.348	0.0148183
788.426	0.0147995
788.504	0.0148882
788.582	0.0147952
788.660	0.0146120
788.738	0.0146941
788.817	0.0147430
788.895	0.0146696
788.973	0.0147251
789.051	0.0148219
789.129	0.0146546
789.207	0.0149713
789.285	0.0148630
789.363	0.0148553
789.442	0.0148702
789.520	0.0150291
789.598	0.0149020
789.676	0.0149475
789.754	0.0149484
789.832	0.0150623
789.910	0.0150861
789.988	0.0148853
790.067	0.0149364
790.145	0.0148833
790.223	0.0149467
790.301	0.0150329
790.379	0.0150204
790.457	0.0149610
790.535	0.0149964
790.613	0.0148884
790.692	0.0148557
790.770	0.0148956
790.848	0.0148631
790.926	0.0148350
791.004	0.0149359
791.082	0.0147674
791.160	0.0146846
791.238	0.0148406
791.317	0.0149005
791.395	0.0148067
791.473	0.0146870
791.551	0.0147506
791.629	0.0147042
791.707	0.0147823
791.785	0.0149132
791.863	0.0148257
791.942	0.0149100
792.020	0.0149291
792.098	0.0149890
792.176	0.0150035
792.254	0.0149722
792.332	0.0149990
792.410	0.0150723
792.488	0.0150882
792.567	0.0150893
792.645	0.0150954
792.723	0.0151839
792.801	0.0152160
792.879	0.0151924
792.957	0.0151253
793.035	0.0152660
793.113	0.0151109
793.192	0.0151377
793.270	0.0150531
793.348	0.0151684
793.426	0.0150609
793.504	0.0150122
793.582	0.0149407
793.660	0.0149113
793.738	0.0148156
793.817	0.0148611
793.895	0.0146967
793.973	0.0147865
794.051	0.0146522
794.129	0.0147028
794.207	0.0146693
794.285	0.0147251
794.363	0.0146346
794.442	0.0146443
794.520	0.0146111
794.598	0.0145528
794.676	0.0146530
794.754	0.0146909
794.832	0.0147678
794.910	0.0147681
794.988	0.0148790
795.067	0.0149060
795.145	0.0148541
795.223	0.0148849
795.301	0.0149995
795.379	0.0151481
795.457	0.0151531
795.535	0.0150673
795.613	0.0149893
795.692	0.0150740
795.770	0.0150443
795.848	0.0150648
795.926	0.0151158
796.004	0.0150071
796.082	0.0149982
796.160	0.0149451
796.238	0.0149666
796.317	0.0151010
796.395	0.0148701
796.473	0.0148911
796.551	0.0149096
796.629	0.0149434
796.707	0.0148449
796.785	0.0148841
796.863	0.0148741
796.942	0.0149724
797.020	0.0148849
797.098	0.0149543
797.176	0.0148290
797.254	0.0149205
797.332	0.0149908
797.410	0.0148718
797.488	0.0149633
797.567	0.0151908
797.645	0.0150391
797.723	0.0148199
797.801	0.0150021
797.879	0.0151130
797.957	0.0150529
798.035	0.0151230
798.113	0.0150571
798.192	0.0150487
798.270	0.0149918
798.348	0.0150201
798.426	0.0150928
798.504	0.0150006
798.582	0.0150813
798.660	0.0149652
798.738	0.0148927
798.817	0.0148824
798.895	0.0148052
798.973	0.0147852
799.051	0.0147758
799.129	0.0146844
799.207	0.0147294
799.285	0.0147113
799.363	0.0147274
799.442	0.0147211
799.520	0.0147164
799.598	0.0147205
799.676	0.0147171
799.754	0.0146888
799.832	0.0147235
799.910	0.0146397
799.988	0.0147136
800.067	0.0149084
800.145	0.0148756
800.223	0.0147485
800.301	0.0147819
800.379	0.0148633
800.457	0.0147700
800.535	0.0148122
800.613	0.0148449
800.692	0.0148605
800.770	0.0148540
800.848	0.0148666
800.926	0.0149940
801.004	0.0148835
801.082	0.0149627
801.160	0.0150351
801.238	0.0150288
801.317	0.0149574
801.395	0.0150760
801.473	0.0149776
801.551	0.0151082
801.629	0.0150124
801.707	0.0150414
801.785	0.0149924
801.863	0.0149831
801.942	0.0149644
802.020	0.0150807
802.098	0.0149797
802.176	0.0150700
802.254	0.0149019
802.332	0.0150106
802.410	0.0149022
802.488	0.0149169
802.567	0.0148518
802.645	0.0149187
802.723	0.0148505
802.801	0.0147690
802.879	0.0146976
802.957	0.0147792
803.035	0.0147153
803.113	0.0147702
803.192	0.0146906
803.270	0.0146942
803.348	0.0146884
803.426	0.0147494
803.504	0.0146890
803.582	0.0148129
803.660	0.0150077
803.738	0.0150954
803.817	0.0148051
803.895	0.0150346
803.973	0.0150032
804.051	0.0150052
804.129	0.0149136
804.207	0.0149401
804.285	0.0150645
804.363	0.0150292
804.442	0.0150098
804.520	0.0148808
804.598	0.0150104
804.676	0.0149088
804.754	0.0148602
804.832	0.0149864
804.910	0.0148974
804.988	0.0148441
805.067	0.0147683
805.145	0.0148692
805.223	0.0148366
805.301	0.0148125
805.379	0.0146874
805.457	0.0148507
805.535	0.0147862
805.613	0.0148219
805.692	0.0149136
805.770	0.0147954
805.848	0.0150619
805.926	0.0149149
806.004	0.0150108
806.082	0.0149015
806.160	0.0149312
806.238	0.0149786
806.317	0.0151394
806.395	0.0151912
806.473	0.0152159
806.551	0.0150434
806.629	0.0151467
806.707	0.0151231
806.785	0.0151521
806.863	0.0152267
806.942	0.0150885
807.020	0.0151747
807.098	0.0150620
807.176	0.0149551
807.254	0.0149522
807.332	0.0148980
807.410	0.0147537
807.488	0.0149390
807.567	0.0147796
807.645	0.0148167
807.723	0.0148366
807.801	0.0147936
807.879	0.0147196
807.957	0.0147710
808.035	0.0148331
808.113	0.0147951
808.192	0.0148733
808.270	0.0148147
808.348	0.0148898
808.426	0.0149797
808.504	0.0148845
808.582	0.0148398
808.660	0.0148599
808.738	0.0147115
808.817	0.0149724
808.895	0.0149641
808.973	0.0148878
809.051	0.0149345
809.129	0.0149711
809.207	0.0148758
809.285	0.0148306
809.363	0.0150435
809.442	0.0148215
809.520	0.0150421
809.598	0.0149589
809.676	0.0148514
809.754	0.0149460
809.832	0.0148650
809.910	0.0149171
809.988	0.0148915
810.067	0.0149112
810.145	0.0148463
810.223	0.0148836
810.301	0.0147959
810.379	0.0148839
810.457	0.0148646
810.535	0.0148006
810.613	0.0148005
810.692	0.0147427
810.770	0.0149013
810.848	0.0148484
810.926	0.0148628
811.004	0.0149006
811.082	0.0148886
811.160	0.0148531
811.238	0.0150425
811.317	0.0148740
811.395	0.0149118
811.473	0.0150783
811.551	0.0149434
811.629	0.0150750
811.707	0.0149445
811.785	0.0150165
811.863	0.0151138
811.942	0.0149285
812.020	0.0149966
812.098	0.0150809
812.176	0.0149523
812.254	0.0148926
812.332	0.0149854
812.410	0.0149119
812.488	0.0148722
812.567	0.0149291
812.645	0.0149093
812.723	0.0149801
812.801	0.0150047
812.879	0.0149341
812.957	0.0149574
813.035	0.0149673
813.113	0.0150415
813.192	0.0148703
813.270	0.0148586
813.348	0.0148227
813.426	0.0149140
813.504	0.0149677
813.582	0.0148775
813.660	0.0148487
813.738	0.0149025
813.817	0.0149425
813.895	0.0148455
813.973	0.0147714
814.051	0.0147710
814.129	0.0149125
814.207	0.0148360
814.285	0.0147176
814.363	0.0146663
814.442	0.0147926
814.520	0.0147952
814.598	0.0147058
814.676	0.0147336
814.754	0.0148619
814.832	0.0146861
814.910	0.0147934
814.988	0.0147869
815.067	0.0147215
815.145	0.0148361
815.223	0.0149460
815.301	0.0147824
815.379	0.0149226
815.457	0.0148015
815.535	0.0148137
815.613	0.0150522
815.692	0.0150185
815.770	0.0148354
815.848	0.0147704
815.926	0.0150151
816.004	0.0150216
816.082	0.0149773
816.160	0.0149144
816.238	0.0149174
816.317	0.0150564
816.395	0.0150607
816.473	0.0149597
816.551	0.0149437
816.629	0.0150004
816.707	0.0149223
816.785	0.0149092
816.863	0.0148999
816.942	0.0149005
817.020	0.0148375
817.098	0.0147881
817.176	0.0148606
817.254	0.0148241
817.332	0.0148006
817.410	0.0148021
817.488	0.0147397
817.567	0.0147334
817.645	0.0147794
817.723	0.0147982
817.801	0.0147595
817.879	0.0147124
817.957	0.0147959
818.035	0.0148556
818.113	0.0149052
818.192	0.0147861
818.270	0.0149220
818.348	0.0148880
818.426	0.0149836
818.504	0.0150967
818.582	0.0150534
818.660	0.0148705
818.738	0.0148517
818.817	0.0150797
818.895	0.0148904
818.973	0.0149187
819.051	0.0148785
819.129	0.0148855
819.207	0.0147518
819.285	0.0146925
819.363	0.0148488
819.442	0.0148367
819.520	0.0148018
819.598	0.0146954
819.676	0.0149189
819.754	0.0147125
819.832	0.0146922
819.910	0.0147747
819.988	0.0149258
820.067	0.0148579
820.145	0.0149036
820.223	0.0148543
820.301	0.0148800
820.379	0.0149077
820.457	0.0148981
820.535	0.0149764
820.613	0.0149294
820.692	0.0148861
820.770	0.0148508
820.848	0.0150876
820.926	0.0148953
821.004	0.0148312
821.082	0.0149211
821.160	0.0149143
821.238	0.0149500
821.317	0.0149301
821.395	0.0148503
821.473	0.0148939
821.551	0.0148320
821.629	0.0148817
821.707	0.0147655
821.785	0.0148151
821.863	0.0148280
821.942	0.0149379
822.020	0.0148631
822.098	0.0148487
822.176	0.0148343
822.254	0.0148351
822.332	0.0147839
822.410	0.0148457
822.488	0.0148947
822.567	0.0148277
822.645	0.0147292
822.723	0.0147775
822.801	0.0149543
822.879	0.0150954
822.957	0.0149065
823.035	0.0148843
823.113	0.0149222
823.192	0.0150230
823.270	0.0148854
823.348	0.0151482
823.426	0.0150005
823.504	0.0149885
823.582	0.0148816
823.660	0.0149083
823.738	0.0150797
823.817	0.0150529
823.895	0.0150202
823.973	0.0149283
824.051	0.0149523
824.129	0.0149532
824.207	0.0149559
824.285	0.0149144
824.363	0.0148827
824.442	0.0149248
824.520	0.0147693
824.598	0.0147150
824.676	0.0148363
824.754	0.0148403
824.832	0.0148421
824.910	0.0148212
824.988	0.0147356
825.067	0.0146720
825.145	0.0146501
825.223	0.0146967
825.301	0.0147764
825.379	0.0147021
825.457	0.0147007
825.535	0.0147153
825.613	0.0146879
825.692	0.0148679
825.770	0.0148887
825.848	0.0148917
825.926	0.0149472
826.004	0.0148698
826.082	0.0149461
826.160	0.0150342
826.238	0.0150156
826.317	0.0150008
826.395	0.0150581
826.473	0.0151823
826.551	0.0151580
826.629	0.0150146
826.707	0.0149931
826.785	0.0149593
826.863	0.0151956
826.942	0.0150837
827.020	0.0149821
827.098	0.0150000
827.176	0.0151398
827.254	0.0147953
827.332	0.0147801
827.410	0.0149007
827.488	0.0147939
827.567	0.0148553
827.645	0.0149237
827.723	0.0148698
827.801	0.0148718
827.879	0.0148940
827.957	0.0146619
828.035	0.0148135
828.113	0.0148582
828.192	0.0149118
828.270	0.0149213
828.348	0.0148795
828.426	0.0148634
828.504	0.0148861
828.582	0.0148932
828.660	0.0149675
828.738	0.0149298
828.817	0.0151178
828.895	0.0149539
828.973	0.0149395
829.051	0.0150960
829.129	0.0150627
829.207	0.0150126
829.285	0.0148685
829.363	0.0149435
829.442	0.0150092
829.520	0.0149398
829.598	0.0149561
829.676	0.0148669
829.754	0.0149618
829.832	0.0147919
829.910	0.0147691
829.988	0.0148437
830.067	0.0149414
830.145	0.0149208
830.223	0.0146953
830.301	0.0147546
830.379	0.0148208
830.457	0.0147810
830.535	0.0149111
830.613	0.0148862
830.692	0.0149734
830.770	0.0148370
830.848	0.0147701
830.926	0.0147409
831.004	0.0148063
831.082	0.0148471
831.160	0.0149830
831.238	0.0150933
831.317	0.0150061
831.395	0.0149710
831.473	0.0148959
831.551	0.0149908
831.629	0.0149819
831.707	0.0148771
831.785	0.0150225
831.863	0.0150516
831.942	0.0148276
832.020	0.0149821
832.098	0.0150832
832.176	0.0150194
832.254	0.0151781
832.332	0.0149271
832.410	0.0148602
832.488	0.0149643
832.567	0.0148781
832.645	0.0148474
832.723	0.0148267
832.801	0.0149523
832.879	0.0147765
832.957	0.0146058
833.035	0.0149184
833.113	0.0149220
833.192	0.0147527
833.270	0.0147547
833.348	0.0148299
833.426	0.0147298
833.504	0.0147546
833.582	0.0146395
833.660	0.0147311
833.738	0.0148707
833.817	0.0149237
833.895	0.0147762
833.973	0.0148473
834.051	0.0148597
834.129	0.0148676
834.207	0.0149385
834.285	0.0148920
834.363	0.0149023
834.442	0.0149364
834.520	0.0150309
834.598	0.0150413
834.676	0.0150210
834.754	0.0150202
834.832	0.0149512
834.910	0.0150866
834.988	0.0149466
835.067	0.0150533
835.145	0.0150043
835.223	0.0150560
835.301	0.0150854
835.379	0.0149957
835.457	0.0148125
835.535	0.0149765
835.613	0.0150392
835.692	0.0149817
835.770	0.0149032
835.848	0.0148839
835.926	0.0148307
836.004	0.0149184
836.082	0.0149496
836.160	0.0147895
836.238	0.0148653
836.317	0.0146835
836.395	0.0148240
836.473	0.0147160
836.551	0.0148267
836.629	0.0149891
836.707	0.0148283
836.785	0.0148224
836.863	0.0149435
836.942	0.0148489
837.020	0.0148395
837.098	0.0149080
837.176	0.0149156
837.254	0.0149215
837.332	0.0149084
837.410	0.0149966
837.488	0.0151272
837.567	0.0149639
837.645	0.0150578
837.723	0.0150603
837.801	0.0149597
837.879	0.0150383
837.957	0.0151116
838.035	0.0149543
838.113	0.0150430
838.192	0.0149593
838.270	0.0148277
838.348	0.0148782
838.426	0.0148395
838.504	0.0148708
838.582	0.0147842
838.660	0.0146663
838.738	0.0147398
838.817	0.0148948
838.895	0.0148570
838.973	0.0149316
839.051	0.0147541
839.129	0.0147446
839.207	0.0148104
839.285	0.0147765
839.363	0.0149442
839.442	0.0147919
839.520	0.0149754
839.598	0.0149658
839.676	0.0150171
839.754	0.0150085
839.832	0.0149702
839.910	0.0148826
839.988	0.0150557
840.067	0.0148917
840.145	0.0150244
840.223	0.0148376
840.301	0.0149442
840.379	0.0148572
840.457	0.0149580
840.535	0.0150571
840.613	0.0150164
840.692	0.0148305
840.770	0.0148560
840.848	0.0150023
840.926	0.0149143
841.004	0.0149150
841.082	0.0148895
841.160	0.0149321
841.238	0.0148034
841.317	0.0149653
841.395	0.0148026
841.473	0.0148067
841.551	0.0148070
841.629	0.0148576
841.707	0.0147443
841.785	0.0147427
841.863	0.0147878
841.942	0.0149380
842.020	0.0148377
842.098	0.0146992
842.176	0.0148395
842.254	0.0148855
842.332	0.0147875
842.410	0.0149372
842.488	0.0149942
842.567	0.0148860
842.645	0.0148743
842.723	0.0148727
842.801	0.0149259
842.879	0.0148471
842.957	0.0149744
843.035	0.0148238
843.113	0.0148392
843.192	0.0147987
843.270	0.0147247
843.348	0.0148267
843.426	0.0148432
843.504	0.0148034
843.582	0.0149297
843.660	0.0147390
843.738	0.0148493
843.817	0.0147766
843.895	0.0148495
843.973	0.0148506
844.051	0.0147973
844.129	0.0148116
844.207	0.0148181
844.285	0.0147849
844.363	0.0146896
844.442	0.0147771
844.520	0.0149697
844.598	0.0149112
844.676	0.0148461
844.754	0.0147485
844.832	0.0148331
844.910	0.0148467
844.988	0.0147980
845.067	0.0147764
845.145	0.0147018
845.223	0.0147784
845.301	0.0148770
845.379	0.0148859
845.457	0.0148637
845.535	0.0148134
845.613	0.0148524
845.692	0.0147894
845.770	0.0147957
845.848	0.0148725
845.926	0.0149208
846.004	0.0148648
846.082	0.0148244
846.160	0.0149628
846.238	0.0149276
846.317	0.0148648
846.395	0.0147960
846.473	0.0148188
846.551	0.0148425
846.629	0.0149553
846.707	0.0149333
846.785	0.0147735
846.863	0.0148428
846.942	0.0149519
847.020	0.0149213
847.098	0.0147787
847.176	0.0147888
847.254	0.0148134
847.332	0.0148663
847.410	0.0148759
847.488	0.0148663
847.567	0.0148920
847.645	0.0148595
847.723	0.0147925
847.801	0.0148724
847.879	0.0148951
847.957	0.0148961
848.035	0.0149257
848.113	0.0148292
848.192	0.0150145
848.270	0.0148846
848.348	0.0147918
848.426	0.0148324
848.504	0.0147927
848.582	0.0147700
848.660	0.0149274
848.738	0.0150056
848.817	0.0148439
848.895	0.0147845
848.973	0.0148382
849.051	0.0149657
849.129	0.0149435
849.207	0.0149129
849.285	0.0148837
849.363	0.0148586
849.442	0.0148372
849.520	0.0148727
849.598	0.0147758
849.676	0.0148656
849.754	0.0148151
849.832	0.0147301
849.910	0.0148611
849.988	0.0150285
850.067	0.0149590
850.145	0.0149091
850.223	0.0148640
850.301	0.0148541
850.379	0.0149597
850.457	0.0149822
850.535	0.0149980
850.613	0.0149845
850.692	0.0150424
850.770	0.0149896
850.848	0.0149986
850.926	0.0149787
851.004	0.0149831
851.082	0.0148902
851.160	0.0150730
851.238	0.0148340
851.317	0.0149023
851.395	0.0149940
851.473	0.0149494
851.551	0.0149268
851.629	0.0148705
851.707	0.0147762
851.785	0.0148140
851.863	0.0148711
851.942	0.0148656
852.020	0.0149136
852.098	0.0149415
852.176	0.0149430
852.254	0.0148125
852.332	0.0148081
852.410	0.0148710
852.488	0.0148475
852.567	0.0149320
852.645	0.0147555
852.723	0.0148649
852.801	0.0149795
852.879	0.0148734
852.957	0.0148013
853.035	0.0147088
853.113	0.0149353
853.192	0.0148901
853.270	0.0148492
853.348	0.0149014
853.426	0.0147307
853.504	0.0147263
853.582	0.0147604
853.660	0.0146859
853.738	0.0149223
853.817	0.0148105
853.895	0.0149290
853.973	0.0149039
854.051	0.0148698
854.129	0.0150307
854.207	0.0149305
854.285	0.0148988
854.363	0.0149313
854.442	0.0150029
854.520	0.0149164
854.598	0.0148476
854.676	0.0149550
854.754	0.0148985
854.832	0.0149403
854.910	0.0150436
854.988	0.0150496
855.067	0.0148292
855.145	0.0148998
855.223	0.0150166
855.301	0.0150957
855.379	0.0150526
855.457	0.0150511
855.535	0.0150272
855.613	0.0152847
855.692	0.0151298
855.770	0.0151385
855.848	0.0151196
855.926	0.0150112
856.004	0.0149689
856.082	0.0151115
856.160	0.0150346
856.238	0.0151270
856.317	0.0149470
856.395	0.0151065
856.473	0.0149905
856.551	0.0149188
856.629	0.0149265
856.707	0.0148798
856.785	0.0149310
856.863	0.0147918
856.942	0.0147562
857.020	0.0148392
857.098	0.0147428
857.176	0.0147859
857.254	0.0147422
857.332	0.0147664
857.410	0.0147649
857.488	0.0146040
857.567	0.0147685
857.645	0.0148416
857.723	0.0148851
857.801	0.0147862
857.879	0.0148231
857.957	0.0148759
858.035	0.0147112
858.113	0.0146706
858.192	0.0148173
858.270	0.0148208
858.348	0.0148946
858.426	0.0149586
858.504	0.0148939
858.582	0.0148267
858.660	0.0148164
858.738	0.0149614
858.817	0.0150195
858.895	0.0150224
858.973	0.0149944
859.051	0.0150053
859.129	0.0151267
859.207	0.0151585
859.285	0.0151128
859.363	0.0150117
859.442	0.0149796
859.520	0.0151681
859.598	0.0150282
859.676	0.0148883
859.754	0.0151527
859.832	0.0151275
859.910	0.0150121
859.988	0.0149783
860.067	0.0149532
860.145	0.0149849
860.223	0.0149499
860.301	0.0149857
860.379	0.0150520
860.457	0.0151403
860.535	0.0150397
860.613	0.0149928
860.692	0.0150020
860.770	0.0150372
860.848	0.0149772
860.926	0.0148613
861.004	0.0148962
861.082	0.0149187
861.160	0.0147980
861.238	0.0147352
861.317	0.0148602
861.395	0.0148876
861.473	0.0147545
861.551	0.0147404
861.629	0.0148370
861.707	0.0147552
861.785	0.0146277
861.863	0.0148399
861.942	0.0147996
862.020	0.0147932
862.098	0.0147912
862.176	0.0148796
862.254	0.0148447
862.332	0.0149345
862.410	0.0149093
862.488	0.0148721
862.567	0.0148818
862.645	0.0149139
862.723	0.0148821
862.801	0.0147935
862.879	0.0149786
862.957	0.0148443
863.035	0.0149065
863.113	0.0149030
863.192	0.0149389
863.270	0.0149274
863.348	0.0149286
863.426	0.0149741
863.504	0.0150658
863.582	0.0149070
863.660	0.0150349
863.738	0.0150141
863.817	0.0149496
863.895	0.0150169
863.973	0.0149722
864.051	0.0149937
864.129	0.0150158
864.207	0.0150085
864.285	0.0149336
864.363	0.0149753
864.442	0.0150050
864.520	0.0150001
864.598	0.0148456
864.676	0.0148900
864.754	0.0150262
864.832	0.0149510
864.910	0.0150476
864.988	0.0149580
865.067	0.0150772
865.145	0.0147750
865.223	0.0148697
865.301	0.0149608
865.379	0.0149736
865.457	0.0147973
865.535	0.0149624
865.613	0.0149051
865.692	0.0150172
865.770	0.0149548
865.848	0.0148665
865.926	0.0148045
866.004	0.0148483
866.082	0.0147011
866.160	0.0146500
866.238	0.0148546
866.317	0.0147600
866.395	0.0147823
866.473	0.0145957
866.551	0.0147054
866.629	0.0147266
866.707	0.0147092
866.785	0.0147633
866.863	0.0147233
866.942	0.0147597
867.020	0.0147433
867.098	0.0146931
867.176	0.0147267
867.254	0.0146928
867.332	0.0147930
867.410	0.0146903
867.488	0.0147192
867.567	0.0147326
867.645	0.0147968
867.723	0.0147439
867.801	0.0147852
867.879	0.0148187
867.957	0.0148391
868.035	0.0148646
868.113	0.0147828
868.192	0.0147981
868.270	0.0148259
868.348	0.0149509
868.426	0.0147739
868.504	0.0148885
868.582	0.0149010
868.660	0.0149261
868.738	0.0149294
868.817	0.0149232
868.895	0.0150338
868.973	0.0150892
869.051	0.0149766
869.129	0.0149451
869.207	0.0148575
869.285	0.0149745
869.363	0.0149678
869.442	0.0149208
869.520	0.0150318
869.598	0.0148064
869.676	0.0149949
869.754	0.0150911
869.832	0.0150308
869.910	0.0149572
869.988	0.0150917
870.067	0.0151460
870.145	0.0149783
870.223	0.0150121
870.301	0.0149131
870.379	0.0148360
870.457	0.0149267
870.535	0.0148363
870.613	0.0148993
870.692	0.0149098
870.770	0.0148820
870.848	0.0147800
870.926	0.0148373
871.004	0.0148326
871.082	0.0147840
871.160	0.0148399
871.238	0.0147253
871.317	0.0146509
871.395	0.0147262
871.473	0.0147765
871.551	0.0146878
871.629	0.0146829
871.707	0.0149754
871.785	0.0146460
871.863	0.0148042
871.942	0.0148158
872.020	0.0148949
872.098	0.0147771
872.176	0.0148690
872.254	0.0149516
872.332	0.0149587
872.410	0.0149361
872.488	0.0150316
872.567	0.0150359
872.645	0.0150839
872.723	0.0150053
872.801	0.0151061
872.879	0.0151022
872.957	0.0149860
873.035	0.0150842
873.113	0.0150078
873.192	0.0149265
873.270	0.0149256
873.348	0.0149081
873.426	0.0149719
873.504	0.0148861
873.582	0.0149461
873.660	0.0149751
873.738	0.0149818
873.817	0.0149335
873.895	0.0148812
873.973	0.0148914
874.051	0.0147839
874.129	0.0149893
874.207	0.0148976
874.285	0.0148576
874.363	0.0148642
874.442	0.0150211
874.520	0.0150551
874.598	0.0149549
874.676	0.0149383
874.754	0.0149063
874.832	0.0148287
874.910	0.0149922
874.988	0.0150723
875.067	0.0148410
875.145	0.0148016
875.223	0.0148846
875.301	0.0148885
875.379	0.0148119
875.457	0.0149590
875.535	0.0148281
875.613	0.0149432
875.692	0.0147640
875.770	0.0147945
875.848	0.0147219
875.926	0.0147158
876.004	0.0146227
876.082	0.0147479
876.160	0.0147558
876.238	0.0147573
876.317	0.0146854
876.395	0.0147576
876.473	0.0147173
876.551	0.0146943
876.629	0.0147198
876.707	0.0146857
876.785	0.0146864
876.863	0.0148051
876.942	0.0148274
877.020	0.0148862
877.098	0.0148747
877.176	0.0149309
877.254	0.0150291
877.332	0.0149575
877.410	0.0148407
877.488	0.0149205
877.567	0.0150311
877.645	0.0148604
877.723	0.0150670
877.801	0.0149426
877.879	0.0150193
877.957	0.0149733
878.035	0.0147832
878.113	0.0148500
878.192	0.0149994
878.270	0.0150455
878.348	0.0148569
878.426	0.0147434
878.504	0.0148334
878.582	0.0149128
878.660	0.0147173
878.738	0.0147276
878.817	0.0148088
878.895	0.0149676
878.973	0.0148596
879.051	0.0148873
879.129	0.0148644
879.207	0.0148392
879.285	0.0149522
879.363	0.0148532
879.442	0.0149488
879.520	0.0148859
879.598	0.0149504
879.676	0.0149453
879.754	0.0149815
879.832	0.0150125
879.910	0.0149699
879.988	0.0149491
880.067	0.0149655
880.145	0.0150142
880.223	0.0150476
880.301	0.0150990
880.379	0.0149015
880.457	0.0149213
880.535	0.0149443
880.613	0.0148716
880.692	0.0150182
880.770	0.0149352
880.848	0.0149027
880.926	0.0148757
881.004	0.0149612
881.082	0.0149372
881.160	0.0148523
881.238	0.0149741
881.317	0.0149096
881.395	0.0149477
881.473	0.0147739
881.551	0.0148973
881.629	0.0147789
881.707	0.0148161
881.785	0.0148096
881.863	0.0149941
881.942	0.0148633
882.020	0.0148094
882.098	0.0149460
882.176	0.0148706
882.254	0.0149350
882.332	0.0149108
882.410	0.0148587
882.488	0.0149544
882.567	0.0147950
882.645	0.0148013
882.723	0.0150211
882.801	0.0149776
882.879	0.0148354
882.957	0.0149270
883.035	0.0148483
883.113	0.0148672
883.192	0.0148356
883.270	0.0148465
883.348	0.0148596
883.426	0.0149471
883.504	0.0147471
883.582	0.0147783
883.660	0.0148949
883.738	0.0148235
883.817	0.0148864
883.895	0.0149331
883.973	0.0150157
884.051	0.0148901
884.129	0.0149848
884.207	0.0149728
884.285	0.0150840
884.363	0.0150108
884.442	0.0150166
884.520	0.0150431
884.598	0.0150243
884.676	0.0150738
884.754	0.0149953
884.832	0.0151060
884.910	0.0148988
884.988	0.0148923
885.067	0.0148497
885.145	0.0148762
885.223	0.0147881
885.301	0.0147799
885.379	0.0148095
885.457	0.0146436
885.535	0.0147263
885.613	0.0147236
885.692	0.0148460
885.770	0.0146757
885.848	0.0147836
885.926	0.0149282
886.004	0.0148930
886.082	0.0149545
886.160	0.0149188
886.238	0.0149420
886.317	0.0149884
886.395	0.0149979
886.473	0.0149681
886.551	0.0149088
886.629	0.0148209
886.707	0.0147023
886.785	0.0147951
886.863	0.0149121
886.942	0.0147682
887.020	0.0147985
887.098	0.0149692
887.176	0.0148347
887.254	0.0148824
887.332	0.0150526
887.410	0.0149921
887.488	0.0149726
887.567	0.0149925
887.645	0.0149232
887.723	0.0150311
887.801	0.0152305
887.879	0.0150164
887.957	0.0149570
888.035	0.0150307
888.113	0.0152015
888.192	0.0150019
888.270	0.0151237
888.348	0.0150314
888.426	0.0148901
888.504	0.0149220
888.582	0.0150557
888.660	0.0148092
888.738	0.0148612
888.817	0.0149676
888.895	0.0148256
888.973	0.0149026
889.051	0.0150807
889.129	0.0148119
889.207	0.0147800
889.285	0.0146983
889.363	0.0147120
889.442	0.0147732
889.520	0.0146982
889.598	0.0147645
889.676	0.0148157
889.754	0.0147757
889.832	0.0148133
889.910	0.0148858
889.988	0.0148445
890.067	0.0148336
890.145	0.0148700
890.223	0.0149217
890.301	0.0150665
890.379	0.0149539
890.457	0.0150961
890.535	0.0151088
890.613	0.0150269
890.692	0.0151624
890.770	0.0151643
890.848	0.0151880
890.926	0.0149762
891.004	0.0149438
891.082	0.0150272
891.160	0.0149446
891.238	0.0149387
891.317	0.0149270
891.395	0.0149050
891.473	0.0148662
891.551	0.0147831
891.629	0.0147340
891.707	0.0146428
891.785	0.0147501
891.863	0.0147276
891.942	0.0145562
892.020	0.0144843
892.098	0.0145423
892.176	0.0146166
892.254	0.0147006
892.332	0.0146526
892.410	0.0146587
892.488	0.0147841
892.567	0.0148868
892.645	0.0149715
892.723	0.0148867
892.801	0.0150676
892.879	0.0152085
892.957	0.0151252
893.035	0.0151580
893.113	0.0151775
893.192	0.0151708
893.270	0.0151538
893.348	0.0151089
893.426	0.0151313
893.504	0.0151562
893.582	0.0151716
893.660	0.0150674
893.738	0.0149923
893.817	0.0149651
893.895	0.0148601
893.973	0.0147234
894.051	0.0147516
894.129	0.0147341
894.207	0.0147291
894.285	0.0146367
894.363	0.0145592
894.442	0.0146492
894.520	0.0145406
894.598	0.0146101
894.676	0.0146544
894.754	0.0148095
894.832	0.0145963
894.910	0.0147552
894.988	0.0149677
895.067	0.0150320
895.145	0.0149499
895.223	0.0150121
895.301	0.0151517
895.379	0.0150621
895.457	0.0149310
895.535	0.0150600
895.613	0.0150516
895.692	0.0150504
895.770	0.0150725
895.848	0.0149197
895.926	0.0148789
896.004	0.0149742
896.082	0.0149827
896.160	0.0147902
896.238	0.0147385
896.317	0.0147811
896.395	0.0147166
896.473	0.0145943
896.551	0.0146311
896.629	0.0147382
896.707	0.0147812
896.785	0.0147475
896.863	0.0148087
896.942	0.0148025
897.020	0.0147322
897.098	0.0147403
897.176	0.0148325
897.254	0.0148729
897.332	0.0148222
897.410	0.0148315
897.488	0.0149123
897.567	0.0148123
897.645	0.0148859
897.723	0.0148769
897.801	0.0148883
897.879	0.0149590
897.957	0.0149440
898.035	0.0149980
898.113	0.0149350
898.192	0.0148286
898.270	0.0149632
898.348	0.0149490
898.426	0.0149783
898.504	0.0149163
898.582	0.0148686
898.660	0.0148740
898.738	0.0149148
898.817	0.0148134
898.895	0.0147661
898.973	0.0148835
899.051	0.0147670
899.129	0.0147717
899.207	0.0148160
899.285	0.0147285
899.363	0.0148011
899.442	0.0147762
899.520	0.0147157
899.598	0.0146806
899.676	0.0147670
899.754	0.0147282
899.832	0.0146733
899.910	0.0147429
899.988	0.0148057
900.067	0.0145515
900.145	0.0146845
900.223	0.0147441
900.301	0.0145436
900.379	0.0146463
900.457	0.0147446
900.535	0.0147814
900.613	0.0146832
900.692	0.0146150
900.770	0.0147223
900.848	0.0148288
900.926	0.0148443
901.004	0.0148260
901.082	0.0149577
901.160	0.0150760
901.238	0.0150037
901.317	0.0149946
901.395	0.0150294
901.473	0.0151096
901.551	0.0149617
901.629	0.0150503
901.707	0.0150459
901.785	0.0149367
901.863	0.0149029
901.942	0.0149067
902.020	0.0147202
902.098	0.0146275
902.176	0.0146712
902.254	0.0147226
902.332	0.0146091
902.410	0.0145388
902.488	0.0147108
902.567	0.0148644
902.645	0.0146474
902.723	0.0145267
902.801	0.0147971
902.879	0.0146455
902.957	0.0147445
903.035	0.0147344
903.113	0.0148126
903.192	0.0148111
903.270	0.0149172
903.348	0.0150695
903.426	0.0150543
903.504	0.0149920
903.582	0.0150468
903.660	0.0149651
903.738	0.0150096
903.817	0.0150294
903.895	0.0148988
903.973	0.0151104
904.051	0.0149002
904.129	0.0149894
904.207	0.0150092
904.285	0.0148545
904.363	0.0148547
904.442	0.0149106
904.520	0.0147503
904.598	0.0148540
904.676	0.0148035
904.754	0.0147754
904.832	0.0148077
904.910	0.0148870
904.988	0.0148592
905.067	0.0148474
905.145	0.0148791
905.223	0.0148812
905.301	0.0148713
905.379	0.0148811
905.457	0.0148515
905.535	0.0148393
905.613	0.0149443
905.692	0.0149007
905.770	0.0149653
905.848	0.0149348
905.926	0.0150155
906.004	0.0149217
906.082	0.0149544
906.160	0.0148497
906.238	0.0148668
906.317	0.0149702
906.395	0.0149323
906.473	0.0149289
906.551	0.0148830
906.629	0.0149611
906.707	0.0150562
906.785	0.0149621
906.863	0.0149437
906.942	0.0149794
907.020	0.0148415
907.098	0.0150513
907.176	0.0148919
907.254	0.0148891
907.332	0.0150275
907.410	0.0149291
907.488	0.0148318
907.567	0.0148691
907.645	0.0149320
907.723	0.0149039
907.801	0.0149835
907.879	0.0150466
907.957	0.0148945
908.035	0.0148834
908.113	0.0148378
908.192	0.0149464
908.270	0.0149285
908.348	0.0148483
908.426	0.0148410
908.504	0.0148495
908.582	0.0148676
908.660	0.0149062
908.738	0.0148056
908.817	0.0148169
908.895	0.0147627
908.973	0.0147947
909.051	0.0147617
909.129	0.0147392
909.207	0.0149429
909.285	0.0148799
909.363	0.0148822
909.442	0.0148370
909.520	0.0148746
909.598	0.0150013
909.676	0.0149950
909.754	0.0148687
909.832	0.0149982
909.910	0.0148421
909.988	0.0150124
910.067	0.0148714
910.145	0.0149496
910.223	0.0148937
910.301	0.0148386
910.379	0.0147707
910.457	0.0149649
910.535	0.0148879
910.613	0.0149597
910.692	0.0148812
910.770	0.0149757
910.848	0.0148096
910.926	0.0147552
911.004	0.0149125
911.082	0.0148893
911.160	0.0148125
911.238	0.0148986
911.317	0.0149197
911.395	0.0149580
911.473	0.0149310
911.551	0.0147967
911.629	0.0148915
911.707	0.0148885
911.785	0.0148503
911.863	0.0149241
911.942	0.0149036
912.020	0.0150705
912.098	0.0148466
912.176	0.0148569
912.254	0.0150294
912.332	0.0150009
912.410	0.0149094
912.488	0.0148387
912.567	0.0149049
912.645	0.0148374
912.723	0.0148753
912.801	0.0149232
912.879	0.0149982
912.957	0.0148622
913.035	0.0149396
913.113	0.0150597
913.192	0.0149628
913.270	0.0149232
913.348	0.0148163
913.426	0.0149769
913.504	0.0148694
913.582	0.0149389
913.660	0.0150366
913.738	0.0149609
913.817	0.0148863
913.895	0.0148359
913.973	0.0147656
914.051	0.0148593
914.129	0.0149817
914.207	0.0149097
914.285	0.0147684
914.363	0.0148315
914.442	0.0148788
914.520	0.0148084
914.598	0.0148547
914.676	0.0148083
914.754	0.0149112
914.832	0.0147475
914.910	0.0148605
914.988	0.0149097
915.067	0.0149821
915.145	0.0148656
915.223	0.0149049
915.301	0.0148550
915.379	0.0149008
915.457	0.0149435
915.535	0.0149409
915.613	0.0149210
915.692	0.0148756
915.770	0.0149004
915.848	0.0149185
915.926	0.0150413
916.004	0.0148911
916.082	0.0149352
916.160	0.0149930
916.238	0.0148756
916.317	0.0148500
916.395	0.0149334
916.473	0.0150175
916.551	0.0149143
916.629	0.0147960
916.707	0.0148520
916.785	0.0148878
916.863	0.0147916
916.942	0.0147679
917.020	0.0148112
917.098	0.0148090
917.176	0.0148177
917.254	0.0149169
917.332	0.0148969
917.410	0.0148350
917.488	0.0148980
917.567	0.0147220
917.645	0.0148587
917.723	0.0149294
917.801	0.0148433
917.879	0.0149457
917.957	0.0148074
918.035	0.0149198
918.113	0.0148077
918.192	0.0148469
918.270	0.0148318
918.348	0.0148825
918.426	0.0148550
918.504	0.0147491
918.582	0.0147647
918.660	0.0147816
918.738	0.0148577
918.817	0.0148580
918.895	0.0148599
918.973	0.0147388
919.051	0.0148281
919.129	0.0147368
919.207	0.0148112
919.285	0.0149688
919.363	0.0148605
919.442	0.0147193
919.520	0.0148883
919.598	0.0148685
919.676	0.0148302
919.754	0.0148749
919.832	0.0148219
919.910	0.0148088
