05/28/2022	13:49:30	Ver.	4.1	UNKNOWN
Optical Delay	599.995081	Delta X		0.078125	Sweeps	1	Scan Rate	0/0
Coordinates	Axis 1	NaN	Axis 2	NaN	Axis 3	NaN	Axis 4	NaN	Axis 5	NaN	Axis 6	0.000000
TX Power	0.000000	RX Power	0.000000

599.995	0.0148386
600.073	0.0149274
600.151	0.0148333
600.229	0.0147103
600.308	0.0148456
600.386	0.0150369
600.464	0.0149499
600.542	0.0148027
600.620	0.0149030
600.698	0.0149381
600.776	0.0148787
600.854	0.0148101
600.933	0.0148379
601.011	0.0148021
601.089	0.0147849
601.167	0.0148037
601.245	0.0148692
601.323	0.0146883
601.401	0.0148325
601.479	0.0148441
601.558	0.0148742
601.636	0.0148395
601.714	0.0149451
601.792	0.0149974
601.870	0.0148199
601.948	0.0147404
602.026	0.0148479
602.104	0.0148657
602.183	0.0147775
602.261	0.0148154
602.339	0.0148407
602.417	0.0147778
602.495	0.0148923
602.573	0.0149244
602.651	0.0149707
602.729	0.0147723
602.808	0.0147607
602.886	0.0147723
602.964	0.0148756
603.042	0.0147963
603.120	0.0148606
603.198	0.0148931
603.276	0.0149222
603.354	0.0148604
603.433	0.0148080
603.511	0.0149342
603.589	0.0149055
603.667	0.0148724
603.745	0.0148046
603.823	0.0147478
603.901	0.0146777
603.979	0.0147755
604.058	0.0149529
604.136	0.0149306
604.214	0.0149257
604.292	0.0147681
604.370	0.0148651
604.448	0.0148110
604.526	0.0148500
604.604	0.0150098
604.683	0.0149196
604.761	0.0147564
604.839	0.0148620
604.917	0.0148611
604.995	0.0148188
605.073	0.0148413
605.151	0.0148887
605.229	0.0148816
605.308	0.0148326
605.386	0.0148709
605.464	0.0148014
605.542	0.0147858
605.620	0.0148620
605.698	0.0148735
605.776	0.0148215
605.854	0.0149210
605.933	0.0147816
606.011	0.0148865
606.089	0.0148206
606.167	0.0149776
606.245	0.0148943
606.323	0.0148492
606.401	0.0148759
606.479	0.0148502
606.558	0.0145729
606.636	0.0149619
606.714	0.0149422
606.792	0.0149098
606.870	0.0147554
606.948	0.0149953
607.026	0.0148219
607.104	0.0148246
607.183	0.0149462
607.261	0.0149071
607.339	0.0148679
607.417	0.0149244
607.495	0.0148733
607.573	0.0147791
607.651	0.0148952
607.729	0.0149415
607.808	0.0149068
607.886	0.0147265
607.964	0.0149278
608.042	0.0147626
608.120	0.0148199
608.198	0.0148771
608.276	0.0148421
608.354	0.0148969
608.433	0.0149213
608.511	0.0148520
608.589	0.0148756
608.667	0.0148134
608.745	0.0148955
608.823	0.0147830
608.901	0.0147912
608.979	0.0149641
609.058	0.0148392
609.136	0.0147965
609.214	0.0149371
609.292	0.0147757
609.370	0.0147941
609.448	0.0149067
609.526	0.0149200
609.604	0.0148243
609.683	0.0148219
609.761	0.0149259
609.839	0.0150497
609.917	0.0149554
609.995	0.0149036
610.073	0.0148031
610.151	0.0148888
610.229	0.0148144
610.308	0.0148796
610.386	0.0148576
610.464	0.0148167
610.542	0.0148689
610.620	0.0149817
610.698	0.0149592
610.776	0.0149965
610.854	0.0147115
610.933	0.0148213
611.011	0.0149210
611.089	0.0149349
611.167	0.0148956
611.245	0.0147926
611.323	0.0149431
611.401	0.0148429
611.479	0.0147933
611.558	0.0147872
611.636	0.0148740
611.714	0.0148709
611.792	0.0148307
611.870	0.0147871
611.948	0.0148452
612.026	0.0149228
612.104	0.0149114
612.183	0.0148548
612.261	0.0148353
612.339	0.0147910
612.417	0.0149081
612.495	0.0149065
612.573	0.0148896
612.651	0.0149177
612.729	0.0149515
612.808	0.0148674
612.886	0.0147928
612.964	0.0148250
613.042	0.0148424
613.120	0.0148717
613.198	0.0149593
613.276	0.0149096
613.354	0.0149706
613.433	0.0149228
613.511	0.0149335
613.589	0.0149270
613.667	0.0148468
613.745	0.0148966
613.823	0.0147886
613.901	0.0149424
613.979	0.0150219
614.058	0.0150813
614.136	0.0150111
614.214	0.0148946
614.292	0.0148598
614.370	0.0148367
614.448	0.0147276
614.526	0.0149077
614.604	0.0148882
614.683	0.0149108
614.761	0.0148855
614.839	0.0149598
614.917	0.0149186
614.995	0.0148966
615.073	0.0149526
615.151	0.0147745
615.229	0.0148306
615.308	0.0148188
615.386	0.0148428
615.464	0.0148232
615.542	0.0149307
615.620	0.0150509
615.698	0.0149879
615.776	0.0149831
615.854	0.0149195
615.933	0.0149158
616.011	0.0148348
616.089	0.0149930
616.167	0.0147617
616.245	0.0148874
616.323	0.0149247
616.401	0.0148357
616.479	0.0148648
616.558	0.0148347
616.636	0.0147552
616.714	0.0149048
616.792	0.0148036
616.870	0.0147048
616.948	0.0148900
617.026	0.0148491
617.104	0.0149870
617.183	0.0147663
617.261	0.0148049
617.339	0.0149530
617.417	0.0149229
617.495	0.0148045
617.573	0.0148481
617.651	0.0148383
617.729	0.0148697
617.808	0.0148686
617.886	0.0148896
617.964	0.0148475
618.042	0.0146885
618.120	0.0147101
618.198	0.0150106
618.276	0.0148655
618.354	0.0148500
618.433	0.0148614
618.511	0.0147720
618.589	0.0148438
618.667	0.0149265
618.745	0.0148698
618.823	0.0149249
618.901	0.0147881
618.979	0.0148934
619.058	0.0147655
619.136	0.0148334
619.214	0.0148860
619.292	0.0150201
619.370	0.0149506
619.448	0.0148958
619.526	0.0148707
619.604	0.0147456
619.683	0.0147297
619.761	0.0146869
619.839	0.0148638
619.917	0.0148443
619.995	0.0148038
620.073	0.0148494
620.151	0.0149613
620.229	0.0149880
620.308	0.0148800
620.386	0.0147968
620.464	0.0149979
620.542	0.0148209
620.620	0.0149343
620.698	0.0149996
620.776	0.0149465
620.854	0.0148940
620.933	0.0148968
621.011	0.0148258
621.089	0.0148051
621.167	0.0147861
621.245	0.0148474
621.323	0.0147934
621.401	0.0148045
621.479	0.0148913
621.558	0.0149474
621.636	0.0149246
621.714	0.0148256
621.792	0.0149075
621.870	0.0147202
621.948	0.0149190
622.026	0.0148140
622.104	0.0148763
622.183	0.0147728
622.261	0.0148174
622.339	0.0148831
622.417	0.0148331
622.495	0.0148559
622.573	0.0149705
622.651	0.0147701
622.729	0.0148229
622.808	0.0148972
622.886	0.0148410
622.964	0.0147414
623.042	0.0148817
623.120	0.0149109
623.198	0.0149653
623.276	0.0147733
623.354	0.0147649
623.433	0.0147854
623.511	0.0148343
623.589	0.0148453
623.667	0.0148007
623.745	0.0147969
623.823	0.0148885
623.901	0.0148102
623.979	0.0148405
624.058	0.0147998
624.136	0.0148964
624.214	0.0147421
624.292	0.0150159
624.370	0.0148798
624.448	0.0147790
624.526	0.0148055
624.604	0.0147322
624.683	0.0148634
624.761	0.0148366
624.839	0.0148586
624.917	0.0148293
624.995	0.0148633
625.073	0.0147925
625.151	0.0148000
625.229	0.0147880
625.308	0.0149225
625.386	0.0148939
625.464	0.0148861
625.542	0.0149409
625.620	0.0148862
625.698	0.0147900
625.776	0.0148420
625.854	0.0146898
625.933	0.0147704
626.011	0.0148532
626.089	0.0147829
626.167	0.0147644
626.245	0.0148621
626.323	0.0146985
626.401	0.0148173
626.479	0.0147300
626.558	0.0148082
626.636	0.0147121
626.714	0.0147620
626.792	0.0149026
626.870	0.0149352
626.948	0.0147987
627.026	0.0149352
627.104	0.0149707
627.183	0.0148192
627.261	0.0149207
627.339	0.0149030
627.417	0.0148545
627.495	0.0148384
627.573	0.0147980
627.651	0.0149236
627.729	0.0148965
627.808	0.0148303
627.886	0.0148251
627.964	0.0148396
628.042	0.0147763
628.120	0.0148994
628.198	0.0148118
628.276	0.0147836
628.354	0.0147047
628.433	0.0149700
628.511	0.0148315
628.589	0.0149057
628.667	0.0149231
628.745	0.0147957
628.823	0.0148878
628.901	0.0149017
628.979	0.0147593
629.058	0.0148295
629.136	0.0148466
629.214	0.0149083
629.292	0.0149187
629.370	0.0149351
629.448	0.0147722
629.526	0.0148627
629.604	0.0149023
629.683	0.0149310
629.761	0.0147696
629.839	0.0148933
629.917	0.0150557
629.995	0.0149625
630.073	0.0147574
630.151	0.0146341
630.229	0.0148400
630.308	0.0149020
630.386	0.0147972
630.464	0.0148003
630.542	0.0148021
630.620	0.0148463
630.698	0.0147818
630.776	0.0149614
630.854	0.0149286
630.933	0.0148815
631.011	0.0147853
631.089	0.0149899
631.167	0.0149689
631.245	0.0149271
631.323	0.0147763
631.401	0.0147897
631.479	0.0148009
631.558	0.0148815
631.636	0.0148568
631.714	0.0148186
631.792	0.0148071
631.870	0.0147845
631.948	0.0147364
632.026	0.0148246
632.104	0.0148856
632.183	0.0148325
632.261	0.0149474
632.339	0.0149197
632.417	0.0148114
632.495	0.0148660
632.573	0.0147986
632.651	0.0148756
632.729	0.0148197
632.808	0.0148853
632.886	0.0148900
632.964	0.0149117
633.042	0.0148270
633.120	0.0148014
633.198	0.0148257
633.276	0.0148238
633.354	0.0147169
633.433	0.0147931
633.511	0.0150000
633.589	0.0149300
633.667	0.0148991
633.745	0.0149182
633.823	0.0148668
633.901	0.0148950
633.979	0.0147993
634.058	0.0148765
634.136	0.0148439
634.214	0.0149236
634.292	0.0148178
634.370	0.0148030
634.448	0.0148671
634.526	0.0148593
634.604	0.0148525
634.683	0.0148583
634.761	0.0148531
634.839	0.0149634
634.917	0.0149094
634.995	0.0149496
635.073	0.0147890
635.151	0.0148765
635.229	0.0148669
635.308	0.0148658
635.386	0.0148720
635.464	0.0148496
635.542	0.0148275
635.620	0.0149670
635.698	0.0147807
635.776	0.0148325
635.854	0.0148484
635.933	0.0148463
636.011	0.0149277
636.089	0.0149063
636.167	0.0149459
636.245	0.0147759
636.323	0.0148153
636.401	0.0147573
636.479	0.0148284
636.558	0.0148675
636.636	0.0147750
636.714	0.0147804
636.792	0.0148480
636.870	0.0147610
636.948	0.0149022
637.026	0.0149714
637.104	0.0148379
637.183	0.0149100
637.261	0.0147981
637.339	0.0147173
637.417	0.0148803
637.495	0.0148853
637.573	0.0147993
637.651	0.0147535
637.729	0.0150305
637.808	0.0148577
637.886	0.0148155
637.964	0.0148256
638.042	0.0147806
638.120	0.0147894
638.198	0.0149582
638.276	0.0148665
638.354	0.0149519
638.433	0.0149516
638.511	0.0149704
638.589	0.0149344
638.667	0.0149775
638.745	0.0148364
638.823	0.0147947
638.901	0.0147446
638.979	0.0148642
639.058	0.0147270
639.136	0.0148862
639.214	0.0149184
639.292	0.0148805
639.370	0.0148202
639.448	0.0147032
639.526	0.0146738
639.604	0.0147428
639.683	0.0147818
639.761	0.0148463
639.839	0.0146712
639.917	0.0147173
639.995	0.0149433
640.073	0.0148243
640.151	0.0147460
640.229	0.0148045
640.308	0.0147560
640.386	0.0148473
640.464	0.0149973
640.542	0.0148602
640.620	0.0146122
640.698	0.0148043
640.776	0.0148392
640.854	0.0148241
640.933	0.0146970
641.011	0.0146735
641.089	0.0148914
641.167	0.0148860
641.245	0.0149392
641.323	0.0147413
641.401	0.0147975
641.479	0.0148605
641.558	0.0149060
641.636	0.0148283
641.714	0.0146882
641.792	0.0148086
641.870	0.0149001
641.948	0.0148740
642.026	0.0149050
642.104	0.0149668
642.183	0.0149232
642.261	0.0147803
642.339	0.0146944
642.417	0.0148282
642.495	0.0148078
642.573	0.0147064
642.651	0.0147631
642.729	0.0148624
642.808	0.0147565
642.886	0.0148550
642.964	0.0148710
643.042	0.0149129
643.120	0.0148329
643.198	0.0148440
643.276	0.0147897
643.354	0.0148310
643.433	0.0148473
643.511	0.0148170
643.589	0.0149059
643.667	0.0147548
643.745	0.0149356
643.823	0.0148576
643.901	0.0149137
643.979	0.0148038
644.058	0.0147964
644.136	0.0149098
644.214	0.0148001
644.292	0.0148934
644.370	0.0147432
644.448	0.0147869
644.526	0.0148534
644.604	0.0147533
644.683	0.0148463
644.761	0.0148365
644.839	0.0148229
644.917	0.0147543
644.995	0.0148925
645.073	0.0148054
645.151	0.0148370
645.229	0.0148763
645.308	0.0147906
645.386	0.0148075
645.464	0.0147948
645.542	0.0149027
645.620	0.0148539
645.698	0.0147504
645.776	0.0148813
645.854	0.0148430
645.933	0.0148501
646.011	0.0147811
646.089	0.0148880
646.167	0.0148869
646.245	0.0149079
646.323	0.0148421
646.401	0.0148409
646.479	0.0147932
646.558	0.0148569
646.636	0.0148663
646.714	0.0148148
646.792	0.0148637
646.870	0.0148322
646.948	0.0147750
647.026	0.0149146
647.104	0.0147646
647.183	0.0147301
647.261	0.0148166
647.339	0.0148116
647.417	0.0148994
647.495	0.0148813
647.573	0.0147401
647.651	0.0149194
647.729	0.0147758
647.808	0.0148799
647.886	0.0147761
647.964	0.0148489
648.042	0.0148761
648.120	0.0148251
648.198	0.0148603
648.276	0.0147582
648.354	0.0146987
648.433	0.0148815
648.511	0.0148779
648.589	0.0147483
648.667	0.0148869
648.745	0.0149029
648.823	0.0147827
648.901	0.0148584
648.979	0.0147340
649.058	0.0147263
649.136	0.0149482
649.214	0.0148917
649.292	0.0149543
649.370	0.0147347
649.448	0.0147323
649.526	0.0148746
649.604	0.0149078
649.683	0.0149226
649.761	0.0147765
649.839	0.0147423
649.917	0.0147887
649.995	0.0148483
650.073	0.0146645
650.151	0.0148770
650.229	0.0148251
650.308	0.0148060
650.386	0.0149432
650.464	0.0147170
650.542	0.0147829
650.620	0.0146575
650.698	0.0148726
650.776	0.0147549
650.854	0.0147772
650.933	0.0148134
651.011	0.0148448
651.089	0.0149544
651.167	0.0147352
651.245	0.0147131
651.323	0.0147539
651.401	0.0149284
651.479	0.0148494
651.558	0.0148550
651.636	0.0148176
651.714	0.0147750
651.792	0.0148252
651.870	0.0148235
651.948	0.0147341
652.026	0.0148149
652.104	0.0147397
652.183	0.0147510
652.261	0.0149535
652.339	0.0147007
652.417	0.0148885
652.495	0.0147633
652.573	0.0148351
652.651	0.0148091
652.729	0.0147359
652.808	0.0147926
652.886	0.0147702
652.964	0.0147746
653.042	0.0148130
653.120	0.0147330
653.198	0.0147390
653.276	0.0147897
653.354	0.0147219
653.433	0.0147899
653.511	0.0148222
653.589	0.0149428
653.667	0.0147590
653.745	0.0148143
653.823	0.0148148
653.901	0.0147799
653.979	0.0150941
654.058	0.0147672
654.136	0.0147121
654.214	0.0147704
654.292	0.0147800
654.370	0.0146098
654.448	0.0149134
654.526	0.0148404
654.604	0.0147678
654.683	0.0148250
654.761	0.0148601
654.839	0.0148142
654.917	0.0148472
654.995	0.0148078
655.073	0.0148602
655.151	0.0147990
655.229	0.0147530
655.308	0.0148589
655.386	0.0148310
655.464	0.0147207
655.542	0.0146767
655.620	0.0148107
655.698	0.0148635
655.776	0.0146178
655.854	0.0148045
655.933	0.0148570
656.011	0.0149516
656.089	0.0147000
656.167	0.0148093
656.245	0.0149121
656.323	0.0147581
656.401	0.0147236
656.479	0.0148370
656.558	0.0148291
656.636	0.0148771
656.714	0.0148146
656.792	0.0147849
656.870	0.0147166
656.948	0.0146941
657.026	0.0148432
657.104	0.0149200
657.183	0.0147854
657.261	0.0147844
657.339	0.0148851
657.417	0.0149904
657.495	0.0148045
657.573	0.0147706
657.651	0.0146909
657.729	0.0149368
657.808	0.0148067
657.886	0.0147817
657.964	0.0148845
658.042	0.0148128
658.120	0.0148366
658.198	0.0148689
658.276	0.0148415
658.354	0.0148014
658.433	0.0147870
658.511	0.0148485
658.589	0.0149632
658.667	0.0148595
658.745	0.0147979
658.823	0.0148446
658.901	0.0147637
658.979	0.0148431
659.058	0.0148269
659.136	0.0148202
659.214	0.0148016
659.292	0.0147706
659.370	0.0147256
659.448	0.0147711
659.526	0.0147007
659.604	0.0146962
659.683	0.0147777
659.761	0.0149031
659.839	0.0148950
659.917	0.0148532
659.995	0.0147795
660.073	0.0149045
660.151	0.0149126
660.229	0.0149633
660.308	0.0149174
660.386	0.0148012
660.464	0.0147982
660.542	0.0147890
660.620	0.0147926
660.698	0.0149522
660.776	0.0148067
660.854	0.0148851
660.933	0.0148352
661.011	0.0147683
661.089	0.0148780
661.167	0.0146986
661.245	0.0147292
661.323	0.0148734
661.401	0.0148756
661.479	0.0147780
661.558	0.0147988
661.636	0.0147865
661.714	0.0147833
661.792	0.0146962
661.870	0.0148275
661.948	0.0147792
662.026	0.0148530
662.104	0.0149538
662.183	0.0148337
662.261	0.0149153
662.339	0.0148269
662.417	0.0146710
662.495	0.0149654
662.573	0.0148486
662.651	0.0147243
662.729	0.0147334
662.808	0.0147810
662.886	0.0149332
662.964	0.0148349
663.042	0.0146792
663.120	0.0150242
663.198	0.0148327
663.276	0.0147665
663.354	0.0147299
663.433	0.0148505
663.511	0.0149316
663.589	0.0148736
663.667	0.0148850
663.745	0.0148644
663.823	0.0148696
663.901	0.0148576
663.979	0.0149097
664.058	0.0148606
664.136	0.0146468
664.214	0.0147084
664.292	0.0148355
664.370	0.0148350
664.448	0.0147913
664.526	0.0147439
664.604	0.0148353
664.683	0.0148067
664.761	0.0146342
664.839	0.0148203
664.917	0.0148260
664.995	0.0148102
665.073	0.0148647
665.151	0.0149152
665.229	0.0148266
665.308	0.0148505
665.386	0.0147462
665.464	0.0149162
665.542	0.0149738
665.620	0.0150180
665.698	0.0148134
665.776	0.0148318
665.854	0.0147618
665.933	0.0147752
666.011	0.0149148
666.089	0.0148704
666.167	0.0148547
666.245	0.0149262
666.323	0.0147878
666.401	0.0147958
666.479	0.0148643
666.558	0.0147425
666.636	0.0147854
666.714	0.0147849
666.792	0.0148110
666.870	0.0148077
666.948	0.0148345
667.026	0.0149088
667.104	0.0148180
667.183	0.0148494
667.261	0.0149868
667.339	0.0149243
667.417	0.0147279
667.495	0.0148701
667.573	0.0148448
667.651	0.0149138
667.729	0.0148765
667.808	0.0147559
667.886	0.0147980
667.964	0.0148591
668.042	0.0148557
668.120	0.0148427
668.198	0.0151167
668.276	0.0148759
668.354	0.0147223
668.433	0.0149788
668.511	0.0148329
668.589	0.0148524
668.667	0.0147588
668.745	0.0148191
668.823	0.0148125
668.901	0.0148978
668.979	0.0149065
669.058	0.0147530
669.136	0.0147698
669.214	0.0148238
669.292	0.0148076
669.370	0.0148863
669.448	0.0148449
669.526	0.0147971
669.604	0.0147655
669.683	0.0147916
669.761	0.0147856
669.839	0.0148823
669.917	0.0148227
669.995	0.0147235
670.073	0.0148369
670.151	0.0147871
670.229	0.0148521
670.308	0.0147843
670.386	0.0148556
670.464	0.0149310
670.542	0.0149244
670.620	0.0147736
670.698	0.0148405
670.776	0.0149158
670.854	0.0147889
670.933	0.0148693
671.011	0.0148855
671.089	0.0148296
671.167	0.0148284
671.245	0.0147873
671.323	0.0148575
671.401	0.0149050
671.479	0.0147538
671.558	0.0148076
671.636	0.0148392
671.714	0.0148171
671.792	0.0149261
671.870	0.0148576
671.948	0.0147542
672.026	0.0147681
672.104	0.0148233
672.183	0.0148733
672.261	0.0147942
672.339	0.0148296
672.417	0.0147551
672.495	0.0149773
672.573	0.0148611
672.651	0.0148468
672.729	0.0148175
672.808	0.0148966
672.886	0.0148196
672.964	0.0148160
673.042	0.0149107
673.120	0.0147955
673.198	0.0148619
673.276	0.0148818
673.354	0.0147953
673.433	0.0148303
673.511	0.0148286
673.589	0.0147401
673.667	0.0149046
673.745	0.0149416
673.823	0.0148076
673.901	0.0148875
673.979	0.0148217
674.058	0.0147004
674.136	0.0149377
674.214	0.0148267
674.292	0.0148157
674.370	0.0148892
674.448	0.0148202
674.526	0.0148316
674.604	0.0148100
674.683	0.0149391
674.761	0.0147899
674.839	0.0149020
674.917	0.0148289
674.995	0.0148150
675.073	0.0149376
675.151	0.0148707
675.229	0.0148956
675.308	0.0149210
675.386	0.0148315
675.464	0.0148529
675.542	0.0149310
675.620	0.0149131
675.698	0.0149084
675.776	0.0148650
675.854	0.0149774
675.933	0.0149342
676.011	0.0148077
676.089	0.0148939
676.167	0.0147729
676.245	0.0149657
676.323	0.0148243
676.401	0.0148864
676.479	0.0149055
676.558	0.0147751
676.636	0.0148276
676.714	0.0149522
676.792	0.0148837
676.870	0.0148380
676.948	0.0148309
677.026	0.0148714
677.104	0.0148166
677.183	0.0148490
677.261	0.0149504
677.339	0.0148367
677.417	0.0147905
677.495	0.0150021
677.573	0.0148003
677.651	0.0147711
677.729	0.0148707
677.808	0.0150356
677.886	0.0149252
677.964	0.0147968
678.042	0.0147710
678.120	0.0148226
678.198	0.0148611
678.276	0.0148959
678.354	0.0147713
678.433	0.0147192
678.511	0.0147588
678.589	0.0148798
678.667	0.0148421
678.745	0.0148758
678.823	0.0148441
678.901	0.0148543
678.979	0.0147742
679.058	0.0148479
679.136	0.0147907
679.214	0.0149091
679.292	0.0148115
679.370	0.0147291
679.448	0.0148763
679.526	0.0149702
679.604	0.0148051
679.683	0.0146611
679.761	0.0147362
679.839	0.0147804
679.917	0.0148302
679.995	0.0147556
680.073	0.0147057
680.151	0.0148797
680.229	0.0149468
680.308	0.0146974
680.386	0.0148247
680.464	0.0148473
680.542	0.0148096
680.620	0.0148602
680.698	0.0147183
680.776	0.0148660
680.854	0.0147007
680.933	0.0148108
681.011	0.0147496
681.089	0.0146581
681.167	0.0147208
681.245	0.0148241
681.323	0.0147960
681.401	0.0146861
681.479	0.0147195
681.558	0.0147413
681.636	0.0147171
681.714	0.0147821
681.792	0.0149200
681.870	0.0149058
681.948	0.0148199
682.026	0.0147333
682.104	0.0146812
682.183	0.0149236
682.261	0.0148531
682.339	0.0147330
682.417	0.0146920
682.495	0.0147581
682.573	0.0148392
682.651	0.0148108
682.729	0.0148867
682.808	0.0147960
682.886	0.0149308
682.964	0.0147430
683.042	0.0147470
683.120	0.0149409
683.198	0.0147304
683.276	0.0147705
683.354	0.0148338
683.433	0.0147296
683.511	0.0145900
683.589	0.0147158
683.667	0.0147206
683.745	0.0147061
683.823	0.0147256
683.901	0.0147384
683.979	0.0147887
684.058	0.0147728
684.136	0.0148714
684.214	0.0148613
684.292	0.0148225
684.370	0.0148198
684.448	0.0147329
684.526	0.0147505
684.604	0.0149501
684.683	0.0147717
684.761	0.0146998
684.839	0.0149477
684.917	0.0148090
684.995	0.0147575
685.073	0.0147081
685.151	0.0147797
685.229	0.0148957
685.308	0.0149601
685.386	0.0148808
685.464	0.0150035
685.542	0.0148497
685.620	0.0149080
685.698	0.0147598
685.776	0.0149477
685.854	0.0149693
685.933	0.0148786
686.011	0.0149332
686.089	0.0148324
686.167	0.0148138
686.245	0.0150559
686.323	0.0149370
686.401	0.0149679
686.479	0.0148716
686.558	0.0149061
686.636	0.0148994
686.714	0.0149828
686.792	0.0149665
686.870	0.0149400
686.948	0.0148535
687.026	0.0149448
687.104	0.0149572
687.183	0.0149654
687.261	0.0149278
687.339	0.0149715
687.417	0.0150244
687.495	0.0149972
687.573	0.0149010
687.651	0.0149942
687.729	0.0148280
687.808	0.0148446
687.886	0.0149627
687.964	0.0149847
688.042	0.0148626
688.120	0.0149507
688.198	0.0150716
688.276	0.0149059
688.354	0.0149529
688.433	0.0148779
688.511	0.0149266
688.589	0.0149555
688.667	0.0149522
688.745	0.0149683
688.823	0.0148750
688.901	0.0148820
688.979	0.0149406
689.058	0.0150092
689.136	0.0148518
689.214	0.0148458
689.292	0.0148815
689.370	0.0150353
689.448	0.0149538
689.526	0.0150500
689.604	0.0148338
689.683	0.0148906
689.761	0.0148566
689.839	0.0148093
689.917	0.0149105
689.995	0.0148590
690.073	0.0150172
690.151	0.0148861
690.229	0.0148949
690.308	0.0149335
690.386	0.0148447
690.464	0.0148398
690.542	0.0148442
690.620	0.0148776
690.698	0.0148128
690.776	0.0148721
690.854	0.0148499
690.933	0.0148283
691.011	0.0148306
691.089	0.0148636
691.167	0.0149339
691.245	0.0146917
691.323	0.0148095
691.401	0.0148116
691.479	0.0146970
691.558	0.0146763
691.636	0.0146817
691.714	0.0146438
691.792	0.0145603
691.870	0.0147028
691.948	0.0147117
692.026	0.0147116
692.104	0.0148267
692.183	0.0147363
692.261	0.0148428
692.339	0.0148397
692.417	0.0148320
692.495	0.0147733
692.573	0.0147270
692.651	0.0148912
692.729	0.0148171
692.808	0.0147948
692.886	0.0146039
692.964	0.0146826
693.042	0.0147642
693.120	0.0148507
693.198	0.0148235
693.276	0.0147546
693.354	0.0147369
693.433	0.0148155
693.511	0.0148133
693.589	0.0146883
693.667	0.0148492
693.745	0.0147680
693.823	0.0148011
693.901	0.0149047
693.979	0.0148639
694.058	0.0147581
694.136	0.0147422
694.214	0.0146690
694.292	0.0149582
694.370	0.0149667
694.448	0.0148161
694.526	0.0146970
694.604	0.0149026
694.683	0.0149604
694.761	0.0147982
694.839	0.0149212
694.917	0.0148665
694.995	0.0147929
695.073	0.0149692
695.151	0.0147552
695.229	0.0148048
695.308	0.0147330
695.386	0.0148994
695.464	0.0148103
695.542	0.0147507
695.620	0.0148717
695.698	0.0149030
695.776	0.0149140
695.854	0.0148269
695.933	0.0148715
696.011	0.0149673
696.089	0.0148067
696.167	0.0149561
696.245	0.0148991
696.323	0.0150519
696.401	0.0148856
696.479	0.0149918
696.558	0.0149294
696.636	0.0147984
696.714	0.0148227
696.792	0.0149215
696.870	0.0148645
696.948	0.0149100
697.026	0.0147697
697.104	0.0149275
697.183	0.0149763
697.261	0.0148413
697.339	0.0149371
697.417	0.0148899
697.495	0.0147800
697.573	0.0149046
697.651	0.0149507
697.729	0.0148832
697.808	0.0149592
697.886	0.0148976
697.964	0.0147488
698.042	0.0149362
698.120	0.0149335
698.198	0.0148331
698.276	0.0147989
698.354	0.0147375
698.433	0.0147330
698.511	0.0148034
698.589	0.0148505
698.667	0.0147235
698.745	0.0148269
698.823	0.0148603
698.901	0.0148512
698.979	0.0148784
699.058	0.0148615
699.136	0.0148419
699.214	0.0149051
699.292	0.0149311
699.370	0.0148837
699.448	0.0149446
699.526	0.0149557
699.604	0.0149799
699.683	0.0149083
699.761	0.0149719
699.839	0.0149095
699.917	0.0149368
699.995	0.0148350
700.073	0.0147168
700.151	0.0148261
700.229	0.0148864
700.308	0.0147823
700.386	0.0146117
700.464	0.0147938
700.542	0.0147337
700.620	0.0147308
700.698	0.0148781
700.776	0.0148262
700.854	0.0146983
700.933	0.0148848
701.011	0.0146733
701.089	0.0146115
701.167	0.0146246
701.245	0.0148515
701.323	0.0147881
701.401	0.0147437
701.479	0.0146656
701.558	0.0147833
701.636	0.0147878
701.714	0.0147700
701.792	0.0148831
701.870	0.0148219
701.948	0.0148417
702.026	0.0148960
702.104	0.0148211
702.183	0.0148903
702.261	0.0150309
702.339	0.0150130
702.417	0.0148594
702.495	0.0148027
702.573	0.0150325
702.651	0.0149464
702.729	0.0148827
702.808	0.0149739
702.886	0.0148567
702.964	0.0147197
703.042	0.0148935
703.120	0.0147999
703.198	0.0148342
703.276	0.0147391
703.354	0.0146709
703.433	0.0145911
703.511	0.0146683
703.589	0.0145118
703.667	0.0146236
703.745	0.0147057
703.823	0.0147099
703.901	0.0147216
703.979	0.0146558
704.058	0.0146768
704.136	0.0147076
704.214	0.0146686
704.292	0.0146698
704.370	0.0148627
704.448	0.0147896
704.526	0.0147480
704.604	0.0148277
704.683	0.0147753
704.761	0.0149170
704.839	0.0148460
704.917	0.0148763
704.995	0.0147013
705.073	0.0148752
705.151	0.0148804
705.229	0.0148408
705.308	0.0146605
705.386	0.0149157
705.464	0.0147796
705.542	0.0147450
705.620	0.0149010
705.698	0.0147478
705.776	0.0148865
705.854	0.0149413
705.933	0.0149600
706.011	0.0148184
706.089	0.0148133
706.167	0.0150260
706.245	0.0148987
706.323	0.0148594
706.401	0.0148621
706.479	0.0149027
706.558	0.0148685
706.636	0.0147726
706.714	0.0148571
706.792	0.0147459
706.870	0.0148334
706.948	0.0148321
707.026	0.0148946
707.104	0.0147040
707.183	0.0147500
707.261	0.0149617
707.339	0.0148464
707.417	0.0149160
707.495	0.0151335
707.573	0.0150869
707.651	0.0150784
707.729	0.0151118
707.808	0.0150561
707.886	0.0150087
707.964	0.0151138
708.042	0.0151151
708.120	0.0149889
708.198	0.0149786
708.276	0.0149172
708.354	0.0149881
708.433	0.0148883
708.511	0.0147981
708.589	0.0147216
708.667	0.0148292
708.745	0.0146996
708.823	0.0146526
708.901	0.0145996
708.979	0.0146407
709.058	0.0144049
709.136	0.0145638
709.214	0.0144804
709.292	0.0144920
709.370	0.0145995
709.448	0.0146504
709.526	0.0145322
709.604	0.0147636
709.683	0.0147340
709.761	0.0146970
709.839	0.0146754
709.917	0.0147239
709.995	0.0148805
710.073	0.0147375
710.151	0.0148431
710.229	0.0149065
710.308	0.0147997
710.386	0.0150636
710.464	0.0150475
710.542	0.0148694
710.620	0.0149814
710.698	0.0150053
710.776	0.0148930
710.854	0.0148853
710.933	0.0150555
711.011	0.0148955
711.089	0.0149508
711.167	0.0149824
711.245	0.0149100
711.323	0.0150294
711.401	0.0150343
711.479	0.0150066
711.558	0.0151003
711.636	0.0149996
711.714	0.0150841
711.792	0.0150350
711.870	0.0150135
711.948	0.0150635
712.026	0.0149506
712.104	0.0149137
712.183	0.0150858
712.261	0.0149109
712.339	0.0148013
712.417	0.0147769
712.495	0.0149082
712.573	0.0147644
712.651	0.0147373
712.729	0.0149083
712.808	0.0146621
712.886	0.0147451
712.964	0.0147475
713.042	0.0147423
713.120	0.0148141
713.198	0.0148794
713.276	0.0148675
713.354	0.0147786
713.433	0.0146872
713.511	0.0149715
713.589	0.0149402
713.667	0.0147948
713.745	0.0149092
713.823	0.0149184
713.901	0.0148385
713.979	0.0149548
714.058	0.0149979
714.136	0.0149387
714.214	0.0149187
714.292	0.0148232
714.370	0.0148302
714.448	0.0148958
714.526	0.0149609
714.604	0.0147778
714.683	0.0147721
714.761	0.0147285
714.839	0.0147988
714.917	0.0146474
714.995	0.0147781
715.073	0.0148244
715.151	0.0145599
715.229	0.0146076
715.308	0.0146821
715.386	0.0146983
715.464	0.0146754
715.542	0.0146134
715.620	0.0148399
715.698	0.0147727
715.776	0.0148978
715.854	0.0147814
715.933	0.0147426
716.011	0.0147246
716.089	0.0148985
716.167	0.0148667
716.245	0.0148041
716.323	0.0149015
716.401	0.0150243
716.479	0.0148935
716.558	0.0147902
716.636	0.0148358
716.714	0.0149140
716.792	0.0149913
716.870	0.0148104
716.948	0.0149233
717.026	0.0147335
717.104	0.0147805
717.183	0.0148764
717.261	0.0148066
717.339	0.0147647
717.417	0.0146436
717.495	0.0147597
717.573	0.0147330
717.651	0.0146805
717.729	0.0148333
717.808	0.0147503
717.886	0.0147009
717.964	0.0147307
718.042	0.0147311
718.120	0.0147401
718.198	0.0148465
718.276	0.0147531
718.354	0.0147266
718.433	0.0148293
718.511	0.0147659
718.589	0.0146267
718.667	0.0148020
718.745	0.0147096
718.823	0.0148190
718.901	0.0147148
718.979	0.0147047
719.058	0.0147694
719.136	0.0147842
719.214	0.0147397
719.292	0.0147367
719.370	0.0147135
719.448	0.0148536
719.526	0.0147672
719.604	0.0148093
719.683	0.0147989
719.761	0.0147971
719.839	0.0148769
719.917	0.0149626
719.995	0.0147858
720.073	0.0149140
720.151	0.0148015
720.229	0.0148505
720.308	0.0148814
720.386	0.0148634
720.464	0.0148392
720.542	0.0148038
720.620	0.0148937
720.698	0.0148374
720.776	0.0147724
720.854	0.0148845
720.933	0.0148833
721.011	0.0147939
721.089	0.0148669
721.167	0.0148036
721.245	0.0148625
721.323	0.0149264
721.401	0.0148648
721.479	0.0147990
721.558	0.0148577
721.636	0.0148531
721.714	0.0147813
721.792	0.0147624
721.870	0.0148045
721.948	0.0148406
722.026	0.0147343
722.104	0.0146385
722.183	0.0147694
722.261	0.0149011
722.339	0.0146895
722.417	0.0147807
722.495	0.0147967
722.573	0.0147370
722.651	0.0148022
722.729	0.0147963
722.808	0.0148792
722.886	0.0149166
722.964	0.0147419
723.042	0.0147513
723.120	0.0147407
723.198	0.0148104
723.276	0.0147896
723.354	0.0146584
723.433	0.0146574
723.511	0.0146725
723.589	0.0147972
723.667	0.0149068
723.745	0.0147728
723.823	0.0147625
723.901	0.0147788
723.979	0.0147875
724.058	0.0148975
724.136	0.0148038
724.214	0.0147149
724.292	0.0146880
724.370	0.0147895
724.448	0.0147992
724.526	0.0148377
724.604	0.0148718
724.683	0.0147394
724.761	0.0147883
724.839	0.0147414
724.917	0.0149136
724.995	0.0149390
725.073	0.0147355
725.151	0.0147360
725.229	0.0149657
725.308	0.0149201
725.386	0.0148868
725.464	0.0149479
725.542	0.0149833
725.620	0.0149605
725.698	0.0149416
725.776	0.0150378
725.854	0.0150381
725.933	0.0150214
726.011	0.0149712
726.089	0.0148745
726.167	0.0150273
726.245	0.0149452
726.323	0.0150212
726.401	0.0148509
726.479	0.0148636
726.558	0.0148419
726.636	0.0147944
726.714	0.0149654
726.792	0.0147749
726.870	0.0148798
726.948	0.0147820
727.026	0.0147720
727.104	0.0148972
727.183	0.0147540
727.261	0.0147504
727.339	0.0147160
727.417	0.0146678
727.495	0.0147834
727.573	0.0147387
727.651	0.0147546
727.729	0.0147103
727.808	0.0147436
727.886	0.0147466
727.964	0.0148729
728.042	0.0148070
728.120	0.0147794
728.198	0.0147556
728.276	0.0147886
728.354	0.0148144
728.433	0.0148535
728.511	0.0149255
728.589	0.0149015
728.667	0.0148601
728.745	0.0149348
728.823	0.0147838
728.901	0.0148167
728.979	0.0148713
729.058	0.0148771
729.136	0.0149200
729.214	0.0148849
729.292	0.0147197
729.370	0.0149123
729.448	0.0149738
729.526	0.0148539
729.604	0.0148212
729.683	0.0147696
729.761	0.0149625
729.839	0.0150946
729.917	0.0148602
729.995	0.0148302
730.073	0.0149174
730.151	0.0148409
730.229	0.0149503
730.308	0.0149609
730.386	0.0149195
730.464	0.0149070
730.542	0.0149988
730.620	0.0149860
730.698	0.0149175
730.776	0.0148712
730.854	0.0148999
730.933	0.0148975
731.011	0.0148925
731.089	0.0147938
731.167	0.0148237
731.245	0.0147621
731.323	0.0147711
731.401	0.0147451
731.479	0.0148219
731.558	0.0147202
731.636	0.0147749
731.714	0.0146996
731.792	0.0146355
731.870	0.0147494
731.948	0.0148192
732.026	0.0147578
732.104	0.0148119
732.183	0.0147849
732.261	0.0147076
732.339	0.0148071
732.417	0.0148888
732.495	0.0147920
732.573	0.0148195
732.651	0.0148241
732.729	0.0147308
732.808	0.0146114
732.886	0.0147128
732.964	0.0147177
733.042	0.0148190
733.120	0.0148184
733.198	0.0146928
733.276	0.0147990
733.354	0.0146315
733.433	0.0146902
733.511	0.0148163
733.589	0.0147641
733.667	0.0148087
733.745	0.0146749
733.823	0.0148032
733.901	0.0147736
733.979	0.0148431
734.058	0.0148020
734.136	0.0149558
734.214	0.0149870
734.292	0.0150022
734.370	0.0150596
734.448	0.0149373
734.526	0.0149618
734.604	0.0149492
734.683	0.0150217
734.761	0.0150481
734.839	0.0150294
734.917	0.0149442
734.995	0.0149746
735.073	0.0150626
735.151	0.0149544
735.229	0.0149548
735.308	0.0149927
735.386	0.0149716
735.464	0.0148537
735.542	0.0148557
735.620	0.0148944
735.698	0.0147912
735.776	0.0149622
735.854	0.0150045
735.933	0.0148862
736.011	0.0149708
736.089	0.0149576
736.167	0.0150031
736.245	0.0150256
736.323	0.0149011
736.401	0.0148456
736.479	0.0148999
736.558	0.0149446
736.636	0.0148615
736.714	0.0149001
736.792	0.0149741
736.870	0.0148034
736.948	0.0148476
737.026	0.0147330
737.104	0.0147747
737.183	0.0147980
737.261	0.0148788
737.339	0.0148621
737.417	0.0146741
737.495	0.0148695
737.573	0.0148505
737.651	0.0147248
737.729	0.0148294
737.808	0.0147958
737.886	0.0148294
737.964	0.0148623
738.042	0.0147011
738.120	0.0148212
738.198	0.0149290
738.276	0.0148924
738.354	0.0148515
738.433	0.0149351
738.511	0.0148344
738.589	0.0149337
738.667	0.0148929
738.745	0.0149633
738.823	0.0148498
738.901	0.0149554
738.979	0.0149435
739.058	0.0149496
739.136	0.0149525
739.214	0.0149624
739.292	0.0149725
739.370	0.0148419
739.448	0.0149979
739.526	0.0148389
739.604	0.0149926
739.683	0.0147745
739.761	0.0149003
739.839	0.0148636
739.917	0.0146269
739.995	0.0147791
740.073	0.0147555
740.151	0.0146932
740.229	0.0147665
740.308	0.0148068
740.386	0.0149470
740.464	0.0149259
740.542	0.0147682
740.620	0.0147544
740.698	0.0149326
740.776	0.0149200
740.854	0.0149638
740.933	0.0147758
741.011	0.0146965
741.089	0.0146737
741.167	0.0148337
741.245	0.0149442
741.323	0.0148478
741.401	0.0148536
741.479	0.0148653
741.558	0.0147362
741.636	0.0147942
741.714	0.0148696
741.792	0.0146519
741.870	0.0147665
741.948	0.0147030
742.026	0.0147825
742.104	0.0146674
742.183	0.0146653
742.261	0.0146376
742.339	0.0146848
742.417	0.0146754
742.495	0.0147439
742.573	0.0145947
742.651	0.0146954
742.729	0.0148602
742.808	0.0146873
742.886	0.0147152
742.964	0.0146831
743.042	0.0145788
743.120	0.0147025
743.198	0.0148233
743.276	0.0148843
743.354	0.0148219
743.433	0.0148879
743.511	0.0148156
743.589	0.0147667
743.667	0.0149079
743.745	0.0147849
743.823	0.0150259
743.901	0.0148274
743.979	0.0148911
744.058	0.0148712
744.136	0.0147140
744.214	0.0148671
744.292	0.0149187
744.370	0.0147157
744.448	0.0147557
744.526	0.0148452
744.604	0.0149332
744.683	0.0149652
744.761	0.0147719
744.839	0.0147650
744.917	0.0148149
744.995	0.0147264
745.073	0.0147836
745.151	0.0148358
745.229	0.0146291
745.308	0.0146737
745.386	0.0148565
745.464	0.0147478
745.542	0.0147256
745.620	0.0146795
745.698	0.0147028
745.776	0.0148401
745.854	0.0147958
745.933	0.0147465
746.011	0.0148225
746.089	0.0149229
746.167	0.0148288
746.245	0.0148045
746.323	0.0147578
746.401	0.0147344
746.479	0.0148785
746.558	0.0148284
746.636	0.0148843
746.714	0.0148125
746.792	0.0149547
746.870	0.0148291
746.948	0.0147756
747.026	0.0148525
747.104	0.0147472
747.183	0.0148568
747.261	0.0148378
747.339	0.0146622
747.417	0.0149078
747.495	0.0147041
747.573	0.0147260
747.651	0.0146153
747.729	0.0149516
747.808	0.0147878
747.886	0.0147000
747.964	0.0148469
748.042	0.0147326
748.120	0.0148123
748.198	0.0149858
748.276	0.0148773
748.354	0.0148626
748.433	0.0148830
748.511	0.0148495
748.589	0.0148132
748.667	0.0148017
748.745	0.0148911
748.823	0.0148551
748.901	0.0148654
748.979	0.0148325
749.058	0.0147363
749.136	0.0148798
749.214	0.0147952
749.292	0.0147921
749.370	0.0147234
749.448	0.0147372
749.526	0.0148431
749.604	0.0148418
749.683	0.0147236
749.761	0.0148083
749.839	0.0149664
749.917	0.0148318
749.995	0.0147488
750.073	0.0149135
750.151	0.0148591
750.229	0.0148347
750.308	0.0147861
750.386	0.0148071
750.464	0.0148475
750.542	0.0147938
750.620	0.0147795
750.698	0.0147733
750.776	0.0149090
750.854	0.0148499
750.933	0.0147289
751.011	0.0148715
751.089	0.0147978
751.167	0.0147819
751.245	0.0148216
751.323	0.0148261
751.401	0.0148454
751.479	0.0149457
751.558	0.0149140
751.636	0.0147226
751.714	0.0148386
751.792	0.0148038
751.870	0.0147575
751.948	0.0148566
752.026	0.0147999
752.104	0.0147311
752.183	0.0149139
752.261	0.0146568
752.339	0.0146569
752.417	0.0147145
752.495	0.0148292
752.573	0.0147879
752.651	0.0147362
752.729	0.0148429
752.808	0.0149438
752.886	0.0148849
752.964	0.0147419
753.042	0.0148143
753.120	0.0148097
753.198	0.0147427
753.276	0.0147256
753.354	0.0149656
753.433	0.0148753
753.511	0.0148385
753.589	0.0147871
753.667	0.0148228
753.745	0.0147884
753.823	0.0146780
753.901	0.0148079
753.979	0.0146809
754.058	0.0148009
754.136	0.0147971
754.214	0.0148626
754.292	0.0146371
754.370	0.0147509
754.448	0.0147431
754.526	0.0146220
754.604	0.0147413
754.683	0.0149198
754.761	0.0147545
754.839	0.0148298
754.917	0.0148859
754.995	0.0149026
755.073	0.0148746
755.151	0.0147142
755.229	0.0147424
755.308	0.0148245
755.386	0.0147212
755.464	0.0148341
755.542	0.0148706
755.620	0.0147153
755.698	0.0147578
755.776	0.0147823
755.854	0.0148428
755.933	0.0149679
756.011	0.0149078
756.089	0.0147266
756.167	0.0148802
756.245	0.0148371
756.323	0.0148711
756.401	0.0147889
756.479	0.0147596
756.558	0.0148497
756.636	0.0147189
756.714	0.0148389
756.792	0.0148976
756.870	0.0147669
756.948	0.0147359
757.026	0.0148125
757.104	0.0147588
757.183	0.0147781
757.261	0.0147943
757.339	0.0147873
757.417	0.0148325
757.495	0.0147678
757.573	0.0147805
757.651	0.0148174
757.729	0.0147747
757.808	0.0147002
757.886	0.0148032
757.964	0.0147083
758.042	0.0147429
758.120	0.0148829
758.198	0.0148685
758.276	0.0148055
758.354	0.0148484
758.433	0.0148939
758.511	0.0149398
758.589	0.0147459
758.667	0.0149180
758.745	0.0149681
758.823	0.0148997
758.901	0.0148892
758.979	0.0149941
759.058	0.0149586
759.136	0.0148350
759.214	0.0148638
759.292	0.0148308
759.370	0.0149051
759.448	0.0147932
759.526	0.0149065
759.604	0.0148729
759.683	0.0148708
759.761	0.0149022
759.839	0.0147813
759.917	0.0149306
759.995	0.0147849
760.073	0.0148265
760.151	0.0148682
760.229	0.0148047
760.308	0.0150575
760.386	0.0148610
760.464	0.0148432
760.542	0.0148985
760.620	0.0150201
760.698	0.0148827
760.776	0.0148348
760.854	0.0150155
760.933	0.0149626
761.011	0.0149440
761.089	0.0149288
761.167	0.0149719
761.245	0.0149151
761.323	0.0149092
761.401	0.0147993
761.479	0.0149245
761.558	0.0148804
761.636	0.0148660
761.714	0.0149477
761.792	0.0147630
761.870	0.0148229
761.948	0.0148544
762.026	0.0149414
762.104	0.0146605
762.183	0.0149371
762.261	0.0149166
762.339	0.0147443
762.417	0.0148902
762.495	0.0148952
762.573	0.0148759
762.651	0.0149142
762.729	0.0148581
762.808	0.0149567
762.886	0.0148885
762.964	0.0148516
763.042	0.0147828
763.120	0.0148893
763.198	0.0148674
763.276	0.0148919
763.354	0.0148972
763.433	0.0149149
763.511	0.0148032
763.589	0.0147344
763.667	0.0147826
763.745	0.0149748
763.823	0.0147372
763.901	0.0148746
763.979	0.0149699
764.058	0.0149001
764.136	0.0148116
764.214	0.0149129
764.292	0.0147047
764.370	0.0148093
764.448	0.0148026
764.526	0.0148044
764.604	0.0148802
764.683	0.0149171
764.761	0.0147065
764.839	0.0146539
764.917	0.0147973
764.995	0.0149162
765.073	0.0149235
765.151	0.0148579
765.229	0.0147126
765.308	0.0149232
765.386	0.0149135
765.464	0.0148837
765.542	0.0147355
765.620	0.0147495
765.698	0.0147494
765.776	0.0149544
765.854	0.0147377
765.933	0.0149043
766.011	0.0148491
766.089	0.0149750
766.167	0.0148113
766.245	0.0148823
766.323	0.0146747
766.401	0.0147366
766.479	0.0148608
766.558	0.0148097
766.636	0.0148579
766.714	0.0147845
766.792	0.0148570
766.870	0.0148249
766.948	0.0146988
767.026	0.0146992
767.104	0.0148144
767.183	0.0147552
767.261	0.0148904
767.339	0.0147899
767.417	0.0147419
767.495	0.0146974
767.573	0.0148099
767.651	0.0148818
767.729	0.0148956
767.808	0.0147675
767.886	0.0147865
767.964	0.0146910
768.042	0.0147362
768.120	0.0148092
768.198	0.0147776
768.276	0.0147958
768.354	0.0147328
768.433	0.0147980
768.511	0.0147839
768.589	0.0147413
768.667	0.0149376
768.745	0.0147864
768.823	0.0148823
768.901	0.0148119
768.979	0.0149358
769.058	0.0148426
769.136	0.0147250
769.214	0.0147890
769.292	0.0148555
769.370	0.0149300
769.448	0.0148827
769.526	0.0147729
769.604	0.0148343
769.683	0.0147816
769.761	0.0149277
769.839	0.0146868
769.917	0.0148830
769.995	0.0147600
770.073	0.0147558
770.151	0.0147545
770.229	0.0148203
770.308	0.0149088
770.386	0.0148608
770.464	0.0147783
770.542	0.0148802
770.620	0.0147836
770.698	0.0147698
770.776	0.0147192
770.854	0.0148231
770.933	0.0148303
771.011	0.0148427
771.089	0.0148730
771.167	0.0147021
771.245	0.0148399
771.323	0.0148347
771.401	0.0147655
771.479	0.0147913
771.558	0.0148525
771.636	0.0148447
771.714	0.0147485
771.792	0.0148183
771.870	0.0148539
771.948	0.0147131
772.026	0.0147556
772.104	0.0149017
772.183	0.0148174
772.261	0.0148139
772.339	0.0147766
772.417	0.0148451
772.495	0.0149394
772.573	0.0148279
772.651	0.0148518
772.729	0.0149026
772.808	0.0149361
772.886	0.0148791
772.964	0.0148507
773.042	0.0148192
773.120	0.0148859
773.198	0.0148573
773.276	0.0149399
773.354	0.0148174
773.433	0.0148356
773.511	0.0148792
773.589	0.0149409
773.667	0.0147450
773.745	0.0149017
773.823	0.0149503
773.901	0.0149384
773.979	0.0149335
774.058	0.0149799
774.136	0.0149010
774.214	0.0149089
774.292	0.0149797
774.370	0.0148837
774.448	0.0148309
774.526	0.0147789
774.604	0.0147472
774.683	0.0149633
774.761	0.0148378
774.839	0.0147874
774.917	0.0148660
774.995	0.0149194
775.073	0.0147198
775.151	0.0146510
775.229	0.0148158
775.308	0.0148668
775.386	0.0148221
775.464	0.0148955
775.542	0.0149049
775.620	0.0149124
775.698	0.0147863
775.776	0.0148455
775.854	0.0147530
775.933	0.0148256
776.011	0.0148132
776.089	0.0148706
776.167	0.0149465
776.245	0.0148641
776.323	0.0147716
776.401	0.0147852
776.479	0.0147730
776.558	0.0147866
776.636	0.0148188
776.714	0.0148380
776.792	0.0148839
776.870	0.0146268
776.948	0.0147861
777.026	0.0148451
777.104	0.0148621
777.183	0.0148890
777.261	0.0147804
777.339	0.0146489
777.417	0.0148035
777.495	0.0148106
777.573	0.0148511
777.651	0.0145799
777.729	0.0147328
777.808	0.0148734
777.886	0.0148672
777.964	0.0148567
778.042	0.0149348
778.120	0.0148567
778.198	0.0147216
778.276	0.0147327
778.354	0.0147469
778.433	0.0148189
778.511	0.0146529
778.589	0.0147307
778.667	0.0148347
778.745	0.0148857
778.823	0.0148242
778.901	0.0148257
778.979	0.0147746
779.058	0.0148943
779.136	0.0148257
779.214	0.0147421
779.292	0.0147194
779.370	0.0147755
779.448	0.0147826
779.526	0.0150077
779.604	0.0149332
779.683	0.0148856
779.761	0.0147272
779.839	0.0148595
779.917	0.0147772
779.995	0.0149027
780.073	0.0148118
780.151	0.0147131
780.229	0.0147917
780.308	0.0148902
780.386	0.0147991
780.464	0.0147797
780.542	0.0149238
780.620	0.0149208
780.698	0.0147421
780.776	0.0149218
780.854	0.0148220
780.933	0.0147939
781.011	0.0146877
781.089	0.0146133
781.167	0.0148203
781.245	0.0146934
781.323	0.0148016
781.401	0.0148236
781.479	0.0149530
781.558	0.0148959
781.636	0.0149078
781.714	0.0149036
781.792	0.0149519
781.870	0.0149284
781.948	0.0149065
782.026	0.0148465
782.104	0.0148923
782.183	0.0149803
782.261	0.0150324
782.339	0.0149757
782.417	0.0149400
782.495	0.0149400
782.573	0.0150919
782.651	0.0149516
782.729	0.0149470
782.808	0.0150050
782.886	0.0149706
782.964	0.0149252
783.042	0.0149175
783.120	0.0148598
783.198	0.0148597
783.276	0.0149666
783.354	0.0148756
783.433	0.0148419
783.511	0.0149596
783.589	0.0151226
783.667	0.0149163
783.745	0.0147901
783.823	0.0147762
783.901	0.0149291
783.979	0.0148357
784.058	0.0147989
784.136	0.0147362
784.214	0.0149596
784.292	0.0148240
784.370	0.0148560
784.448	0.0148924
784.526	0.0149703
784.604	0.0148660
784.683	0.0148785
784.761	0.0149339
784.839	0.0147926
784.917	0.0149279
784.995	0.0148621
785.073	0.0148991
785.151	0.0149329
785.229	0.0150330
785.308	0.0148926
785.386	0.0148475
785.464	0.0149232
785.542	0.0148788
785.620	0.0148549
785.698	0.0147781
785.776	0.0149087
785.854	0.0148891
785.933	0.0150368
786.011	0.0149913
786.089	0.0148464
786.167	0.0150076
786.245	0.0149274
786.323	0.0147874
786.401	0.0149509
786.479	0.0148920
786.558	0.0148460
786.636	0.0148943
786.714	0.0148408
786.792	0.0147953
786.870	0.0148620
786.948	0.0148280
787.026	0.0148371
787.104	0.0149464
787.183	0.0149219
787.261	0.0148225
787.339	0.0148537
787.417	0.0148846
787.495	0.0149694
787.573	0.0149529
787.651	0.0149257
787.729	0.0149135
787.808	0.0148341
787.886	0.0147657
787.964	0.0148777
788.042	0.0150764
788.120	0.0150890
788.198	0.0148707
788.276	0.0148514
788.354	0.0148806
788.433	0.0149817
788.511	0.0147764
788.589	0.0149265
788.667	0.0149087
788.745	0.0148147
788.823	0.0149190
788.901	0.0148943
788.979	0.0148878
789.058	0.0148013
789.136	0.0147281
789.214	0.0148295
789.292	0.0148660
789.370	0.0148908
789.448	0.0148177
789.526	0.0147610
789.604	0.0148299
789.683	0.0147997
789.761	0.0147027
789.839	0.0148724
789.917	0.0149333
789.995	0.0148758
790.073	0.0147173
790.151	0.0147402
790.229	0.0147855
790.308	0.0149285
790.386	0.0148405
790.464	0.0148911
790.542	0.0147979
790.620	0.0148323
790.698	0.0147495
790.776	0.0148168
790.854	0.0148369
790.933	0.0148014
791.011	0.0148515
791.089	0.0146423
791.167	0.0147826
791.245	0.0147549
791.323	0.0147163
791.401	0.0147789
791.479	0.0147756
791.558	0.0148528
791.636	0.0147556
791.714	0.0148792
791.792	0.0147055
791.870	0.0147184
791.948	0.0148713
792.026	0.0147258
792.104	0.0147461
792.183	0.0149152
792.261	0.0148505
792.339	0.0148637
792.417	0.0147803
792.495	0.0147845
792.573	0.0148050
792.651	0.0148500
792.729	0.0148503
792.808	0.0148762
792.886	0.0148336
792.964	0.0148997
793.042	0.0149545
793.120	0.0148576
793.198	0.0148653
793.276	0.0149867
793.354	0.0148104
793.433	0.0149254
793.511	0.0147932
793.589	0.0148943
793.667	0.0149297
793.745	0.0148823
793.823	0.0148642
793.901	0.0150288
793.979	0.0148251
794.058	0.0147129
794.136	0.0147504
794.214	0.0148388
794.292	0.0148302
794.370	0.0149158
794.448	0.0148052
794.526	0.0148217
794.604	0.0147216
794.683	0.0148509
794.761	0.0147721
794.839	0.0147657
794.917	0.0148090
794.995	0.0147308
795.073	0.0148354
795.151	0.0147872
795.229	0.0147878
795.308	0.0148919
795.386	0.0149120
795.464	0.0147704
795.542	0.0147039
795.620	0.0147546
795.698	0.0149123
795.776	0.0148491
795.854	0.0148086
795.933	0.0147962
796.011	0.0148965
796.089	0.0147933
796.167	0.0148804
796.245	0.0147159
796.323	0.0148505
796.401	0.0149358
796.479	0.0148170
796.558	0.0148343
796.636	0.0149596
796.714	0.0148988
796.792	0.0149590
796.870	0.0147163
796.948	0.0147926
797.026	0.0147619
797.104	0.0147914
797.183	0.0148090
797.261	0.0148479
797.339	0.0147971
797.417	0.0147739
797.495	0.0147433
797.573	0.0148854
797.651	0.0149080
797.729	0.0148867
797.808	0.0148666
797.886	0.0148666
797.964	0.0149444
798.042	0.0148665
798.120	0.0148312
798.198	0.0147873
798.276	0.0148636
798.354	0.0150124
798.433	0.0149997
798.511	0.0150119
798.589	0.0148953
798.667	0.0148549
798.745	0.0148803
798.823	0.0149154
798.901	0.0149326
798.979	0.0149866
799.058	0.0149351
799.136	0.0149098
799.214	0.0148866
799.292	0.0146835
799.370	0.0149294
799.448	0.0148493
799.526	0.0147469
799.604	0.0146511
799.683	0.0146510
799.761	0.0148251
799.839	0.0148569
799.917	0.0147407
799.995	0.0147150
800.073	0.0146230
800.151	0.0147702
800.229	0.0147318
800.308	0.0145975
800.386	0.0147688
800.464	0.0148114
800.542	0.0147513
800.620	0.0147037
800.698	0.0147165
800.776	0.0148571
800.854	0.0147424
800.933	0.0147340
801.011	0.0147440
801.089	0.0147668
801.167	0.0147166
801.245	0.0148651
801.323	0.0147753
801.401	0.0146764
801.479	0.0148474
801.558	0.0147610
801.636	0.0147343
801.714	0.0147999
801.792	0.0147029
801.870	0.0147710
801.948	0.0147563
802.026	0.0148916
802.104	0.0148399
802.183	0.0147580
802.261	0.0147560
802.339	0.0148299
802.417	0.0148125
802.495	0.0147175
802.573	0.0148151
802.651	0.0147033
802.729	0.0148345
802.808	0.0147275
802.886	0.0147138
802.964	0.0147881
803.042	0.0147411
803.120	0.0146475
803.198	0.0148618
803.276	0.0148598
803.354	0.0148660
803.433	0.0147871
803.511	0.0148031
803.589	0.0147660
803.667	0.0148066
803.745	0.0147542
803.823	0.0148173
803.901	0.0149815
803.979	0.0147956
804.058	0.0148200
804.136	0.0147375
804.214	0.0147964
804.292	0.0148125
804.370	0.0149203
804.448	0.0148450
804.526	0.0149751
804.604	0.0149050
804.683	0.0149466
804.761	0.0147591
804.839	0.0148746
804.917	0.0148167
804.995	0.0147336
805.073	0.0149239
805.151	0.0148006
805.229	0.0146925
805.308	0.0148473
805.386	0.0147459
805.464	0.0148586
805.542	0.0149248
805.620	0.0148206
805.698	0.0146559
805.776	0.0149093
805.854	0.0147142
805.933	0.0148069
806.011	0.0149809
806.089	0.0148872
806.167	0.0148778
806.245	0.0148577
806.323	0.0147516
806.401	0.0147791
806.479	0.0148114
806.558	0.0149313
806.636	0.0148513
806.714	0.0148968
806.792	0.0150323
806.870	0.0148237
806.948	0.0148217
807.026	0.0149175
807.104	0.0148453
807.183	0.0148157
807.261	0.0148983
807.339	0.0149724
807.417	0.0149023
807.495	0.0149550
807.573	0.0149176
807.651	0.0148392
807.729	0.0148412
807.808	0.0148710
807.886	0.0149032
807.964	0.0148803
808.042	0.0149378
808.120	0.0148020
808.198	0.0149649
808.276	0.0147955
808.354	0.0149537
808.433	0.0150549
808.511	0.0148769
808.589	0.0149749
808.667	0.0148821
808.745	0.0149674
808.823	0.0148795
808.901	0.0148555
808.979	0.0148340
809.058	0.0146487
809.136	0.0147674
809.214	0.0150529
809.292	0.0148817
809.370	0.0147565
809.448	0.0146945
809.526	0.0147556
809.604	0.0147782
809.683	0.0147641
809.761	0.0147561
809.839	0.0147594
809.917	0.0148186
809.995	0.0148237
810.073	0.0146769
810.151	0.0148335
810.229	0.0146635
810.308	0.0146857
810.386	0.0148245
810.464	0.0148230
810.542	0.0146820
810.620	0.0147977
810.698	0.0148735
810.776	0.0148856
810.854	0.0147919
810.933	0.0147757
811.011	0.0148177
811.089	0.0149007
811.167	0.0147913
811.245	0.0147293
811.323	0.0149194
811.401	0.0148730
811.479	0.0149171
811.558	0.0148044
811.636	0.0148747
811.714	0.0147129
811.792	0.0148178
811.870	0.0148370
811.948	0.0147395
812.026	0.0149508
812.104	0.0148914
812.183	0.0149514
812.261	0.0148414
812.339	0.0148376
812.417	0.0149026
812.495	0.0147433
812.573	0.0148125
812.651	0.0149147
812.729	0.0148540
812.808	0.0149043
812.886	0.0149225
812.964	0.0149261
813.042	0.0148736
813.120	0.0148848
813.198	0.0148374
813.276	0.0147779
813.354	0.0149141
813.433	0.0146946
813.511	0.0147821
813.589	0.0147623
813.667	0.0146999
813.745	0.0149932
813.823	0.0148438
813.901	0.0146716
813.979	0.0146055
814.058	0.0148255
814.136	0.0146715
814.214	0.0147871
814.292	0.0148148
814.370	0.0147888
814.448	0.0147755
814.526	0.0147027
814.604	0.0146977
814.683	0.0147701
814.761	0.0147843
814.839	0.0147889
814.917	0.0147490
814.995	0.0147038
815.073	0.0146323
815.151	0.0147616
815.229	0.0148682
815.308	0.0148416
815.386	0.0147606
815.464	0.0147331
815.542	0.0147396
815.620	0.0147679
815.698	0.0148027
815.776	0.0148464
815.854	0.0147043
815.933	0.0146367
816.011	0.0148378
816.089	0.0147437
816.167	0.0146735
816.245	0.0148169
816.323	0.0149055
816.401	0.0147790
816.479	0.0147663
816.558	0.0147811
816.636	0.0148914
816.714	0.0148405
816.792	0.0147973
816.870	0.0148119
816.948	0.0148562
817.026	0.0147960
817.104	0.0148571
817.183	0.0148518
817.261	0.0148251
817.339	0.0147439
817.417	0.0148764
817.495	0.0147943
817.573	0.0148607
817.651	0.0148772
817.729	0.0147371
817.808	0.0148783
817.886	0.0148627
817.964	0.0148020
818.042	0.0149065
818.120	0.0149498
818.198	0.0148909
818.276	0.0148705
818.354	0.0150384
818.433	0.0148834
818.511	0.0148341
818.589	0.0148336
818.667	0.0149316
818.745	0.0148497
818.823	0.0147823
818.901	0.0148226
818.979	0.0148962
819.058	0.0148774
819.136	0.0147883
819.214	0.0149206
819.292	0.0150146
819.370	0.0148451
819.448	0.0148026
819.526	0.0148512
819.604	0.0148236
819.683	0.0146165
819.761	0.0147770
819.839	0.0148148
819.917	0.0146742
819.995	0.0148238
820.073	0.0148302
820.151	0.0147618
820.229	0.0147424
820.308	0.0147896
820.386	0.0148689
820.464	0.0148838
820.542	0.0145776
820.620	0.0147411
820.698	0.0149500
820.776	0.0149007
820.854	0.0149780
820.933	0.0147622
821.011	0.0148709
821.089	0.0147861
821.167	0.0147530
821.245	0.0149619
821.323	0.0148196
821.401	0.0147350
821.479	0.0147503
821.558	0.0148910
821.636	0.0148396
821.714	0.0147912
821.792	0.0147739
821.870	0.0148734
821.948	0.0148093
822.026	0.0149780
822.104	0.0149040
822.183	0.0148351
822.261	0.0149084
822.339	0.0148164
822.417	0.0149444
822.495	0.0148932
822.573	0.0148604
822.651	0.0149979
822.729	0.0147756
822.808	0.0148759
822.886	0.0148782
822.964	0.0149702
823.042	0.0149653
823.120	0.0148110
823.198	0.0147887
823.276	0.0148181
823.354	0.0149040
823.433	0.0148602
823.511	0.0148237
823.589	0.0149292
823.667	0.0147768
823.745	0.0147933
823.823	0.0147596
823.901	0.0148422
823.979	0.0148111
824.058	0.0147961
824.136	0.0147060
824.214	0.0147365
824.292	0.0148118
824.370	0.0147968
824.448	0.0146200
824.526	0.0145997
824.604	0.0148479
824.683	0.0147729
824.761	0.0147501
824.839	0.0148180
824.917	0.0147377
824.995	0.0148686
825.073	0.0148985
825.151	0.0147864
825.229	0.0147622
825.308	0.0147005
825.386	0.0148837
825.464	0.0148579
825.542	0.0148545
825.620	0.0147514
825.698	0.0147038
825.776	0.0149196
825.854	0.0148353
825.933	0.0147278
826.011	0.0149367
826.089	0.0148306
826.167	0.0148162
826.245	0.0148153
826.323	0.0150699
826.401	0.0147437
826.479	0.0148921
826.558	0.0150002
826.636	0.0150177
826.714	0.0147318
826.792	0.0149960
826.870	0.0148715
826.948	0.0149075
827.026	0.0149387
827.104	0.0149391
827.183	0.0149477
827.261	0.0148430
827.339	0.0148183
827.417	0.0147129
827.495	0.0147665
827.573	0.0148466
827.651	0.0148141
827.729	0.0148444
827.808	0.0148028
827.886	0.0149014
827.964	0.0148528
828.042	0.0146799
828.120	0.0147952
828.198	0.0148999
828.276	0.0149978
828.354	0.0147607
828.433	0.0147840
828.511	0.0149142
828.589	0.0147739
828.667	0.0148632
828.745	0.0148734
828.823	0.0148189
828.901	0.0147148
828.979	0.0149121
829.058	0.0147421
829.136	0.0147687
829.214	0.0148710
829.292	0.0148450
829.370	0.0147749
829.448	0.0147997
829.526	0.0148155
829.604	0.0148119
829.683	0.0147251
829.761	0.0149097
829.839	0.0148196
829.917	0.0149589
829.995	0.0148488
830.073	0.0149065
830.151	0.0149667
830.229	0.0149225
830.308	0.0148997
830.386	0.0148532
830.464	0.0148713
830.542	0.0149493
830.620	0.0149269
830.698	0.0148456
830.776	0.0148927
830.854	0.0150056
830.933	0.0150219
831.011	0.0148909
831.089	0.0148372
831.167	0.0148674
831.245	0.0147984
831.323	0.0147186
831.401	0.0148454
831.479	0.0147820
831.558	0.0149697
831.636	0.0149477
831.714	0.0148843
831.792	0.0148309
831.870	0.0148199
831.948	0.0147809
832.026	0.0147492
832.104	0.0148371
832.183	0.0148925
832.261	0.0148325
832.339	0.0148205
832.417	0.0148907
832.495	0.0147310
832.573	0.0147682
832.651	0.0148288
832.729	0.0148023
832.808	0.0148590
832.886	0.0147316
832.964	0.0147079
833.042	0.0148894
833.120	0.0148421
833.198	0.0146452
833.276	0.0147517
833.354	0.0147337
833.433	0.0147877
833.511	0.0147802
833.589	0.0148057
833.667	0.0148028
833.745	0.0148460
833.823	0.0148234
833.901	0.0147805
833.979	0.0149304
834.058	0.0149310
834.136	0.0147767
834.214	0.0148905
834.292	0.0149626
834.370	0.0149084
834.448	0.0148823
834.526	0.0150474
834.604	0.0150015
834.683	0.0148903
834.761	0.0149243
834.839	0.0147436
834.917	0.0149416
834.995	0.0149294
835.073	0.0148284
835.151	0.0148672
835.229	0.0147704
835.308	0.0148324
835.386	0.0149268
835.464	0.0148477
835.542	0.0148095
835.620	0.0146921
835.698	0.0146767
835.776	0.0148791
835.854	0.0148959
835.933	0.0148589
836.011	0.0148177
836.089	0.0148717
836.167	0.0148615
836.245	0.0149021
836.323	0.0148453
836.401	0.0149080
836.479	0.0149107
836.558	0.0149287
836.636	0.0149119
836.714	0.0147561
836.792	0.0148373
836.870	0.0148943
836.948	0.0147167
837.026	0.0147556
837.104	0.0148835
837.183	0.0147543
837.261	0.0148991
837.339	0.0149651
837.417	0.0147927
837.495	0.0147619
837.573	0.0147168
837.651	0.0147814
837.729	0.0147768
837.808	0.0148803
837.886	0.0147978
837.964	0.0147066
838.042	0.0148822
838.120	0.0149178
838.198	0.0148302
838.276	0.0147935
838.354	0.0148227
838.433	0.0148040
838.511	0.0148341
838.589	0.0149052
838.667	0.0148215
838.745	0.0147748
838.823	0.0148343
838.901	0.0148699
838.979	0.0147485
839.058	0.0149139
839.136	0.0148470
839.214	0.0147802
839.292	0.0148600
839.370	0.0148219
839.448	0.0148482
839.526	0.0148062
839.604	0.0148846
839.683	0.0149016
839.761	0.0148025
839.839	0.0148240
839.917	0.0148134
839.995	0.0148230
840.073	0.0146650
840.151	0.0147894
840.229	0.0149761
840.308	0.0149508
840.386	0.0147753
840.464	0.0148200
840.542	0.0149969
840.620	0.0149228
840.698	0.0148080
840.776	0.0148629
840.854	0.0149832
840.933	0.0148621
841.011	0.0149074
841.089	0.0147202
841.167	0.0148998
841.245	0.0149028
841.323	0.0148040
841.401	0.0149911
841.479	0.0149849
841.558	0.0147652
841.636	0.0147730
841.714	0.0148248
841.792	0.0148042
841.870	0.0148633
841.948	0.0147860
842.026	0.0146767
842.104	0.0146326
842.183	0.0148116
842.261	0.0148038
842.339	0.0146957
842.417	0.0148357
842.495	0.0147683
842.573	0.0148615
842.651	0.0147215
842.729	0.0148224
842.808	0.0147636
842.886	0.0147635
842.964	0.0148331
843.042	0.0148052
843.120	0.0148924
843.198	0.0148135
843.276	0.0148350
843.354	0.0148029
843.433	0.0148528
843.511	0.0148103
843.589	0.0147781
843.667	0.0148831
843.745	0.0148549
843.823	0.0148443
843.901	0.0148476
843.979	0.0148769
844.058	0.0147591
844.136	0.0147931
844.214	0.0149296
844.292	0.0149144
844.370	0.0147269
844.448	0.0148078
844.526	0.0148582
844.604	0.0147948
844.683	0.0148958
844.761	0.0147559
844.839	0.0147008
844.917	0.0148473
844.995	0.0147713
845.073	0.0148060
845.151	0.0148509
845.229	0.0150156
845.308	0.0148755
845.386	0.0149584
845.464	0.0149832
845.542	0.0148803
845.620	0.0149657
845.698	0.0150632
845.776	0.0150819
845.854	0.0150111
845.933	0.0149257
846.011	0.0150012
846.089	0.0148518
846.167	0.0148048
846.245	0.0148820
846.323	0.0149570
846.401	0.0147088
846.479	0.0147349
846.558	0.0148089
846.636	0.0148503
846.714	0.0147672
846.792	0.0146585
846.870	0.0146332
846.948	0.0147255
847.026	0.0146611
847.104	0.0148169
847.183	0.0148390
847.261	0.0147272
847.339	0.0147654
847.417	0.0148177
847.495	0.0148700
847.573	0.0149101
847.651	0.0147929
847.729	0.0148945
847.808	0.0148139
847.886	0.0149293
847.964	0.0149350
848.042	0.0148520
848.120	0.0149110
848.198	0.0150098
848.276	0.0149953
848.354	0.0149232
848.433	0.0149313
848.511	0.0148512
848.589	0.0148726
848.667	0.0150269
848.745	0.0148179
848.823	0.0148257
848.901	0.0148010
848.979	0.0147736
849.058	0.0148449
849.136	0.0146977
849.214	0.0147296
849.292	0.0147456
849.370	0.0146577
849.448	0.0147456
849.526	0.0146750
849.604	0.0147460
849.683	0.0147207
849.761	0.0146779
849.839	0.0147868
849.917	0.0148853
849.995	0.0146746
850.073	0.0147792
850.151	0.0147517
850.229	0.0147643
850.308	0.0149529
850.386	0.0149010
850.464	0.0148135
850.542	0.0149039
850.620	0.0147963
850.698	0.0149344
850.776	0.0149146
850.854	0.0149630
850.933	0.0148976
851.011	0.0150054
851.089	0.0147749
851.167	0.0148142
851.245	0.0148041
851.323	0.0148966
851.401	0.0148501
851.479	0.0148420
851.558	0.0149140
851.636	0.0148167
851.714	0.0146707
851.792	0.0146329
851.870	0.0147579
851.948	0.0147659
852.026	0.0147483
852.104	0.0146442
852.183	0.0146637
852.261	0.0147794
852.339	0.0146003
852.417	0.0146269
852.495	0.0148253
852.573	0.0148203
852.651	0.0147131
852.729	0.0148343
852.808	0.0148103
852.886	0.0147699
852.964	0.0146756
853.042	0.0148030
853.120	0.0148209
853.198	0.0148728
853.276	0.0148940
853.354	0.0149145
853.433	0.0147867
853.511	0.0147581
853.589	0.0148999
853.667	0.0148543
853.745	0.0149670
853.823	0.0148358
853.901	0.0148896
853.979	0.0149637
854.058	0.0148045
854.136	0.0147572
854.214	0.0147880
854.292	0.0147680
854.370	0.0147689
854.448	0.0146788
854.526	0.0146635
854.604	0.0148927
854.683	0.0146628
854.761	0.0148270
854.839	0.0147926
854.917	0.0148147
854.995	0.0149886
855.073	0.0149034
855.151	0.0149308
855.229	0.0149637
855.308	0.0148843
855.386	0.0148881
855.464	0.0149724
855.542	0.0148888
855.620	0.0149313
855.698	0.0148544
855.776	0.0149430
855.854	0.0148819
855.933	0.0150605
856.011	0.0148721
856.089	0.0148147
856.167	0.0147192
856.245	0.0148446
856.323	0.0147350
856.401	0.0148788
856.479	0.0147324
856.558	0.0147213
856.636	0.0147398
856.714	0.0146567
856.792	0.0147718
856.870	0.0147323
856.948	0.0148309
857.026	0.0147047
857.104	0.0147160
857.183	0.0146148
857.261	0.0147057
857.339	0.0147974
857.417	0.0146643
857.495	0.0147327
857.573	0.0146581
857.651	0.0145747
857.729	0.0146783
857.808	0.0146010
857.886	0.0147969
857.964	0.0147280
858.042	0.0147546
858.120	0.0149308
858.198	0.0148697
858.276	0.0148954
858.354	0.0149987
858.433	0.0149364
858.511	0.0150615
858.589	0.0149809
858.667	0.0150190
858.745	0.0149020
858.823	0.0150756
858.901	0.0151420
858.979	0.0149801
859.058	0.0149081
859.136	0.0151546
859.214	0.0150506
859.292	0.0150603
859.370	0.0150455
859.448	0.0150391
859.526	0.0149429
859.604	0.0148787
859.683	0.0149023
859.761	0.0149866
859.839	0.0148276
859.917	0.0149801
859.995	0.0148586
860.073	0.0148220
860.151	0.0147817
860.229	0.0147379
860.308	0.0147317
860.386	0.0147988
860.464	0.0147640
860.542	0.0146719
860.620	0.0145985
860.698	0.0146284
860.776	0.0146317
860.854	0.0146804
860.933	0.0145335
861.011	0.0145747
861.089	0.0145002
861.167	0.0144934
861.245	0.0145152
861.323	0.0145699
861.401	0.0147207
861.479	0.0146316
861.558	0.0146143
861.636	0.0147430
861.714	0.0147574
861.792	0.0147430
861.870	0.0146831
861.948	0.0146968
862.026	0.0146867
862.104	0.0147385
862.183	0.0149158
862.261	0.0148606
862.339	0.0148779
862.417	0.0148944
862.495	0.0149213
862.573	0.0150446
862.651	0.0149861
862.729	0.0148641
862.808	0.0149217
862.886	0.0149487
862.964	0.0149606
863.042	0.0149889
863.120	0.0149176
863.198	0.0150556
863.276	0.0150332
863.354	0.0150496
863.433	0.0149427
863.511	0.0151297
863.589	0.0150851
863.667	0.0149464
863.745	0.0150219
863.823	0.0149957
863.901	0.0149371
863.979	0.0148790
864.058	0.0149106
864.136	0.0149581
864.214	0.0148631
864.292	0.0148505
864.370	0.0149065
864.448	0.0147668
864.526	0.0148490
864.604	0.0149380
864.683	0.0148692
864.761	0.0148772
864.839	0.0148512
864.917	0.0149139
864.995	0.0147036
865.073	0.0145695
865.151	0.0145771
865.229	0.0147367
865.308	0.0147468
865.386	0.0147288
865.464	0.0146558
865.542	0.0146980
865.620	0.0147715
865.698	0.0147108
865.776	0.0146695
865.854	0.0149070
865.933	0.0147061
866.011	0.0146381
866.089	0.0146386
866.167	0.0147539
866.245	0.0148077
866.323	0.0145607
866.401	0.0147352
866.479	0.0145784
866.558	0.0147521
866.636	0.0148186
866.714	0.0147921
866.792	0.0147840
866.870	0.0148147
866.948	0.0147372
867.026	0.0148476
867.104	0.0148047
867.183	0.0147607
867.261	0.0147866
867.339	0.0149762
867.417	0.0148038
867.495	0.0147987
867.573	0.0148217
867.651	0.0149290
867.729	0.0149313
867.808	0.0149183
867.886	0.0148731
867.964	0.0149245
868.042	0.0149405
868.120	0.0149117
868.198	0.0149140
868.276	0.0149366
868.354	0.0148615
868.433	0.0147194
868.511	0.0149182
868.589	0.0149485
868.667	0.0148642
868.745	0.0148136
868.823	0.0149451
868.901	0.0149635
868.979	0.0148825
869.058	0.0148090
869.136	0.0148144
869.214	0.0148242
869.292	0.0148019
869.370	0.0148900
869.448	0.0148693
869.526	0.0147977
869.604	0.0148969
869.683	0.0148688
869.761	0.0148009
869.839	0.0147285
869.917	0.0148526
869.995	0.0148066
870.073	0.0148515
870.151	0.0148515
870.229	0.0148051
870.308	0.0148335
870.386	0.0146788
870.464	0.0146086
870.542	0.0147911
870.620	0.0148383
870.698	0.0148281
870.776	0.0147402
870.854	0.0147282
870.933	0.0147392
871.011	0.0146279
871.089	0.0146940
871.167	0.0146846
871.245	0.0148468
871.323	0.0148077
871.401	0.0146717
871.479	0.0148370
871.558	0.0148641
871.636	0.0147768
871.714	0.0147885
871.792	0.0148307
871.870	0.0148235
871.948	0.0147217
872.026	0.0148730
872.104	0.0148600
872.183	0.0150203
872.261	0.0149443
872.339	0.0148627
872.417	0.0148971
872.495	0.0149034
872.573	0.0150208
872.651	0.0150114
872.729	0.0150713
872.808	0.0150797
872.886	0.0150273
872.964	0.0149873
873.042	0.0149341
873.120	0.0151125
873.198	0.0151186
873.276	0.0149071
873.354	0.0150010
873.433	0.0150372
873.511	0.0149039
873.589	0.0150449
873.667	0.0148639
873.745	0.0148246
873.823	0.0148292
873.901	0.0148694
873.979	0.0148852
874.058	0.0148663
874.136	0.0148549
874.214	0.0148466
874.292	0.0149290
874.370	0.0148027
874.448	0.0149120
874.526	0.0148766
874.604	0.0147980
874.683	0.0147393
874.761	0.0148042
874.839	0.0147606
874.917	0.0148074
874.995	0.0147752
875.073	0.0147120
875.151	0.0147155
875.229	0.0147775
875.308	0.0146194
875.386	0.0147213
875.464	0.0147455
875.542	0.0148996
875.620	0.0148115
875.698	0.0147932
875.776	0.0147472
875.854	0.0148254
875.933	0.0146290
876.011	0.0146746
876.089	0.0147632
876.167	0.0147147
876.245	0.0147568
876.323	0.0148256
876.401	0.0147893
876.479	0.0145280
876.558	0.0146976
876.636	0.0147365
876.714	0.0148098
876.792	0.0148400
876.870	0.0148651
876.948	0.0147223
877.026	0.0149271
877.104	0.0149064
877.183	0.0148243
877.261	0.0147643
877.339	0.0149390
877.417	0.0148981
877.495	0.0148023
877.573	0.0149036
877.651	0.0149252
877.729	0.0150562
877.808	0.0150525
877.886	0.0148614
877.964	0.0148576
878.042	0.0148994
878.120	0.0148736
878.198	0.0148524
878.276	0.0149086
878.354	0.0148486
878.433	0.0148801
878.511	0.0147379
878.589	0.0149315
878.667	0.0148586
878.745	0.0147765
878.823	0.0147978
878.901	0.0148878
878.979	0.0148777
879.058	0.0146758
879.136	0.0149676
879.214	0.0147774
879.292	0.0146325
879.370	0.0148856
879.448	0.0148663
879.526	0.0147555
879.604	0.0148357
879.683	0.0148010
879.761	0.0147462
879.839	0.0147102
879.917	0.0147346
879.995	0.0147269
880.073	0.0147947
880.151	0.0147355
880.229	0.0147720
880.308	0.0148586
880.386	0.0147635
880.464	0.0148140
880.542	0.0148260
880.620	0.0147433
880.698	0.0148750
880.776	0.0148878
880.854	0.0147087
880.933	0.0146502
881.011	0.0147855
881.089	0.0147240
881.167	0.0147730
881.245	0.0148589
881.323	0.0148502
881.401	0.0147771
881.479	0.0148279
881.558	0.0146705
881.636	0.0147047
881.714	0.0147054
881.792	0.0149152
881.870	0.0148594
881.948	0.0147622
882.026	0.0148229
882.104	0.0148673
882.183	0.0147847
882.261	0.0147466
882.339	0.0150255
882.417	0.0148180
882.495	0.0149116
882.573	0.0147477
882.651	0.0149258
882.729	0.0150496
882.808	0.0148980
882.886	0.0148786
882.964	0.0149099
883.042	0.0150004
883.120	0.0148844
883.198	0.0148745
883.276	0.0148261
883.354	0.0148706
883.433	0.0148192
883.511	0.0149030
883.589	0.0148181
883.667	0.0147389
883.745	0.0149161
883.823	0.0149005
883.901	0.0148357
883.979	0.0148962
884.058	0.0148061
884.136	0.0147351
884.214	0.0149432
884.292	0.0146713
884.370	0.0147224
884.448	0.0149055
884.526	0.0149128
884.604	0.0147990
884.683	0.0147385
884.761	0.0147959
884.839	0.0148365
884.917	0.0148180
884.995	0.0149209
885.073	0.0148759
885.151	0.0147102
885.229	0.0146323
885.308	0.0147350
885.386	0.0147949
885.464	0.0147708
885.542	0.0149194
885.620	0.0148138
885.698	0.0148535
885.776	0.0148003
885.854	0.0147977
885.933	0.0147826
886.011	0.0147422
886.089	0.0147955
886.167	0.0147620
886.245	0.0146641
886.323	0.0147921
886.401	0.0147980
886.479	0.0147734
886.558	0.0148233
886.636	0.0148016
886.714	0.0148596
886.792	0.0148211
886.870	0.0149351
886.948	0.0149090
887.026	0.0148315
887.104	0.0149216
887.183	0.0149220
887.261	0.0147324
887.339	0.0149203
887.417	0.0148981
887.495	0.0147962
887.573	0.0148492
887.651	0.0148321
887.729	0.0148865
887.808	0.0149397
887.886	0.0147488
887.964	0.0148325
888.042	0.0148277
888.120	0.0148663
888.198	0.0148466
888.276	0.0149430
888.354	0.0149023
888.433	0.0149947
888.511	0.0148542
888.589	0.0147675
888.667	0.0148502
888.745	0.0148074
888.823	0.0148177
888.901	0.0148191
888.979	0.0147494
889.058	0.0149046
889.136	0.0148694
889.214	0.0148203
889.292	0.0148242
889.370	0.0148828
889.448	0.0148516
889.526	0.0149024
889.604	0.0148571
889.683	0.0147130
889.761	0.0146774
889.839	0.0148294
889.917	0.0147338
889.995	0.0147562
890.073	0.0148946
890.151	0.0147593
890.229	0.0146821
890.308	0.0147372
890.386	0.0148058
890.464	0.0149264
890.542	0.0148076
890.620	0.0147303
890.698	0.0147920
890.776	0.0146897
890.854	0.0149199
890.933	0.0147461
891.011	0.0147030
891.089	0.0147620
891.167	0.0148981
891.245	0.0148706
891.323	0.0147767
891.401	0.0146968
891.479	0.0147773
891.558	0.0148598
891.636	0.0149788
891.714	0.0148480
891.792	0.0147491
891.870	0.0148846
891.948	0.0148824
892.026	0.0148989
892.104	0.0149423
892.183	0.0149172
892.261	0.0148543
892.339	0.0148569
892.417	0.0148534
892.495	0.0149435
892.573	0.0149889
892.651	0.0149194
892.729	0.0148762
892.808	0.0148537
892.886	0.0148392
892.964	0.0148733
893.042	0.0149111
893.120	0.0148198
893.198	0.0148466
893.276	0.0148044
893.354	0.0148116
893.433	0.0148264
893.511	0.0147715
893.589	0.0148351
893.667	0.0147410
893.745	0.0148931
893.823	0.0149205
893.901	0.0148865
893.979	0.0148308
894.058	0.0147381
894.136	0.0148129
894.214	0.0147588
894.292	0.0146806
894.370	0.0147694
894.448	0.0147712
894.526	0.0149007
894.604	0.0147804
894.683	0.0148085
894.761	0.0147211
894.839	0.0148819
894.917	0.0147419
894.995	0.0148142
895.073	0.0146668
895.151	0.0148003
895.229	0.0147532
895.308	0.0146609
895.386	0.0147652
895.464	0.0149056
895.542	0.0147899
895.620	0.0148396
895.698	0.0147868
895.776	0.0147631
895.854	0.0148987
895.933	0.0146831
896.011	0.0148148
896.089	0.0147957
896.167	0.0149194
896.245	0.0149535
896.323	0.0147221
896.401	0.0148080
896.479	0.0149325
896.558	0.0148735
896.636	0.0149053
896.714	0.0148672
896.792	0.0148466
896.870	0.0149681
896.948	0.0149747
897.026	0.0148212
897.104	0.0148978
897.183	0.0148218
897.261	0.0149398
897.339	0.0149017
897.417	0.0149369
897.495	0.0148119
897.573	0.0147895
897.651	0.0148222
897.729	0.0148304
897.808	0.0147949
897.886	0.0147208
897.964	0.0147213
898.042	0.0146952
898.120	0.0148160
898.198	0.0148487
898.276	0.0148167
898.354	0.0147077
898.433	0.0147473
898.511	0.0147205
898.589	0.0147796
898.667	0.0147900
898.745	0.0147295
898.823	0.0146558
898.901	0.0147480
898.979	0.0149011
899.058	0.0146686
899.136	0.0147655
899.214	0.0146690
899.292	0.0147984
899.370	0.0148311
899.448	0.0147133
899.526	0.0146922
899.604	0.0147855
899.683	0.0148127
899.761	0.0146984
899.839	0.0146728
899.917	0.0148473
899.995	0.0146322
900.073	0.0147009
900.151	0.0148365
900.229	0.0147308
900.308	0.0147645
900.386	0.0148934
900.464	0.0149440
900.542	0.0148831
900.620	0.0148859
900.698	0.0148166
900.776	0.0146066
900.854	0.0149319
900.933	0.0149026
901.011	0.0148242
901.089	0.0146883
901.167	0.0148853
901.245	0.0149621
901.323	0.0148952
901.401	0.0150150
901.479	0.0146851
901.558	0.0147523
901.636	0.0149023
901.714	0.0148343
901.792	0.0149172
901.870	0.0150445
901.948	0.0148480
902.026	0.0148882
902.104	0.0147957
902.183	0.0148009
902.261	0.0148013
902.339	0.0147682
902.417	0.0146622
902.495	0.0147676
902.573	0.0147890
902.651	0.0148931
902.729	0.0148539
902.808	0.0147247
902.886	0.0146371
902.964	0.0148593
903.042	0.0147641
903.120	0.0148051
903.198	0.0147685
903.276	0.0147398
903.354	0.0147350
903.433	0.0147935
903.511	0.0147253
903.589	0.0147375
903.667	0.0147727
903.745	0.0147692
903.823	0.0148601
903.901	0.0148627
903.979	0.0149656
904.058	0.0148260
904.136	0.0148800
904.214	0.0149033
904.292	0.0148526
904.370	0.0148647
904.448	0.0149101
904.526	0.0148684
904.604	0.0148441
904.683	0.0148083
904.761	0.0148331
904.839	0.0149210
904.917	0.0147855
904.995	0.0147684
905.073	0.0148973
905.151	0.0149718
905.229	0.0147636
905.308	0.0147154
905.386	0.0148493
905.464	0.0147949
905.542	0.0148148
905.620	0.0147815
905.698	0.0147836
905.776	0.0148181
905.854	0.0146850
905.933	0.0148349
906.011	0.0148152
906.089	0.0148161
906.167	0.0147745
906.245	0.0148283
906.323	0.0148363
906.401	0.0147579
906.479	0.0147984
906.558	0.0148808
906.636	0.0148537
906.714	0.0148678
906.792	0.0148820
906.870	0.0148376
906.948	0.0148666
907.026	0.0147812
907.104	0.0148215
907.183	0.0148277
907.261	0.0149626
907.339	0.0148547
907.417	0.0147243
907.495	0.0149121
907.573	0.0148859
907.651	0.0147209
907.729	0.0147956
907.808	0.0147870
907.886	0.0148979
907.964	0.0147748
908.042	0.0146938
908.120	0.0148875
908.198	0.0148758
908.276	0.0147546
908.354	0.0148683
908.433	0.0147556
908.511	0.0146880
908.589	0.0147819
908.667	0.0146989
908.745	0.0147627
908.823	0.0148148
908.901	0.0147542
908.979	0.0146553
909.058	0.0147397
909.136	0.0147034
909.214	0.0146046
909.292	0.0147223
909.370	0.0147726
909.448	0.0147406
909.526	0.0148209
909.604	0.0147942
909.683	0.0148197
909.761	0.0147436
909.839	0.0147118
909.917	0.0148259
909.995	0.0148915
910.073	0.0146507
910.151	0.0147536
910.229	0.0147523
910.308	0.0147317
910.386	0.0148504
910.464	0.0149241
910.542	0.0148874
910.620	0.0147805
910.698	0.0145966
910.776	0.0147203
910.854	0.0147944
910.933	0.0147522
911.011	0.0147425
911.089	0.0148878
911.167	0.0146391
911.245	0.0148336
911.323	0.0148428
911.401	0.0148463
911.479	0.0148412
911.558	0.0148734
911.636	0.0149201
911.714	0.0149764
911.792	0.0147664
911.870	0.0148550
911.948	0.0149169
912.026	0.0147099
912.104	0.0147689
912.183	0.0148744
912.261	0.0148992
912.339	0.0149203
912.417	0.0148409
912.495	0.0149140
912.573	0.0149027
912.651	0.0147968
912.729	0.0147916
912.808	0.0146819
912.886	0.0149220
912.964	0.0148307
913.042	0.0147515
913.120	0.0148211
913.198	0.0149169
913.276	0.0147310
913.354	0.0148958
913.433	0.0147377
913.511	0.0147668
913.589	0.0146869
913.667	0.0147263
913.745	0.0148241
913.823	0.0148833
913.901	0.0148091
913.979	0.0148114
914.058	0.0148145
914.136	0.0148987
914.214	0.0147872
914.292	0.0147442
914.370	0.0149226
914.448	0.0148284
914.526	0.0147607
914.604	0.0148379
914.683	0.0148658
914.761	0.0148395
914.839	0.0148411
914.917	0.0147694
914.995	0.0149278
915.073	0.0149367
915.151	0.0148206
915.229	0.0149303
915.308	0.0149773
915.386	0.0150553
915.464	0.0150447
915.542	0.0149477
915.620	0.0148956
915.698	0.0149096
915.776	0.0148280
915.854	0.0149294
915.933	0.0149556
916.011	0.0148801
916.089	0.0148674
916.167	0.0147823
916.245	0.0149088
916.323	0.0148051
916.401	0.0148578
916.479	0.0148734
916.558	0.0148008
916.636	0.0147038
916.714	0.0147516
916.792	0.0148338
916.870	0.0147435
916.948	0.0148671
917.026	0.0148318
917.104	0.0147184
917.183	0.0149538
917.261	0.0148618
917.339	0.0148991
917.417	0.0148376
917.495	0.0148007
917.573	0.0148067
917.651	0.0148284
917.729	0.0147472
917.808	0.0148515
917.886	0.0149489
917.964	0.0147515
918.042	0.0148096
918.120	0.0149174
918.198	0.0147190
918.276	0.0146662
918.354	0.0148292
918.433	0.0147250
918.511	0.0147882
918.589	0.0147636
918.667	0.0148270
918.745	0.0149754
918.823	0.0148876
918.901	0.0147849
918.979	0.0149310
919.058	0.0148243
919.136	0.0148045
919.214	0.0149168
919.292	0.0148120
919.370	0.0147674
919.448	0.0148981
919.526	0.0149229
919.604	0.0149479
919.683	0.0148206
919.761	0.0148456
919.839	0.0149442
919.917	0.0149263
