05/28/2022	14:14:31	Ver.	4.1	UNKNOWN
Optical Delay	599.988409	Delta X		0.078125	Sweeps	1	Scan Rate	0/0
Coordinates	Axis 1	NaN	Axis 2	NaN	Axis 3	NaN	Axis 4	NaN	Axis 5	NaN	Axis 6	0.000000
TX Power	0.000000	RX Power	0.000000

599.988	0.0144811
600.067	0.0144695
600.145	0.0143830
600.223	0.0143975
600.301	0.0145219
600.379	0.0144713
600.457	0.0144244
600.535	0.0145626
600.613	0.0144774
600.692	0.0143774
600.770	0.0146981
600.848	0.0144547
600.926	0.0144820
601.004	0.0144838
601.082	0.0145661
601.160	0.0144299
601.238	0.0143749
601.317	0.0143983
601.395	0.0144948
601.473	0.0146161
601.551	0.0145356
601.629	0.0144901
601.707	0.0144631
601.785	0.0145773
601.863	0.0144590
601.942	0.0144335
602.020	0.0145620
602.098	0.0145255
602.176	0.0145108
602.254	0.0144651
602.332	0.0145600
602.410	0.0145083
602.488	0.0145412
602.567	0.0144488
602.645	0.0144274
602.723	0.0144312
602.801	0.0143950
602.879	0.0145283
602.957	0.0144993
603.035	0.0143793
603.113	0.0144604
603.192	0.0145705
603.270	0.0144706
603.348	0.0144137
603.426	0.0144744
603.504	0.0145394
603.582	0.0144294
603.660	0.0145671
603.738	0.0144981
603.817	0.0143748
603.895	0.0143726
603.973	0.0144546
604.051	0.0145977
604.129	0.0145390
604.207	0.0143692
604.285	0.0144730
604.363	0.0145151
604.442	0.0144199
604.520	0.0144325
604.598	0.0145188
604.676	0.0142319
604.754	0.0144611
604.832	0.0145552
604.910	0.0143775
604.988	0.0144424
605.067	0.0143827
605.145	0.0143871
605.223	0.0145457
605.301	0.0144779
605.379	0.0144535
605.457	0.0144189
605.535	0.0144897
605.613	0.0144067
605.692	0.0143726
605.770	0.0145005
605.848	0.0144887
605.926	0.0144341
606.004	0.0145556
606.082	0.0144188
606.160	0.0144707
606.238	0.0145243
606.317	0.0144029
606.395	0.0145207
606.473	0.0144847
606.551	0.0143772
606.629	0.0144139
606.707	0.0144360
606.785	0.0145838
606.863	0.0144798
606.942	0.0144663
607.020	0.0145130
607.098	0.0145769
607.176	0.0144060
607.254	0.0144195
607.332	0.0143581
607.410	0.0144415
607.488	0.0144926
607.567	0.0144515
607.645	0.0145246
607.723	0.0144910
607.801	0.0144454
607.879	0.0144998
607.957	0.0143752
608.035	0.0144001
608.113	0.0145172
608.192	0.0145345
608.270	0.0144928
608.348	0.0145453
608.426	0.0143687
608.504	0.0144757
608.582	0.0143887
608.660	0.0142964
608.738	0.0143879
608.817	0.0143529
608.895	0.0144975
608.973	0.0144770
609.051	0.0145351
609.129	0.0145605
609.207	0.0145157
609.285	0.0145476
609.363	0.0143991
609.442	0.0144780
609.520	0.0145107
609.598	0.0145081
609.676	0.0145631
609.754	0.0144805
609.832	0.0144558
609.910	0.0144785
609.988	0.0144321
610.067	0.0144686
610.145	0.0143623
610.223	0.0144081
610.301	0.0144659
610.379	0.0145284
610.457	0.0144350
610.535	0.0144334
610.613	0.0144373
610.692	0.0144362
610.770	0.0145613
610.848	0.0144786
610.926	0.0145573
611.004	0.0144451
611.082	0.0144049
611.160	0.0143884
611.238	0.0144035
611.317	0.0142862
611.395	0.0144621
611.473	0.0145420
611.551	0.0145547
611.629	0.0144138
611.707	0.0145065
611.785	0.0144320
611.863	0.0144259
611.942	0.0144295
612.020	0.0145461
612.098	0.0146082
612.176	0.0144630
612.254	0.0144814
612.332	0.0144872
612.410	0.0146265
612.488	0.0143758
612.567	0.0144822
612.645	0.0145694
612.723	0.0144137
612.801	0.0144516
612.879	0.0143661
612.957	0.0145926
613.035	0.0144907
613.113	0.0144920
613.192	0.0145631
613.270	0.0143597
613.348	0.0143896
613.426	0.0143842
613.504	0.0143682
613.582	0.0145768
613.660	0.0144836
613.738	0.0145569
613.817	0.0145359
613.895	0.0144294
613.973	0.0145087
614.051	0.0145260
614.129	0.0144948
614.207	0.0144115
614.285	0.0144530
614.363	0.0144955
614.442	0.0145084
614.520	0.0144566
614.598	0.0144143
614.676	0.0144200
614.754	0.0144615
614.832	0.0143946
614.910	0.0144431
614.988	0.0144466
615.067	0.0145330
615.145	0.0145709
615.223	0.0144391
615.301	0.0145341
615.379	0.0145011
615.457	0.0144382
615.535	0.0145335
615.613	0.0145303
615.692	0.0146082
615.770	0.0144696
615.848	0.0145992
615.926	0.0144450
616.004	0.0144747
616.082	0.0145314
616.160	0.0143290
616.238	0.0144115
616.317	0.0144347
616.395	0.0144431
616.473	0.0145755
616.551	0.0145411
616.629	0.0144895
616.707	0.0144951
616.785	0.0144370
616.863	0.0143837
616.942	0.0145632
617.020	0.0145933
617.098	0.0144205
617.176	0.0144896
617.254	0.0144666
617.332	0.0145338
617.410	0.0144806
617.488	0.0144633
617.567	0.0144170
617.645	0.0144451
617.723	0.0145444
617.801	0.0144537
617.879	0.0144696
617.957	0.0145222
618.035	0.0146014
618.113	0.0143974
618.192	0.0144367
618.270	0.0144228
618.348	0.0145883
618.426	0.0143786
618.504	0.0145639
618.582	0.0145038
618.660	0.0145441
618.738	0.0144843
618.817	0.0144118
618.895	0.0144944
618.973	0.0144993
619.051	0.0146440
619.129	0.0143918
619.207	0.0143353
619.285	0.0145824
619.363	0.0145507
619.442	0.0145137
619.520	0.0144554
619.598	0.0144842
619.676	0.0143816
619.754	0.0144485
619.832	0.0145738
619.910	0.0145734
619.988	0.0145427
620.067	0.0144769
620.145	0.0143690
620.223	0.0144908
620.301	0.0145663
620.379	0.0143661
620.457	0.0145407
620.535	0.0145663
620.613	0.0144161
620.692	0.0144666
620.770	0.0145351
620.848	0.0144884
620.926	0.0144785
621.004	0.0145533
621.082	0.0146255
621.160	0.0145029
621.238	0.0143243
621.317	0.0146021
621.395	0.0145609
621.473	0.0143610
621.551	0.0144342
621.629	0.0144221
621.707	0.0145515
621.785	0.0144508
621.863	0.0145505
621.942	0.0144802
622.020	0.0146928
622.098	0.0145578
622.176	0.0144810
622.254	0.0145564
622.332	0.0144913
622.410	0.0145377
622.488	0.0144301
622.567	0.0145232
622.645	0.0144884
622.723	0.0144775
622.801	0.0144625
622.879	0.0145640
622.957	0.0144878
623.035	0.0144171
623.113	0.0144298
623.192	0.0145185
623.270	0.0143910
623.348	0.0144625
623.426	0.0145860
623.504	0.0144583
623.582	0.0145687
623.660	0.0144435
623.738	0.0145310
623.817	0.0144143
623.895	0.0144522
623.973	0.0144510
624.051	0.0144537
624.129	0.0145409
624.207	0.0144009
624.285	0.0144367
624.363	0.0145688
624.442	0.0144404
624.520	0.0143875
624.598	0.0144279
624.676	0.0144099
624.754	0.0144549
624.832	0.0145703
624.910	0.0143874
624.988	0.0143699
625.067	0.0144612
625.145	0.0144650
625.223	0.0143594
625.301	0.0145811
625.379	0.0144611
625.457	0.0143817
625.535	0.0144447
625.613	0.0144450
625.692	0.0146130
625.770	0.0144913
625.848	0.0144145
625.926	0.0144675
626.004	0.0144689
626.082	0.0144674
626.160	0.0145026
626.238	0.0145275
626.317	0.0143511
626.395	0.0144350
626.473	0.0143015
626.551	0.0144614
626.629	0.0144522
626.707	0.0143542
626.785	0.0144829
626.863	0.0144560
626.942	0.0144648
627.020	0.0144999
627.098	0.0144814
627.176	0.0143816
627.254	0.0143549
627.332	0.0145313
627.410	0.0147371
627.488	0.0145228
627.567	0.0143944
627.645	0.0144157
627.723	0.0143704
627.801	0.0144735
627.879	0.0143710
627.957	0.0145017
628.035	0.0144120
628.113	0.0143964
628.192	0.0144121
628.270	0.0143364
628.348	0.0144319
628.426	0.0143207
628.504	0.0144629
628.582	0.0143854
628.660	0.0145042
628.738	0.0144872
628.817	0.0144420
628.895	0.0143696
628.973	0.0145830
629.051	0.0145990
629.129	0.0143330
629.207	0.0144382
629.285	0.0143737
629.363	0.0144951
629.442	0.0145183
629.520	0.0144352
629.598	0.0144073
629.676	0.0146181
629.754	0.0145474
629.832	0.0144618
629.910	0.0145988
629.988	0.0145039
630.067	0.0145003
630.145	0.0145226
630.223	0.0145379
630.301	0.0145608
630.379	0.0144445
630.457	0.0143282
630.535	0.0145432
630.613	0.0144186
630.692	0.0145473
630.770	0.0144926
630.848	0.0145464
630.926	0.0144994
631.004	0.0145018
631.082	0.0144631
631.160	0.0144730
631.238	0.0144565
631.317	0.0145029
631.395	0.0145482
631.473	0.0145211
631.551	0.0145204
631.629	0.0144595
631.707	0.0146169
631.785	0.0144611
631.863	0.0145004
631.942	0.0144884
632.020	0.0145603
632.098	0.0145724
632.176	0.0145393
632.254	0.0144773
632.332	0.0144144
632.410	0.0145309
632.488	0.0145727
632.567	0.0144122
632.645	0.0145262
632.723	0.0144977
632.801	0.0146465
632.879	0.0144553
632.957	0.0145703
633.035	0.0144581
633.113	0.0143094
633.192	0.0144820
633.270	0.0144750
633.348	0.0145264
633.426	0.0143874
633.504	0.0144671
633.582	0.0144417
633.660	0.0143923
633.738	0.0145031
633.817	0.0144206
633.895	0.0144480
633.973	0.0144695
634.051	0.0143476
634.129	0.0144582
634.207	0.0146587
634.285	0.0145065
634.363	0.0145284
634.442	0.0143156
634.520	0.0144085
634.598	0.0144914
634.676	0.0144016
634.754	0.0143712
634.832	0.0145100
634.910	0.0144352
634.988	0.0145104
635.067	0.0144759
635.145	0.0144112
635.223	0.0144699
635.301	0.0144723
635.379	0.0144095
635.457	0.0144645
635.535	0.0145235
635.613	0.0143786
635.692	0.0143841
635.770	0.0143964
635.848	0.0144107
635.926	0.0144452
636.004	0.0144164
636.082	0.0145429
636.160	0.0143935
636.238	0.0144545
636.317	0.0144437
636.395	0.0145337
636.473	0.0143841
636.551	0.0145414
636.629	0.0146110
636.707	0.0143911
636.785	0.0145802
636.863	0.0145795
636.942	0.0144705
637.020	0.0144731
637.098	0.0144140
637.176	0.0145482
637.254	0.0145631
637.332	0.0145095
637.410	0.0146151
637.488	0.0144691
637.567	0.0145802
637.645	0.0145363
637.723	0.0145100
637.801	0.0145023
637.879	0.0145041
637.957	0.0145805
638.035	0.0144917
638.113	0.0145060
638.192	0.0146406
638.270	0.0146485
638.348	0.0144819
638.426	0.0144982
638.504	0.0145029
638.582	0.0145913
638.660	0.0145055
638.738	0.0144574
638.817	0.0145934
638.895	0.0144283
638.973	0.0144618
639.051	0.0144918
639.129	0.0144471
639.207	0.0144852
639.285	0.0144453
639.363	0.0145898
639.442	0.0144877
639.520	0.0144541
639.598	0.0144790
639.676	0.0144112
639.754	0.0143970
639.832	0.0145486
639.910	0.0144904
639.988	0.0144145
640.067	0.0145376
640.145	0.0145255
640.223	0.0144244
640.301	0.0145181
640.379	0.0145627
640.457	0.0144536
640.535	0.0145866
640.613	0.0145149
640.692	0.0145467
640.770	0.0145043
640.848	0.0144599
640.926	0.0144759
641.004	0.0144529
641.082	0.0144611
641.160	0.0146249
641.238	0.0144731
641.317	0.0144298
641.395	0.0144325
641.473	0.0144617
641.551	0.0144550
641.629	0.0144446
641.707	0.0145205
641.785	0.0143831
641.863	0.0146372
641.942	0.0145397
642.020	0.0144221
642.098	0.0143159
642.176	0.0143271
642.254	0.0144558
642.332	0.0144109
642.410	0.0145251
642.488	0.0146279
642.567	0.0144611
642.645	0.0143526
642.723	0.0144209
642.801	0.0145046
642.879	0.0146166
642.957	0.0144419
643.035	0.0144714
643.113	0.0143761
643.192	0.0145190
643.270	0.0144888
643.348	0.0143908
643.426	0.0144616
643.504	0.0145013
643.582	0.0144838
643.660	0.0144305
643.738	0.0144615
643.817	0.0144886
643.895	0.0144862
643.973	0.0145240
644.051	0.0144496
644.129	0.0143803
644.207	0.0143698
644.285	0.0144697
644.363	0.0144695
644.442	0.0144352
644.520	0.0145774
644.598	0.0143866
644.676	0.0143984
644.754	0.0144142
644.832	0.0143872
644.910	0.0144189
644.988	0.0144382
645.067	0.0144362
645.145	0.0143997
645.223	0.0145268
645.301	0.0144876
645.379	0.0146031
645.457	0.0144986
645.535	0.0145048
645.613	0.0144316
645.692	0.0145842
645.770	0.0145873
645.848	0.0145288
645.926	0.0144917
646.004	0.0146927
646.082	0.0145879
646.160	0.0144897
646.238	0.0145566
646.317	0.0146217
646.395	0.0145948
646.473	0.0146008
646.551	0.0144348
646.629	0.0145370
646.707	0.0145316
646.785	0.0144337
646.863	0.0143795
646.942	0.0143732
647.020	0.0143793
647.098	0.0143314
647.176	0.0142696
647.254	0.0142304
647.332	0.0142651
647.410	0.0140040
647.488	0.0142230
647.567	0.0142599
647.645	0.0143500
647.723	0.0142719
647.801	0.0142007
647.879	0.0142899
647.957	0.0144252
648.035	0.0144164
648.113	0.0145246
648.192	0.0145352
648.270	0.0146160
648.348	0.0144336
648.426	0.0144123
648.504	0.0143855
648.582	0.0143893
648.660	0.0145734
648.738	0.0143959
648.817	0.0145538
648.895	0.0145273
648.973	0.0143694
649.051	0.0144640
649.129	0.0146207
649.207	0.0145070
649.285	0.0145646
649.363	0.0145659
649.442	0.0144156
649.520	0.0146191
649.598	0.0146205
649.676	0.0146205
649.754	0.0147047
649.832	0.0146577
649.910	0.0146107
649.988	0.0146890
650.067	0.0145372
650.145	0.0145541
650.223	0.0146201
650.301	0.0145477
650.379	0.0144833
650.457	0.0143738
650.535	0.0144325
650.613	0.0143925
650.692	0.0143426
650.770	0.0142858
650.848	0.0143628
650.926	0.0142483
651.004	0.0142638
651.082	0.0143478
651.160	0.0142456
651.238	0.0143242
651.317	0.0142632
651.395	0.0143104
651.473	0.0143501
651.551	0.0143401
651.629	0.0143272
651.707	0.0142509
651.785	0.0141690
651.863	0.0141794
651.942	0.0141572
652.020	0.0140825
652.098	0.0140829
652.176	0.0142271
652.254	0.0141965
652.332	0.0143262
652.410	0.0143230
652.488	0.0143998
652.567	0.0144332
652.645	0.0146152
652.723	0.0146187
652.801	0.0147684
652.879	0.0148248
652.957	0.0148918
653.035	0.0148750
653.113	0.0146406
653.192	0.0147713
653.270	0.0148377
653.348	0.0148946
653.426	0.0148700
653.504	0.0146832
653.582	0.0146820
653.660	0.0147701
653.738	0.0146960
653.817	0.0148624
653.895	0.0148976
653.973	0.0147954
654.051	0.0147693
654.129	0.0146217
654.207	0.0145891
654.285	0.0145654
654.363	0.0144298
654.442	0.0145992
654.520	0.0143922
654.598	0.0144000
654.676	0.0145847
654.754	0.0145490
654.832	0.0145300
654.910	0.0144799
654.988	0.0145674
655.067	0.0145498
655.145	0.0146165
655.223	0.0146161
655.301	0.0145238
655.379	0.0145657
655.457	0.0143541
655.535	0.0144453
655.613	0.0142773
655.692	0.0140623
655.770	0.0139845
655.848	0.0139235
655.926	0.0139666
656.004	0.0136688
656.082	0.0137069
656.160	0.0137096
656.238	0.0136246
656.317	0.0136105
656.395	0.0136667
656.473	0.0137303
656.551	0.0138792
656.629	0.0139127
656.707	0.0140867
656.785	0.0142524
656.863	0.0144197
656.942	0.0143879
657.020	0.0146510
657.098	0.0148018
657.176	0.0148619
657.254	0.0148708
657.332	0.0149306
657.410	0.0149470
657.488	0.0148701
657.567	0.0149358
657.645	0.0148878
657.723	0.0148179
657.801	0.0149278
657.879	0.0149232
657.957	0.0150292
658.035	0.0150524
658.113	0.0148893
658.192	0.0148908
658.270	0.0148307
658.348	0.0149080
658.426	0.0149126
658.504	0.0149714
658.582	0.0148328
658.660	0.0149709
658.738	0.0148302
658.817	0.0149663
658.895	0.0149241
658.973	0.0149156
659.051	0.0147715
659.129	0.0147942
659.207	0.0147890
659.285	0.0146572
659.363	0.0146680
659.442	0.0145729
659.520	0.0144549
659.598	0.0143782
659.676	0.0142064
659.754	0.0142115
659.832	0.0142362
659.910	0.0140447
659.988	0.0140740
660.067	0.0142086
660.145	0.0140151
660.223	0.0139553
660.301	0.0139561
660.379	0.0139335
660.457	0.0139817
660.535	0.0139127
660.613	0.0138989
660.692	0.0139684
660.770	0.0140005
660.848	0.0137513
660.926	0.0138027
661.004	0.0138721
661.082	0.0139913
661.160	0.0139431
661.238	0.0138541
661.317	0.0140244
661.395	0.0140877
661.473	0.0140232
661.551	0.0141174
661.629	0.0142055
661.707	0.0142207
661.785	0.0143474
661.863	0.0144097
661.942	0.0143610
662.020	0.0143826
662.098	0.0143675
662.176	0.0144691
662.254	0.0147099
662.332	0.0146398
662.410	0.0147330
662.488	0.0148641
662.567	0.0148770
662.645	0.0151173
662.723	0.0150853
662.801	0.0151836
662.879	0.0152681
662.957	0.0153769
663.035	0.0154462
663.113	0.0152281
663.192	0.0151573
663.270	0.0150145
663.348	0.0151296
663.426	0.0150152
663.504	0.0149242
663.582	0.0148386
663.660	0.0149686
663.738	0.0146693
663.817	0.0146001
663.895	0.0146718
663.973	0.0148475
664.051	0.0147247
664.129	0.0145489
664.207	0.0147205
664.285	0.0145791
664.363	0.0146471
664.442	0.0144413
664.520	0.0145656
664.598	0.0145451
664.676	0.0143304
664.754	0.0143420
664.832	0.0141102
664.910	0.0141624
664.988	0.0141728
665.067	0.0140338
665.145	0.0138673
665.223	0.0139813
665.301	0.0137495
665.379	0.0135883
665.457	0.0136415
665.535	0.0136554
665.613	0.0136241
665.692	0.0136719
665.770	0.0136367
665.848	0.0136641
665.926	0.0138672
666.004	0.0139366
666.082	0.0138821
666.160	0.0141416
666.238	0.0142079
666.317	0.0143375
666.395	0.0143136
666.473	0.0143712
666.551	0.0145444
666.629	0.0146289
666.707	0.0146713
666.785	0.0145811
666.863	0.0146189
666.942	0.0145219
667.020	0.0145612
667.098	0.0145958
667.176	0.0147231
667.254	0.0145460
667.332	0.0145061
667.410	0.0145692
667.488	0.0145398
667.567	0.0145136
667.645	0.0144935
667.723	0.0145184
667.801	0.0145330
667.879	0.0145760
667.957	0.0144976
668.035	0.0145205
668.113	0.0145307
668.192	0.0145863
668.270	0.0146790
668.348	0.0147771
668.426	0.0147383
668.504	0.0147407
668.582	0.0147928
668.660	0.0149562
668.738	0.0149442
668.817	0.0150194
668.895	0.0151511
668.973	0.0149615
669.051	0.0148697
669.129	0.0149448
669.207	0.0150165
669.285	0.0147071
669.363	0.0147610
669.442	0.0145471
669.520	0.0147613
669.598	0.0146691
669.676	0.0144456
669.754	0.0144344
669.832	0.0144041
669.910	0.0142569
669.988	0.0143493
670.067	0.0140952
670.145	0.0141015
670.223	0.0139247
670.301	0.0139788
670.379	0.0139552
670.457	0.0139254
670.535	0.0139658
670.613	0.0138409
670.692	0.0138765
670.770	0.0141573
670.848	0.0139873
670.926	0.0138864
671.004	0.0140518
671.082	0.0139308
671.160	0.0141001
671.238	0.0141041
671.317	0.0141262
671.395	0.0144057
671.473	0.0143793
671.551	0.0143304
671.629	0.0144153
671.707	0.0142905
671.785	0.0144374
671.863	0.0146920
671.942	0.0146073
672.020	0.0146057
672.098	0.0145013
672.176	0.0146770
672.254	0.0145605
672.332	0.0145173
672.410	0.0144405
672.488	0.0144085
672.567	0.0143027
672.645	0.0142497
672.723	0.0142599
672.801	0.0142903
672.879	0.0144002
672.957	0.0144263
673.035	0.0143086
673.113	0.0142954
673.192	0.0142657
673.270	0.0142525
673.348	0.0143819
673.426	0.0144698
673.504	0.0143802
673.582	0.0144168
673.660	0.0145914
673.738	0.0146543
673.817	0.0147013
673.895	0.0148178
673.973	0.0149027
674.051	0.0150306
674.129	0.0151079
674.207	0.0152126
674.285	0.0152219
674.363	0.0151523
674.442	0.0153421
674.520	0.0152477
674.598	0.0151089
674.676	0.0149693
674.754	0.0150439
674.832	0.0150037
674.910	0.0146868
674.988	0.0145771
675.067	0.0145302
675.145	0.0143268
675.223	0.0141698
675.301	0.0140687
675.379	0.0140682
675.457	0.0138913
675.535	0.0136530
675.613	0.0137761
675.692	0.0139239
675.770	0.0137243
675.848	0.0138020
675.926	0.0140588
676.004	0.0140454
676.082	0.0141217
676.160	0.0142501
676.238	0.0142912
676.317	0.0144191
676.395	0.0145967
676.473	0.0145047
676.551	0.0146658
676.629	0.0147593
676.707	0.0148344
676.785	0.0149618
676.863	0.0150703
676.942	0.0150498
677.020	0.0150113
677.098	0.0150809
677.176	0.0148943
677.254	0.0148546
677.332	0.0149093
677.410	0.0149190
677.488	0.0148740
677.567	0.0148676
677.645	0.0148719
677.723	0.0146815
677.801	0.0147664
677.879	0.0146550
677.957	0.0146274
678.035	0.0144946
678.113	0.0143508
678.192	0.0144189
678.270	0.0142612
678.348	0.0140721
678.426	0.0140151
678.504	0.0140099
678.582	0.0137957
678.660	0.0136118
678.738	0.0135831
678.817	0.0135924
678.895	0.0136066
678.973	0.0135946
679.051	0.0137593
679.129	0.0137449
679.207	0.0136903
679.285	0.0137256
679.363	0.0139094
679.442	0.0141103
679.520	0.0141184
679.598	0.0143237
679.676	0.0144968
679.754	0.0146022
679.832	0.0149058
679.910	0.0150380
679.988	0.0151288
680.067	0.0151147
680.145	0.0153347
680.223	0.0154750
680.301	0.0155129
680.379	0.0155703
680.457	0.0156086
680.535	0.0156610
680.613	0.0155061
680.692	0.0155360
680.770	0.0154498
680.848	0.0153233
680.926	0.0153770
681.004	0.0152966
681.082	0.0151199
681.160	0.0149113
681.238	0.0149064
681.317	0.0148279
681.395	0.0145220
681.473	0.0143934
681.551	0.0143109
681.629	0.0141602
681.707	0.0141298
681.785	0.0141099
681.863	0.0139355
681.942	0.0138841
682.020	0.0137986
682.098	0.0137582
682.176	0.0138593
682.254	0.0137908
682.332	0.0138279
682.410	0.0138255
682.488	0.0139333
682.567	0.0139425
682.645	0.0138951
682.723	0.0141801
682.801	0.0141866
682.879	0.0141763
682.957	0.0145408
683.035	0.0146173
683.113	0.0146680
683.192	0.0146918
683.270	0.0149191
683.348	0.0148631
683.426	0.0146642
683.504	0.0147000
683.582	0.0146276
683.660	0.0146455
683.738	0.0145768
683.817	0.0145345
683.895	0.0144370
683.973	0.0144093
684.051	0.0142858
684.129	0.0143428
684.207	0.0143867
684.285	0.0142212
684.363	0.0144080
684.442	0.0143436
684.520	0.0145262
684.598	0.0145291
684.676	0.0145253
684.754	0.0143248
684.832	0.0145613
684.910	0.0145773
684.988	0.0146641
685.067	0.0146555
685.145	0.0145948
685.223	0.0144647
685.301	0.0145196
685.379	0.0145751
685.457	0.0143519
685.535	0.0144658
685.613	0.0142058
685.692	0.0141574
685.770	0.0141698
685.848	0.0140564
685.926	0.0140277
686.004	0.0140932
686.082	0.0140459
686.160	0.0140244
686.238	0.0140887
686.317	0.0141168
686.395	0.0142908
686.473	0.0142442
686.551	0.0143538
686.629	0.0142791
686.707	0.0143560
686.785	0.0143815
686.863	0.0144978
686.942	0.0146236
687.020	0.0146020
687.098	0.0146386
687.176	0.0148154
687.254	0.0146963
687.332	0.0146355
687.410	0.0146282
687.488	0.0145932
687.567	0.0145538
687.645	0.0145437
687.723	0.0148536
687.801	0.0148055
687.879	0.0148798
687.957	0.0149091
688.035	0.0150025
688.113	0.0151233
688.192	0.0152604
688.270	0.0152740
688.348	0.0152525
688.426	0.0155023
688.504	0.0153159
688.582	0.0152329
688.660	0.0151559
688.738	0.0150604
688.817	0.0150190
688.895	0.0147009
688.973	0.0145129
689.051	0.0141889
689.129	0.0139874
689.207	0.0140322
689.285	0.0139819
689.363	0.0138303
689.442	0.0134570
689.520	0.0134071
689.598	0.0135305
689.676	0.0133625
689.754	0.0132482
689.832	0.0133986
689.910	0.0134008
689.988	0.0134303
690.067	0.0134858
690.145	0.0135119
690.223	0.0136780
690.301	0.0136789
690.379	0.0138067
690.457	0.0138709
690.535	0.0140319
690.613	0.0140181
690.692	0.0140798
690.770	0.0141466
690.848	0.0141029
690.926	0.0143219
691.004	0.0144788
691.082	0.0145484
691.160	0.0147170
691.238	0.0147073
691.317	0.0148771
691.395	0.0149316
691.473	0.0150292
691.551	0.0150777
691.629	0.0150355
691.707	0.0150835
691.785	0.0150548
691.863	0.0150038
691.942	0.0150380
692.020	0.0150148
692.098	0.0149019
692.176	0.0148788
692.254	0.0149013
692.332	0.0148563
692.410	0.0148546
692.488	0.0148562
692.567	0.0148679
692.645	0.0148338
692.723	0.0147982
692.801	0.0148653
692.879	0.0149342
692.957	0.0148318
693.035	0.0147594
693.113	0.0149796
693.192	0.0149541
693.270	0.0150214
693.348	0.0148654
693.426	0.0149025
693.504	0.0147791
693.582	0.0147861
693.660	0.0146679
693.738	0.0146057
693.817	0.0145695
693.895	0.0145191
693.973	0.0145016
694.051	0.0142610
694.129	0.0141785
694.207	0.0140711
694.285	0.0141080
694.363	0.0140003
694.442	0.0139328
694.520	0.0138656
694.598	0.0139642
694.676	0.0139072
694.754	0.0140398
694.832	0.0141882
694.910	0.0141042
694.988	0.0140659
695.067	0.0141963
695.145	0.0142191
695.223	0.0141333
695.301	0.0140930
695.379	0.0142708
695.457	0.0141542
695.535	0.0140963
695.613	0.0141044
695.692	0.0139731
695.770	0.0141016
695.848	0.0140391
695.926	0.0139787
696.004	0.0140501
696.082	0.0139820
696.160	0.0140676
696.238	0.0141872
696.317	0.0140707
696.395	0.0140578
696.473	0.0141846
696.551	0.0144081
696.629	0.0144299
696.707	0.0145599
696.785	0.0147970
696.863	0.0148058
696.942	0.0149408
697.020	0.0149924
697.098	0.0151183
697.176	0.0151395
697.254	0.0153233
697.332	0.0151628
697.410	0.0152458
697.488	0.0152724
697.567	0.0153221
697.645	0.0153994
697.723	0.0153254
697.801	0.0151690
697.879	0.0153876
697.957	0.0153195
698.035	0.0151541
698.113	0.0152827
698.192	0.0151473
698.270	0.0151990
698.348	0.0151986
698.426	0.0148934
698.504	0.0149689
698.582	0.0148267
698.660	0.0146231
698.738	0.0145428
698.817	0.0145058
698.895	0.0144176
698.973	0.0142799
699.051	0.0141166
699.129	0.0140508
699.207	0.0139137
699.285	0.0137803
699.363	0.0138426
699.442	0.0136082
699.520	0.0135734
699.598	0.0133604
699.676	0.0134815
699.754	0.0134622
699.832	0.0133331
699.910	0.0132895
699.988	0.0132439
700.067	0.0135013
700.145	0.0134425
700.223	0.0135501
700.301	0.0135275
700.379	0.0136858
700.457	0.0137843
700.535	0.0141257
700.613	0.0140914
700.692	0.0143047
700.770	0.0145160
700.848	0.0144801
700.926	0.0146529
701.004	0.0147851
701.082	0.0149468
701.160	0.0149866
701.238	0.0150897
701.317	0.0152443
701.395	0.0152382
701.473	0.0152390
701.551	0.0151736
701.629	0.0153445
701.707	0.0153465
701.785	0.0152407
701.863	0.0152636
701.942	0.0152466
702.020	0.0152369
702.098	0.0152966
702.176	0.0153529
702.254	0.0152200
702.332	0.0152197
702.410	0.0152652
702.488	0.0151131
702.567	0.0151758
702.645	0.0152023
702.723	0.0152660
702.801	0.0151958
702.879	0.0150391
702.957	0.0148463
703.035	0.0148513
703.113	0.0145992
703.192	0.0144544
703.270	0.0143404
703.348	0.0141457
703.426	0.0141271
703.504	0.0138916
703.582	0.0138335
703.660	0.0137775
703.738	0.0136739
703.817	0.0136249
703.895	0.0137260
703.973	0.0135733
704.051	0.0136325
704.129	0.0134918
704.207	0.0135929
704.285	0.0134522
704.363	0.0136349
704.442	0.0135738
704.520	0.0136939
704.598	0.0138028
704.676	0.0138855
704.754	0.0139062
704.832	0.0138538
704.910	0.0140357
704.988	0.0141731
705.067	0.0142019
705.145	0.0142491
705.223	0.0142943
705.301	0.0144964
705.379	0.0146009
705.457	0.0146893
705.535	0.0148548
705.613	0.0148248
705.692	0.0148567
705.770	0.0150748
705.848	0.0150347
705.926	0.0150716
706.004	0.0151472
706.082	0.0151774
706.160	0.0150105
706.238	0.0151789
706.317	0.0152585
706.395	0.0150858
706.473	0.0150726
706.551	0.0150185
706.629	0.0150262
706.707	0.0149840
706.785	0.0149234
706.863	0.0147628
706.942	0.0146606
707.020	0.0147839
707.098	0.0146863
707.176	0.0146081
707.254	0.0146822
707.332	0.0146262
707.410	0.0144872
707.488	0.0145410
707.567	0.0146877
707.645	0.0145424
707.723	0.0144849
707.801	0.0144901
707.879	0.0143896
707.957	0.0143539
708.035	0.0144398
708.113	0.0143880
708.192	0.0141904
708.270	0.0141542
708.348	0.0142196
708.426	0.0140738
708.504	0.0140676
708.582	0.0140802
708.660	0.0140141
708.738	0.0140508
708.817	0.0139965
708.895	0.0139030
708.973	0.0140775
709.051	0.0140382
709.129	0.0140758
709.207	0.0141013
709.285	0.0141324
709.363	0.0141557
709.442	0.0141696
709.520	0.0141490
709.598	0.0142739
709.676	0.0143690
709.754	0.0141879
709.832	0.0144309
709.910	0.0142778
709.988	0.0141935
710.067	0.0143191
710.145	0.0142181
710.223	0.0143348
710.301	0.0144341
710.379	0.0145834
710.457	0.0144900
710.535	0.0144903
710.613	0.0145091
710.692	0.0147189
710.770	0.0147717
710.848	0.0148504
710.926	0.0147339
711.004	0.0147768
711.082	0.0148276
711.160	0.0148853
711.238	0.0148339
711.317	0.0149344
711.395	0.0149422
711.473	0.0147717
711.551	0.0148011
711.629	0.0148877
711.707	0.0148343
711.785	0.0148693
711.863	0.0148535
711.942	0.0148157
712.020	0.0147558
712.098	0.0147166
712.176	0.0146103
712.254	0.0145531
712.332	0.0144862
712.410	0.0145547
712.488	0.0144048
712.567	0.0142926
712.645	0.0141045
712.723	0.0142121
712.801	0.0141359
712.879	0.0141971
712.957	0.0141473
713.035	0.0139796
713.113	0.0138984
713.192	0.0139581
713.270	0.0139886
713.348	0.0139420
713.426	0.0141236
713.504	0.0141467
713.582	0.0141206
713.660	0.0140725
713.738	0.0142482
713.817	0.0143105
713.895	0.0142705
713.973	0.0143899
714.051	0.0145328
714.129	0.0146181
714.207	0.0145261
714.285	0.0145665
714.363	0.0146806
714.442	0.0147005
714.520	0.0147041
714.598	0.0147497
714.676	0.0145975
714.754	0.0146555
714.832	0.0145565
714.910	0.0144965
714.988	0.0145393
715.067	0.0144634
715.145	0.0145628
715.223	0.0145807
715.301	0.0145431
715.379	0.0144633
715.457	0.0145138
715.535	0.0143976
715.613	0.0145884
715.692	0.0144345
715.770	0.0144926
715.848	0.0144342
715.926	0.0145659
716.004	0.0145277
716.082	0.0146263
716.160	0.0146227
716.238	0.0144260
716.317	0.0144898
716.395	0.0145586
716.473	0.0142854
716.551	0.0143848
716.629	0.0144799
716.707	0.0144550
716.785	0.0144311
716.863	0.0144924
716.942	0.0143216
717.020	0.0144196
717.098	0.0145769
717.176	0.0145811
717.254	0.0145135
717.332	0.0145044
717.410	0.0147516
717.488	0.0146658
717.567	0.0146090
717.645	0.0146843
717.723	0.0146670
717.801	0.0146706
717.879	0.0146149
717.957	0.0145444
718.035	0.0143328
718.113	0.0144105
718.192	0.0144491
718.270	0.0144571
718.348	0.0143668
718.426	0.0143764
718.504	0.0144634
718.582	0.0144755
718.660	0.0145654
718.738	0.0145402
718.817	0.0146480
718.895	0.0144325
718.973	0.0144663
719.051	0.0145058
719.129	0.0144522
719.207	0.0144013
719.285	0.0144220
719.363	0.0143816
719.442	0.0141491
719.520	0.0142590
719.598	0.0142623
719.676	0.0142245
719.754	0.0142426
719.832	0.0142955
719.910	0.0142278
719.988	0.0143010
720.067	0.0143392
720.145	0.0142190
720.223	0.0141841
720.301	0.0142397
720.379	0.0141932
720.457	0.0143658
720.535	0.0143867
720.613	0.0142773
720.692	0.0144272
720.770	0.0145280
720.848	0.0146198
720.926	0.0144547
721.004	0.0145152
721.082	0.0144162
721.160	0.0145181
721.238	0.0145532
721.317	0.0144300
721.395	0.0144003
721.473	0.0143402
721.551	0.0145239
721.629	0.0143864
721.707	0.0144731
721.785	0.0144575
721.863	0.0144565
721.942	0.0146239
722.020	0.0146555
722.098	0.0146890
722.176	0.0146502
722.254	0.0146484
722.332	0.0147717
722.410	0.0145794
722.488	0.0147189
722.567	0.0147890
722.645	0.0146207
722.723	0.0146171
722.801	0.0145609
722.879	0.0146348
722.957	0.0145634
723.035	0.0145872
723.113	0.0144875
723.192	0.0145070
723.270	0.0145429
723.348	0.0143996
723.426	0.0142820
723.504	0.0144262
723.582	0.0143059
723.660	0.0143935
723.738	0.0144473
723.817	0.0144263
723.895	0.0144480
723.973	0.0143435
724.051	0.0143825
724.129	0.0144940
724.207	0.0145004
724.285	0.0143770
724.363	0.0143800
724.442	0.0143723
724.520	0.0144143
724.598	0.0144441
724.676	0.0143970
724.754	0.0142999
724.832	0.0144449
724.910	0.0145558
724.988	0.0144831
725.067	0.0144106
725.145	0.0144855
725.223	0.0144000
725.301	0.0145040
725.379	0.0145576
725.457	0.0146198
725.535	0.0146018
725.613	0.0146037
725.692	0.0146098
725.770	0.0146761
725.848	0.0147307
725.926	0.0146528
726.004	0.0145457
726.082	0.0145559
726.160	0.0146159
726.238	0.0143204
726.317	0.0144086
726.395	0.0144411
726.473	0.0143919
726.551	0.0143984
726.629	0.0143563
726.707	0.0143944
726.785	0.0144151
726.863	0.0141740
726.942	0.0143448
727.020	0.0144503
727.098	0.0142583
727.176	0.0143048
727.254	0.0145072
727.332	0.0143214
727.410	0.0142473
727.488	0.0143812
727.567	0.0142504
727.645	0.0144498
727.723	0.0144611
727.801	0.0143835
727.879	0.0143892
727.957	0.0144757
728.035	0.0145390
728.113	0.0146208
728.192	0.0145882
728.270	0.0147249
728.348	0.0146146
728.426	0.0147762
728.504	0.0147041
728.582	0.0147511
728.660	0.0146263
728.738	0.0147323
728.817	0.0146010
728.895	0.0145715
728.973	0.0145098
729.051	0.0144113
729.129	0.0144681
729.207	0.0144665
729.285	0.0143402
729.363	0.0142326
729.442	0.0143604
729.520	0.0142493
729.598	0.0142281
729.676	0.0142422
729.754	0.0144118
729.832	0.0143983
729.910	0.0143414
729.988	0.0142179
730.067	0.0144849
730.145	0.0144704
730.223	0.0145763
730.301	0.0146352
730.379	0.0146561
730.457	0.0147021
730.535	0.0147240
730.613	0.0146417
730.692	0.0145923
730.770	0.0146188
730.848	0.0145951
730.926	0.0144130
731.004	0.0144556
731.082	0.0144281
731.160	0.0143437
731.238	0.0141740
731.317	0.0143339
731.395	0.0143230
731.473	0.0143144
731.551	0.0142516
731.629	0.0144155
731.707	0.0143509
731.785	0.0142741
731.863	0.0145570
731.942	0.0145050
732.020	0.0143925
732.098	0.0145460
732.176	0.0145594
732.254	0.0145826
732.332	0.0145846
732.410	0.0144484
732.488	0.0146329
732.567	0.0146875
732.645	0.0144928
732.723	0.0145988
732.801	0.0146970
732.879	0.0146523
732.957	0.0144713
733.035	0.0145529
733.113	0.0146686
733.192	0.0145069
733.270	0.0145812
733.348	0.0146439
733.426	0.0145135
733.504	0.0145161
733.582	0.0145635
733.660	0.0146206
733.738	0.0144290
733.817	0.0146082
733.895	0.0143504
733.973	0.0144727
734.051	0.0144540
734.129	0.0143555
734.207	0.0144722
734.285	0.0145020
734.363	0.0141975
734.442	0.0143658
734.520	0.0143403
734.598	0.0142447
734.676	0.0142715
734.754	0.0142654
734.832	0.0143240
734.910	0.0143594
734.988	0.0142451
735.067	0.0143494
735.145	0.0142970
735.223	0.0143298
735.301	0.0143169
735.379	0.0141931
735.457	0.0142257
735.535	0.0142311
735.613	0.0142409
735.692	0.0143824
735.770	0.0144706
735.848	0.0144724
735.926	0.0143850
736.004	0.0144613
736.082	0.0144532
736.160	0.0145689
736.238	0.0146506
736.317	0.0145059
736.395	0.0145313
736.473	0.0146294
736.551	0.0146382
736.629	0.0146777
736.707	0.0145573
736.785	0.0145921
736.863	0.0147024
736.942	0.0146471
737.020	0.0145200
737.098	0.0145395
737.176	0.0145931
737.254	0.0144801
737.332	0.0144471
737.410	0.0144612
737.488	0.0143681
737.567	0.0143837
737.645	0.0143736
737.723	0.0144730
737.801	0.0144220
737.879	0.0145990
737.957	0.0144514
738.035	0.0145540
738.113	0.0145521
738.192	0.0145879
738.270	0.0146556
738.348	0.0145412
738.426	0.0146692
738.504	0.0145131
738.582	0.0146579
738.660	0.0144888
738.738	0.0143938
738.817	0.0145081
738.895	0.0144608
738.973	0.0143343
739.051	0.0144872
739.129	0.0144158
739.207	0.0142072
739.285	0.0143343
739.363	0.0141022
739.442	0.0142069
739.520	0.0143186
739.598	0.0143079
739.676	0.0141578
739.754	0.0142091
739.832	0.0142191
739.910	0.0142423
739.988	0.0141071
740.067	0.0143028
740.145	0.0141560
740.223	0.0142548
740.301	0.0143087
740.379	0.0143976
740.457	0.0144054
740.535	0.0142921
740.613	0.0143026
740.692	0.0144968
740.770	0.0145856
740.848	0.0145223
740.926	0.0146602
741.004	0.0146124
741.082	0.0145260
741.160	0.0145810
741.238	0.0146935
741.317	0.0146931
741.395	0.0146252
741.473	0.0146204
741.551	0.0147070
741.629	0.0146183
741.707	0.0144900
741.785	0.0143546
741.863	0.0143870
741.942	0.0145841
742.020	0.0144391
742.098	0.0144167
742.176	0.0142129
742.254	0.0141753
742.332	0.0143572
742.410	0.0142406
742.488	0.0142551
742.567	0.0142339
742.645	0.0143332
742.723	0.0142878
742.801	0.0142202
742.879	0.0143858
742.957	0.0144052
743.035	0.0143103
743.113	0.0143327
743.192	0.0143002
743.270	0.0142934
743.348	0.0141479
743.426	0.0143483
743.504	0.0141718
743.582	0.0141249
743.660	0.0142921
743.738	0.0142661
743.817	0.0142023
743.895	0.0142140
743.973	0.0143470
744.051	0.0143660
744.129	0.0143534
744.207	0.0143546
744.285	0.0144475
744.363	0.0144994
744.442	0.0144720
744.520	0.0144869
744.598	0.0144840
744.676	0.0144984
744.754	0.0144494
744.832	0.0142918
744.910	0.0142791
744.988	0.0144162
745.067	0.0143995
745.145	0.0142645
745.223	0.0142931
745.301	0.0143071
745.379	0.0144204
745.457	0.0143813
745.535	0.0143749
745.613	0.0144054
745.692	0.0145612
745.770	0.0145731
745.848	0.0145619
745.926	0.0146507
746.004	0.0145084
746.082	0.0146706
746.160	0.0146598
746.238	0.0146223
746.317	0.0148087
746.395	0.0147012
746.473	0.0146654
746.551	0.0146742
746.629	0.0145833
746.707	0.0145618
746.785	0.0145119
746.863	0.0144299
746.942	0.0143288
747.020	0.0143894
747.098	0.0144144
747.176	0.0142532
747.254	0.0141950
747.332	0.0141178
747.410	0.0141524
747.488	0.0140802
747.567	0.0140835
747.645	0.0142596
747.723	0.0142363
747.801	0.0143126
747.879	0.0141428
747.957	0.0141732
748.035	0.0142322
748.113	0.0141557
748.192	0.0142628
748.270	0.0142474
748.348	0.0143539
748.426	0.0142889
748.504	0.0142644
748.582	0.0143772
748.660	0.0143797
748.738	0.0145478
748.817	0.0143571
748.895	0.0142802
748.973	0.0144544
749.051	0.0143121
749.129	0.0143983
749.207	0.0144521
749.285	0.0144255
749.363	0.0145474
749.442	0.0144640
749.520	0.0145891
749.598	0.0145596
749.676	0.0146249
749.754	0.0146161
749.832	0.0145731
749.910	0.0147009
749.988	0.0146520
750.067	0.0144912
750.145	0.0145455
750.223	0.0146036
750.301	0.0147247
750.379	0.0147176
750.457	0.0145983
750.535	0.0144802
750.613	0.0145334
750.692	0.0145788
750.770	0.0146439
750.848	0.0145785
750.926	0.0145808
751.004	0.0147205
751.082	0.0147387
751.160	0.0146798
751.238	0.0146404
751.317	0.0146117
751.395	0.0146393
751.473	0.0145149
751.551	0.0146955
751.629	0.0146479
751.707	0.0144864
751.785	0.0145219
751.863	0.0144878
751.942	0.0146684
752.020	0.0143990
752.098	0.0142842
752.176	0.0143111
752.254	0.0141750
752.332	0.0142541
752.410	0.0143504
752.488	0.0142866
752.567	0.0142525
752.645	0.0142626
752.723	0.0142448
752.801	0.0140765
752.879	0.0142832
752.957	0.0142610
753.035	0.0141586
753.113	0.0142612
753.192	0.0143008
753.270	0.0144497
753.348	0.0142680
753.426	0.0142793
753.504	0.0143347
753.582	0.0144689
753.660	0.0144482
753.738	0.0146011
753.817	0.0146340
753.895	0.0147662
753.973	0.0146892
754.051	0.0146747
754.129	0.0145872
754.207	0.0145752
754.285	0.0147106
754.363	0.0145885
754.442	0.0145125
754.520	0.0145505
754.598	0.0144850
754.676	0.0144237
754.754	0.0144966
754.832	0.0144763
754.910	0.0143936
754.988	0.0144731
755.067	0.0145534
755.145	0.0144131
755.223	0.0144654
755.301	0.0145609
755.379	0.0145773
755.457	0.0145769
755.535	0.0145778
755.613	0.0147272
755.692	0.0146745
755.770	0.0145890
755.848	0.0145518
755.926	0.0144958
756.004	0.0148491
756.082	0.0147009
756.160	0.0146697
756.238	0.0145076
756.317	0.0146552
756.395	0.0145102
756.473	0.0146111
756.551	0.0145417
756.629	0.0144431
756.707	0.0145022
756.785	0.0144492
756.863	0.0143497
756.942	0.0143734
757.020	0.0145908
757.098	0.0143448
757.176	0.0143729
757.254	0.0142957
757.332	0.0143793
757.410	0.0144217
757.488	0.0143736
757.567	0.0144238
757.645	0.0142803
757.723	0.0143106
757.801	0.0143182
757.879	0.0142347
757.957	0.0143064
758.035	0.0144288
758.113	0.0144142
758.192	0.0142873
758.270	0.0144379
758.348	0.0144049
758.426	0.0145133
758.504	0.0144426
758.582	0.0143960
758.660	0.0144476
758.738	0.0144540
758.817	0.0145049
758.895	0.0145341
758.973	0.0145805
759.051	0.0145315
759.129	0.0146320
759.207	0.0146983
759.285	0.0146937
759.363	0.0147759
759.442	0.0147655
759.520	0.0147977
759.598	0.0147686
759.676	0.0146132
759.754	0.0147472
759.832	0.0144725
759.910	0.0145303
759.988	0.0144756
760.067	0.0143597
760.145	0.0142623
760.223	0.0143966
760.301	0.0144004
760.379	0.0142249
760.457	0.0144250
760.535	0.0143946
760.613	0.0143871
760.692	0.0143028
760.770	0.0143442
760.848	0.0143020
760.926	0.0141982
761.004	0.0141980
761.082	0.0140855
761.160	0.0143288
761.238	0.0144350
761.317	0.0141986
761.395	0.0143053
761.473	0.0143574
761.551	0.0141455
761.629	0.0143120
761.707	0.0143473
761.785	0.0144335
761.863	0.0143829
761.942	0.0143267
762.020	0.0146406
762.098	0.0144706
762.176	0.0144197
762.254	0.0145541
762.332	0.0146707
762.410	0.0146577
762.488	0.0145964
762.567	0.0145982
762.645	0.0144779
762.723	0.0144811
762.801	0.0144996
762.879	0.0144959
762.957	0.0145416
763.035	0.0145589
763.113	0.0144585
763.192	0.0143171
763.270	0.0145080
763.348	0.0144518
763.426	0.0143481
763.504	0.0143510
763.582	0.0143423
763.660	0.0141946
763.738	0.0142409
763.817	0.0142531
763.895	0.0141788
763.973	0.0143327
764.051	0.0142742
764.129	0.0143173
764.207	0.0143204
764.285	0.0143332
764.363	0.0141467
764.442	0.0142842
764.520	0.0144667
764.598	0.0144048
764.676	0.0143768
764.754	0.0144658
764.832	0.0143018
764.910	0.0144386
764.988	0.0144513
765.067	0.0144668
765.145	0.0144114
765.223	0.0144245
765.301	0.0145084
765.379	0.0144543
765.457	0.0145727
765.535	0.0146233
765.613	0.0144503
765.692	0.0145163
765.770	0.0144759
765.848	0.0144656
765.926	0.0144427
766.004	0.0145797
766.082	0.0144136
766.160	0.0145140
766.238	0.0145259
766.317	0.0144007
766.395	0.0145265
766.473	0.0145357
766.551	0.0144836
766.629	0.0144561
766.707	0.0145464
766.785	0.0144823
766.863	0.0144623
766.942	0.0145837
767.020	0.0144546
767.098	0.0145435
767.176	0.0143937
767.254	0.0144489
767.332	0.0143927
767.410	0.0144165
767.488	0.0144508
767.567	0.0144502
767.645	0.0143748
767.723	0.0142909
767.801	0.0144543
767.879	0.0144234
767.957	0.0143600
768.035	0.0143407
768.113	0.0143382
768.192	0.0144361
768.270	0.0143716
768.348	0.0143071
768.426	0.0143696
768.504	0.0142894
768.582	0.0142284
768.660	0.0141377
768.738	0.0143502
768.817	0.0142174
768.895	0.0141965
768.973	0.0142287
769.051	0.0142091
769.129	0.0142599
769.207	0.0142427
769.285	0.0142628
769.363	0.0141784
769.442	0.0141190
769.520	0.0144820
769.598	0.0143651
769.676	0.0142924
769.754	0.0145221
769.832	0.0146541
769.910	0.0145122
769.988	0.0144376
770.067	0.0146413
770.145	0.0146594
770.223	0.0145248
770.301	0.0146249
770.379	0.0146827
770.457	0.0147263
770.535	0.0146424
770.613	0.0145972
770.692	0.0145293
770.770	0.0145592
770.848	0.0145065
770.926	0.0145406
771.004	0.0146251
771.082	0.0145811
771.160	0.0145683
771.238	0.0144497
771.317	0.0144293
771.395	0.0143867
771.473	0.0144604
771.551	0.0144080
771.629	0.0143262
771.707	0.0144237
771.785	0.0143619
771.863	0.0144513
771.942	0.0143268
772.020	0.0143974
772.098	0.0143801
772.176	0.0143526
772.254	0.0144623
772.332	0.0144466
772.410	0.0144715
772.488	0.0144143
772.567	0.0143406
772.645	0.0144408
772.723	0.0144989
772.801	0.0144495
772.879	0.0143583
772.957	0.0143439
773.035	0.0144789
773.113	0.0145435
773.192	0.0145384
773.270	0.0144986
773.348	0.0145737
773.426	0.0145188
773.504	0.0146514
773.582	0.0145869
773.660	0.0145380
773.738	0.0145672
773.817	0.0145268
773.895	0.0146315
773.973	0.0145944
774.051	0.0145980
774.129	0.0145609
774.207	0.0144249
774.285	0.0144893
774.363	0.0145200
774.442	0.0146664
774.520	0.0146293
774.598	0.0146832
774.676	0.0146967
774.754	0.0146541
774.832	0.0145052
774.910	0.0145695
774.988	0.0146430
775.067	0.0145570
775.145	0.0145460
775.223	0.0145977
775.301	0.0146510
775.379	0.0146044
775.457	0.0145262
775.535	0.0145707
775.613	0.0146126
775.692	0.0147163
775.770	0.0145768
775.848	0.0145570
775.926	0.0145891
776.004	0.0145659
776.082	0.0145068
776.160	0.0144444
776.238	0.0145569
776.317	0.0145084
776.395	0.0145048
776.473	0.0146338
776.551	0.0144558
776.629	0.0145113
776.707	0.0146826
776.785	0.0144197
776.863	0.0144506
776.942	0.0146286
777.020	0.0145316
777.098	0.0144591
777.176	0.0143919
777.254	0.0145145
777.332	0.0145322
777.410	0.0143863
777.488	0.0144551
777.567	0.0145381
777.645	0.0144778
777.723	0.0144582
777.801	0.0145192
777.879	0.0145450
777.957	0.0145395
778.035	0.0144132
778.113	0.0144867
778.192	0.0144726
778.270	0.0143537
778.348	0.0145044
778.426	0.0144855
778.504	0.0145022
778.582	0.0144826
778.660	0.0145586
778.738	0.0144145
778.817	0.0144424
778.895	0.0144340
778.973	0.0145108
779.051	0.0145354
779.129	0.0145966
779.207	0.0145129
779.285	0.0142654
779.363	0.0144350
779.442	0.0145065
779.520	0.0146015
779.598	0.0144904
779.676	0.0144132
779.754	0.0145997
779.832	0.0146696
779.910	0.0145676
779.988	0.0143743
780.067	0.0144312
780.145	0.0145311
780.223	0.0143049
780.301	0.0144717
780.379	0.0144959
780.457	0.0145396
780.535	0.0143399
780.613	0.0145599
780.692	0.0144268
780.770	0.0144933
780.848	0.0143828
780.926	0.0144448
781.004	0.0145610
781.082	0.0146185
781.160	0.0144556
781.238	0.0144709
781.317	0.0144145
781.395	0.0144321
781.473	0.0143695
781.551	0.0143913
781.629	0.0145485
781.707	0.0144721
781.785	0.0144688
781.863	0.0143995
781.942	0.0142680
782.020	0.0143921
782.098	0.0145055
782.176	0.0144298
782.254	0.0143686
782.332	0.0143700
782.410	0.0143821
782.488	0.0144284
782.567	0.0144579
782.645	0.0144702
782.723	0.0145180
782.801	0.0143788
782.879	0.0143237
782.957	0.0144596
783.035	0.0144306
783.113	0.0144563
783.192	0.0145465
783.270	0.0145866
783.348	0.0143682
783.426	0.0144487
783.504	0.0143616
783.582	0.0145686
783.660	0.0143938
783.738	0.0144827
783.817	0.0144102
783.895	0.0144342
783.973	0.0144311
784.051	0.0145912
784.129	0.0144572
784.207	0.0144071
784.285	0.0145048
784.363	0.0145744
784.442	0.0145949
784.520	0.0145739
784.598	0.0144828
784.676	0.0146349
784.754	0.0146495
784.832	0.0144260
784.910	0.0144721
784.988	0.0144711
785.067	0.0145409
785.145	0.0144475
785.223	0.0143418
785.301	0.0143323
785.379	0.0144067
785.457	0.0144794
785.535	0.0144939
785.613	0.0142909
785.692	0.0142706
785.770	0.0143524
785.848	0.0143512
785.926	0.0144524
786.004	0.0143110
786.082	0.0141512
786.160	0.0143549
786.238	0.0142444
786.317	0.0143282
786.395	0.0143362
786.473	0.0142844
786.551	0.0143212
786.629	0.0144256
786.707	0.0144539
786.785	0.0143747
786.863	0.0142735
786.942	0.0144147
787.020	0.0143303
787.098	0.0143431
787.176	0.0143500
787.254	0.0143768
787.332	0.0144968
787.410	0.0144535
787.488	0.0143864
787.567	0.0143268
787.645	0.0144830
787.723	0.0144895
787.801	0.0145452
787.879	0.0145454
787.957	0.0144448
788.035	0.0145401
788.113	0.0146127
788.192	0.0144407
788.270	0.0145656
788.348	0.0146732
788.426	0.0144538
788.504	0.0145277
788.582	0.0144925
788.660	0.0147610
788.738	0.0146648
788.817	0.0146299
788.895	0.0146684
788.973	0.0145665
789.051	0.0146709
789.129	0.0145641
789.207	0.0145529
789.285	0.0145008
789.363	0.0145041
789.442	0.0144966
789.520	0.0145262
789.598	0.0145589
789.676	0.0144849
789.754	0.0144491
789.832	0.0145335
789.910	0.0144985
789.988	0.0144405
790.067	0.0143945
790.145	0.0144802
790.223	0.0143810
790.301	0.0143478
790.379	0.0143508
790.457	0.0144250
790.535	0.0144006
790.613	0.0142700
790.692	0.0143605
790.770	0.0143485
790.848	0.0144292
790.926	0.0144307
791.004	0.0144485
791.082	0.0143188
791.160	0.0144767
791.238	0.0145181
791.317	0.0145302
791.395	0.0144772
791.473	0.0144527
791.551	0.0144936
791.629	0.0144720
791.707	0.0143710
791.785	0.0145712
791.863	0.0144711
791.942	0.0143708
792.020	0.0145415
792.098	0.0144613
792.176	0.0144885
792.254	0.0144044
792.332	0.0143620
792.410	0.0144846
792.488	0.0142285
792.567	0.0144434
792.645	0.0144012
792.723	0.0144812
792.801	0.0145552
792.879	0.0144421
792.957	0.0144093
793.035	0.0144183
793.113	0.0143446
793.192	0.0143512
793.270	0.0143947
793.348	0.0145009
793.426	0.0144693
793.504	0.0145604
793.582	0.0145004
793.660	0.0144744
793.738	0.0145955
793.817	0.0144964
793.895	0.0144967
793.973	0.0146178
794.051	0.0145526
794.129	0.0143875
794.207	0.0146053
794.285	0.0145804
794.363	0.0145580
794.442	0.0144946
794.520	0.0144016
794.598	0.0144501
794.676	0.0144013
794.754	0.0146676
794.832	0.0145258
794.910	0.0144833
794.988	0.0145414
795.067	0.0145233
795.145	0.0144602
795.223	0.0145782
795.301	0.0146063
795.379	0.0146172
795.457	0.0144433
795.535	0.0143750
795.613	0.0145906
795.692	0.0144423
795.770	0.0144250
795.848	0.0146869
795.926	0.0143377
796.004	0.0145253
796.082	0.0146632
796.160	0.0143308
796.238	0.0145452
796.317	0.0144772
796.395	0.0143994
796.473	0.0143899
796.551	0.0144965
796.629	0.0144796
796.707	0.0145393
796.785	0.0145763
796.863	0.0145007
796.942	0.0144540
797.020	0.0145874
797.098	0.0145292
797.176	0.0144423
797.254	0.0143031
797.332	0.0144495
797.410	0.0144984
797.488	0.0144430
797.567	0.0144650
797.645	0.0143746
797.723	0.0143027
797.801	0.0142637
797.879	0.0143875
797.957	0.0142968
798.035	0.0143213
798.113	0.0144688
798.192	0.0144134
798.270	0.0143620
798.348	0.0143362
798.426	0.0145074
798.504	0.0144659
798.582	0.0144835
798.660	0.0145074
798.738	0.0144975
798.817	0.0146104
798.895	0.0145528
798.973	0.0145702
799.051	0.0145921
799.129	0.0146869
799.207	0.0147856
799.285	0.0145684
799.363	0.0146623
799.442	0.0147225
799.520	0.0146929
799.598	0.0146380
799.676	0.0145683
799.754	0.0146749
799.832	0.0146049
799.910	0.0144566
799.988	0.0142945
800.067	0.0144827
800.145	0.0144511
800.223	0.0143842
800.301	0.0144517
800.379	0.0143639
800.457	0.0144798
800.535	0.0144147
800.613	0.0143456
800.692	0.0143139
800.770	0.0143880
800.848	0.0143822
800.926	0.0144066
801.004	0.0143006
801.082	0.0144244
801.160	0.0145378
801.238	0.0146717
801.317	0.0144492
801.395	0.0144591
801.473	0.0145473
801.551	0.0144834
801.629	0.0144837
801.707	0.0144391
801.785	0.0145415
801.863	0.0146009
801.942	0.0144250
802.020	0.0145686
802.098	0.0145041
802.176	0.0144791
802.254	0.0145755
802.332	0.0146471
802.410	0.0146065
802.488	0.0145307
802.567	0.0144814
802.645	0.0144621
802.723	0.0144582
802.801	0.0144940
802.879	0.0145184
802.957	0.0143369
803.035	0.0143414
803.113	0.0145026
803.192	0.0144060
803.270	0.0144337
803.348	0.0143093
803.426	0.0144084
803.504	0.0144831
803.582	0.0145260
803.660	0.0145116
803.738	0.0144398
803.817	0.0144515
803.895	0.0145039
803.973	0.0144440
804.051	0.0143227
804.129	0.0144350
804.207	0.0145148
804.285	0.0145419
804.363	0.0145222
804.442	0.0144238
804.520	0.0142836
804.598	0.0143874
804.676	0.0145771
804.754	0.0144724
804.832	0.0143021
804.910	0.0143687
804.988	0.0144494
805.067	0.0145203
805.145	0.0142485
805.223	0.0143267
805.301	0.0143267
805.379	0.0143783
805.457	0.0142926
805.535	0.0143414
805.613	0.0144370
805.692	0.0142778
805.770	0.0142606
805.848	0.0143121
805.926	0.0142110
806.004	0.0142834
806.082	0.0141619
806.160	0.0143883
806.238	0.0143020
806.317	0.0143484
806.395	0.0142914
806.473	0.0143305
806.551	0.0142009
806.629	0.0143378
806.707	0.0144694
806.785	0.0143634
806.863	0.0143755
806.942	0.0143044
807.020	0.0143545
807.098	0.0144343
807.176	0.0145012
807.254	0.0145808
807.332	0.0144312
807.410	0.0145924
807.488	0.0146230
807.567	0.0145599
807.645	0.0146523
807.723	0.0146193
807.801	0.0145703
807.879	0.0144186
807.957	0.0144611
808.035	0.0144915
808.113	0.0144371
808.192	0.0144685
808.270	0.0145167
808.348	0.0144042
808.426	0.0144719
808.504	0.0143986
808.582	0.0143518
808.660	0.0143836
808.738	0.0143727
808.817	0.0143802
808.895	0.0144760
808.973	0.0144029
809.051	0.0143484
809.129	0.0142307
809.207	0.0141551
809.285	0.0143041
809.363	0.0143901
809.442	0.0144240
809.520	0.0143142
809.598	0.0144367
809.676	0.0144109
809.754	0.0145316
809.832	0.0144875
809.910	0.0145859
809.988	0.0144961
810.067	0.0143881
810.145	0.0144162
810.223	0.0144521
810.301	0.0143358
810.379	0.0145126
810.457	0.0144220
810.535	0.0143337
810.613	0.0144497
810.692	0.0144847
810.770	0.0143728
810.848	0.0145378
810.926	0.0143334
811.004	0.0144227
811.082	0.0144238
811.160	0.0143602
811.238	0.0144062
811.317	0.0143163
811.395	0.0141437
811.473	0.0143657
811.551	0.0142814
811.629	0.0143213
811.707	0.0143541
811.785	0.0143847
811.863	0.0143695
811.942	0.0142786
812.020	0.0143406
812.098	0.0142733
812.176	0.0142744
812.254	0.0143042
812.332	0.0143077
812.410	0.0143167
812.488	0.0143967
812.567	0.0144389
812.645	0.0143650
812.723	0.0144300
812.801	0.0144852
812.879	0.0144635
812.957	0.0144781
813.035	0.0145384
813.113	0.0145242
813.192	0.0145656
813.270	0.0145306
813.348	0.0144768
813.426	0.0143999
813.504	0.0144837
813.582	0.0144983
813.660	0.0144206
813.738	0.0144083
813.817	0.0144038
813.895	0.0144677
813.973	0.0144798
814.051	0.0143289
814.129	0.0143774
814.207	0.0143925
814.285	0.0143922
814.363	0.0143773
814.442	0.0143158
814.520	0.0145080
814.598	0.0144626
814.676	0.0144973
814.754	0.0142596
814.832	0.0143391
814.910	0.0143011
814.988	0.0143523
815.067	0.0145193
815.145	0.0143884
815.223	0.0145171
815.301	0.0144853
815.379	0.0144316
815.457	0.0145596
815.535	0.0145840
815.613	0.0145619
815.692	0.0145042
815.770	0.0146214
815.848	0.0145768
815.926	0.0146793
816.004	0.0146007
816.082	0.0146172
816.160	0.0146345
816.238	0.0145675
816.317	0.0145644
816.395	0.0145048
816.473	0.0144458
816.551	0.0145325
816.629	0.0145486
816.707	0.0145475
816.785	0.0144926
816.863	0.0144792
816.942	0.0143404
817.020	0.0144389
817.098	0.0144824
817.176	0.0144669
817.254	0.0146008
817.332	0.0144666
817.410	0.0143910
817.488	0.0145812
817.567	0.0143929
817.645	0.0144218
817.723	0.0144402
817.801	0.0145515
817.879	0.0145845
817.957	0.0145175
818.035	0.0145432
818.113	0.0144517
818.192	0.0144224
818.270	0.0144858
818.348	0.0144331
818.426	0.0144936
818.504	0.0145192
818.582	0.0144829
818.660	0.0144815
818.738	0.0144956
818.817	0.0144939
818.895	0.0145184
818.973	0.0143674
819.051	0.0144164
819.129	0.0144454
819.207	0.0145434
819.285	0.0144958
819.363	0.0144090
819.442	0.0144650
819.520	0.0145175
819.598	0.0146193
819.676	0.0143844
819.754	0.0144536
819.832	0.0145187
819.910	0.0144697
819.988	0.0144583
820.067	0.0145096
820.145	0.0145703
820.223	0.0144637
820.301	0.0143885
820.379	0.0145592
820.457	0.0145308
820.535	0.0144167
820.613	0.0144650
820.692	0.0144526
820.770	0.0144568
820.848	0.0144801
820.926	0.0142973
821.004	0.0143879
821.082	0.0144312
821.160	0.0145515
821.238	0.0145222
821.317	0.0144389
821.395	0.0146303
821.473	0.0144838
821.551	0.0142966
821.629	0.0145156
821.707	0.0145510
821.785	0.0145335
821.863	0.0145066
821.942	0.0144765
822.020	0.0144529
822.098	0.0143637
822.176	0.0145930
822.254	0.0144942
822.332	0.0143786
822.410	0.0145261
822.488	0.0144666
822.567	0.0144126
822.645	0.0144328
822.723	0.0145747
822.801	0.0144565
822.879	0.0145623
822.957	0.0144541
823.035	0.0144274
823.113	0.0143328
823.192	0.0144644
823.270	0.0145350
823.348	0.0144200
823.426	0.0146967
823.504	0.0145115
823.582	0.0144939
823.660	0.0145071
823.738	0.0146198
823.817	0.0144849
823.895	0.0145553
823.973	0.0146446
824.051	0.0146582
824.129	0.0147028
824.207	0.0147412
824.285	0.0145485
824.363	0.0145868
824.442	0.0145494
824.520	0.0145069
824.598	0.0146967
824.676	0.0145682
824.754	0.0145566
824.832	0.0145950
824.910	0.0146140
824.988	0.0146362
825.067	0.0145072
825.145	0.0144024
825.223	0.0145504
825.301	0.0144397
825.379	0.0143360
825.457	0.0142950
825.535	0.0144621
825.613	0.0143511
825.692	0.0142465
825.770	0.0144324
825.848	0.0144127
825.926	0.0143295
826.004	0.0143272
826.082	0.0143970
826.160	0.0144250
826.238	0.0142334
826.317	0.0144191
826.395	0.0142897
826.473	0.0143523
826.551	0.0143806
826.629	0.0144724
826.707	0.0143880
826.785	0.0145040
826.863	0.0144839
826.942	0.0144666
827.020	0.0144090
827.098	0.0143577
827.176	0.0144443
827.254	0.0143090
827.332	0.0145193
827.410	0.0144456
827.488	0.0145961
827.567	0.0145371
827.645	0.0144532
827.723	0.0144466
827.801	0.0145295
827.879	0.0144411
827.957	0.0144273
828.035	0.0144584
828.113	0.0143223
828.192	0.0144386
828.270	0.0144492
828.348	0.0144263
828.426	0.0143809
828.504	0.0143694
828.582	0.0144350
828.660	0.0144087
828.738	0.0142418
828.817	0.0142646
828.895	0.0143640
828.973	0.0144708
829.051	0.0143771
829.129	0.0143345
829.207	0.0143947
829.285	0.0144627
829.363	0.0145978
829.442	0.0145080
829.520	0.0143884
829.598	0.0144066
829.676	0.0144335
829.754	0.0145762
829.832	0.0145808
829.910	0.0144747
829.988	0.0144937
830.067	0.0144109
830.145	0.0143777
830.223	0.0145699
830.301	0.0144554
830.379	0.0145495
830.457	0.0145538
830.535	0.0145354
830.613	0.0145159
830.692	0.0144719
830.770	0.0144508
830.848	0.0144033
830.926	0.0145306
831.004	0.0144902
831.082	0.0146062
831.160	0.0144753
831.238	0.0144756
831.317	0.0145348
831.395	0.0144331
831.473	0.0144945
831.551	0.0144984
831.629	0.0144945
831.707	0.0144354
831.785	0.0144379
831.863	0.0145949
831.942	0.0145182
832.020	0.0144725
832.098	0.0145097
832.176	0.0144693
832.254	0.0144966
832.332	0.0144288
832.410	0.0144530
832.488	0.0145370
832.567	0.0143523
832.645	0.0144283
832.723	0.0144596
832.801	0.0142749
832.879	0.0145143
832.957	0.0144384
833.035	0.0144981
833.113	0.0144315
833.192	0.0144367
833.270	0.0143869
833.348	0.0144029
833.426	0.0142068
833.504	0.0143051
833.582	0.0143636
833.660	0.0143128
833.738	0.0143141
833.817	0.0144128
833.895	0.0143227
833.973	0.0144756
834.051	0.0144938
834.129	0.0143464
834.207	0.0143827
834.285	0.0143828
834.363	0.0143047
834.442	0.0144258
834.520	0.0144764
834.598	0.0144483
834.676	0.0144937
834.754	0.0144169
834.832	0.0145046
834.910	0.0144189
834.988	0.0142329
835.067	0.0145560
835.145	0.0145459
835.223	0.0144040
835.301	0.0143821
835.379	0.0143909
835.457	0.0144774
835.535	0.0144115
835.613	0.0143237
835.692	0.0144977
835.770	0.0144218
835.848	0.0144808
835.926	0.0144004
836.004	0.0144053
836.082	0.0144270
836.160	0.0144939
836.238	0.0144948
836.317	0.0143812
836.395	0.0144080
836.473	0.0143999
836.551	0.0143270
836.629	0.0143102
836.707	0.0143024
836.785	0.0144167
836.863	0.0144054
836.942	0.0144069
837.020	0.0144913
837.098	0.0144075
837.176	0.0144338
837.254	0.0142340
837.332	0.0142880
837.410	0.0145348
837.488	0.0143854
837.567	0.0143026
837.645	0.0143287
837.723	0.0144427
837.801	0.0143539
837.879	0.0145049
837.957	0.0145026
838.035	0.0144344
838.113	0.0144674
838.192	0.0144942
838.270	0.0144811
838.348	0.0145766
838.426	0.0145685
838.504	0.0144270
838.582	0.0146044
838.660	0.0144891
838.738	0.0145459
838.817	0.0144687
838.895	0.0144389
838.973	0.0144427
839.051	0.0144960
839.129	0.0144695
839.207	0.0144802
839.285	0.0145081
839.363	0.0145576
839.442	0.0143996
839.520	0.0143851
839.598	0.0146069
839.676	0.0144677
839.754	0.0144322
839.832	0.0144756
839.910	0.0144108
839.988	0.0143439
840.067	0.0144693
840.145	0.0145890
840.223	0.0145066
840.301	0.0145234
840.379	0.0144195
840.457	0.0145422
840.535	0.0144901
840.613	0.0144065
840.692	0.0144892
840.770	0.0145626
840.848	0.0145162
840.926	0.0143339
841.004	0.0144428
841.082	0.0145095
841.160	0.0144028
841.238	0.0145102
841.317	0.0146418
841.395	0.0144474
841.473	0.0145692
841.551	0.0146199
841.629	0.0144641
841.707	0.0144479
841.785	0.0144561
841.863	0.0144272
841.942	0.0144955
842.020	0.0144374
842.098	0.0144011
842.176	0.0143770
842.254	0.0146027
842.332	0.0145029
842.410	0.0145575
842.488	0.0145065
842.567	0.0145579
842.645	0.0145719
842.723	0.0145522
842.801	0.0144764
842.879	0.0145568
842.957	0.0143762
843.035	0.0143623
843.113	0.0145008
843.192	0.0144141
843.270	0.0144117
843.348	0.0146485
843.426	0.0144941
843.504	0.0144498
843.582	0.0144306
843.660	0.0145633
843.738	0.0144178
843.817	0.0144257
843.895	0.0143840
843.973	0.0143953
844.051	0.0143769
844.129	0.0143699
844.207	0.0145074
844.285	0.0145373
844.363	0.0145038
844.442	0.0144675
844.520	0.0146037
844.598	0.0145087
844.676	0.0143988
844.754	0.0145273
844.832	0.0146368
844.910	0.0145924
844.988	0.0145287
845.067	0.0144646
845.145	0.0144352
845.223	0.0144010
845.301	0.0144041
845.379	0.0144420
845.457	0.0144420
845.535	0.0145998
845.613	0.0145557
845.692	0.0143690
845.770	0.0145684
845.848	0.0144855
845.926	0.0145570
846.004	0.0145721
846.082	0.0144651
846.160	0.0144796
846.238	0.0147567
846.317	0.0145210
846.395	0.0144468
846.473	0.0144146
846.551	0.0145095
846.629	0.0144791
846.707	0.0143736
846.785	0.0144707
846.863	0.0145412
846.942	0.0144069
847.020	0.0143990
847.098	0.0145377
847.176	0.0145123
847.254	0.0143193
847.332	0.0143519
847.410	0.0144534
847.488	0.0143749
847.567	0.0145103
847.645	0.0144175
847.723	0.0143503
847.801	0.0145419
847.879	0.0145478
847.957	0.0144465
848.035	0.0143840
848.113	0.0144365
848.192	0.0144344
848.270	0.0145779
848.348	0.0145265
848.426	0.0146498
848.504	0.0145479
848.582	0.0144499
848.660	0.0145287
848.738	0.0144878
848.817	0.0144388
848.895	0.0145106
848.973	0.0145214
849.051	0.0144907
849.129	0.0144364
849.207	0.0144694
849.285	0.0144559
849.363	0.0143652
849.442	0.0145238
849.520	0.0146046
849.598	0.0144824
849.676	0.0146223
849.754	0.0146299
849.832	0.0146010
849.910	0.0145883
849.988	0.0146100
850.067	0.0146052
850.145	0.0147004
850.223	0.0145538
850.301	0.0146877
850.379	0.0146834
850.457	0.0146192
850.535	0.0144649
850.613	0.0146299
850.692	0.0144555
850.770	0.0146043
850.848	0.0145581
850.926	0.0146004
851.004	0.0145426
851.082	0.0146136
851.160	0.0145280
851.238	0.0144498
851.317	0.0145858
851.395	0.0144077
851.473	0.0143840
851.551	0.0144759
851.629	0.0145914
851.707	0.0145572
851.785	0.0145382
851.863	0.0144775
851.942	0.0143912
852.020	0.0145151
852.098	0.0144708
852.176	0.0145008
852.254	0.0145580
852.332	0.0145473
852.410	0.0145832
852.488	0.0145055
852.567	0.0144232
852.645	0.0144596
852.723	0.0145141
852.801	0.0145051
852.879	0.0145805
852.957	0.0145211
853.035	0.0144678
853.113	0.0145513
853.192	0.0145016
853.270	0.0143665
853.348	0.0145750
853.426	0.0146223
853.504	0.0143728
853.582	0.0145023
853.660	0.0145267
853.738	0.0145726
853.817	0.0145222
853.895	0.0144356
853.973	0.0144435
854.051	0.0144968
854.129	0.0144845
854.207	0.0145769
854.285	0.0145164
854.363	0.0145724
854.442	0.0146171
854.520	0.0146132
854.598	0.0145308
854.676	0.0144775
854.754	0.0144300
854.832	0.0144724
854.910	0.0145314
854.988	0.0145470
855.067	0.0145791
855.145	0.0145988
855.223	0.0144135
855.301	0.0143889
855.379	0.0143631
855.457	0.0145307
855.535	0.0144374
855.613	0.0144690
855.692	0.0144385
855.770	0.0144244
855.848	0.0145476
855.926	0.0144443
856.004	0.0145166
856.082	0.0144541
856.160	0.0145403
856.238	0.0147332
856.317	0.0146647
856.395	0.0145397
856.473	0.0145881
856.551	0.0144962
856.629	0.0145641
856.707	0.0145259
856.785	0.0144583
856.863	0.0143362
856.942	0.0145137
857.020	0.0145587
857.098	0.0143736
857.176	0.0144167
857.254	0.0144231
857.332	0.0144330
857.410	0.0143234
857.488	0.0143151
857.567	0.0143564
857.645	0.0143951
857.723	0.0144136
857.801	0.0143566
857.879	0.0142746
857.957	0.0144208
858.035	0.0143880
858.113	0.0143620
858.192	0.0144520
858.270	0.0143868
858.348	0.0144119
858.426	0.0143802
858.504	0.0144380
858.582	0.0144538
858.660	0.0144376
858.738	0.0145303
858.817	0.0145391
858.895	0.0144546
858.973	0.0144754
859.051	0.0145462
859.129	0.0144778
859.207	0.0145497
859.285	0.0146105
859.363	0.0145931
859.442	0.0145411
859.520	0.0145331
859.598	0.0145280
859.676	0.0145697
859.754	0.0143973
859.832	0.0145656
859.910	0.0145215
859.988	0.0144429
860.067	0.0143488
860.145	0.0144106
860.223	0.0144740
860.301	0.0145334
860.379	0.0147098
860.457	0.0145705
860.535	0.0144955
860.613	0.0145427
860.692	0.0145826
860.770	0.0145494
860.848	0.0143889
860.926	0.0144927
861.004	0.0144028
861.082	0.0144335
861.160	0.0144774
861.238	0.0144643
861.317	0.0144746
861.395	0.0144524
861.473	0.0144715
861.551	0.0143573
861.629	0.0143694
861.707	0.0144405
861.785	0.0143459
861.863	0.0142797
861.942	0.0145769
862.020	0.0142622
862.098	0.0142226
862.176	0.0144763
862.254	0.0143401
862.332	0.0143305
862.410	0.0143533
862.488	0.0142773
862.567	0.0143319
862.645	0.0142700
862.723	0.0141696
862.801	0.0142046
862.879	0.0142576
862.957	0.0142293
863.035	0.0142631
863.113	0.0144676
863.192	0.0143415
863.270	0.0144254
863.348	0.0143464
863.426	0.0144492
863.504	0.0144086
863.582	0.0142513
863.660	0.0143748
863.738	0.0145216
863.817	0.0144006
863.895	0.0143514
863.973	0.0145573
864.051	0.0143939
864.129	0.0143946
864.207	0.0144292
864.285	0.0144690
864.363	0.0144465
864.442	0.0144796
864.520	0.0145004
864.598	0.0145016
864.676	0.0144995
864.754	0.0145803
864.832	0.0146058
864.910	0.0145715
864.988	0.0144093
865.067	0.0144930
865.145	0.0145288
865.223	0.0145770
865.301	0.0145635
865.379	0.0145924
865.457	0.0146136
865.535	0.0144942
865.613	0.0145841
865.692	0.0145519
865.770	0.0145657
865.848	0.0145332
865.926	0.0145967
866.004	0.0145853
866.082	0.0145216
866.160	0.0145513
866.238	0.0145030
866.317	0.0143270
866.395	0.0145534
866.473	0.0144580
866.551	0.0143095
866.629	0.0142457
866.707	0.0143616
866.785	0.0144359
866.863	0.0142569
866.942	0.0142986
867.020	0.0143340
867.098	0.0143977
867.176	0.0143860
867.254	0.0143000
867.332	0.0143470
867.410	0.0143591
867.488	0.0144041
867.567	0.0144319
867.645	0.0146312
867.723	0.0145635
867.801	0.0143858
867.879	0.0145676
867.957	0.0145914
868.035	0.0145743
868.113	0.0145364
868.192	0.0145432
868.270	0.0144346
868.348	0.0146935
868.426	0.0145793
868.504	0.0145252
868.582	0.0145838
868.660	0.0144305
868.738	0.0144470
868.817	0.0143771
868.895	0.0144230
868.973	0.0144534
869.051	0.0145589
869.129	0.0145790
869.207	0.0145350
869.285	0.0144752
869.363	0.0143720
869.442	0.0146117
869.520	0.0145157
869.598	0.0143771
869.676	0.0144353
869.754	0.0144946
869.832	0.0145939
869.910	0.0143639
869.988	0.0143256
870.067	0.0145323
870.145	0.0144429
870.223	0.0143590
870.301	0.0143665
870.379	0.0145599
870.457	0.0142854
870.535	0.0143700
870.613	0.0144945
870.692	0.0144934
870.770	0.0144849
870.848	0.0146173
870.926	0.0145136
871.004	0.0143874
871.082	0.0145773
871.160	0.0146422
871.238	0.0145355
871.317	0.0146294
871.395	0.0144539
871.473	0.0144018
871.551	0.0145423
871.629	0.0145935
871.707	0.0144952
871.785	0.0145422
871.863	0.0144649
871.942	0.0145164
872.020	0.0146735
872.098	0.0145526
872.176	0.0145442
872.254	0.0145282
872.332	0.0145589
872.410	0.0145408
872.488	0.0145496
872.567	0.0145925
872.645	0.0146273
872.723	0.0144537
872.801	0.0145163
872.879	0.0144335
872.957	0.0144028
873.035	0.0145486
873.113	0.0144054
873.192	0.0144576
873.270	0.0143602
873.348	0.0144430
873.426	0.0145442
873.504	0.0144339
873.582	0.0143787
873.660	0.0145284
873.738	0.0144039
873.817	0.0144402
873.895	0.0144093
873.973	0.0144207
874.051	0.0144657
874.129	0.0143607
874.207	0.0144736
874.285	0.0144556
874.363	0.0145396
874.442	0.0144398
874.520	0.0145361
874.598	0.0144891
874.676	0.0144491
874.754	0.0145059
874.832	0.0145127
874.910	0.0144053
874.988	0.0144685
875.067	0.0144637
875.145	0.0146143
875.223	0.0145837
875.301	0.0144536
875.379	0.0144878
875.457	0.0143578
875.535	0.0143751
875.613	0.0144527
875.692	0.0143589
875.770	0.0143958
875.848	0.0145374
875.926	0.0144753
876.004	0.0143851
876.082	0.0144405
876.160	0.0143880
876.238	0.0145091
876.317	0.0146111
876.395	0.0146118
876.473	0.0145698
876.551	0.0144701
876.629	0.0144679
876.707	0.0145454
876.785	0.0144710
876.863	0.0145083
876.942	0.0145278
877.020	0.0145848
877.098	0.0145542
877.176	0.0143903
877.254	0.0145274
877.332	0.0144601
877.410	0.0144836
877.488	0.0145848
877.567	0.0145039
877.645	0.0144689
877.723	0.0144402
877.801	0.0144524
877.879	0.0145473
877.957	0.0144272
878.035	0.0145287
878.113	0.0144157
878.192	0.0145452
878.270	0.0142298
878.348	0.0144549
878.426	0.0145805
878.504	0.0143813
878.582	0.0143925
878.660	0.0145329
878.738	0.0144936
878.817	0.0144686
878.895	0.0145258
878.973	0.0144429
879.051	0.0145457
879.129	0.0145776
879.207	0.0145305
879.285	0.0144022
879.363	0.0144671
879.442	0.0145141
879.520	0.0145310
879.598	0.0144147
879.676	0.0145661
879.754	0.0146693
879.832	0.0145489
879.910	0.0145843
879.988	0.0145786
880.067	0.0145199
880.145	0.0145071
880.223	0.0144907
880.301	0.0145664
880.379	0.0145534
880.457	0.0144549
880.535	0.0146111
880.613	0.0145929
880.692	0.0145406
880.770	0.0145644
880.848	0.0143999
880.926	0.0143447
881.004	0.0144967
881.082	0.0145510
881.160	0.0144208
881.238	0.0144714
881.317	0.0145010
881.395	0.0144473
881.473	0.0145592
881.551	0.0144499
881.629	0.0145726
881.707	0.0144618
881.785	0.0144600
881.863	0.0144451
881.942	0.0144862
882.020	0.0144992
882.098	0.0145432
882.176	0.0145233
882.254	0.0144869
882.332	0.0145706
882.410	0.0144996
882.488	0.0145229
882.567	0.0145043
882.645	0.0145381
882.723	0.0144778
882.801	0.0145601
882.879	0.0145655
882.957	0.0145583
883.035	0.0145834
883.113	0.0146012
883.192	0.0146185
883.270	0.0144361
883.348	0.0146129
883.426	0.0144307
883.504	0.0144379
883.582	0.0144764
883.660	0.0144135
883.738	0.0143497
883.817	0.0143645
883.895	0.0144125
883.973	0.0144202
884.051	0.0144037
884.129	0.0142944
884.207	0.0143027
884.285	0.0145276
884.363	0.0145737
884.442	0.0143961
884.520	0.0143571
884.598	0.0144852
884.676	0.0144907
884.754	0.0144208
884.832	0.0144509
884.910	0.0143061
884.988	0.0144690
885.067	0.0145501
885.145	0.0142847
885.223	0.0143721
885.301	0.0144614
885.379	0.0143301
885.457	0.0144363
885.535	0.0143401
885.613	0.0142191
885.692	0.0142769
885.770	0.0144878
885.848	0.0143074
885.926	0.0143913
886.004	0.0144627
886.082	0.0143567
886.160	0.0144691
886.238	0.0144762
886.317	0.0143533
886.395	0.0144378
886.473	0.0145037
886.551	0.0144495
886.629	0.0146421
886.707	0.0143704
886.785	0.0143571
886.863	0.0144990
886.942	0.0143783
887.020	0.0144299
887.098	0.0143978
887.176	0.0143814
887.254	0.0143861
887.332	0.0144219
887.410	0.0145969
887.488	0.0144656
887.567	0.0144547
887.645	0.0142851
887.723	0.0144739
887.801	0.0144536
887.879	0.0144923
887.957	0.0143937
888.035	0.0142880
888.113	0.0143661
888.192	0.0144534
888.270	0.0144793
888.348	0.0144486
888.426	0.0144241
888.504	0.0144653
888.582	0.0144901
888.660	0.0143859
888.738	0.0145306
888.817	0.0145851
888.895	0.0145957
888.973	0.0145193
889.051	0.0144749
889.129	0.0145845
889.207	0.0145080
889.285	0.0144197
889.363	0.0144551
889.442	0.0144311
889.520	0.0144528
889.598	0.0144382
889.676	0.0144697
889.754	0.0144427
889.832	0.0144487
889.910	0.0142959
889.988	0.0144756
890.067	0.0144822
890.145	0.0144753
890.223	0.0143136
890.301	0.0143397
890.379	0.0143959
890.457	0.0144312
890.535	0.0143804
890.613	0.0142777
890.692	0.0142253
890.770	0.0143378
890.848	0.0141682
890.926	0.0142732
891.004	0.0141784
891.082	0.0142789
891.160	0.0143689
891.238	0.0141484
891.317	0.0141788
891.395	0.0142152
891.473	0.0143113
891.551	0.0143225
891.629	0.0143227
891.707	0.0142487
891.785	0.0143594
891.863	0.0143587
891.942	0.0143376
892.020	0.0143821
892.098	0.0143661
892.176	0.0143473
892.254	0.0144350
892.332	0.0145502
892.410	0.0145185
892.488	0.0144308
892.567	0.0144585
892.645	0.0144835
892.723	0.0145636
892.801	0.0144141
892.879	0.0143443
892.957	0.0144865
893.035	0.0145158
893.113	0.0145219
893.192	0.0143923
893.270	0.0144194
893.348	0.0143596
893.426	0.0143446
893.504	0.0144840
893.582	0.0143658
893.660	0.0145147
893.738	0.0145240
893.817	0.0144001
893.895	0.0143732
893.973	0.0144443
894.051	0.0143249
894.129	0.0143674
894.207	0.0144625
894.285	0.0144279
894.363	0.0144506
894.442	0.0144370
894.520	0.0144398
894.598	0.0144207
894.676	0.0143728
894.754	0.0142200
894.832	0.0143767
894.910	0.0142798
894.988	0.0142889
895.067	0.0143828
895.145	0.0144850
895.223	0.0143536
895.301	0.0144154
895.379	0.0143460
895.457	0.0143208
895.535	0.0143412
895.613	0.0143332
895.692	0.0143449
895.770	0.0144289
895.848	0.0143655
895.926	0.0144021
896.004	0.0144967
896.082	0.0144613
896.160	0.0144258
896.238	0.0145220
896.317	0.0145161
896.395	0.0143301
896.473	0.0145020
896.551	0.0145853
896.629	0.0145966
896.707	0.0143666
896.785	0.0144569
896.863	0.0145449
896.942	0.0145450
897.020	0.0145875
897.098	0.0145419
897.176	0.0145631
897.254	0.0145494
897.332	0.0145190
897.410	0.0146507
897.488	0.0146003
897.567	0.0145339
897.645	0.0144743
897.723	0.0145116
897.801	0.0146129
897.879	0.0145428
897.957	0.0146862
898.035	0.0145496
898.113	0.0145828
898.192	0.0145791
898.270	0.0144877
898.348	0.0144479
898.426	0.0144707
898.504	0.0145642
898.582	0.0143626
898.660	0.0144833
898.738	0.0144975
898.817	0.0143839
898.895	0.0142876
898.973	0.0144602
899.051	0.0145284
899.129	0.0143945
899.207	0.0143584
899.285	0.0144061
899.363	0.0143887
899.442	0.0143895
899.520	0.0143202
899.598	0.0144502
899.676	0.0143664
899.754	0.0144155
899.832	0.0144326
899.910	0.0144171
899.988	0.0142984
900.067	0.0144403
900.145	0.0144195
900.223	0.0144630
900.301	0.0142738
900.379	0.0144833
900.457	0.0144856
900.535	0.0144736
900.613	0.0144859
900.692	0.0143407
900.770	0.0145222
900.848	0.0145383
900.926	0.0145176
901.004	0.0146111
901.082	0.0144939
901.160	0.0145461
901.238	0.0144781
901.317	0.0144280
901.395	0.0146274
901.473	0.0145177
901.551	0.0144636
901.629	0.0146045
901.707	0.0145663
901.785	0.0144984
901.863	0.0145683
901.942	0.0146166
902.020	0.0144890
902.098	0.0144179
902.176	0.0144942
902.254	0.0144101
902.332	0.0144833
902.410	0.0145964
902.488	0.0145164
902.567	0.0146078
902.645	0.0145629
902.723	0.0145935
902.801	0.0146261
902.879	0.0145018
902.957	0.0145846
903.035	0.0144482
903.113	0.0144707
903.192	0.0145824
903.270	0.0144756
903.348	0.0145695
903.426	0.0145230
903.504	0.0145623
903.582	0.0146341
903.660	0.0144632
903.738	0.0145041
903.817	0.0145454
903.895	0.0144152
903.973	0.0145661
904.051	0.0146274
904.129	0.0147596
904.207	0.0145046
904.285	0.0144543
904.363	0.0143320
904.442	0.0145132
904.520	0.0145967
904.598	0.0144852
904.676	0.0144068
904.754	0.0143439
904.832	0.0144883
904.910	0.0143951
904.988	0.0144679
905.067	0.0144698
905.145	0.0144252
905.223	0.0145226
905.301	0.0144942
905.379	0.0143810
905.457	0.0144710
905.535	0.0144724
905.613	0.0144839
905.692	0.0144278
905.770	0.0144543
905.848	0.0144778
905.926	0.0144833
906.004	0.0144432
906.082	0.0145281
906.160	0.0146102
906.238	0.0145608
906.317	0.0144731
906.395	0.0145334
906.473	0.0144514
906.551	0.0145065
906.629	0.0145994
906.707	0.0144328
906.785	0.0145808
906.863	0.0143732
906.942	0.0144143
907.020	0.0145378
907.098	0.0143943
907.176	0.0144060
907.254	0.0144373
907.332	0.0144389
907.410	0.0144076
907.488	0.0143693
907.567	0.0144284
907.645	0.0144437
907.723	0.0143577
907.801	0.0143645
907.879	0.0145254
907.957	0.0144787
908.035	0.0143650
908.113	0.0143819
908.192	0.0143098
908.270	0.0143565
908.348	0.0143193
908.426	0.0142107
908.504	0.0142539
908.582	0.0143704
908.660	0.0143829
908.738	0.0142317
908.817	0.0144191
908.895	0.0144529
908.973	0.0143736
909.051	0.0144200
909.129	0.0144527
909.207	0.0144984
909.285	0.0145428
909.363	0.0145155
909.442	0.0143483
909.520	0.0144993
909.598	0.0145934
909.676	0.0146157
909.754	0.0145689
909.832	0.0143327
909.910	0.0144852
909.988	0.0145565
910.067	0.0144986
910.145	0.0145160
910.223	0.0144949
910.301	0.0144752
910.379	0.0144319
910.457	0.0143538
910.535	0.0145154
910.613	0.0144186
910.692	0.0142725
910.770	0.0144182
910.848	0.0144534
910.926	0.0143706
911.004	0.0143641
911.082	0.0144422
911.160	0.0143382
911.238	0.0142886
911.317	0.0143366
911.395	0.0141977
911.473	0.0144112
911.551	0.0141808
911.629	0.0143161
911.707	0.0143575
911.785	0.0142500
911.863	0.0143325
911.942	0.0143931
912.020	0.0142893
912.098	0.0143827
912.176	0.0144254
912.254	0.0143253
912.332	0.0144534
912.410	0.0144866
912.488	0.0144450
912.567	0.0144782
912.645	0.0146458
912.723	0.0145194
912.801	0.0145406
912.879	0.0146090
912.957	0.0146651
913.035	0.0144903
913.113	0.0144648
913.192	0.0145050
913.270	0.0145530
913.348	0.0145634
913.426	0.0146171
913.504	0.0145364
913.582	0.0145889
913.660	0.0145421
913.738	0.0144244
913.817	0.0144186
913.895	0.0144579
913.973	0.0145728
914.051	0.0146120
914.129	0.0144538
914.207	0.0144434
914.285	0.0144572
914.363	0.0144281
914.442	0.0144633
914.520	0.0144879
914.598	0.0143703
914.676	0.0144489
914.754	0.0143444
914.832	0.0143477
914.910	0.0145064
914.988	0.0144092
915.067	0.0144292
915.145	0.0142715
915.223	0.0144017
915.301	0.0144653
915.379	0.0142677
915.457	0.0143952
915.535	0.0142516
915.613	0.0144178
915.692	0.0143102
915.770	0.0141859
915.848	0.0142146
915.926	0.0142905
916.004	0.0141963
916.082	0.0143855
916.160	0.0143192
916.238	0.0142701
916.317	0.0142896
916.395	0.0142701
916.473	0.0143420
916.551	0.0143693
916.629	0.0142820
916.707	0.0142744
916.785	0.0143855
916.863	0.0144557
916.942	0.0144243
917.020	0.0143575
917.098	0.0145049
917.176	0.0144574
917.254	0.0145020
917.332	0.0145899
917.410	0.0143885
917.488	0.0145956
917.567	0.0144379
917.645	0.0144512
917.723	0.0145058
917.801	0.0146119
917.879	0.0146593
917.957	0.0143951
918.035	0.0144950
918.113	0.0145836
918.192	0.0144757
918.270	0.0145113
918.348	0.0145037
918.426	0.0144995
918.504	0.0143486
918.582	0.0144796
918.660	0.0146231
918.738	0.0144921
918.817	0.0145679
918.895	0.0145541
918.973	0.0144551
919.051	0.0144134
919.129	0.0146624
919.207	0.0145744
919.285	0.0146095
919.363	0.0144666
919.442	0.0144866
919.520	0.0145978
919.598	0.0144997
919.676	0.0144483
919.754	0.0143863
919.832	0.0145371
919.910	0.0146555
