05/28/2022	14:16:01	Ver.	4.1	UNKNOWN
Optical Delay	599.988409	Delta X		0.078125	Sweeps	1	Scan Rate	0/0
Coordinates	Axis 1	NaN	Axis 2	NaN	Axis 3	NaN	Axis 4	NaN	Axis 5	NaN	Axis 6	0.000000
TX Power	0.000000	RX Power	0.000000

599.988	0.0142610
600.067	0.0143170
600.145	0.0143491
600.223	0.0142401
600.301	0.0142924
600.379	0.0143456
600.457	0.0142264
600.535	0.0142971
600.613	0.0142864
600.692	0.0142548
600.770	0.0144023
600.848	0.0142524
600.926	0.0142379
601.004	0.0142945
601.082	0.0142181
601.160	0.0142883
601.238	0.0143563
601.317	0.0141950
601.395	0.0142088
601.473	0.0142442
601.551	0.0142115
601.629	0.0140743
601.707	0.0142445
601.785	0.0143724
601.863	0.0142002
601.942	0.0143975
602.020	0.0143140
602.098	0.0142593
602.176	0.0143878
602.254	0.0141613
602.332	0.0142931
602.410	0.0143131
602.488	0.0142192
602.567	0.0143082
602.645	0.0143147
602.723	0.0142768
602.801	0.0143015
602.879	0.0140955
602.957	0.0143030
603.035	0.0142097
603.113	0.0142760
603.192	0.0142975
603.270	0.0142451
603.348	0.0141553
603.426	0.0141779
603.504	0.0142480
603.582	0.0143382
603.660	0.0142644
603.738	0.0142150
603.817	0.0142030
603.895	0.0141685
603.973	0.0142413
604.051	0.0143218
604.129	0.0142085
604.207	0.0141467
604.285	0.0141814
604.363	0.0143024
604.442	0.0141576
604.520	0.0142400
604.598	0.0142094
604.676	0.0142860
604.754	0.0143169
604.832	0.0142361
604.910	0.0141702
604.988	0.0143179
605.067	0.0141562
605.145	0.0141894
605.223	0.0143741
605.301	0.0142555
605.379	0.0142918
605.457	0.0144209
605.535	0.0142355
605.613	0.0142706
605.692	0.0142680
605.770	0.0142348
605.848	0.0143008
605.926	0.0142643
606.004	0.0142302
606.082	0.0141678
606.160	0.0142776
606.238	0.0142865
606.317	0.0142480
606.395	0.0141411
606.473	0.0142701
606.551	0.0142252
606.629	0.0143233
606.707	0.0140495
606.785	0.0142647
606.863	0.0143125
606.942	0.0141535
607.020	0.0140840
607.098	0.0142934
607.176	0.0142386
607.254	0.0142227
607.332	0.0141670
607.410	0.0141237
607.488	0.0142069
607.567	0.0143548
607.645	0.0140961
607.723	0.0140773
607.801	0.0141633
607.879	0.0143221
607.957	0.0141940
608.035	0.0140495
608.113	0.0141696
608.192	0.0142183
608.270	0.0141557
608.348	0.0142918
608.426	0.0142558
608.504	0.0141151
608.582	0.0142307
608.660	0.0141896
608.738	0.0141618
608.817	0.0142528
608.895	0.0142754
608.973	0.0142249
609.051	0.0142616
609.129	0.0142032
609.207	0.0140702
609.285	0.0141530
609.363	0.0141696
609.442	0.0142150
609.520	0.0142780
609.598	0.0140952
609.676	0.0141174
609.754	0.0142314
609.832	0.0140635
609.910	0.0143130
609.988	0.0142916
610.067	0.0141943
610.145	0.0142471
610.223	0.0142476
610.301	0.0142561
610.379	0.0141682
610.457	0.0141011
610.535	0.0142644
610.613	0.0141425
610.692	0.0141950
610.770	0.0142256
610.848	0.0143156
610.926	0.0142936
611.004	0.0141949
611.082	0.0142094
611.160	0.0142968
611.238	0.0140524
611.317	0.0142499
611.395	0.0142324
611.473	0.0141599
611.551	0.0142293
611.629	0.0142451
611.707	0.0142393
611.785	0.0141438
611.863	0.0141774
611.942	0.0142205
612.020	0.0142220
612.098	0.0141148
612.176	0.0142759
612.254	0.0141145
612.332	0.0141218
612.410	0.0142149
612.488	0.0141706
612.567	0.0142918
612.645	0.0143611
612.723	0.0141084
612.801	0.0140199
612.879	0.0142631
612.957	0.0142526
613.035	0.0142824
613.113	0.0143185
613.192	0.0143525
613.270	0.0142226
613.348	0.0142224
613.426	0.0142250
613.504	0.0141618
613.582	0.0144198
613.660	0.0143620
613.738	0.0142400
613.817	0.0141576
613.895	0.0142458
613.973	0.0143118
614.051	0.0141808
614.129	0.0141366
614.207	0.0140916
614.285	0.0141998
614.363	0.0142665
614.442	0.0143287
614.520	0.0141904
614.598	0.0141526
614.676	0.0143107
614.754	0.0141924
614.832	0.0141148
614.910	0.0140793
614.988	0.0141357
615.067	0.0142059
615.145	0.0140673
615.223	0.0141216
615.301	0.0141665
615.379	0.0143002
615.457	0.0142076
615.535	0.0142747
615.613	0.0142350
615.692	0.0142025
615.770	0.0141039
615.848	0.0141434
615.926	0.0142868
616.004	0.0143249
616.082	0.0142136
616.160	0.0142318
616.238	0.0143281
616.317	0.0142783
616.395	0.0143027
616.473	0.0142948
616.551	0.0142936
616.629	0.0142821
616.707	0.0142879
616.785	0.0142857
616.863	0.0141960
616.942	0.0142605
617.020	0.0141713
617.098	0.0142213
617.176	0.0144394
617.254	0.0142882
617.332	0.0141696
617.410	0.0141956
617.488	0.0141799
617.567	0.0141719
617.645	0.0142796
617.723	0.0141382
617.801	0.0141927
617.879	0.0141540
617.957	0.0142399
618.035	0.0141969
618.113	0.0141216
618.192	0.0141517
618.270	0.0142637
618.348	0.0141573
618.426	0.0141841
618.504	0.0141272
618.582	0.0143488
618.660	0.0143790
618.738	0.0142591
618.817	0.0142094
618.895	0.0141377
618.973	0.0142100
619.051	0.0143396
619.129	0.0142133
619.207	0.0141425
619.285	0.0140780
619.363	0.0141853
619.442	0.0143007
619.520	0.0142764
619.598	0.0141678
619.676	0.0143383
619.754	0.0141795
619.832	0.0142673
619.910	0.0142038
619.988	0.0142077
620.067	0.0141325
620.145	0.0142503
620.223	0.0144044
620.301	0.0142403
620.379	0.0141833
620.457	0.0143213
620.535	0.0141917
620.613	0.0142648
620.692	0.0142092
620.770	0.0142988
620.848	0.0140952
620.926	0.0143419
621.004	0.0142744
621.082	0.0141451
621.160	0.0140740
621.238	0.0142553
621.317	0.0142086
621.395	0.0142082
621.473	0.0142509
621.551	0.0143795
621.629	0.0141340
621.707	0.0142809
621.785	0.0142879
621.863	0.0142248
621.942	0.0141901
622.020	0.0141807
622.098	0.0141901
622.176	0.0142434
622.254	0.0142815
622.332	0.0142345
622.410	0.0141917
622.488	0.0142080
622.567	0.0142527
622.645	0.0141938
622.723	0.0142557
622.801	0.0142303
622.879	0.0141541
622.957	0.0142486
623.035	0.0142537
623.113	0.0143243
623.192	0.0141000
623.270	0.0141747
623.348	0.0142832
623.426	0.0142022
623.504	0.0142289
623.582	0.0142319
623.660	0.0142117
623.738	0.0142095
623.817	0.0144141
623.895	0.0142587
623.973	0.0141129
624.051	0.0142812
624.129	0.0142465
624.207	0.0143063
624.285	0.0141701
624.363	0.0141700
624.442	0.0142713
624.520	0.0142266
624.598	0.0143279
624.676	0.0143620
624.754	0.0142951
624.832	0.0143469
624.910	0.0141916
624.988	0.0142496
625.067	0.0143019
625.145	0.0143008
625.223	0.0142700
625.301	0.0144019
625.379	0.0142403
625.457	0.0141792
625.535	0.0142518
625.613	0.0142226
625.692	0.0142654
625.770	0.0142661
625.848	0.0143680
625.926	0.0141041
626.004	0.0142242
626.082	0.0143046
626.160	0.0141034
626.238	0.0141910
626.317	0.0143605
626.395	0.0142664
626.473	0.0141218
626.551	0.0140854
626.629	0.0143035
626.707	0.0142959
626.785	0.0141766
626.863	0.0142429
626.942	0.0143040
627.020	0.0141359
627.098	0.0141679
627.176	0.0142148
627.254	0.0142270
627.332	0.0141585
627.410	0.0142119
627.488	0.0143817
627.567	0.0141421
627.645	0.0142544
627.723	0.0142247
627.801	0.0141721
627.879	0.0142396
627.957	0.0142278
628.035	0.0142133
628.113	0.0142530
628.192	0.0142440
628.270	0.0141311
628.348	0.0143235
628.426	0.0141222
628.504	0.0142361
628.582	0.0143031
628.660	0.0141501
628.738	0.0141283
628.817	0.0141374
628.895	0.0141262
628.973	0.0142213
629.051	0.0142923
629.129	0.0141241
629.207	0.0141084
629.285	0.0143481
629.363	0.0141660
629.442	0.0141178
629.520	0.0141405
629.598	0.0142551
629.676	0.0142407
629.754	0.0140886
629.832	0.0142977
629.910	0.0142767
629.988	0.0143760
630.067	0.0141345
630.145	0.0141250
630.223	0.0142983
630.301	0.0143642
630.379	0.0141228
630.457	0.0141159
630.535	0.0141486
630.613	0.0141655
630.692	0.0142538
630.770	0.0143912
630.848	0.0141795
630.926	0.0142509
631.004	0.0143062
631.082	0.0141316
631.160	0.0143412
631.238	0.0143177
631.317	0.0142786
631.395	0.0142080
631.473	0.0143288
631.551	0.0143437
631.629	0.0142574
631.707	0.0142451
631.785	0.0143435
631.863	0.0143195
631.942	0.0141790
632.020	0.0143569
632.098	0.0143364
632.176	0.0142542
632.254	0.0141498
632.332	0.0141520
632.410	0.0141792
632.488	0.0141446
632.567	0.0142784
632.645	0.0143620
632.723	0.0142298
632.801	0.0142080
632.879	0.0142673
632.957	0.0141626
633.035	0.0143110
633.113	0.0141108
633.192	0.0141635
633.270	0.0142249
633.348	0.0143066
633.426	0.0141371
633.504	0.0142744
633.582	0.0142556
633.660	0.0142313
633.738	0.0141383
633.817	0.0142670
633.895	0.0143259
633.973	0.0143478
634.051	0.0143217
634.129	0.0142479
634.207	0.0142471
634.285	0.0142419
634.363	0.0143477
634.442	0.0142397
634.520	0.0142973
634.598	0.0144102
634.676	0.0142312
634.754	0.0142466
634.832	0.0143851
634.910	0.0142114
634.988	0.0142000
635.067	0.0142548
635.145	0.0141168
635.223	0.0142416
635.301	0.0143898
635.379	0.0143953
635.457	0.0143280
635.535	0.0142804
635.613	0.0141407
635.692	0.0141833
635.770	0.0142030
635.848	0.0142134
635.926	0.0141715
636.004	0.0143194
636.082	0.0142654
636.160	0.0142735
636.238	0.0141414
636.317	0.0141098
636.395	0.0141946
636.473	0.0142780
636.551	0.0142165
636.629	0.0140922
636.707	0.0142782
636.785	0.0142718
636.863	0.0141949
636.942	0.0140845
637.020	0.0142632
637.098	0.0143433
637.176	0.0142893
637.254	0.0142218
637.332	0.0141303
637.410	0.0143760
637.488	0.0142961
637.567	0.0143228
637.645	0.0141824
637.723	0.0141508
637.801	0.0141368
637.879	0.0141236
637.957	0.0142476
638.035	0.0142197
638.113	0.0143276
638.192	0.0143120
638.270	0.0143411
638.348	0.0144273
638.426	0.0143870
638.504	0.0142609
638.582	0.0142517
638.660	0.0142424
638.738	0.0141701
638.817	0.0142921
638.895	0.0143741
638.973	0.0141722
639.051	0.0142277
639.129	0.0142927
639.207	0.0142931
639.285	0.0141972
639.363	0.0144382
639.442	0.0143344
639.520	0.0141817
639.598	0.0142879
639.676	0.0142561
639.754	0.0142680
639.832	0.0143499
639.910	0.0142455
639.988	0.0143210
640.067	0.0142735
640.145	0.0142088
640.223	0.0142317
640.301	0.0142508
640.379	0.0142545
640.457	0.0141872
640.535	0.0141790
640.613	0.0141444
640.692	0.0141393
640.770	0.0143243
640.848	0.0141945
640.926	0.0142524
641.004	0.0141714
641.082	0.0142336
641.160	0.0140912
641.238	0.0142059
641.317	0.0141091
641.395	0.0140586
641.473	0.0142691
641.551	0.0142322
641.629	0.0142675
641.707	0.0142354
641.785	0.0142204
641.863	0.0143124
641.942	0.0143764
642.020	0.0142879
642.098	0.0143712
642.176	0.0145074
642.254	0.0143617
642.332	0.0144443
642.410	0.0143549
642.488	0.0142357
642.567	0.0142407
642.645	0.0143256
642.723	0.0142715
642.801	0.0143388
642.879	0.0143987
642.957	0.0141574
643.035	0.0141999
643.113	0.0140824
643.192	0.0141566
643.270	0.0140299
643.348	0.0140968
643.426	0.0140488
643.504	0.0140790
643.582	0.0141191
643.660	0.0141292
643.738	0.0141543
643.817	0.0141000
643.895	0.0140140
643.973	0.0140063
644.051	0.0141226
644.129	0.0141397
644.207	0.0140979
644.285	0.0139987
644.363	0.0140935
644.442	0.0141738
644.520	0.0141820
644.598	0.0142457
644.676	0.0142657
644.754	0.0141807
644.832	0.0141347
644.910	0.0143449
644.988	0.0142578
645.067	0.0142703
645.145	0.0143233
645.223	0.0141428
645.301	0.0141792
645.379	0.0142509
645.457	0.0140730
645.535	0.0142725
645.613	0.0142774
645.692	0.0142969
645.770	0.0142873
645.848	0.0143624
645.926	0.0144599
646.004	0.0144164
646.082	0.0144714
646.160	0.0143459
646.238	0.0142039
646.317	0.0143956
646.395	0.0143556
646.473	0.0142365
646.551	0.0142392
646.629	0.0141254
646.707	0.0141830
646.785	0.0141798
646.863	0.0142717
646.942	0.0139516
647.020	0.0140347
647.098	0.0142086
647.176	0.0140953
647.254	0.0142037
647.332	0.0140693
647.410	0.0140761
647.488	0.0142059
647.567	0.0140943
647.645	0.0139894
647.723	0.0139398
647.801	0.0140981
647.879	0.0141421
647.957	0.0140302
648.035	0.0139497
648.113	0.0138052
648.192	0.0137401
648.270	0.0138562
648.348	0.0138172
648.426	0.0137669
648.504	0.0137548
648.582	0.0139723
648.660	0.0140261
648.738	0.0140132
648.817	0.0141950
648.895	0.0143220
648.973	0.0142590
649.051	0.0143635
649.129	0.0144407
649.207	0.0145731
649.285	0.0144213
649.363	0.0145025
649.442	0.0145829
649.520	0.0144286
649.598	0.0146071
649.676	0.0147019
649.754	0.0145860
649.832	0.0146159
649.910	0.0145303
649.988	0.0145142
650.067	0.0145245
650.145	0.0145052
650.223	0.0145563
650.301	0.0144615
650.379	0.0143478
650.457	0.0144177
650.535	0.0143372
650.613	0.0143009
650.692	0.0143146
650.770	0.0142733
650.848	0.0142847
650.926	0.0142545
651.004	0.0142457
651.082	0.0141594
651.160	0.0142988
651.238	0.0141684
651.317	0.0142568
651.395	0.0141952
651.473	0.0141277
651.551	0.0141273
651.629	0.0141059
651.707	0.0140109
651.785	0.0139742
651.863	0.0140034
651.942	0.0138538
652.020	0.0139132
652.098	0.0139041
652.176	0.0139506
652.254	0.0137194
652.332	0.0138879
652.410	0.0135917
652.488	0.0136921
652.567	0.0137313
652.645	0.0136656
652.723	0.0136243
652.801	0.0138509
652.879	0.0138583
652.957	0.0139967
653.035	0.0139394
653.113	0.0138217
653.192	0.0140776
653.270	0.0144221
653.348	0.0143674
653.426	0.0142744
653.504	0.0143719
653.582	0.0143745
653.660	0.0144904
653.738	0.0145945
653.817	0.0145741
653.895	0.0144392
653.973	0.0145384
654.051	0.0146540
654.129	0.0146804
654.207	0.0146064
654.285	0.0145461
654.363	0.0147363
654.442	0.0147399
654.520	0.0147187
654.598	0.0147086
654.676	0.0145494
654.754	0.0145733
654.832	0.0147325
654.910	0.0147558
654.988	0.0146393
655.067	0.0147034
655.145	0.0147163
655.223	0.0147500
655.301	0.0145733
655.379	0.0146738
655.457	0.0146284
655.535	0.0145946
655.613	0.0144551
655.692	0.0145319
655.770	0.0145203
655.848	0.0143877
655.926	0.0142960
656.004	0.0141602
656.082	0.0140512
656.160	0.0139198
656.238	0.0139427
656.317	0.0139309
656.395	0.0139621
656.473	0.0139526
656.551	0.0137399
656.629	0.0137461
656.707	0.0137766
656.785	0.0138112
656.863	0.0138384
656.942	0.0138805
657.020	0.0138875
657.098	0.0137225
657.176	0.0139007
657.254	0.0139072
657.332	0.0138187
657.410	0.0137978
657.488	0.0138595
657.567	0.0138161
657.645	0.0137244
657.723	0.0136581
657.801	0.0138230
657.879	0.0139539
657.957	0.0137823
658.035	0.0139643
658.113	0.0139097
658.192	0.0140591
658.270	0.0139341
658.348	0.0139767
658.426	0.0140865
658.504	0.0141743
658.582	0.0141976
658.660	0.0142213
658.738	0.0144443
658.817	0.0146635
658.895	0.0145764
658.973	0.0147494
659.051	0.0148319
659.129	0.0149095
659.207	0.0149293
659.285	0.0149954
659.363	0.0149071
659.442	0.0148269
659.520	0.0149568
659.598	0.0150353
659.676	0.0148676
659.754	0.0147597
659.832	0.0148373
659.910	0.0147881
659.988	0.0145885
660.067	0.0145444
660.145	0.0145492
660.223	0.0145776
660.301	0.0145018
660.379	0.0145546
660.457	0.0143573
660.535	0.0144283
660.613	0.0143259
660.692	0.0141736
660.770	0.0142865
660.848	0.0141615
660.926	0.0141361
661.004	0.0140550
661.082	0.0139988
661.160	0.0138815
661.238	0.0139529
661.317	0.0139478
661.395	0.0138071
661.473	0.0138446
661.551	0.0138290
661.629	0.0136501
661.707	0.0136837
661.785	0.0136432
661.863	0.0136663
661.942	0.0135275
662.020	0.0135879
662.098	0.0136499
662.176	0.0137212
662.254	0.0137225
662.332	0.0136951
662.410	0.0137527
662.488	0.0137445
662.567	0.0139314
662.645	0.0137665
662.723	0.0138605
662.801	0.0139552
662.879	0.0140450
662.957	0.0140385
663.035	0.0141148
663.113	0.0139842
663.192	0.0141173
663.270	0.0140865
663.348	0.0141296
663.426	0.0142189
663.504	0.0141890
663.582	0.0142974
663.660	0.0143143
663.738	0.0143245
663.817	0.0143484
663.895	0.0144392
663.973	0.0143197
664.051	0.0144120
664.129	0.0144569
664.207	0.0145428
664.285	0.0144767
664.363	0.0145369
664.442	0.0147169
664.520	0.0147980
664.598	0.0147278
664.676	0.0148055
664.754	0.0147704
664.832	0.0149413
664.910	0.0147578
664.988	0.0148672
665.067	0.0147876
665.145	0.0148893
665.223	0.0147781
665.301	0.0146490
665.379	0.0146353
665.457	0.0145319
665.535	0.0144456
665.613	0.0143084
665.692	0.0141566
665.770	0.0141386
665.848	0.0139086
665.926	0.0138816
666.004	0.0137409
666.082	0.0137474
666.160	0.0137990
666.238	0.0136423
666.317	0.0134061
666.395	0.0135073
666.473	0.0135957
666.551	0.0136175
666.629	0.0136697
666.707	0.0138545
666.785	0.0138313
666.863	0.0139181
666.942	0.0139333
667.020	0.0140392
667.098	0.0140287
667.176	0.0141561
667.254	0.0140968
667.332	0.0143153
667.410	0.0143381
667.488	0.0143696
667.567	0.0142717
667.645	0.0143402
667.723	0.0143565
667.801	0.0143254
667.879	0.0142987
667.957	0.0141729
668.035	0.0142870
668.113	0.0142331
668.192	0.0143487
668.270	0.0141743
668.348	0.0140549
668.426	0.0140719
668.504	0.0139632
668.582	0.0140931
668.660	0.0139695
668.738	0.0140405
668.817	0.0140932
668.895	0.0139530
668.973	0.0139293
669.051	0.0138551
669.129	0.0140340
669.207	0.0141183
669.285	0.0140083
669.363	0.0140565
669.442	0.0139085
669.520	0.0142256
669.598	0.0141056
669.676	0.0141938
669.754	0.0142835
669.832	0.0144218
669.910	0.0144720
669.988	0.0145285
670.067	0.0145968
670.145	0.0146626
670.223	0.0146324
670.301	0.0146736
670.379	0.0148580
670.457	0.0147358
670.535	0.0146349
670.613	0.0146938
670.692	0.0147303
670.770	0.0146938
670.848	0.0146161
670.926	0.0146809
671.004	0.0145759
671.082	0.0144574
671.160	0.0144748
671.238	0.0142943
671.317	0.0142242
671.395	0.0143273
671.473	0.0142058
671.551	0.0142020
671.629	0.0142324
671.707	0.0142492
671.785	0.0140725
671.863	0.0141954
671.942	0.0142049
672.020	0.0140430
672.098	0.0141434
672.176	0.0141458
672.254	0.0141879
672.332	0.0141454
672.410	0.0141911
672.488	0.0142971
672.567	0.0144389
672.645	0.0144111
672.723	0.0145799
672.801	0.0145312
672.879	0.0145650
672.957	0.0146683
673.035	0.0147235
673.113	0.0146635
673.192	0.0146310
673.270	0.0144951
673.348	0.0144117
673.426	0.0143369
673.504	0.0143743
673.582	0.0142110
673.660	0.0139909
673.738	0.0138621
673.817	0.0138279
673.895	0.0136662
673.973	0.0136420
674.051	0.0134563
674.129	0.0134581
674.207	0.0134718
674.285	0.0134373
674.363	0.0134200
674.442	0.0135328
674.520	0.0136822
674.598	0.0136797
674.676	0.0138556
674.754	0.0140761
674.832	0.0143056
674.910	0.0143153
674.988	0.0145197
675.067	0.0146932
675.145	0.0147748
675.223	0.0147579
675.301	0.0150253
675.379	0.0149120
675.457	0.0149497
675.535	0.0150470
675.613	0.0150783
675.692	0.0150405
675.770	0.0150790
675.848	0.0150387
675.926	0.0149155
676.004	0.0148602
676.082	0.0147869
676.160	0.0147349
676.238	0.0148064
676.317	0.0144698
676.395	0.0145751
676.473	0.0144102
676.551	0.0142598
676.629	0.0142216
676.707	0.0143430
676.785	0.0141182
676.863	0.0140666
676.942	0.0139201
677.020	0.0138125
677.098	0.0138119
677.176	0.0137786
677.254	0.0136851
677.332	0.0136600
677.410	0.0135527
677.488	0.0135244
677.567	0.0136818
677.645	0.0135416
677.723	0.0134449
677.801	0.0136034
677.879	0.0136700
677.957	0.0136609
678.035	0.0137074
678.113	0.0138074
678.192	0.0139557
678.270	0.0139986
678.348	0.0142132
678.426	0.0143869
678.504	0.0143950
678.582	0.0145327
678.660	0.0146627
678.738	0.0147523
678.817	0.0147501
678.895	0.0148553
678.973	0.0148790
679.051	0.0148244
679.129	0.0147830
679.207	0.0149155
679.285	0.0147870
679.363	0.0148929
679.442	0.0147622
679.520	0.0147536
679.598	0.0146206
679.676	0.0145663
679.754	0.0145050
679.832	0.0144028
679.910	0.0142208
679.988	0.0143071
680.067	0.0143179
680.145	0.0142295
680.223	0.0141103
680.301	0.0140902
680.379	0.0139429
680.457	0.0140098
680.535	0.0138952
680.613	0.0137670
680.692	0.0138824
680.770	0.0136182
680.848	0.0135895
680.926	0.0136897
681.004	0.0135638
681.082	0.0134513
681.160	0.0134946
681.238	0.0134266
681.317	0.0135010
681.395	0.0135453
681.473	0.0135029
681.551	0.0136191
681.629	0.0136337
681.707	0.0138428
681.785	0.0139233
681.863	0.0140636
681.942	0.0141126
682.020	0.0143357
682.098	0.0144070
682.176	0.0144553
682.254	0.0144889
682.332	0.0145238
682.410	0.0146818
682.488	0.0146244
682.567	0.0146212
682.645	0.0146282
682.723	0.0146083
682.801	0.0146029
682.879	0.0146116
682.957	0.0144395
683.035	0.0145074
683.113	0.0145706
683.192	0.0144234
683.270	0.0145677
683.348	0.0145702
683.426	0.0146211
683.504	0.0143562
683.582	0.0145253
683.660	0.0144721
683.738	0.0146179
683.817	0.0144849
683.895	0.0143605
683.973	0.0142084
684.051	0.0143003
684.129	0.0143738
684.207	0.0143032
684.285	0.0141068
684.363	0.0141399
684.442	0.0140405
684.520	0.0140954
684.598	0.0140351
684.676	0.0138035
684.754	0.0138927
684.832	0.0139068
684.910	0.0137025
684.988	0.0136584
685.067	0.0135859
685.145	0.0136861
685.223	0.0135950
685.301	0.0135018
685.379	0.0135202
685.457	0.0135448
685.535	0.0135134
685.613	0.0136021
685.692	0.0136434
685.770	0.0136290
685.848	0.0137856
685.926	0.0138744
686.004	0.0138283
686.082	0.0139699
686.160	0.0139273
686.238	0.0139362
686.317	0.0141576
686.395	0.0141012
686.473	0.0141106
686.551	0.0142794
686.629	0.0145209
686.707	0.0146027
686.785	0.0146590
686.863	0.0148492
686.942	0.0148883
687.020	0.0148043
687.098	0.0149500
687.176	0.0150597
687.254	0.0151158
687.332	0.0151530
687.410	0.0150831
687.488	0.0150147
687.567	0.0150093
687.645	0.0149384
687.723	0.0147759
687.801	0.0147047
687.879	0.0145634
687.957	0.0144696
688.035	0.0142931
688.113	0.0139291
688.192	0.0140563
688.270	0.0138341
688.348	0.0136890
688.426	0.0135764
688.504	0.0133504
688.582	0.0132867
688.660	0.0133368
688.738	0.0132155
688.817	0.0131653
688.895	0.0133006
688.973	0.0133126
689.051	0.0135924
689.129	0.0135670
689.207	0.0136412
689.285	0.0138981
689.363	0.0140781
689.442	0.0142899
689.520	0.0141890
689.598	0.0142912
689.676	0.0144209
689.754	0.0145107
689.832	0.0144574
689.910	0.0146961
689.988	0.0145885
690.067	0.0145757
690.145	0.0146415
690.223	0.0145053
690.301	0.0145986
690.379	0.0146253
690.457	0.0145245
690.535	0.0145288
690.613	0.0145774
690.692	0.0145243
690.770	0.0146380
690.848	0.0146000
690.926	0.0145228
691.004	0.0145686
691.082	0.0144409
691.160	0.0146766
691.238	0.0146729
691.317	0.0145063
691.395	0.0145197
691.473	0.0144216
691.551	0.0143657
691.629	0.0144260
691.707	0.0143340
691.785	0.0142727
691.863	0.0143976
691.942	0.0142437
692.020	0.0141385
692.098	0.0140939
692.176	0.0140453
692.254	0.0141247
692.332	0.0140456
692.410	0.0138444
692.488	0.0139474
692.567	0.0139376
692.645	0.0140450
692.723	0.0139493
692.801	0.0140235
692.879	0.0140953
692.957	0.0141904
693.035	0.0142112
693.113	0.0141396
693.192	0.0142359
693.270	0.0143068
693.348	0.0144820
693.426	0.0144030
693.504	0.0143004
693.582	0.0144197
693.660	0.0143785
693.738	0.0142052
693.817	0.0141918
693.895	0.0140793
693.973	0.0139769
694.051	0.0139648
694.129	0.0138608
694.207	0.0137482
694.285	0.0137012
694.363	0.0136235
694.442	0.0135115
694.520	0.0135174
694.598	0.0134760
694.676	0.0134084
694.754	0.0135658
694.832	0.0134624
694.910	0.0135110
694.988	0.0137072
695.067	0.0135742
695.145	0.0138194
695.223	0.0138495
695.301	0.0138554
695.379	0.0141021
695.457	0.0143871
695.535	0.0145515
695.613	0.0146223
695.692	0.0145322
695.770	0.0147830
695.848	0.0147038
695.926	0.0149191
696.004	0.0149038
696.082	0.0148485
696.160	0.0149861
696.238	0.0150145
696.317	0.0150838
696.395	0.0150758
696.473	0.0150309
696.551	0.0152306
696.629	0.0152535
696.707	0.0152135
696.785	0.0153096
696.863	0.0151730
696.942	0.0152450
697.020	0.0154807
697.098	0.0152504
697.176	0.0149669
697.254	0.0150262
697.332	0.0150411
697.410	0.0147726
697.488	0.0145681
697.567	0.0144408
697.645	0.0142381
697.723	0.0140540
697.801	0.0138069
697.879	0.0136637
697.957	0.0134778
698.035	0.0132426
698.113	0.0131580
698.192	0.0129537
698.270	0.0130060
698.348	0.0127676
698.426	0.0126116
698.504	0.0126460
698.582	0.0126783
698.660	0.0126733
698.738	0.0127525
698.817	0.0126726
698.895	0.0128085
698.973	0.0128055
699.051	0.0129749
699.129	0.0130842
699.207	0.0131145
699.285	0.0132038
699.363	0.0135316
699.442	0.0137489
699.520	0.0137995
699.598	0.0140520
699.676	0.0141739
699.754	0.0143252
699.832	0.0145715
699.910	0.0147552
699.988	0.0148846
700.067	0.0150906
700.145	0.0152908
700.223	0.0152917
700.301	0.0155005
700.379	0.0157160
700.457	0.0156956
700.535	0.0157383
700.613	0.0157030
700.692	0.0157625
700.770	0.0157686
700.848	0.0157519
700.926	0.0155990
701.004	0.0156306
701.082	0.0155589
701.160	0.0153590
701.238	0.0153917
701.317	0.0152170
701.395	0.0151017
701.473	0.0151054
701.551	0.0150206
701.629	0.0148125
701.707	0.0144104
701.785	0.0142799
701.863	0.0142019
701.942	0.0140777
702.020	0.0137255
702.098	0.0136546
702.176	0.0136398
702.254	0.0132671
702.332	0.0131052
702.410	0.0128917
702.488	0.0129427
702.567	0.0128740
702.645	0.0127845
702.723	0.0128005
702.801	0.0127122
702.879	0.0128424
702.957	0.0128065
703.035	0.0129797
703.113	0.0130521
703.192	0.0130260
703.270	0.0131990
703.348	0.0132273
703.426	0.0133859
703.504	0.0134918
703.582	0.0135394
703.660	0.0138007
703.738	0.0139140
703.817	0.0140905
703.895	0.0140631
703.973	0.0143014
704.051	0.0144544
704.129	0.0145081
704.207	0.0147889
704.285	0.0149568
704.363	0.0149137
704.442	0.0151939
704.520	0.0151543
704.598	0.0151231
704.676	0.0153271
704.754	0.0152647
704.832	0.0151818
704.910	0.0151919
704.988	0.0152089
705.067	0.0149647
705.145	0.0150690
705.223	0.0150036
705.301	0.0148969
705.379	0.0149011
705.457	0.0148244
705.535	0.0148678
705.613	0.0147005
705.692	0.0145612
705.770	0.0146137
705.848	0.0144528
705.926	0.0143472
706.004	0.0143456
706.082	0.0142711
706.160	0.0140929
706.238	0.0141048
706.317	0.0140040
706.395	0.0137720
706.473	0.0139124
706.551	0.0137871
706.629	0.0135831
706.707	0.0136005
706.785	0.0136372
706.863	0.0134648
706.942	0.0134471
707.020	0.0134445
707.098	0.0134477
707.176	0.0133527
707.254	0.0134403
707.332	0.0135992
707.410	0.0135579
707.488	0.0136829
707.567	0.0136924
707.645	0.0138316
707.723	0.0140086
707.801	0.0139855
707.879	0.0141560
707.957	0.0143263
708.035	0.0144541
708.113	0.0145536
708.192	0.0144785
708.270	0.0146967
708.348	0.0145792
708.426	0.0144745
708.504	0.0144157
708.582	0.0144878
708.660	0.0144453
708.738	0.0141527
708.817	0.0141888
708.895	0.0140878
708.973	0.0140398
709.051	0.0139155
709.129	0.0139712
709.207	0.0139143
709.285	0.0138045
709.363	0.0139773
709.442	0.0138380
709.520	0.0139962
709.598	0.0139159
709.676	0.0140614
709.754	0.0141238
709.832	0.0143037
709.910	0.0144843
709.988	0.0143278
710.067	0.0145029
710.145	0.0146529
710.223	0.0145947
710.301	0.0145483
710.379	0.0145985
710.457	0.0145058
710.535	0.0144686
710.613	0.0145576
710.692	0.0144875
710.770	0.0144267
710.848	0.0143870
710.926	0.0144049
711.004	0.0143921
711.082	0.0143974
711.160	0.0143896
711.238	0.0143622
711.317	0.0144233
711.395	0.0141592
711.473	0.0143453
711.551	0.0143374
711.629	0.0144043
711.707	0.0145518
711.785	0.0143543
711.863	0.0143819
711.942	0.0143214
712.020	0.0141624
712.098	0.0141373
712.176	0.0140862
712.254	0.0141283
712.332	0.0140591
712.410	0.0140066
712.488	0.0141095
712.567	0.0140058
712.645	0.0139729
712.723	0.0139901
712.801	0.0139157
712.879	0.0139986
712.957	0.0139491
713.035	0.0139581
713.113	0.0139894
713.192	0.0139031
713.270	0.0138887
713.348	0.0139861
713.426	0.0140017
713.504	0.0140121
713.582	0.0138574
713.660	0.0141719
713.738	0.0142443
713.817	0.0139350
713.895	0.0139210
713.973	0.0139931
714.051	0.0140015
714.129	0.0141587
714.207	0.0140116
714.285	0.0140947
714.363	0.0141048
714.442	0.0139819
714.520	0.0141447
714.598	0.0142451
714.676	0.0141743
714.754	0.0141434
714.832	0.0142968
714.910	0.0144175
714.988	0.0143518
715.067	0.0143965
715.145	0.0145238
715.223	0.0144116
715.301	0.0144780
715.379	0.0142896
715.457	0.0143611
715.535	0.0145869
715.613	0.0144238
715.692	0.0144620
715.770	0.0144113
715.848	0.0144397
715.926	0.0144761
716.004	0.0143482
716.082	0.0143407
716.160	0.0143971
716.238	0.0142921
716.317	0.0143557
716.395	0.0142524
716.473	0.0141885
716.551	0.0141875
716.629	0.0140337
716.707	0.0140124
716.785	0.0140255
716.863	0.0140521
716.942	0.0141400
717.020	0.0139349
717.098	0.0139101
717.176	0.0141341
717.254	0.0140553
717.332	0.0140772
717.410	0.0142801
717.488	0.0142790
717.567	0.0142523
717.645	0.0143616
717.723	0.0144276
717.801	0.0143159
717.879	0.0143652
717.957	0.0143176
718.035	0.0143590
718.113	0.0141884
718.192	0.0143147
718.270	0.0141948
718.348	0.0141560
718.426	0.0142041
718.504	0.0142203
718.582	0.0140620
718.660	0.0139915
718.738	0.0141637
718.817	0.0139929
718.895	0.0139192
718.973	0.0141967
719.051	0.0142033
719.129	0.0141668
719.207	0.0140976
719.285	0.0142461
719.363	0.0143850
719.442	0.0141118
719.520	0.0142348
719.598	0.0142310
719.676	0.0141823
719.754	0.0143694
719.832	0.0142519
719.910	0.0141794
719.988	0.0142323
720.067	0.0141605
720.145	0.0140726
720.223	0.0139665
720.301	0.0142332
720.379	0.0141537
720.457	0.0140556
720.535	0.0140555
720.613	0.0142216
720.692	0.0140299
720.770	0.0141250
720.848	0.0140572
720.926	0.0142815
721.004	0.0142051
721.082	0.0141482
721.160	0.0141986
721.238	0.0144251
721.317	0.0142442
721.395	0.0142918
721.473	0.0143906
721.551	0.0143555
721.629	0.0143661
721.707	0.0144054
721.785	0.0143240
721.863	0.0143710
721.942	0.0143632
722.020	0.0143372
722.098	0.0141632
722.176	0.0142436
722.254	0.0141284
722.332	0.0141878
722.410	0.0142769
722.488	0.0142649
722.567	0.0141312
722.645	0.0140118
722.723	0.0140929
722.801	0.0138753
722.879	0.0138818
722.957	0.0139001
723.035	0.0138312
723.113	0.0137005
723.192	0.0137175
723.270	0.0136942
723.348	0.0137146
723.426	0.0137666
723.504	0.0136897
723.582	0.0137408
723.660	0.0136531
723.738	0.0138361
723.817	0.0137309
723.895	0.0137695
723.973	0.0138291
724.051	0.0138552
724.129	0.0139387
724.207	0.0141080
724.285	0.0142396
724.363	0.0144080
724.442	0.0144126
724.520	0.0143147
724.598	0.0145490
724.676	0.0144711
724.754	0.0146156
724.832	0.0144730
724.910	0.0145501
724.988	0.0145287
725.067	0.0144235
725.145	0.0145403
725.223	0.0143725
725.301	0.0143393
725.379	0.0142451
725.457	0.0141670
725.535	0.0142702
725.613	0.0141274
725.692	0.0141866
725.770	0.0141778
725.848	0.0140538
725.926	0.0141463
726.004	0.0140652
726.082	0.0140684
726.160	0.0140742
726.238	0.0141427
726.317	0.0140637
726.395	0.0140655
726.473	0.0141270
726.551	0.0141428
726.629	0.0141262
726.707	0.0141834
726.785	0.0141353
726.863	0.0141138
726.942	0.0141008
727.020	0.0141637
727.098	0.0141255
727.176	0.0141302
727.254	0.0141601
727.332	0.0141637
727.410	0.0141732
727.488	0.0140505
727.567	0.0141369
727.645	0.0141049
727.723	0.0139658
727.801	0.0141733
727.879	0.0142644
727.957	0.0141005
728.035	0.0141370
728.113	0.0140990
728.192	0.0142238
728.270	0.0142348
728.348	0.0141015
728.426	0.0143098
728.504	0.0141602
728.582	0.0141390
728.660	0.0143267
728.738	0.0142209
728.817	0.0142172
728.895	0.0141611
728.973	0.0142892
729.051	0.0141635
729.129	0.0142039
729.207	0.0143814
729.285	0.0143227
729.363	0.0142632
729.442	0.0143127
729.520	0.0142719
729.598	0.0143060
729.676	0.0143400
729.754	0.0143440
729.832	0.0143769
729.910	0.0142992
729.988	0.0142165
730.067	0.0143314
730.145	0.0142659
730.223	0.0141655
730.301	0.0142458
730.379	0.0141147
730.457	0.0142946
730.535	0.0141258
730.613	0.0141249
730.692	0.0141152
730.770	0.0142043
730.848	0.0141260
730.926	0.0140745
731.004	0.0141297
731.082	0.0140691
731.160	0.0142316
731.238	0.0140800
731.317	0.0139928
731.395	0.0140919
731.473	0.0141003
731.551	0.0142031
731.629	0.0140191
731.707	0.0141115
731.785	0.0142558
731.863	0.0142010
731.942	0.0143730
732.020	0.0143259
732.098	0.0143273
732.176	0.0145087
732.254	0.0144448
732.332	0.0144802
732.410	0.0144699
732.488	0.0145098
732.567	0.0145241
732.645	0.0144501
732.723	0.0144492
732.801	0.0144116
732.879	0.0145227
732.957	0.0143973
733.035	0.0143137
733.113	0.0141047
733.192	0.0141786
733.270	0.0142250
733.348	0.0142100
733.426	0.0141879
733.504	0.0143154
733.582	0.0141560
733.660	0.0141632
733.738	0.0141693
733.817	0.0140794
733.895	0.0141779
733.973	0.0141942
734.051	0.0142089
734.129	0.0141610
734.207	0.0141360
734.285	0.0142635
734.363	0.0141364
734.442	0.0140724
734.520	0.0142673
734.598	0.0140459
734.676	0.0141807
734.754	0.0140869
734.832	0.0140083
734.910	0.0141000
734.988	0.0140769
735.067	0.0139591
735.145	0.0142400
735.223	0.0141177
735.301	0.0140640
735.379	0.0141651
735.457	0.0142347
735.535	0.0142194
735.613	0.0142173
735.692	0.0142667
735.770	0.0141265
735.848	0.0142037
735.926	0.0143348
736.004	0.0144173
736.082	0.0143015
736.160	0.0144076
736.238	0.0142482
736.317	0.0142755
736.395	0.0142056
736.473	0.0143178
736.551	0.0143526
736.629	0.0143313
736.707	0.0144357
736.785	0.0144281
736.863	0.0144749
736.942	0.0144384
737.020	0.0142877
737.098	0.0144083
737.176	0.0144016
737.254	0.0144482
737.332	0.0143838
737.410	0.0145445
737.488	0.0144098
737.567	0.0143747
737.645	0.0142981
737.723	0.0143056
737.801	0.0143907
737.879	0.0142263
737.957	0.0142262
738.035	0.0140559
738.113	0.0141895
738.192	0.0141409
738.270	0.0141858
738.348	0.0141856
738.426	0.0140004
738.504	0.0139436
738.582	0.0139423
738.660	0.0138368
738.738	0.0139820
738.817	0.0140283
738.895	0.0138755
738.973	0.0140282
739.051	0.0138990
739.129	0.0139376
739.207	0.0140968
739.285	0.0139689
739.363	0.0140986
739.442	0.0140334
739.520	0.0140302
739.598	0.0139993
739.676	0.0140427
739.754	0.0139738
739.832	0.0139022
739.910	0.0141089
739.988	0.0140527
740.067	0.0142638
740.145	0.0141547
740.223	0.0142170
740.301	0.0143480
740.379	0.0142968
740.457	0.0141733
740.535	0.0141136
740.613	0.0143338
740.692	0.0142665
740.770	0.0142496
740.848	0.0142954
740.926	0.0142384
741.004	0.0142603
741.082	0.0141083
741.160	0.0140999
741.238	0.0142308
741.317	0.0143306
741.395	0.0142053
741.473	0.0142670
741.551	0.0142065
741.629	0.0142600
741.707	0.0143269
741.785	0.0141772
741.863	0.0142390
741.942	0.0142738
742.020	0.0141827
742.098	0.0143310
742.176	0.0142297
742.254	0.0142352
742.332	0.0142390
742.410	0.0142432
742.488	0.0141801
742.567	0.0141154
742.645	0.0141995
742.723	0.0142075
742.801	0.0141399
742.879	0.0141403
742.957	0.0142516
743.035	0.0141677
743.113	0.0141501
743.192	0.0141776
743.270	0.0141584
743.348	0.0141656
743.426	0.0140733
743.504	0.0141194
743.582	0.0141307
743.660	0.0141301
743.738	0.0141699
743.817	0.0141067
743.895	0.0140635
743.973	0.0142341
744.051	0.0141678
744.129	0.0139413
744.207	0.0140292
744.285	0.0140635
744.363	0.0140231
744.442	0.0141695
744.520	0.0141150
744.598	0.0140318
744.676	0.0140780
744.754	0.0141488
744.832	0.0142863
744.910	0.0141219
744.988	0.0141158
745.067	0.0142336
745.145	0.0143269
745.223	0.0143356
745.301	0.0141842
745.379	0.0142879
745.457	0.0142524
745.535	0.0143633
745.613	0.0143624
745.692	0.0144926
745.770	0.0144642
745.848	0.0144947
745.926	0.0143317
746.004	0.0142917
746.082	0.0143581
746.160	0.0144467
746.238	0.0143571
746.317	0.0142486
746.395	0.0142076
746.473	0.0140448
746.551	0.0142305
746.629	0.0142733
746.707	0.0142390
746.785	0.0141832
746.863	0.0139969
746.942	0.0140707
747.020	0.0142067
747.098	0.0141896
747.176	0.0142048
747.254	0.0140293
747.332	0.0140626
747.410	0.0141451
747.488	0.0142024
747.567	0.0139134
747.645	0.0141169
747.723	0.0141462
747.801	0.0140696
747.879	0.0141693
747.957	0.0141901
748.035	0.0142258
748.113	0.0141357
748.192	0.0143127
748.270	0.0143314
748.348	0.0142358
748.426	0.0140581
748.504	0.0143356
748.582	0.0142942
748.660	0.0143047
748.738	0.0141799
748.817	0.0141353
748.895	0.0143431
748.973	0.0143259
749.051	0.0142976
749.129	0.0141962
749.207	0.0143000
749.285	0.0142326
749.363	0.0142574
749.442	0.0141830
749.520	0.0143079
749.598	0.0142566
749.676	0.0142250
749.754	0.0143371
749.832	0.0143134
749.910	0.0143476
749.988	0.0142741
750.067	0.0142330
750.145	0.0142650
750.223	0.0142934
750.301	0.0141987
750.379	0.0141755
750.457	0.0142262
750.535	0.0141688
750.613	0.0143594
750.692	0.0140845
750.770	0.0140342
750.848	0.0141708
750.926	0.0140952
751.004	0.0141151
751.082	0.0140369
751.160	0.0142628
751.238	0.0141216
751.317	0.0142087
751.395	0.0142986
751.473	0.0142070
751.551	0.0142284
751.629	0.0142886
751.707	0.0142693
751.785	0.0143718
751.863	0.0143909
751.942	0.0142494
752.020	0.0142696
752.098	0.0145427
752.176	0.0142039
752.254	0.0144202
752.332	0.0144063
752.410	0.0144112
752.488	0.0142784
752.567	0.0143888
752.645	0.0143913
752.723	0.0143964
752.801	0.0143713
752.879	0.0143247
752.957	0.0144198
753.035	0.0145525
753.113	0.0144798
753.192	0.0144149
753.270	0.0145319
753.348	0.0145148
753.426	0.0146085
753.504	0.0144464
753.582	0.0141856
753.660	0.0144138
753.738	0.0144885
753.817	0.0143922
753.895	0.0144630
753.973	0.0142725
754.051	0.0142540
754.129	0.0142480
754.207	0.0143118
754.285	0.0142268
754.363	0.0141737
754.442	0.0142489
754.520	0.0142949
754.598	0.0142477
754.676	0.0142336
754.754	0.0142489
754.832	0.0143687
754.910	0.0142287
754.988	0.0141994
755.067	0.0142013
755.145	0.0141196
755.223	0.0142276
755.301	0.0143830
755.379	0.0141108
755.457	0.0142072
755.535	0.0142899
755.613	0.0142647
755.692	0.0142274
755.770	0.0143778
755.848	0.0142744
755.926	0.0142608
756.004	0.0142501
756.082	0.0142744
756.160	0.0143440
756.238	0.0142899
756.317	0.0143616
756.395	0.0143703
756.473	0.0144242
756.551	0.0143172
756.629	0.0143406
756.707	0.0142722
756.785	0.0142376
756.863	0.0142885
756.942	0.0143768
757.020	0.0141464
757.098	0.0143070
757.176	0.0141929
757.254	0.0141203
757.332	0.0142049
757.410	0.0141963
757.488	0.0142106
757.567	0.0141463
757.645	0.0141561
757.723	0.0141468
757.801	0.0143082
757.879	0.0143064
757.957	0.0144691
758.035	0.0142660
758.113	0.0143681
758.192	0.0143413
758.270	0.0143826
758.348	0.0144922
758.426	0.0143822
758.504	0.0143034
758.582	0.0143266
758.660	0.0143230
758.738	0.0142771
758.817	0.0142131
758.895	0.0142166
758.973	0.0141339
759.051	0.0141373
759.129	0.0141532
759.207	0.0140751
759.285	0.0140736
759.363	0.0140858
759.442	0.0141285
759.520	0.0141375
759.598	0.0141203
759.676	0.0141588
759.754	0.0139532
759.832	0.0139722
759.910	0.0140472
759.988	0.0141205
760.067	0.0141333
760.145	0.0141547
760.223	0.0141949
760.301	0.0141502
760.379	0.0141769
760.457	0.0141910
760.535	0.0143233
760.613	0.0143009
760.692	0.0144808
760.770	0.0144518
760.848	0.0143262
760.926	0.0144151
761.004	0.0144377
761.082	0.0144885
761.160	0.0145100
761.238	0.0145525
761.317	0.0145929
761.395	0.0146563
761.473	0.0146412
761.551	0.0145228
761.629	0.0144874
761.707	0.0144855
761.785	0.0143907
761.863	0.0143216
761.942	0.0143212
762.020	0.0143296
762.098	0.0143242
762.176	0.0144085
762.254	0.0142225
762.332	0.0141808
762.410	0.0140868
762.488	0.0140447
762.567	0.0140989
762.645	0.0141992
762.723	0.0139281
762.801	0.0140527
762.879	0.0139891
762.957	0.0139986
763.035	0.0138961
763.113	0.0139064
763.192	0.0139348
763.270	0.0139541
763.348	0.0139761
763.426	0.0139085
763.504	0.0139108
763.582	0.0138998
763.660	0.0140011
763.738	0.0140163
763.817	0.0140609
763.895	0.0140696
763.973	0.0141740
764.051	0.0141005
764.129	0.0140640
764.207	0.0141196
764.285	0.0140987
764.363	0.0142926
764.442	0.0142965
764.520	0.0142265
764.598	0.0142622
764.676	0.0143288
764.754	0.0141800
764.832	0.0141968
764.910	0.0143388
764.988	0.0142974
765.067	0.0143195
765.145	0.0143328
765.223	0.0142594
765.301	0.0141841
765.379	0.0142513
765.457	0.0142896
765.535	0.0143176
765.613	0.0142142
765.692	0.0143612
765.770	0.0143797
765.848	0.0141723
765.926	0.0142245
766.004	0.0141318
766.082	0.0142940
766.160	0.0144053
766.238	0.0141885
766.317	0.0143192
766.395	0.0143248
766.473	0.0142914
766.551	0.0142952
766.629	0.0143501
766.707	0.0142882
766.785	0.0142693
766.863	0.0144056
766.942	0.0141491
767.020	0.0142995
767.098	0.0142855
767.176	0.0142094
767.254	0.0140253
767.332	0.0140989
767.410	0.0142242
767.488	0.0140516
767.567	0.0139819
767.645	0.0141162
767.723	0.0141785
767.801	0.0140488
767.879	0.0141401
767.957	0.0139780
768.035	0.0140182
768.113	0.0142738
768.192	0.0141368
768.270	0.0140237
768.348	0.0141155
768.426	0.0142361
768.504	0.0141338
768.582	0.0141483
768.660	0.0142010
768.738	0.0142209
768.817	0.0142281
768.895	0.0142671
768.973	0.0143426
769.051	0.0143085
769.129	0.0142519
769.207	0.0143862
769.285	0.0143795
769.363	0.0143951
769.442	0.0142634
769.520	0.0144033
769.598	0.0143832
769.676	0.0144278
769.754	0.0142569
769.832	0.0143539
769.910	0.0142487
769.988	0.0142792
770.067	0.0142911
770.145	0.0140351
770.223	0.0142854
770.301	0.0143193
770.379	0.0140968
770.457	0.0142312
770.535	0.0142997
770.613	0.0142585
770.692	0.0142989
770.770	0.0140406
770.848	0.0141765
770.926	0.0142420
771.004	0.0142366
771.082	0.0141827
771.160	0.0141235
771.238	0.0142897
771.317	0.0141307
771.395	0.0142059
771.473	0.0142183
771.551	0.0141972
771.629	0.0141010
771.707	0.0142968
771.785	0.0141499
771.863	0.0141138
771.942	0.0140998
772.020	0.0140413
772.098	0.0141914
772.176	0.0141347
772.254	0.0142169
772.332	0.0142915
772.410	0.0142368
772.488	0.0142009
772.567	0.0141936
772.645	0.0141647
772.723	0.0142212
772.801	0.0143320
772.879	0.0141303
772.957	0.0141046
773.035	0.0141972
773.113	0.0141647
773.192	0.0141578
773.270	0.0141521
773.348	0.0142191
773.426	0.0141986
773.504	0.0141158
773.582	0.0142329
773.660	0.0142827
773.738	0.0142621
773.817	0.0142767
773.895	0.0143401
773.973	0.0143692
774.051	0.0142984
774.129	0.0141428
774.207	0.0142033
774.285	0.0143976
774.363	0.0143891
774.442	0.0143594
774.520	0.0143092
774.598	0.0143288
774.676	0.0143206
774.754	0.0142178
774.832	0.0144447
774.910	0.0142625
774.988	0.0144787
775.067	0.0143375
775.145	0.0143097
775.223	0.0141666
775.301	0.0142367
775.379	0.0142950
775.457	0.0142851
775.535	0.0142667
775.613	0.0142310
775.692	0.0143221
775.770	0.0142329
775.848	0.0141465
775.926	0.0141155
776.004	0.0141850
776.082	0.0142489
776.160	0.0143402
776.238	0.0141577
776.317	0.0143017
776.395	0.0141137
776.473	0.0141563
776.551	0.0141831
776.629	0.0142618
776.707	0.0141595
776.785	0.0141752
776.863	0.0142244
776.942	0.0142735
777.020	0.0142210
777.098	0.0141786
777.176	0.0141699
777.254	0.0140809
777.332	0.0141315
777.410	0.0141861
777.488	0.0141315
777.567	0.0141525
777.645	0.0141446
777.723	0.0140787
777.801	0.0142218
777.879	0.0141035
777.957	0.0143729
778.035	0.0141354
778.113	0.0142239
778.192	0.0141904
778.270	0.0143049
778.348	0.0143204
778.426	0.0144250
778.504	0.0143986
778.582	0.0141261
778.660	0.0143626
778.738	0.0144336
778.817	0.0142117
778.895	0.0143244
778.973	0.0143012
779.051	0.0142826
779.129	0.0142886
779.207	0.0144145
779.285	0.0142891
779.363	0.0142603
779.442	0.0143147
779.520	0.0141458
779.598	0.0143442
779.676	0.0142699
779.754	0.0141662
779.832	0.0141117
779.910	0.0141562
779.988	0.0141420
780.067	0.0142786
780.145	0.0142397
780.223	0.0141119
780.301	0.0142780
780.379	0.0141940
780.457	0.0142426
780.535	0.0141852
780.613	0.0142989
780.692	0.0142448
780.770	0.0142179
780.848	0.0141939
780.926	0.0143143
781.004	0.0141896
781.082	0.0141114
781.160	0.0141982
781.238	0.0143106
781.317	0.0142467
781.395	0.0141634
781.473	0.0140994
781.551	0.0142453
781.629	0.0141793
781.707	0.0141425
781.785	0.0141409
781.863	0.0143756
781.942	0.0142733
782.020	0.0142686
782.098	0.0142069
782.176	0.0143415
782.254	0.0142711
782.332	0.0143002
782.410	0.0142478
782.488	0.0142659
782.567	0.0143147
782.645	0.0143452
782.723	0.0141399
782.801	0.0143880
782.879	0.0142911
782.957	0.0143437
783.035	0.0142449
783.113	0.0143227
783.192	0.0143199
783.270	0.0143327
783.348	0.0143273
783.426	0.0141812
783.504	0.0143409
783.582	0.0142908
783.660	0.0142007
783.738	0.0142078
783.817	0.0142381
783.895	0.0142615
783.973	0.0142674
784.051	0.0141877
784.129	0.0141244
784.207	0.0140524
784.285	0.0141862
784.363	0.0141155
784.442	0.0140764
784.520	0.0141395
784.598	0.0141386
784.676	0.0139503
784.754	0.0141106
784.832	0.0139965
784.910	0.0141092
784.988	0.0141665
785.067	0.0141615
785.145	0.0140226
785.223	0.0141678
785.301	0.0142043
785.379	0.0140892
785.457	0.0140687
785.535	0.0139699
785.613	0.0141188
785.692	0.0142094
785.770	0.0141225
785.848	0.0141065
785.926	0.0140496
786.004	0.0140862
786.082	0.0141883
786.160	0.0140641
786.238	0.0141247
786.317	0.0141687
786.395	0.0142621
786.473	0.0141892
786.551	0.0142058
786.629	0.0143052
786.707	0.0142773
786.785	0.0143075
786.863	0.0144214
786.942	0.0142313
787.020	0.0141440
787.098	0.0141925
787.176	0.0142724
787.254	0.0142297
787.332	0.0142432
787.410	0.0143507
787.488	0.0143472
787.567	0.0142037
787.645	0.0143629
787.723	0.0141809
787.801	0.0141714
787.879	0.0142572
787.957	0.0141881
788.035	0.0142072
788.113	0.0141369
788.192	0.0140630
788.270	0.0141209
788.348	0.0140607
788.426	0.0142542
788.504	0.0140234
788.582	0.0139443
788.660	0.0139814
788.738	0.0139914
788.817	0.0139388
788.895	0.0140215
788.973	0.0140094
789.051	0.0140001
789.129	0.0140421
789.207	0.0139798
789.285	0.0140475
789.363	0.0140685
789.442	0.0139625
789.520	0.0141100
789.598	0.0141158
789.676	0.0140290
789.754	0.0139297
789.832	0.0139944
789.910	0.0141727
789.988	0.0140701
790.067	0.0139912
790.145	0.0141346
790.223	0.0141139
790.301	0.0141303
790.379	0.0141663
790.457	0.0142697
790.535	0.0142171
790.613	0.0141803
790.692	0.0141811
790.770	0.0142207
790.848	0.0142524
790.926	0.0142686
791.004	0.0141399
791.082	0.0141352
791.160	0.0142273
791.238	0.0140842
791.317	0.0141496
791.395	0.0140878
791.473	0.0142113
791.551	0.0141993
791.629	0.0141939
791.707	0.0142216
791.785	0.0141847
791.863	0.0141840
791.942	0.0142326
792.020	0.0142212
792.098	0.0142278
792.176	0.0142719
792.254	0.0143920
792.332	0.0142986
792.410	0.0143307
792.488	0.0145289
792.567	0.0143341
792.645	0.0144247
792.723	0.0144973
792.801	0.0145328
792.879	0.0145290
792.957	0.0143076
793.035	0.0144048
793.113	0.0143731
793.192	0.0143437
793.270	0.0141145
793.348	0.0142995
793.426	0.0142546
793.504	0.0141645
793.582	0.0141133
793.660	0.0141236
793.738	0.0140643
793.817	0.0141128
793.895	0.0140674
793.973	0.0141531
794.051	0.0140829
794.129	0.0142065
794.207	0.0140615
794.285	0.0141154
794.363	0.0140955
794.442	0.0139789
794.520	0.0139898
794.598	0.0141190
794.676	0.0142006
794.754	0.0141801
794.832	0.0140247
794.910	0.0141587
794.988	0.0141084
795.067	0.0142039
795.145	0.0140392
795.223	0.0142039
795.301	0.0139735
795.379	0.0140844
795.457	0.0143745
795.535	0.0141740
795.613	0.0141611
795.692	0.0141949
795.770	0.0141540
795.848	0.0141013
795.926	0.0142259
796.004	0.0143382
796.082	0.0143896
796.160	0.0143806
796.238	0.0144246
796.317	0.0143395
796.395	0.0142925
796.473	0.0143279
796.551	0.0142886
796.629	0.0142437
796.707	0.0143510
796.785	0.0142109
796.863	0.0143423
796.942	0.0143745
797.020	0.0143579
797.098	0.0144128
797.176	0.0142822
797.254	0.0142642
797.332	0.0143602
797.410	0.0143298
797.488	0.0143846
797.567	0.0142766
797.645	0.0145229
797.723	0.0143484
797.801	0.0144009
797.879	0.0144503
797.957	0.0145409
798.035	0.0142840
798.113	0.0143996
798.192	0.0142612
798.270	0.0143921
798.348	0.0143269
798.426	0.0143221
798.504	0.0141735
798.582	0.0143289
798.660	0.0143834
798.738	0.0142155
798.817	0.0141482
798.895	0.0143028
798.973	0.0143131
799.051	0.0141706
799.129	0.0140259
799.207	0.0140372
799.285	0.0140910
799.363	0.0139955
799.442	0.0139278
799.520	0.0138548
799.598	0.0140668
799.676	0.0141647
799.754	0.0140855
799.832	0.0139888
799.910	0.0139402
799.988	0.0139119
800.067	0.0140211
800.145	0.0140464
800.223	0.0140340
800.301	0.0141633
800.379	0.0142939
800.457	0.0141225
800.535	0.0140878
800.613	0.0141143
800.692	0.0142888
800.770	0.0142784
800.848	0.0142045
800.926	0.0143056
801.004	0.0143822
801.082	0.0143925
801.160	0.0143858
801.238	0.0143448
801.317	0.0142485
801.395	0.0145361
801.473	0.0144015
801.551	0.0143250
801.629	0.0142652
801.707	0.0144574
801.785	0.0143747
801.863	0.0142379
801.942	0.0144056
802.020	0.0145203
802.098	0.0144878
802.176	0.0144167
802.254	0.0143436
802.332	0.0143649
802.410	0.0144222
802.488	0.0143896
802.567	0.0143507
802.645	0.0142152
802.723	0.0143259
802.801	0.0142672
802.879	0.0141769
802.957	0.0143169
803.035	0.0144447
803.113	0.0143147
803.192	0.0143245
803.270	0.0141827
803.348	0.0140784
803.426	0.0142123
803.504	0.0141911
803.582	0.0141877
803.660	0.0141004
803.738	0.0141473
803.817	0.0140851
803.895	0.0140930
803.973	0.0141197
804.051	0.0141170
804.129	0.0141402
804.207	0.0140928
804.285	0.0140935
804.363	0.0140118
804.442	0.0142587
804.520	0.0141388
804.598	0.0140359
804.676	0.0139766
804.754	0.0140266
804.832	0.0139516
804.910	0.0138945
804.988	0.0139952
805.067	0.0140747
805.145	0.0139742
805.223	0.0139498
805.301	0.0140728
805.379	0.0141353
805.457	0.0141208
805.535	0.0140271
805.613	0.0140305
805.692	0.0141873
805.770	0.0141591
805.848	0.0141676
805.926	0.0142633
806.004	0.0141682
806.082	0.0142887
806.160	0.0143535
806.238	0.0143321
806.317	0.0143456
806.395	0.0142374
806.473	0.0141930
806.551	0.0143672
806.629	0.0142827
806.707	0.0142893
806.785	0.0142043
806.863	0.0143096
806.942	0.0141685
807.020	0.0142061
807.098	0.0142658
807.176	0.0143152
807.254	0.0142192
807.332	0.0142649
807.410	0.0140217
807.488	0.0140830
807.567	0.0141409
807.645	0.0141534
807.723	0.0141566
807.801	0.0141087
807.879	0.0141064
807.957	0.0140079
808.035	0.0140694
808.113	0.0140865
808.192	0.0140469
808.270	0.0140825
808.348	0.0140992
808.426	0.0140790
808.504	0.0141342
808.582	0.0142094
808.660	0.0140801
808.738	0.0141514
808.817	0.0142739
808.895	0.0142332
808.973	0.0141651
809.051	0.0141485
809.129	0.0142835
809.207	0.0143506
809.285	0.0142522
809.363	0.0142851
809.442	0.0142202
809.520	0.0142211
809.598	0.0142749
809.676	0.0143040
809.754	0.0142216
809.832	0.0142477
809.910	0.0142129
809.988	0.0140881
810.067	0.0140950
810.145	0.0140298
810.223	0.0141206
810.301	0.0141167
810.379	0.0142102
810.457	0.0142532
810.535	0.0142014
810.613	0.0139567
810.692	0.0139536
810.770	0.0141185
810.848	0.0141135
810.926	0.0141027
811.004	0.0142008
811.082	0.0141477
811.160	0.0142292
811.238	0.0140894
811.317	0.0141077
811.395	0.0142267
811.473	0.0141801
811.551	0.0142188
811.629	0.0143176
811.707	0.0140328
811.785	0.0141830
811.863	0.0142223
811.942	0.0141952
812.020	0.0141803
812.098	0.0141929
812.176	0.0143879
812.254	0.0141527
812.332	0.0141821
812.410	0.0142100
812.488	0.0141791
812.567	0.0142699
812.645	0.0142487
812.723	0.0142075
812.801	0.0141923
812.879	0.0141911
812.957	0.0141341
813.035	0.0141232
813.113	0.0142458
813.192	0.0141194
813.270	0.0141427
813.348	0.0142197
813.426	0.0142522
813.504	0.0141237
813.582	0.0141045
813.660	0.0141746
813.738	0.0143354
813.817	0.0143637
813.895	0.0142740
813.973	0.0141829
814.051	0.0141780
814.129	0.0142743
814.207	0.0142640
814.285	0.0142571
814.363	0.0142318
814.442	0.0141737
814.520	0.0141850
814.598	0.0143199
814.676	0.0142732
814.754	0.0142004
814.832	0.0142181
814.910	0.0143026
814.988	0.0142450
815.067	0.0141518
815.145	0.0140627
815.223	0.0141637
815.301	0.0141880
815.379	0.0140700
815.457	0.0140978
815.535	0.0141098
815.613	0.0141734
815.692	0.0141846
815.770	0.0141397
815.848	0.0141109
815.926	0.0141346
816.004	0.0140804
816.082	0.0140344
816.160	0.0140950
816.238	0.0141490
816.317	0.0141817
816.395	0.0141787
816.473	0.0142075
816.551	0.0143951
816.629	0.0142599
816.707	0.0141710
816.785	0.0142120
816.863	0.0141541
816.942	0.0141875
817.020	0.0142320
817.098	0.0141779
817.176	0.0140736
817.254	0.0141463
817.332	0.0143059
817.410	0.0142149
817.488	0.0142857
817.567	0.0142706
817.645	0.0142634
817.723	0.0141934
817.801	0.0141371
817.879	0.0142472
817.957	0.0142359
818.035	0.0141870
818.113	0.0141818
818.192	0.0141732
818.270	0.0142160
818.348	0.0142181
818.426	0.0140873
818.504	0.0140623
818.582	0.0141911
818.660	0.0142313
818.738	0.0141383
818.817	0.0139684
818.895	0.0141611
818.973	0.0140254
819.051	0.0142011
819.129	0.0140495
819.207	0.0142001
819.285	0.0141961
819.363	0.0141910
819.442	0.0142033
819.520	0.0139758
819.598	0.0142016
819.676	0.0142217
819.754	0.0141964
819.832	0.0142104
819.910	0.0142393
819.988	0.0141483
820.067	0.0142065
820.145	0.0142290
820.223	0.0141879
820.301	0.0141408
820.379	0.0142137
820.457	0.0142087
820.535	0.0142129
820.613	0.0141566
820.692	0.0141897
820.770	0.0143692
820.848	0.0142438
820.926	0.0140475
821.004	0.0142589
821.082	0.0140934
821.160	0.0141467
821.238	0.0143267
821.317	0.0141909
821.395	0.0142319
821.473	0.0142023
821.551	0.0142382
821.629	0.0141791
821.707	0.0142005
821.785	0.0141964
821.863	0.0141912
821.942	0.0142918
822.020	0.0141864
822.098	0.0141767
822.176	0.0141788
822.254	0.0141872
822.332	0.0143085
822.410	0.0142870
822.488	0.0141486
822.567	0.0142194
822.645	0.0143227
822.723	0.0142789
822.801	0.0144707
822.879	0.0143298
822.957	0.0143329
823.035	0.0143388
823.113	0.0141949
823.192	0.0143787
823.270	0.0144122
823.348	0.0143533
823.426	0.0142132
823.504	0.0142821
823.582	0.0142406
823.660	0.0143098
823.738	0.0144546
823.817	0.0142564
823.895	0.0143303
823.973	0.0143553
824.051	0.0143149
824.129	0.0142616
824.207	0.0142211
824.285	0.0142736
824.363	0.0142735
824.442	0.0142489
824.520	0.0142204
824.598	0.0143525
824.676	0.0142081
824.754	0.0141704
824.832	0.0142388
824.910	0.0142134
824.988	0.0141472
825.067	0.0143035
825.145	0.0141780
825.223	0.0140977
825.301	0.0142594
825.379	0.0142511
825.457	0.0142265
825.535	0.0142786
825.613	0.0142181
825.692	0.0141809
825.770	0.0143123
825.848	0.0141727
825.926	0.0141163
826.004	0.0142384
826.082	0.0141994
826.160	0.0141479
826.238	0.0142766
826.317	0.0142286
826.395	0.0142112
826.473	0.0141759
826.551	0.0141777
826.629	0.0142577
826.707	0.0142201
826.785	0.0142390
826.863	0.0142981
826.942	0.0142961
827.020	0.0141770
827.098	0.0142365
827.176	0.0140897
827.254	0.0141553
827.332	0.0141622
827.410	0.0141962
827.488	0.0141416
827.567	0.0141640
827.645	0.0142590
827.723	0.0142708
827.801	0.0142377
827.879	0.0142233
827.957	0.0142731
828.035	0.0141719
828.113	0.0143571
828.192	0.0143523
828.270	0.0143679
828.348	0.0143097
828.426	0.0142993
828.504	0.0143265
828.582	0.0143340
828.660	0.0142822
828.738	0.0142638
828.817	0.0142909
828.895	0.0143128
828.973	0.0143060
829.051	0.0142646
829.129	0.0143132
829.207	0.0143108
829.285	0.0142818
829.363	0.0142933
829.442	0.0142324
829.520	0.0143765
829.598	0.0142732
829.676	0.0141232
829.754	0.0142258
829.832	0.0141944
829.910	0.0141564
829.988	0.0141569
830.067	0.0141785
830.145	0.0142758
830.223	0.0142652
830.301	0.0141655
830.379	0.0142039
830.457	0.0142398
830.535	0.0143115
830.613	0.0142610
830.692	0.0143578
830.770	0.0142541
830.848	0.0141953
830.926	0.0143379
831.004	0.0142055
831.082	0.0143494
831.160	0.0142493
831.238	0.0142365
831.317	0.0143016
831.395	0.0142815
831.473	0.0143578
831.551	0.0142474
831.629	0.0143182
831.707	0.0143754
831.785	0.0141343
831.863	0.0143713
831.942	0.0143786
832.020	0.0143948
832.098	0.0144292
832.176	0.0142802
832.254	0.0142671
832.332	0.0144019
832.410	0.0143642
832.488	0.0142316
832.567	0.0143128
832.645	0.0142651
832.723	0.0142353
832.801	0.0142081
832.879	0.0143390
832.957	0.0142671
833.035	0.0142145
833.113	0.0143119
833.192	0.0142183
833.270	0.0142939
833.348	0.0141813
833.426	0.0142707
833.504	0.0143502
833.582	0.0143327
833.660	0.0142696
833.738	0.0143218
833.817	0.0142148
833.895	0.0142986
833.973	0.0141921
834.051	0.0142686
834.129	0.0143408
834.207	0.0142404
834.285	0.0141958
834.363	0.0143311
834.442	0.0141360
834.520	0.0141560
834.598	0.0142166
834.676	0.0142778
834.754	0.0141513
834.832	0.0142115
834.910	0.0141987
834.988	0.0140763
835.067	0.0142015
835.145	0.0141835
835.223	0.0142617
835.301	0.0141380
835.379	0.0141352
835.457	0.0142027
835.535	0.0140771
835.613	0.0140862
835.692	0.0142964
835.770	0.0141242
835.848	0.0141813
835.926	0.0141880
836.004	0.0141075
836.082	0.0141451
836.160	0.0141480
836.238	0.0141137
836.317	0.0141967
836.395	0.0142474
836.473	0.0142318
836.551	0.0142811
836.629	0.0142632
836.707	0.0141665
836.785	0.0142903
836.863	0.0141414
836.942	0.0143414
837.020	0.0142650
837.098	0.0142368
837.176	0.0142801
837.254	0.0141167
837.332	0.0142449
837.410	0.0141817
837.488	0.0143248
837.567	0.0144190
837.645	0.0144341
837.723	0.0143117
837.801	0.0143652
837.879	0.0143082
837.957	0.0142740
838.035	0.0143111
838.113	0.0141965
838.192	0.0142217
838.270	0.0142266
838.348	0.0141988
838.426	0.0143089
838.504	0.0142410
838.582	0.0142191
838.660	0.0143053
838.738	0.0141270
838.817	0.0142311
838.895	0.0143573
838.973	0.0141798
839.051	0.0143666
839.129	0.0143282
839.207	0.0142416
839.285	0.0143032
839.363	0.0143547
839.442	0.0142755
839.520	0.0141700
839.598	0.0142424
839.676	0.0142432
839.754	0.0140939
839.832	0.0143285
839.910	0.0142236
839.988	0.0143003
840.067	0.0141773
840.145	0.0142640
840.223	0.0142377
840.301	0.0140789
840.379	0.0141833
840.457	0.0140714
840.535	0.0142015
840.613	0.0140012
840.692	0.0141723
840.770	0.0142603
840.848	0.0142249
840.926	0.0140595
841.004	0.0141346
841.082	0.0140449
841.160	0.0141405
841.238	0.0140352
841.317	0.0141181
841.395	0.0140798
841.473	0.0141248
841.551	0.0140184
841.629	0.0140601
841.707	0.0142270
841.785	0.0142181
841.863	0.0140402
841.942	0.0142002
842.020	0.0142661
842.098	0.0141782
842.176	0.0142321
842.254	0.0141123
842.332	0.0141662
842.410	0.0141969
842.488	0.0141016
842.567	0.0139726
842.645	0.0140627
842.723	0.0142150
842.801	0.0142898
842.879	0.0141786
842.957	0.0141794
843.035	0.0142404
843.113	0.0142319
843.192	0.0143037
843.270	0.0141647
843.348	0.0143207
843.426	0.0142297
843.504	0.0142229
843.582	0.0141954
843.660	0.0142110
843.738	0.0141405
843.817	0.0142418
843.895	0.0140922
843.973	0.0141199
844.051	0.0142688
844.129	0.0139896
844.207	0.0141342
844.285	0.0143060
844.363	0.0141976
844.442	0.0141801
844.520	0.0141605
844.598	0.0141349
844.676	0.0141811
844.754	0.0141375
844.832	0.0141640
844.910	0.0142204
844.988	0.0142039
845.067	0.0140577
845.145	0.0141636
845.223	0.0142884
845.301	0.0141210
845.379	0.0141683
845.457	0.0142184
845.535	0.0142853
845.613	0.0141255
845.692	0.0143081
845.770	0.0141754
845.848	0.0142068
845.926	0.0141753
846.004	0.0141764
846.082	0.0141048
846.160	0.0141682
846.238	0.0144092
846.317	0.0143884
846.395	0.0142542
846.473	0.0142886
846.551	0.0142387
846.629	0.0143439
846.707	0.0142395
846.785	0.0143290
846.863	0.0144559
846.942	0.0143312
847.020	0.0143251
847.098	0.0143040
847.176	0.0142587
847.254	0.0142934
847.332	0.0141855
847.410	0.0143335
847.488	0.0142142
847.567	0.0142223
847.645	0.0143121
847.723	0.0141405
847.801	0.0141880
847.879	0.0143848
847.957	0.0142389
848.035	0.0140752
848.113	0.0141381
848.192	0.0141601
848.270	0.0140708
848.348	0.0141992
848.426	0.0143695
848.504	0.0143402
848.582	0.0142352
848.660	0.0142081
848.738	0.0142593
848.817	0.0143610
848.895	0.0143861
848.973	0.0141468
849.051	0.0142847
849.129	0.0142267
849.207	0.0142017
849.285	0.0142564
849.363	0.0142419
849.442	0.0143362
849.520	0.0143051
849.598	0.0143151
849.676	0.0143150
849.754	0.0141684
849.832	0.0142137
849.910	0.0142162
849.988	0.0142053
850.067	0.0142394
850.145	0.0142327
850.223	0.0141664
850.301	0.0141863
850.379	0.0141650
850.457	0.0144426
850.535	0.0143036
850.613	0.0141652
850.692	0.0143904
850.770	0.0142252
850.848	0.0141931
850.926	0.0142597
851.004	0.0143449
851.082	0.0143737
851.160	0.0142199
851.238	0.0143445
851.317	0.0142490
851.395	0.0142962
851.473	0.0143276
851.551	0.0142504
851.629	0.0142268
851.707	0.0142400
851.785	0.0144075
851.863	0.0143219
851.942	0.0143304
852.020	0.0143392
852.098	0.0143191
852.176	0.0141830
852.254	0.0142811
852.332	0.0142748
852.410	0.0142824
852.488	0.0142400
852.567	0.0143458
852.645	0.0142790
852.723	0.0141689
852.801	0.0142423
852.879	0.0142713
852.957	0.0141214
853.035	0.0142397
853.113	0.0141745
853.192	0.0141461
853.270	0.0142784
853.348	0.0143784
853.426	0.0141901
853.504	0.0141976
853.582	0.0144514
853.660	0.0143829
853.738	0.0143905
853.817	0.0142728
853.895	0.0143023
853.973	0.0141973
854.051	0.0143652
854.129	0.0144530
854.207	0.0143365
854.285	0.0142580
854.363	0.0144222
854.442	0.0142220
854.520	0.0143929
854.598	0.0143671
854.676	0.0142613
854.754	0.0142171
854.832	0.0143923
854.910	0.0142378
854.988	0.0143471
855.067	0.0142735
855.145	0.0141354
855.223	0.0142808
855.301	0.0144376
855.379	0.0142790
855.457	0.0143203
855.535	0.0142270
855.613	0.0141821
855.692	0.0143242
855.770	0.0142731
855.848	0.0143253
855.926	0.0143399
856.004	0.0142812
856.082	0.0142913
856.160	0.0143607
856.238	0.0144238
856.317	0.0144297
856.395	0.0142065
856.473	0.0142886
856.551	0.0144022
856.629	0.0142599
856.707	0.0143196
856.785	0.0141878
856.863	0.0142098
856.942	0.0142769
857.020	0.0142920
857.098	0.0142654
857.176	0.0142889
857.254	0.0141477
857.332	0.0141212
857.410	0.0144348
857.488	0.0143993
857.567	0.0142113
857.645	0.0142284
857.723	0.0141319
857.801	0.0142639
857.879	0.0142784
857.957	0.0143206
858.035	0.0142052
858.113	0.0142549
858.192	0.0143256
858.270	0.0143761
858.348	0.0143078
858.426	0.0142371
858.504	0.0142383
858.582	0.0143172
858.660	0.0142884
858.738	0.0143518
858.817	0.0144482
858.895	0.0144084
858.973	0.0143212
859.051	0.0143277
859.129	0.0143456
859.207	0.0142139
859.285	0.0144439
859.363	0.0143384
859.442	0.0142951
859.520	0.0142237
859.598	0.0142580
859.676	0.0141052
859.754	0.0143302
859.832	0.0142168
859.910	0.0142077
859.988	0.0143054
860.067	0.0142970
860.145	0.0141370
860.223	0.0142411
860.301	0.0142947
860.379	0.0142435
860.457	0.0140800
860.535	0.0142603
860.613	0.0143008
860.692	0.0143005
860.770	0.0142500
860.848	0.0142941
860.926	0.0142439
861.004	0.0141909
861.082	0.0143546
861.160	0.0144348
861.238	0.0142911
861.317	0.0141712
861.395	0.0143433
861.473	0.0143096
861.551	0.0143194
861.629	0.0143243
861.707	0.0142703
861.785	0.0142757
861.863	0.0144198
861.942	0.0142621
862.020	0.0142838
862.098	0.0144025
862.176	0.0142271
862.254	0.0142223
862.332	0.0142143
862.410	0.0143169
862.488	0.0141154
862.567	0.0141086
862.645	0.0143226
862.723	0.0142081
862.801	0.0141416
862.879	0.0141799
862.957	0.0141304
863.035	0.0142706
863.113	0.0141454
863.192	0.0141402
863.270	0.0142377
863.348	0.0142247
863.426	0.0142121
863.504	0.0142560
863.582	0.0142580
863.660	0.0142966
863.738	0.0142290
863.817	0.0142487
863.895	0.0142812
863.973	0.0143669
864.051	0.0143153
864.129	0.0143510
864.207	0.0143015
864.285	0.0142607
864.363	0.0142300
864.442	0.0144321
864.520	0.0142636
864.598	0.0142558
864.676	0.0142825
864.754	0.0140315
864.832	0.0143075
864.910	0.0142184
864.988	0.0141810
865.067	0.0141469
865.145	0.0141948
865.223	0.0142807
865.301	0.0140866
865.379	0.0140645
865.457	0.0140199
865.535	0.0140450
865.613	0.0140844
865.692	0.0141479
865.770	0.0140142
865.848	0.0140614
865.926	0.0141293
866.004	0.0141276
866.082	0.0141964
866.160	0.0141253
866.238	0.0140498
866.317	0.0139402
866.395	0.0141016
866.473	0.0142477
866.551	0.0142175
866.629	0.0143528
866.707	0.0142841
866.785	0.0142494
866.863	0.0142214
866.942	0.0143648
867.020	0.0143122
867.098	0.0142239
867.176	0.0143888
867.254	0.0142365
867.332	0.0141636
867.410	0.0142384
867.488	0.0142271
867.567	0.0141234
867.645	0.0141568
867.723	0.0141328
867.801	0.0141102
867.879	0.0141229
867.957	0.0141446
868.035	0.0140701
868.113	0.0139129
868.192	0.0139676
868.270	0.0140249
868.348	0.0140852
868.426	0.0139146
868.504	0.0139121
868.582	0.0140475
868.660	0.0141683
868.738	0.0138862
868.817	0.0139088
868.895	0.0141111
868.973	0.0140368
869.051	0.0140300
869.129	0.0140991
869.207	0.0140151
869.285	0.0141093
869.363	0.0139540
869.442	0.0140561
869.520	0.0141009
869.598	0.0140210
869.676	0.0141677
869.754	0.0141919
869.832	0.0142361
869.910	0.0141913
869.988	0.0141499
870.067	0.0142569
870.145	0.0142650
870.223	0.0141620
870.301	0.0141624
870.379	0.0141073
870.457	0.0142367
870.535	0.0142456
870.613	0.0142108
870.692	0.0141644
870.770	0.0141548
870.848	0.0143292
870.926	0.0142181
871.004	0.0143005
871.082	0.0142692
871.160	0.0141412
871.238	0.0141215
871.317	0.0141151
871.395	0.0142683
871.473	0.0140900
871.551	0.0140381
871.629	0.0139984
871.707	0.0142210
871.785	0.0140044
871.863	0.0140100
871.942	0.0141113
872.020	0.0140962
872.098	0.0141437
872.176	0.0140440
872.254	0.0141544
872.332	0.0141678
872.410	0.0140778
872.488	0.0141680
872.567	0.0142060
872.645	0.0142361
872.723	0.0140491
872.801	0.0142075
872.879	0.0141695
872.957	0.0141201
873.035	0.0141527
873.113	0.0140730
873.192	0.0141548
873.270	0.0142239
873.348	0.0142162
873.426	0.0140952
873.504	0.0141668
873.582	0.0142152
873.660	0.0142628
873.738	0.0141571
873.817	0.0141261
873.895	0.0141794
873.973	0.0140921
874.051	0.0142726
874.129	0.0141806
874.207	0.0142263
874.285	0.0143887
874.363	0.0140722
874.442	0.0143680
874.520	0.0141828
874.598	0.0141920
874.676	0.0142186
874.754	0.0142137
874.832	0.0141955
874.910	0.0142184
874.988	0.0142094
875.067	0.0142243
875.145	0.0143040
875.223	0.0143105
875.301	0.0142128
875.379	0.0143436
875.457	0.0142139
875.535	0.0143887
875.613	0.0142238
875.692	0.0141712
875.770	0.0142128
875.848	0.0143179
875.926	0.0142274
876.004	0.0142599
876.082	0.0142274
876.160	0.0141492
876.238	0.0142191
876.317	0.0141986
876.395	0.0141909
876.473	0.0142730
876.551	0.0143131
876.629	0.0143477
876.707	0.0142348
876.785	0.0143397
876.863	0.0142055
876.942	0.0141725
877.020	0.0141229
877.098	0.0143503
877.176	0.0142543
877.254	0.0141840
877.332	0.0142580
877.410	0.0142542
877.488	0.0142197
877.567	0.0142726
877.645	0.0141856
877.723	0.0140926
877.801	0.0142376
877.879	0.0142182
877.957	0.0142478
878.035	0.0144460
878.113	0.0143266
878.192	0.0142996
878.270	0.0143429
878.348	0.0144144
878.426	0.0142733
878.504	0.0143388
878.582	0.0142551
878.660	0.0141541
878.738	0.0143729
878.817	0.0143938
878.895	0.0143295
878.973	0.0142430
879.051	0.0144276
879.129	0.0143259
879.207	0.0143826
879.285	0.0144327
879.363	0.0144068
879.442	0.0144618
879.520	0.0143159
879.598	0.0142874
879.676	0.0142815
879.754	0.0144013
879.832	0.0143700
879.910	0.0142295
879.988	0.0143598
880.067	0.0142081
880.145	0.0144830
880.223	0.0145103
880.301	0.0142460
880.379	0.0142566
880.457	0.0144162
880.535	0.0142924
880.613	0.0142875
880.692	0.0143046
880.770	0.0143301
880.848	0.0144718
880.926	0.0144028
881.004	0.0143070
881.082	0.0143477
881.160	0.0142550
881.238	0.0142428
881.317	0.0143649
881.395	0.0143420
881.473	0.0142372
881.551	0.0142958
881.629	0.0142416
881.707	0.0143694
881.785	0.0143698
881.863	0.0142237
881.942	0.0143034
882.020	0.0143740
882.098	0.0143629
882.176	0.0142825
882.254	0.0141629
882.332	0.0142532
882.410	0.0142754
882.488	0.0144080
882.567	0.0142941
882.645	0.0142400
882.723	0.0143951
882.801	0.0142860
882.879	0.0142840
882.957	0.0142733
883.035	0.0143293
883.113	0.0142069
883.192	0.0143232
883.270	0.0142810
883.348	0.0142603
883.426	0.0142004
883.504	0.0142521
883.582	0.0141618
883.660	0.0142297
883.738	0.0141501
883.817	0.0141734
883.895	0.0141361
883.973	0.0139788
884.051	0.0141138
884.129	0.0141122
884.207	0.0142061
884.285	0.0142377
884.363	0.0142414
884.442	0.0141929
884.520	0.0140974
884.598	0.0141748
884.676	0.0141208
884.754	0.0142533
884.832	0.0142631
884.910	0.0140465
884.988	0.0142576
885.067	0.0141085
885.145	0.0142179
885.223	0.0142827
885.301	0.0141557
885.379	0.0141607
885.457	0.0141981
885.535	0.0142110
885.613	0.0141843
885.692	0.0141235
885.770	0.0141695
885.848	0.0142087
885.926	0.0141682
886.004	0.0140947
886.082	0.0141790
886.160	0.0140992
886.238	0.0141393
886.317	0.0141547
886.395	0.0141280
886.473	0.0142043
886.551	0.0141239
886.629	0.0140032
886.707	0.0142105
886.785	0.0142463
886.863	0.0140620
886.942	0.0139709
887.020	0.0143000
887.098	0.0141595
887.176	0.0142245
887.254	0.0142297
887.332	0.0143604
887.410	0.0143172
887.488	0.0141977
887.567	0.0142162
887.645	0.0142302
887.723	0.0142431
887.801	0.0141400
887.879	0.0141920
887.957	0.0141811
888.035	0.0141396
888.113	0.0141617
888.192	0.0141740
888.270	0.0141965
888.348	0.0141266
888.426	0.0141200
888.504	0.0142321
888.582	0.0142202
888.660	0.0140966
888.738	0.0142339
888.817	0.0140978
888.895	0.0140504
888.973	0.0141738
889.051	0.0141573
889.129	0.0140598
889.207	0.0140228
889.285	0.0140695
889.363	0.0140574
889.442	0.0140595
889.520	0.0139639
889.598	0.0140107
889.676	0.0140656
889.754	0.0139227
889.832	0.0139781
889.910	0.0139465
889.988	0.0140347
890.067	0.0139324
890.145	0.0139735
890.223	0.0139985
890.301	0.0138837
890.379	0.0140652
890.457	0.0140895
890.535	0.0140839
890.613	0.0141088
890.692	0.0141466
890.770	0.0140990
890.848	0.0141635
890.926	0.0140679
891.004	0.0143013
891.082	0.0139217
891.160	0.0142333
891.238	0.0142386
891.317	0.0142689
891.395	0.0142485
891.473	0.0143151
891.551	0.0141295
891.629	0.0141628
891.707	0.0142760
891.785	0.0143224
891.863	0.0142113
891.942	0.0142459
892.020	0.0144020
892.098	0.0143723
892.176	0.0143212
892.254	0.0142388
892.332	0.0142128
892.410	0.0141132
892.488	0.0141888
892.567	0.0141830
892.645	0.0141930
892.723	0.0142121
892.801	0.0142926
892.879	0.0141574
892.957	0.0142906
893.035	0.0141719
893.113	0.0140479
893.192	0.0141393
893.270	0.0141830
893.348	0.0141273
893.426	0.0142744
893.504	0.0141032
893.582	0.0143213
893.660	0.0142403
893.738	0.0141753
893.817	0.0140686
893.895	0.0141031
893.973	0.0141162
894.051	0.0139492
894.129	0.0141444
894.207	0.0140842
894.285	0.0140596
894.363	0.0140261
894.442	0.0140680
894.520	0.0141186
894.598	0.0142298
894.676	0.0140246
894.754	0.0140866
894.832	0.0140620
894.910	0.0141261
894.988	0.0141599
895.067	0.0142661
895.145	0.0140160
895.223	0.0142192
895.301	0.0143718
895.379	0.0142207
895.457	0.0142338
895.535	0.0143087
895.613	0.0142867
895.692	0.0143137
895.770	0.0143454
895.848	0.0141981
895.926	0.0142960
896.004	0.0142369
896.082	0.0140776
896.160	0.0142942
896.238	0.0143585
896.317	0.0142657
896.395	0.0143705
896.473	0.0142891
896.551	0.0143313
896.629	0.0142082
896.707	0.0142242
896.785	0.0142542
896.863	0.0141795
896.942	0.0141777
897.020	0.0142141
897.098	0.0142963
897.176	0.0142789
897.254	0.0141998
897.332	0.0141194
897.410	0.0141651
897.488	0.0142024
897.567	0.0142730
897.645	0.0141254
897.723	0.0142667
897.801	0.0142258
897.879	0.0141532
897.957	0.0142171
898.035	0.0142026
898.113	0.0142581
898.192	0.0141521
898.270	0.0142021
898.348	0.0142316
898.426	0.0140718
898.504	0.0142338
898.582	0.0143797
898.660	0.0143769
898.738	0.0141260
898.817	0.0144353
898.895	0.0142305
898.973	0.0141334
899.051	0.0142068
899.129	0.0143578
899.207	0.0142049
899.285	0.0141767
899.363	0.0142701
899.442	0.0143661
899.520	0.0141701
899.598	0.0143111
899.676	0.0142814
899.754	0.0142937
899.832	0.0142340
899.910	0.0142564
899.988	0.0144764
900.067	0.0142558
900.145	0.0144108
900.223	0.0144324
900.301	0.0143358
900.379	0.0143040
900.457	0.0142966
900.535	0.0143976
900.613	0.0142867
900.692	0.0142332
900.770	0.0143124
900.848	0.0143549
900.926	0.0144329
901.004	0.0142368
901.082	0.0143240
901.160	0.0143533
901.238	0.0143241
901.317	0.0143538
901.395	0.0141774
901.473	0.0142046
901.551	0.0142426
901.629	0.0141784
901.707	0.0142501
901.785	0.0142728
901.863	0.0142226
901.942	0.0142357
902.020	0.0142387
902.098	0.0142636
902.176	0.0141056
902.254	0.0141280
902.332	0.0141096
902.410	0.0140646
902.488	0.0141563
902.567	0.0140974
902.645	0.0142091
902.723	0.0141727
902.801	0.0141493
902.879	0.0142942
902.957	0.0141770
903.035	0.0142327
903.113	0.0141502
903.192	0.0143042
903.270	0.0142519
903.348	0.0141704
903.426	0.0141742
903.504	0.0142770
903.582	0.0141727
903.660	0.0143034
903.738	0.0143977
903.817	0.0141019
903.895	0.0142141
903.973	0.0143797
904.051	0.0142957
904.129	0.0142587
904.207	0.0142549
904.285	0.0142207
904.363	0.0142738
904.442	0.0144115
904.520	0.0142212
904.598	0.0141786
904.676	0.0141998
904.754	0.0143072
904.832	0.0143167
904.910	0.0142883
904.988	0.0141055
905.067	0.0142790
905.145	0.0141940
905.223	0.0141942
905.301	0.0142554
905.379	0.0142824
905.457	0.0142211
905.535	0.0142629
905.613	0.0143030
905.692	0.0141763
905.770	0.0142971
905.848	0.0141853
905.926	0.0141856
906.004	0.0142367
906.082	0.0142307
906.160	0.0141782
906.238	0.0141504
906.317	0.0141433
906.395	0.0142262
906.473	0.0142629
906.551	0.0141878
906.629	0.0141237
906.707	0.0142159
906.785	0.0141933
906.863	0.0141733
906.942	0.0143581
907.020	0.0141927
907.098	0.0141958
907.176	0.0141676
907.254	0.0141186
907.332	0.0142233
907.410	0.0142435
907.488	0.0141695
907.567	0.0142361
907.645	0.0143431
907.723	0.0143511
907.801	0.0142755
907.879	0.0141530
907.957	0.0142368
908.035	0.0142405
908.113	0.0143695
908.192	0.0142481
908.270	0.0142931
908.348	0.0142989
908.426	0.0141714
908.504	0.0144081
908.582	0.0141904
908.660	0.0141431
908.738	0.0142921
908.817	0.0143685
908.895	0.0142962
908.973	0.0142162
909.051	0.0142743
909.129	0.0142944
909.207	0.0143513
909.285	0.0143623
909.363	0.0141856
909.442	0.0142356
909.520	0.0140771
909.598	0.0142289
909.676	0.0141930
909.754	0.0142503
909.832	0.0142403
909.910	0.0140658
909.988	0.0142021
910.067	0.0142276
910.145	0.0142094
910.223	0.0142095
910.301	0.0141768
910.379	0.0141508
910.457	0.0141864
910.535	0.0141943
910.613	0.0141003
910.692	0.0141648
910.770	0.0140519
910.848	0.0141147
910.926	0.0140913
911.004	0.0142035
911.082	0.0141301
911.160	0.0141554
911.238	0.0142535
911.317	0.0143103
911.395	0.0142417
911.473	0.0140228
911.551	0.0142416
911.629	0.0141952
911.707	0.0141107
911.785	0.0141733
911.863	0.0142680
911.942	0.0142062
912.020	0.0141727
912.098	0.0141989
912.176	0.0142228
912.254	0.0142939
912.332	0.0142746
912.410	0.0141863
912.488	0.0141055
912.567	0.0142751
912.645	0.0143701
912.723	0.0141899
912.801	0.0141602
912.879	0.0141953
912.957	0.0142795
913.035	0.0143239
913.113	0.0142998
913.192	0.0142820
913.270	0.0143195
913.348	0.0143264
913.426	0.0140993
913.504	0.0143310
913.582	0.0142533
913.660	0.0142416
913.738	0.0142787
913.817	0.0142171
913.895	0.0142509
913.973	0.0143256
914.051	0.0143170
914.129	0.0143714
914.207	0.0143797
914.285	0.0142151
914.363	0.0143270
914.442	0.0143871
914.520	0.0141073
914.598	0.0142569
914.676	0.0142942
914.754	0.0142981
914.832	0.0141858
914.910	0.0141865
914.988	0.0141125
915.067	0.0141514
915.145	0.0142850
915.223	0.0141769
915.301	0.0142230
915.379	0.0142113
915.457	0.0142612
915.535	0.0141928
915.613	0.0141996
915.692	0.0141896
915.770	0.0142771
915.848	0.0142308
915.926	0.0141830
916.004	0.0142356
916.082	0.0144552
916.160	0.0142660
916.238	0.0142619
916.317	0.0142799
916.395	0.0142557
916.473	0.0142703
916.551	0.0142770
916.629	0.0143137
916.707	0.0142719
916.785	0.0142586
916.863	0.0142497
916.942	0.0142199
917.020	0.0142193
917.098	0.0144673
917.176	0.0142509
917.254	0.0142217
917.332	0.0142959
917.410	0.0142751
917.488	0.0142890
917.567	0.0143150
917.645	0.0142776
917.723	0.0141798
917.801	0.0143686
917.879	0.0142859
917.957	0.0142970
918.035	0.0142921
918.113	0.0143440
918.192	0.0143220
918.270	0.0142635
918.348	0.0141878
918.426	0.0143353
918.504	0.0143416
918.582	0.0141714
918.660	0.0142728
918.738	0.0141987
918.817	0.0140518
918.895	0.0140649
918.973	0.0141708
919.051	0.0141331
919.129	0.0141692
919.207	0.0142165
919.285	0.0142239
919.363	0.0141293
919.442	0.0140912
919.520	0.0141675
919.598	0.0141793
919.676	0.0142815
919.754	0.0143301
919.832	0.0141451
919.910	0.0143154
