05/28/2022	14:17:26	Ver.	4.1	UNKNOWN
Optical Delay	599.988409	Delta X		0.078125	Sweeps	1	Scan Rate	0/0
Coordinates	Axis 1	NaN	Axis 2	NaN	Axis 3	NaN	Axis 4	NaN	Axis 5	NaN	Axis 6	0.000000
TX Power	0.000000	RX Power	0.000000

599.988	0.0141034
600.067	0.0141250
600.145	0.0140189
600.223	0.0141286
600.301	0.0141146
600.379	0.0140442
600.457	0.0141951
600.535	0.0139457
600.613	0.0140961
600.692	0.0141525
600.770	0.0142323
600.848	0.0141586
600.926	0.0141321
601.004	0.0141777
601.082	0.0141546
601.160	0.0141566
601.238	0.0140901
601.317	0.0141131
601.395	0.0141154
601.473	0.0141550
601.551	0.0141243
601.629	0.0140884
601.707	0.0140283
601.785	0.0141005
601.863	0.0141138
601.942	0.0141515
602.020	0.0141384
602.098	0.0141290
602.176	0.0140691
602.254	0.0140981
602.332	0.0141047
602.410	0.0141750
602.488	0.0140960
602.567	0.0140522
602.645	0.0141513
602.723	0.0141203
602.801	0.0141282
602.879	0.0141538
602.957	0.0141744
603.035	0.0141284
603.113	0.0141170
603.192	0.0140484
603.270	0.0141409
603.348	0.0141452
603.426	0.0142191
603.504	0.0141019
603.582	0.0141298
603.660	0.0141953
603.738	0.0140491
603.817	0.0140538
603.895	0.0141309
603.973	0.0141898
604.051	0.0140605
604.129	0.0139984
604.207	0.0141627
604.285	0.0141954
604.363	0.0141598
604.442	0.0141443
604.520	0.0141275
604.598	0.0142027
604.676	0.0141915
604.754	0.0141418
604.832	0.0140668
604.910	0.0141395
604.988	0.0141544
605.067	0.0139915
605.145	0.0141008
605.223	0.0141752
605.301	0.0141225
605.379	0.0140646
605.457	0.0140751
605.535	0.0142142
605.613	0.0141314
605.692	0.0142529
605.770	0.0142509
605.848	0.0141972
605.926	0.0141762
606.004	0.0140762
606.082	0.0139879
606.160	0.0140799
606.238	0.0140439
606.317	0.0141281
606.395	0.0140322
606.473	0.0140720
606.551	0.0143314
606.629	0.0141405
606.707	0.0140223
606.785	0.0140610
606.863	0.0141983
606.942	0.0141440
607.020	0.0141231
607.098	0.0141302
607.176	0.0141266
607.254	0.0140804
607.332	0.0141789
607.410	0.0141045
607.488	0.0142023
607.567	0.0140868
607.645	0.0141436
607.723	0.0140912
607.801	0.0141598
607.879	0.0141145
607.957	0.0140945
608.035	0.0142431
608.113	0.0142050
608.192	0.0139745
608.270	0.0141579
608.348	0.0142241
608.426	0.0141999
608.504	0.0140646
608.582	0.0142429
608.660	0.0142332
608.738	0.0141601
608.817	0.0140549
608.895	0.0140855
608.973	0.0142242
609.051	0.0142287
609.129	0.0141262
609.207	0.0140469
609.285	0.0141598
609.363	0.0142870
609.442	0.0140593
609.520	0.0140836
609.598	0.0142137
609.676	0.0142544
609.754	0.0141048
609.832	0.0141884
609.910	0.0142017
609.988	0.0142189
610.067	0.0141375
610.145	0.0140386
610.223	0.0141556
610.301	0.0141444
610.379	0.0141237
610.457	0.0142097
610.535	0.0142111
610.613	0.0140969
610.692	0.0141258
610.770	0.0142928
610.848	0.0142213
610.926	0.0142295
611.004	0.0141486
611.082	0.0141407
611.160	0.0142046
611.238	0.0143156
611.317	0.0141236
611.395	0.0141297
611.473	0.0141298
611.551	0.0141542
611.629	0.0141003
611.707	0.0141528
611.785	0.0141882
611.863	0.0141952
611.942	0.0141828
612.020	0.0141938
612.098	0.0141698
612.176	0.0141597
612.254	0.0141862
612.332	0.0140106
612.410	0.0140471
612.488	0.0142453
612.567	0.0140808
612.645	0.0140536
612.723	0.0142046
612.801	0.0141044
612.879	0.0140414
612.957	0.0141928
613.035	0.0141111
613.113	0.0143048
613.192	0.0139647
613.270	0.0140053
613.348	0.0140366
613.426	0.0140710
613.504	0.0141094
613.582	0.0141014
613.660	0.0140902
613.738	0.0141540
613.817	0.0142268
613.895	0.0142251
613.973	0.0140842
614.051	0.0140461
614.129	0.0143327
614.207	0.0142640
614.285	0.0142742
614.363	0.0141930
614.442	0.0141856
614.520	0.0140706
614.598	0.0141647
614.676	0.0141324
614.754	0.0141464
614.832	0.0142677
614.910	0.0141510
614.988	0.0142056
615.067	0.0142123
615.145	0.0144172
615.223	0.0142072
615.301	0.0143481
615.379	0.0141952
615.457	0.0142831
615.535	0.0141718
615.613	0.0141527
615.692	0.0141905
615.770	0.0140850
615.848	0.0141158
615.926	0.0141371
616.004	0.0141625
616.082	0.0142254
616.160	0.0141676
616.238	0.0141692
616.317	0.0141138
616.395	0.0142355
616.473	0.0140912
616.551	0.0141835
616.629	0.0141456
616.707	0.0142271
616.785	0.0140169
616.863	0.0141135
616.942	0.0141257
617.020	0.0140432
617.098	0.0141528
617.176	0.0141441
617.254	0.0139890
617.332	0.0140762
617.410	0.0140964
617.488	0.0141027
617.567	0.0140990
617.645	0.0141135
617.723	0.0141622
617.801	0.0141157
617.879	0.0141692
617.957	0.0139854
618.035	0.0140978
618.113	0.0141410
618.192	0.0141264
618.270	0.0142268
618.348	0.0140226
618.426	0.0140952
618.504	0.0141197
618.582	0.0141110
618.660	0.0142127
618.738	0.0141021
618.817	0.0140145
618.895	0.0140610
618.973	0.0141861
619.051	0.0141280
619.129	0.0141542
619.207	0.0140867
619.285	0.0140231
619.363	0.0141024
619.442	0.0142282
619.520	0.0141422
619.598	0.0140742
619.676	0.0141907
619.754	0.0139972
619.832	0.0142049
619.910	0.0141840
619.988	0.0140007
620.067	0.0141469
620.145	0.0140752
620.223	0.0142510
620.301	0.0141145
620.379	0.0140721
620.457	0.0140292
620.535	0.0141030
620.613	0.0140657
620.692	0.0142572
620.770	0.0141059
620.848	0.0140650
620.926	0.0140085
621.004	0.0140132
621.082	0.0141115
621.160	0.0141274
621.238	0.0140521
621.317	0.0141380
621.395	0.0140716
621.473	0.0139813
621.551	0.0141757
621.629	0.0139901
621.707	0.0140759
621.785	0.0140985
621.863	0.0140599
621.942	0.0140903
622.020	0.0141385
622.098	0.0141961
622.176	0.0140540
622.254	0.0141330
622.332	0.0140737
622.410	0.0141003
622.488	0.0141490
622.567	0.0140308
622.645	0.0140951
622.723	0.0140442
622.801	0.0140051
622.879	0.0140442
622.957	0.0140659
623.035	0.0139865
623.113	0.0140118
623.192	0.0138779
623.270	0.0141546
623.348	0.0140688
623.426	0.0140127
623.504	0.0141434
623.582	0.0141217
623.660	0.0139422
623.738	0.0139114
623.817	0.0140867
623.895	0.0140937
623.973	0.0141092
624.051	0.0141483
624.129	0.0140910
624.207	0.0141093
624.285	0.0139874
624.363	0.0140474
624.442	0.0140494
624.520	0.0140645
624.598	0.0140824
624.676	0.0141299
624.754	0.0140165
624.832	0.0140874
624.910	0.0141679
624.988	0.0141080
625.067	0.0142525
625.145	0.0140666
625.223	0.0139493
625.301	0.0140265
625.379	0.0140524
625.457	0.0141692
625.535	0.0140321
625.613	0.0140665
625.692	0.0142097
625.770	0.0141933
625.848	0.0141498
625.926	0.0141232
626.004	0.0141511
626.082	0.0141669
626.160	0.0141556
626.238	0.0143137
626.317	0.0141746
626.395	0.0142119
626.473	0.0142002
626.551	0.0140617
626.629	0.0141615
626.707	0.0140855
626.785	0.0141560
626.863	0.0141790
626.942	0.0141060
627.020	0.0140322
627.098	0.0142463
627.176	0.0140716
627.254	0.0142017
627.332	0.0142611
627.410	0.0142175
627.488	0.0141343
627.567	0.0143188
627.645	0.0141912
627.723	0.0141274
627.801	0.0141669
627.879	0.0141367
627.957	0.0141339
628.035	0.0141525
628.113	0.0142352
628.192	0.0141766
628.270	0.0141569
628.348	0.0141870
628.426	0.0142032
628.504	0.0141846
628.582	0.0142661
628.660	0.0143558
628.738	0.0142496
628.817	0.0141813
628.895	0.0142891
628.973	0.0140444
629.051	0.0142540
629.129	0.0142957
629.207	0.0142091
629.285	0.0141579
629.363	0.0142630
629.442	0.0142239
629.520	0.0142769
629.598	0.0140133
629.676	0.0141562
629.754	0.0142520
629.832	0.0140735
629.910	0.0140422
629.988	0.0141993
630.067	0.0141356
630.145	0.0142298
630.223	0.0143102
630.301	0.0142282
630.379	0.0141587
630.457	0.0142441
630.535	0.0142175
630.613	0.0144455
630.692	0.0142909
630.770	0.0142517
630.848	0.0141440
630.926	0.0142686
631.004	0.0142313
631.082	0.0142145
631.160	0.0142236
631.238	0.0144212
631.317	0.0142528
631.395	0.0142411
631.473	0.0141698
631.551	0.0143363
631.629	0.0143135
631.707	0.0142264
631.785	0.0141004
631.863	0.0142757
631.942	0.0142898
632.020	0.0142342
632.098	0.0141627
632.176	0.0142867
632.254	0.0142166
632.332	0.0141610
632.410	0.0142805
632.488	0.0142514
632.567	0.0142230
632.645	0.0142812
632.723	0.0142706
632.801	0.0142014
632.879	0.0142000
632.957	0.0141789
633.035	0.0142036
633.113	0.0143264
633.192	0.0141423
633.270	0.0141927
633.348	0.0140024
633.426	0.0141522
633.504	0.0142210
633.582	0.0141599
633.660	0.0140839
633.738	0.0141516
633.817	0.0142007
633.895	0.0139776
633.973	0.0141200
634.051	0.0141224
634.129	0.0141354
634.207	0.0140858
634.285	0.0141450
634.363	0.0141406
634.442	0.0141470
634.520	0.0140834
634.598	0.0141965
634.676	0.0141329
634.754	0.0141528
634.832	0.0140845
634.910	0.0141173
634.988	0.0142144
635.067	0.0141955
635.145	0.0140608
635.223	0.0140938
635.301	0.0142239
635.379	0.0142005
635.457	0.0140637
635.535	0.0141434
635.613	0.0142035
635.692	0.0141180
635.770	0.0142143
635.848	0.0143085
635.926	0.0143259
636.004	0.0141969
636.082	0.0143469
636.160	0.0141894
636.238	0.0142759
636.317	0.0143924
636.395	0.0143578
636.473	0.0143356
636.551	0.0141695
636.629	0.0143444
636.707	0.0142256
636.785	0.0141568
636.863	0.0141475
636.942	0.0142754
637.020	0.0143022
637.098	0.0143024
637.176	0.0142348
637.254	0.0142104
637.332	0.0141490
637.410	0.0141989
637.488	0.0141833
637.567	0.0141785
637.645	0.0141376
637.723	0.0142404
637.801	0.0141888
637.879	0.0141016
637.957	0.0142651
638.035	0.0143353
638.113	0.0143401
638.192	0.0140862
638.270	0.0142316
638.348	0.0141210
638.426	0.0142535
638.504	0.0141854
638.582	0.0143357
638.660	0.0141608
638.738	0.0141429
638.817	0.0142247
638.895	0.0140421
638.973	0.0142056
639.051	0.0142284
639.129	0.0141923
639.207	0.0141460
639.285	0.0140696
639.363	0.0140951
639.442	0.0142367
639.520	0.0140403
639.598	0.0139526
639.676	0.0140443
639.754	0.0140332
639.832	0.0140586
639.910	0.0140444
639.988	0.0139408
640.067	0.0139439
640.145	0.0138853
640.223	0.0137891
640.301	0.0139479
640.379	0.0138190
640.457	0.0138972
640.535	0.0138926
640.613	0.0140729
640.692	0.0139008
640.770	0.0139040
640.848	0.0139216
640.926	0.0140252
641.004	0.0139722
641.082	0.0139591
641.160	0.0141379
641.238	0.0140780
641.317	0.0141554
641.395	0.0141727
641.473	0.0139968
641.551	0.0142480
641.629	0.0139940
641.707	0.0139745
641.785	0.0141442
641.863	0.0141675
641.942	0.0141554
642.020	0.0140931
642.098	0.0142366
642.176	0.0141334
642.254	0.0142442
642.332	0.0142078
642.410	0.0140736
642.488	0.0141780
642.567	0.0142960
642.645	0.0143372
642.723	0.0144634
642.801	0.0142384
642.879	0.0143236
642.957	0.0143119
643.035	0.0143073
643.113	0.0141212
643.192	0.0141082
643.270	0.0142055
643.348	0.0140983
643.426	0.0140860
643.504	0.0141161
643.582	0.0142692
643.660	0.0141795
643.738	0.0139095
643.817	0.0140083
643.895	0.0140321
643.973	0.0141222
644.051	0.0139194
644.129	0.0141947
644.207	0.0140626
644.285	0.0139231
644.363	0.0140485
644.442	0.0141287
644.520	0.0140143
644.598	0.0138812
644.676	0.0139182
644.754	0.0138897
644.832	0.0138319
644.910	0.0138928
644.988	0.0138381
645.067	0.0139054
645.145	0.0138871
645.223	0.0139519
645.301	0.0139450
645.379	0.0140758
645.457	0.0140623
645.535	0.0139191
645.613	0.0142817
645.692	0.0142036
645.770	0.0142706
645.848	0.0143352
645.926	0.0145257
646.004	0.0144431
646.082	0.0144240
646.160	0.0146085
646.238	0.0145491
646.317	0.0145329
646.395	0.0147249
646.473	0.0145330
646.551	0.0146564
646.629	0.0147003
646.707	0.0146080
646.785	0.0146004
646.863	0.0145705
646.942	0.0143240
647.020	0.0145229
647.098	0.0142597
647.176	0.0142089
647.254	0.0141360
647.332	0.0142975
647.410	0.0142470
647.488	0.0142803
647.567	0.0142806
647.645	0.0142545
647.723	0.0142679
647.801	0.0143022
647.879	0.0141200
647.957	0.0142055
648.035	0.0140651
648.113	0.0141791
648.192	0.0140423
648.270	0.0140530
648.348	0.0139629
648.426	0.0139235
648.504	0.0139786
648.582	0.0139053
648.660	0.0138239
648.738	0.0138395
648.817	0.0137681
648.895	0.0135545
648.973	0.0138001
649.051	0.0138602
649.129	0.0138857
649.207	0.0137999
649.285	0.0138897
649.363	0.0139474
649.442	0.0139473
649.520	0.0140189
649.598	0.0141706
649.676	0.0143423
649.754	0.0141846
649.832	0.0142273
649.910	0.0143789
649.988	0.0142986
650.067	0.0142345
650.145	0.0144353
650.223	0.0143230
650.301	0.0144327
650.379	0.0143469
650.457	0.0144337
650.535	0.0143994
650.613	0.0144099
650.692	0.0144765
650.770	0.0145875
650.848	0.0144811
650.926	0.0146684
651.004	0.0145882
651.082	0.0145136
651.160	0.0146443
651.238	0.0146774
651.317	0.0145684
651.395	0.0145036
651.473	0.0145098
651.551	0.0144262
651.629	0.0143594
651.707	0.0144116
651.785	0.0144765
651.863	0.0144208
651.942	0.0144318
652.020	0.0143046
652.098	0.0144289
652.176	0.0143392
652.254	0.0143775
652.332	0.0142488
652.410	0.0141894
652.488	0.0142798
652.567	0.0142776
652.645	0.0142747
652.723	0.0140667
652.801	0.0141216
652.879	0.0140639
652.957	0.0140280
653.035	0.0138596
653.113	0.0138613
653.192	0.0139040
653.270	0.0137492
653.348	0.0139494
653.426	0.0137869
653.504	0.0138512
653.582	0.0139763
653.660	0.0138965
653.738	0.0137292
653.817	0.0136420
653.895	0.0137769
653.973	0.0138300
654.051	0.0139011
654.129	0.0139119
654.207	0.0137087
654.285	0.0137806
654.363	0.0138172
654.442	0.0138487
654.520	0.0137685
654.598	0.0138358
654.676	0.0138403
654.754	0.0137318
654.832	0.0138792
654.910	0.0138807
654.988	0.0140775
655.067	0.0139562
655.145	0.0140848
655.223	0.0141975
655.301	0.0143114
655.379	0.0143875
655.457	0.0143473
655.535	0.0146308
655.613	0.0145266
655.692	0.0146462
655.770	0.0147691
655.848	0.0147332
655.926	0.0147540
656.004	0.0147589
656.082	0.0147177
656.160	0.0145880
656.238	0.0146955
656.317	0.0147880
656.395	0.0146806
656.473	0.0147375
656.551	0.0147313
656.629	0.0146015
656.707	0.0143985
656.785	0.0146169
656.863	0.0144681
656.942	0.0144763
657.020	0.0143255
657.098	0.0144722
657.176	0.0143365
657.254	0.0142170
657.332	0.0141721
657.410	0.0142431
657.488	0.0141527
657.567	0.0140772
657.645	0.0140282
657.723	0.0140232
657.801	0.0139848
657.879	0.0138486
657.957	0.0138755
658.035	0.0139861
658.113	0.0138358
658.192	0.0137556
658.270	0.0137945
658.348	0.0137701
658.426	0.0136331
658.504	0.0136774
658.582	0.0136547
658.660	0.0135459
658.738	0.0136505
658.817	0.0137148
658.895	0.0134238
658.973	0.0135163
659.051	0.0137729
659.129	0.0135479
659.207	0.0135150
659.285	0.0135996
659.363	0.0136908
659.442	0.0136823
659.520	0.0136676
659.598	0.0139042
659.676	0.0139902
659.754	0.0140408
659.832	0.0141084
659.910	0.0142023
659.988	0.0142993
660.067	0.0143775
660.145	0.0143931
660.223	0.0143793
660.301	0.0143694
660.379	0.0144848
660.457	0.0145164
660.535	0.0144888
660.613	0.0143986
660.692	0.0143650
660.770	0.0143641
660.848	0.0144734
660.926	0.0143187
661.004	0.0145201
661.082	0.0144065
661.160	0.0143698
661.238	0.0144527
661.317	0.0143462
661.395	0.0145469
661.473	0.0144137
661.551	0.0144223
661.629	0.0144618
661.707	0.0144650
661.785	0.0144276
661.863	0.0143174
661.942	0.0144112
662.020	0.0143997
662.098	0.0141624
662.176	0.0141142
662.254	0.0140591
662.332	0.0140046
662.410	0.0139888
662.488	0.0139900
662.567	0.0139438
662.645	0.0137447
662.723	0.0138294
662.801	0.0137531
662.879	0.0139011
662.957	0.0139333
663.035	0.0138355
663.113	0.0137718
663.192	0.0139277
663.270	0.0139389
663.348	0.0139505
663.426	0.0139854
663.504	0.0139111
663.582	0.0139616
663.660	0.0139484
663.738	0.0139050
663.817	0.0138103
663.895	0.0138254
663.973	0.0139820
664.051	0.0139282
664.129	0.0137918
664.207	0.0139124
664.285	0.0139159
664.363	0.0141194
664.442	0.0139794
664.520	0.0139314
664.598	0.0138378
664.676	0.0139469
664.754	0.0139371
664.832	0.0139641
664.910	0.0140527
664.988	0.0141636
665.067	0.0141459
665.145	0.0142156
665.223	0.0142411
665.301	0.0142040
665.379	0.0141959
665.457	0.0143099
665.535	0.0144379
665.613	0.0144209
665.692	0.0146451
665.770	0.0143968
665.848	0.0146735
665.926	0.0146367
666.004	0.0145843
666.082	0.0145921
666.160	0.0147203
666.238	0.0145863
666.317	0.0145451
666.395	0.0144570
666.473	0.0145291
666.551	0.0144625
666.629	0.0142981
666.707	0.0142767
666.785	0.0143035
666.863	0.0141977
666.942	0.0141112
667.020	0.0140206
667.098	0.0140798
667.176	0.0141339
667.254	0.0139018
667.332	0.0140554
667.410	0.0141521
667.488	0.0140191
667.567	0.0141168
667.645	0.0139578
667.723	0.0139465
667.801	0.0141807
667.879	0.0141355
667.957	0.0140843
668.035	0.0141290
668.113	0.0142486
668.192	0.0142133
668.270	0.0143268
668.348	0.0142422
668.426	0.0142229
668.504	0.0142001
668.582	0.0143861
668.660	0.0144366
668.738	0.0145592
668.817	0.0143481
668.895	0.0142742
668.973	0.0142758
669.051	0.0143260
669.129	0.0141516
669.207	0.0141790
669.285	0.0141148
669.363	0.0142435
669.442	0.0141424
669.520	0.0140486
669.598	0.0140845
669.676	0.0140936
669.754	0.0139632
669.832	0.0141281
669.910	0.0140275
669.988	0.0140820
670.067	0.0140942
670.145	0.0139778
670.223	0.0139677
670.301	0.0140771
670.379	0.0140209
670.457	0.0140328
670.535	0.0140285
670.613	0.0140683
670.692	0.0139330
670.770	0.0139188
670.848	0.0138679
670.926	0.0138451
671.004	0.0140572
671.082	0.0139326
671.160	0.0140172
671.238	0.0140051
671.317	0.0142277
671.395	0.0141155
671.473	0.0139820
671.551	0.0140436
671.629	0.0141373
671.707	0.0143278
671.785	0.0143285
671.863	0.0142010
671.942	0.0142524
672.020	0.0144135
672.098	0.0145325
672.176	0.0146032
672.254	0.0145194
672.332	0.0146178
672.410	0.0144868
672.488	0.0144205
672.567	0.0144299
672.645	0.0145020
672.723	0.0144623
672.801	0.0142767
672.879	0.0142271
672.957	0.0140941
673.035	0.0140814
673.113	0.0140337
673.192	0.0139680
673.270	0.0139954
673.348	0.0137384
673.426	0.0137686
673.504	0.0137634
673.582	0.0137655
673.660	0.0137694
673.738	0.0137847
673.817	0.0139369
673.895	0.0139376
673.973	0.0142875
674.051	0.0143562
674.129	0.0144121
674.207	0.0144936
674.285	0.0146023
674.363	0.0147916
674.442	0.0147259
674.520	0.0148744
674.598	0.0148071
674.676	0.0148913
674.754	0.0149869
674.832	0.0147260
674.910	0.0146917
674.988	0.0147282
675.067	0.0145451
675.145	0.0143262
675.223	0.0142508
675.301	0.0142015
675.379	0.0140806
675.457	0.0139233
675.535	0.0138041
675.613	0.0136008
675.692	0.0134946
675.770	0.0134724
675.848	0.0133437
675.926	0.0133450
676.004	0.0133535
676.082	0.0134141
676.160	0.0132413
676.238	0.0133826
676.317	0.0132852
676.395	0.0133791
676.473	0.0134069
676.551	0.0135033
676.629	0.0133540
676.707	0.0135723
676.785	0.0138015
676.863	0.0137800
676.942	0.0137437
677.020	0.0138062
677.098	0.0139823
677.176	0.0142883
677.254	0.0143280
677.332	0.0144052
677.410	0.0144746
677.488	0.0144385
677.567	0.0145718
677.645	0.0144762
677.723	0.0145043
677.801	0.0145022
677.879	0.0146881
677.957	0.0146391
678.035	0.0147159
678.113	0.0146183
678.192	0.0145634
678.270	0.0146072
678.348	0.0147683
678.426	0.0147311
678.504	0.0146941
678.582	0.0146436
678.660	0.0146009
678.738	0.0145526
678.817	0.0146109
678.895	0.0146323
678.973	0.0146014
679.051	0.0146203
679.129	0.0145836
679.207	0.0144170
679.285	0.0143407
679.363	0.0143491
679.442	0.0143282
679.520	0.0141642
679.598	0.0140930
679.676	0.0141109
679.754	0.0141557
679.832	0.0138011
679.910	0.0139246
679.988	0.0139041
680.067	0.0137003
680.145	0.0137541
680.223	0.0136643
680.301	0.0135597
680.379	0.0136285
680.457	0.0134599
680.535	0.0135448
680.613	0.0136549
680.692	0.0134589
680.770	0.0136639
680.848	0.0135274
680.926	0.0137360
681.004	0.0137409
681.082	0.0137667
681.160	0.0138799
681.238	0.0139317
681.317	0.0140459
681.395	0.0142419
681.473	0.0143011
681.551	0.0142269
681.629	0.0143159
681.707	0.0144375
681.785	0.0144575
681.863	0.0144691
681.942	0.0144018
682.020	0.0143669
682.098	0.0146189
682.176	0.0144199
682.254	0.0145116
682.332	0.0144888
682.410	0.0146101
682.488	0.0144314
682.567	0.0145041
682.645	0.0146748
682.723	0.0146397
682.801	0.0145374
682.879	0.0146799
682.957	0.0146712
683.035	0.0146336
683.113	0.0146381
683.192	0.0144775
683.270	0.0144570
683.348	0.0143141
683.426	0.0143581
683.504	0.0142022
683.582	0.0142278
683.660	0.0140323
683.738	0.0140211
683.817	0.0137852
683.895	0.0136663
683.973	0.0135696
684.051	0.0135207
684.129	0.0135133
684.207	0.0135594
684.285	0.0135320
684.363	0.0133099
684.442	0.0134724
684.520	0.0136208
684.598	0.0135376
684.676	0.0136042
684.754	0.0136588
684.832	0.0137059
684.910	0.0136358
684.988	0.0136396
685.067	0.0136797
685.145	0.0135023
685.223	0.0135317
685.301	0.0137450
685.379	0.0138182
685.457	0.0138867
685.535	0.0139755
685.613	0.0138816
685.692	0.0140198
685.770	0.0142668
685.848	0.0141752
685.926	0.0145434
686.004	0.0145711
686.082	0.0147092
686.160	0.0149185
686.238	0.0152178
686.317	0.0152567
686.395	0.0153359
686.473	0.0153600
686.551	0.0153251
686.629	0.0153506
686.707	0.0153657
686.785	0.0153311
686.863	0.0153072
686.942	0.0151024
687.020	0.0148507
687.098	0.0148380
687.176	0.0145728
687.254	0.0145002
687.332	0.0143401
687.410	0.0139152
687.488	0.0138096
687.567	0.0136751
687.645	0.0135699
687.723	0.0135289
687.801	0.0135174
687.879	0.0134132
687.957	0.0132251
688.035	0.0132382
688.113	0.0133147
688.192	0.0132978
688.270	0.0133131
688.348	0.0133505
688.426	0.0134390
688.504	0.0133646
688.582	0.0134609
688.660	0.0134998
688.738	0.0135868
688.817	0.0138520
688.895	0.0137342
688.973	0.0138316
689.051	0.0139231
689.129	0.0139102
689.207	0.0139214
689.285	0.0140158
689.363	0.0140488
689.442	0.0143452
689.520	0.0143296
689.598	0.0144426
689.676	0.0143731
689.754	0.0146066
689.832	0.0145886
689.910	0.0147262
689.988	0.0147175
690.067	0.0146680
690.145	0.0147647
690.223	0.0147140
690.301	0.0146585
690.379	0.0146626
690.457	0.0148407
690.535	0.0146388
690.613	0.0146518
690.692	0.0146832
690.770	0.0144876
690.848	0.0144464
690.926	0.0144223
691.004	0.0144124
691.082	0.0142843
691.160	0.0141907
691.238	0.0140398
691.317	0.0140900
691.395	0.0140405
691.473	0.0139002
691.551	0.0138705
691.629	0.0139217
691.707	0.0138118
691.785	0.0138446
691.863	0.0139296
691.942	0.0138422
692.020	0.0138860
692.098	0.0139471
692.176	0.0139975
692.254	0.0140575
692.332	0.0139653
692.410	0.0140279
692.488	0.0141219
692.567	0.0140897
692.645	0.0141072
692.723	0.0140942
692.801	0.0139698
692.879	0.0140070
692.957	0.0140858
693.035	0.0140353
693.113	0.0140288
693.192	0.0137312
693.270	0.0137976
693.348	0.0138120
693.426	0.0138772
693.504	0.0137265
693.582	0.0138116
693.660	0.0138447
693.738	0.0137805
693.817	0.0138634
693.895	0.0137627
693.973	0.0136805
694.051	0.0137231
694.129	0.0136636
694.207	0.0136835
694.285	0.0137553
694.363	0.0138522
694.442	0.0138160
694.520	0.0138573
694.598	0.0139922
694.676	0.0140233
694.754	0.0140345
694.832	0.0140242
694.910	0.0141100
694.988	0.0142301
695.067	0.0143964
695.145	0.0145758
695.223	0.0145856
695.301	0.0146576
695.379	0.0147546
695.457	0.0148376
695.535	0.0148268
695.613	0.0149876
695.692	0.0148476
695.770	0.0150823
695.848	0.0149051
695.926	0.0148611
696.004	0.0149944
696.082	0.0147365
696.160	0.0147421
696.238	0.0148335
696.317	0.0148393
696.395	0.0147919
696.473	0.0146524
696.551	0.0146081
696.629	0.0144556
696.707	0.0144877
696.785	0.0142223
696.863	0.0142275
696.942	0.0142049
697.020	0.0140105
697.098	0.0138574
697.176	0.0136774
697.254	0.0137108
697.332	0.0134534
697.410	0.0133302
697.488	0.0131642
697.567	0.0130797
697.645	0.0129142
697.723	0.0129760
697.801	0.0128699
697.879	0.0128588
697.957	0.0128900
698.035	0.0128820
698.113	0.0128185
698.192	0.0129152
698.270	0.0129922
698.348	0.0130538
698.426	0.0130325
698.504	0.0131973
698.582	0.0134119
698.660	0.0133692
698.738	0.0134287
698.817	0.0136038
698.895	0.0137102
698.973	0.0139651
699.051	0.0140414
699.129	0.0141144
699.207	0.0143962
699.285	0.0144486
699.363	0.0145366
699.442	0.0146759
699.520	0.0147939
699.598	0.0149414
699.676	0.0150603
699.754	0.0150385
699.832	0.0151398
699.910	0.0151110
699.988	0.0150877
700.067	0.0152551
700.145	0.0153961
700.223	0.0153022
700.301	0.0153733
700.379	0.0154051
700.457	0.0153419
700.535	0.0155539
700.613	0.0153363
700.692	0.0152180
700.770	0.0150803
700.848	0.0152242
700.926	0.0149206
701.004	0.0147424
701.082	0.0145580
701.160	0.0143420
701.238	0.0141849
701.317	0.0139841
701.395	0.0136108
701.473	0.0136700
701.551	0.0134858
701.629	0.0133033
701.707	0.0132069
701.785	0.0132169
701.863	0.0130329
701.942	0.0129916
702.020	0.0130324
702.098	0.0129525
702.176	0.0129931
702.254	0.0130497
702.332	0.0130164
702.410	0.0130904
702.488	0.0130543
702.567	0.0130486
702.645	0.0131208
702.723	0.0133231
702.801	0.0133404
702.879	0.0133822
702.957	0.0133173
703.035	0.0134247
703.113	0.0134174
703.192	0.0135899
703.270	0.0137465
703.348	0.0138709
703.426	0.0139409
703.504	0.0141541
703.582	0.0142274
703.660	0.0143897
703.738	0.0144308
703.817	0.0145013
703.895	0.0148112
703.973	0.0147746
704.051	0.0148991
704.129	0.0150233
704.207	0.0150683
704.285	0.0150723
704.363	0.0152512
704.442	0.0153172
704.520	0.0152509
704.598	0.0153001
704.676	0.0153096
704.754	0.0152853
704.832	0.0152616
704.910	0.0151540
704.988	0.0150589
705.067	0.0150360
705.145	0.0149512
705.223	0.0147462
705.301	0.0146265
705.379	0.0143887
705.457	0.0146194
705.535	0.0144622
705.613	0.0141211
705.692	0.0140359
705.770	0.0139188
705.848	0.0138114
705.926	0.0136782
706.004	0.0136962
706.082	0.0135210
706.160	0.0134259
706.238	0.0133443
706.317	0.0133651
706.395	0.0132601
706.473	0.0132848
706.551	0.0134037
706.629	0.0132759
706.707	0.0132310
706.785	0.0134179
706.863	0.0133990
706.942	0.0134409
707.020	0.0137432
707.098	0.0137981
707.176	0.0138676
707.254	0.0138308
707.332	0.0139901
707.410	0.0141740
707.488	0.0144452
707.567	0.0141578
707.645	0.0143756
707.723	0.0143756
707.801	0.0143217
707.879	0.0144072
707.957	0.0144529
708.035	0.0144050
708.113	0.0142202
708.192	0.0142055
708.270	0.0141067
708.348	0.0141241
708.426	0.0139931
708.504	0.0140914
708.582	0.0142257
708.660	0.0141185
708.738	0.0141965
708.817	0.0142985
708.895	0.0141586
708.973	0.0142421
709.051	0.0145442
709.129	0.0145094
709.207	0.0146087
709.285	0.0145600
709.363	0.0145567
709.442	0.0147067
709.520	0.0148825
709.598	0.0147430
709.676	0.0146571
709.754	0.0147451
709.832	0.0146743
709.910	0.0145763
709.988	0.0146143
710.067	0.0146329
710.145	0.0146048
710.223	0.0145184
710.301	0.0144554
710.379	0.0145021
710.457	0.0145684
710.535	0.0145199
710.613	0.0144901
710.692	0.0146012
710.770	0.0144511
710.848	0.0145132
710.926	0.0144315
711.004	0.0144467
711.082	0.0143640
711.160	0.0143781
711.238	0.0142219
711.317	0.0143336
711.395	0.0143044
711.473	0.0140684
711.551	0.0141078
711.629	0.0139725
711.707	0.0138928
711.785	0.0139368
711.863	0.0139563
711.942	0.0139117
712.020	0.0138220
712.098	0.0138211
712.176	0.0139400
712.254	0.0140109
712.332	0.0140340
712.410	0.0139550
712.488	0.0141336
712.567	0.0139807
712.645	0.0139529
712.723	0.0140369
712.801	0.0140304
712.879	0.0142210
712.957	0.0139863
713.035	0.0138213
713.113	0.0138799
713.192	0.0140015
713.270	0.0139217
713.348	0.0137858
713.426	0.0138577
713.504	0.0137700
713.582	0.0138734
713.660	0.0139169
713.738	0.0140798
713.817	0.0140166
713.895	0.0139931
713.973	0.0141169
714.051	0.0141811
714.129	0.0143009
714.207	0.0142847
714.285	0.0142472
714.363	0.0144080
714.442	0.0144150
714.520	0.0143170
714.598	0.0143677
714.676	0.0145046
714.754	0.0144555
714.832	0.0144038
714.910	0.0145290
714.988	0.0144567
715.067	0.0144167
715.145	0.0144373
715.223	0.0145930
715.301	0.0145483
715.379	0.0143932
715.457	0.0143887
715.535	0.0144012
715.613	0.0142896
715.692	0.0144220
715.770	0.0142704
715.848	0.0141618
715.926	0.0141467
716.004	0.0140137
716.082	0.0139854
716.160	0.0139909
716.238	0.0138592
716.317	0.0140142
716.395	0.0139561
716.473	0.0138472
716.551	0.0138123
716.629	0.0139091
716.707	0.0138793
716.785	0.0139021
716.863	0.0137985
716.942	0.0138979
717.020	0.0139382
717.098	0.0138365
717.176	0.0138374
717.254	0.0138445
717.332	0.0138495
717.410	0.0138865
717.488	0.0138589
717.567	0.0138573
717.645	0.0138483
717.723	0.0138335
717.801	0.0138940
717.879	0.0138657
717.957	0.0138963
718.035	0.0139728
718.113	0.0138970
718.192	0.0139174
718.270	0.0140438
718.348	0.0141992
718.426	0.0142002
718.504	0.0142438
718.582	0.0143050
718.660	0.0143164
718.738	0.0142788
718.817	0.0142287
718.895	0.0143085
718.973	0.0142566
719.051	0.0141969
719.129	0.0143418
719.207	0.0141392
719.285	0.0142013
719.363	0.0139450
719.442	0.0140300
719.520	0.0139742
719.598	0.0139330
719.676	0.0139124
719.754	0.0138899
719.832	0.0138757
719.910	0.0139790
719.988	0.0138612
720.067	0.0139365
720.145	0.0139274
720.223	0.0138972
720.301	0.0139826
720.379	0.0140132
720.457	0.0141244
720.535	0.0140978
720.613	0.0141814
720.692	0.0141624
720.770	0.0141400
720.848	0.0141999
720.926	0.0142740
721.004	0.0143642
721.082	0.0143542
721.160	0.0144881
721.238	0.0142839
721.317	0.0143539
721.395	0.0142927
721.473	0.0143953
721.551	0.0144461
721.629	0.0144201
721.707	0.0144302
721.785	0.0143054
721.863	0.0142823
721.942	0.0140878
722.020	0.0141983
722.098	0.0141644
722.176	0.0140095
722.254	0.0140861
722.332	0.0142408
722.410	0.0140595
722.488	0.0139803
722.567	0.0139625
722.645	0.0139954
722.723	0.0140807
722.801	0.0140832
722.879	0.0139912
722.957	0.0139855
723.035	0.0139874
723.113	0.0140580
723.192	0.0141235
723.270	0.0141610
723.348	0.0142054
723.426	0.0141771
723.504	0.0142258
723.582	0.0141723
723.660	0.0141515
723.738	0.0141506
723.817	0.0141985
723.895	0.0142047
723.973	0.0142629
724.051	0.0140675
724.129	0.0138979
724.207	0.0140044
724.285	0.0139489
724.363	0.0137914
724.442	0.0139533
724.520	0.0138548
724.598	0.0138381
724.676	0.0137710
724.754	0.0138922
724.832	0.0137780
724.910	0.0138424
724.988	0.0140228
725.067	0.0141730
725.145	0.0140436
725.223	0.0140373
725.301	0.0141966
725.379	0.0141895
725.457	0.0142492
725.535	0.0142003
725.613	0.0142401
725.692	0.0142187
725.770	0.0143129
725.848	0.0143401
725.926	0.0143154
726.004	0.0143384
726.082	0.0141936
726.160	0.0143802
726.238	0.0143449
726.317	0.0144209
726.395	0.0143816
726.473	0.0144299
726.551	0.0144490
726.629	0.0143665
726.707	0.0143723
726.785	0.0143172
726.863	0.0144425
726.942	0.0143805
727.020	0.0144511
727.098	0.0143471
727.176	0.0141762
727.254	0.0143169
727.332	0.0142695
727.410	0.0140203
727.488	0.0142318
727.567	0.0142533
727.645	0.0140078
727.723	0.0141098
727.801	0.0139754
727.879	0.0140817
727.957	0.0140558
728.035	0.0139920
728.113	0.0139102
728.192	0.0141553
728.270	0.0140913
728.348	0.0140847
728.426	0.0141396
728.504	0.0141292
728.582	0.0141467
728.660	0.0142179
728.738	0.0141599
728.817	0.0141005
728.895	0.0142158
728.973	0.0143173
729.051	0.0143603
729.129	0.0143610
729.207	0.0143522
729.285	0.0142944
729.363	0.0143726
729.442	0.0143580
729.520	0.0142410
729.598	0.0141767
729.676	0.0142647
729.754	0.0142716
729.832	0.0142630
729.910	0.0141243
729.988	0.0141449
730.067	0.0140195
730.145	0.0140612
730.223	0.0140884
730.301	0.0141413
730.379	0.0141528
730.457	0.0142329
730.535	0.0141390
730.613	0.0142405
730.692	0.0142880
730.770	0.0142580
730.848	0.0142536
730.926	0.0143580
731.004	0.0144050
731.082	0.0144032
731.160	0.0143219
731.238	0.0143604
731.317	0.0144974
731.395	0.0145647
731.473	0.0144347
731.551	0.0143796
731.629	0.0144000
731.707	0.0145225
731.785	0.0143767
731.863	0.0142429
731.942	0.0142308
732.020	0.0142294
732.098	0.0141017
732.176	0.0141233
732.254	0.0140124
732.332	0.0139374
732.410	0.0139409
732.488	0.0139108
732.567	0.0139831
732.645	0.0139880
732.723	0.0140696
732.801	0.0139484
732.879	0.0138570
732.957	0.0139243
733.035	0.0139771
733.113	0.0141352
733.192	0.0140765
733.270	0.0140881
733.348	0.0142355
733.426	0.0143687
733.504	0.0140369
733.582	0.0142068
733.660	0.0141436
733.738	0.0142579
733.817	0.0142071
733.895	0.0143091
733.973	0.0142131
734.051	0.0141763
734.129	0.0143536
734.207	0.0143261
734.285	0.0140869
734.363	0.0140366
734.442	0.0141515
734.520	0.0140312
734.598	0.0140829
734.676	0.0139980
734.754	0.0139384
734.832	0.0139537
734.910	0.0140773
734.988	0.0138764
735.067	0.0139867
735.145	0.0140306
735.223	0.0139136
735.301	0.0141183
735.379	0.0139584
735.457	0.0139690
735.535	0.0141472
735.613	0.0139645
735.692	0.0142693
735.770	0.0141685
735.848	0.0141435
735.926	0.0142300
736.004	0.0143752
736.082	0.0141916
736.160	0.0142078
736.238	0.0142493
736.317	0.0143874
736.395	0.0144299
736.473	0.0142764
736.551	0.0143967
736.629	0.0143979
736.707	0.0143214
736.785	0.0142867
736.863	0.0143362
736.942	0.0143488
737.020	0.0142760
737.098	0.0141367
737.176	0.0142981
737.254	0.0141705
737.332	0.0143003
737.410	0.0141963
737.488	0.0142374
737.567	0.0140594
737.645	0.0140396
737.723	0.0141303
737.801	0.0141000
737.879	0.0140504
737.957	0.0140968
738.035	0.0140160
738.113	0.0140302
738.192	0.0139735
738.270	0.0140237
738.348	0.0141245
738.426	0.0141270
738.504	0.0140453
738.582	0.0141049
738.660	0.0140308
738.738	0.0140973
738.817	0.0142047
738.895	0.0141431
738.973	0.0141086
739.051	0.0141748
739.129	0.0140655
739.207	0.0141973
739.285	0.0141322
739.363	0.0142569
739.442	0.0141933
739.520	0.0142538
739.598	0.0140119
739.676	0.0140545
739.754	0.0140727
739.832	0.0139771
739.910	0.0140870
739.988	0.0140961
740.067	0.0140394
740.145	0.0139318
740.223	0.0139684
740.301	0.0138793
740.379	0.0137285
740.457	0.0137406
740.535	0.0137849
740.613	0.0138148
740.692	0.0138003
740.770	0.0139700
740.848	0.0138563
740.926	0.0138926
741.004	0.0140682
741.082	0.0141511
741.160	0.0139491
741.238	0.0140234
741.317	0.0141200
741.395	0.0141544
741.473	0.0141505
741.551	0.0141451
741.629	0.0140820
741.707	0.0142171
741.785	0.0141944
741.863	0.0143205
741.942	0.0142628
742.020	0.0142046
742.098	0.0142390
742.176	0.0142804
742.254	0.0142234
742.332	0.0141113
742.410	0.0142617
742.488	0.0142220
742.567	0.0141357
742.645	0.0141867
742.723	0.0142720
742.801	0.0141441
742.879	0.0141135
742.957	0.0141448
743.035	0.0140886
743.113	0.0141013
743.192	0.0141498
743.270	0.0141719
743.348	0.0141174
743.426	0.0141513
743.504	0.0140399
743.582	0.0139967
743.660	0.0140466
743.738	0.0140151
743.817	0.0140651
743.895	0.0141492
743.973	0.0140739
744.051	0.0142501
744.129	0.0143130
744.207	0.0141737
744.285	0.0141478
744.363	0.0142155
744.442	0.0141633
744.520	0.0141718
744.598	0.0141666
744.676	0.0141864
744.754	0.0141604
744.832	0.0141947
744.910	0.0141049
744.988	0.0141786
745.067	0.0142021
745.145	0.0141858
745.223	0.0141182
745.301	0.0139664
745.379	0.0141416
745.457	0.0142104
745.535	0.0141180
745.613	0.0140463
745.692	0.0140022
745.770	0.0141100
745.848	0.0141267
745.926	0.0141280
746.004	0.0140879
746.082	0.0139927
746.160	0.0140552
746.238	0.0140294
746.317	0.0139828
746.395	0.0139418
746.473	0.0141736
746.551	0.0142745
746.629	0.0140716
746.707	0.0142046
746.785	0.0142127
746.863	0.0140756
746.942	0.0141473
747.020	0.0141022
747.098	0.0141759
747.176	0.0140962
747.254	0.0140472
747.332	0.0140762
747.410	0.0141264
747.488	0.0141788
747.567	0.0142696
747.645	0.0140883
747.723	0.0140615
747.801	0.0140727
747.879	0.0141809
747.957	0.0141231
748.035	0.0141244
748.113	0.0141945
748.192	0.0141810
748.270	0.0142366
748.348	0.0141134
748.426	0.0142492
748.504	0.0142098
748.582	0.0142081
748.660	0.0140870
748.738	0.0142175
748.817	0.0143314
748.895	0.0144648
748.973	0.0144577
749.051	0.0143371
749.129	0.0143639
749.207	0.0142350
749.285	0.0143964
749.363	0.0142753
749.442	0.0141920
749.520	0.0142415
749.598	0.0142297
749.676	0.0143128
749.754	0.0142313
749.832	0.0140845
749.910	0.0142013
749.988	0.0141116
750.067	0.0140833
750.145	0.0141367
750.223	0.0141314
750.301	0.0140769
750.379	0.0139872
750.457	0.0140034
750.535	0.0141789
750.613	0.0139342
750.692	0.0139912
750.770	0.0141145
750.848	0.0142490
750.926	0.0141663
751.004	0.0141875
751.082	0.0140878
751.160	0.0141239
751.238	0.0141853
751.317	0.0141386
751.395	0.0140895
751.473	0.0142517
751.551	0.0141243
751.629	0.0141080
751.707	0.0142854
751.785	0.0142525
751.863	0.0144299
751.942	0.0143107
752.020	0.0142470
752.098	0.0141692
752.176	0.0140782
752.254	0.0143127
752.332	0.0143855
752.410	0.0142797
752.488	0.0143079
752.567	0.0142864
752.645	0.0143539
752.723	0.0143304
752.801	0.0143285
752.879	0.0142287
752.957	0.0142294
753.035	0.0142642
753.113	0.0143467
753.192	0.0142683
753.270	0.0142429
753.348	0.0142642
753.426	0.0143848
753.504	0.0142429
753.582	0.0142371
753.660	0.0142508
753.738	0.0141677
753.817	0.0141917
753.895	0.0141306
753.973	0.0142670
754.051	0.0142534
754.129	0.0143974
754.207	0.0142548
754.285	0.0142359
754.363	0.0143125
754.442	0.0142208
754.520	0.0141369
754.598	0.0142627
754.676	0.0140768
754.754	0.0142390
754.832	0.0142413
754.910	0.0141369
754.988	0.0141480
755.067	0.0142181
755.145	0.0141225
755.223	0.0140777
755.301	0.0141960
755.379	0.0140097
755.457	0.0141235
755.535	0.0140730
755.613	0.0140357
755.692	0.0141269
755.770	0.0142255
755.848	0.0141667
755.926	0.0138976
756.004	0.0141811
756.082	0.0141648
756.160	0.0140259
756.238	0.0140195
756.317	0.0140617
756.395	0.0140686
756.473	0.0140399
756.551	0.0139693
756.629	0.0141006
756.707	0.0142017
756.785	0.0141164
756.863	0.0140092
756.942	0.0141967
757.020	0.0140769
757.098	0.0143513
757.176	0.0142963
757.254	0.0142142
757.332	0.0142857
757.410	0.0144844
757.488	0.0143113
757.567	0.0142908
757.645	0.0144480
757.723	0.0144053
757.801	0.0142057
757.879	0.0143700
757.957	0.0141667
758.035	0.0143704
758.113	0.0141615
758.192	0.0142252
758.270	0.0141317
758.348	0.0141859
758.426	0.0141401
758.504	0.0140144
758.582	0.0140756
758.660	0.0141021
758.738	0.0141135
758.817	0.0141052
758.895	0.0141281
758.973	0.0141769
759.051	0.0140398
759.129	0.0139934
759.207	0.0141213
759.285	0.0139899
759.363	0.0141306
759.442	0.0140569
759.520	0.0140621
759.598	0.0141422
759.676	0.0140251
759.754	0.0139588
759.832	0.0141103
759.910	0.0141631
759.988	0.0140009
760.067	0.0139659
760.145	0.0140608
760.223	0.0141554
760.301	0.0141153
760.379	0.0142134
760.457	0.0141644
760.535	0.0141285
760.613	0.0141467
760.692	0.0142644
760.770	0.0142542
760.848	0.0142876
760.926	0.0142275
761.004	0.0141933
761.082	0.0141487
761.160	0.0143898
761.238	0.0141708
761.317	0.0141574
761.395	0.0140745
761.473	0.0142295
761.551	0.0141406
761.629	0.0140139
761.707	0.0141714
761.785	0.0141808
761.863	0.0141640
761.942	0.0139671
762.020	0.0139668
762.098	0.0142020
762.176	0.0140473
762.254	0.0139548
762.332	0.0140663
762.410	0.0138688
762.488	0.0139290
762.567	0.0141385
762.645	0.0140377
762.723	0.0139871
762.801	0.0141537
762.879	0.0139572
762.957	0.0140344
763.035	0.0141428
763.113	0.0140244
763.192	0.0140432
763.270	0.0140947
763.348	0.0141418
763.426	0.0140703
763.504	0.0141959
763.582	0.0142376
763.660	0.0142281
763.738	0.0141622
763.817	0.0142245
763.895	0.0141220
763.973	0.0139925
764.051	0.0143150
764.129	0.0140697
764.207	0.0142389
764.285	0.0141474
764.363	0.0140459
764.442	0.0141811
764.520	0.0140367
764.598	0.0141129
764.676	0.0140742
764.754	0.0140746
764.832	0.0140510
764.910	0.0140899
764.988	0.0140688
765.067	0.0140656
765.145	0.0141046
765.223	0.0140783
765.301	0.0140157
765.379	0.0140593
765.457	0.0141695
765.535	0.0139969
765.613	0.0141061
765.692	0.0140263
765.770	0.0140063
765.848	0.0139951
765.926	0.0140620
766.004	0.0140637
766.082	0.0139966
766.160	0.0140224
766.238	0.0139698
766.317	0.0139024
766.395	0.0139569
766.473	0.0139263
766.551	0.0139548
766.629	0.0138945
766.707	0.0139116
766.785	0.0139733
766.863	0.0138554
766.942	0.0140308
767.020	0.0140371
767.098	0.0140504
767.176	0.0140740
767.254	0.0140879
767.332	0.0141006
767.410	0.0139812
767.488	0.0140714
767.567	0.0142088
767.645	0.0140436
767.723	0.0141189
767.801	0.0141660
767.879	0.0141371
767.957	0.0141681
768.035	0.0141595
768.113	0.0141808
768.192	0.0143301
768.270	0.0142126
768.348	0.0142721
768.426	0.0142725
768.504	0.0142346
768.582	0.0143603
768.660	0.0143900
768.738	0.0142593
768.817	0.0142027
768.895	0.0143095
768.973	0.0143777
769.051	0.0142822
769.129	0.0141183
769.207	0.0141486
769.285	0.0142928
769.363	0.0142310
769.442	0.0141135
769.520	0.0142712
769.598	0.0142194
769.676	0.0140905
769.754	0.0141460
769.832	0.0141496
769.910	0.0140976
769.988	0.0140995
770.067	0.0141346
770.145	0.0140368
770.223	0.0140260
770.301	0.0139969
770.379	0.0140231
770.457	0.0141590
770.535	0.0141641
770.613	0.0141564
770.692	0.0141396
770.770	0.0141597
770.848	0.0142142
770.926	0.0143604
771.004	0.0142334
771.082	0.0142554
771.160	0.0142210
771.238	0.0141354
771.317	0.0142484
771.395	0.0144514
771.473	0.0143994
771.551	0.0141692
771.629	0.0142819
771.707	0.0142611
771.785	0.0141913
771.863	0.0143377
771.942	0.0141567
772.020	0.0141461
772.098	0.0142185
772.176	0.0142269
772.254	0.0141606
772.332	0.0141190
772.410	0.0140790
772.488	0.0141045
772.567	0.0141004
772.645	0.0141570
772.723	0.0140327
772.801	0.0141170
772.879	0.0141557
772.957	0.0143732
773.035	0.0142896
773.113	0.0140289
773.192	0.0141655
773.270	0.0141096
773.348	0.0142017
773.426	0.0143145
773.504	0.0143005
773.582	0.0142985
773.660	0.0141917
773.738	0.0142564
773.817	0.0142981
773.895	0.0143760
773.973	0.0143224
774.051	0.0142490
774.129	0.0141739
774.207	0.0142587
774.285	0.0141560
774.363	0.0143577
774.442	0.0143084
774.520	0.0142020
774.598	0.0142915
774.676	0.0142577
774.754	0.0141711
774.832	0.0142730
774.910	0.0142967
774.988	0.0142233
775.067	0.0142104
775.145	0.0142714
775.223	0.0142459
775.301	0.0140794
775.379	0.0142510
775.457	0.0141462
775.535	0.0141212
775.613	0.0140425
775.692	0.0140189
775.770	0.0140695
775.848	0.0141496
775.926	0.0140252
776.004	0.0139644
776.082	0.0140273
776.160	0.0140872
776.238	0.0140641
776.317	0.0140706
776.395	0.0141019
776.473	0.0141333
776.551	0.0141397
776.629	0.0141507
776.707	0.0141213
776.785	0.0141034
776.863	0.0142657
776.942	0.0142776
777.020	0.0141392
777.098	0.0141341
777.176	0.0141901
777.254	0.0142599
777.332	0.0142169
777.410	0.0142194
777.488	0.0143781
777.567	0.0142632
777.645	0.0142562
777.723	0.0142424
777.801	0.0143380
777.879	0.0142811
777.957	0.0142329
778.035	0.0142274
778.113	0.0142587
778.192	0.0141731
778.270	0.0142632
778.348	0.0142752
778.426	0.0141724
778.504	0.0141851
778.582	0.0142233
778.660	0.0141749
778.738	0.0142172
778.817	0.0141058
778.895	0.0140213
778.973	0.0142402
779.051	0.0142162
779.129	0.0141429
779.207	0.0143385
779.285	0.0143525
779.363	0.0142278
779.442	0.0143314
779.520	0.0142367
779.598	0.0142889
779.676	0.0143481
779.754	0.0141175
779.832	0.0140921
779.910	0.0143153
779.988	0.0141929
780.067	0.0140902
780.145	0.0140260
780.223	0.0140791
780.301	0.0139971
780.379	0.0140535
780.457	0.0140536
780.535	0.0140260
780.613	0.0139847
780.692	0.0140755
780.770	0.0140176
780.848	0.0138738
780.926	0.0139016
781.004	0.0139643
781.082	0.0137872
781.160	0.0140880
781.238	0.0140089
781.317	0.0138897
781.395	0.0139761
781.473	0.0139744
781.551	0.0139467
781.629	0.0141492
781.707	0.0142707
781.785	0.0140817
781.863	0.0140453
781.942	0.0141311
782.020	0.0141864
782.098	0.0141351
782.176	0.0140993
782.254	0.0141125
782.332	0.0143104
782.410	0.0141157
782.488	0.0141266
782.567	0.0141782
782.645	0.0142732
782.723	0.0144203
782.801	0.0141451
782.879	0.0144385
782.957	0.0142008
783.035	0.0140448
783.113	0.0142545
783.192	0.0140465
783.270	0.0141585
783.348	0.0140495
783.426	0.0140339
783.504	0.0140051
783.582	0.0140597
783.660	0.0139416
783.738	0.0140526
783.817	0.0141106
783.895	0.0138927
783.973	0.0139563
784.051	0.0139608
784.129	0.0138859
784.207	0.0139338
784.285	0.0139082
784.363	0.0140666
784.442	0.0139660
784.520	0.0140189
784.598	0.0141753
784.676	0.0140382
784.754	0.0139996
784.832	0.0141148
784.910	0.0140079
784.988	0.0140154
785.067	0.0139434
785.145	0.0141619
785.223	0.0141637
785.301	0.0141998
785.379	0.0140946
785.457	0.0141021
785.535	0.0138614
785.613	0.0140607
785.692	0.0141051
785.770	0.0140654
785.848	0.0141694
785.926	0.0142166
786.004	0.0140338
786.082	0.0141664
786.160	0.0141403
786.238	0.0141011
786.317	0.0141433
786.395	0.0140705
786.473	0.0141764
786.551	0.0141099
786.629	0.0141920
786.707	0.0141962
786.785	0.0142091
786.863	0.0141392
786.942	0.0141806
787.020	0.0143124
787.098	0.0141683
787.176	0.0141621
787.254	0.0141439
787.332	0.0142056
787.410	0.0140854
787.488	0.0142603
787.567	0.0141428
787.645	0.0142260
787.723	0.0141083
787.801	0.0141214
787.879	0.0142076
787.957	0.0141081
788.035	0.0140617
788.113	0.0141182
788.192	0.0140255
788.270	0.0140377
788.348	0.0139596
788.426	0.0139806
788.504	0.0139999
788.582	0.0142338
788.660	0.0138981
788.738	0.0141679
788.817	0.0140742
788.895	0.0140272
788.973	0.0141119
789.051	0.0139822
789.129	0.0140211
789.207	0.0141444
789.285	0.0140118
789.363	0.0140631
789.442	0.0142281
789.520	0.0141753
789.598	0.0142628
789.676	0.0141454
789.754	0.0141512
789.832	0.0141229
789.910	0.0141638
789.988	0.0139994
790.067	0.0141338
790.145	0.0140586
790.223	0.0140342
790.301	0.0142094
790.379	0.0140695
790.457	0.0140278
790.535	0.0139256
790.613	0.0141094
790.692	0.0139999
790.770	0.0140263
790.848	0.0140897
790.926	0.0141352
791.004	0.0139915
791.082	0.0140770
791.160	0.0140259
791.238	0.0142322
791.317	0.0141265
791.395	0.0140849
791.473	0.0140307
791.551	0.0141238
791.629	0.0140930
791.707	0.0141233
791.785	0.0141357
791.863	0.0141656
791.942	0.0141179
792.020	0.0142448
792.098	0.0142005
792.176	0.0141942
792.254	0.0141514
792.332	0.0142105
792.410	0.0141751
792.488	0.0140554
792.567	0.0140945
792.645	0.0141097
792.723	0.0141211
792.801	0.0142330
792.879	0.0142067
792.957	0.0142623
793.035	0.0143677
793.113	0.0142370
793.192	0.0140800
793.270	0.0142855
793.348	0.0141312
793.426	0.0143243
793.504	0.0141859
793.582	0.0141252
793.660	0.0141006
793.738	0.0140005
793.817	0.0140910
793.895	0.0139622
793.973	0.0140543
794.051	0.0140940
794.129	0.0141001
794.207	0.0140348
794.285	0.0140242
794.363	0.0140372
794.442	0.0139796
794.520	0.0140376
794.598	0.0140389
794.676	0.0140214
794.754	0.0140626
794.832	0.0140231
794.910	0.0140503
794.988	0.0139761
795.067	0.0140090
795.145	0.0140023
795.223	0.0140039
795.301	0.0141563
795.379	0.0140224
795.457	0.0139066
795.535	0.0139906
795.613	0.0141582
795.692	0.0139944
795.770	0.0138947
795.848	0.0140889
795.926	0.0140203
796.004	0.0141076
796.082	0.0141586
796.160	0.0141217
796.238	0.0140931
796.317	0.0141285
796.395	0.0142515
796.473	0.0142287
796.551	0.0142843
796.629	0.0142053
796.707	0.0140982
796.785	0.0142873
796.863	0.0141842
796.942	0.0142693
797.020	0.0143365
797.098	0.0142558
797.176	0.0141905
797.254	0.0142841
797.332	0.0143556
797.410	0.0142416
797.488	0.0142916
797.567	0.0142556
797.645	0.0141851
797.723	0.0142317
797.801	0.0142613
797.879	0.0142088
797.957	0.0142672
798.035	0.0141561
798.113	0.0142390
798.192	0.0142872
798.270	0.0142627
798.348	0.0141251
798.426	0.0141279
798.504	0.0143122
798.582	0.0142420
798.660	0.0141283
798.738	0.0141431
798.817	0.0139616
798.895	0.0140878
798.973	0.0140508
799.051	0.0141234
799.129	0.0140880
799.207	0.0140835
799.285	0.0138602
799.363	0.0139971
799.442	0.0140776
799.520	0.0138842
799.598	0.0140958
799.676	0.0140637
799.754	0.0140375
799.832	0.0140668
799.910	0.0140726
799.988	0.0141959
800.067	0.0141418
800.145	0.0142312
800.223	0.0143153
800.301	0.0140813
800.379	0.0141470
800.457	0.0141399
800.535	0.0142619
800.613	0.0142904
800.692	0.0142574
800.770	0.0143050
800.848	0.0143974
800.926	0.0142905
801.004	0.0142848
801.082	0.0141768
801.160	0.0143166
801.238	0.0144069
801.317	0.0142897
801.395	0.0142249
801.473	0.0143075
801.551	0.0142764
801.629	0.0143011
801.707	0.0142929
801.785	0.0142602
801.863	0.0142642
801.942	0.0142675
802.020	0.0141770
802.098	0.0141827
802.176	0.0142497
802.254	0.0140186
802.332	0.0142613
802.410	0.0140903
802.488	0.0141767
802.567	0.0141505
802.645	0.0142576
802.723	0.0140187
802.801	0.0139868
802.879	0.0139954
802.957	0.0141079
803.035	0.0141491
803.113	0.0142488
803.192	0.0141787
803.270	0.0141140
803.348	0.0140895
803.426	0.0139611
803.504	0.0141577
803.582	0.0142955
803.660	0.0140102
803.738	0.0140063
803.817	0.0141228
803.895	0.0141309
803.973	0.0141745
804.051	0.0141744
804.129	0.0141614
804.207	0.0143105
804.285	0.0143414
804.363	0.0140776
804.442	0.0142254
804.520	0.0141470
804.598	0.0141386
804.676	0.0142026
804.754	0.0142262
804.832	0.0142420
804.910	0.0142668
804.988	0.0142312
805.067	0.0142876
805.145	0.0142975
805.223	0.0142133
805.301	0.0143593
805.379	0.0143663
805.457	0.0142073
805.535	0.0143619
805.613	0.0142929
805.692	0.0144509
805.770	0.0142942
805.848	0.0143188
805.926	0.0142773
806.004	0.0143824
806.082	0.0143990
806.160	0.0143365
806.238	0.0143329
806.317	0.0142274
806.395	0.0141932
806.473	0.0142621
806.551	0.0143618
806.629	0.0142502
806.707	0.0142140
806.785	0.0143024
806.863	0.0140451
806.942	0.0139937
807.020	0.0140905
807.098	0.0141149
807.176	0.0141664
807.254	0.0140848
807.332	0.0141370
807.410	0.0141460
807.488	0.0139112
807.567	0.0141469
807.645	0.0141997
807.723	0.0140701
807.801	0.0140614
807.879	0.0141425
807.957	0.0140881
808.035	0.0142095
808.113	0.0141356
808.192	0.0140710
808.270	0.0142555
808.348	0.0140665
808.426	0.0142371
808.504	0.0141024
808.582	0.0142268
808.660	0.0142635
808.738	0.0142396
808.817	0.0142210
808.895	0.0144243
808.973	0.0141764
809.051	0.0143065
809.129	0.0142143
809.207	0.0141077
809.285	0.0141673
809.363	0.0141816
809.442	0.0140894
809.520	0.0141362
809.598	0.0142274
809.676	0.0141651
809.754	0.0141830
809.832	0.0140893
809.910	0.0142068
809.988	0.0140496
810.067	0.0141209
810.145	0.0142567
810.223	0.0141830
810.301	0.0141186
810.379	0.0142229
810.457	0.0141761
810.535	0.0141648
810.613	0.0142329
810.692	0.0142836
810.770	0.0141405
810.848	0.0143060
810.926	0.0142180
811.004	0.0140484
811.082	0.0142387
811.160	0.0141584
811.238	0.0142161
811.317	0.0140936
811.395	0.0142096
811.473	0.0144398
811.551	0.0140788
811.629	0.0141697
811.707	0.0141293
811.785	0.0141055
811.863	0.0142023
811.942	0.0141984
812.020	0.0141880
812.098	0.0143208
812.176	0.0141929
812.254	0.0141538
812.332	0.0142316
812.410	0.0142574
812.488	0.0141714
812.567	0.0140881
812.645	0.0142074
812.723	0.0142152
812.801	0.0142126
812.879	0.0141590
812.957	0.0141286
813.035	0.0141262
813.113	0.0141769
813.192	0.0142424
813.270	0.0141988
813.348	0.0141269
813.426	0.0138532
813.504	0.0140808
813.582	0.0141738
813.660	0.0140961
813.738	0.0141135
813.817	0.0140312
813.895	0.0141135
813.973	0.0141692
814.051	0.0141286
814.129	0.0141725
814.207	0.0140422
814.285	0.0142910
814.363	0.0141431
814.442	0.0143111
814.520	0.0141831
814.598	0.0140650
814.676	0.0139409
814.754	0.0141360
814.832	0.0140229
814.910	0.0141310
814.988	0.0139188
815.067	0.0140587
815.145	0.0140471
815.223	0.0139619
815.301	0.0140270
815.379	0.0140520
815.457	0.0140088
815.535	0.0140375
815.613	0.0139711
815.692	0.0140527
815.770	0.0139569
815.848	0.0140406
815.926	0.0141857
816.004	0.0140275
816.082	0.0141982
816.160	0.0140983
816.238	0.0141622
816.317	0.0141682
816.395	0.0141538
816.473	0.0140302
816.551	0.0141761
816.629	0.0141813
816.707	0.0141685
816.785	0.0140923
816.863	0.0141676
816.942	0.0141473
817.020	0.0140948
817.098	0.0140681
817.176	0.0141595
817.254	0.0140115
817.332	0.0139694
817.410	0.0140030
817.488	0.0140376
817.567	0.0138334
817.645	0.0139841
817.723	0.0139795
817.801	0.0139201
817.879	0.0140452
817.957	0.0139549
818.035	0.0137891
818.113	0.0140449
818.192	0.0140318
818.270	0.0138535
818.348	0.0139764
818.426	0.0140147
818.504	0.0139641
818.582	0.0139876
818.660	0.0139976
818.738	0.0138750
818.817	0.0139432
818.895	0.0139241
818.973	0.0139939
819.051	0.0138818
819.129	0.0140249
819.207	0.0139822
819.285	0.0140926
819.363	0.0141265
819.442	0.0141363
819.520	0.0139947
819.598	0.0140855
819.676	0.0140427
819.754	0.0140105
819.832	0.0140602
819.910	0.0141199
819.988	0.0142139
820.067	0.0140913
820.145	0.0141188
820.223	0.0140690
820.301	0.0139474
820.379	0.0141255
820.457	0.0139973
820.535	0.0141196
820.613	0.0141188
820.692	0.0140212
820.770	0.0141100
820.848	0.0141080
820.926	0.0140448
821.004	0.0140158
821.082	0.0140805
821.160	0.0141516
821.238	0.0141534
821.317	0.0141851
821.395	0.0140841
821.473	0.0141398
821.551	0.0141160
821.629	0.0140759
821.707	0.0141567
821.785	0.0141748
821.863	0.0141978
821.942	0.0141366
822.020	0.0141066
822.098	0.0141271
822.176	0.0142440
822.254	0.0142550
822.332	0.0141980
822.410	0.0143067
822.488	0.0142216
822.567	0.0142829
822.645	0.0141570
822.723	0.0142930
822.801	0.0142097
822.879	0.0141875
822.957	0.0142636
823.035	0.0143079
823.113	0.0142522
823.192	0.0143420
823.270	0.0143710
823.348	0.0143719
823.426	0.0141294
823.504	0.0141538
823.582	0.0141582
823.660	0.0141981
823.738	0.0142417
823.817	0.0142080
823.895	0.0140337
823.973	0.0142771
824.051	0.0141541
824.129	0.0140244
824.207	0.0140681
824.285	0.0140784
824.363	0.0140983
824.442	0.0140617
824.520	0.0142554
824.598	0.0141254
824.676	0.0139359
824.754	0.0139050
824.832	0.0140023
824.910	0.0141138
824.988	0.0141335
825.067	0.0140591
825.145	0.0142194
825.223	0.0140925
825.301	0.0140161
825.379	0.0142355
825.457	0.0141483
825.535	0.0142059
825.613	0.0142062
825.692	0.0141919
825.770	0.0140913
825.848	0.0142128
825.926	0.0140600
826.004	0.0142453
826.082	0.0142255
826.160	0.0142084
826.238	0.0141351
826.317	0.0142881
826.395	0.0142883
826.473	0.0142004
826.551	0.0141229
826.629	0.0142484
826.707	0.0141596
826.785	0.0143206
826.863	0.0142318
826.942	0.0142982
827.020	0.0142049
827.098	0.0142371
827.176	0.0142123
827.254	0.0142645
827.332	0.0142535
827.410	0.0142799
827.488	0.0144316
827.567	0.0141974
827.645	0.0142732
827.723	0.0143323
827.801	0.0142892
827.879	0.0141967
827.957	0.0142945
828.035	0.0143037
828.113	0.0142153
828.192	0.0142758
828.270	0.0143723
828.348	0.0142659
828.426	0.0141430
828.504	0.0140539
828.582	0.0141326
828.660	0.0142010
828.738	0.0142548
828.817	0.0142849
828.895	0.0140530
828.973	0.0140923
829.051	0.0141879
829.129	0.0141608
829.207	0.0141062
829.285	0.0142831
829.363	0.0142101
829.442	0.0140752
829.520	0.0140997
829.598	0.0140821
829.676	0.0143140
829.754	0.0141905
829.832	0.0141925
829.910	0.0142968
829.988	0.0142275
830.067	0.0141409
830.145	0.0142374
830.223	0.0141372
830.301	0.0142105
830.379	0.0141832
830.457	0.0141433
830.535	0.0141949
830.613	0.0141721
830.692	0.0142421
830.770	0.0141605
830.848	0.0141305
830.926	0.0143315
831.004	0.0142372
831.082	0.0142319
831.160	0.0142424
831.238	0.0142138
831.317	0.0141656
831.395	0.0141759
831.473	0.0141489
831.551	0.0142600
831.629	0.0141869
831.707	0.0143166
831.785	0.0142660
831.863	0.0142037
831.942	0.0143153
832.020	0.0141879
832.098	0.0140935
832.176	0.0142075
832.254	0.0142287
832.332	0.0142811
832.410	0.0141901
832.488	0.0141315
832.567	0.0141375
832.645	0.0142331
832.723	0.0141388
832.801	0.0142747
832.879	0.0142372
832.957	0.0141403
833.035	0.0144257
833.113	0.0141419
833.192	0.0141592
833.270	0.0141984
833.348	0.0140854
833.426	0.0142454
833.504	0.0142659
833.582	0.0141514
833.660	0.0142957
833.738	0.0142370
833.817	0.0141882
833.895	0.0140359
833.973	0.0143211
834.051	0.0143053
834.129	0.0143233
834.207	0.0142613
834.285	0.0141042
834.363	0.0142050
834.442	0.0141673
834.520	0.0141701
834.598	0.0140944
834.676	0.0142004
834.754	0.0141358
834.832	0.0140962
834.910	0.0141251
834.988	0.0140020
835.067	0.0140201
835.145	0.0141145
835.223	0.0139766
835.301	0.0140495
835.379	0.0140508
835.457	0.0140633
835.535	0.0140295
835.613	0.0141756
835.692	0.0142063
835.770	0.0140900
835.848	0.0142343
835.926	0.0141954
836.004	0.0140822
836.082	0.0142640
836.160	0.0142091
836.238	0.0141631
836.317	0.0142315
836.395	0.0141468
836.473	0.0141218
836.551	0.0141536
836.629	0.0140966
836.707	0.0141296
836.785	0.0142850
836.863	0.0142451
836.942	0.0141195
837.020	0.0141981
837.098	0.0141483
837.176	0.0141739
837.254	0.0141735
837.332	0.0141041
837.410	0.0142089
837.488	0.0141285
837.567	0.0142304
837.645	0.0143137
837.723	0.0141963
837.801	0.0141510
837.879	0.0143268
837.957	0.0142861
838.035	0.0143478
838.113	0.0142326
838.192	0.0142633
838.270	0.0143157
838.348	0.0141912
838.426	0.0142440
838.504	0.0142229
838.582	0.0141603
838.660	0.0142141
838.738	0.0141605
838.817	0.0140405
838.895	0.0141424
838.973	0.0141734
839.051	0.0141714
839.129	0.0141247
839.207	0.0141979
839.285	0.0141831
839.363	0.0141488
839.442	0.0141168
839.520	0.0141464
839.598	0.0140704
839.676	0.0142179
839.754	0.0142261
839.832	0.0140346
839.910	0.0140616
839.988	0.0139717
840.067	0.0140158
840.145	0.0141034
840.223	0.0140213
840.301	0.0140774
840.379	0.0139513
840.457	0.0141093
840.535	0.0140768
840.613	0.0140699
840.692	0.0140604
840.770	0.0139465
840.848	0.0140702
840.926	0.0141045
841.004	0.0139557
841.082	0.0141891
841.160	0.0141645
841.238	0.0141258
841.317	0.0141853
841.395	0.0141620
841.473	0.0141922
841.551	0.0141071
841.629	0.0140543
841.707	0.0140874
841.785	0.0140340
841.863	0.0140749
841.942	0.0140697
842.020	0.0141803
842.098	0.0142429
842.176	0.0141741
842.254	0.0141003
842.332	0.0141103
842.410	0.0141442
842.488	0.0140936
842.567	0.0140795
842.645	0.0140694
842.723	0.0140585
842.801	0.0140598
842.879	0.0140892
842.957	0.0141431
843.035	0.0141542
843.113	0.0140117
843.192	0.0141560
843.270	0.0139957
843.348	0.0139573
843.426	0.0140814
843.504	0.0140532
843.582	0.0141283
843.660	0.0140916
843.738	0.0141581
843.817	0.0139234
843.895	0.0139179
843.973	0.0141285
844.051	0.0141320
844.129	0.0141860
844.207	0.0140343
844.285	0.0140006
844.363	0.0141624
844.442	0.0140914
844.520	0.0138915
844.598	0.0139394
844.676	0.0140096
844.754	0.0140541
844.832	0.0139555
844.910	0.0140130
844.988	0.0139993
845.067	0.0137863
845.145	0.0139581
845.223	0.0140165
845.301	0.0141174
845.379	0.0139272
845.457	0.0139688
845.535	0.0139210
845.613	0.0140385
845.692	0.0140884
845.770	0.0139272
845.848	0.0139906
845.926	0.0139472
846.004	0.0140167
846.082	0.0140858
846.160	0.0140234
846.238	0.0139868
846.317	0.0139148
846.395	0.0141251
846.473	0.0140185
846.551	0.0139178
846.629	0.0141143
846.707	0.0140388
846.785	0.0140354
846.863	0.0139214
846.942	0.0139874
847.020	0.0140924
847.098	0.0139911
847.176	0.0140725
847.254	0.0141021
847.332	0.0140643
847.410	0.0140070
847.488	0.0141021
847.567	0.0142027
847.645	0.0141818
847.723	0.0141999
847.801	0.0140987
847.879	0.0140969
847.957	0.0141401
848.035	0.0140746
848.113	0.0141972
848.192	0.0141315
848.270	0.0141457
848.348	0.0142067
848.426	0.0142306
848.504	0.0141856
848.582	0.0140592
848.660	0.0141904
848.738	0.0141483
848.817	0.0140598
848.895	0.0140551
848.973	0.0140158
849.051	0.0142001
849.129	0.0141020
849.207	0.0141074
849.285	0.0141085
849.363	0.0140804
849.442	0.0141083
849.520	0.0139899
849.598	0.0139368
849.676	0.0141061
849.754	0.0141405
849.832	0.0140681
849.910	0.0140405
849.988	0.0141027
850.067	0.0139577
850.145	0.0139692
850.223	0.0140962
850.301	0.0140548
850.379	0.0140948
850.457	0.0140058
850.535	0.0139347
850.613	0.0140798
850.692	0.0140771
850.770	0.0141050
850.848	0.0139770
850.926	0.0141291
851.004	0.0141408
851.082	0.0141653
851.160	0.0141588
851.238	0.0141629
851.317	0.0142136
851.395	0.0141349
851.473	0.0142127
851.551	0.0142306
851.629	0.0142507
851.707	0.0141273
851.785	0.0143148
851.863	0.0142715
851.942	0.0143523
852.020	0.0142512
852.098	0.0143040
852.176	0.0141943
852.254	0.0143144
852.332	0.0142583
852.410	0.0142538
852.488	0.0142281
852.567	0.0143361
852.645	0.0144849
852.723	0.0144100
852.801	0.0144115
852.879	0.0142057
852.957	0.0144257
853.035	0.0142846
853.113	0.0142991
853.192	0.0142938
853.270	0.0143604
853.348	0.0143858
853.426	0.0143020
853.504	0.0142649
853.582	0.0143389
853.660	0.0143212
853.738	0.0142306
853.817	0.0142124
853.895	0.0143121
853.973	0.0142527
854.051	0.0142889
854.129	0.0142294
854.207	0.0142298
854.285	0.0142320
854.363	0.0143241
854.442	0.0142291
854.520	0.0141689
854.598	0.0141044
854.676	0.0142091
854.754	0.0141940
854.832	0.0141931
854.910	0.0142280
854.988	0.0142506
855.067	0.0140521
855.145	0.0141383
855.223	0.0141244
855.301	0.0142548
855.379	0.0142265
855.457	0.0141737
855.535	0.0142134
855.613	0.0142102
855.692	0.0141805
855.770	0.0142396
855.848	0.0142220
855.926	0.0142205
856.004	0.0141219
856.082	0.0141940
856.160	0.0141107
856.238	0.0142460
856.317	0.0142273
856.395	0.0142280
856.473	0.0142864
856.551	0.0142199
856.629	0.0141670
856.707	0.0141605
856.785	0.0143231
856.863	0.0142641
856.942	0.0143240
857.020	0.0142758
857.098	0.0143250
857.176	0.0142693
857.254	0.0143955
857.332	0.0143127
857.410	0.0142932
857.488	0.0143862
857.567	0.0143723
857.645	0.0141997
857.723	0.0142822
857.801	0.0144032
857.879	0.0142964
857.957	0.0143913
858.035	0.0143244
858.113	0.0141275
858.192	0.0142931
858.270	0.0142188
858.348	0.0141080
858.426	0.0143255
858.504	0.0141863
858.582	0.0141612
858.660	0.0142796
858.738	0.0142784
858.817	0.0141680
858.895	0.0141314
858.973	0.0140876
859.051	0.0142542
859.129	0.0141249
859.207	0.0141116
859.285	0.0139706
859.363	0.0141025
859.442	0.0140376
859.520	0.0140657
859.598	0.0141559
859.676	0.0139990
859.754	0.0141283
859.832	0.0140672
859.910	0.0140727
859.988	0.0139960
860.067	0.0141018
860.145	0.0140542
860.223	0.0140807
860.301	0.0140496
860.379	0.0141759
860.457	0.0141240
860.535	0.0142244
860.613	0.0142351
860.692	0.0142613
860.770	0.0141402
860.848	0.0141701
860.926	0.0141296
861.004	0.0141245
861.082	0.0140044
861.160	0.0141076
861.238	0.0142339
861.317	0.0142127
861.395	0.0141828
861.473	0.0140546
861.551	0.0140086
861.629	0.0141354
861.707	0.0140722
861.785	0.0141847
861.863	0.0141376
861.942	0.0139526
862.020	0.0141694
862.098	0.0140751
862.176	0.0141077
862.254	0.0140331
862.332	0.0142279
862.410	0.0141073
862.488	0.0140636
862.567	0.0140685
862.645	0.0141691
862.723	0.0142363
862.801	0.0141794
862.879	0.0141428
862.957	0.0141003
863.035	0.0141355
863.113	0.0141328
863.192	0.0141074
863.270	0.0142433
863.348	0.0142068
863.426	0.0141845
863.504	0.0141621
863.582	0.0141553
863.660	0.0141816
863.738	0.0142305
863.817	0.0141006
863.895	0.0141190
863.973	0.0141563
864.051	0.0141251
864.129	0.0140401
864.207	0.0140380
864.285	0.0141404
864.363	0.0143034
864.442	0.0140379
864.520	0.0140298
864.598	0.0141616
864.676	0.0140416
864.754	0.0139844
864.832	0.0140649
864.910	0.0140796
864.988	0.0140682
865.067	0.0140191
865.145	0.0140634
865.223	0.0140655
865.301	0.0141425
865.379	0.0139766
865.457	0.0141320
865.535	0.0139871
865.613	0.0140294
865.692	0.0141735
865.770	0.0140768
865.848	0.0140575
865.926	0.0141503
866.004	0.0140897
866.082	0.0140540
866.160	0.0141162
866.238	0.0141588
866.317	0.0140285
866.395	0.0141142
866.473	0.0141345
866.551	0.0140891
866.629	0.0140804
866.707	0.0141059
866.785	0.0140478
866.863	0.0139762
866.942	0.0140951
867.020	0.0140544
867.098	0.0140261
867.176	0.0139669
867.254	0.0139910
867.332	0.0140558
867.410	0.0140442
867.488	0.0141018
867.567	0.0139681
867.645	0.0141342
867.723	0.0141085
867.801	0.0139001
867.879	0.0139460
867.957	0.0141546
868.035	0.0140628
868.113	0.0139623
868.192	0.0141395
868.270	0.0141055
868.348	0.0141582
868.426	0.0141299
868.504	0.0142361
868.582	0.0142458
868.660	0.0141322
868.738	0.0142361
868.817	0.0142608
868.895	0.0141513
868.973	0.0141774
869.051	0.0141656
869.129	0.0141335
869.207	0.0141901
869.285	0.0141801
869.363	0.0142544
869.442	0.0141747
869.520	0.0140967
869.598	0.0140810
869.676	0.0140876
869.754	0.0141787
869.832	0.0139529
869.910	0.0140583
869.988	0.0141314
870.067	0.0141213
870.145	0.0139680
870.223	0.0140369
870.301	0.0141224
870.379	0.0141316
870.457	0.0140598
870.535	0.0140205
870.613	0.0142132
870.692	0.0141933
870.770	0.0141557
870.848	0.0141884
870.926	0.0140654
871.004	0.0140857
871.082	0.0142213
871.160	0.0141326
871.238	0.0141665
871.317	0.0140578
871.395	0.0140942
871.473	0.0141620
871.551	0.0140642
871.629	0.0140156
871.707	0.0142622
871.785	0.0140353
871.863	0.0141561
871.942	0.0141267
872.020	0.0141346
872.098	0.0141302
872.176	0.0141740
872.254	0.0140597
872.332	0.0143093
872.410	0.0142184
872.488	0.0141270
872.567	0.0143133
872.645	0.0143313
872.723	0.0142207
872.801	0.0143369
872.879	0.0142100
872.957	0.0142933
873.035	0.0141808
873.113	0.0143969
873.192	0.0143114
873.270	0.0141805
873.348	0.0142207
873.426	0.0141788
873.504	0.0142211
873.582	0.0142277
873.660	0.0141319
873.738	0.0141566
873.817	0.0140948
873.895	0.0141319
873.973	0.0141705
874.051	0.0142002
874.129	0.0141756
874.207	0.0141567
874.285	0.0141593
874.363	0.0140960
874.442	0.0140879
874.520	0.0140498
874.598	0.0141249
874.676	0.0143075
874.754	0.0142083
874.832	0.0141647
874.910	0.0142565
874.988	0.0143060
875.067	0.0141669
875.145	0.0141492
875.223	0.0142961
875.301	0.0142569
875.379	0.0142109
875.457	0.0141965
875.535	0.0142370
875.613	0.0141738
875.692	0.0142059
875.770	0.0142545
875.848	0.0142388
875.926	0.0142078
876.004	0.0141706
876.082	0.0141459
876.160	0.0142805
876.238	0.0144111
876.317	0.0142593
876.395	0.0143002
876.473	0.0143715
876.551	0.0142445
876.629	0.0142899
876.707	0.0143226
876.785	0.0142645
876.863	0.0143458
876.942	0.0143268
877.020	0.0142336
877.098	0.0143282
877.176	0.0140379
877.254	0.0140882
877.332	0.0141699
877.410	0.0142442
877.488	0.0141782
877.567	0.0142567
877.645	0.0141479
877.723	0.0142114
877.801	0.0141837
877.879	0.0141154
877.957	0.0141487
878.035	0.0142881
878.113	0.0141673
878.192	0.0141579
878.270	0.0141916
878.348	0.0141695
878.426	0.0142905
878.504	0.0141914
878.582	0.0141577
878.660	0.0141826
878.738	0.0141723
878.817	0.0143540
878.895	0.0141430
878.973	0.0141577
879.051	0.0142822
879.129	0.0142970
879.207	0.0140984
879.285	0.0142113
879.363	0.0141449
879.442	0.0140358
879.520	0.0141706
879.598	0.0141747
879.676	0.0142658
879.754	0.0140713
879.832	0.0142966
879.910	0.0142316
879.988	0.0141597
880.067	0.0142892
880.145	0.0143034
880.223	0.0142429
880.301	0.0142674
880.379	0.0142552
880.457	0.0142391
880.535	0.0143133
880.613	0.0142502
880.692	0.0142669
880.770	0.0143523
880.848	0.0142979
880.926	0.0141523
881.004	0.0142602
881.082	0.0143066
881.160	0.0141496
881.238	0.0142645
881.317	0.0142638
881.395	0.0141087
881.473	0.0142042
881.551	0.0141003
881.629	0.0141819
881.707	0.0141271
881.785	0.0140999
881.863	0.0141320
881.942	0.0140060
882.020	0.0140497
882.098	0.0140770
882.176	0.0141508
882.254	0.0142796
882.332	0.0142056
882.410	0.0141635
882.488	0.0141772
882.567	0.0140739
882.645	0.0141553
882.723	0.0142654
882.801	0.0141496
882.879	0.0142853
882.957	0.0142194
883.035	0.0141935
883.113	0.0141879
883.192	0.0141347
883.270	0.0140601
883.348	0.0141029
883.426	0.0143107
883.504	0.0142842
883.582	0.0141985
883.660	0.0140908
883.738	0.0142754
883.817	0.0141140
883.895	0.0141221
883.973	0.0141505
884.051	0.0142398
884.129	0.0141015
884.207	0.0140897
884.285	0.0140774
884.363	0.0141328
884.442	0.0141128
884.520	0.0141990
884.598	0.0141383
884.676	0.0140545
884.754	0.0141786
884.832	0.0141380
884.910	0.0141158
884.988	0.0140357
885.067	0.0140864
885.145	0.0141239
885.223	0.0140701
885.301	0.0140467
885.379	0.0142423
885.457	0.0140094
885.535	0.0141740
885.613	0.0140299
885.692	0.0141853
885.770	0.0142590
885.848	0.0141768
885.926	0.0141750
886.004	0.0141709
886.082	0.0142029
886.160	0.0141262
886.238	0.0142353
886.317	0.0141413
886.395	0.0142178
886.473	0.0143172
886.551	0.0142551
886.629	0.0142053
886.707	0.0142344
886.785	0.0141497
886.863	0.0142225
886.942	0.0141313
887.020	0.0140366
887.098	0.0140765
887.176	0.0141875
887.254	0.0141682
887.332	0.0142455
887.410	0.0141184
887.488	0.0142172
887.567	0.0141209
887.645	0.0139885
887.723	0.0141129
887.801	0.0141797
887.879	0.0142094
887.957	0.0140409
888.035	0.0140166
888.113	0.0141997
888.192	0.0141616
888.270	0.0140437
888.348	0.0141375
888.426	0.0141065
888.504	0.0140750
888.582	0.0141692
888.660	0.0139606
888.738	0.0141601
888.817	0.0140937
888.895	0.0141947
888.973	0.0139146
889.051	0.0139658
889.129	0.0141563
889.207	0.0141601
889.285	0.0140958
889.363	0.0142336
889.442	0.0141592
889.520	0.0141222
889.598	0.0142029
889.676	0.0142293
889.754	0.0140544
889.832	0.0140740
889.910	0.0141856
889.988	0.0141593
890.067	0.0141225
890.145	0.0142050
890.223	0.0141164
890.301	0.0141858
890.379	0.0142893
890.457	0.0141406
890.535	0.0142902
890.613	0.0142056
890.692	0.0141170
890.770	0.0143127
890.848	0.0141634
890.926	0.0140987
891.004	0.0140981
891.082	0.0141608
891.160	0.0142145
891.238	0.0142156
891.317	0.0143247
891.395	0.0141565
891.473	0.0142556
891.551	0.0142089
891.629	0.0140636
891.707	0.0141853
891.785	0.0141987
891.863	0.0142090
891.942	0.0141663
892.020	0.0141198
892.098	0.0141058
892.176	0.0141987
892.254	0.0141926
892.332	0.0141249
892.410	0.0141349
892.488	0.0141993
892.567	0.0141838
892.645	0.0142029
892.723	0.0141602
892.801	0.0140680
892.879	0.0141193
892.957	0.0141416
893.035	0.0139883
893.113	0.0141568
893.192	0.0140941
893.270	0.0140902
893.348	0.0141443
893.426	0.0141281
893.504	0.0141772
893.582	0.0140172
893.660	0.0141358
893.738	0.0140687
893.817	0.0141889
893.895	0.0141786
893.973	0.0143034
894.051	0.0141531
894.129	0.0141828
894.207	0.0142689
894.285	0.0141500
894.363	0.0140897
894.442	0.0143761
894.520	0.0141430
894.598	0.0141343
894.676	0.0142648
894.754	0.0142712
894.832	0.0141908
894.910	0.0142165
894.988	0.0142278
895.067	0.0141543
895.145	0.0142564
895.223	0.0143327
895.301	0.0142583
895.379	0.0142170
895.457	0.0141585
895.535	0.0142345
895.613	0.0141934
895.692	0.0142107
895.770	0.0142272
895.848	0.0142794
895.926	0.0141491
896.004	0.0141023
896.082	0.0141873
896.160	0.0142208
896.238	0.0141592
896.317	0.0141344
896.395	0.0142718
896.473	0.0140971
896.551	0.0141373
896.629	0.0141235
896.707	0.0138349
896.785	0.0141476
896.863	0.0140707
896.942	0.0140937
897.020	0.0141718
897.098	0.0141367
897.176	0.0140694
897.254	0.0141771
897.332	0.0141370
897.410	0.0141746
897.488	0.0141227
897.567	0.0140846
897.645	0.0141663
897.723	0.0141676
897.801	0.0141342
897.879	0.0140154
897.957	0.0142374
898.035	0.0141431
898.113	0.0141729
898.192	0.0141866
898.270	0.0141367
898.348	0.0141891
898.426	0.0142562
898.504	0.0140973
898.582	0.0140834
898.660	0.0140858
898.738	0.0141831
898.817	0.0142196
898.895	0.0142634
898.973	0.0141959
899.051	0.0143169
899.129	0.0142588
899.207	0.0140892
899.285	0.0141765
899.363	0.0143051
899.442	0.0142032
899.520	0.0142450
899.598	0.0141779
899.676	0.0142017
899.754	0.0142039
899.832	0.0142764
899.910	0.0141151
899.988	0.0141931
900.067	0.0142691
900.145	0.0142944
900.223	0.0143509
900.301	0.0141351
900.379	0.0141621
900.457	0.0140604
900.535	0.0142416
900.613	0.0143068
900.692	0.0141452
900.770	0.0141451
900.848	0.0142233
900.926	0.0141644
901.004	0.0142826
901.082	0.0143330
901.160	0.0143490
901.238	0.0140919
901.317	0.0141960
901.395	0.0141353
901.473	0.0142503
901.551	0.0142091
901.629	0.0142905
901.707	0.0141940
901.785	0.0140993
901.863	0.0141710
901.942	0.0142806
902.020	0.0142173
902.098	0.0140949
902.176	0.0141518
902.254	0.0140173
902.332	0.0142104
902.410	0.0139612
902.488	0.0142442
902.567	0.0140829
902.645	0.0140614
902.723	0.0140264
902.801	0.0142013
902.879	0.0142325
902.957	0.0142750
903.035	0.0140318
903.113	0.0140813
903.192	0.0139719
903.270	0.0141077
903.348	0.0140105
903.426	0.0140623
903.504	0.0140375
903.582	0.0140984
903.660	0.0140392
903.738	0.0141387
903.817	0.0141041
903.895	0.0141098
903.973	0.0140260
904.051	0.0139918
904.129	0.0140404
904.207	0.0140947
904.285	0.0141667
904.363	0.0140581
904.442	0.0141640
904.520	0.0140071
904.598	0.0140083
904.676	0.0140154
904.754	0.0141870
904.832	0.0140201
904.910	0.0140272
904.988	0.0141280
905.067	0.0139925
905.145	0.0140638
905.223	0.0138741
905.301	0.0140837
905.379	0.0140968
905.457	0.0140704
905.535	0.0141460
905.613	0.0141991
905.692	0.0141306
905.770	0.0139991
905.848	0.0140819
905.926	0.0141465
906.004	0.0140825
906.082	0.0141771
906.160	0.0141953
906.238	0.0141964
906.317	0.0140965
906.395	0.0142990
906.473	0.0142250
906.551	0.0142307
906.629	0.0141080
906.707	0.0143087
906.785	0.0143881
906.863	0.0142281
906.942	0.0141369
907.020	0.0142232
907.098	0.0143307
907.176	0.0143504
907.254	0.0143194
907.332	0.0142435
907.410	0.0142098
907.488	0.0143990
907.567	0.0142490
907.645	0.0142934
907.723	0.0143433
907.801	0.0143511
907.879	0.0143262
907.957	0.0142944
908.035	0.0142133
908.113	0.0144753
908.192	0.0143215
908.270	0.0142141
908.348	0.0141842
908.426	0.0142915
908.504	0.0143102
908.582	0.0143262
908.660	0.0143187
908.738	0.0142989
908.817	0.0143452
908.895	0.0142171
908.973	0.0143522
909.051	0.0142187
909.129	0.0141234
909.207	0.0141819
909.285	0.0141353
909.363	0.0141285
909.442	0.0141434
909.520	0.0142213
909.598	0.0141662
909.676	0.0143050
909.754	0.0142127
909.832	0.0140768
909.910	0.0142086
909.988	0.0140795
910.067	0.0142175
910.145	0.0141576
910.223	0.0140157
910.301	0.0141297
910.379	0.0142452
910.457	0.0142276
910.535	0.0143060
910.613	0.0141511
910.692	0.0140290
910.770	0.0141003
910.848	0.0140607
910.926	0.0142545
911.004	0.0142172
911.082	0.0142751
911.160	0.0142205
911.238	0.0141623
911.317	0.0141267
911.395	0.0140500
911.473	0.0141768
911.551	0.0141747
911.629	0.0139836
911.707	0.0141873
911.785	0.0140877
911.863	0.0140437
911.942	0.0140140
912.020	0.0141264
912.098	0.0141395
912.176	0.0141400
912.254	0.0142613
912.332	0.0141001
912.410	0.0142289
912.488	0.0142708
912.567	0.0142078
912.645	0.0140250
912.723	0.0140820
912.801	0.0141533
912.879	0.0141827
912.957	0.0141113
913.035	0.0142064
913.113	0.0142485
913.192	0.0141185
913.270	0.0140136
913.348	0.0140734
913.426	0.0140707
913.504	0.0140786
913.582	0.0140652
913.660	0.0140714
913.738	0.0140913
913.817	0.0139671
913.895	0.0140119
913.973	0.0138848
914.051	0.0141865
914.129	0.0140604
914.207	0.0139078
914.285	0.0140195
914.363	0.0141074
914.442	0.0140023
914.520	0.0139413
914.598	0.0139177
914.676	0.0139754
914.754	0.0141100
914.832	0.0142041
914.910	0.0142407
914.988	0.0141296
915.067	0.0141580
915.145	0.0141237
915.223	0.0142248
915.301	0.0141038
915.379	0.0141724
915.457	0.0141705
915.535	0.0142105
915.613	0.0142018
915.692	0.0141243
915.770	0.0141650
915.848	0.0141746
915.926	0.0141180
916.004	0.0140936
916.082	0.0141789
916.160	0.0139996
916.238	0.0142492
916.317	0.0141977
916.395	0.0141746
916.473	0.0140199
916.551	0.0140990
916.629	0.0141389
916.707	0.0142128
916.785	0.0141969
916.863	0.0141006
916.942	0.0141275
917.020	0.0141890
917.098	0.0142466
917.176	0.0143007
917.254	0.0140819
917.332	0.0141392
917.410	0.0142772
917.488	0.0141881
917.567	0.0141638
917.645	0.0141245
917.723	0.0141506
917.801	0.0142299
917.879	0.0141904
917.957	0.0141026
918.035	0.0142634
918.113	0.0141550
918.192	0.0141843
918.270	0.0142050
918.348	0.0142739
918.426	0.0141582
918.504	0.0142130
918.582	0.0140530
918.660	0.0140797
918.738	0.0142039
918.817	0.0140310
918.895	0.0141900
918.973	0.0142982
919.051	0.0141479
919.129	0.0141924
919.207	0.0141573
919.285	0.0140321
919.363	0.0141936
919.442	0.0141704
919.520	0.0142224
919.598	0.0141006
919.676	0.0141222
919.754	0.0141211
919.832	0.0140529
919.910	0.0141302
