05/28/2022	14:17:41	Ver.	4.1	UNKNOWN
Optical Delay	599.988409	Delta X		0.078125	Sweeps	1	Scan Rate	0/0
Coordinates	Axis 1	NaN	Axis 2	NaN	Axis 3	NaN	Axis 4	NaN	Axis 5	NaN	Axis 6	0.000000
TX Power	0.000000	RX Power	0.000000

599.988	0.0145986
600.067	0.0145759
600.145	0.0145251
600.223	0.0144591
600.301	0.0145794
600.379	0.0146589
600.457	0.0146489
600.535	0.0146294
600.613	0.0146552
600.692	0.0146761
600.770	0.0147208
600.848	0.0146024
600.926	0.0144786
601.004	0.0147083
601.082	0.0146391
601.160	0.0147784
601.238	0.0146529
601.317	0.0146728
601.395	0.0145966
601.473	0.0145865
601.551	0.0145991
601.629	0.0146058
601.707	0.0146191
601.785	0.0145896
601.863	0.0146479
601.942	0.0146165
602.020	0.0147419
602.098	0.0146236
602.176	0.0145738
602.254	0.0145238
602.332	0.0144778
602.410	0.0145924
602.488	0.0145848
602.567	0.0146658
602.645	0.0146364
602.723	0.0147156
602.801	0.0146698
602.879	0.0146426
602.957	0.0146839
603.035	0.0146551
603.113	0.0145649
603.192	0.0146615
603.270	0.0146415
603.348	0.0146547
603.426	0.0146351
603.504	0.0146082
603.582	0.0146213
603.660	0.0148284
603.738	0.0147665
603.817	0.0146860
603.895	0.0147721
603.973	0.0145425
604.051	0.0146853
604.129	0.0145334
604.207	0.0145847
604.285	0.0147323
604.363	0.0146137
604.442	0.0145725
604.520	0.0145193
604.598	0.0147314
604.676	0.0146729
604.754	0.0146044
604.832	0.0146243
604.910	0.0146127
604.988	0.0146935
605.067	0.0145754
605.145	0.0146198
605.223	0.0144684
605.301	0.0145061
605.379	0.0145451
605.457	0.0146009
605.535	0.0146786
605.613	0.0145804
605.692	0.0146088
605.770	0.0147119
605.848	0.0146876
605.926	0.0146133
606.004	0.0145018
606.082	0.0147241
606.160	0.0147221
606.238	0.0148294
606.317	0.0146719
606.395	0.0145963
606.473	0.0145948
606.551	0.0146813
606.629	0.0147633
606.707	0.0147347
606.785	0.0146174
606.863	0.0145333
606.942	0.0146377
607.020	0.0146979
607.098	0.0146135
607.176	0.0147096
607.254	0.0147036
607.332	0.0147371
607.410	0.0146191
607.488	0.0146982
607.567	0.0146803
607.645	0.0146200
607.723	0.0145284
607.801	0.0146348
607.879	0.0145985
607.957	0.0146211
608.035	0.0144932
608.113	0.0145692
608.192	0.0146034
608.270	0.0146629
608.348	0.0146960
608.426	0.0145411
608.504	0.0145748
608.582	0.0147768
608.660	0.0146575
608.738	0.0147538
608.817	0.0147770
608.895	0.0147563
608.973	0.0147120
609.051	0.0147810
609.129	0.0145870
609.207	0.0145671
609.285	0.0148254
609.363	0.0147952
609.442	0.0147198
609.520	0.0146301
609.598	0.0145309
609.676	0.0146898
609.754	0.0148013
609.832	0.0147154
609.910	0.0145467
609.988	0.0146666
610.067	0.0146394
610.145	0.0146359
610.223	0.0146973
610.301	0.0147093
610.379	0.0145642
610.457	0.0145688
610.535	0.0146101
610.613	0.0146905
610.692	0.0145863
610.770	0.0146685
610.848	0.0147069
610.926	0.0146601
611.004	0.0147243
611.082	0.0145760
611.160	0.0146582
611.238	0.0145421
611.317	0.0146240
611.395	0.0146993
611.473	0.0146030
611.551	0.0145907
611.629	0.0146497
611.707	0.0145961
611.785	0.0146080
611.863	0.0147279
611.942	0.0145572
612.020	0.0147106
612.098	0.0145751
612.176	0.0143939
612.254	0.0146247
612.332	0.0146265
612.410	0.0145296
612.488	0.0146544
612.567	0.0145869
612.645	0.0145773
612.723	0.0146477
612.801	0.0146632
612.879	0.0144304
612.957	0.0145428
613.035	0.0145774
613.113	0.0146030
613.192	0.0146710
613.270	0.0143832
613.348	0.0145471
613.426	0.0146637
613.504	0.0144103
613.582	0.0144621
613.660	0.0146623
613.738	0.0146987
613.817	0.0145950
613.895	0.0144621
613.973	0.0144649
614.051	0.0146124
614.129	0.0146387
614.207	0.0146242
614.285	0.0145432
614.363	0.0144234
614.442	0.0145242
614.520	0.0145975
614.598	0.0145187
614.676	0.0145655
614.754	0.0144991
614.832	0.0146336
614.910	0.0147668
614.988	0.0146016
615.067	0.0145097
615.145	0.0146451
615.223	0.0145634
615.301	0.0146629
615.379	0.0147074
615.457	0.0147205
615.535	0.0145936
615.613	0.0144585
615.692	0.0146310
615.770	0.0147198
615.848	0.0144618
615.926	0.0145314
616.004	0.0147287
616.082	0.0146353
616.160	0.0145055
616.238	0.0145640
616.317	0.0146256
616.395	0.0146708
616.473	0.0145808
616.551	0.0145874
616.629	0.0145827
616.707	0.0146381
616.785	0.0146690
616.863	0.0146947
616.942	0.0146297
617.020	0.0146018
617.098	0.0146255
617.176	0.0145826
617.254	0.0145929
617.332	0.0146146
617.410	0.0146464
617.488	0.0146027
617.567	0.0146143
617.645	0.0147478
617.723	0.0145052
617.801	0.0146693
617.879	0.0146428
617.957	0.0146132
618.035	0.0145916
618.113	0.0146600
618.192	0.0147430
618.270	0.0146518
618.348	0.0145032
618.426	0.0145327
618.504	0.0146284
618.582	0.0145530
618.660	0.0144907
618.738	0.0145751
618.817	0.0147105
618.895	0.0146162
618.973	0.0145512
619.051	0.0146471
619.129	0.0147231
619.207	0.0145364
619.285	0.0146665
619.363	0.0145182
619.442	0.0146234
619.520	0.0145644
619.598	0.0146852
619.676	0.0145388
619.754	0.0145294
619.832	0.0145363
619.910	0.0145625
619.988	0.0146340
620.067	0.0147310
620.145	0.0146004
620.223	0.0145845
620.301	0.0146770
620.379	0.0145412
620.457	0.0145044
620.535	0.0146139
620.613	0.0145649
620.692	0.0147402
620.770	0.0145312
620.848	0.0146004
620.926	0.0146313
621.004	0.0147032
621.082	0.0145839
621.160	0.0146225
621.238	0.0145826
621.317	0.0146692
621.395	0.0147620
621.473	0.0146306
621.551	0.0145329
621.629	0.0145805
621.707	0.0145241
621.785	0.0146294
621.863	0.0145641
621.942	0.0145639
622.020	0.0145184
622.098	0.0147800
622.176	0.0147080
622.254	0.0144532
622.332	0.0146489
622.410	0.0146899
622.488	0.0146545
622.567	0.0145692
622.645	0.0145885
622.723	0.0145603
622.801	0.0144820
622.879	0.0145641
622.957	0.0147446
623.035	0.0146568
623.113	0.0146065
623.192	0.0145975
623.270	0.0145992
623.348	0.0146162
623.426	0.0146977
623.504	0.0146706
623.582	0.0147968
623.660	0.0147167
623.738	0.0147298
623.817	0.0148228
623.895	0.0146505
623.973	0.0147912
624.051	0.0146389
624.129	0.0147295
624.207	0.0147266
624.285	0.0147571
624.363	0.0148360
624.442	0.0146687
624.520	0.0147823
624.598	0.0147593
624.676	0.0147685
624.754	0.0146986
624.832	0.0147041
624.910	0.0148425
624.988	0.0147962
625.067	0.0146946
625.145	0.0146482
625.223	0.0146684
625.301	0.0147181
625.379	0.0147806
625.457	0.0147002
625.535	0.0146493
625.613	0.0148163
625.692	0.0147080
625.770	0.0147247
625.848	0.0148566
625.926	0.0147341
626.004	0.0148321
626.082	0.0147193
626.160	0.0147523
626.238	0.0146579
626.317	0.0148340
626.395	0.0147641
626.473	0.0148447
626.551	0.0147347
626.629	0.0146981
626.707	0.0146658
626.785	0.0147263
626.863	0.0147034
626.942	0.0147393
627.020	0.0148284
627.098	0.0147743
627.176	0.0147479
627.254	0.0147851
627.332	0.0146517
627.410	0.0146469
627.488	0.0145924
627.567	0.0148406
627.645	0.0146563
627.723	0.0146891
627.801	0.0146850
627.879	0.0146149
627.957	0.0147562
628.035	0.0146452
628.113	0.0145623
628.192	0.0147375
628.270	0.0146891
628.348	0.0146716
628.426	0.0147179
628.504	0.0145771
628.582	0.0145656
628.660	0.0146961
628.738	0.0146482
628.817	0.0145898
628.895	0.0147160
628.973	0.0146619
629.051	0.0146133
629.129	0.0145827
629.207	0.0146004
629.285	0.0147356
629.363	0.0146522
629.442	0.0147082
629.520	0.0147955
629.598	0.0147210
629.676	0.0146272
629.754	0.0145634
629.832	0.0146560
629.910	0.0145923
629.988	0.0146628
630.067	0.0146471
630.145	0.0147903
630.223	0.0146339
630.301	0.0146529
630.379	0.0147105
630.457	0.0146715
630.535	0.0147744
630.613	0.0146012
630.692	0.0145976
630.770	0.0146676
630.848	0.0147044
630.926	0.0148019
631.004	0.0146191
631.082	0.0147318
631.160	0.0146525
631.238	0.0146390
631.317	0.0147224
631.395	0.0147006
631.473	0.0146369
631.551	0.0146719
631.629	0.0146916
631.707	0.0146076
631.785	0.0146628
631.863	0.0146747
631.942	0.0145348
632.020	0.0146626
632.098	0.0146809
632.176	0.0146149
632.254	0.0146127
632.332	0.0146793
632.410	0.0144610
632.488	0.0145602
632.567	0.0145490
632.645	0.0145270
632.723	0.0147014
632.801	0.0146513
632.879	0.0146270
632.957	0.0146207
633.035	0.0147274
633.113	0.0145359
633.192	0.0145969
633.270	0.0146790
633.348	0.0145041
633.426	0.0144311
633.504	0.0144355
633.582	0.0145646
633.660	0.0145135
633.738	0.0145455
633.817	0.0144345
633.895	0.0146299
633.973	0.0145480
634.051	0.0146014
634.129	0.0144345
634.207	0.0145657
634.285	0.0143700
634.363	0.0144410
634.442	0.0146317
634.520	0.0146152
634.598	0.0144408
634.676	0.0145575
634.754	0.0146140
634.832	0.0145366
634.910	0.0144939
634.988	0.0144978
635.067	0.0146143
635.145	0.0145816
635.223	0.0145543
635.301	0.0145541
635.379	0.0146958
635.457	0.0145406
635.535	0.0145622
635.613	0.0147470
635.692	0.0146345
635.770	0.0144313
635.848	0.0146436
635.926	0.0146381
636.004	0.0145189
636.082	0.0145587
636.160	0.0148005
636.238	0.0147044
636.317	0.0145225
636.395	0.0147093
636.473	0.0146740
636.551	0.0145905
636.629	0.0146607
636.707	0.0146649
636.785	0.0146336
636.863	0.0146131
636.942	0.0145480
637.020	0.0145801
637.098	0.0147116
637.176	0.0147645
637.254	0.0146140
637.332	0.0146320
637.410	0.0147567
637.488	0.0146468
637.567	0.0146689
637.645	0.0147260
637.723	0.0147680
637.801	0.0147266
637.879	0.0147053
637.957	0.0146918
638.035	0.0147021
638.113	0.0147830
638.192	0.0147223
638.270	0.0147279
638.348	0.0146348
638.426	0.0147445
638.504	0.0147663
638.582	0.0147852
638.660	0.0146929
638.738	0.0145597
638.817	0.0145922
638.895	0.0146429
638.973	0.0144649
639.051	0.0144924
639.129	0.0143923
639.207	0.0145795
639.285	0.0145653
639.363	0.0144107
639.442	0.0144469
639.520	0.0144997
639.598	0.0144623
639.676	0.0144116
639.754	0.0144872
639.832	0.0145473
639.910	0.0144646
639.988	0.0145538
640.067	0.0145870
640.145	0.0145567
640.223	0.0145735
640.301	0.0148167
640.379	0.0147467
640.457	0.0147950
640.535	0.0147902
640.613	0.0147158
640.692	0.0146708
640.770	0.0148481
640.848	0.0149635
640.926	0.0147514
641.004	0.0147816
641.082	0.0148487
641.160	0.0146419
641.238	0.0147966
641.317	0.0147593
641.395	0.0146890
641.473	0.0146891
641.551	0.0147799
641.629	0.0147110
641.707	0.0148125
641.785	0.0148237
641.863	0.0146529
641.942	0.0147849
642.020	0.0148860
642.098	0.0149294
642.176	0.0148335
642.254	0.0147514
642.332	0.0147955
642.410	0.0148576
642.488	0.0149583
642.567	0.0148019
642.645	0.0147486
642.723	0.0149171
642.801	0.0148366
642.879	0.0147387
642.957	0.0147137
643.035	0.0146877
643.113	0.0145818
643.192	0.0147076
643.270	0.0146462
643.348	0.0144975
643.426	0.0147015
643.504	0.0148518
643.582	0.0146712
643.660	0.0146271
643.738	0.0146616
643.817	0.0145377
643.895	0.0145810
643.973	0.0145629
644.051	0.0145271
644.129	0.0144237
644.207	0.0145206
644.285	0.0145182
644.363	0.0145850
644.442	0.0147161
644.520	0.0146484
644.598	0.0145262
644.676	0.0144411
644.754	0.0148132
644.832	0.0147392
644.910	0.0147417
644.988	0.0148184
645.067	0.0147342
645.145	0.0149268
645.223	0.0150391
645.301	0.0150378
645.379	0.0151366
645.457	0.0150174
645.535	0.0151109
645.613	0.0152215
645.692	0.0151332
645.770	0.0152218
645.848	0.0149937
645.926	0.0150985
646.004	0.0150169
646.082	0.0148953
646.160	0.0150270
646.238	0.0147707
646.317	0.0147448
646.395	0.0147393
646.473	0.0148781
646.551	0.0146798
646.629	0.0146510
646.707	0.0146558
646.785	0.0147580
646.863	0.0146258
646.942	0.0147334
647.020	0.0147461
647.098	0.0148150
647.176	0.0147094
647.254	0.0146440
647.332	0.0145399
647.410	0.0146645
647.488	0.0143585
647.567	0.0145332
647.645	0.0144554
647.723	0.0143707
647.801	0.0142232
647.879	0.0142431
647.957	0.0141078
648.035	0.0140927
648.113	0.0141782
648.192	0.0141565
648.270	0.0142570
648.348	0.0141734
648.426	0.0141707
648.504	0.0143247
648.582	0.0144595
648.660	0.0143972
648.738	0.0144935
648.817	0.0144518
648.895	0.0146716
648.973	0.0146518
649.051	0.0146841
649.129	0.0148499
649.207	0.0148110
649.285	0.0147427
649.363	0.0148048
649.442	0.0149024
649.520	0.0148204
649.598	0.0148988
649.676	0.0149174
649.754	0.0147785
649.832	0.0149377
649.910	0.0149600
649.988	0.0149632
650.067	0.0149163
650.145	0.0149238
650.223	0.0149973
650.301	0.0149303
650.379	0.0149221
650.457	0.0149950
650.535	0.0148085
650.613	0.0151040
650.692	0.0149831
650.770	0.0149557
650.848	0.0149873
650.926	0.0150714
651.004	0.0149912
651.082	0.0147471
651.160	0.0148894
651.238	0.0148236
651.317	0.0149440
651.395	0.0147471
651.473	0.0147474
651.551	0.0147110
651.629	0.0147038
651.707	0.0147122
651.785	0.0146902
651.863	0.0146671
651.942	0.0146964
652.020	0.0146228
652.098	0.0146500
652.176	0.0146275
652.254	0.0146187
652.332	0.0146206
652.410	0.0144195
652.488	0.0143671
652.567	0.0144102
652.645	0.0142351
652.723	0.0144072
652.801	0.0144107
652.879	0.0143635
652.957	0.0143623
653.035	0.0142764
653.113	0.0143243
653.192	0.0142519
653.270	0.0143737
653.348	0.0142934
653.426	0.0142989
653.504	0.0143166
653.582	0.0145110
653.660	0.0142178
653.738	0.0142293
653.817	0.0142843
653.895	0.0142908
653.973	0.0142499
654.051	0.0142506
654.129	0.0143302
654.207	0.0144614
654.285	0.0144765
654.363	0.0145500
654.442	0.0144813
654.520	0.0146433
654.598	0.0147952
654.676	0.0146676
654.754	0.0147910
654.832	0.0147868
654.910	0.0148956
654.988	0.0150488
655.067	0.0150674
655.145	0.0150983
655.223	0.0150939
655.301	0.0151620
655.379	0.0152132
655.457	0.0151537
655.535	0.0151150
655.613	0.0151144
655.692	0.0150997
655.770	0.0150993
655.848	0.0150473
655.926	0.0148767
656.004	0.0150575
656.082	0.0149684
656.160	0.0147281
656.238	0.0147734
656.317	0.0147816
656.395	0.0147012
656.473	0.0147301
656.551	0.0146750
656.629	0.0145094
656.707	0.0143814
656.785	0.0144569
656.863	0.0144971
656.942	0.0143643
657.020	0.0144154
657.098	0.0144773
657.176	0.0143880
657.254	0.0144073
657.332	0.0143015
657.410	0.0142714
657.488	0.0142564
657.567	0.0143604
657.645	0.0142953
657.723	0.0142255
657.801	0.0142589
657.879	0.0141950
657.957	0.0142234
658.035	0.0141388
658.113	0.0140654
658.192	0.0140170
658.270	0.0141965
658.348	0.0141897
658.426	0.0140290
658.504	0.0141020
658.582	0.0142564
658.660	0.0143240
658.738	0.0142583
658.817	0.0143917
658.895	0.0143867
658.973	0.0145248
659.051	0.0144958
659.129	0.0146335
659.207	0.0146299
659.285	0.0147791
659.363	0.0149298
659.442	0.0147874
659.520	0.0148338
659.598	0.0147763
659.676	0.0149526
659.754	0.0149865
659.832	0.0150450
659.910	0.0149950
659.988	0.0150954
660.067	0.0151570
660.145	0.0150560
660.223	0.0150993
660.301	0.0150223
660.379	0.0150374
660.457	0.0152155
660.535	0.0152392
660.613	0.0151273
660.692	0.0151953
660.770	0.0152298
660.848	0.0151391
660.926	0.0150334
661.004	0.0150146
661.082	0.0149630
661.160	0.0149735
661.238	0.0149296
661.317	0.0148262
661.395	0.0149001
661.473	0.0146781
661.551	0.0144305
661.629	0.0144524
661.707	0.0144735
661.785	0.0144976
661.863	0.0143649
661.942	0.0142887
662.020	0.0143784
662.098	0.0144424
662.176	0.0142195
662.254	0.0143008
662.332	0.0142998
662.410	0.0143484
662.488	0.0143761
662.567	0.0143935
662.645	0.0144258
662.723	0.0147054
662.801	0.0146507
662.879	0.0145143
662.957	0.0145680
663.035	0.0145741
663.113	0.0146719
663.192	0.0146397
663.270	0.0146241
663.348	0.0146413
663.426	0.0145830
663.504	0.0145433
663.582	0.0145168
663.660	0.0143289
663.738	0.0143968
663.817	0.0143621
663.895	0.0143301
663.973	0.0144232
664.051	0.0145632
664.129	0.0144097
664.207	0.0144318
664.285	0.0144941
664.363	0.0143940
664.442	0.0145319
664.520	0.0145631
664.598	0.0146256
664.676	0.0146132
664.754	0.0147131
664.832	0.0148174
664.910	0.0148544
664.988	0.0148644
665.067	0.0149194
665.145	0.0149106
665.223	0.0150208
665.301	0.0151645
665.379	0.0149463
665.457	0.0150761
665.535	0.0151080
665.613	0.0151517
665.692	0.0150307
665.770	0.0150242
665.848	0.0150570
665.926	0.0150961
666.004	0.0151355
666.082	0.0150560
666.160	0.0150001
666.238	0.0149072
666.317	0.0149392
666.395	0.0150640
666.473	0.0148186
666.551	0.0147095
666.629	0.0148232
666.707	0.0147492
666.785	0.0145393
666.863	0.0144607
666.942	0.0145461
667.020	0.0145544
667.098	0.0145655
667.176	0.0143716
667.254	0.0144100
667.332	0.0144708
667.410	0.0146188
667.488	0.0143327
667.567	0.0145217
667.645	0.0144775
667.723	0.0145895
667.801	0.0145718
667.879	0.0146290
667.957	0.0145560
668.035	0.0147359
668.113	0.0147383
668.192	0.0147531
668.270	0.0147056
668.348	0.0147104
668.426	0.0146022
668.504	0.0146771
668.582	0.0146175
668.660	0.0146068
668.738	0.0146085
668.817	0.0145986
668.895	0.0145749
668.973	0.0144282
669.051	0.0145969
669.129	0.0145840
669.207	0.0146605
669.285	0.0145815
669.363	0.0145364
669.442	0.0146774
669.520	0.0146603
669.598	0.0146328
669.676	0.0145921
669.754	0.0147861
669.832	0.0147610
669.910	0.0146739
669.988	0.0147026
670.067	0.0147289
670.145	0.0147513
670.223	0.0146390
670.301	0.0144046
670.379	0.0145879
670.457	0.0146456
670.535	0.0145254
670.613	0.0144334
670.692	0.0143985
670.770	0.0144185
670.848	0.0143963
670.926	0.0143887
671.004	0.0143556
671.082	0.0143568
671.160	0.0144587
671.238	0.0144416
671.317	0.0144907
671.395	0.0145676
671.473	0.0143591
671.551	0.0144297
671.629	0.0146003
671.707	0.0147081
671.785	0.0148219
671.863	0.0147391
671.942	0.0148769
672.020	0.0150943
672.098	0.0150694
672.176	0.0150641
672.254	0.0150778
672.332	0.0149972
672.410	0.0150742
672.488	0.0150515
672.567	0.0149557
672.645	0.0149557
672.723	0.0147929
672.801	0.0147823
672.879	0.0146983
672.957	0.0146573
673.035	0.0146230
673.113	0.0146516
673.192	0.0143885
673.270	0.0144270
673.348	0.0142839
673.426	0.0144022
673.504	0.0145132
673.582	0.0142484
673.660	0.0144117
673.738	0.0145985
673.817	0.0147807
673.895	0.0146895
673.973	0.0148449
674.051	0.0150134
674.129	0.0149976
674.207	0.0150764
674.285	0.0151106
674.363	0.0151849
674.442	0.0151606
674.520	0.0151261
674.598	0.0151669
674.676	0.0151677
674.754	0.0152559
674.832	0.0150129
674.910	0.0147684
674.988	0.0148811
675.067	0.0147356
675.145	0.0144418
675.223	0.0143618
675.301	0.0143372
675.379	0.0142049
675.457	0.0140829
675.535	0.0141434
675.613	0.0139092
675.692	0.0139596
675.770	0.0140002
675.848	0.0140791
675.926	0.0141724
676.004	0.0141093
676.082	0.0141018
676.160	0.0142036
676.238	0.0142354
676.317	0.0142905
676.395	0.0141582
676.473	0.0143190
676.551	0.0143715
676.629	0.0145095
676.707	0.0143723
676.785	0.0144730
676.863	0.0145322
676.942	0.0145266
677.020	0.0147285
677.098	0.0148662
677.176	0.0148524
677.254	0.0148988
677.332	0.0148077
677.410	0.0148984
677.488	0.0148747
677.567	0.0148881
677.645	0.0148411
677.723	0.0149503
677.801	0.0149944
677.879	0.0148368
677.957	0.0147861
678.035	0.0148412
678.113	0.0148099
678.192	0.0149483
678.270	0.0149689
678.348	0.0150252
678.426	0.0150047
678.504	0.0151429
678.582	0.0150774
678.660	0.0149343
678.738	0.0150408
678.817	0.0151524
678.895	0.0149840
678.973	0.0151714
679.051	0.0150201
679.129	0.0149986
679.207	0.0147844
679.285	0.0150624
679.363	0.0149421
679.442	0.0149186
679.520	0.0148613
679.598	0.0145779
679.676	0.0146439
679.754	0.0146394
679.832	0.0143929
679.910	0.0142678
679.988	0.0139988
680.067	0.0140251
680.145	0.0139736
680.223	0.0139731
680.301	0.0139735
680.379	0.0139189
680.457	0.0136683
680.535	0.0137287
680.613	0.0137463
680.692	0.0138377
680.770	0.0138503
680.848	0.0139255
680.926	0.0141639
681.004	0.0142467
681.082	0.0144421
681.160	0.0144316
681.238	0.0144986
681.317	0.0146622
681.395	0.0147956
681.473	0.0149155
681.551	0.0149770
681.629	0.0151185
681.707	0.0151209
681.785	0.0152975
681.863	0.0153396
681.942	0.0153764
682.020	0.0152740
682.098	0.0152419
682.176	0.0153370
682.254	0.0153893
682.332	0.0152615
682.410	0.0152715
682.488	0.0151587
682.567	0.0152795
682.645	0.0152407
682.723	0.0151434
682.801	0.0151951
682.879	0.0151199
682.957	0.0151721
683.035	0.0150250
683.113	0.0150050
683.192	0.0150070
683.270	0.0150203
683.348	0.0147958
683.426	0.0147009
683.504	0.0145763
683.582	0.0145998
683.660	0.0144977
683.738	0.0142653
683.817	0.0140877
683.895	0.0141616
683.973	0.0141419
684.051	0.0139417
684.129	0.0138190
684.207	0.0138370
684.285	0.0138675
684.363	0.0138927
684.442	0.0137887
684.520	0.0138289
684.598	0.0140624
684.676	0.0139998
684.754	0.0141471
684.832	0.0139714
684.910	0.0139783
684.988	0.0141814
685.067	0.0142758
685.145	0.0142021
685.223	0.0142879
685.301	0.0143658
685.379	0.0143623
685.457	0.0144963
685.535	0.0145491
685.613	0.0148144
685.692	0.0147335
685.770	0.0149154
685.848	0.0151453
685.926	0.0152987
686.004	0.0154162
686.082	0.0155633
686.160	0.0156683
686.238	0.0157672
686.317	0.0157639
686.395	0.0158631
686.473	0.0159875
686.551	0.0159672
686.629	0.0158250
686.707	0.0157654
686.785	0.0155732
686.863	0.0152696
686.942	0.0152624
687.020	0.0150934
687.098	0.0149235
687.176	0.0146960
687.254	0.0143887
687.332	0.0142412
687.410	0.0142262
687.488	0.0140353
687.567	0.0140217
687.645	0.0139317
687.723	0.0138380
687.801	0.0136641
687.879	0.0137120
687.957	0.0136803
688.035	0.0137395
688.113	0.0137498
688.192	0.0136871
688.270	0.0137920
688.348	0.0137876
688.426	0.0139683
688.504	0.0140232
688.582	0.0141148
688.660	0.0140659
688.738	0.0142201
688.817	0.0143221
688.895	0.0142939
688.973	0.0143765
689.051	0.0142831
689.129	0.0145856
689.207	0.0143985
689.285	0.0145870
689.363	0.0147231
689.442	0.0148388
689.520	0.0147713
689.598	0.0148969
689.676	0.0149872
689.754	0.0149662
689.832	0.0150990
689.910	0.0151951
689.988	0.0151693
690.067	0.0152562
690.145	0.0151995
690.223	0.0152003
690.301	0.0152905
690.379	0.0151666
690.457	0.0151510
690.535	0.0151694
690.613	0.0150844
690.692	0.0150300
690.770	0.0150900
690.848	0.0149978
690.926	0.0148361
691.004	0.0148188
691.082	0.0148283
691.160	0.0145994
691.238	0.0146072
691.317	0.0144891
691.395	0.0143533
691.473	0.0144920
691.551	0.0143978
691.629	0.0142994
691.707	0.0142465
691.785	0.0142775
691.863	0.0142239
691.942	0.0142018
692.020	0.0142570
692.098	0.0142497
692.176	0.0142426
692.254	0.0144017
692.332	0.0143800
692.410	0.0143394
692.488	0.0144160
692.567	0.0144554
692.645	0.0145764
692.723	0.0144205
692.801	0.0142713
692.879	0.0143397
692.957	0.0142141
693.035	0.0141117
693.113	0.0144226
693.192	0.0142365
693.270	0.0142836
693.348	0.0143158
693.426	0.0142702
693.504	0.0142989
693.582	0.0143338
693.660	0.0142763
693.738	0.0142676
693.817	0.0142648
693.895	0.0143449
693.973	0.0143450
694.051	0.0143184
694.129	0.0144172
694.207	0.0145123
694.285	0.0144865
694.363	0.0144402
694.442	0.0146001
694.520	0.0146724
694.598	0.0146035
694.676	0.0147796
694.754	0.0148628
694.832	0.0148286
694.910	0.0148238
694.988	0.0148439
695.067	0.0147980
695.145	0.0149096
695.223	0.0150574
695.301	0.0150616
695.379	0.0152177
695.457	0.0152750
695.535	0.0152711
695.613	0.0152052
695.692	0.0152374
695.770	0.0152798
695.848	0.0152534
695.926	0.0154508
696.004	0.0154757
696.082	0.0153111
696.160	0.0152225
696.238	0.0152612
696.317	0.0152312
696.395	0.0151455
696.473	0.0151528
696.551	0.0149651
696.629	0.0149200
696.707	0.0149034
696.785	0.0148278
696.863	0.0145689
696.942	0.0144900
697.020	0.0144611
697.098	0.0142977
697.176	0.0141548
697.254	0.0140607
697.332	0.0140696
697.410	0.0139681
697.488	0.0139343
697.567	0.0136796
697.645	0.0136230
697.723	0.0135043
697.801	0.0135749
697.879	0.0135085
697.957	0.0135325
698.035	0.0135452
698.113	0.0135011
698.192	0.0136225
698.270	0.0136405
698.348	0.0137685
698.426	0.0137550
698.504	0.0138561
698.582	0.0140123
698.660	0.0140325
698.738	0.0140381
698.817	0.0142852
698.895	0.0141833
698.973	0.0144828
699.051	0.0146336
699.129	0.0146557
699.207	0.0148435
699.285	0.0149209
699.363	0.0150132
699.442	0.0153622
699.520	0.0154966
699.598	0.0156066
699.676	0.0155834
699.754	0.0157687
699.832	0.0158479
699.910	0.0160205
699.988	0.0161199
700.067	0.0160243
700.145	0.0159155
700.223	0.0161470
700.301	0.0161073
700.379	0.0160457
700.457	0.0160162
700.535	0.0159365
700.613	0.0158663
700.692	0.0156113
700.770	0.0155006
700.848	0.0154938
700.926	0.0153140
701.004	0.0150762
701.082	0.0148891
701.160	0.0146760
701.238	0.0144927
701.317	0.0142485
701.395	0.0140679
701.473	0.0140791
701.551	0.0139040
701.629	0.0138261
701.707	0.0135834
701.785	0.0137297
701.863	0.0135954
701.942	0.0136552
702.020	0.0135305
702.098	0.0135912
702.176	0.0136845
702.254	0.0137187
702.332	0.0137196
702.410	0.0137763
702.488	0.0136575
702.567	0.0137554
702.645	0.0140105
702.723	0.0138674
702.801	0.0140368
702.879	0.0140410
702.957	0.0139790
703.035	0.0140656
703.113	0.0143182
703.192	0.0142849
703.270	0.0144009
703.348	0.0145506
703.426	0.0146255
703.504	0.0148289
703.582	0.0150294
703.660	0.0150673
703.738	0.0151840
703.817	0.0152979
703.895	0.0155823
703.973	0.0156133
704.051	0.0155507
704.129	0.0156854
704.207	0.0158009
704.285	0.0158321
704.363	0.0156950
704.442	0.0156935
704.520	0.0156918
704.598	0.0156639
704.676	0.0157376
704.754	0.0156760
704.832	0.0156800
704.910	0.0155787
704.988	0.0155751
705.067	0.0155455
705.145	0.0152932
705.223	0.0152480
705.301	0.0153450
705.379	0.0150903
705.457	0.0149970
705.535	0.0149580
705.613	0.0147436
705.692	0.0147012
705.770	0.0146232
705.848	0.0144083
705.926	0.0143152
706.004	0.0142590
706.082	0.0141085
706.160	0.0140476
706.238	0.0139854
706.317	0.0138950
706.395	0.0139270
706.473	0.0139601
706.551	0.0139569
706.629	0.0138270
706.707	0.0140105
706.785	0.0139963
706.863	0.0140702
706.942	0.0141930
707.020	0.0143161
707.098	0.0142868
707.176	0.0144004
707.254	0.0143674
707.332	0.0145522
707.410	0.0146734
707.488	0.0146242
707.567	0.0146339
707.645	0.0146080
707.723	0.0145897
707.801	0.0146423
707.879	0.0145975
707.957	0.0146533
708.035	0.0144401
708.113	0.0146246
708.192	0.0144814
708.270	0.0144285
708.348	0.0145155
708.426	0.0143707
708.504	0.0145759
708.582	0.0144847
708.660	0.0144897
708.738	0.0145959
708.817	0.0148196
708.895	0.0146609
708.973	0.0147932
709.051	0.0150161
709.129	0.0149734
709.207	0.0150533
709.285	0.0150877
709.363	0.0151643
709.442	0.0150195
709.520	0.0149622
709.598	0.0149872
709.676	0.0149655
709.754	0.0149516
709.832	0.0149854
709.910	0.0147984
709.988	0.0147891
710.067	0.0147050
710.145	0.0146941
710.223	0.0147668
710.301	0.0147604
710.379	0.0146059
710.457	0.0146761
710.535	0.0146619
710.613	0.0146731
710.692	0.0145518
710.770	0.0145524
710.848	0.0146641
710.926	0.0146857
711.004	0.0145676
711.082	0.0144604
711.160	0.0145413
711.238	0.0144087
711.317	0.0144048
711.395	0.0143877
711.473	0.0144930
711.551	0.0143237
711.629	0.0143297
711.707	0.0142931
711.785	0.0142519
711.863	0.0142270
711.942	0.0142646
712.020	0.0141460
712.098	0.0143168
712.176	0.0141315
712.254	0.0142374
712.332	0.0142321
712.410	0.0141132
712.488	0.0140290
712.567	0.0141904
712.645	0.0141775
712.723	0.0142872
712.801	0.0141608
712.879	0.0141240
712.957	0.0143037
713.035	0.0142579
713.113	0.0142294
713.192	0.0142338
713.270	0.0142148
713.348	0.0142262
713.426	0.0142628
713.504	0.0143615
713.582	0.0143675
713.660	0.0142924
713.738	0.0145464
713.817	0.0145986
713.895	0.0145914
713.973	0.0145190
714.051	0.0146280
714.129	0.0146921
714.207	0.0148660
714.285	0.0150494
714.363	0.0147838
714.442	0.0149611
714.520	0.0150533
714.598	0.0150372
714.676	0.0150999
714.754	0.0149858
714.832	0.0150828
714.910	0.0149401
714.988	0.0149208
715.067	0.0150559
715.145	0.0149847
715.223	0.0148781
715.301	0.0149780
715.379	0.0147701
715.457	0.0148202
715.535	0.0148714
715.613	0.0147036
715.692	0.0147166
715.770	0.0147110
715.848	0.0147242
715.926	0.0146149
716.004	0.0144331
716.082	0.0146145
716.160	0.0146284
716.238	0.0144965
716.317	0.0144975
716.395	0.0146294
716.473	0.0146434
716.551	0.0145028
716.629	0.0146564
716.707	0.0146867
716.785	0.0143963
716.863	0.0145037
716.942	0.0146566
717.020	0.0144959
717.098	0.0144711
717.176	0.0143248
717.254	0.0144245
717.332	0.0143944
717.410	0.0144292
717.488	0.0141801
717.567	0.0141831
717.645	0.0142550
717.723	0.0143337
717.801	0.0143897
717.879	0.0143124
717.957	0.0143847
718.035	0.0144434
718.113	0.0146104
718.192	0.0146505
718.270	0.0146049
718.348	0.0147831
718.426	0.0148158
718.504	0.0148358
718.582	0.0147744
718.660	0.0149149
718.738	0.0147741
718.817	0.0147655
718.895	0.0147250
718.973	0.0145901
719.051	0.0147041
719.129	0.0146933
719.207	0.0147596
719.285	0.0144775
719.363	0.0144602
719.442	0.0144252
719.520	0.0145869
719.598	0.0144923
719.676	0.0144518
719.754	0.0143106
719.832	0.0144840
719.910	0.0145222
719.988	0.0145339
720.067	0.0145645
720.145	0.0145297
720.223	0.0145534
720.301	0.0147428
720.379	0.0147134
720.457	0.0146635
720.535	0.0146104
720.613	0.0148491
720.692	0.0148754
720.770	0.0148514
720.848	0.0148449
720.926	0.0148427
721.004	0.0149341
721.082	0.0149969
721.160	0.0149479
721.238	0.0148372
721.317	0.0148785
721.395	0.0148550
721.473	0.0149063
721.551	0.0149191
721.629	0.0148486
721.707	0.0149486
721.785	0.0149407
721.863	0.0147475
721.942	0.0147176
722.020	0.0147270
722.098	0.0147078
722.176	0.0147607
722.254	0.0145812
722.332	0.0146220
722.410	0.0146894
722.488	0.0146872
722.567	0.0146418
722.645	0.0147367
722.723	0.0146294
722.801	0.0145517
722.879	0.0147222
722.957	0.0147125
723.035	0.0147173
723.113	0.0146725
723.192	0.0147740
723.270	0.0147927
723.348	0.0148362
723.426	0.0147610
723.504	0.0147381
723.582	0.0146674
723.660	0.0148105
723.738	0.0146660
723.817	0.0146230
723.895	0.0147284
723.973	0.0146243
724.051	0.0145005
724.129	0.0146587
724.207	0.0145707
724.285	0.0144920
724.363	0.0147004
724.442	0.0145971
724.520	0.0145420
724.598	0.0145512
724.676	0.0144712
724.754	0.0146362
724.832	0.0146162
724.910	0.0146475
724.988	0.0146029
725.067	0.0146214
725.145	0.0146779
725.223	0.0144947
725.301	0.0147289
725.379	0.0147070
725.457	0.0147683
725.535	0.0148103
725.613	0.0148273
725.692	0.0149298
725.770	0.0146274
725.848	0.0148246
725.926	0.0149186
726.004	0.0147415
726.082	0.0148946
726.160	0.0148252
726.238	0.0149678
726.317	0.0149593
726.395	0.0147767
726.473	0.0148464
726.551	0.0149117
726.629	0.0148727
726.707	0.0148566
726.785	0.0148280
726.863	0.0148415
726.942	0.0147046
727.020	0.0148492
727.098	0.0148852
727.176	0.0148642
727.254	0.0147047
727.332	0.0146682
727.410	0.0147717
727.488	0.0148513
727.567	0.0147010
727.645	0.0147003
727.723	0.0145114
727.801	0.0146099
727.879	0.0145708
727.957	0.0144807
728.035	0.0146230
728.113	0.0145650
728.192	0.0144483
728.270	0.0146089
728.348	0.0145913
728.426	0.0145658
728.504	0.0145325
728.582	0.0145731
728.660	0.0146065
728.738	0.0146622
728.817	0.0146516
728.895	0.0147015
728.973	0.0146838
729.051	0.0147290
729.129	0.0146731
729.207	0.0145536
729.285	0.0145455
729.363	0.0147243
729.442	0.0147989
729.520	0.0147672
729.598	0.0146286
729.676	0.0145837
729.754	0.0144968
729.832	0.0144909
729.910	0.0144853
729.988	0.0145408
730.067	0.0146696
730.145	0.0146594
730.223	0.0146094
730.301	0.0145268
730.379	0.0146750
730.457	0.0145209
730.535	0.0146989
730.613	0.0147113
730.692	0.0148465
730.770	0.0148117
730.848	0.0148730
730.926	0.0148296
731.004	0.0148695
731.082	0.0149333
731.160	0.0149081
731.238	0.0149027
731.317	0.0149287
731.395	0.0148158
731.473	0.0148238
731.551	0.0147887
731.629	0.0148344
731.707	0.0147253
731.785	0.0148076
731.863	0.0147263
731.942	0.0146298
732.020	0.0147139
732.098	0.0146927
732.176	0.0145055
732.254	0.0146696
732.332	0.0144662
732.410	0.0144375
732.488	0.0144239
732.567	0.0144865
732.645	0.0144350
732.723	0.0143935
732.801	0.0145090
732.879	0.0145066
732.957	0.0143497
733.035	0.0145506
733.113	0.0146027
733.192	0.0146707
733.270	0.0147073
733.348	0.0146971
733.426	0.0146227
733.504	0.0145953
733.582	0.0148096
733.660	0.0147327
733.738	0.0147517
733.817	0.0146635
733.895	0.0145975
733.973	0.0145760
734.051	0.0145900
734.129	0.0145128
734.207	0.0145127
734.285	0.0146340
734.363	0.0143899
734.442	0.0144121
734.520	0.0144804
734.598	0.0143252
734.676	0.0144720
734.754	0.0143304
734.832	0.0142795
734.910	0.0142630
734.988	0.0144352
735.067	0.0144248
735.145	0.0146971
735.223	0.0145872
735.301	0.0145256
735.379	0.0145000
735.457	0.0145337
735.535	0.0146277
735.613	0.0145750
735.692	0.0145859
735.770	0.0147832
735.848	0.0146955
735.926	0.0146424
736.004	0.0145976
736.082	0.0146719
736.160	0.0148144
736.238	0.0148739
736.317	0.0147890
736.395	0.0147044
736.473	0.0148466
736.551	0.0148258
736.629	0.0147118
736.707	0.0148584
736.785	0.0147891
736.863	0.0148043
736.942	0.0147533
737.020	0.0146754
737.098	0.0147935
737.176	0.0146632
737.254	0.0146773
737.332	0.0146289
737.410	0.0145452
737.488	0.0144983
737.567	0.0146973
737.645	0.0145164
737.723	0.0145345
737.801	0.0143872
737.879	0.0146758
737.957	0.0146182
738.035	0.0145792
738.113	0.0145153
738.192	0.0144592
738.270	0.0146693
738.348	0.0147170
738.426	0.0146196
738.504	0.0146676
738.582	0.0147011
738.660	0.0146366
738.738	0.0147247
738.817	0.0148170
738.895	0.0148839
738.973	0.0148225
739.051	0.0147965
739.129	0.0147852
739.207	0.0148553
739.285	0.0146942
739.363	0.0147803
739.442	0.0147337
739.520	0.0146968
739.598	0.0146388
739.676	0.0146554
739.754	0.0146816
739.832	0.0147438
739.910	0.0144706
739.988	0.0143547
740.067	0.0144929
740.145	0.0145850
740.223	0.0144237
740.301	0.0143815
740.379	0.0143891
740.457	0.0144433
740.535	0.0144171
740.613	0.0145232
740.692	0.0144559
740.770	0.0146119
740.848	0.0145664
740.926	0.0146649
741.004	0.0146561
741.082	0.0146529
741.160	0.0146079
741.238	0.0146616
741.317	0.0147202
741.395	0.0146770
741.473	0.0148846
741.551	0.0147440
741.629	0.0147131
741.707	0.0148193
741.785	0.0148141
741.863	0.0148436
741.942	0.0147879
742.020	0.0148354
742.098	0.0147752
742.176	0.0146339
742.254	0.0147623
742.332	0.0147009
742.410	0.0147593
742.488	0.0148509
742.567	0.0145495
742.645	0.0146254
742.723	0.0146049
742.801	0.0145670
742.879	0.0148564
742.957	0.0146709
743.035	0.0146382
743.113	0.0145911
743.192	0.0145291
743.270	0.0145708
743.348	0.0145956
743.426	0.0147324
743.504	0.0146304
743.582	0.0148200
743.660	0.0147462
743.738	0.0146342
743.817	0.0147408
743.895	0.0147529
743.973	0.0146030
744.051	0.0146003
744.129	0.0148011
744.207	0.0147513
744.285	0.0147312
744.363	0.0147150
744.442	0.0148059
744.520	0.0147710
744.598	0.0147201
744.676	0.0147673
744.754	0.0146563
744.832	0.0147298
744.910	0.0145072
744.988	0.0147023
745.067	0.0145839
745.145	0.0146098
745.223	0.0146857
745.301	0.0146913
745.379	0.0146132
745.457	0.0147191
745.535	0.0148663
745.613	0.0147810
745.692	0.0147896
745.770	0.0146562
745.848	0.0146861
745.926	0.0146541
746.004	0.0146362
746.082	0.0146916
746.160	0.0148512
746.238	0.0145192
746.317	0.0146555
746.395	0.0146603
746.473	0.0146631
746.551	0.0148148
746.629	0.0145226
746.707	0.0146348
746.785	0.0147318
746.863	0.0147033
746.942	0.0146265
747.020	0.0147356
747.098	0.0145840
747.176	0.0147236
747.254	0.0147446
747.332	0.0146392
747.410	0.0146946
747.488	0.0146968
747.567	0.0148087
747.645	0.0148491
747.723	0.0148537
747.801	0.0148328
747.879	0.0148180
747.957	0.0148474
748.035	0.0147640
748.113	0.0147806
748.192	0.0148797
748.270	0.0148804
748.348	0.0148857
748.426	0.0149857
748.504	0.0148217
748.582	0.0149061
748.660	0.0148972
748.738	0.0148241
748.817	0.0148025
748.895	0.0149069
748.973	0.0147624
749.051	0.0146971
749.129	0.0148081
749.207	0.0148245
749.285	0.0146184
749.363	0.0147594
749.442	0.0149077
749.520	0.0147993
749.598	0.0147543
749.676	0.0146442
749.754	0.0147167
749.832	0.0146196
749.910	0.0145715
749.988	0.0145479
750.067	0.0145809
750.145	0.0145356
750.223	0.0146541
750.301	0.0144690
750.379	0.0145118
750.457	0.0144784
750.535	0.0144517
750.613	0.0144320
750.692	0.0144885
750.770	0.0145835
750.848	0.0145621
750.926	0.0146577
751.004	0.0145969
751.082	0.0145989
751.160	0.0147245
751.238	0.0147404
751.317	0.0145337
751.395	0.0147332
751.473	0.0146887
751.551	0.0145297
751.629	0.0147451
751.707	0.0146569
751.785	0.0148125
751.863	0.0147838
751.942	0.0147430
752.020	0.0147195
752.098	0.0147368
752.176	0.0148782
752.254	0.0147793
752.332	0.0145346
752.410	0.0146562
752.488	0.0146308
752.567	0.0147363
752.645	0.0147694
752.723	0.0146339
752.801	0.0146186
752.879	0.0147247
752.957	0.0147557
753.035	0.0145295
753.113	0.0146458
753.192	0.0145937
753.270	0.0146365
753.348	0.0146033
753.426	0.0147421
753.504	0.0145978
753.582	0.0145811
753.660	0.0146864
753.738	0.0147092
753.817	0.0147417
753.895	0.0145613
753.973	0.0146584
754.051	0.0146477
754.129	0.0148273
754.207	0.0148414
754.285	0.0147596
754.363	0.0147662
754.442	0.0147093
754.520	0.0146085
754.598	0.0145982
754.676	0.0145993
754.754	0.0145608
754.832	0.0146478
754.910	0.0145248
754.988	0.0145005
755.067	0.0144823
755.145	0.0145184
755.223	0.0144048
755.301	0.0145213
755.379	0.0143832
755.457	0.0144503
755.535	0.0143803
755.613	0.0145067
755.692	0.0145168
755.770	0.0145751
755.848	0.0144337
755.926	0.0145929
756.004	0.0146287
756.082	0.0145298
756.160	0.0145902
756.238	0.0147269
756.317	0.0147063
756.395	0.0145697
756.473	0.0147560
756.551	0.0147134
756.629	0.0148310
756.707	0.0147651
756.785	0.0147716
756.863	0.0148014
756.942	0.0148701
757.020	0.0148621
757.098	0.0147697
757.176	0.0147827
757.254	0.0148461
757.332	0.0149062
757.410	0.0146657
757.488	0.0147343
757.567	0.0148650
757.645	0.0147940
757.723	0.0147266
757.801	0.0146751
757.879	0.0145738
757.957	0.0146508
758.035	0.0145355
758.113	0.0144981
758.192	0.0146044
758.270	0.0145608
758.348	0.0143256
758.426	0.0145038
758.504	0.0143912
758.582	0.0143067
758.660	0.0144592
758.738	0.0143786
758.817	0.0143852
758.895	0.0142542
758.973	0.0143920
759.051	0.0145184
759.129	0.0145142
759.207	0.0144633
759.285	0.0144468
759.363	0.0143669
759.442	0.0143955
759.520	0.0144259
759.598	0.0143944
759.676	0.0145116
759.754	0.0144856
759.832	0.0144945
759.910	0.0145760
759.988	0.0145089
760.067	0.0145728
760.145	0.0145343
760.223	0.0147637
760.301	0.0145520
760.379	0.0147464
760.457	0.0146678
760.535	0.0148124
760.613	0.0148214
760.692	0.0146762
760.770	0.0146522
760.848	0.0147370
760.926	0.0147293
761.004	0.0146195
761.082	0.0146446
761.160	0.0145625
761.238	0.0146245
761.317	0.0144979
761.395	0.0146445
761.473	0.0144757
761.551	0.0145870
761.629	0.0145036
761.707	0.0145101
761.785	0.0144384
761.863	0.0144350
761.942	0.0144692
762.020	0.0145536
762.098	0.0145963
762.176	0.0145406
762.254	0.0145408
762.332	0.0146289
762.410	0.0146388
762.488	0.0146439
762.567	0.0145499
762.645	0.0146049
762.723	0.0146287
762.801	0.0147488
762.879	0.0146128
762.957	0.0145488
763.035	0.0145939
763.113	0.0147060
763.192	0.0147829
763.270	0.0146727
763.348	0.0147147
763.426	0.0147894
763.504	0.0145678
763.582	0.0145769
763.660	0.0146558
763.738	0.0148132
763.817	0.0147996
763.895	0.0146288
763.973	0.0147327
764.051	0.0148159
764.129	0.0149097
764.207	0.0147983
764.285	0.0148303
764.363	0.0146455
764.442	0.0147886
764.520	0.0147218
764.598	0.0147051
764.676	0.0147383
764.754	0.0147802
764.832	0.0148284
764.910	0.0146041
764.988	0.0146845
765.067	0.0146436
765.145	0.0145778
765.223	0.0146888
765.301	0.0144955
765.379	0.0146156
765.457	0.0146648
765.535	0.0146949
765.613	0.0146532
765.692	0.0146467
765.770	0.0146181
765.848	0.0146193
765.926	0.0146629
766.004	0.0146938
766.082	0.0146439
766.160	0.0144854
766.238	0.0146917
766.317	0.0146951
766.395	0.0147179
766.473	0.0146461
766.551	0.0146716
766.629	0.0146418
766.707	0.0147080
766.785	0.0147437
766.863	0.0146860
766.942	0.0146596
767.020	0.0146647
767.098	0.0145866
767.176	0.0145493
767.254	0.0147314
767.332	0.0146454
767.410	0.0146014
767.488	0.0146912
767.567	0.0146953
767.645	0.0146899
767.723	0.0146684
767.801	0.0147073
767.879	0.0146764
767.957	0.0148193
768.035	0.0148351
768.113	0.0148708
768.192	0.0146866
768.270	0.0147597
768.348	0.0148093
768.426	0.0147878
768.504	0.0148991
768.582	0.0147657
768.660	0.0147359
768.738	0.0147803
768.817	0.0148041
768.895	0.0148401
768.973	0.0147456
769.051	0.0146797
769.129	0.0146553
769.207	0.0146046
769.285	0.0146332
769.363	0.0146743
769.442	0.0145744
769.520	0.0145217
769.598	0.0146474
769.676	0.0146893
769.754	0.0144353
769.832	0.0146201
769.910	0.0144965
769.988	0.0146030
770.067	0.0145496
770.145	0.0145743
770.223	0.0144692
770.301	0.0145264
770.379	0.0146610
770.457	0.0146641
770.535	0.0146433
770.613	0.0147113
770.692	0.0147464
770.770	0.0147302
770.848	0.0146691
770.926	0.0147268
771.004	0.0148482
771.082	0.0147383
771.160	0.0146419
771.238	0.0146553
771.317	0.0147417
771.395	0.0146645
771.473	0.0146219
771.551	0.0146777
771.629	0.0147047
771.707	0.0145537
771.785	0.0146680
771.863	0.0146609
771.942	0.0145798
772.020	0.0145995
772.098	0.0146223
772.176	0.0146409
772.254	0.0147375
772.332	0.0145536
772.410	0.0146918
772.488	0.0148164
772.567	0.0147179
772.645	0.0146808
772.723	0.0146528
772.801	0.0146510
772.879	0.0147207
772.957	0.0148141
773.035	0.0147655
773.113	0.0146463
773.192	0.0147050
773.270	0.0148742
773.348	0.0146636
773.426	0.0147896
773.504	0.0147756
773.582	0.0148255
773.660	0.0147938
773.738	0.0148550
773.817	0.0146994
773.895	0.0148276
773.973	0.0148752
774.051	0.0146862
774.129	0.0146870
774.207	0.0148002
774.285	0.0146442
774.363	0.0147517
774.442	0.0147311
774.520	0.0148939
774.598	0.0147860
774.676	0.0147080
774.754	0.0146437
774.832	0.0147266
774.910	0.0145795
774.988	0.0146313
775.067	0.0146115
775.145	0.0146183
775.223	0.0146691
775.301	0.0146340
775.379	0.0146215
775.457	0.0144576
775.535	0.0144152
775.613	0.0144984
775.692	0.0144566
775.770	0.0145778
775.848	0.0143917
775.926	0.0145715
776.004	0.0145554
776.082	0.0144196
776.160	0.0144894
776.238	0.0145067
776.317	0.0144611
776.395	0.0145452
776.473	0.0145683
776.551	0.0145986
776.629	0.0144724
776.707	0.0145482
776.785	0.0147258
776.863	0.0145519
776.942	0.0144854
777.020	0.0144916
777.098	0.0145065
777.176	0.0145423
777.254	0.0145670
777.332	0.0146606
777.410	0.0147534
777.488	0.0145593
777.567	0.0145299
777.645	0.0144880
777.723	0.0147140
777.801	0.0145921
777.879	0.0145241
777.957	0.0146159
778.035	0.0144695
778.113	0.0144746
778.192	0.0146261
778.270	0.0144794
778.348	0.0145953
778.426	0.0145633
778.504	0.0146127
778.582	0.0146045
778.660	0.0146902
778.738	0.0146685
778.817	0.0145580
778.895	0.0146120
778.973	0.0146812
779.051	0.0146289
779.129	0.0145726
779.207	0.0145702
779.285	0.0146132
779.363	0.0146032
779.442	0.0145364
779.520	0.0145081
779.598	0.0144424
779.676	0.0146057
779.754	0.0145651
779.832	0.0145100
779.910	0.0145580
779.988	0.0145181
780.067	0.0144991
780.145	0.0143482
780.223	0.0145778
780.301	0.0145206
780.379	0.0144689
780.457	0.0146111
780.535	0.0145403
780.613	0.0145866
780.692	0.0145610
780.770	0.0145569
780.848	0.0144633
780.926	0.0145960
781.004	0.0146246
781.082	0.0143752
781.160	0.0145171
781.238	0.0145223
781.317	0.0145647
781.395	0.0144745
781.473	0.0146305
781.551	0.0145079
781.629	0.0145514
781.707	0.0145684
781.785	0.0146158
781.863	0.0145672
781.942	0.0145647
782.020	0.0146810
782.098	0.0147987
782.176	0.0146114
782.254	0.0146798
782.332	0.0146206
782.410	0.0146910
782.488	0.0147521
782.567	0.0146448
782.645	0.0145449
782.723	0.0145628
782.801	0.0146220
782.879	0.0145432
782.957	0.0144890
783.035	0.0144382
783.113	0.0144678
783.192	0.0145099
783.270	0.0145643
783.348	0.0145341
783.426	0.0143676
783.504	0.0143974
783.582	0.0143722
783.660	0.0144747
783.738	0.0144828
783.817	0.0145280
783.895	0.0144617
783.973	0.0143819
784.051	0.0144946
784.129	0.0144453
784.207	0.0143928
784.285	0.0144528
784.363	0.0145001
784.442	0.0145294
784.520	0.0147311
784.598	0.0146523
784.676	0.0145318
784.754	0.0145163
784.832	0.0146431
784.910	0.0145802
784.988	0.0145094
785.067	0.0145351
785.145	0.0146451
785.223	0.0146275
785.301	0.0144872
785.379	0.0145295
785.457	0.0145379
785.535	0.0145113
785.613	0.0145946
785.692	0.0146190
785.770	0.0145316
785.848	0.0147025
785.926	0.0146319
786.004	0.0146758
786.082	0.0147346
786.160	0.0146388
786.238	0.0146672
786.317	0.0146189
786.395	0.0147180
786.473	0.0146728
786.551	0.0147375
786.629	0.0146533
786.707	0.0148930
786.785	0.0148151
786.863	0.0146431
786.942	0.0146957
787.020	0.0146908
787.098	0.0148683
787.176	0.0147626
787.254	0.0146432
787.332	0.0147437
787.410	0.0147627
787.488	0.0147625
787.567	0.0145676
787.645	0.0146989
787.723	0.0147038
787.801	0.0146382
787.879	0.0145520
787.957	0.0146332
788.035	0.0146751
788.113	0.0144050
788.192	0.0145512
788.270	0.0145840
788.348	0.0144891
788.426	0.0145372
788.504	0.0143558
788.582	0.0145288
788.660	0.0144771
788.738	0.0144296
788.817	0.0144520
788.895	0.0144964
788.973	0.0145577
789.051	0.0145007
789.129	0.0145341
789.207	0.0146194
789.285	0.0145667
789.363	0.0146025
789.442	0.0145480
789.520	0.0145903
789.598	0.0147375
789.676	0.0146455
789.754	0.0145805
789.832	0.0145481
789.910	0.0146503
789.988	0.0145908
790.067	0.0144618
790.145	0.0144776
790.223	0.0144940
790.301	0.0145092
790.379	0.0144956
790.457	0.0146029
790.535	0.0145557
790.613	0.0144421
790.692	0.0144691
790.770	0.0144536
790.848	0.0146187
790.926	0.0144510
791.004	0.0144341
791.082	0.0145457
791.160	0.0146275
791.238	0.0145548
791.317	0.0145411
791.395	0.0145822
791.473	0.0145771
791.551	0.0147221
791.629	0.0146475
791.707	0.0146558
791.785	0.0147993
791.863	0.0145727
791.942	0.0144868
792.020	0.0146858
792.098	0.0146951
792.176	0.0147410
792.254	0.0147861
792.332	0.0147623
792.410	0.0147941
792.488	0.0146823
792.567	0.0148698
792.645	0.0149376
792.723	0.0148359
792.801	0.0148170
792.879	0.0148862
792.957	0.0148737
793.035	0.0147883
793.113	0.0148637
793.192	0.0148072
793.270	0.0148585
793.348	0.0148425
793.426	0.0147752
793.504	0.0147441
793.582	0.0146438
793.660	0.0149229
793.738	0.0147777
793.817	0.0146051
793.895	0.0146185
793.973	0.0147148
794.051	0.0146617
794.129	0.0145488
794.207	0.0145424
794.285	0.0145796
794.363	0.0146917
794.442	0.0146336
794.520	0.0145724
794.598	0.0145964
794.676	0.0145099
794.754	0.0145432
794.832	0.0145366
794.910	0.0146671
794.988	0.0146441
795.067	0.0146183
795.145	0.0146601
795.223	0.0146297
795.301	0.0145000
795.379	0.0145419
795.457	0.0145624
795.535	0.0146148
795.613	0.0146383
795.692	0.0144987
795.770	0.0145821
795.848	0.0145355
795.926	0.0146738
796.004	0.0146463
796.082	0.0145760
796.160	0.0146925
796.238	0.0146698
796.317	0.0147643
796.395	0.0146809
796.473	0.0146708
796.551	0.0147267
796.629	0.0146342
796.707	0.0147820
796.785	0.0146382
796.863	0.0146863
796.942	0.0148038
797.020	0.0148634
797.098	0.0148273
797.176	0.0148655
797.254	0.0147940
797.332	0.0148057
797.410	0.0147835
797.488	0.0148138
797.567	0.0149718
797.645	0.0147910
797.723	0.0146593
797.801	0.0146718
797.879	0.0148351
797.957	0.0146930
798.035	0.0147372
798.113	0.0147196
798.192	0.0145294
798.270	0.0145844
798.348	0.0145078
798.426	0.0145476
798.504	0.0145808
798.582	0.0146087
798.660	0.0146152
798.738	0.0145782
798.817	0.0146247
798.895	0.0144456
798.973	0.0144201
799.051	0.0144196
799.129	0.0145953
799.207	0.0144570
799.285	0.0143836
799.363	0.0144944
799.442	0.0144476
799.520	0.0144946
799.598	0.0144916
799.676	0.0146298
799.754	0.0146549
799.832	0.0146877
799.910	0.0145561
799.988	0.0146416
800.067	0.0146799
800.145	0.0146739
800.223	0.0147552
800.301	0.0148113
800.379	0.0147005
800.457	0.0148003
800.535	0.0148662
800.613	0.0148483
800.692	0.0148460
800.770	0.0147425
800.848	0.0147611
800.926	0.0150356
801.004	0.0149289
801.082	0.0149400
801.160	0.0148056
801.238	0.0148940
801.317	0.0147189
801.395	0.0149553
801.473	0.0149629
801.551	0.0147796
801.629	0.0148276
801.707	0.0148392
801.785	0.0148225
801.863	0.0149702
801.942	0.0147282
802.020	0.0147356
802.098	0.0148214
802.176	0.0147752
802.254	0.0144781
802.332	0.0146232
802.410	0.0146865
802.488	0.0147181
802.567	0.0146673
802.645	0.0146685
802.723	0.0145204
802.801	0.0144756
802.879	0.0145639
802.957	0.0144872
803.035	0.0146832
803.113	0.0144406
803.192	0.0145087
803.270	0.0146420
803.348	0.0145463
803.426	0.0145812
803.504	0.0146444
803.582	0.0146320
803.660	0.0146769
803.738	0.0145312
803.817	0.0146269
803.895	0.0147228
803.973	0.0146793
804.051	0.0145937
804.129	0.0146173
804.207	0.0146899
804.285	0.0146353
804.363	0.0145950
804.442	0.0146651
804.520	0.0146972
804.598	0.0146716
804.676	0.0145872
804.754	0.0146494
804.832	0.0146298
804.910	0.0148048
804.988	0.0148717
805.067	0.0146399
805.145	0.0147018
805.223	0.0147215
805.301	0.0147747
805.379	0.0148441
805.457	0.0147800
805.535	0.0148112
805.613	0.0147446
805.692	0.0147413
805.770	0.0148383
805.848	0.0147793
805.926	0.0147354
806.004	0.0148402
806.082	0.0148382
806.160	0.0146912
806.238	0.0146301
806.317	0.0146560
806.395	0.0146722
806.473	0.0147281
806.551	0.0145806
806.629	0.0146461
806.707	0.0145638
806.785	0.0145901
806.863	0.0146964
806.942	0.0146625
807.020	0.0145653
807.098	0.0145473
807.176	0.0145405
807.254	0.0144752
807.332	0.0145711
807.410	0.0146579
807.488	0.0145628
807.567	0.0146772
807.645	0.0144793
807.723	0.0146429
807.801	0.0146970
807.879	0.0146207
807.957	0.0147242
808.035	0.0146266
808.113	0.0145713
808.192	0.0145161
808.270	0.0146706
808.348	0.0148303
808.426	0.0146896
808.504	0.0148155
808.582	0.0147092
808.660	0.0146728
808.738	0.0146747
808.817	0.0146513
808.895	0.0147173
808.973	0.0146805
809.051	0.0146735
809.129	0.0146061
809.207	0.0147047
809.285	0.0146151
809.363	0.0145424
809.442	0.0145770
809.520	0.0146187
809.598	0.0145446
809.676	0.0146667
809.754	0.0146011
809.832	0.0146019
809.910	0.0145206
809.988	0.0144157
810.067	0.0144942
810.145	0.0145862
810.223	0.0145818
810.301	0.0144990
810.379	0.0145477
810.457	0.0146255
810.535	0.0145365
810.613	0.0146456
810.692	0.0145216
810.770	0.0145955
810.848	0.0145825
810.926	0.0145911
811.004	0.0145359
811.082	0.0145101
811.160	0.0144933
811.238	0.0145959
811.317	0.0147285
811.395	0.0145578
811.473	0.0146901
811.551	0.0146134
811.629	0.0144980
811.707	0.0147997
811.785	0.0145132
811.863	0.0144809
811.942	0.0145498
812.020	0.0143702
812.098	0.0144805
812.176	0.0146609
812.254	0.0144654
812.332	0.0143078
812.410	0.0144482
812.488	0.0145479
812.567	0.0144949
812.645	0.0144684
812.723	0.0145137
812.801	0.0145963
812.879	0.0143669
812.957	0.0143559
813.035	0.0145742
813.113	0.0144855
813.192	0.0145136
813.270	0.0143433
813.348	0.0145549
813.426	0.0147445
813.504	0.0145933
813.582	0.0146525
813.660	0.0145712
813.738	0.0144572
813.817	0.0146672
813.895	0.0143826
813.973	0.0144774
814.051	0.0145756
814.129	0.0145695
814.207	0.0145660
814.285	0.0145856
814.363	0.0145700
814.442	0.0145428
814.520	0.0145786
814.598	0.0144466
814.676	0.0144661
814.754	0.0144580
814.832	0.0146111
814.910	0.0146574
814.988	0.0146223
815.067	0.0144240
815.145	0.0146097
815.223	0.0146420
815.301	0.0144946
815.379	0.0145147
815.457	0.0145072
815.535	0.0146423
815.613	0.0145786
815.692	0.0146418
815.770	0.0147086
815.848	0.0145131
815.926	0.0145064
816.004	0.0146144
816.082	0.0146882
816.160	0.0147165
816.238	0.0145609
816.317	0.0146298
816.395	0.0146980
816.473	0.0146915
816.551	0.0146432
816.629	0.0146074
816.707	0.0147116
816.785	0.0148380
816.863	0.0146448
816.942	0.0147202
817.020	0.0147186
817.098	0.0146241
817.176	0.0147430
817.254	0.0145809
817.332	0.0145458
817.410	0.0147293
817.488	0.0146703
817.567	0.0146677
817.645	0.0146283
817.723	0.0146259
817.801	0.0147317
817.879	0.0146603
817.957	0.0146323
818.035	0.0146732
818.113	0.0146551
818.192	0.0146836
818.270	0.0146442
818.348	0.0145287
818.426	0.0145718
818.504	0.0147293
818.582	0.0146969
818.660	0.0146721
818.738	0.0147243
818.817	0.0146819
818.895	0.0145876
818.973	0.0146460
819.051	0.0147012
819.129	0.0147357
819.207	0.0147462
819.285	0.0147443
819.363	0.0148064
819.442	0.0147578
819.520	0.0146452
819.598	0.0146215
819.676	0.0148005
819.754	0.0147356
819.832	0.0146021
819.910	0.0146864
819.988	0.0147105
820.067	0.0146883
820.145	0.0146886
820.223	0.0147681
820.301	0.0146786
820.379	0.0146938
820.457	0.0147135
820.535	0.0146896
820.613	0.0145315
820.692	0.0146181
820.770	0.0146736
820.848	0.0145989
820.926	0.0146452
821.004	0.0146599
821.082	0.0146021
821.160	0.0146915
821.238	0.0145686
821.317	0.0145744
821.395	0.0146198
821.473	0.0149921
821.551	0.0147881
821.629	0.0146388
821.707	0.0148630
821.785	0.0148302
821.863	0.0146143
821.942	0.0148113
822.020	0.0148003
822.098	0.0148044
822.176	0.0147626
822.254	0.0146824
822.332	0.0147148
822.410	0.0147935
822.488	0.0147950
822.567	0.0149532
822.645	0.0148428
822.723	0.0147816
822.801	0.0146849
822.879	0.0147259
822.957	0.0147205
823.035	0.0146961
823.113	0.0148434
823.192	0.0148492
823.270	0.0147257
823.348	0.0146786
823.426	0.0148368
823.504	0.0147164
823.582	0.0147660
823.660	0.0148177
823.738	0.0144779
823.817	0.0146186
823.895	0.0148008
823.973	0.0146329
824.051	0.0146623
824.129	0.0145829
824.207	0.0147069
824.285	0.0146657
824.363	0.0146020
824.442	0.0146553
824.520	0.0146690
824.598	0.0146399
824.676	0.0146645
824.754	0.0146931
824.832	0.0147876
824.910	0.0146904
824.988	0.0146162
825.067	0.0146832
825.145	0.0147348
825.223	0.0147345
825.301	0.0148135
825.379	0.0147617
825.457	0.0147853
825.535	0.0148408
825.613	0.0147942
825.692	0.0146442
825.770	0.0148029
825.848	0.0145947
825.926	0.0148415
826.004	0.0147002
826.082	0.0146449
826.160	0.0147179
826.238	0.0146711
826.317	0.0146537
826.395	0.0147176
826.473	0.0146539
826.551	0.0145979
826.629	0.0145869
826.707	0.0146742
826.785	0.0146006
826.863	0.0147229
826.942	0.0146309
827.020	0.0147038
827.098	0.0147904
827.176	0.0148006
827.254	0.0147716
827.332	0.0146879
827.410	0.0146903
827.488	0.0148553
827.567	0.0147439
827.645	0.0147289
827.723	0.0148380
827.801	0.0147652
827.879	0.0147339
827.957	0.0145685
828.035	0.0148500
828.113	0.0147108
828.192	0.0147695
828.270	0.0147256
828.348	0.0146819
828.426	0.0146230
828.504	0.0147040
828.582	0.0147528
828.660	0.0147249
828.738	0.0146983
828.817	0.0147362
828.895	0.0146687
828.973	0.0146614
829.051	0.0144585
829.129	0.0145718
829.207	0.0146465
829.285	0.0147384
829.363	0.0146240
829.442	0.0147264
829.520	0.0145827
829.598	0.0146481
829.676	0.0145743
829.754	0.0147442
829.832	0.0146825
829.910	0.0146177
829.988	0.0145934
830.067	0.0146270
830.145	0.0147673
830.223	0.0145954
830.301	0.0146322
830.379	0.0146335
830.457	0.0146191
830.535	0.0146336
830.613	0.0148023
830.692	0.0146112
830.770	0.0145374
830.848	0.0147219
830.926	0.0147064
831.004	0.0146454
831.082	0.0146837
831.160	0.0145573
831.238	0.0146526
831.317	0.0146420
831.395	0.0147221
831.473	0.0147019
831.551	0.0146286
831.629	0.0147990
831.707	0.0147456
831.785	0.0146702
831.863	0.0147978
831.942	0.0147011
832.020	0.0145399
832.098	0.0147124
832.176	0.0147250
832.254	0.0145288
832.332	0.0147238
832.410	0.0147179
832.488	0.0147832
832.567	0.0147179
832.645	0.0147112
832.723	0.0148764
832.801	0.0148434
832.879	0.0146820
832.957	0.0146722
833.035	0.0147775
833.113	0.0146976
833.192	0.0149097
833.270	0.0148705
833.348	0.0147294
833.426	0.0147979
833.504	0.0147330
833.582	0.0148064
833.660	0.0146964
833.738	0.0149016
833.817	0.0147687
833.895	0.0146595
833.973	0.0147247
834.051	0.0148418
834.129	0.0145546
834.207	0.0145882
834.285	0.0147857
834.363	0.0147047
834.442	0.0146269
834.520	0.0147169
834.598	0.0145672
834.676	0.0145977
834.754	0.0146130
834.832	0.0146218
834.910	0.0145097
834.988	0.0146389
835.067	0.0146403
835.145	0.0145280
835.223	0.0145882
835.301	0.0146210
835.379	0.0145339
835.457	0.0146567
835.535	0.0145715
835.613	0.0147385
835.692	0.0147259
835.770	0.0146302
835.848	0.0146629
835.926	0.0146331
836.004	0.0147499
836.082	0.0146269
836.160	0.0146406
836.238	0.0146380
836.317	0.0146686
836.395	0.0145955
836.473	0.0145609
836.551	0.0146104
836.629	0.0145271
836.707	0.0145872
836.785	0.0144857
836.863	0.0146207
836.942	0.0146508
837.020	0.0145492
837.098	0.0145937
837.176	0.0146243
837.254	0.0145242
837.332	0.0146825
837.410	0.0146571
837.488	0.0146651
837.567	0.0145369
837.645	0.0146421
837.723	0.0145890
837.801	0.0145431
837.879	0.0145351
837.957	0.0146679
838.035	0.0146261
838.113	0.0147147
838.192	0.0146425
838.270	0.0143832
838.348	0.0146942
838.426	0.0148117
838.504	0.0145533
838.582	0.0145802
838.660	0.0145569
838.738	0.0146215
838.817	0.0145792
838.895	0.0145201
838.973	0.0145902
839.051	0.0145057
839.129	0.0147445
839.207	0.0144808
839.285	0.0144648
839.363	0.0145352
839.442	0.0142931
839.520	0.0145036
839.598	0.0144328
839.676	0.0144662
839.754	0.0144241
839.832	0.0144592
839.910	0.0144572
839.988	0.0143832
840.067	0.0145433
840.145	0.0144576
840.223	0.0144915
840.301	0.0144410
840.379	0.0145843
840.457	0.0144730
840.535	0.0145609
840.613	0.0146314
840.692	0.0144964
840.770	0.0146152
840.848	0.0146622
840.926	0.0145161
841.004	0.0145504
841.082	0.0145670
841.160	0.0144637
841.238	0.0145541
841.317	0.0145618
841.395	0.0145428
841.473	0.0146236
841.551	0.0145892
841.629	0.0144512
841.707	0.0145938
841.785	0.0145622
841.863	0.0146832
841.942	0.0146669
842.020	0.0146332
842.098	0.0146035
842.176	0.0147077
842.254	0.0147369
842.332	0.0147635
842.410	0.0147309
842.488	0.0146826
842.567	0.0147572
842.645	0.0145532
842.723	0.0145366
842.801	0.0145393
842.879	0.0145603
842.957	0.0146179
843.035	0.0146711
843.113	0.0146883
843.192	0.0147358
843.270	0.0146951
843.348	0.0146391
843.426	0.0146310
843.504	0.0145637
843.582	0.0145307
843.660	0.0145978
843.738	0.0146036
843.817	0.0144865
843.895	0.0145454
843.973	0.0146966
844.051	0.0146091
844.129	0.0146276
844.207	0.0146091
844.285	0.0145432
844.363	0.0144769
844.442	0.0144410
844.520	0.0145139
844.598	0.0145692
844.676	0.0145213
844.754	0.0145927
844.832	0.0145664
844.910	0.0144604
844.988	0.0145824
845.067	0.0145551
845.145	0.0145707
845.223	0.0145821
845.301	0.0145985
845.379	0.0146803
845.457	0.0146278
845.535	0.0145650
845.613	0.0146075
845.692	0.0146351
845.770	0.0146467
845.848	0.0146903
845.926	0.0146948
846.004	0.0147654
846.082	0.0146288
846.160	0.0146780
846.238	0.0146561
846.317	0.0146630
846.395	0.0146897
846.473	0.0146856
846.551	0.0147276
846.629	0.0148158
846.707	0.0146387
846.785	0.0147642
846.863	0.0148975
846.942	0.0148594
847.020	0.0148779
847.098	0.0147394
847.176	0.0146955
847.254	0.0147835
847.332	0.0149038
847.410	0.0146927
847.488	0.0148062
847.567	0.0149116
847.645	0.0148257
847.723	0.0146308
847.801	0.0148515
847.879	0.0148868
847.957	0.0148078
848.035	0.0147507
848.113	0.0147009
848.192	0.0148415
848.270	0.0147106
848.348	0.0148004
848.426	0.0149218
848.504	0.0148965
848.582	0.0147732
848.660	0.0147781
848.738	0.0147649
848.817	0.0146336
848.895	0.0146465
848.973	0.0147263
849.051	0.0148177
849.129	0.0148048
849.207	0.0147328
849.285	0.0146537
849.363	0.0146683
849.442	0.0147736
849.520	0.0147397
849.598	0.0145579
849.676	0.0145500
849.754	0.0146500
849.832	0.0147012
849.910	0.0146085
849.988	0.0147429
850.067	0.0148374
850.145	0.0148148
850.223	0.0147998
850.301	0.0147453
850.379	0.0145761
850.457	0.0147940
850.535	0.0146713
850.613	0.0147488
850.692	0.0147737
850.770	0.0148080
850.848	0.0147755
850.926	0.0147611
851.004	0.0148431
851.082	0.0148058
851.160	0.0147377
851.238	0.0147289
851.317	0.0147529
851.395	0.0147868
851.473	0.0147655
851.551	0.0149231
851.629	0.0146593
851.707	0.0146720
851.785	0.0148581
851.863	0.0147545
851.942	0.0147004
852.020	0.0147953
852.098	0.0148678
852.176	0.0150156
852.254	0.0148825
852.332	0.0148154
852.410	0.0148405
852.488	0.0147316
852.567	0.0148468
852.645	0.0147000
852.723	0.0148582
852.801	0.0148612
852.879	0.0147498
852.957	0.0147021
853.035	0.0147002
853.113	0.0148231
853.192	0.0147324
853.270	0.0147248
853.348	0.0145511
853.426	0.0147531
853.504	0.0146136
853.582	0.0147259
853.660	0.0147467
853.738	0.0146468
853.817	0.0146298
853.895	0.0145942
853.973	0.0146078
854.051	0.0146085
854.129	0.0146041
854.207	0.0146707
854.285	0.0146793
854.363	0.0147159
854.442	0.0147329
854.520	0.0144637
854.598	0.0146130
854.676	0.0146279
854.754	0.0145443
854.832	0.0146055
854.910	0.0144585
854.988	0.0146455
855.067	0.0145139
855.145	0.0145350
855.223	0.0144969
855.301	0.0145935
855.379	0.0145161
855.457	0.0145575
855.535	0.0146438
855.613	0.0146675
855.692	0.0145439
855.770	0.0146027
855.848	0.0147214
855.926	0.0146606
856.004	0.0146851
856.082	0.0145904
856.160	0.0147296
856.238	0.0145944
856.317	0.0146760
856.395	0.0147757
856.473	0.0147037
856.551	0.0148109
856.629	0.0147204
856.707	0.0147855
856.785	0.0146941
856.863	0.0147784
856.942	0.0147207
857.020	0.0147667
857.098	0.0145576
857.176	0.0145280
857.254	0.0146426
857.332	0.0146554
857.410	0.0145447
857.488	0.0147169
857.567	0.0147144
857.645	0.0146377
857.723	0.0146332
857.801	0.0147834
857.879	0.0146620
857.957	0.0146519
858.035	0.0145941
858.113	0.0145837
858.192	0.0146650
858.270	0.0146320
858.348	0.0144717
858.426	0.0145586
858.504	0.0146383
858.582	0.0146124
858.660	0.0145991
858.738	0.0145317
858.817	0.0144356
858.895	0.0145103
858.973	0.0146709
859.051	0.0145512
859.129	0.0145846
859.207	0.0144301
859.285	0.0145121
859.363	0.0145903
859.442	0.0144617
859.520	0.0146361
859.598	0.0146246
859.676	0.0145088
859.754	0.0147685
859.832	0.0146360
859.910	0.0145857
859.988	0.0144576
860.067	0.0145349
860.145	0.0146281
860.223	0.0146677
860.301	0.0146160
860.379	0.0145858
860.457	0.0145609
860.535	0.0145308
860.613	0.0146473
860.692	0.0145232
860.770	0.0146526
860.848	0.0145495
860.926	0.0146218
861.004	0.0146789
861.082	0.0146493
861.160	0.0145380
861.238	0.0145232
861.317	0.0143901
861.395	0.0144557
861.473	0.0143970
861.551	0.0145465
861.629	0.0144939
861.707	0.0144668
861.785	0.0144669
861.863	0.0144954
861.942	0.0144772
862.020	0.0144881
862.098	0.0144659
862.176	0.0144555
862.254	0.0145156
862.332	0.0144785
862.410	0.0146136
862.488	0.0146301
862.567	0.0145444
862.645	0.0144923
862.723	0.0146156
862.801	0.0144799
862.879	0.0144709
862.957	0.0146282
863.035	0.0146390
863.113	0.0146460
863.192	0.0147044
863.270	0.0145722
863.348	0.0147006
863.426	0.0146224
863.504	0.0146095
863.582	0.0144218
863.660	0.0145957
863.738	0.0147735
863.817	0.0146223
863.895	0.0146061
863.973	0.0146779
864.051	0.0146727
864.129	0.0146879
864.207	0.0146581
864.285	0.0146041
864.363	0.0144444
864.442	0.0146630
864.520	0.0147990
864.598	0.0146774
864.676	0.0144780
864.754	0.0144827
864.832	0.0144281
864.910	0.0145704
864.988	0.0146708
865.067	0.0144866
865.145	0.0146898
865.223	0.0145356
865.301	0.0145998
865.379	0.0146386
865.457	0.0146964
865.535	0.0145953
865.613	0.0146413
865.692	0.0146944
865.770	0.0147936
865.848	0.0145904
865.926	0.0145558
866.004	0.0147442
866.082	0.0146198
866.160	0.0145720
866.238	0.0149457
866.317	0.0146513
866.395	0.0147765
866.473	0.0146787
866.551	0.0145957
866.629	0.0146209
866.707	0.0147078
866.785	0.0146873
866.863	0.0145945
866.942	0.0145932
867.020	0.0147364
867.098	0.0147394
867.176	0.0146911
867.254	0.0145404
867.332	0.0147076
867.410	0.0146440
867.488	0.0145267
867.567	0.0146986
867.645	0.0146573
867.723	0.0146486
867.801	0.0146078
867.879	0.0145771
867.957	0.0144934
868.035	0.0145181
868.113	0.0146679
868.192	0.0145994
868.270	0.0145780
868.348	0.0146392
868.426	0.0146682
868.504	0.0146703
868.582	0.0147995
868.660	0.0147711
868.738	0.0147002
868.817	0.0147293
868.895	0.0146937
868.973	0.0146992
869.051	0.0146207
869.129	0.0146090
869.207	0.0146288
869.285	0.0145464
869.363	0.0145304
869.442	0.0144800
869.520	0.0146557
869.598	0.0145881
869.676	0.0146523
869.754	0.0146782
869.832	0.0146667
869.910	0.0145477
869.988	0.0146251
870.067	0.0147430
870.145	0.0147531
870.223	0.0148052
870.301	0.0145422
870.379	0.0145771
870.457	0.0146861
870.535	0.0147652
870.613	0.0146508
870.692	0.0146582
870.770	0.0147989
870.848	0.0146290
870.926	0.0145330
871.004	0.0146023
871.082	0.0146264
871.160	0.0146252
871.238	0.0145422
871.317	0.0147154
871.395	0.0147381
871.473	0.0146857
871.551	0.0146735
871.629	0.0147469
871.707	0.0147043
871.785	0.0146457
871.863	0.0145272
871.942	0.0146378
872.020	0.0145773
872.098	0.0146891
872.176	0.0146527
872.254	0.0146436
872.332	0.0146474
872.410	0.0147623
872.488	0.0147918
872.567	0.0146436
872.645	0.0146732
872.723	0.0147192
872.801	0.0146543
872.879	0.0146349
872.957	0.0147543
873.035	0.0145667
873.113	0.0146183
873.192	0.0147343
873.270	0.0145953
873.348	0.0146339
873.426	0.0144090
873.504	0.0145732
873.582	0.0146406
873.660	0.0147277
873.738	0.0146367
873.817	0.0145840
873.895	0.0144749
873.973	0.0146696
874.051	0.0147702
874.129	0.0145979
874.207	0.0146229
874.285	0.0146079
874.363	0.0145525
874.442	0.0146796
874.520	0.0147372
874.598	0.0147259
874.676	0.0147476
874.754	0.0146475
874.832	0.0147703
874.910	0.0146313
874.988	0.0147134
875.067	0.0147707
875.145	0.0146909
875.223	0.0147195
875.301	0.0147910
875.379	0.0147809
875.457	0.0147790
875.535	0.0147044
875.613	0.0147494
875.692	0.0148030
875.770	0.0147172
875.848	0.0146938
875.926	0.0147997
876.004	0.0148681
876.082	0.0147449
876.160	0.0146876
876.238	0.0147398
876.317	0.0145710
876.395	0.0146978
876.473	0.0148129
876.551	0.0147375
876.629	0.0146535
876.707	0.0147600
876.785	0.0146864
876.863	0.0146870
876.942	0.0147785
877.020	0.0146786
877.098	0.0146502
877.176	0.0147138
877.254	0.0146558
877.332	0.0146960
877.410	0.0146518
877.488	0.0146951
877.567	0.0147535
877.645	0.0146598
877.723	0.0145815
877.801	0.0144650
877.879	0.0146501
877.957	0.0148289
878.035	0.0146445
878.113	0.0147229
878.192	0.0150088
878.270	0.0148286
878.348	0.0146575
878.426	0.0147616
878.504	0.0147479
878.582	0.0147470
878.660	0.0145392
878.738	0.0146562
878.817	0.0146456
878.895	0.0146066
878.973	0.0146694
879.051	0.0147107
879.129	0.0146175
879.207	0.0146369
879.285	0.0145800
879.363	0.0146048
879.442	0.0146089
879.520	0.0145866
879.598	0.0145696
879.676	0.0145249
879.754	0.0146854
879.832	0.0146193
879.910	0.0146948
879.988	0.0146294
880.067	0.0146430
880.145	0.0145576
880.223	0.0145761
880.301	0.0147349
880.379	0.0147604
880.457	0.0147507
880.535	0.0145992
880.613	0.0146902
880.692	0.0146600
880.770	0.0146409
880.848	0.0146959
880.926	0.0146796
881.004	0.0149076
881.082	0.0147933
881.160	0.0146077
881.238	0.0146193
881.317	0.0147198
881.395	0.0146610
881.473	0.0147327
881.551	0.0145557
881.629	0.0146230
881.707	0.0144079
881.785	0.0146375
881.863	0.0144846
881.942	0.0144464
882.020	0.0144231
882.098	0.0145774
882.176	0.0145030
882.254	0.0144079
882.332	0.0142645
882.410	0.0146931
882.488	0.0144067
882.567	0.0145058
882.645	0.0145643
882.723	0.0145163
882.801	0.0145213
882.879	0.0147137
882.957	0.0144760
883.035	0.0145032
883.113	0.0145861
883.192	0.0144160
883.270	0.0145591
883.348	0.0145036
883.426	0.0145077
883.504	0.0146507
883.582	0.0146018
883.660	0.0147014
883.738	0.0146320
883.817	0.0147467
883.895	0.0145802
883.973	0.0145714
884.051	0.0147568
884.129	0.0146041
884.207	0.0146265
884.285	0.0145689
884.363	0.0145297
884.442	0.0145528
884.520	0.0145880
884.598	0.0145404
884.676	0.0146275
884.754	0.0147039
884.832	0.0145280
884.910	0.0146270
884.988	0.0146458
885.067	0.0146069
885.145	0.0146844
885.223	0.0146020
885.301	0.0145517
885.379	0.0146447
885.457	0.0146044
885.535	0.0146290
885.613	0.0146254
885.692	0.0146113
885.770	0.0146799
885.848	0.0146391
885.926	0.0147111
886.004	0.0147553
886.082	0.0145701
886.160	0.0146181
886.238	0.0145922
886.317	0.0146755
886.395	0.0146165
886.473	0.0146620
886.551	0.0147042
886.629	0.0146468
886.707	0.0146108
886.785	0.0146478
886.863	0.0147416
886.942	0.0145719
887.020	0.0145838
887.098	0.0147887
887.176	0.0146574
887.254	0.0147718
887.332	0.0147326
887.410	0.0146837
887.488	0.0146298
887.567	0.0146046
887.645	0.0145277
887.723	0.0145726
887.801	0.0145612
887.879	0.0146056
887.957	0.0146024
888.035	0.0145869
888.113	0.0145792
888.192	0.0143981
888.270	0.0145508
888.348	0.0146787
888.426	0.0146613
888.504	0.0146200
888.582	0.0147447
888.660	0.0144986
888.738	0.0145544
888.817	0.0147237
888.895	0.0146303
888.973	0.0146923
889.051	0.0146094
889.129	0.0146877
889.207	0.0146590
889.285	0.0147532
889.363	0.0146539
889.442	0.0147992
889.520	0.0145911
889.598	0.0147657
889.676	0.0147383
889.754	0.0147524
889.832	0.0146293
889.910	0.0147077
889.988	0.0148132
890.067	0.0147723
890.145	0.0147478
890.223	0.0147819
890.301	0.0147774
890.379	0.0147594
890.457	0.0148211
890.535	0.0147553
890.613	0.0145996
890.692	0.0147089
890.770	0.0146382
890.848	0.0146466
890.926	0.0146424
891.004	0.0148736
891.082	0.0147282
891.160	0.0148133
891.238	0.0146169
891.317	0.0145985
891.395	0.0145929
891.473	0.0146189
891.551	0.0147339
891.629	0.0145975
891.707	0.0146063
891.785	0.0148017
891.863	0.0146690
891.942	0.0146089
892.020	0.0145302
892.098	0.0145707
892.176	0.0147256
892.254	0.0146664
892.332	0.0147143
892.410	0.0145899
892.488	0.0145518
892.567	0.0147678
892.645	0.0146928
892.723	0.0145311
892.801	0.0145482
892.879	0.0146281
892.957	0.0146201
893.035	0.0145941
893.113	0.0146433
893.192	0.0144563
893.270	0.0145851
893.348	0.0146464
893.426	0.0144652
893.504	0.0147118
893.582	0.0146539
893.660	0.0147549
893.738	0.0146990
893.817	0.0146877
893.895	0.0145952
893.973	0.0145214
894.051	0.0146063
894.129	0.0146654
894.207	0.0147262
894.285	0.0146999
894.363	0.0148138
894.442	0.0147157
894.520	0.0146905
894.598	0.0147590
894.676	0.0148441
894.754	0.0148075
894.832	0.0147335
894.910	0.0145719
894.988	0.0147758
895.067	0.0148290
895.145	0.0147645
895.223	0.0147116
895.301	0.0147974
895.379	0.0146703
895.457	0.0147761
895.535	0.0146363
895.613	0.0146445
895.692	0.0145314
895.770	0.0146442
895.848	0.0146715
895.926	0.0147018
896.004	0.0145939
896.082	0.0146394
896.160	0.0146257
896.238	0.0146659
896.317	0.0144061
896.395	0.0145715
896.473	0.0145225
896.551	0.0145532
896.629	0.0146056
896.707	0.0146194
896.785	0.0146239
896.863	0.0146555
896.942	0.0144971
897.020	0.0145212
897.098	0.0145477
897.176	0.0145365
897.254	0.0145999
897.332	0.0144621
897.410	0.0144745
897.488	0.0144803
897.567	0.0146533
897.645	0.0146157
897.723	0.0145650
897.801	0.0146055
897.879	0.0146144
897.957	0.0145277
898.035	0.0145844
898.113	0.0145481
898.192	0.0145095
898.270	0.0144861
898.348	0.0146495
898.426	0.0145448
898.504	0.0145215
898.582	0.0144602
898.660	0.0145953
898.738	0.0145412
898.817	0.0144228
898.895	0.0145252
898.973	0.0145590
899.051	0.0146613
899.129	0.0146188
899.207	0.0146152
899.285	0.0146166
899.363	0.0146425
899.442	0.0145834
899.520	0.0146396
899.598	0.0146002
899.676	0.0145831
899.754	0.0146003
899.832	0.0144403
899.910	0.0145275
899.988	0.0146862
900.067	0.0146357
900.145	0.0146401
900.223	0.0147631
900.301	0.0145411
900.379	0.0145654
900.457	0.0146243
900.535	0.0146700
900.613	0.0146603
900.692	0.0147572
900.770	0.0145238
900.848	0.0146413
900.926	0.0145730
901.004	0.0146483
901.082	0.0147698
901.160	0.0147685
901.238	0.0147195
901.317	0.0148109
901.395	0.0146169
901.473	0.0146537
901.551	0.0148280
901.629	0.0146875
901.707	0.0147537
901.785	0.0146417
901.863	0.0148042
901.942	0.0146986
902.020	0.0146951
902.098	0.0146809
902.176	0.0146893
902.254	0.0146882
902.332	0.0147133
902.410	0.0147318
902.488	0.0146901
902.567	0.0146114
902.645	0.0146573
902.723	0.0146972
902.801	0.0147480
902.879	0.0145062
902.957	0.0146945
903.035	0.0146016
903.113	0.0146892
903.192	0.0145617
903.270	0.0146402
903.348	0.0145356
903.426	0.0146500
903.504	0.0147742
903.582	0.0146677
903.660	0.0147031
903.738	0.0146391
903.817	0.0146814
903.895	0.0147729
903.973	0.0147630
904.051	0.0147638
904.129	0.0147459
904.207	0.0147529
904.285	0.0147017
904.363	0.0146838
904.442	0.0146324
904.520	0.0148209
904.598	0.0147497
904.676	0.0148045
904.754	0.0147125
904.832	0.0149572
904.910	0.0146899
904.988	0.0146767
905.067	0.0147256
905.145	0.0148370
905.223	0.0146199
905.301	0.0146539
905.379	0.0148262
905.457	0.0147179
905.535	0.0145712
905.613	0.0146632
905.692	0.0147684
905.770	0.0146902
905.848	0.0145844
905.926	0.0146649
906.004	0.0145525
906.082	0.0147292
906.160	0.0147116
906.238	0.0146483
906.317	0.0147254
906.395	0.0146368
906.473	0.0146597
906.551	0.0145763
906.629	0.0145473
906.707	0.0147305
906.785	0.0145963
906.863	0.0144669
906.942	0.0146735
907.020	0.0145786
907.098	0.0146362
907.176	0.0146506
907.254	0.0144865
907.332	0.0146081
907.410	0.0147021
907.488	0.0144672
907.567	0.0147476
907.645	0.0145607
907.723	0.0144576
907.801	0.0145369
907.879	0.0145549
907.957	0.0145129
908.035	0.0143436
908.113	0.0145107
908.192	0.0146831
908.270	0.0147095
908.348	0.0146638
908.426	0.0145261
908.504	0.0145610
908.582	0.0144511
908.660	0.0145826
908.738	0.0145246
908.817	0.0146493
908.895	0.0146387
908.973	0.0145914
909.051	0.0145508
909.129	0.0145834
909.207	0.0144855
909.285	0.0145728
909.363	0.0147212
909.442	0.0146492
909.520	0.0147855
909.598	0.0147374
909.676	0.0146227
909.754	0.0145752
909.832	0.0146911
909.910	0.0146832
909.988	0.0145935
910.067	0.0148189
910.145	0.0147018
910.223	0.0147881
910.301	0.0146186
910.379	0.0146671
910.457	0.0146252
910.535	0.0145844
910.613	0.0147485
910.692	0.0146845
910.770	0.0146217
910.848	0.0146552
910.926	0.0145062
911.004	0.0146240
911.082	0.0146864
911.160	0.0146330
911.238	0.0147350
911.317	0.0145792
911.395	0.0147201
911.473	0.0146868
911.551	0.0146304
911.629	0.0146059
911.707	0.0146990
911.785	0.0147167
911.863	0.0146070
911.942	0.0145888
912.020	0.0146513
912.098	0.0146417
912.176	0.0147166
912.254	0.0146306
912.332	0.0146843
912.410	0.0147540
912.488	0.0146980
912.567	0.0145197
912.645	0.0147470
912.723	0.0147766
912.801	0.0146327
912.879	0.0146578
912.957	0.0146784
913.035	0.0144935
913.113	0.0146375
913.192	0.0146912
913.270	0.0145540
913.348	0.0146202
913.426	0.0146941
913.504	0.0147008
913.582	0.0146037
913.660	0.0147086
913.738	0.0146772
913.817	0.0146198
913.895	0.0146616
913.973	0.0147125
914.051	0.0145404
914.129	0.0146330
914.207	0.0145814
914.285	0.0145029
914.363	0.0144933
914.442	0.0145300
914.520	0.0145115
914.598	0.0145026
914.676	0.0144173
914.754	0.0145210
914.832	0.0146871
914.910	0.0145425
914.988	0.0144404
915.067	0.0146976
915.145	0.0145779
915.223	0.0144824
915.301	0.0146478
915.379	0.0145158
915.457	0.0145557
915.535	0.0145662
915.613	0.0144595
915.692	0.0145979
915.770	0.0146784
915.848	0.0147370
915.926	0.0146564
916.004	0.0145226
916.082	0.0146530
916.160	0.0147085
916.238	0.0146270
916.317	0.0145418
916.395	0.0145161
916.473	0.0146291
916.551	0.0145854
916.629	0.0145226
916.707	0.0146795
916.785	0.0146494
916.863	0.0145573
916.942	0.0145341
917.020	0.0145394
917.098	0.0144398
917.176	0.0144528
917.254	0.0145991
917.332	0.0145889
917.410	0.0146594
917.488	0.0145836
917.567	0.0145985
917.645	0.0146318
917.723	0.0146215
917.801	0.0146616
917.879	0.0147346
917.957	0.0145930
918.035	0.0146303
918.113	0.0146995
918.192	0.0147034
918.270	0.0146390
918.348	0.0147369
918.426	0.0145956
918.504	0.0147394
918.582	0.0145592
918.660	0.0145734
918.738	0.0147672
918.817	0.0147776
918.895	0.0146964
918.973	0.0146428
919.051	0.0146586
919.129	0.0147112
919.207	0.0146642
919.285	0.0148924
919.363	0.0147178
919.442	0.0147665
919.520	0.0146908
919.598	0.0147810
919.676	0.0148403
919.754	0.0148799
919.832	0.0146872
919.910	0.0148518
