05/28/2022	13:52:35	Ver.	4.1	UNKNOWN
Optical Delay	599.988409	Delta X		0.078125	Sweeps	1	Scan Rate	0/0
Coordinates	Axis 1	NaN	Axis 2	NaN	Axis 3	NaN	Axis 4	NaN	Axis 5	NaN	Axis 6	0.000000
TX Power	0.000000	RX Power	0.000000

599.988	0.0148230
600.067	0.0149825
600.145	0.0147601
600.223	0.0148927
600.301	0.0148614
600.379	0.0148751
600.457	0.0147939
600.535	0.0148158
600.613	0.0147205
600.692	0.0148269
600.770	0.0149025
600.848	0.0149249
600.926	0.0147614
601.004	0.0148370
601.082	0.0147665
601.160	0.0147720
601.238	0.0147858
601.317	0.0146425
601.395	0.0148297
601.473	0.0148322
601.551	0.0149062
601.629	0.0149116
601.707	0.0147573
601.785	0.0147717
601.863	0.0147346
601.942	0.0148705
602.020	0.0148666
602.098	0.0148033
602.176	0.0147481
602.254	0.0148623
602.332	0.0149471
602.410	0.0149845
602.488	0.0149077
602.567	0.0148051
602.645	0.0149647
602.723	0.0149595
602.801	0.0148151
602.879	0.0148565
602.957	0.0148328
603.035	0.0148425
603.113	0.0148360
603.192	0.0148077
603.270	0.0148542
603.348	0.0149757
603.426	0.0148049
603.504	0.0148817
603.582	0.0148323
603.660	0.0149068
603.738	0.0148598
603.817	0.0148004
603.895	0.0148754
603.973	0.0148829
604.051	0.0148666
604.129	0.0148475
604.207	0.0148162
604.285	0.0148082
604.363	0.0148553
604.442	0.0148068
604.520	0.0148843
604.598	0.0147123
604.676	0.0148640
604.754	0.0149635
604.832	0.0148712
604.910	0.0146616
604.988	0.0147936
605.067	0.0148842
605.145	0.0147695
605.223	0.0149462
605.301	0.0146803
605.379	0.0147959
605.457	0.0148478
605.535	0.0148563
605.613	0.0147952
605.692	0.0146139
605.770	0.0147538
605.848	0.0149598
605.926	0.0148026
606.004	0.0148790
606.082	0.0149190
606.160	0.0147802
606.238	0.0147168
606.317	0.0148405
606.395	0.0149424
606.473	0.0148762
606.551	0.0148574
606.629	0.0148490
606.707	0.0148703
606.785	0.0148714
606.863	0.0148381
606.942	0.0148917
607.020	0.0147469
607.098	0.0147636
607.176	0.0147475
607.254	0.0147211
607.332	0.0147063
607.410	0.0148696
607.488	0.0148599
607.567	0.0147192
607.645	0.0148024
607.723	0.0147687
607.801	0.0148997
607.879	0.0147961
607.957	0.0148265
608.035	0.0149868
608.113	0.0147886
608.192	0.0147592
608.270	0.0147673
608.348	0.0147981
608.426	0.0148661
608.504	0.0148360
608.582	0.0148861
608.660	0.0147331
608.738	0.0148545
608.817	0.0148657
608.895	0.0148188
608.973	0.0148314
609.051	0.0149580
609.129	0.0147086
609.207	0.0149352
609.285	0.0147671
609.363	0.0146944
609.442	0.0147438
609.520	0.0147497
609.598	0.0148016
609.676	0.0148589
609.754	0.0148447
609.832	0.0148476
609.910	0.0147583
609.988	0.0146510
610.067	0.0148134
610.145	0.0148331
610.223	0.0148271
610.301	0.0149287
610.379	0.0148797
610.457	0.0148488
610.535	0.0146892
610.613	0.0146951
610.692	0.0147204
610.770	0.0148422
610.848	0.0148613
610.926	0.0147498
611.004	0.0148374
611.082	0.0147769
611.160	0.0147210
611.238	0.0147339
611.317	0.0148640
611.395	0.0149035
611.473	0.0148467
611.551	0.0147693
611.629	0.0147508
611.707	0.0149043
611.785	0.0149754
611.863	0.0149129
611.942	0.0148879
612.020	0.0148151
612.098	0.0148432
612.176	0.0148294
612.254	0.0148206
612.332	0.0146923
612.410	0.0148314
612.488	0.0147704
612.567	0.0146851
612.645	0.0147334
612.723	0.0147472
612.801	0.0149190
612.879	0.0148165
612.957	0.0147934
613.035	0.0147697
613.113	0.0147734
613.192	0.0148357
613.270	0.0148505
613.348	0.0148852
613.426	0.0147711
613.504	0.0148566
613.582	0.0149380
613.660	0.0148697
613.738	0.0148161
613.817	0.0147788
613.895	0.0148651
613.973	0.0148002
614.051	0.0147673
614.129	0.0147402
614.207	0.0146976
614.285	0.0148662
614.363	0.0147553
614.442	0.0148849
614.520	0.0149171
614.598	0.0147678
614.676	0.0147350
614.754	0.0147844
614.832	0.0147662
614.910	0.0147683
614.988	0.0148363
615.067	0.0147396
615.145	0.0147377
615.223	0.0148370
615.301	0.0148312
615.379	0.0147951
615.457	0.0148440
615.535	0.0149040
615.613	0.0149218
615.692	0.0148030
615.770	0.0148480
615.848	0.0149197
615.926	0.0148978
616.004	0.0149358
616.082	0.0147598
616.160	0.0147308
616.238	0.0149574
616.317	0.0148817
616.395	0.0147383
616.473	0.0147606
616.551	0.0148177
616.629	0.0147467
616.707	0.0148367
616.785	0.0148100
616.863	0.0147973
616.942	0.0147807
617.020	0.0148142
617.098	0.0147491
617.176	0.0149679
617.254	0.0148385
617.332	0.0147431
617.410	0.0147108
617.488	0.0149042
617.567	0.0147958
617.645	0.0149197
617.723	0.0148399
617.801	0.0147735
617.879	0.0148764
617.957	0.0147238
618.035	0.0146987
618.113	0.0149101
618.192	0.0148619
618.270	0.0148543
618.348	0.0148937
618.426	0.0148298
618.504	0.0147455
618.582	0.0149294
618.660	0.0149142
618.738	0.0148314
618.817	0.0148920
618.895	0.0146976
618.973	0.0147005
619.051	0.0148963
619.129	0.0149332
619.207	0.0148358
619.285	0.0148837
619.363	0.0147702
619.442	0.0149226
619.520	0.0147756
619.598	0.0147507
619.676	0.0149277
619.754	0.0148134
619.832	0.0147466
619.910	0.0148054
619.988	0.0149339
620.067	0.0148236
620.145	0.0147936
620.223	0.0149765
620.301	0.0147525
620.379	0.0148841
620.457	0.0147090
620.535	0.0147689
620.613	0.0148557
620.692	0.0148578
620.770	0.0148482
620.848	0.0149391
620.926	0.0147452
621.004	0.0148063
621.082	0.0149078
621.160	0.0148368
621.238	0.0149492
621.317	0.0148313
621.395	0.0148853
621.473	0.0149800
621.551	0.0147812
621.629	0.0146992
621.707	0.0148979
621.785	0.0147968
621.863	0.0149475
621.942	0.0149000
622.020	0.0147883
622.098	0.0147813
622.176	0.0148780
622.254	0.0149181
622.332	0.0148483
622.410	0.0149390
622.488	0.0149888
622.567	0.0148256
622.645	0.0148296
622.723	0.0148130
622.801	0.0148067
622.879	0.0148009
622.957	0.0147395
623.035	0.0148235
623.113	0.0149389
623.192	0.0147386
623.270	0.0147014
623.348	0.0148418
623.426	0.0147984
623.504	0.0148051
623.582	0.0149143
623.660	0.0149210
623.738	0.0146977
623.817	0.0147823
623.895	0.0148721
623.973	0.0147466
624.051	0.0149112
624.129	0.0148686
624.207	0.0147583
624.285	0.0148067
624.363	0.0147216
624.442	0.0146867
624.520	0.0148835
624.598	0.0148269
624.676	0.0148199
624.754	0.0148476
624.832	0.0148151
624.910	0.0148402
624.988	0.0148066
625.067	0.0147813
625.145	0.0147153
625.223	0.0148651
625.301	0.0148319
625.379	0.0147596
625.457	0.0149269
625.535	0.0147790
625.613	0.0147675
625.692	0.0148440
625.770	0.0148941
625.848	0.0149590
625.926	0.0148914
626.004	0.0146560
626.082	0.0147410
626.160	0.0147568
626.238	0.0148213
626.317	0.0147750
626.395	0.0148322
626.473	0.0148800
626.551	0.0147612
626.629	0.0148624
626.707	0.0148071
626.785	0.0148299
626.863	0.0147510
626.942	0.0148534
627.020	0.0147810
627.098	0.0147578
627.176	0.0146944
627.254	0.0148395
627.332	0.0147688
627.410	0.0148069
627.488	0.0146178
627.567	0.0147912
627.645	0.0148188
627.723	0.0147283
627.801	0.0148399
627.879	0.0148251
627.957	0.0147836
628.035	0.0149064
628.113	0.0148016
628.192	0.0148911
628.270	0.0146435
628.348	0.0147642
628.426	0.0148331
628.504	0.0149380
628.582	0.0148559
628.660	0.0149336
628.738	0.0147810
628.817	0.0148137
628.895	0.0147414
628.973	0.0149831
629.051	0.0149110
629.129	0.0146828
629.207	0.0147433
629.285	0.0148183
629.363	0.0147687
629.442	0.0146803
629.520	0.0148816
629.598	0.0147867
629.676	0.0148482
629.754	0.0148654
629.832	0.0147180
629.910	0.0148685
629.988	0.0149615
630.067	0.0149521
630.145	0.0148224
630.223	0.0147527
630.301	0.0147458
630.379	0.0148434
630.457	0.0148230
630.535	0.0147543
630.613	0.0147661
630.692	0.0148391
630.770	0.0147993
630.848	0.0148192
630.926	0.0147662
631.004	0.0148383
631.082	0.0148103
631.160	0.0148183
631.238	0.0147596
631.317	0.0147618
631.395	0.0148564
631.473	0.0147604
631.551	0.0148573
631.629	0.0147533
631.707	0.0148025
631.785	0.0148997
631.863	0.0148875
631.942	0.0147444
632.020	0.0148705
632.098	0.0148245
632.176	0.0148128
632.254	0.0147211
632.332	0.0146980
632.410	0.0147665
632.488	0.0147680
632.567	0.0148773
632.645	0.0149184
632.723	0.0147968
632.801	0.0148505
632.879	0.0148566
632.957	0.0148934
633.035	0.0148140
633.113	0.0147895
633.192	0.0148412
633.270	0.0146397
633.348	0.0147464
633.426	0.0147298
633.504	0.0148497
633.582	0.0148425
633.660	0.0148162
633.738	0.0146558
633.817	0.0148250
633.895	0.0149001
633.973	0.0149187
634.051	0.0147410
634.129	0.0147530
634.207	0.0147964
634.285	0.0148517
634.363	0.0147489
634.442	0.0147093
634.520	0.0147661
634.598	0.0147937
634.676	0.0147772
634.754	0.0148689
634.832	0.0149227
634.910	0.0148575
634.988	0.0147779
635.067	0.0145564
635.145	0.0147614
635.223	0.0148891
635.301	0.0149839
635.379	0.0147379
635.457	0.0147232
635.535	0.0148675
635.613	0.0148750
635.692	0.0148048
635.770	0.0147839
635.848	0.0146550
635.926	0.0146653
636.004	0.0147453
636.082	0.0147474
636.160	0.0147392
636.238	0.0148740
636.317	0.0148637
636.395	0.0147375
636.473	0.0147334
636.551	0.0147501
636.629	0.0147731
636.707	0.0147366
636.785	0.0149375
636.863	0.0148185
636.942	0.0148312
637.020	0.0148002
637.098	0.0147311
637.176	0.0147670
637.254	0.0147182
637.332	0.0147049
637.410	0.0148750
637.488	0.0147854
637.567	0.0148079
637.645	0.0146772
637.723	0.0148324
637.801	0.0148071
637.879	0.0147685
637.957	0.0147729
638.035	0.0148224
638.113	0.0147023
638.192	0.0149468
638.270	0.0148239
638.348	0.0147542
638.426	0.0147659
638.504	0.0147691
638.582	0.0149081
638.660	0.0147942
638.738	0.0147479
638.817	0.0149214
638.895	0.0149110
638.973	0.0147898
639.051	0.0147072
639.129	0.0147122
639.207	0.0149255
639.285	0.0148328
639.363	0.0147047
639.442	0.0148496
639.520	0.0147401
639.598	0.0147788
639.676	0.0148434
639.754	0.0146917
639.832	0.0146936
639.910	0.0147929
639.988	0.0147573
640.067	0.0147550
640.145	0.0147723
640.223	0.0148206
640.301	0.0147224
640.379	0.0148264
640.457	0.0148880
640.535	0.0149297
640.613	0.0147956
640.692	0.0149986
640.770	0.0148331
640.848	0.0149680
640.926	0.0149092
641.004	0.0148016
641.082	0.0149425
641.160	0.0148657
641.238	0.0149158
641.317	0.0147164
641.395	0.0147794
641.473	0.0148618
641.551	0.0147863
641.629	0.0148096
641.707	0.0150240
641.785	0.0148219
641.863	0.0147172
641.942	0.0148190
642.020	0.0149603
642.098	0.0147862
642.176	0.0148276
642.254	0.0149532
642.332	0.0148135
642.410	0.0148489
642.488	0.0147758
642.567	0.0147630
642.645	0.0147725
642.723	0.0148697
642.801	0.0147766
642.879	0.0148640
642.957	0.0148674
643.035	0.0147220
643.113	0.0148035
643.192	0.0147660
643.270	0.0148621
643.348	0.0147511
643.426	0.0148325
643.504	0.0148023
643.582	0.0148940
643.660	0.0148628
643.738	0.0148295
643.817	0.0149294
643.895	0.0146744
643.973	0.0148879
644.051	0.0148360
644.129	0.0147598
644.207	0.0147983
644.285	0.0149100
644.363	0.0148607
644.442	0.0148840
644.520	0.0148059
644.598	0.0147461
644.676	0.0148492
644.754	0.0149335
644.832	0.0147375
644.910	0.0147319
644.988	0.0148470
645.067	0.0147980
645.145	0.0146931
645.223	0.0148542
645.301	0.0148288
645.379	0.0149038
645.457	0.0147991
645.535	0.0148126
645.613	0.0148773
645.692	0.0148877
645.770	0.0150301
645.848	0.0147566
645.926	0.0147190
646.004	0.0149157
646.082	0.0149295
646.160	0.0149857
646.238	0.0147900
646.317	0.0148914
646.395	0.0148527
646.473	0.0148396
646.551	0.0149049
646.629	0.0147660
646.707	0.0148158
646.785	0.0147255
646.863	0.0148103
646.942	0.0147699
647.020	0.0146973
647.098	0.0148302
647.176	0.0147767
647.254	0.0147904
647.332	0.0149487
647.410	0.0147742
647.488	0.0146758
647.567	0.0147720
647.645	0.0147046
647.723	0.0147094
647.801	0.0147272
647.879	0.0148531
647.957	0.0147610
648.035	0.0147043
648.113	0.0148029
648.192	0.0149254
648.270	0.0148863
648.348	0.0147210
648.426	0.0146984
648.504	0.0147704
648.582	0.0148657
648.660	0.0147984
648.738	0.0147646
648.817	0.0147705
648.895	0.0147617
648.973	0.0148113
649.051	0.0148063
649.129	0.0147649
649.207	0.0147379
649.285	0.0147424
649.363	0.0148516
649.442	0.0148226
649.520	0.0147075
649.598	0.0148595
649.676	0.0147692
649.754	0.0146022
649.832	0.0147288
649.910	0.0147558
649.988	0.0148576
650.067	0.0146635
650.145	0.0146651
650.223	0.0147343
650.301	0.0147410
650.379	0.0148068
650.457	0.0147573
650.535	0.0149060
650.613	0.0149146
650.692	0.0147237
650.770	0.0146970
650.848	0.0147638
650.926	0.0148096
651.004	0.0148489
651.082	0.0147073
651.160	0.0148019
651.238	0.0149251
651.317	0.0146767
651.395	0.0147844
651.473	0.0146992
651.551	0.0148153
651.629	0.0148026
651.707	0.0148626
651.785	0.0147635
651.863	0.0147748
651.942	0.0147517
652.020	0.0148071
652.098	0.0148898
652.176	0.0149052
652.254	0.0146855
652.332	0.0148022
652.410	0.0148769
652.488	0.0147964
652.567	0.0147495
652.645	0.0149160
652.723	0.0148148
652.801	0.0147866
652.879	0.0147963
652.957	0.0147711
653.035	0.0148222
653.113	0.0148479
653.192	0.0148299
653.270	0.0148769
653.348	0.0148270
653.426	0.0147208
653.504	0.0148274
653.582	0.0148547
653.660	0.0149249
653.738	0.0149190
653.817	0.0148250
653.895	0.0147690
653.973	0.0148550
654.051	0.0147735
654.129	0.0148960
654.207	0.0148957
654.285	0.0147926
654.363	0.0148310
654.442	0.0148428
654.520	0.0148640
654.598	0.0147346
654.676	0.0147927
654.754	0.0148921
654.832	0.0148907
654.910	0.0148248
654.988	0.0147076
655.067	0.0146677
655.145	0.0148650
655.223	0.0148164
655.301	0.0147730
655.379	0.0148050
655.457	0.0147959
655.535	0.0147884
655.613	0.0149242
655.692	0.0146823
655.770	0.0148387
655.848	0.0148073
655.926	0.0148380
656.004	0.0148200
656.082	0.0148783
656.160	0.0147797
656.238	0.0147939
656.317	0.0147408
656.395	0.0148972
656.473	0.0148145
656.551	0.0148024
656.629	0.0148257
656.707	0.0148443
656.785	0.0147198
656.863	0.0147849
656.942	0.0148187
657.020	0.0148495
657.098	0.0148637
657.176	0.0147988
657.254	0.0148427
657.332	0.0149389
657.410	0.0147340
657.488	0.0147494
657.567	0.0147561
657.645	0.0148365
657.723	0.0148686
657.801	0.0149033
657.879	0.0148607
657.957	0.0149003
658.035	0.0146815
658.113	0.0149342
658.192	0.0147591
658.270	0.0147765
658.348	0.0147846
658.426	0.0148095
658.504	0.0148213
658.582	0.0148742
658.660	0.0149065
658.738	0.0148051
658.817	0.0147404
658.895	0.0148260
658.973	0.0147353
659.051	0.0147442
659.129	0.0148878
659.207	0.0148730
659.285	0.0148324
659.363	0.0148914
659.442	0.0147102
659.520	0.0148713
659.598	0.0149453
659.676	0.0149308
659.754	0.0148589
659.832	0.0147370
659.910	0.0148936
659.988	0.0147594
660.067	0.0147987
660.145	0.0147459
660.223	0.0147631
660.301	0.0148388
660.379	0.0148557
660.457	0.0148969
660.535	0.0147298
660.613	0.0147168
660.692	0.0148591
660.770	0.0149660
660.848	0.0148363
660.926	0.0148074
661.004	0.0148032
661.082	0.0147961
661.160	0.0149189
661.238	0.0147835
661.317	0.0147260
661.395	0.0148063
661.473	0.0148288
661.551	0.0148058
661.629	0.0148101
661.707	0.0148459
661.785	0.0149571
661.863	0.0147868
661.942	0.0149034
662.020	0.0147729
662.098	0.0148046
662.176	0.0147959
662.254	0.0148470
662.332	0.0147474
662.410	0.0147034
662.488	0.0147528
662.567	0.0146876
662.645	0.0148231
662.723	0.0148582
662.801	0.0147865
662.879	0.0146984
662.957	0.0147674
663.035	0.0148088
663.113	0.0148015
663.192	0.0148243
663.270	0.0148351
663.348	0.0146862
663.426	0.0148303
663.504	0.0150665
663.582	0.0148115
663.660	0.0147984
663.738	0.0148479
663.817	0.0149065
663.895	0.0147803
663.973	0.0148272
664.051	0.0149261
664.129	0.0147194
664.207	0.0148318
664.285	0.0147415
664.363	0.0148665
664.442	0.0148258
664.520	0.0149084
664.598	0.0148153
664.676	0.0148924
664.754	0.0148798
664.832	0.0148340
664.910	0.0146759
664.988	0.0147369
665.067	0.0148646
665.145	0.0148792
665.223	0.0149207
665.301	0.0147951
665.379	0.0147213
665.457	0.0149458
665.535	0.0147336
665.613	0.0148834
665.692	0.0149521
665.770	0.0149252
665.848	0.0149033
665.926	0.0147943
666.004	0.0149158
666.082	0.0149111
666.160	0.0148604
666.238	0.0149669
666.317	0.0149017
666.395	0.0147315
666.473	0.0149271
666.551	0.0149763
666.629	0.0148344
666.707	0.0146671
666.785	0.0148460
666.863	0.0149110
666.942	0.0148669
667.020	0.0147863
667.098	0.0147598
667.176	0.0146664
667.254	0.0147545
667.332	0.0148881
667.410	0.0149687
667.488	0.0147295
667.567	0.0148360
667.645	0.0147827
667.723	0.0149406
667.801	0.0146974
667.879	0.0148660
667.957	0.0148051
668.035	0.0147905
668.113	0.0148007
668.192	0.0147987
668.270	0.0148819
668.348	0.0147682
668.426	0.0146895
668.504	0.0146492
668.582	0.0147952
668.660	0.0148341
668.738	0.0149384
668.817	0.0147704
668.895	0.0148612
668.973	0.0147948
669.051	0.0148292
669.129	0.0149008
669.207	0.0148186
669.285	0.0148774
669.363	0.0149102
669.442	0.0147791
669.520	0.0148374
669.598	0.0149202
669.676	0.0149519
669.754	0.0149378
669.832	0.0149129
669.910	0.0147876
669.988	0.0147807
670.067	0.0147897
670.145	0.0148454
670.223	0.0149394
670.301	0.0149321
670.379	0.0148648
670.457	0.0148404
670.535	0.0148810
670.613	0.0148208
670.692	0.0149195
670.770	0.0149149
670.848	0.0148671
670.926	0.0149184
671.004	0.0147719
671.082	0.0148283
671.160	0.0149434
671.238	0.0149725
671.317	0.0148919
671.395	0.0149522
671.473	0.0148869
671.551	0.0149058
671.629	0.0149221
671.707	0.0148346
671.785	0.0149036
671.863	0.0148740
671.942	0.0148550
672.020	0.0148961
672.098	0.0147862
672.176	0.0149260
672.254	0.0148426
672.332	0.0148354
672.410	0.0149190
672.488	0.0149009
672.567	0.0150202
672.645	0.0148894
672.723	0.0147598
672.801	0.0147969
672.879	0.0148360
672.957	0.0148483
673.035	0.0148623
673.113	0.0149340
673.192	0.0148062
673.270	0.0148074
673.348	0.0149218
673.426	0.0149637
673.504	0.0148548
673.582	0.0148686
673.660	0.0147691
673.738	0.0148542
673.817	0.0146632
673.895	0.0147449
673.973	0.0148074
674.051	0.0147425
674.129	0.0148015
674.207	0.0148074
674.285	0.0147314
674.363	0.0149095
674.442	0.0148209
674.520	0.0148486
674.598	0.0149334
674.676	0.0147262
674.754	0.0147472
674.832	0.0147736
674.910	0.0148283
674.988	0.0146844
675.067	0.0147063
675.145	0.0148567
675.223	0.0148361
675.301	0.0147607
675.379	0.0148940
675.457	0.0147427
675.535	0.0148032
675.613	0.0147841
675.692	0.0148922
675.770	0.0148896
675.848	0.0148131
675.926	0.0146997
676.004	0.0147005
676.082	0.0147230
676.160	0.0145526
676.238	0.0146881
676.317	0.0146897
676.395	0.0146333
676.473	0.0145927
676.551	0.0146891
676.629	0.0148075
676.707	0.0147234
676.785	0.0146447
676.863	0.0148277
676.942	0.0147698
677.020	0.0145509
677.098	0.0147676
677.176	0.0147101
677.254	0.0146970
677.332	0.0146676
677.410	0.0147514
677.488	0.0147145
677.567	0.0146338
677.645	0.0147224
677.723	0.0146439
677.801	0.0147763
677.879	0.0147146
677.957	0.0147516
678.035	0.0147920
678.113	0.0148144
678.192	0.0148115
678.270	0.0147099
678.348	0.0147932
678.426	0.0147177
678.504	0.0148328
678.582	0.0146609
678.660	0.0146624
678.738	0.0147906
678.817	0.0148221
678.895	0.0148823
678.973	0.0146651
679.051	0.0147389
679.129	0.0147268
679.207	0.0148221
679.285	0.0148285
679.363	0.0148389
679.442	0.0147148
679.520	0.0147453
679.598	0.0147546
679.676	0.0148749
679.754	0.0148816
679.832	0.0148251
679.910	0.0148797
679.988	0.0147694
680.067	0.0149020
680.145	0.0149419
680.223	0.0148133
680.301	0.0146811
680.379	0.0147076
680.457	0.0149943
680.535	0.0147963
680.613	0.0148615
680.692	0.0148514
680.770	0.0149003
680.848	0.0148501
680.926	0.0149324
681.004	0.0149349
681.082	0.0149265
681.160	0.0148584
681.238	0.0150447
681.317	0.0149837
681.395	0.0148120
681.473	0.0149920
681.551	0.0149586
681.629	0.0149175
681.707	0.0149024
681.785	0.0149964
681.863	0.0149790
681.942	0.0148647
682.020	0.0149850
682.098	0.0150249
682.176	0.0149805
682.254	0.0149677
682.332	0.0149610
682.410	0.0149804
682.488	0.0150494
682.567	0.0149549
682.645	0.0150172
682.723	0.0149371
682.801	0.0149832
682.879	0.0149223
682.957	0.0149336
683.035	0.0151146
683.113	0.0150698
683.192	0.0150268
683.270	0.0149958
683.348	0.0149224
683.426	0.0149470
683.504	0.0148729
683.582	0.0149353
683.660	0.0148559
683.738	0.0148845
683.817	0.0150278
683.895	0.0148723
683.973	0.0148483
684.051	0.0148804
684.129	0.0147937
684.207	0.0148586
684.285	0.0148085
684.363	0.0149013
684.442	0.0147968
684.520	0.0149406
684.598	0.0150008
684.676	0.0148967
684.754	0.0148367
684.832	0.0148458
684.910	0.0148602
684.988	0.0148948
685.067	0.0148455
685.145	0.0148677
685.223	0.0148606
685.301	0.0148433
685.379	0.0147206
685.457	0.0149007
685.535	0.0148296
685.613	0.0149200
685.692	0.0147666
685.770	0.0147538
685.848	0.0147107
685.926	0.0148458
686.004	0.0147318
686.082	0.0147729
686.160	0.0147214
686.238	0.0147186
686.317	0.0147551
686.395	0.0148416
686.473	0.0146588
686.551	0.0147176
686.629	0.0147742
686.707	0.0147684
686.785	0.0146546
686.863	0.0145439
686.942	0.0146438
687.020	0.0147037
687.098	0.0145403
687.176	0.0147390
687.254	0.0146616
687.332	0.0146847
687.410	0.0146049
687.488	0.0146299
687.567	0.0147723
687.645	0.0146689
687.723	0.0146183
687.801	0.0145525
687.879	0.0147220
687.957	0.0147822
688.035	0.0146436
688.113	0.0146306
688.192	0.0147416
688.270	0.0148139
688.348	0.0146994
688.426	0.0146107
688.504	0.0147314
688.582	0.0148391
688.660	0.0146938
688.738	0.0146467
688.817	0.0147664
688.895	0.0147250
688.973	0.0147396
689.051	0.0146343
689.129	0.0146612
689.207	0.0146961
689.285	0.0149404
689.363	0.0147483
689.442	0.0147375
689.520	0.0147725
689.598	0.0147254
689.676	0.0146936
689.754	0.0147368
689.832	0.0146072
689.910	0.0147344
689.988	0.0148081
690.067	0.0149039
690.145	0.0148418
690.223	0.0147563
690.301	0.0146402
690.379	0.0149424
690.457	0.0147877
690.535	0.0147723
690.613	0.0147900
690.692	0.0147414
690.770	0.0148940
690.848	0.0148724
690.926	0.0147724
691.004	0.0148329
691.082	0.0147702
691.160	0.0148223
691.238	0.0148935
691.317	0.0148734
691.395	0.0148396
691.473	0.0147539
691.551	0.0147693
691.629	0.0149940
691.707	0.0148800
691.785	0.0147344
691.863	0.0148113
691.942	0.0149193
692.020	0.0148038
692.098	0.0147221
692.176	0.0148260
692.254	0.0148981
692.332	0.0148235
692.410	0.0146249
692.488	0.0147774
692.567	0.0148159
692.645	0.0149651
692.723	0.0148683
692.801	0.0149411
692.879	0.0149239
692.957	0.0147280
693.035	0.0148032
693.113	0.0148589
693.192	0.0148706
693.270	0.0148104
693.348	0.0148243
693.426	0.0147704
693.504	0.0146805
693.582	0.0146683
693.660	0.0148929
693.738	0.0148186
693.817	0.0148970
693.895	0.0148293
693.973	0.0148510
694.051	0.0149355
694.129	0.0148663
694.207	0.0148482
694.285	0.0148329
694.363	0.0149254
694.442	0.0147766
694.520	0.0147282
694.598	0.0148743
694.676	0.0149697
694.754	0.0150092
694.832	0.0149017
694.910	0.0148378
694.988	0.0149788
695.067	0.0149284
695.145	0.0148106
695.223	0.0150472
695.301	0.0149265
695.379	0.0147562
695.457	0.0146507
695.535	0.0147159
695.613	0.0145436
695.692	0.0144975
695.770	0.0144214
695.848	0.0145930
695.926	0.0144777
696.004	0.0145486
696.082	0.0146275
696.160	0.0147242
696.238	0.0147800
696.317	0.0149529
696.395	0.0149895
696.473	0.0150173
696.551	0.0149692
696.629	0.0152130
696.707	0.0152440
696.785	0.0151168
696.863	0.0153202
696.942	0.0152194
697.020	0.0150992
697.098	0.0150076
697.176	0.0150448
697.254	0.0148441
697.332	0.0147102
697.410	0.0147020
697.488	0.0146502
697.567	0.0145037
697.645	0.0143452
697.723	0.0144139
697.801	0.0144771
697.879	0.0144278
697.957	0.0142348
698.035	0.0143291
698.113	0.0144310
698.192	0.0144004
698.270	0.0144032
698.348	0.0144795
698.426	0.0144418
698.504	0.0145648
698.582	0.0147929
698.660	0.0146735
698.738	0.0147996
698.817	0.0149126
698.895	0.0148494
698.973	0.0149842
699.051	0.0151627
699.129	0.0151714
699.207	0.0150609
699.285	0.0153211
699.363	0.0153947
699.442	0.0152471
699.520	0.0152515
699.598	0.0152496
699.676	0.0151114
699.754	0.0149994
699.832	0.0150165
699.910	0.0149242
699.988	0.0149402
700.067	0.0147388
700.145	0.0146579
700.223	0.0146609
700.301	0.0146343
700.379	0.0144460
700.457	0.0142695
700.535	0.0142883
700.613	0.0142559
700.692	0.0140774
700.770	0.0143450
700.848	0.0143639
700.926	0.0143007
701.004	0.0145390
701.082	0.0145666
701.160	0.0146397
701.238	0.0145670
701.317	0.0147489
701.395	0.0150814
701.473	0.0151543
701.551	0.0150989
701.629	0.0152161
701.707	0.0153696
701.785	0.0154299
701.863	0.0152668
701.942	0.0149610
702.020	0.0152289
702.098	0.0149930
702.176	0.0149834
702.254	0.0149075
702.332	0.0146693
702.410	0.0146540
702.488	0.0144126
702.567	0.0144086
702.645	0.0143485
702.723	0.0144044
702.801	0.0143123
702.879	0.0143439
702.957	0.0145588
703.035	0.0146388
703.113	0.0148460
703.192	0.0148878
703.270	0.0148616
703.348	0.0148652
703.426	0.0150983
703.504	0.0152068
703.582	0.0152222
703.660	0.0152052
703.738	0.0151896
703.817	0.0151153
703.895	0.0151337
703.973	0.0150935
704.051	0.0150230
704.129	0.0147585
704.207	0.0147289
704.285	0.0147771
704.363	0.0147490
704.442	0.0147415
704.520	0.0145646
704.598	0.0144984
704.676	0.0145796
704.754	0.0146269
704.832	0.0146634
704.910	0.0147782
704.988	0.0147815
705.067	0.0148347
705.145	0.0147972
705.223	0.0150805
705.301	0.0151116
705.379	0.0150256
705.457	0.0149518
705.535	0.0150836
705.613	0.0150797
705.692	0.0148727
705.770	0.0148164
705.848	0.0147274
705.926	0.0146624
706.004	0.0145178
706.082	0.0144763
706.160	0.0145335
706.238	0.0144605
706.317	0.0143117
706.395	0.0144105
706.473	0.0145786
706.551	0.0144996
706.629	0.0146910
706.707	0.0147085
706.785	0.0146859
706.863	0.0147002
706.942	0.0149246
707.020	0.0148454
707.098	0.0148962
707.176	0.0151096
707.254	0.0151384
707.332	0.0149952
707.410	0.0150806
707.488	0.0150921
707.567	0.0150587
707.645	0.0150118
707.723	0.0151116
707.801	0.0149659
707.879	0.0151540
707.957	0.0150996
708.035	0.0149670
708.113	0.0149915
708.192	0.0150643
708.270	0.0151033
708.348	0.0151546
708.426	0.0150741
708.504	0.0151201
708.582	0.0152761
708.660	0.0153946
708.738	0.0153823
708.817	0.0154123
708.895	0.0152113
708.973	0.0153180
709.051	0.0152428
709.129	0.0152198
709.207	0.0150139
709.285	0.0150148
709.363	0.0149770
709.442	0.0147709
709.520	0.0145490
709.598	0.0147124
709.676	0.0145384
709.754	0.0143701
709.832	0.0143845
709.910	0.0143082
709.988	0.0143356
710.067	0.0143894
710.145	0.0143897
710.223	0.0144397
710.301	0.0144814
710.379	0.0144646
710.457	0.0145374
710.535	0.0147034
710.613	0.0148022
710.692	0.0147321
710.770	0.0149657
710.848	0.0150082
710.926	0.0149709
711.004	0.0151712
711.082	0.0151386
711.160	0.0150341
711.238	0.0152788
711.317	0.0152118
711.395	0.0150297
711.473	0.0150285
711.551	0.0150729
711.629	0.0149255
711.707	0.0148808
711.785	0.0147826
711.863	0.0147243
711.942	0.0146564
712.020	0.0145481
712.098	0.0144621
712.176	0.0145845
712.254	0.0145295
712.332	0.0144127
712.410	0.0145263
712.488	0.0144987
712.567	0.0144526
712.645	0.0144611
712.723	0.0144857
712.801	0.0145538
712.879	0.0145272
712.957	0.0146889
713.035	0.0146701
713.113	0.0146913
713.192	0.0148115
713.270	0.0149008
713.348	0.0149690
713.426	0.0150628
713.504	0.0149491
713.582	0.0150244
713.660	0.0151639
713.738	0.0150624
713.817	0.0150866
713.895	0.0150930
713.973	0.0151956
714.051	0.0150169
714.129	0.0150910
714.207	0.0149747
714.285	0.0148624
714.363	0.0147751
714.442	0.0146845
714.520	0.0147971
714.598	0.0147099
714.676	0.0146889
714.754	0.0145358
714.832	0.0147133
714.910	0.0146934
714.988	0.0146896
715.067	0.0145599
715.145	0.0144616
715.223	0.0144889
715.301	0.0144800
715.379	0.0145539
715.457	0.0145671
715.535	0.0146496
715.613	0.0145911
715.692	0.0144753
715.770	0.0145406
715.848	0.0145571
715.926	0.0145311
716.004	0.0144550
716.082	0.0145432
716.160	0.0145707
716.238	0.0146907
716.317	0.0145801
716.395	0.0145948
716.473	0.0146385
716.551	0.0145718
716.629	0.0147302
716.707	0.0148103
716.785	0.0148097
716.863	0.0149109
716.942	0.0150041
717.020	0.0150632
717.098	0.0152151
717.176	0.0151627
717.254	0.0150545
717.332	0.0151517
717.410	0.0151264
717.488	0.0150410
717.567	0.0149727
717.645	0.0149364
717.723	0.0150968
717.801	0.0150308
717.879	0.0149396
717.957	0.0147657
718.035	0.0147467
718.113	0.0145975
718.192	0.0148775
718.270	0.0148174
718.348	0.0147449
718.426	0.0146458
718.504	0.0147056
718.582	0.0148537
718.660	0.0147924
718.738	0.0149366
718.817	0.0148034
718.895	0.0148064
718.973	0.0150233
719.051	0.0148101
719.129	0.0148934
719.207	0.0149022
719.285	0.0148981
719.363	0.0148489
719.442	0.0147200
719.520	0.0148966
719.598	0.0148967
719.676	0.0146913
719.754	0.0147912
719.832	0.0147777
719.910	0.0146015
719.988	0.0146568
720.067	0.0146166
720.145	0.0146822
720.223	0.0146028
720.301	0.0147521
720.379	0.0146130
720.457	0.0146960
720.535	0.0147268
720.613	0.0147288
720.692	0.0148355
720.770	0.0148683
720.848	0.0147834
720.926	0.0147283
721.004	0.0146928
721.082	0.0147199
721.160	0.0147298
721.238	0.0147865
721.317	0.0148170
721.395	0.0146979
721.473	0.0146966
721.551	0.0149559
721.629	0.0147597
721.707	0.0148732
721.785	0.0146725
721.863	0.0147360
721.942	0.0147935
722.020	0.0148463
722.098	0.0149741
722.176	0.0148629
722.254	0.0149094
722.332	0.0149529
722.410	0.0149592
722.488	0.0152874
722.567	0.0149969
722.645	0.0150575
722.723	0.0151092
722.801	0.0151755
722.879	0.0151793
722.957	0.0151447
723.035	0.0150776
723.113	0.0151753
723.192	0.0151495
723.270	0.0150290
723.348	0.0150965
723.426	0.0149070
723.504	0.0148841
723.582	0.0148205
723.660	0.0148824
723.738	0.0147740
723.817	0.0147206
723.895	0.0146968
723.973	0.0145782
724.051	0.0144850
724.129	0.0145206
724.207	0.0146210
724.285	0.0144882
724.363	0.0145472
724.442	0.0146529
724.520	0.0144827
724.598	0.0145161
724.676	0.0146557
724.754	0.0146738
724.832	0.0146379
724.910	0.0148472
724.988	0.0149436
725.067	0.0148696
725.145	0.0147748
725.223	0.0148853
725.301	0.0148909
725.379	0.0148972
725.457	0.0149025
725.535	0.0148547
725.613	0.0147266
725.692	0.0147466
725.770	0.0148477
725.848	0.0147657
725.926	0.0148356
726.004	0.0148382
726.082	0.0147939
726.160	0.0147295
726.238	0.0148040
726.317	0.0148407
726.395	0.0148058
726.473	0.0148048
726.551	0.0147387
726.629	0.0147794
726.707	0.0147303
726.785	0.0148326
726.863	0.0147288
726.942	0.0147605
727.020	0.0148782
727.098	0.0147713
727.176	0.0148931
727.254	0.0148785
727.332	0.0149973
727.410	0.0149133
727.488	0.0148951
727.567	0.0149853
727.645	0.0149358
727.723	0.0148617
727.801	0.0148965
727.879	0.0148418
727.957	0.0147576
728.035	0.0146869
728.113	0.0147700
728.192	0.0145636
728.270	0.0145585
728.348	0.0146063
728.426	0.0146128
728.504	0.0145631
728.582	0.0145206
728.660	0.0146745
728.738	0.0145151
728.817	0.0145372
728.895	0.0147997
728.973	0.0146870
729.051	0.0147508
729.129	0.0147866
729.207	0.0147396
729.285	0.0149195
729.363	0.0149189
729.442	0.0149409
729.520	0.0149927
729.598	0.0149453
729.676	0.0149661
729.754	0.0149563
729.832	0.0150097
729.910	0.0149525
729.988	0.0148978
730.067	0.0147881
730.145	0.0147717
730.223	0.0148020
730.301	0.0148380
730.379	0.0146118
730.457	0.0148391
730.535	0.0144859
730.613	0.0145765
730.692	0.0145633
730.770	0.0146976
730.848	0.0147407
730.926	0.0147369
731.004	0.0146179
731.082	0.0147552
731.160	0.0147872
731.238	0.0147912
731.317	0.0148880
731.395	0.0148349
731.473	0.0149799
731.551	0.0150440
731.629	0.0151308
731.707	0.0150951
731.785	0.0151456
731.863	0.0151540
731.942	0.0152699
732.020	0.0152219
732.098	0.0151568
732.176	0.0151677
732.254	0.0151190
732.332	0.0150817
732.410	0.0150717
732.488	0.0150933
732.567	0.0150763
732.645	0.0150986
732.723	0.0148986
732.801	0.0150719
732.879	0.0149082
732.957	0.0148845
733.035	0.0149099
733.113	0.0148059
733.192	0.0148274
733.270	0.0148336
733.348	0.0147711
733.426	0.0148236
733.504	0.0147057
733.582	0.0146693
733.660	0.0146633
733.738	0.0146328
733.817	0.0146229
733.895	0.0146406
733.973	0.0147761
734.051	0.0147533
734.129	0.0147657
734.207	0.0148145
734.285	0.0148133
734.363	0.0149210
734.442	0.0149862
734.520	0.0148742
734.598	0.0149629
734.676	0.0147523
734.754	0.0148027
734.832	0.0148558
734.910	0.0149017
734.988	0.0147257
735.067	0.0147863
735.145	0.0147437
735.223	0.0148390
735.301	0.0146964
735.379	0.0148174
735.457	0.0147873
735.535	0.0147630
735.613	0.0148315
735.692	0.0147960
735.770	0.0147765
735.848	0.0148311
735.926	0.0147174
736.004	0.0148433
736.082	0.0148575
736.160	0.0149402
736.238	0.0151012
736.317	0.0148874
736.395	0.0150314
736.473	0.0151043
736.551	0.0151224
736.629	0.0149451
736.707	0.0149608
736.785	0.0150416
736.863	0.0149984
736.942	0.0148435
737.020	0.0149835
737.098	0.0148814
737.176	0.0147903
737.254	0.0148077
737.332	0.0147094
737.410	0.0147211
737.488	0.0147296
737.567	0.0148050
737.645	0.0146993
737.723	0.0147180
737.801	0.0145939
737.879	0.0146503
737.957	0.0146975
738.035	0.0147228
738.113	0.0146543
738.192	0.0145792
738.270	0.0147925
738.348	0.0148356
738.426	0.0148784
738.504	0.0147032
738.582	0.0149569
738.660	0.0148510
738.738	0.0147435
738.817	0.0149706
738.895	0.0149479
738.973	0.0149422
739.051	0.0148814
739.129	0.0146988
739.207	0.0147359
739.285	0.0147614
739.363	0.0146941
739.442	0.0147771
739.520	0.0146678
739.598	0.0146816
739.676	0.0146026
739.754	0.0146807
739.832	0.0147713
739.910	0.0146297
739.988	0.0145918
740.067	0.0145134
740.145	0.0147198
740.223	0.0146692
740.301	0.0148473
740.379	0.0148227
740.457	0.0146824
740.535	0.0148084
740.613	0.0148169
740.692	0.0149567
740.770	0.0148663
740.848	0.0149120
740.926	0.0149078
741.004	0.0150675
741.082	0.0151497
741.160	0.0150902
741.238	0.0150815
741.317	0.0151603
741.395	0.0150738
741.473	0.0149726
741.551	0.0149059
741.629	0.0149252
741.707	0.0149787
741.785	0.0149314
741.863	0.0150110
741.942	0.0148493
742.020	0.0149789
742.098	0.0148606
742.176	0.0147161
742.254	0.0147900
742.332	0.0146458
742.410	0.0146497
742.488	0.0147854
742.567	0.0147415
742.645	0.0147189
742.723	0.0145647
742.801	0.0146446
742.879	0.0147999
742.957	0.0147296
743.035	0.0147508
743.113	0.0148586
743.192	0.0147694
743.270	0.0148479
743.348	0.0150090
743.426	0.0149609
743.504	0.0150338
743.582	0.0150090
743.660	0.0150552
743.738	0.0150699
743.817	0.0150340
743.895	0.0150840
743.973	0.0149153
744.051	0.0149249
744.129	0.0150055
744.207	0.0149429
744.285	0.0149773
744.363	0.0147605
744.442	0.0147610
744.520	0.0148590
744.598	0.0146907
744.676	0.0146554
744.754	0.0147547
744.832	0.0147666
744.910	0.0147658
744.988	0.0147543
745.067	0.0146685
745.145	0.0147571
745.223	0.0148145
745.301	0.0147651
745.379	0.0147799
745.457	0.0148721
745.535	0.0148288
745.613	0.0149847
745.692	0.0148232
745.770	0.0148580
745.848	0.0149705
745.926	0.0150157
746.004	0.0149905
746.082	0.0149500
746.160	0.0149688
746.238	0.0149197
746.317	0.0150465
746.395	0.0148859
746.473	0.0148366
746.551	0.0148798
746.629	0.0147771
746.707	0.0147850
746.785	0.0148015
746.863	0.0148769
746.942	0.0148714
747.020	0.0147255
747.098	0.0147620
747.176	0.0147791
747.254	0.0147942
747.332	0.0148215
747.410	0.0147001
747.488	0.0146031
747.567	0.0147534
747.645	0.0148161
747.723	0.0147392
747.801	0.0148104
747.879	0.0148848
747.957	0.0147332
748.035	0.0148210
748.113	0.0149027
748.192	0.0147623
748.270	0.0147105
748.348	0.0147830
748.426	0.0146841
748.504	0.0147659
748.582	0.0148966
748.660	0.0148035
748.738	0.0149182
748.817	0.0147798
748.895	0.0149564
748.973	0.0148524
749.051	0.0149914
749.129	0.0148673
749.207	0.0149220
749.285	0.0149554
749.363	0.0148342
749.442	0.0149666
749.520	0.0150856
749.598	0.0147855
749.676	0.0146307
749.754	0.0147541
749.832	0.0147386
749.910	0.0145918
749.988	0.0146839
750.067	0.0147744
750.145	0.0145879
750.223	0.0145713
750.301	0.0145468
750.379	0.0145216
750.457	0.0145943
750.535	0.0146899
750.613	0.0149093
750.692	0.0147545
750.770	0.0146540
750.848	0.0148685
750.926	0.0147315
751.004	0.0148940
751.082	0.0148236
751.160	0.0149126
751.238	0.0149577
751.317	0.0150355
751.395	0.0149433
751.473	0.0150146
751.551	0.0149239
751.629	0.0147989
751.707	0.0148802
751.785	0.0149758
751.863	0.0149004
751.942	0.0148744
752.020	0.0146875
752.098	0.0149061
752.176	0.0149229
752.254	0.0147571
752.332	0.0148009
752.410	0.0147681
752.488	0.0147468
752.567	0.0146622
752.645	0.0147343
752.723	0.0146561
752.801	0.0147217
752.879	0.0148309
752.957	0.0147585
753.035	0.0146976
753.113	0.0148215
753.192	0.0147806
753.270	0.0147433
753.348	0.0148125
753.426	0.0147410
753.504	0.0148055
753.582	0.0148119
753.660	0.0149693
753.738	0.0149850
753.817	0.0147845
753.895	0.0149633
753.973	0.0149439
754.051	0.0150092
754.129	0.0149393
754.207	0.0148393
754.285	0.0148180
754.363	0.0147502
754.442	0.0147268
754.520	0.0148875
754.598	0.0148260
754.676	0.0148204
754.754	0.0148193
754.832	0.0147394
754.910	0.0147479
754.988	0.0148203
755.067	0.0147930
755.145	0.0146767
755.223	0.0146077
755.301	0.0146530
755.379	0.0146236
755.457	0.0146268
755.535	0.0146668
755.613	0.0147265
755.692	0.0148759
755.770	0.0148920
755.848	0.0147263
755.926	0.0149152
756.004	0.0147661
756.082	0.0147827
756.160	0.0150119
756.238	0.0149262
756.317	0.0149570
756.395	0.0148627
756.473	0.0148891
756.551	0.0150635
756.629	0.0149761
756.707	0.0149621
756.785	0.0151002
756.863	0.0150950
756.942	0.0150018
757.020	0.0149570
757.098	0.0149973
757.176	0.0149870
757.254	0.0149418
757.332	0.0148681
757.410	0.0147829
757.488	0.0149922
757.567	0.0148756
757.645	0.0147843
757.723	0.0147898
757.801	0.0146877
757.879	0.0148003
757.957	0.0147931
758.035	0.0147556
758.113	0.0146414
758.192	0.0147161
758.270	0.0147546
758.348	0.0148250
758.426	0.0147142
758.504	0.0147775
758.582	0.0148164
758.660	0.0147704
758.738	0.0147746
758.817	0.0148103
758.895	0.0148944
758.973	0.0149865
759.051	0.0147977
759.129	0.0148063
759.207	0.0148549
759.285	0.0148579
759.363	0.0147601
759.442	0.0148918
759.520	0.0148933
759.598	0.0148849
759.676	0.0148538
759.754	0.0147745
759.832	0.0148320
759.910	0.0148759
759.988	0.0148174
760.067	0.0148073
760.145	0.0148301
760.223	0.0148961
760.301	0.0148443
760.379	0.0147649
760.457	0.0148254
760.535	0.0147472
760.613	0.0146738
760.692	0.0147115
760.770	0.0147430
760.848	0.0147874
760.926	0.0148752
761.004	0.0146438
761.082	0.0147022
761.160	0.0148415
761.238	0.0148821
761.317	0.0146969
761.395	0.0147154
761.473	0.0148281
761.551	0.0149761
761.629	0.0147946
761.707	0.0150658
761.785	0.0151208
761.863	0.0149344
761.942	0.0148212
762.020	0.0148510
762.098	0.0148728
762.176	0.0148740
762.254	0.0149694
762.332	0.0148387
762.410	0.0149041
762.488	0.0147855
762.567	0.0147321
762.645	0.0149010
762.723	0.0147820
762.801	0.0147858
762.879	0.0147876
762.957	0.0147913
763.035	0.0147665
763.113	0.0146824
763.192	0.0147508
763.270	0.0148211
763.348	0.0147334
763.426	0.0147329
763.504	0.0147567
763.582	0.0147701
763.660	0.0147973
763.738	0.0148656
763.817	0.0147687
763.895	0.0147929
763.973	0.0148441
764.051	0.0150645
764.129	0.0148024
764.207	0.0148010
764.285	0.0148141
764.363	0.0148929
764.442	0.0149269
764.520	0.0147314
764.598	0.0148318
764.676	0.0149828
764.754	0.0149789
764.832	0.0147583
764.910	0.0147701
764.988	0.0147820
765.067	0.0148554
765.145	0.0148463
765.223	0.0148028
765.301	0.0148650
765.379	0.0148133
765.457	0.0148106
765.535	0.0148518
765.613	0.0148022
765.692	0.0148093
765.770	0.0148597
765.848	0.0147713
765.926	0.0148325
766.004	0.0148009
766.082	0.0146662
766.160	0.0147341
766.238	0.0148718
766.317	0.0148238
766.395	0.0147468
766.473	0.0148969
766.551	0.0149190
766.629	0.0148450
766.707	0.0148158
766.785	0.0148666
766.863	0.0149592
766.942	0.0149373
767.020	0.0149361
767.098	0.0149486
767.176	0.0149714
767.254	0.0148291
767.332	0.0149606
767.410	0.0148283
767.488	0.0148762
767.567	0.0148332
767.645	0.0148763
767.723	0.0149879
767.801	0.0148556
767.879	0.0148685
767.957	0.0147372
768.035	0.0148627
768.113	0.0149010
768.192	0.0148415
768.270	0.0148588
768.348	0.0146948
768.426	0.0148592
768.504	0.0148637
768.582	0.0148510
768.660	0.0147688
768.738	0.0149207
768.817	0.0149349
768.895	0.0148083
768.973	0.0146664
769.051	0.0148254
769.129	0.0149007
769.207	0.0149178
769.285	0.0149586
769.363	0.0148701
769.442	0.0149494
769.520	0.0149778
769.598	0.0148359
769.676	0.0149994
769.754	0.0149464
769.832	0.0147690
769.910	0.0149851
769.988	0.0148863
770.067	0.0149824
770.145	0.0148455
770.223	0.0148331
770.301	0.0148949
770.379	0.0148432
770.457	0.0148347
770.535	0.0149429
770.613	0.0148533
770.692	0.0148566
770.770	0.0150301
770.848	0.0147337
770.926	0.0147703
771.004	0.0148226
771.082	0.0147401
771.160	0.0148151
771.238	0.0146877
771.317	0.0148504
771.395	0.0149815
771.473	0.0148309
771.551	0.0146545
771.629	0.0148637
771.707	0.0148657
771.785	0.0149040
771.863	0.0149268
771.942	0.0149034
772.020	0.0149415
772.098	0.0149709
772.176	0.0148441
772.254	0.0147028
772.332	0.0148481
772.410	0.0148013
772.488	0.0148725
772.567	0.0148103
772.645	0.0147441
772.723	0.0147588
772.801	0.0148366
772.879	0.0147247
772.957	0.0147149
773.035	0.0148229
773.113	0.0147078
773.192	0.0148138
773.270	0.0147231
773.348	0.0147322
773.426	0.0146043
773.504	0.0146931
773.582	0.0147446
773.660	0.0147252
773.738	0.0147037
773.817	0.0147327
773.895	0.0148034
773.973	0.0147881
774.051	0.0148804
774.129	0.0147758
774.207	0.0146233
774.285	0.0148096
774.363	0.0148280
774.442	0.0148704
774.520	0.0146409
774.598	0.0147787
774.676	0.0148273
774.754	0.0147814
774.832	0.0147630
774.910	0.0147993
774.988	0.0148253
775.067	0.0148241
775.145	0.0147072
775.223	0.0145590
775.301	0.0146304
775.379	0.0147706
775.457	0.0147098
775.535	0.0147084
775.613	0.0148697
775.692	0.0147440
775.770	0.0148061
775.848	0.0148530
775.926	0.0149245
776.004	0.0149026
776.082	0.0148399
776.160	0.0148280
776.238	0.0148544
776.317	0.0148636
776.395	0.0149496
776.473	0.0149441
776.551	0.0148253
776.629	0.0149190
776.707	0.0149529
776.785	0.0149667
776.863	0.0148317
776.942	0.0148443
777.020	0.0148882
777.098	0.0147821
777.176	0.0148837
777.254	0.0149754
777.332	0.0149639
777.410	0.0149686
777.488	0.0148291
777.567	0.0149461
777.645	0.0148721
777.723	0.0149901
777.801	0.0150244
777.879	0.0148060
777.957	0.0147985
778.035	0.0149038
778.113	0.0150117
778.192	0.0147388
778.270	0.0147691
778.348	0.0147884
778.426	0.0147960
778.504	0.0147427
778.582	0.0148499
778.660	0.0147504
778.738	0.0148613
778.817	0.0148123
778.895	0.0147289
778.973	0.0147927
779.051	0.0149552
779.129	0.0148129
779.207	0.0147172
779.285	0.0147363
779.363	0.0149283
779.442	0.0148553
779.520	0.0148744
779.598	0.0149519
779.676	0.0149329
779.754	0.0147456
779.832	0.0149389
779.910	0.0149312
779.988	0.0149895
780.067	0.0149995
780.145	0.0150090
780.223	0.0149042
780.301	0.0148323
780.379	0.0149897
780.457	0.0149382
780.535	0.0148679
780.613	0.0148238
780.692	0.0147935
780.770	0.0146593
780.848	0.0146967
780.926	0.0147253
781.004	0.0149145
781.082	0.0148429
781.160	0.0147275
781.238	0.0147121
781.317	0.0148759
781.395	0.0147623
781.473	0.0148656
781.551	0.0149328
781.629	0.0148129
781.707	0.0147810
781.785	0.0147894
781.863	0.0148598
781.942	0.0148925
782.020	0.0149458
782.098	0.0148898
782.176	0.0149613
782.254	0.0149924
782.332	0.0150341
782.410	0.0148438
782.488	0.0147845
782.567	0.0149540
782.645	0.0150066
782.723	0.0149270
782.801	0.0149574
782.879	0.0150642
782.957	0.0148212
783.035	0.0149554
783.113	0.0149723
783.192	0.0149042
783.270	0.0146886
783.348	0.0148066
783.426	0.0148302
783.504	0.0147961
783.582	0.0147943
783.660	0.0146578
783.738	0.0148138
783.817	0.0146796
783.895	0.0146612
783.973	0.0148102
784.051	0.0147263
784.129	0.0147482
784.207	0.0147509
784.285	0.0147571
784.363	0.0148454
784.442	0.0147995
784.520	0.0147636
784.598	0.0148455
784.676	0.0148981
784.754	0.0147376
784.832	0.0148418
784.910	0.0148718
784.988	0.0148412
785.067	0.0148667
785.145	0.0148515
785.223	0.0149325
785.301	0.0147668
785.379	0.0148143
785.457	0.0148179
785.535	0.0148387
785.613	0.0148929
785.692	0.0148006
785.770	0.0146817
785.848	0.0146690
785.926	0.0146571
786.004	0.0147058
786.082	0.0147495
786.160	0.0147895
786.238	0.0147337
786.317	0.0148167
786.395	0.0148389
786.473	0.0147984
786.551	0.0146593
786.629	0.0146169
786.707	0.0147550
786.785	0.0149046
786.863	0.0147160
786.942	0.0146861
787.020	0.0148210
787.098	0.0148377
787.176	0.0148086
787.254	0.0148311
787.332	0.0149764
787.410	0.0148270
787.488	0.0148304
787.567	0.0147838
787.645	0.0148355
787.723	0.0149188
787.801	0.0147823
787.879	0.0147289
787.957	0.0148129
788.035	0.0149408
788.113	0.0147746
788.192	0.0149541
788.270	0.0150972
788.348	0.0148072
788.426	0.0148978
788.504	0.0146941
788.582	0.0148389
788.660	0.0148625
788.738	0.0148231
788.817	0.0147459
788.895	0.0148291
788.973	0.0148956
789.051	0.0148755
789.129	0.0148240
789.207	0.0146885
789.285	0.0148358
789.363	0.0148236
789.442	0.0147661
789.520	0.0146465
789.598	0.0146972
789.676	0.0146781
789.754	0.0147704
789.832	0.0148026
789.910	0.0146966
789.988	0.0147938
790.067	0.0147552
790.145	0.0148927
790.223	0.0148717
790.301	0.0150497
790.379	0.0148589
790.457	0.0148580
790.535	0.0149599
790.613	0.0150370
790.692	0.0150254
790.770	0.0149126
790.848	0.0148194
790.926	0.0148761
791.004	0.0149112
791.082	0.0149056
791.160	0.0149532
791.238	0.0148861
791.317	0.0148768
791.395	0.0149760
791.473	0.0149986
791.551	0.0147798
791.629	0.0148314
791.707	0.0147722
791.785	0.0147781
791.863	0.0147334
791.942	0.0148344
792.020	0.0148431
792.098	0.0147486
792.176	0.0148058
792.254	0.0147608
792.332	0.0146211
792.410	0.0147690
792.488	0.0147071
792.567	0.0147861
792.645	0.0147691
792.723	0.0148009
792.801	0.0147959
792.879	0.0149257
792.957	0.0149277
793.035	0.0148651
793.113	0.0148634
793.192	0.0149786
793.270	0.0149864
793.348	0.0148798
793.426	0.0149818
793.504	0.0148494
793.582	0.0148962
793.660	0.0150080
793.738	0.0149734
793.817	0.0148611
793.895	0.0150300
793.973	0.0150504
794.051	0.0149279
794.129	0.0148544
794.207	0.0148404
794.285	0.0148148
794.363	0.0148939
794.442	0.0148952
794.520	0.0147556
794.598	0.0148019
794.676	0.0146484
794.754	0.0146613
794.832	0.0148228
794.910	0.0148093
794.988	0.0147782
795.067	0.0148209
795.145	0.0149114
795.223	0.0147945
795.301	0.0148213
795.379	0.0147010
795.457	0.0148785
795.535	0.0149271
795.613	0.0148759
795.692	0.0149246
795.770	0.0149506
795.848	0.0148063
795.926	0.0150170
796.004	0.0150540
796.082	0.0149780
796.160	0.0147753
796.238	0.0148775
796.317	0.0150043
796.395	0.0149100
796.473	0.0147689
796.551	0.0149722
796.629	0.0148407
796.707	0.0147945
796.785	0.0147683
796.863	0.0147739
796.942	0.0147742
797.020	0.0147272
797.098	0.0148354
797.176	0.0146604
797.254	0.0147145
797.332	0.0146566
797.410	0.0146359
797.488	0.0146571
797.567	0.0146737
797.645	0.0147290
797.723	0.0147090
797.801	0.0147353
797.879	0.0147659
797.957	0.0148000
798.035	0.0147449
798.113	0.0146233
798.192	0.0148450
798.270	0.0148897
798.348	0.0148054
798.426	0.0147720
798.504	0.0148315
798.582	0.0149169
798.660	0.0147903
798.738	0.0148410
798.817	0.0149702
798.895	0.0148855
798.973	0.0147129
799.051	0.0148459
799.129	0.0148425
799.207	0.0147868
799.285	0.0147124
799.363	0.0147787
799.442	0.0147060
799.520	0.0148075
799.598	0.0147530
799.676	0.0146970
799.754	0.0147320
799.832	0.0147639
799.910	0.0147511
799.988	0.0147121
800.067	0.0148605
800.145	0.0147809
800.223	0.0148335
800.301	0.0148306
800.379	0.0147652
800.457	0.0147078
800.535	0.0149037
800.613	0.0148270
800.692	0.0147965
800.770	0.0148624
800.848	0.0149029
800.926	0.0148316
801.004	0.0149242
801.082	0.0149442
801.160	0.0148610
801.238	0.0149651
801.317	0.0148986
801.395	0.0147079
801.473	0.0148804
801.551	0.0148998
801.629	0.0150437
801.707	0.0149308
801.785	0.0149077
801.863	0.0148804
801.942	0.0147674
802.020	0.0149611
802.098	0.0146511
802.176	0.0148412
802.254	0.0147544
802.332	0.0147340
802.410	0.0149532
802.488	0.0147478
802.567	0.0147992
802.645	0.0148028
802.723	0.0146352
802.801	0.0147036
802.879	0.0148078
802.957	0.0148277
803.035	0.0148653
803.113	0.0147931
803.192	0.0147147
803.270	0.0149368
803.348	0.0148319
803.426	0.0148135
803.504	0.0150210
803.582	0.0148621
803.660	0.0149698
803.738	0.0148882
803.817	0.0147842
803.895	0.0149403
803.973	0.0149181
804.051	0.0149988
804.129	0.0149513
804.207	0.0147953
804.285	0.0148823
804.363	0.0148744
804.442	0.0148396
804.520	0.0148784
804.598	0.0150227
804.676	0.0148834
804.754	0.0148711
804.832	0.0149195
804.910	0.0148544
804.988	0.0147595
805.067	0.0148318
805.145	0.0148926
805.223	0.0149144
805.301	0.0147816
805.379	0.0148547
805.457	0.0148874
805.535	0.0147185
805.613	0.0148875
805.692	0.0147916
805.770	0.0147401
805.848	0.0147518
805.926	0.0148089
806.004	0.0147459
806.082	0.0147903
806.160	0.0147589
806.238	0.0146643
806.317	0.0147557
806.395	0.0146439
806.473	0.0146464
806.551	0.0147662
806.629	0.0147941
806.707	0.0147162
806.785	0.0146353
806.863	0.0147806
806.942	0.0146448
807.020	0.0146069
807.098	0.0147412
807.176	0.0147881
807.254	0.0147643
807.332	0.0147202
807.410	0.0148621
807.488	0.0148045
807.567	0.0148138
807.645	0.0149038
807.723	0.0149077
807.801	0.0148280
807.879	0.0149362
807.957	0.0146559
808.035	0.0149610
808.113	0.0149108
808.192	0.0148948
808.270	0.0149061
808.348	0.0148592
808.426	0.0148203
808.504	0.0148855
808.582	0.0148186
808.660	0.0147414
808.738	0.0146852
808.817	0.0146756
808.895	0.0147945
808.973	0.0146466
809.051	0.0148134
809.129	0.0147745
809.207	0.0146808
809.285	0.0145861
809.363	0.0148134
809.442	0.0149260
809.520	0.0147435
809.598	0.0147697
809.676	0.0148462
809.754	0.0148584
809.832	0.0148366
809.910	0.0148407
809.988	0.0148743
810.067	0.0148574
810.145	0.0148559
810.223	0.0148478
810.301	0.0148394
810.379	0.0148051
810.457	0.0148283
810.535	0.0149072
810.613	0.0148740
810.692	0.0147546
810.770	0.0147336
810.848	0.0147046
810.926	0.0146902
811.004	0.0146569
811.082	0.0147638
811.160	0.0146774
811.238	0.0148524
811.317	0.0146408
811.395	0.0146899
811.473	0.0146935
811.551	0.0147528
811.629	0.0148679
811.707	0.0147874
811.785	0.0146925
811.863	0.0147088
811.942	0.0148940
812.020	0.0147556
812.098	0.0146770
812.176	0.0146111
812.254	0.0147689
812.332	0.0147035
812.410	0.0147208
812.488	0.0146889
812.567	0.0148090
812.645	0.0147777
812.723	0.0147183
812.801	0.0147690
812.879	0.0147468
812.957	0.0148016
813.035	0.0148071
813.113	0.0147594
813.192	0.0147507
813.270	0.0148619
813.348	0.0149185
813.426	0.0147139
813.504	0.0147557
813.582	0.0148746
813.660	0.0148349
813.738	0.0148295
813.817	0.0148439
813.895	0.0148261
813.973	0.0149783
814.051	0.0150133
814.129	0.0148412
814.207	0.0148927
814.285	0.0149305
814.363	0.0149615
814.442	0.0147280
814.520	0.0148912
814.598	0.0148950
814.676	0.0148827
814.754	0.0148828
814.832	0.0147807
814.910	0.0147720
814.988	0.0148940
815.067	0.0147924
815.145	0.0148926
815.223	0.0149768
815.301	0.0148645
815.379	0.0148758
815.457	0.0148386
815.535	0.0148891
815.613	0.0149205
815.692	0.0148692
815.770	0.0148376
815.848	0.0148093
815.926	0.0148149
816.004	0.0148827
816.082	0.0148710
816.160	0.0149511
816.238	0.0148887
816.317	0.0148583
816.395	0.0149377
816.473	0.0148481
816.551	0.0148747
816.629	0.0146918
816.707	0.0149149
816.785	0.0148176
816.863	0.0148404
816.942	0.0149625
817.020	0.0148654
817.098	0.0148943
817.176	0.0147411
817.254	0.0148459
817.332	0.0149111
817.410	0.0149056
817.488	0.0147739
817.567	0.0149222
817.645	0.0147310
817.723	0.0146935
817.801	0.0147702
817.879	0.0147816
817.957	0.0148657
818.035	0.0147816
818.113	0.0147179
818.192	0.0148140
818.270	0.0148859
818.348	0.0147999
818.426	0.0146307
818.504	0.0147913
818.582	0.0147296
818.660	0.0147833
818.738	0.0146339
818.817	0.0146473
818.895	0.0148228
818.973	0.0148056
819.051	0.0147752
819.129	0.0147663
819.207	0.0147387
819.285	0.0147427
819.363	0.0148309
819.442	0.0149540
819.520	0.0148624
819.598	0.0148602
819.676	0.0148474
819.754	0.0148586
819.832	0.0147389
819.910	0.0147740
819.988	0.0148795
820.067	0.0148299
820.145	0.0147712
820.223	0.0148932
820.301	0.0148205
820.379	0.0149359
820.457	0.0148014
820.535	0.0148880
820.613	0.0148486
820.692	0.0147164
820.770	0.0147364
820.848	0.0147287
820.926	0.0148222
821.004	0.0147460
821.082	0.0146933
821.160	0.0147189
821.238	0.0148624
821.317	0.0147498
821.395	0.0148874
821.473	0.0147845
821.551	0.0148661
821.629	0.0148435
821.707	0.0149617
821.785	0.0150259
821.863	0.0149168
821.942	0.0147974
822.020	0.0149738
822.098	0.0149594
822.176	0.0148374
822.254	0.0149258
822.332	0.0149855
822.410	0.0148901
822.488	0.0148809
822.567	0.0148354
822.645	0.0149061
822.723	0.0147349
822.801	0.0148344
822.879	0.0148104
822.957	0.0147649
823.035	0.0148508
823.113	0.0147529
823.192	0.0148090
823.270	0.0148373
823.348	0.0147447
823.426	0.0147391
823.504	0.0147911
823.582	0.0148049
823.660	0.0146838
823.738	0.0147461
823.817	0.0147766
823.895	0.0149451
823.973	0.0149361
824.051	0.0148062
824.129	0.0148229
824.207	0.0148589
824.285	0.0148081
824.363	0.0148299
824.442	0.0147389
824.520	0.0147901
824.598	0.0148817
824.676	0.0148537
824.754	0.0147547
824.832	0.0147706
824.910	0.0146745
824.988	0.0148075
825.067	0.0147103
825.145	0.0147694
825.223	0.0147931
825.301	0.0148312
825.379	0.0147976
825.457	0.0148259
825.535	0.0147867
825.613	0.0147376
825.692	0.0148018
825.770	0.0146674
825.848	0.0147368
825.926	0.0148541
826.004	0.0147752
826.082	0.0148409
826.160	0.0147900
826.238	0.0147047
826.317	0.0149317
826.395	0.0148320
826.473	0.0147256
826.551	0.0148003
826.629	0.0148511
826.707	0.0148569
826.785	0.0147267
826.863	0.0149249
826.942	0.0147551
827.020	0.0146755
827.098	0.0148813
827.176	0.0147955
827.254	0.0147614
827.332	0.0148110
827.410	0.0149249
827.488	0.0146914
827.567	0.0146429
827.645	0.0146441
827.723	0.0149065
827.801	0.0147135
827.879	0.0147751
827.957	0.0147392
828.035	0.0148235
828.113	0.0149259
828.192	0.0148348
828.270	0.0147691
828.348	0.0149587
828.426	0.0147865
828.504	0.0147927
828.582	0.0148643
828.660	0.0148173
828.738	0.0146944
828.817	0.0148063
828.895	0.0147765
828.973	0.0147953
829.051	0.0149489
829.129	0.0147940
829.207	0.0148135
829.285	0.0147278
829.363	0.0148476
829.442	0.0147340
829.520	0.0148779
829.598	0.0148650
829.676	0.0148677
829.754	0.0147437
829.832	0.0148557
829.910	0.0150027
829.988	0.0150073
830.067	0.0147744
830.145	0.0147912
830.223	0.0148022
830.301	0.0146976
830.379	0.0148249
830.457	0.0148525
830.535	0.0146354
830.613	0.0149501
830.692	0.0148557
830.770	0.0149018
830.848	0.0150308
830.926	0.0147790
831.004	0.0148498
831.082	0.0148044
831.160	0.0148337
831.238	0.0147824
831.317	0.0147347
831.395	0.0149483
831.473	0.0149385
831.551	0.0147554
831.629	0.0147964
831.707	0.0149966
831.785	0.0148158
831.863	0.0148206
831.942	0.0147874
832.020	0.0147927
832.098	0.0150463
832.176	0.0149857
832.254	0.0147285
832.332	0.0149614
832.410	0.0149096
832.488	0.0148557
832.567	0.0149310
832.645	0.0147950
832.723	0.0148585
832.801	0.0149330
832.879	0.0147992
832.957	0.0148363
833.035	0.0148406
833.113	0.0148624
833.192	0.0149170
833.270	0.0147813
833.348	0.0148846
833.426	0.0148810
833.504	0.0147441
833.582	0.0148513
833.660	0.0149021
833.738	0.0147889
833.817	0.0149472
833.895	0.0147990
833.973	0.0147777
834.051	0.0147877
834.129	0.0146586
834.207	0.0148808
834.285	0.0148572
834.363	0.0147594
834.442	0.0146456
834.520	0.0146784
834.598	0.0147331
834.676	0.0148877
834.754	0.0146949
834.832	0.0147205
834.910	0.0148891
834.988	0.0148073
835.067	0.0148984
835.145	0.0148352
835.223	0.0149518
835.301	0.0148611
835.379	0.0149310
835.457	0.0147295
835.535	0.0148511
835.613	0.0149180
835.692	0.0149255
835.770	0.0148269
835.848	0.0149046
835.926	0.0149503
836.004	0.0147695
836.082	0.0149158
836.160	0.0147446
836.238	0.0148643
836.317	0.0148553
836.395	0.0148076
836.473	0.0148535
836.551	0.0148211
836.629	0.0147451
836.707	0.0147308
836.785	0.0147244
836.863	0.0147580
836.942	0.0148572
837.020	0.0148576
837.098	0.0146866
837.176	0.0148609
837.254	0.0148901
837.332	0.0148109
837.410	0.0148350
837.488	0.0148734
837.567	0.0147411
837.645	0.0147717
837.723	0.0149091
837.801	0.0149139
837.879	0.0147812
837.957	0.0149375
838.035	0.0148480
838.113	0.0148607
838.192	0.0148870
838.270	0.0148482
838.348	0.0148492
838.426	0.0147473
838.504	0.0149240
838.582	0.0149174
838.660	0.0148319
838.738	0.0148052
838.817	0.0149041
838.895	0.0147520
838.973	0.0147681
839.051	0.0148721
839.129	0.0147274
839.207	0.0146503
839.285	0.0147247
839.363	0.0147249
839.442	0.0147826
839.520	0.0145775
839.598	0.0147661
839.676	0.0146595
839.754	0.0147295
839.832	0.0146149
839.910	0.0146820
839.988	0.0146602
840.067	0.0146976
840.145	0.0146945
840.223	0.0145974
840.301	0.0148979
840.379	0.0148742
840.457	0.0147034
840.535	0.0148979
840.613	0.0148196
840.692	0.0149251
840.770	0.0149008
840.848	0.0149303
840.926	0.0150123
841.004	0.0148568
841.082	0.0149986
841.160	0.0149564
841.238	0.0149558
841.317	0.0150543
841.395	0.0149755
841.473	0.0150207
841.551	0.0148699
841.629	0.0148315
841.707	0.0146987
841.785	0.0149465
841.863	0.0149703
841.942	0.0148013
842.020	0.0146684
842.098	0.0149185
842.176	0.0146593
842.254	0.0146812
842.332	0.0146679
842.410	0.0147890
842.488	0.0148293
842.567	0.0147472
842.645	0.0147736
842.723	0.0148186
842.801	0.0147566
842.879	0.0148369
842.957	0.0149477
843.035	0.0147105
843.113	0.0148544
843.192	0.0147548
843.270	0.0148530
843.348	0.0149336
843.426	0.0150584
843.504	0.0147624
843.582	0.0149163
843.660	0.0150177
843.738	0.0150086
843.817	0.0149894
843.895	0.0148127
843.973	0.0147533
844.051	0.0147646
844.129	0.0148057
844.207	0.0148413
844.285	0.0148531
844.363	0.0147765
844.442	0.0147805
844.520	0.0146799
844.598	0.0147899
844.676	0.0147385
844.754	0.0146171
844.832	0.0147655
844.910	0.0148139
844.988	0.0148121
845.067	0.0148443
845.145	0.0147132
845.223	0.0147855
845.301	0.0147795
845.379	0.0148612
845.457	0.0147968
845.535	0.0148358
845.613	0.0149557
845.692	0.0147768
845.770	0.0148824
845.848	0.0148274
845.926	0.0149727
846.004	0.0148695
846.082	0.0149491
846.160	0.0148432
846.238	0.0147030
846.317	0.0148851
846.395	0.0148663
846.473	0.0147878
846.551	0.0148248
846.629	0.0148495
846.707	0.0146841
846.785	0.0146714
846.863	0.0148048
846.942	0.0147784
847.020	0.0145104
847.098	0.0146392
847.176	0.0147453
847.254	0.0147670
847.332	0.0146397
847.410	0.0146365
847.488	0.0147198
847.567	0.0147865
847.645	0.0148230
847.723	0.0146802
847.801	0.0147015
847.879	0.0148020
847.957	0.0147792
848.035	0.0146972
848.113	0.0148678
848.192	0.0147954
848.270	0.0148109
848.348	0.0148460
848.426	0.0148425
848.504	0.0147426
848.582	0.0150654
848.660	0.0148427
848.738	0.0149197
848.817	0.0148586
848.895	0.0147161
848.973	0.0148698
849.051	0.0149301
849.129	0.0148536
849.207	0.0147277
849.285	0.0148003
849.363	0.0146622
849.442	0.0148734
849.520	0.0146696
849.598	0.0145888
849.676	0.0146167
849.754	0.0147459
849.832	0.0147295
849.910	0.0146455
849.988	0.0146063
850.067	0.0146860
850.145	0.0146922
850.223	0.0147108
850.301	0.0146366
850.379	0.0146727
850.457	0.0148596
850.535	0.0147012
850.613	0.0147461
850.692	0.0148186
850.770	0.0147382
850.848	0.0149376
850.926	0.0149192
851.004	0.0148471
851.082	0.0148871
851.160	0.0148770
851.238	0.0147350
851.317	0.0148237
851.395	0.0148969
851.473	0.0147959
851.551	0.0149342
851.629	0.0147404
851.707	0.0149167
851.785	0.0148730
851.863	0.0148624
851.942	0.0147810
852.020	0.0148293
852.098	0.0149577
852.176	0.0147867
852.254	0.0147141
852.332	0.0147705
852.410	0.0147867
852.488	0.0148524
852.567	0.0149358
852.645	0.0147658
852.723	0.0147686
852.801	0.0146148
852.879	0.0147332
852.957	0.0148956
853.035	0.0148388
853.113	0.0148341
853.192	0.0148341
853.270	0.0148299
853.348	0.0148223
853.426	0.0147797
853.504	0.0148020
853.582	0.0148624
853.660	0.0149719
853.738	0.0148660
853.817	0.0146679
853.895	0.0147988
853.973	0.0149240
854.051	0.0148875
854.129	0.0147954
854.207	0.0148074
854.285	0.0148376
854.363	0.0147886
854.442	0.0147799
854.520	0.0149088
854.598	0.0149055
854.676	0.0147511
854.754	0.0148647
854.832	0.0148569
854.910	0.0148114
854.988	0.0147860
855.067	0.0147727
855.145	0.0147286
855.223	0.0149072
855.301	0.0149551
855.379	0.0148891
855.457	0.0148178
855.535	0.0148394
855.613	0.0149509
855.692	0.0146555
855.770	0.0148574
855.848	0.0150330
855.926	0.0148920
856.004	0.0150154
856.082	0.0148310
856.160	0.0148386
856.238	0.0148482
856.317	0.0148949
856.395	0.0148248
856.473	0.0149030
856.551	0.0147823
856.629	0.0146606
856.707	0.0147836
856.785	0.0148529
856.863	0.0146944
856.942	0.0146983
857.020	0.0148015
857.098	0.0148540
857.176	0.0148032
857.254	0.0148338
857.332	0.0147504
857.410	0.0147898
857.488	0.0147867
857.567	0.0147162
857.645	0.0148034
857.723	0.0148058
857.801	0.0147475
857.879	0.0147691
857.957	0.0146135
858.035	0.0148982
858.113	0.0149026
858.192	0.0148427
858.270	0.0147392
858.348	0.0148991
858.426	0.0149225
858.504	0.0147556
858.582	0.0148138
858.660	0.0147225
858.738	0.0148045
858.817	0.0149419
858.895	0.0150260
858.973	0.0148341
859.051	0.0147952
859.129	0.0147524
859.207	0.0148344
859.285	0.0149181
859.363	0.0149001
859.442	0.0148774
859.520	0.0150337
859.598	0.0149097
859.676	0.0148634
859.754	0.0149107
859.832	0.0149274
859.910	0.0148971
859.988	0.0148740
860.067	0.0149897
860.145	0.0148979
860.223	0.0150563
860.301	0.0150342
860.379	0.0147906
860.457	0.0148837
860.535	0.0149689
860.613	0.0147606
860.692	0.0148874
860.770	0.0149290
860.848	0.0148782
860.926	0.0149810
861.004	0.0148118
861.082	0.0148196
861.160	0.0147424
861.238	0.0147749
861.317	0.0148241
861.395	0.0148005
861.473	0.0148812
861.551	0.0147479
861.629	0.0147911
861.707	0.0149803
861.785	0.0148624
861.863	0.0149043
861.942	0.0147452
862.020	0.0148721
862.098	0.0148328
862.176	0.0148977
862.254	0.0148903
862.332	0.0148343
862.410	0.0147617
862.488	0.0147966
862.567	0.0146989
862.645	0.0147392
862.723	0.0149377
862.801	0.0148422
862.879	0.0148476
862.957	0.0148949
863.035	0.0148305
863.113	0.0147178
863.192	0.0147511
863.270	0.0149017
863.348	0.0148545
863.426	0.0148856
863.504	0.0148295
863.582	0.0148024
863.660	0.0146312
863.738	0.0146634
863.817	0.0147509
863.895	0.0148234
863.973	0.0148565
864.051	0.0147552
864.129	0.0147739
864.207	0.0146967
864.285	0.0149107
864.363	0.0149858
864.442	0.0149430
864.520	0.0148873
864.598	0.0148775
864.676	0.0148454
864.754	0.0149685
864.832	0.0148949
864.910	0.0149409
864.988	0.0149156
865.067	0.0150160
865.145	0.0148226
865.223	0.0150088
865.301	0.0149171
865.379	0.0148501
865.457	0.0148901
865.535	0.0148121
865.613	0.0148177
865.692	0.0149027
865.770	0.0148331
865.848	0.0148119
865.926	0.0147758
866.004	0.0146732
866.082	0.0148314
866.160	0.0148682
866.238	0.0150076
866.317	0.0147366
866.395	0.0148692
866.473	0.0148442
866.551	0.0148186
866.629	0.0147805
866.707	0.0148101
866.785	0.0149779
866.863	0.0146848
866.942	0.0147520
867.020	0.0149078
867.098	0.0146801
867.176	0.0148528
867.254	0.0146521
867.332	0.0148010
867.410	0.0147513
867.488	0.0147702
867.567	0.0147343
867.645	0.0146546
867.723	0.0147188
867.801	0.0146536
867.879	0.0146339
867.957	0.0148703
868.035	0.0148725
868.113	0.0147807
868.192	0.0145937
868.270	0.0148012
868.348	0.0148344
868.426	0.0148192
868.504	0.0148667
868.582	0.0148480
868.660	0.0148023
868.738	0.0148086
868.817	0.0149084
868.895	0.0149152
868.973	0.0148302
869.051	0.0147223
869.129	0.0147117
869.207	0.0149737
869.285	0.0149500
869.363	0.0148951
869.442	0.0149399
869.520	0.0149058
869.598	0.0148289
869.676	0.0149378
869.754	0.0150300
869.832	0.0148858
869.910	0.0148861
869.988	0.0149253
870.067	0.0149181
870.145	0.0148843
870.223	0.0147329
870.301	0.0147947
870.379	0.0148390
870.457	0.0148011
870.535	0.0147729
870.613	0.0147942
870.692	0.0147758
870.770	0.0147613
870.848	0.0148286
870.926	0.0147079
871.004	0.0147212
871.082	0.0147379
871.160	0.0147166
871.238	0.0147166
871.317	0.0147237
871.395	0.0147625
871.473	0.0147262
871.551	0.0148416
871.629	0.0147382
871.707	0.0148055
871.785	0.0147713
871.863	0.0148816
871.942	0.0148309
872.020	0.0147346
872.098	0.0147601
872.176	0.0147491
872.254	0.0147566
872.332	0.0148006
872.410	0.0147872
872.488	0.0148013
872.567	0.0148621
872.645	0.0148095
872.723	0.0148177
872.801	0.0146410
872.879	0.0146915
872.957	0.0148682
873.035	0.0148346
873.113	0.0147922
873.192	0.0146768
873.270	0.0148849
873.348	0.0148370
873.426	0.0147263
873.504	0.0148887
873.582	0.0148569
873.660	0.0148433
873.738	0.0149243
873.817	0.0147839
873.895	0.0148707
873.973	0.0147672
874.051	0.0147831
874.129	0.0148082
874.207	0.0147702
874.285	0.0149604
874.363	0.0149252
874.442	0.0149745
874.520	0.0149890
874.598	0.0148566
874.676	0.0148428
874.754	0.0148665
874.832	0.0148546
874.910	0.0149483
874.988	0.0149547
875.067	0.0148427
875.145	0.0148365
875.223	0.0148909
875.301	0.0149626
875.379	0.0148145
875.457	0.0147969
875.535	0.0147868
875.613	0.0148381
875.692	0.0147420
875.770	0.0148022
875.848	0.0147775
875.926	0.0146938
876.004	0.0148368
876.082	0.0147698
876.160	0.0147543
876.238	0.0149205
876.317	0.0148227
876.395	0.0149361
876.473	0.0147601
876.551	0.0147677
876.629	0.0147947
876.707	0.0148637
876.785	0.0148108
876.863	0.0148011
876.942	0.0148930
877.020	0.0148370
877.098	0.0147431
877.176	0.0147787
877.254	0.0147978
877.332	0.0148940
877.410	0.0148214
877.488	0.0148201
877.567	0.0148689
877.645	0.0147152
877.723	0.0146591
877.801	0.0147498
877.879	0.0146934
877.957	0.0148152
878.035	0.0147248
878.113	0.0146633
878.192	0.0147153
878.270	0.0148242
878.348	0.0149249
878.426	0.0148511
878.504	0.0148415
878.582	0.0147420
878.660	0.0148036
878.738	0.0149070
878.817	0.0148883
878.895	0.0148479
878.973	0.0149244
879.051	0.0147295
879.129	0.0147276
879.207	0.0147600
879.285	0.0148174
879.363	0.0147588
879.442	0.0148440
879.520	0.0148466
879.598	0.0148643
879.676	0.0149323
879.754	0.0147569
879.832	0.0148715
879.910	0.0148248
879.988	0.0148547
880.067	0.0147803
880.145	0.0147020
880.223	0.0147102
880.301	0.0148476
880.379	0.0148053
880.457	0.0147471
880.535	0.0148606
880.613	0.0147929
880.692	0.0146960
880.770	0.0148292
880.848	0.0149594
880.926	0.0148053
881.004	0.0147976
881.082	0.0148280
881.160	0.0148720
881.238	0.0147793
881.317	0.0148830
881.395	0.0148801
881.473	0.0148850
881.551	0.0148050
881.629	0.0147599
881.707	0.0146882
881.785	0.0148447
881.863	0.0148661
881.942	0.0148264
882.020	0.0148090
882.098	0.0147649
882.176	0.0147777
882.254	0.0147176
882.332	0.0147880
882.410	0.0147447
882.488	0.0148069
882.567	0.0147375
882.645	0.0148643
882.723	0.0148370
882.801	0.0146454
882.879	0.0147118
882.957	0.0148403
883.035	0.0145301
883.113	0.0148568
883.192	0.0149886
883.270	0.0147153
883.348	0.0147332
883.426	0.0148464
883.504	0.0149224
883.582	0.0148904
883.660	0.0149603
883.738	0.0147962
883.817	0.0148929
883.895	0.0148857
883.973	0.0148959
884.051	0.0148829
884.129	0.0147420
884.207	0.0148862
884.285	0.0148934
884.363	0.0146851
884.442	0.0147804
884.520	0.0146584
884.598	0.0146453
884.676	0.0149205
884.754	0.0148576
884.832	0.0148902
884.910	0.0148559
884.988	0.0148267
885.067	0.0148926
885.145	0.0149123
885.223	0.0149597
885.301	0.0149230
885.379	0.0148306
885.457	0.0149538
885.535	0.0149255
885.613	0.0149059
885.692	0.0148875
885.770	0.0150477
885.848	0.0149358
885.926	0.0149505
886.004	0.0148185
886.082	0.0148535
886.160	0.0147678
886.238	0.0149030
886.317	0.0149190
886.395	0.0148827
886.473	0.0147874
886.551	0.0147735
886.629	0.0147627
886.707	0.0147746
886.785	0.0147943
886.863	0.0147151
886.942	0.0148533
887.020	0.0147619
887.098	0.0148248
887.176	0.0147608
887.254	0.0146130
887.332	0.0148501
887.410	0.0148441
887.488	0.0147610
887.567	0.0146976
887.645	0.0147503
887.723	0.0148368
887.801	0.0148497
887.879	0.0148097
887.957	0.0147795
888.035	0.0148820
888.113	0.0147256
888.192	0.0149467
888.270	0.0148020
888.348	0.0148849
888.426	0.0149247
888.504	0.0150126
888.582	0.0148872
888.660	0.0146857
888.738	0.0147295
888.817	0.0148510
888.895	0.0147076
888.973	0.0146056
889.051	0.0146566
889.129	0.0147626
889.207	0.0146951
889.285	0.0147655
889.363	0.0147521
889.442	0.0148643
889.520	0.0146195
889.598	0.0147316
889.676	0.0148521
889.754	0.0147574
889.832	0.0148561
889.910	0.0148651
889.988	0.0148591
890.067	0.0148470
890.145	0.0149188
890.223	0.0148986
890.301	0.0147204
890.379	0.0148600
890.457	0.0150658
890.535	0.0150246
890.613	0.0147443
890.692	0.0149034
890.770	0.0148816
890.848	0.0149570
890.926	0.0150209
891.004	0.0149853
891.082	0.0147678
891.160	0.0149501
891.238	0.0148940
891.317	0.0146916
891.395	0.0148025
891.473	0.0148041
891.551	0.0147499
891.629	0.0146327
891.707	0.0148015
891.785	0.0148107
891.863	0.0147986
891.942	0.0146425
892.020	0.0146239
892.098	0.0147318
892.176	0.0147952
892.254	0.0147060
892.332	0.0146979
892.410	0.0148275
892.488	0.0148207
892.567	0.0147684
892.645	0.0149269
892.723	0.0148318
892.801	0.0147566
892.879	0.0148669
892.957	0.0149384
893.035	0.0147869
893.113	0.0148115
893.192	0.0150163
893.270	0.0148670
893.348	0.0148489
893.426	0.0148704
893.504	0.0149152
893.582	0.0147689
893.660	0.0148472
893.738	0.0148550
893.817	0.0148727
893.895	0.0149644
893.973	0.0149577
894.051	0.0147512
894.129	0.0149463
894.207	0.0148045
894.285	0.0148219
894.363	0.0148590
894.442	0.0148384
894.520	0.0147310
894.598	0.0148678
894.676	0.0149232
894.754	0.0148252
894.832	0.0149950
894.910	0.0147984
894.988	0.0148503
895.067	0.0150559
895.145	0.0149154
895.223	0.0148663
895.301	0.0148244
895.379	0.0149770
895.457	0.0148956
895.535	0.0147272
895.613	0.0146693
895.692	0.0148350
895.770	0.0147593
895.848	0.0147092
895.926	0.0146589
896.004	0.0147183
896.082	0.0147749
896.160	0.0146665
896.238	0.0148695
896.317	0.0147972
896.395	0.0148811
896.473	0.0147876
896.551	0.0146511
896.629	0.0148943
896.707	0.0147982
896.785	0.0148159
896.863	0.0148887
896.942	0.0148176
897.020	0.0148843
897.098	0.0148903
897.176	0.0147919
897.254	0.0149893
897.332	0.0147819
897.410	0.0149171
897.488	0.0148066
897.567	0.0147946
897.645	0.0148429
897.723	0.0147665
897.801	0.0148106
897.879	0.0148787
897.957	0.0149025
898.035	0.0147957
898.113	0.0148093
898.192	0.0146881
898.270	0.0147714
898.348	0.0146899
898.426	0.0147599
898.504	0.0147692
898.582	0.0145362
898.660	0.0147034
898.738	0.0148360
898.817	0.0148926
898.895	0.0147456
898.973	0.0148220
899.051	0.0147128
899.129	0.0148582
899.207	0.0148209
899.285	0.0147484
899.363	0.0149454
899.442	0.0147615
899.520	0.0147022
899.598	0.0148524
899.676	0.0147754
899.754	0.0147843
899.832	0.0148237
899.910	0.0147974
899.988	0.0147605
900.067	0.0148459
900.145	0.0148556
900.223	0.0147572
900.301	0.0147314
900.379	0.0148099
900.457	0.0148711
900.535	0.0147914
900.613	0.0147977
900.692	0.0146665
900.770	0.0148166
900.848	0.0147012
900.926	0.0146861
901.004	0.0147801
901.082	0.0148547
901.160	0.0147366
901.238	0.0148135
901.317	0.0148200
901.395	0.0146736
901.473	0.0147789
901.551	0.0147858
901.629	0.0147858
901.707	0.0148341
901.785	0.0147844
901.863	0.0148647
901.942	0.0147277
902.020	0.0148642
902.098	0.0148088
902.176	0.0147800
902.254	0.0148028
902.332	0.0148240
902.410	0.0149877
902.488	0.0148988
902.567	0.0147668
902.645	0.0148248
902.723	0.0146722
902.801	0.0148075
902.879	0.0148444
902.957	0.0148299
903.035	0.0149987
903.113	0.0148286
903.192	0.0148228
903.270	0.0147601
903.348	0.0146799
903.426	0.0149294
903.504	0.0149008
903.582	0.0147001
903.660	0.0146571
903.738	0.0148319
903.817	0.0148702
903.895	0.0148754
903.973	0.0148064
904.051	0.0148139
904.129	0.0148224
904.207	0.0145367
904.285	0.0147624
904.363	0.0149096
904.442	0.0147742
904.520	0.0149754
904.598	0.0147456
904.676	0.0148667
904.754	0.0148721
904.832	0.0147958
904.910	0.0148105
904.988	0.0147973
905.067	0.0149550
905.145	0.0147804
905.223	0.0147476
905.301	0.0148383
905.379	0.0148222
905.457	0.0148827
905.535	0.0148998
905.613	0.0147572
905.692	0.0146958
905.770	0.0147642
905.848	0.0148071
905.926	0.0146229
906.004	0.0148385
906.082	0.0148392
906.160	0.0146598
906.238	0.0145444
906.317	0.0147582
906.395	0.0148081
906.473	0.0146358
906.551	0.0146191
906.629	0.0146360
906.707	0.0146464
906.785	0.0147168
906.863	0.0146572
906.942	0.0146829
907.020	0.0146272
907.098	0.0148758
907.176	0.0146851
907.254	0.0147691
907.332	0.0148567
907.410	0.0148387
907.488	0.0148414
907.567	0.0148117
907.645	0.0146069
907.723	0.0148624
907.801	0.0148145
907.879	0.0146918
907.957	0.0148797
908.035	0.0148705
908.113	0.0147449
908.192	0.0148975
908.270	0.0149777
908.348	0.0148505
908.426	0.0148752
908.504	0.0148563
908.582	0.0149364
908.660	0.0149114
908.738	0.0147919
908.817	0.0147221
908.895	0.0147883
908.973	0.0148129
909.051	0.0147916
909.129	0.0147542
909.207	0.0148257
909.285	0.0148143
909.363	0.0148177
909.442	0.0147079
909.520	0.0147634
909.598	0.0147055
909.676	0.0148339
909.754	0.0148077
909.832	0.0147729
909.910	0.0146629
909.988	0.0147990
910.067	0.0148003
910.145	0.0146088
910.223	0.0147634
910.301	0.0147377
910.379	0.0147721
910.457	0.0148803
910.535	0.0148020
910.613	0.0147193
910.692	0.0147488
910.770	0.0148119
910.848	0.0147418
910.926	0.0147835
911.004	0.0148383
911.082	0.0147112
911.160	0.0148730
911.238	0.0148228
911.317	0.0148228
911.395	0.0148325
911.473	0.0148931
911.551	0.0147825
911.629	0.0147739
911.707	0.0148421
911.785	0.0149149
911.863	0.0150776
911.942	0.0150022
912.020	0.0148426
912.098	0.0149298
912.176	0.0148154
912.254	0.0149571
912.332	0.0149350
912.410	0.0149312
912.488	0.0149439
912.567	0.0149300
912.645	0.0148084
912.723	0.0149989
912.801	0.0148922
912.879	0.0147329
912.957	0.0148193
913.035	0.0149878
913.113	0.0149750
913.192	0.0147609
913.270	0.0148807
913.348	0.0148775
913.426	0.0148488
913.504	0.0148623
913.582	0.0148455
913.660	0.0147542
913.738	0.0148406
913.817	0.0148582
913.895	0.0149316
913.973	0.0148300
914.051	0.0147536
914.129	0.0147500
914.207	0.0147187
914.285	0.0147955
914.363	0.0148804
914.442	0.0148495
914.520	0.0148188
914.598	0.0148512
914.676	0.0147348
914.754	0.0147462
914.832	0.0149207
914.910	0.0149046
914.988	0.0148650
915.067	0.0149019
915.145	0.0150364
915.223	0.0149876
915.301	0.0149168
915.379	0.0148862
915.457	0.0148459
915.535	0.0148679
915.613	0.0149352
915.692	0.0147800
915.770	0.0148403
915.848	0.0148975
915.926	0.0147726
916.004	0.0148518
916.082	0.0149242
916.160	0.0148128
916.238	0.0149638
916.317	0.0147244
916.395	0.0147536
916.473	0.0148460
916.551	0.0148805
916.629	0.0150013
916.707	0.0149474
916.785	0.0149309
916.863	0.0149040
916.942	0.0149825
917.020	0.0148528
917.098	0.0150218
917.176	0.0150137
917.254	0.0147586
917.332	0.0149585
917.410	0.0148962
917.488	0.0149094
917.567	0.0150251
917.645	0.0148252
917.723	0.0149312
917.801	0.0149362
917.879	0.0149034
917.957	0.0150177
918.035	0.0146948
918.113	0.0149471
918.192	0.0148363
918.270	0.0148930
918.348	0.0147990
918.426	0.0148618
918.504	0.0149248
918.582	0.0149146
918.660	0.0148079
918.738	0.0147729
918.817	0.0148277
918.895	0.0148615
918.973	0.0149326
919.051	0.0148513
919.129	0.0147700
919.207	0.0147649
919.285	0.0148501
919.363	0.0149175
919.442	0.0147461
919.520	0.0146718
919.598	0.0146732
919.676	0.0148689
919.754	0.0148441
919.832	0.0147764
919.910	0.0148359
