05/28/2022	14:27:27	Ver.	4.1	UNKNOWN
Optical Delay	599.988409	Delta X		0.078125	Sweeps	1	Scan Rate	0/0
Coordinates	Axis 1	NaN	Axis 2	NaN	Axis 3	NaN	Axis 4	NaN	Axis 5	NaN	Axis 6	0.000000
TX Power	0.000000	RX Power	0.000000

599.988	0.0148731
600.067	0.0148739
600.145	0.0149190
600.223	0.0148086
600.301	0.0146815
600.379	0.0148546
600.457	0.0148428
600.535	0.0149390
600.613	0.0149507
600.692	0.0147694
600.770	0.0147535
600.848	0.0148148
600.926	0.0148732
601.004	0.0147878
601.082	0.0148279
601.160	0.0148232
601.238	0.0148638
601.317	0.0148160
601.395	0.0145827
601.473	0.0148777
601.551	0.0147796
601.629	0.0146324
601.707	0.0146622
601.785	0.0147652
601.863	0.0148258
601.942	0.0148707
602.020	0.0147016
602.098	0.0148298
602.176	0.0147103
602.254	0.0145922
602.332	0.0146541
602.410	0.0144785
602.488	0.0146980
602.567	0.0146093
602.645	0.0144706
602.723	0.0144451
602.801	0.0145799
602.879	0.0144968
602.957	0.0144104
603.035	0.0145486
603.113	0.0146026
603.192	0.0144833
603.270	0.0144495
603.348	0.0145123
603.426	0.0145291
603.504	0.0146142
603.582	0.0145541
603.660	0.0145896
603.738	0.0145346
603.817	0.0146736
603.895	0.0146644
603.973	0.0146856
604.051	0.0147697
604.129	0.0148005
604.207	0.0148244
604.285	0.0146999
604.363	0.0146715
604.442	0.0148178
604.520	0.0147135
604.598	0.0148759
604.676	0.0150214
604.754	0.0149342
604.832	0.0149233
604.910	0.0147400
604.988	0.0146799
605.067	0.0147946
605.145	0.0148200
605.223	0.0146836
605.301	0.0146811
605.379	0.0146938
605.457	0.0147211
605.535	0.0147080
605.613	0.0147552
605.692	0.0147276
605.770	0.0146236
605.848	0.0147160
605.926	0.0147134
606.004	0.0146810
606.082	0.0146867
606.160	0.0146181
606.238	0.0146436
606.317	0.0147078
606.395	0.0147498
606.473	0.0146397
606.551	0.0146478
606.629	0.0146725
606.707	0.0146925
606.785	0.0147343
606.863	0.0147717
606.942	0.0148037
607.020	0.0148155
607.098	0.0146629
607.176	0.0146606
607.254	0.0147397
607.332	0.0148593
607.410	0.0148516
607.488	0.0146326
607.567	0.0146562
607.645	0.0147997
607.723	0.0147978
607.801	0.0148134
607.879	0.0148064
607.957	0.0147887
608.035	0.0148146
608.113	0.0148032
608.192	0.0147895
608.270	0.0147764
608.348	0.0148882
608.426	0.0148176
608.504	0.0148853
608.582	0.0149328
608.660	0.0148225
608.738	0.0148215
608.817	0.0148837
608.895	0.0149704
608.973	0.0148711
609.051	0.0149209
609.129	0.0146812
609.207	0.0148707
609.285	0.0147112
609.363	0.0149274
609.442	0.0148575
609.520	0.0148181
609.598	0.0149026
609.676	0.0148337
609.754	0.0147758
609.832	0.0149338
609.910	0.0148505
609.988	0.0148403
610.067	0.0148161
610.145	0.0148319
610.223	0.0147827
610.301	0.0147749
610.379	0.0147372
610.457	0.0147480
610.535	0.0147810
610.613	0.0148235
610.692	0.0148421
610.770	0.0148064
610.848	0.0147398
610.926	0.0147672
611.004	0.0148331
611.082	0.0147900
611.160	0.0146690
611.238	0.0146603
611.317	0.0147734
611.395	0.0148027
611.473	0.0146952
611.551	0.0146893
611.629	0.0147629
611.707	0.0147612
611.785	0.0146813
611.863	0.0147131
611.942	0.0147893
612.020	0.0147086
612.098	0.0147086
612.176	0.0146809
612.254	0.0146712
612.332	0.0148301
612.410	0.0146549
612.488	0.0147900
612.567	0.0146088
612.645	0.0147061
612.723	0.0146941
612.801	0.0149159
612.879	0.0148257
612.957	0.0147344
613.035	0.0146835
613.113	0.0146735
613.192	0.0147414
613.270	0.0146716
613.348	0.0147250
613.426	0.0147776
613.504	0.0149032
613.582	0.0148544
613.660	0.0147539
613.738	0.0148578
613.817	0.0148288
613.895	0.0146310
613.973	0.0148231
614.051	0.0148105
614.129	0.0147264
614.207	0.0148034
614.285	0.0147608
614.363	0.0148273
614.442	0.0146752
614.520	0.0147094
614.598	0.0147908
614.676	0.0147203
614.754	0.0149451
614.832	0.0147839
614.910	0.0148803
614.988	0.0147393
615.067	0.0146730
615.145	0.0148271
615.223	0.0147516
615.301	0.0148587
615.379	0.0147977
615.457	0.0148477
615.535	0.0147388
615.613	0.0148063
615.692	0.0147689
615.770	0.0147019
615.848	0.0148971
615.926	0.0147686
616.004	0.0147890
616.082	0.0147432
616.160	0.0149075
616.238	0.0148610
616.317	0.0147793
616.395	0.0149221
616.473	0.0148579
616.551	0.0147566
616.629	0.0147443
616.707	0.0148230
616.785	0.0148392
616.863	0.0148154
616.942	0.0148573
617.020	0.0148204
617.098	0.0148304
617.176	0.0148713
617.254	0.0148370
617.332	0.0148917
617.410	0.0148634
617.488	0.0147406
617.567	0.0148608
617.645	0.0149902
617.723	0.0148766
617.801	0.0148652
617.879	0.0148975
617.957	0.0149603
618.035	0.0149675
618.113	0.0150957
618.192	0.0149213
618.270	0.0149205
618.348	0.0149380
618.426	0.0149921
618.504	0.0148405
618.582	0.0148260
618.660	0.0149849
618.738	0.0150312
618.817	0.0148355
618.895	0.0149015
618.973	0.0149149
619.051	0.0148941
619.129	0.0148985
619.207	0.0147945
619.285	0.0148994
619.363	0.0149646
619.442	0.0148638
619.520	0.0148961
619.598	0.0149330
619.676	0.0148332
619.754	0.0147669
619.832	0.0149551
619.910	0.0148093
619.988	0.0148391
620.067	0.0149677
620.145	0.0147871
620.223	0.0146970
620.301	0.0147838
620.379	0.0148762
620.457	0.0148502
620.535	0.0148038
620.613	0.0147018
620.692	0.0147203
620.770	0.0147253
620.848	0.0147989
620.926	0.0147424
621.004	0.0147498
621.082	0.0148486
621.160	0.0147807
621.238	0.0147887
621.317	0.0148117
621.395	0.0148581
621.473	0.0147241
621.551	0.0147958
621.629	0.0148214
621.707	0.0148828
621.785	0.0147373
621.863	0.0147870
621.942	0.0147946
622.020	0.0147924
622.098	0.0147072
622.176	0.0148451
622.254	0.0148195
622.332	0.0148886
622.410	0.0148277
622.488	0.0148463
622.567	0.0148840
622.645	0.0147797
622.723	0.0146664
622.801	0.0148402
622.879	0.0148556
622.957	0.0147698
623.035	0.0148476
623.113	0.0147616
623.192	0.0147675
623.270	0.0148290
623.348	0.0148869
623.426	0.0148590
623.504	0.0148098
623.582	0.0148656
623.660	0.0148818
623.738	0.0147672
623.817	0.0146945
623.895	0.0147647
623.973	0.0147344
624.051	0.0147875
624.129	0.0147403
624.207	0.0147852
624.285	0.0149100
624.363	0.0147321
624.442	0.0147490
624.520	0.0147243
624.598	0.0147552
624.676	0.0146349
624.754	0.0148428
624.832	0.0148653
624.910	0.0147648
624.988	0.0146280
625.067	0.0147090
625.145	0.0146879
625.223	0.0147780
625.301	0.0147765
625.379	0.0147475
625.457	0.0147910
625.535	0.0145966
625.613	0.0147604
625.692	0.0146778
625.770	0.0146808
625.848	0.0147175
625.926	0.0145409
626.004	0.0145790
626.082	0.0145854
626.160	0.0146670
626.238	0.0146357
626.317	0.0146202
626.395	0.0146230
626.473	0.0146425
626.551	0.0146940
626.629	0.0145154
626.707	0.0146476
626.785	0.0146040
626.863	0.0146420
626.942	0.0147120
627.020	0.0147452
627.098	0.0146397
627.176	0.0145993
627.254	0.0146186
627.332	0.0146671
627.410	0.0145520
627.488	0.0148087
627.567	0.0148227
627.645	0.0146762
627.723	0.0146916
627.801	0.0146203
627.879	0.0146992
627.957	0.0146984
628.035	0.0147121
628.113	0.0146912
628.192	0.0148402
628.270	0.0146011
628.348	0.0148347
628.426	0.0148717
628.504	0.0147730
628.582	0.0146712
628.660	0.0147895
628.738	0.0149631
628.817	0.0147905
628.895	0.0148653
628.973	0.0147935
629.051	0.0148341
629.129	0.0147434
629.207	0.0147768
629.285	0.0148293
629.363	0.0148012
629.442	0.0148120
629.520	0.0147936
629.598	0.0146951
629.676	0.0148065
629.754	0.0147837
629.832	0.0147134
629.910	0.0147836
629.988	0.0147882
630.067	0.0148693
630.145	0.0147012
630.223	0.0147861
630.301	0.0148525
630.379	0.0147881
630.457	0.0149284
630.535	0.0148242
630.613	0.0147723
630.692	0.0149126
630.770	0.0149172
630.848	0.0148471
630.926	0.0146328
631.004	0.0147619
631.082	0.0148648
631.160	0.0148690
631.238	0.0148636
631.317	0.0148605
631.395	0.0147894
631.473	0.0148685
631.551	0.0149414
631.629	0.0148842
631.707	0.0147047
631.785	0.0148989
631.863	0.0148782
631.942	0.0148274
632.020	0.0148361
632.098	0.0148370
632.176	0.0147613
632.254	0.0148131
632.332	0.0146812
632.410	0.0147372
632.488	0.0147414
632.567	0.0147121
632.645	0.0147698
632.723	0.0147249
632.801	0.0147062
632.879	0.0145633
632.957	0.0146972
633.035	0.0146953
633.113	0.0145829
633.192	0.0146120
633.270	0.0146598
633.348	0.0146395
633.426	0.0148045
633.504	0.0145151
633.582	0.0145201
633.660	0.0147813
633.738	0.0147173
633.817	0.0146695
633.895	0.0146073
633.973	0.0146063
634.051	0.0147401
634.129	0.0147259
634.207	0.0148720
634.285	0.0148602
634.363	0.0148103
634.442	0.0147769
634.520	0.0148608
634.598	0.0148724
634.676	0.0148702
634.754	0.0147044
634.832	0.0148174
634.910	0.0148268
634.988	0.0147163
635.067	0.0148281
635.145	0.0147463
635.223	0.0147624
635.301	0.0147537
635.379	0.0147671
635.457	0.0148421
635.535	0.0147779
635.613	0.0147397
635.692	0.0147153
635.770	0.0147358
635.848	0.0147126
635.926	0.0147195
636.004	0.0146600
636.082	0.0147909
636.160	0.0146680
636.238	0.0147170
636.317	0.0148289
636.395	0.0147105
636.473	0.0147514
636.551	0.0148786
636.629	0.0149628
636.707	0.0149223
636.785	0.0148097
636.863	0.0146494
636.942	0.0149073
637.020	0.0147616
637.098	0.0146474
637.176	0.0147260
637.254	0.0145996
637.332	0.0146099
637.410	0.0146095
637.488	0.0146043
637.567	0.0145782
637.645	0.0145073
637.723	0.0144762
637.801	0.0145980
637.879	0.0146117
637.957	0.0145631
638.035	0.0147688
638.113	0.0147641
638.192	0.0146790
638.270	0.0147140
638.348	0.0148721
638.426	0.0149506
638.504	0.0149111
638.582	0.0148342
638.660	0.0148615
638.738	0.0149934
638.817	0.0148939
638.895	0.0148299
638.973	0.0150068
639.051	0.0149764
639.129	0.0150282
639.207	0.0149136
639.285	0.0150373
639.363	0.0149260
639.442	0.0150385
639.520	0.0148351
639.598	0.0150878
639.676	0.0149514
639.754	0.0149406
639.832	0.0150102
639.910	0.0148866
639.988	0.0149597
640.067	0.0148774
640.145	0.0149476
640.223	0.0148846
640.301	0.0147841
640.379	0.0149730
640.457	0.0148886
640.535	0.0147571
640.613	0.0146682
640.692	0.0147949
640.770	0.0146293
640.848	0.0146768
640.926	0.0145680
641.004	0.0144864
641.082	0.0146938
641.160	0.0142869
641.238	0.0143501
641.317	0.0143109
641.395	0.0143462
641.473	0.0142717
641.551	0.0143777
641.629	0.0142907
641.707	0.0142348
641.785	0.0142554
641.863	0.0142094
641.942	0.0143554
642.020	0.0144453
642.098	0.0144145
642.176	0.0142365
642.254	0.0144171
642.332	0.0144415
642.410	0.0144913
642.488	0.0145746
642.567	0.0144976
642.645	0.0145746
642.723	0.0145626
642.801	0.0147076
642.879	0.0148499
642.957	0.0148995
643.035	0.0149418
643.113	0.0148550
643.192	0.0149787
643.270	0.0149392
643.348	0.0150005
643.426	0.0151357
643.504	0.0151290
643.582	0.0150053
643.660	0.0151283
643.738	0.0150120
643.817	0.0150113
643.895	0.0151583
643.973	0.0150356
644.051	0.0149413
644.129	0.0148688
644.207	0.0148734
644.285	0.0149843
644.363	0.0150188
644.442	0.0149200
644.520	0.0149934
644.598	0.0149390
644.676	0.0148650
644.754	0.0148351
644.832	0.0147945
644.910	0.0148814
644.988	0.0147567
645.067	0.0147449
645.145	0.0147775
645.223	0.0146881
645.301	0.0148326
645.379	0.0146198
645.457	0.0144762
645.535	0.0145610
645.613	0.0145397
645.692	0.0144290
645.770	0.0143689
645.848	0.0145192
645.926	0.0143369
646.004	0.0143454
646.082	0.0144237
646.160	0.0143668
646.238	0.0141959
646.317	0.0142655
646.395	0.0143893
646.473	0.0144871
646.551	0.0143722
646.629	0.0145209
646.707	0.0145055
646.785	0.0145833
646.863	0.0145549
646.942	0.0146315
647.020	0.0145303
647.098	0.0145410
647.176	0.0145081
647.254	0.0145138
647.332	0.0145664
647.410	0.0145590
647.488	0.0144460
647.567	0.0145732
647.645	0.0145080
647.723	0.0145147
647.801	0.0143967
647.879	0.0144753
647.957	0.0146148
648.035	0.0148001
648.113	0.0145224
648.192	0.0146517
648.270	0.0147755
648.348	0.0146603
648.426	0.0146734
648.504	0.0147742
648.582	0.0148825
648.660	0.0148859
648.738	0.0148419
648.817	0.0149043
648.895	0.0147986
648.973	0.0147849
649.051	0.0148376
649.129	0.0148419
649.207	0.0145816
649.285	0.0146283
649.363	0.0147256
649.442	0.0147657
649.520	0.0146714
649.598	0.0147351
649.676	0.0145830
649.754	0.0146270
649.832	0.0145969
649.910	0.0146394
649.988	0.0148291
650.067	0.0145783
650.145	0.0144549
650.223	0.0147898
650.301	0.0147514
650.379	0.0146156
650.457	0.0146921
650.535	0.0148621
650.613	0.0146364
650.692	0.0146599
650.770	0.0147102
650.848	0.0147691
650.926	0.0147005
651.004	0.0146885
651.082	0.0145561
651.160	0.0145755
651.238	0.0146600
651.317	0.0145390
651.395	0.0144985
651.473	0.0144217
651.551	0.0143030
651.629	0.0142025
651.707	0.0143510
651.785	0.0141730
651.863	0.0142216
651.942	0.0142901
652.020	0.0142669
652.098	0.0141668
652.176	0.0143456
652.254	0.0142550
652.332	0.0143426
652.410	0.0143109
652.488	0.0144076
652.567	0.0145161
652.645	0.0145522
652.723	0.0144891
652.801	0.0145964
652.879	0.0146011
652.957	0.0145727
653.035	0.0146084
653.113	0.0147855
653.192	0.0148021
653.270	0.0149139
653.348	0.0147237
653.426	0.0147325
653.504	0.0146735
653.582	0.0149508
653.660	0.0148345
653.738	0.0148546
653.817	0.0148939
653.895	0.0148956
653.973	0.0150658
654.051	0.0150075
654.129	0.0150334
654.207	0.0149568
654.285	0.0150514
654.363	0.0150533
654.442	0.0151350
654.520	0.0152001
654.598	0.0150405
654.676	0.0151360
654.754	0.0150057
654.832	0.0150314
654.910	0.0149184
654.988	0.0149594
655.067	0.0149522
655.145	0.0147396
655.223	0.0148820
655.301	0.0148350
655.379	0.0145723
655.457	0.0145501
655.535	0.0145884
655.613	0.0146248
655.692	0.0145217
655.770	0.0144378
655.848	0.0146416
655.926	0.0145815
656.004	0.0147378
656.082	0.0148981
656.160	0.0148513
656.238	0.0148771
656.317	0.0147877
656.395	0.0149663
656.473	0.0148959
656.551	0.0147782
656.629	0.0147517
656.707	0.0147447
656.785	0.0148158
656.863	0.0146756
656.942	0.0147279
657.020	0.0147171
657.098	0.0145885
657.176	0.0144725
657.254	0.0145493
657.332	0.0145509
657.410	0.0144454
657.488	0.0142663
657.567	0.0143817
657.645	0.0144911
657.723	0.0144856
657.801	0.0145782
657.879	0.0145578
657.957	0.0146859
658.035	0.0146441
658.113	0.0147230
658.192	0.0149172
658.270	0.0148063
658.348	0.0149110
658.426	0.0149949
658.504	0.0150941
658.582	0.0151929
658.660	0.0152296
658.738	0.0152702
658.817	0.0151811
658.895	0.0153260
658.973	0.0154289
659.051	0.0152051
659.129	0.0153123
659.207	0.0151694
659.285	0.0151080
659.363	0.0149924
659.442	0.0150979
659.520	0.0152515
659.598	0.0150791
659.676	0.0149424
659.754	0.0150581
659.832	0.0147939
659.910	0.0145914
659.988	0.0147320
660.067	0.0148820
660.145	0.0145779
660.223	0.0146666
660.301	0.0146099
660.379	0.0146492
660.457	0.0145959
660.535	0.0148228
660.613	0.0149120
660.692	0.0146605
660.770	0.0148164
660.848	0.0148469
660.926	0.0148563
661.004	0.0149532
661.082	0.0149471
661.160	0.0148689
661.238	0.0148521
661.317	0.0150324
661.395	0.0150137
661.473	0.0148817
661.551	0.0149590
661.629	0.0147344
661.707	0.0149078
661.785	0.0147237
661.863	0.0146548
661.942	0.0147144
662.020	0.0144780
662.098	0.0144261
662.176	0.0142693
662.254	0.0141840
662.332	0.0142389
662.410	0.0141299
662.488	0.0140963
662.567	0.0141491
662.645	0.0141624
662.723	0.0141022
662.801	0.0142902
662.879	0.0141967
662.957	0.0142627
663.035	0.0144131
663.113	0.0142930
663.192	0.0144617
663.270	0.0145826
663.348	0.0145190
663.426	0.0145857
663.504	0.0146715
663.582	0.0146129
663.660	0.0147707
663.738	0.0147919
663.817	0.0147975
663.895	0.0148026
663.973	0.0148838
664.051	0.0149625
664.129	0.0149051
664.207	0.0148536
664.285	0.0149242
664.363	0.0148269
664.442	0.0150080
664.520	0.0146962
664.598	0.0148042
664.676	0.0147953
664.754	0.0147214
664.832	0.0146938
664.910	0.0147417
664.988	0.0146941
665.067	0.0147118
665.145	0.0147342
665.223	0.0146520
665.301	0.0146465
665.379	0.0147893
665.457	0.0146702
665.535	0.0146880
665.613	0.0147286
665.692	0.0148256
665.770	0.0149887
665.848	0.0148075
665.926	0.0148119
666.004	0.0149801
666.082	0.0149165
666.160	0.0148362
666.238	0.0149245
666.317	0.0148465
666.395	0.0149047
666.473	0.0147916
666.551	0.0147744
666.629	0.0145731
666.707	0.0145454
666.785	0.0144208
666.863	0.0144084
666.942	0.0144538
667.020	0.0143508
667.098	0.0142641
667.176	0.0144781
667.254	0.0143685
667.332	0.0142097
667.410	0.0141769
667.488	0.0142853
667.567	0.0142464
667.645	0.0143587
667.723	0.0143165
667.801	0.0144582
667.879	0.0144313
667.957	0.0144696
668.035	0.0145667
668.113	0.0146151
668.192	0.0147418
668.270	0.0146107
668.348	0.0147589
668.426	0.0147360
668.504	0.0147659
668.582	0.0148992
668.660	0.0148235
668.738	0.0148283
668.817	0.0150124
668.895	0.0148585
668.973	0.0148315
669.051	0.0149488
669.129	0.0149383
669.207	0.0147762
669.285	0.0148806
669.363	0.0148672
669.442	0.0149467
669.520	0.0146770
669.598	0.0147926
669.676	0.0146764
669.754	0.0147163
669.832	0.0146498
669.910	0.0145635
669.988	0.0147279
670.067	0.0146329
670.145	0.0147289
670.223	0.0147260
670.301	0.0147884
670.379	0.0148146
670.457	0.0148367
670.535	0.0149028
670.613	0.0150346
670.692	0.0150124
670.770	0.0150876
670.848	0.0150576
670.926	0.0150653
671.004	0.0150720
671.082	0.0150207
671.160	0.0150084
671.238	0.0148508
671.317	0.0148554
671.395	0.0148422
671.473	0.0145473
671.551	0.0145993
671.629	0.0144676
671.707	0.0143701
671.785	0.0143066
671.863	0.0141161
671.942	0.0140343
672.020	0.0139914
672.098	0.0139108
672.176	0.0139247
672.254	0.0139423
672.332	0.0140027
672.410	0.0141750
672.488	0.0141763
672.567	0.0141861
672.645	0.0144289
672.723	0.0146266
672.801	0.0147164
672.879	0.0149202
672.957	0.0148354
673.035	0.0150562
673.113	0.0151608
673.192	0.0154282
673.270	0.0154429
673.348	0.0155439
673.426	0.0153734
673.504	0.0153683
673.582	0.0154675
673.660	0.0153893
673.738	0.0151870
673.817	0.0152463
673.895	0.0151247
673.973	0.0149590
674.051	0.0149634
674.129	0.0149214
674.207	0.0146465
674.285	0.0146885
674.363	0.0144583
674.442	0.0144517
674.520	0.0143896
674.598	0.0143511
674.676	0.0142384
674.754	0.0141820
674.832	0.0141690
674.910	0.0140599
674.988	0.0141164
675.067	0.0139194
675.145	0.0139597
675.223	0.0140736
675.301	0.0141331
675.379	0.0142083
675.457	0.0142023
675.535	0.0142659
675.613	0.0143395
675.692	0.0145100
675.770	0.0144373
675.848	0.0145010
675.926	0.0146066
676.004	0.0147456
676.082	0.0147353
676.160	0.0149293
676.238	0.0150087
676.317	0.0150116
676.395	0.0150436
676.473	0.0149078
676.551	0.0150332
676.629	0.0152460
676.707	0.0152160
676.785	0.0151151
676.863	0.0152501
676.942	0.0152542
677.020	0.0152401
677.098	0.0152768
677.176	0.0152305
677.254	0.0150671
677.332	0.0151476
677.410	0.0150344
677.488	0.0150016
677.567	0.0149184
677.645	0.0149114
677.723	0.0147743
677.801	0.0146880
677.879	0.0147259
677.957	0.0146710
678.035	0.0146329
678.113	0.0145988
678.192	0.0145893
678.270	0.0144636
678.348	0.0145955
678.426	0.0145531
678.504	0.0144211
678.582	0.0144436
678.660	0.0145155
678.738	0.0144083
678.817	0.0143172
678.895	0.0143683
678.973	0.0144157
679.051	0.0142757
679.129	0.0143443
679.207	0.0143373
679.285	0.0144508
679.363	0.0145110
679.442	0.0146020
679.520	0.0147038
679.598	0.0148015
679.676	0.0148904
679.754	0.0149496
679.832	0.0151145
679.910	0.0151206
679.988	0.0153518
680.067	0.0151905
680.145	0.0152572
680.223	0.0154041
680.301	0.0153392
680.379	0.0154848
680.457	0.0155267
680.535	0.0154969
680.613	0.0155299
680.692	0.0155676
680.770	0.0154470
680.848	0.0154568
680.926	0.0155528
681.004	0.0154363
681.082	0.0154202
681.160	0.0154245
681.238	0.0153934
681.317	0.0152782
681.395	0.0153748
681.473	0.0152969
681.551	0.0152967
681.629	0.0152066
681.707	0.0150488
681.785	0.0149882
681.863	0.0149004
681.942	0.0147945
682.020	0.0148183
682.098	0.0147587
682.176	0.0145436
682.254	0.0144589
682.332	0.0144153
682.410	0.0142725
682.488	0.0142391
682.567	0.0142135
682.645	0.0142113
682.723	0.0139048
682.801	0.0140664
682.879	0.0140474
682.957	0.0140121
683.035	0.0141539
683.113	0.0142860
683.192	0.0142376
683.270	0.0142374
683.348	0.0142273
683.426	0.0142577
683.504	0.0142965
683.582	0.0146080
683.660	0.0144291
683.738	0.0145141
683.817	0.0145547
683.895	0.0145371
683.973	0.0147281
684.051	0.0148641
684.129	0.0149889
684.207	0.0149435
684.285	0.0151149
684.363	0.0152341
684.442	0.0153125
684.520	0.0153351
684.598	0.0156660
684.676	0.0159083
684.754	0.0158408
684.832	0.0158908
684.910	0.0158866
684.988	0.0159402
685.067	0.0160140
685.145	0.0160527
685.223	0.0161250
685.301	0.0157707
685.379	0.0157057
685.457	0.0155357
685.535	0.0154999
685.613	0.0154423
685.692	0.0149676
685.770	0.0149022
685.848	0.0148352
685.926	0.0147032
686.004	0.0146776
686.082	0.0144871
686.160	0.0143451
686.238	0.0144340
686.317	0.0142560
686.395	0.0140496
686.473	0.0140839
686.551	0.0140289
686.629	0.0140504
686.707	0.0139107
686.785	0.0140263
686.863	0.0141135
686.942	0.0141179
687.020	0.0142270
687.098	0.0140633
687.176	0.0141528
687.254	0.0141952
687.332	0.0143266
687.410	0.0143096
687.488	0.0143854
687.567	0.0145235
687.645	0.0145116
687.723	0.0145807
687.801	0.0147467
687.879	0.0147562
687.957	0.0147926
688.035	0.0149302
688.113	0.0149569
688.192	0.0150376
688.270	0.0149908
688.348	0.0149825
688.426	0.0151566
688.504	0.0150301
688.582	0.0150867
688.660	0.0151109
688.738	0.0151638
688.817	0.0152322
688.895	0.0152549
688.973	0.0153582
689.051	0.0153951
689.129	0.0153904
689.207	0.0153475
689.285	0.0153420
689.363	0.0153453
689.442	0.0154947
689.520	0.0153948
689.598	0.0151501
689.676	0.0154474
689.754	0.0153252
689.832	0.0151092
689.910	0.0151943
689.988	0.0149424
690.067	0.0151454
690.145	0.0149702
690.223	0.0148431
690.301	0.0148881
690.379	0.0148569
690.457	0.0148611
690.535	0.0148574
690.613	0.0148029
690.692	0.0147665
690.770	0.0146992
690.848	0.0148222
690.926	0.0147229
691.004	0.0148178
691.082	0.0147518
691.160	0.0147073
691.238	0.0146425
691.317	0.0147847
691.395	0.0145866
691.473	0.0146282
691.551	0.0146017
691.629	0.0143774
691.707	0.0143670
691.785	0.0144710
691.863	0.0145326
691.942	0.0145242
692.020	0.0145222
692.098	0.0144340
692.176	0.0143701
692.254	0.0143526
692.332	0.0142845
692.410	0.0142950
692.488	0.0141980
692.567	0.0141910
692.645	0.0141950
692.723	0.0142936
692.801	0.0143076
692.879	0.0143122
692.957	0.0141960
693.035	0.0146000
693.113	0.0146924
693.192	0.0146554
693.270	0.0148652
693.348	0.0149281
693.426	0.0148487
693.504	0.0151431
693.582	0.0153916
693.660	0.0153341
693.738	0.0154990
693.817	0.0156213
693.895	0.0157032
693.973	0.0156598
694.051	0.0156826
694.129	0.0155571
694.207	0.0157128
694.285	0.0155935
694.363	0.0155949
694.442	0.0154162
694.520	0.0154144
694.598	0.0153043
694.676	0.0153880
694.754	0.0152891
694.832	0.0151657
694.910	0.0151141
694.988	0.0150492
695.067	0.0150018
695.145	0.0147160
695.223	0.0148183
695.301	0.0148975
695.379	0.0146622
695.457	0.0147444
695.535	0.0147054
695.613	0.0145837
695.692	0.0144485
695.770	0.0144267
695.848	0.0142267
695.926	0.0141444
696.004	0.0140035
696.082	0.0139772
696.160	0.0139439
696.238	0.0138244
696.317	0.0137180
696.395	0.0137236
696.473	0.0136496
696.551	0.0136943
696.629	0.0135744
696.707	0.0135915
696.785	0.0135335
696.863	0.0136943
696.942	0.0137616
697.020	0.0139651
697.098	0.0140616
697.176	0.0141048
697.254	0.0142287
697.332	0.0144270
697.410	0.0145577
697.488	0.0145167
697.567	0.0145899
697.645	0.0147488
697.723	0.0148157
697.801	0.0149345
697.879	0.0150901
697.957	0.0149484
698.035	0.0150928
698.113	0.0151979
698.192	0.0152208
698.270	0.0152786
698.348	0.0153812
698.426	0.0153198
698.504	0.0153188
698.582	0.0155643
698.660	0.0154930
698.738	0.0156246
698.817	0.0156575
698.895	0.0155878
698.973	0.0156902
699.051	0.0155832
699.129	0.0156192
699.207	0.0155090
699.285	0.0155325
699.363	0.0154990
699.442	0.0154524
699.520	0.0151417
699.598	0.0151377
699.676	0.0149829
699.754	0.0147134
699.832	0.0146401
699.910	0.0146461
699.988	0.0142617
700.067	0.0141449
700.145	0.0141321
700.223	0.0141500
700.301	0.0139555
700.379	0.0139499
700.457	0.0138840
700.535	0.0138950
700.613	0.0137926
700.692	0.0138058
700.770	0.0138482
700.848	0.0138214
700.926	0.0138815
701.004	0.0140166
701.082	0.0138202
701.160	0.0139905
701.238	0.0141176
701.317	0.0141893
701.395	0.0142075
701.473	0.0142494
701.551	0.0143328
701.629	0.0144009
701.707	0.0144031
701.785	0.0145280
701.863	0.0145422
701.942	0.0146612
702.020	0.0145932
702.098	0.0147701
702.176	0.0147476
702.254	0.0148894
702.332	0.0151768
702.410	0.0151537
702.488	0.0151844
702.567	0.0151972
702.645	0.0152872
702.723	0.0153812
702.801	0.0154302
702.879	0.0155095
702.957	0.0155069
703.035	0.0155233
703.113	0.0156252
703.192	0.0156773
703.270	0.0154883
703.348	0.0156690
703.426	0.0156026
703.504	0.0155759
703.582	0.0154829
703.660	0.0154429
703.738	0.0154133
703.817	0.0154346
703.895	0.0152322
703.973	0.0151153
704.051	0.0148780
704.129	0.0150224
704.207	0.0148315
704.285	0.0148158
704.363	0.0148091
704.442	0.0148002
704.520	0.0146637
704.598	0.0145925
704.676	0.0145107
704.754	0.0143824
704.832	0.0144827
704.910	0.0144286
704.988	0.0145351
705.067	0.0145660
705.145	0.0144513
705.223	0.0145988
705.301	0.0145388
705.379	0.0146731
705.457	0.0145652
705.535	0.0145693
705.613	0.0148522
705.692	0.0146668
705.770	0.0148803
705.848	0.0147716
705.926	0.0147340
706.004	0.0147559
706.082	0.0147939
706.160	0.0147979
706.238	0.0148177
706.317	0.0148319
706.395	0.0146812
706.473	0.0146781
706.551	0.0147215
706.629	0.0146884
706.707	0.0148492
706.785	0.0147244
706.863	0.0148656
706.942	0.0148333
707.020	0.0147318
707.098	0.0147015
707.176	0.0148255
707.254	0.0149224
707.332	0.0148807
707.410	0.0149718
707.488	0.0150481
707.567	0.0150661
707.645	0.0150906
707.723	0.0151183
707.801	0.0152747
707.879	0.0153480
707.957	0.0153610
708.035	0.0152434
708.113	0.0152856
708.192	0.0152531
708.270	0.0152901
708.348	0.0152074
708.426	0.0152480
708.504	0.0154275
708.582	0.0153227
708.660	0.0151640
708.738	0.0151872
708.817	0.0151935
708.895	0.0150614
708.973	0.0150875
709.051	0.0151023
709.129	0.0149714
709.207	0.0149029
709.285	0.0149254
709.363	0.0147738
709.442	0.0149061
709.520	0.0148268
709.598	0.0148540
709.676	0.0147819
709.754	0.0147142
709.832	0.0146308
709.910	0.0145974
709.988	0.0147121
710.067	0.0148373
710.145	0.0146136
710.223	0.0145696
710.301	0.0146694
710.379	0.0145850
710.457	0.0145020
710.535	0.0145625
710.613	0.0144447
710.692	0.0145586
710.770	0.0145860
710.848	0.0144753
710.926	0.0144110
711.004	0.0144492
711.082	0.0143861
711.160	0.0144122
711.238	0.0142536
711.317	0.0142843
711.395	0.0143369
711.473	0.0143504
711.551	0.0141332
711.629	0.0141959
711.707	0.0142469
711.785	0.0143391
711.863	0.0142568
711.942	0.0141833
712.020	0.0141445
712.098	0.0142113
712.176	0.0141887
712.254	0.0142278
712.332	0.0143219
712.410	0.0144110
712.488	0.0143417
712.567	0.0143809
712.645	0.0143540
712.723	0.0144710
712.801	0.0144392
712.879	0.0143610
712.957	0.0145325
713.035	0.0144560
713.113	0.0144720
713.192	0.0146320
713.270	0.0144402
713.348	0.0145078
713.426	0.0144195
713.504	0.0146135
713.582	0.0145494
713.660	0.0144763
713.738	0.0146909
713.817	0.0146627
713.895	0.0146093
713.973	0.0146947
714.051	0.0149183
714.129	0.0148872
714.207	0.0148189
714.285	0.0148891
714.363	0.0150497
714.442	0.0150888
714.520	0.0150229
714.598	0.0149821
714.676	0.0151623
714.754	0.0150227
714.832	0.0150275
714.910	0.0150571
714.988	0.0149700
715.067	0.0150666
715.145	0.0148679
715.223	0.0150044
715.301	0.0149684
715.379	0.0147593
715.457	0.0149086
715.535	0.0149016
715.613	0.0148970
715.692	0.0148050
715.770	0.0148152
715.848	0.0148075
715.926	0.0148849
716.004	0.0148386
716.082	0.0148914
716.160	0.0148201
716.238	0.0147381
716.317	0.0148203
716.395	0.0148024
716.473	0.0149114
716.551	0.0148769
716.629	0.0148221
716.707	0.0148692
716.785	0.0148841
716.863	0.0148261
716.942	0.0150099
717.020	0.0149332
717.098	0.0150410
717.176	0.0148148
717.254	0.0149403
717.332	0.0149708
717.410	0.0146901
717.488	0.0147145
717.567	0.0147884
717.645	0.0147228
717.723	0.0147256
717.801	0.0146395
717.879	0.0146858
717.957	0.0146614
718.035	0.0146598
718.113	0.0145853
718.192	0.0146429
718.270	0.0145013
718.348	0.0145023
718.426	0.0144710
718.504	0.0143306
718.582	0.0145074
718.660	0.0145739
718.738	0.0144102
718.817	0.0144662
718.895	0.0145606
718.973	0.0146431
719.051	0.0146207
719.129	0.0148237
719.207	0.0147337
719.285	0.0146538
719.363	0.0148325
719.442	0.0148344
719.520	0.0148238
719.598	0.0148061
719.676	0.0149736
719.754	0.0149465
719.832	0.0150318
719.910	0.0150219
719.988	0.0149545
720.067	0.0149537
720.145	0.0149474
720.223	0.0149099
720.301	0.0149252
720.379	0.0149001
720.457	0.0146714
720.535	0.0146746
720.613	0.0147039
720.692	0.0147646
720.770	0.0147099
720.848	0.0147202
720.926	0.0147508
721.004	0.0146333
721.082	0.0147292
721.160	0.0146831
721.238	0.0147801
721.317	0.0148831
721.395	0.0148067
721.473	0.0147799
721.551	0.0148066
721.629	0.0149395
721.707	0.0148007
721.785	0.0149415
721.863	0.0148496
721.942	0.0150552
722.020	0.0149860
722.098	0.0149595
722.176	0.0149733
722.254	0.0149346
722.332	0.0149886
722.410	0.0149399
722.488	0.0148871
722.567	0.0147727
722.645	0.0147219
722.723	0.0145967
722.801	0.0146832
722.879	0.0147707
722.957	0.0147311
723.035	0.0146440
723.113	0.0146085
723.192	0.0145490
723.270	0.0143987
723.348	0.0144222
723.426	0.0144724
723.504	0.0144757
723.582	0.0145685
723.660	0.0145882
723.738	0.0144518
723.817	0.0145805
723.895	0.0146842
723.973	0.0146207
724.051	0.0147981
724.129	0.0148309
724.207	0.0147544
724.285	0.0148102
724.363	0.0148708
724.442	0.0149215
724.520	0.0149907
724.598	0.0149997
724.676	0.0150687
724.754	0.0149590
724.832	0.0149085
724.910	0.0150222
724.988	0.0150072
725.067	0.0150107
725.145	0.0149895
725.223	0.0150361
725.301	0.0149314
725.379	0.0149477
725.457	0.0149112
725.535	0.0150027
725.613	0.0148531
725.692	0.0148716
725.770	0.0148949
725.848	0.0149947
725.926	0.0149051
726.004	0.0149123
726.082	0.0148061
726.160	0.0149575
726.238	0.0148859
726.317	0.0148550
726.395	0.0147696
726.473	0.0148364
726.551	0.0146978
726.629	0.0147599
726.707	0.0147356
726.785	0.0146780
726.863	0.0147340
726.942	0.0146686
727.020	0.0146992
727.098	0.0145355
727.176	0.0143732
727.254	0.0144777
727.332	0.0145018
727.410	0.0145424
727.488	0.0144149
727.567	0.0144074
727.645	0.0144070
727.723	0.0145094
727.801	0.0142004
727.879	0.0143812
727.957	0.0142561
728.035	0.0142600
728.113	0.0143827
728.192	0.0143867
728.270	0.0143803
728.348	0.0144003
728.426	0.0144587
728.504	0.0144497
728.582	0.0144644
728.660	0.0145399
728.738	0.0145982
728.817	0.0146608
728.895	0.0146502
728.973	0.0146432
729.051	0.0147514
729.129	0.0147693
729.207	0.0148666
729.285	0.0149834
729.363	0.0149881
729.442	0.0150381
729.520	0.0150533
729.598	0.0149416
729.676	0.0151542
729.754	0.0151916
729.832	0.0151570
729.910	0.0151749
729.988	0.0150851
730.067	0.0151007
730.145	0.0151862
730.223	0.0150397
730.301	0.0151881
730.379	0.0150474
730.457	0.0150294
730.535	0.0149967
730.613	0.0150122
730.692	0.0150537
730.770	0.0150005
730.848	0.0148550
730.926	0.0149505
731.004	0.0150179
731.082	0.0148154
731.160	0.0147726
731.238	0.0147069
731.317	0.0147281
731.395	0.0147749
731.473	0.0147862
731.551	0.0146857
731.629	0.0148290
731.707	0.0146883
731.785	0.0146889
731.863	0.0148058
731.942	0.0147887
732.020	0.0146909
732.098	0.0146074
732.176	0.0147057
732.254	0.0146968
732.332	0.0146968
732.410	0.0146600
732.488	0.0146103
732.567	0.0147664
732.645	0.0147077
732.723	0.0146985
732.801	0.0147884
732.879	0.0147155
732.957	0.0147374
733.035	0.0147097
733.113	0.0146030
733.192	0.0147401
733.270	0.0145420
733.348	0.0145574
733.426	0.0145824
733.504	0.0145422
733.582	0.0146043
733.660	0.0146772
733.738	0.0146365
733.817	0.0145467
733.895	0.0146616
733.973	0.0146059
734.051	0.0145405
734.129	0.0146187
734.207	0.0147511
734.285	0.0145496
734.363	0.0146577
734.442	0.0145891
734.520	0.0146933
734.598	0.0147572
734.676	0.0147878
734.754	0.0146115
734.832	0.0144597
734.910	0.0146635
734.988	0.0146099
735.067	0.0148088
735.145	0.0147553
735.223	0.0146182
735.301	0.0146114
735.379	0.0146470
735.457	0.0147247
735.535	0.0145525
735.613	0.0147047
735.692	0.0146446
735.770	0.0146609
735.848	0.0148023
735.926	0.0146613
736.004	0.0146906
736.082	0.0146826
736.160	0.0147098
736.238	0.0147215
736.317	0.0147501
736.395	0.0148043
736.473	0.0148769
736.551	0.0147149
736.629	0.0146246
736.707	0.0147511
736.785	0.0147609
736.863	0.0147104
736.942	0.0147713
737.020	0.0148378
737.098	0.0147399
737.176	0.0147398
737.254	0.0148802
737.332	0.0149332
737.410	0.0148460
737.488	0.0149061
737.567	0.0150037
737.645	0.0150621
737.723	0.0149740
737.801	0.0150126
737.879	0.0150499
737.957	0.0149508
738.035	0.0150246
738.113	0.0149989
738.192	0.0151349
738.270	0.0150272
738.348	0.0150102
738.426	0.0149555
738.504	0.0150073
738.582	0.0148167
738.660	0.0148751
738.738	0.0148737
738.817	0.0149464
738.895	0.0148004
738.973	0.0149497
739.051	0.0147594
739.129	0.0147723
739.207	0.0148956
739.285	0.0148598
739.363	0.0148130
739.442	0.0148355
739.520	0.0148539
739.598	0.0146767
739.676	0.0148173
739.754	0.0146724
739.832	0.0145510
739.910	0.0146687
739.988	0.0146793
740.067	0.0146146
740.145	0.0146704
740.223	0.0145244
740.301	0.0145301
740.379	0.0145401
740.457	0.0145380
740.535	0.0144732
740.613	0.0145325
740.692	0.0144961
740.770	0.0145329
740.848	0.0145094
740.926	0.0144186
741.004	0.0146503
741.082	0.0146442
741.160	0.0145981
741.238	0.0146931
741.317	0.0145505
741.395	0.0145731
741.473	0.0146081
741.551	0.0146516
741.629	0.0145223
741.707	0.0142578
741.785	0.0144918
741.863	0.0146535
741.942	0.0145545
742.020	0.0144655
742.098	0.0144166
742.176	0.0145245
742.254	0.0144929
742.332	0.0146159
742.410	0.0146494
742.488	0.0144698
742.567	0.0146379
742.645	0.0145226
742.723	0.0145370
742.801	0.0145787
742.879	0.0145241
742.957	0.0146268
743.035	0.0145486
743.113	0.0146059
743.192	0.0145351
743.270	0.0145724
743.348	0.0146838
743.426	0.0145599
743.504	0.0144308
743.582	0.0145005
743.660	0.0145863
743.738	0.0145197
743.817	0.0146014
743.895	0.0144762
743.973	0.0144759
744.051	0.0145000
744.129	0.0144408
744.207	0.0145047
744.285	0.0146299
744.363	0.0146325
744.442	0.0145096
744.520	0.0147549
744.598	0.0145126
744.676	0.0147900
744.754	0.0147355
744.832	0.0146435
744.910	0.0147451
744.988	0.0147588
745.067	0.0147481
745.145	0.0147232
745.223	0.0149313
745.301	0.0148276
745.379	0.0149274
745.457	0.0149162
745.535	0.0148572
745.613	0.0148317
745.692	0.0148248
745.770	0.0149170
745.848	0.0148637
745.926	0.0149300
746.004	0.0147556
746.082	0.0149055
746.160	0.0148629
746.238	0.0149813
746.317	0.0148631
746.395	0.0148255
746.473	0.0147668
746.551	0.0148251
746.629	0.0149184
746.707	0.0148586
746.785	0.0147935
746.863	0.0148331
746.942	0.0148801
747.020	0.0148822
747.098	0.0148730
747.176	0.0147915
747.254	0.0149409
747.332	0.0149776
747.410	0.0149467
747.488	0.0150225
747.567	0.0149767
747.645	0.0150809
747.723	0.0148757
747.801	0.0148977
747.879	0.0150386
747.957	0.0150041
748.035	0.0150186
748.113	0.0151288
748.192	0.0150729
748.270	0.0149843
748.348	0.0150688
748.426	0.0150253
748.504	0.0149215
748.582	0.0149930
748.660	0.0149597
748.738	0.0150694
748.817	0.0150466
748.895	0.0150634
748.973	0.0150822
749.051	0.0149774
749.129	0.0149879
749.207	0.0150175
749.285	0.0151604
749.363	0.0150055
749.442	0.0149774
749.520	0.0149801
749.598	0.0149666
749.676	0.0149587
749.754	0.0150285
749.832	0.0149931
749.910	0.0149628
749.988	0.0150046
750.067	0.0151974
750.145	0.0150144
750.223	0.0152132
750.301	0.0151662
750.379	0.0150315
750.457	0.0149305
750.535	0.0149235
750.613	0.0149317
750.692	0.0149588
750.770	0.0148663
750.848	0.0149590
750.926	0.0149344
751.004	0.0149670
751.082	0.0148320
751.160	0.0147792
751.238	0.0147123
751.317	0.0147778
751.395	0.0147581
751.473	0.0146847
751.551	0.0146904
751.629	0.0147343
751.707	0.0146883
751.785	0.0146397
751.863	0.0147617
751.942	0.0147252
752.020	0.0146938
752.098	0.0146278
752.176	0.0146427
752.254	0.0147363
752.332	0.0146823
752.410	0.0147569
752.488	0.0146326
752.567	0.0147738
752.645	0.0144933
752.723	0.0146304
752.801	0.0146307
752.879	0.0146069
752.957	0.0145444
753.035	0.0144370
753.113	0.0146100
753.192	0.0145529
753.270	0.0144924
753.348	0.0144015
753.426	0.0145280
753.504	0.0146011
753.582	0.0144315
753.660	0.0144426
753.738	0.0143759
753.817	0.0145164
753.895	0.0142859
753.973	0.0145522
754.051	0.0145975
754.129	0.0145057
754.207	0.0145168
754.285	0.0147092
754.363	0.0145390
754.442	0.0144765
754.520	0.0146040
754.598	0.0144854
754.676	0.0145956
754.754	0.0144910
754.832	0.0145258
754.910	0.0146147
754.988	0.0145289
755.067	0.0145044
755.145	0.0146841
755.223	0.0146610
755.301	0.0146355
755.379	0.0147071
755.457	0.0147748
755.535	0.0147726
755.613	0.0146894
755.692	0.0147567
755.770	0.0149015
755.848	0.0149789
755.926	0.0148219
756.004	0.0149330
756.082	0.0150388
756.160	0.0148872
756.238	0.0148300
756.317	0.0149339
756.395	0.0149118
756.473	0.0149706
756.551	0.0149908
756.629	0.0150513
756.707	0.0149300
756.785	0.0149036
756.863	0.0148598
756.942	0.0150951
757.020	0.0149525
757.098	0.0148490
757.176	0.0148316
757.254	0.0149180
757.332	0.0146887
757.410	0.0148618
757.488	0.0149693
757.567	0.0150211
757.645	0.0149722
757.723	0.0148529
757.801	0.0148889
757.879	0.0149557
757.957	0.0149822
758.035	0.0149625
758.113	0.0149036
758.192	0.0148530
758.270	0.0149512
758.348	0.0149214
758.426	0.0149789
758.504	0.0149574
758.582	0.0148638
758.660	0.0148933
758.738	0.0150038
758.817	0.0149138
758.895	0.0149168
758.973	0.0149279
759.051	0.0149473
759.129	0.0149738
759.207	0.0148338
759.285	0.0149319
759.363	0.0149207
759.442	0.0147965
759.520	0.0150258
759.598	0.0149568
759.676	0.0149291
759.754	0.0149773
759.832	0.0148632
759.910	0.0149092
759.988	0.0149170
760.067	0.0148858
760.145	0.0148901
760.223	0.0147581
760.301	0.0147193
760.379	0.0148188
760.457	0.0148360
760.535	0.0147676
760.613	0.0148635
760.692	0.0148054
760.770	0.0148356
760.848	0.0147675
760.926	0.0148409
761.004	0.0148322
761.082	0.0150019
761.160	0.0148903
761.238	0.0149020
761.317	0.0147968
761.395	0.0149284
761.473	0.0148724
761.551	0.0149203
761.629	0.0148862
761.707	0.0149636
761.785	0.0150166
761.863	0.0149147
761.942	0.0148522
762.020	0.0148293
762.098	0.0148933
762.176	0.0148893
762.254	0.0149363
762.332	0.0148106
762.410	0.0148412
762.488	0.0148356
762.567	0.0149754
762.645	0.0148627
762.723	0.0148523
762.801	0.0147760
762.879	0.0148872
762.957	0.0148442
763.035	0.0148372
763.113	0.0149628
763.192	0.0147446
763.270	0.0147774
763.348	0.0147322
763.426	0.0147512
763.504	0.0146687
763.582	0.0147657
763.660	0.0147340
763.738	0.0147121
763.817	0.0146983
763.895	0.0146423
763.973	0.0147415
764.051	0.0146267
764.129	0.0145699
764.207	0.0146323
764.285	0.0145985
764.363	0.0145319
764.442	0.0146771
764.520	0.0147153
764.598	0.0146021
764.676	0.0146894
764.754	0.0146316
764.832	0.0146797
764.910	0.0145338
764.988	0.0146533
765.067	0.0146452
765.145	0.0146258
765.223	0.0146629
765.301	0.0145522
765.379	0.0144573
765.457	0.0145325
765.535	0.0145866
765.613	0.0145743
765.692	0.0145622
765.770	0.0144648
765.848	0.0146242
765.926	0.0145702
766.004	0.0145068
766.082	0.0148204
766.160	0.0145905
766.238	0.0144920
766.317	0.0144836
766.395	0.0146584
766.473	0.0147523
766.551	0.0147062
766.629	0.0145927
766.707	0.0145581
766.785	0.0146891
766.863	0.0145874
766.942	0.0146140
767.020	0.0145805
767.098	0.0146690
767.176	0.0145844
767.254	0.0146729
767.332	0.0145527
767.410	0.0145262
767.488	0.0145921
767.567	0.0145405
767.645	0.0145439
767.723	0.0146516
767.801	0.0144852
767.879	0.0145494
767.957	0.0147159
768.035	0.0145340
768.113	0.0145352
768.192	0.0147018
768.270	0.0145494
768.348	0.0146627
768.426	0.0145079
768.504	0.0147424
768.582	0.0146173
768.660	0.0147165
768.738	0.0147427
768.817	0.0147876
768.895	0.0148010
768.973	0.0147664
769.051	0.0147587
769.129	0.0147622
769.207	0.0147796
769.285	0.0147802
769.363	0.0149004
769.442	0.0148201
769.520	0.0148672
769.598	0.0149434
769.676	0.0148184
769.754	0.0148840
769.832	0.0149490
769.910	0.0149722
769.988	0.0148070
770.067	0.0147894
770.145	0.0148959
770.223	0.0148798
770.301	0.0149449
770.379	0.0148719
770.457	0.0148772
770.535	0.0148401
770.613	0.0149590
770.692	0.0148508
770.770	0.0149876
770.848	0.0149703
770.926	0.0149458
771.004	0.0149104
771.082	0.0147593
771.160	0.0147682
771.238	0.0148608
771.317	0.0149178
771.395	0.0148619
771.473	0.0146964
771.551	0.0146966
771.629	0.0147557
771.707	0.0146992
771.785	0.0148129
771.863	0.0147407
771.942	0.0146939
772.020	0.0148129
772.098	0.0146704
772.176	0.0147050
772.254	0.0148124
772.332	0.0146830
772.410	0.0148360
772.488	0.0149207
772.567	0.0148357
772.645	0.0146647
772.723	0.0148959
772.801	0.0147971
772.879	0.0147963
772.957	0.0147363
773.035	0.0148708
773.113	0.0147390
773.192	0.0150040
773.270	0.0148463
773.348	0.0148534
773.426	0.0148845
773.504	0.0148222
773.582	0.0147126
773.660	0.0147411
773.738	0.0148000
773.817	0.0149129
773.895	0.0147756
773.973	0.0147222
774.051	0.0146685
774.129	0.0147137
774.207	0.0148061
774.285	0.0146059
774.363	0.0146418
774.442	0.0146499
774.520	0.0145177
774.598	0.0145695
774.676	0.0146888
774.754	0.0146166
774.832	0.0144675
774.910	0.0145876
774.988	0.0145850
775.067	0.0145089
775.145	0.0146627
775.223	0.0145672
775.301	0.0147321
775.379	0.0146110
775.457	0.0145605
775.535	0.0146148
775.613	0.0147813
775.692	0.0148035
775.770	0.0146413
775.848	0.0148447
775.926	0.0148997
776.004	0.0148866
776.082	0.0149313
776.160	0.0149172
776.238	0.0148656
776.317	0.0149685
776.395	0.0150092
776.473	0.0149081
776.551	0.0148533
776.629	0.0149335
776.707	0.0150986
776.785	0.0148502
776.863	0.0149751
776.942	0.0151447
777.020	0.0148472
777.098	0.0148946
777.176	0.0149297
777.254	0.0150083
777.332	0.0149353
777.410	0.0149459
777.488	0.0148613
777.567	0.0150299
777.645	0.0150095
777.723	0.0148180
777.801	0.0148593
777.879	0.0149126
777.957	0.0148421
778.035	0.0149942
778.113	0.0149749
778.192	0.0147979
778.270	0.0148504
778.348	0.0149087
778.426	0.0148630
778.504	0.0148850
778.582	0.0148563
778.660	0.0148386
778.738	0.0148898
778.817	0.0148106
778.895	0.0148973
778.973	0.0147916
779.051	0.0148100
779.129	0.0149188
779.207	0.0148686
779.285	0.0148824
779.363	0.0148418
779.442	0.0147948
779.520	0.0146951
779.598	0.0149352
779.676	0.0149690
779.754	0.0147810
779.832	0.0149625
779.910	0.0149622
779.988	0.0150138
780.067	0.0150601
780.145	0.0150111
780.223	0.0150016
780.301	0.0150164
780.379	0.0151174
780.457	0.0150711
780.535	0.0151310
780.613	0.0150050
780.692	0.0150913
780.770	0.0152008
780.848	0.0151548
780.926	0.0150468
781.004	0.0151659
781.082	0.0149831
781.160	0.0151786
781.238	0.0150909
781.317	0.0150208
781.395	0.0151942
781.473	0.0150781
781.551	0.0150089
781.629	0.0149290
781.707	0.0148885
781.785	0.0148534
781.863	0.0149965
781.942	0.0149474
782.020	0.0148406
782.098	0.0148341
782.176	0.0147654
782.254	0.0147811
782.332	0.0148412
782.410	0.0146191
782.488	0.0146346
782.567	0.0146742
782.645	0.0147093
782.723	0.0147498
782.801	0.0147311
782.879	0.0146414
782.957	0.0146230
783.035	0.0146677
783.113	0.0146996
783.192	0.0147217
783.270	0.0146487
783.348	0.0146630
783.426	0.0147749
783.504	0.0146111
783.582	0.0146378
783.660	0.0146211
783.738	0.0144955
783.817	0.0146053
783.895	0.0146181
783.973	0.0146980
784.051	0.0146198
784.129	0.0145885
784.207	0.0146498
784.285	0.0147141
784.363	0.0147443
784.442	0.0146730
784.520	0.0147876
784.598	0.0146951
784.676	0.0147842
784.754	0.0147552
784.832	0.0147237
784.910	0.0147133
784.988	0.0147869
785.067	0.0148102
785.145	0.0147210
785.223	0.0146260
785.301	0.0147142
785.379	0.0146665
785.457	0.0147578
785.535	0.0148331
785.613	0.0148003
785.692	0.0147297
785.770	0.0147341
785.848	0.0147409
785.926	0.0147334
786.004	0.0146990
786.082	0.0145837
786.160	0.0146333
786.238	0.0146280
786.317	0.0147605
786.395	0.0147106
786.473	0.0147277
786.551	0.0147410
786.629	0.0148114
786.707	0.0147019
786.785	0.0148128
786.863	0.0146904
786.942	0.0148058
787.020	0.0147861
787.098	0.0146223
787.176	0.0147070
787.254	0.0146107
787.332	0.0144992
787.410	0.0146233
787.488	0.0147993
787.567	0.0146178
787.645	0.0145987
787.723	0.0146207
787.801	0.0148466
787.879	0.0148378
787.957	0.0147194
788.035	0.0146407
788.113	0.0147547
788.192	0.0147256
788.270	0.0148550
788.348	0.0148293
788.426	0.0148883
788.504	0.0148853
788.582	0.0149889
788.660	0.0148100
788.738	0.0149419
788.817	0.0149235
788.895	0.0149440
788.973	0.0149554
789.051	0.0149132
789.129	0.0148835
789.207	0.0148407
789.285	0.0148959
789.363	0.0148645
789.442	0.0149237
789.520	0.0148756
789.598	0.0149238
789.676	0.0149692
789.754	0.0148274
789.832	0.0149142
789.910	0.0150842
789.988	0.0150119
790.067	0.0149644
790.145	0.0150447
790.223	0.0150373
790.301	0.0148055
790.379	0.0149572
790.457	0.0149674
790.535	0.0149065
790.613	0.0149511
790.692	0.0148753
790.770	0.0148375
790.848	0.0149969
790.926	0.0149818
791.004	0.0147807
791.082	0.0148749
791.160	0.0147578
791.238	0.0148294
791.317	0.0148293
791.395	0.0148708
791.473	0.0148187
791.551	0.0147134
791.629	0.0147578
791.707	0.0146970
791.785	0.0146817
791.863	0.0148061
791.942	0.0148459
792.020	0.0147997
792.098	0.0147636
792.176	0.0147385
792.254	0.0146946
792.332	0.0147302
792.410	0.0146539
792.488	0.0147004
792.567	0.0146570
792.645	0.0146839
792.723	0.0145435
792.801	0.0146118
792.879	0.0145435
792.957	0.0145367
793.035	0.0144905
793.113	0.0145090
793.192	0.0144678
793.270	0.0145222
793.348	0.0144670
793.426	0.0143961
793.504	0.0143960
793.582	0.0144930
793.660	0.0145116
793.738	0.0144068
793.817	0.0145358
793.895	0.0143800
793.973	0.0143769
794.051	0.0146455
794.129	0.0145279
794.207	0.0144752
794.285	0.0145918
794.363	0.0145241
794.442	0.0145431
794.520	0.0146926
794.598	0.0145583
794.676	0.0146821
794.754	0.0147493
794.832	0.0145856
794.910	0.0145892
794.988	0.0147752
795.067	0.0146910
795.145	0.0147453
795.223	0.0146864
795.301	0.0146664
795.379	0.0145748
795.457	0.0145616
795.535	0.0146018
795.613	0.0146741
795.692	0.0145590
795.770	0.0144543
795.848	0.0145403
795.926	0.0144279
796.004	0.0146952
796.082	0.0145381
796.160	0.0144729
796.238	0.0145049
796.317	0.0146826
796.395	0.0144412
796.473	0.0144601
796.551	0.0145755
796.629	0.0144855
796.707	0.0145682
796.785	0.0144965
796.863	0.0144775
796.942	0.0146291
797.020	0.0145587
797.098	0.0145412
797.176	0.0145160
797.254	0.0145300
797.332	0.0145171
797.410	0.0145129
797.488	0.0144732
797.567	0.0144202
797.645	0.0145106
797.723	0.0145078
797.801	0.0143195
797.879	0.0146013
797.957	0.0145589
798.035	0.0145571
798.113	0.0145333
798.192	0.0145889
798.270	0.0144743
798.348	0.0145186
798.426	0.0146837
798.504	0.0145388
798.582	0.0146088
798.660	0.0146143
798.738	0.0147263
798.817	0.0146542
798.895	0.0145421
798.973	0.0147066
799.051	0.0146667
799.129	0.0145661
799.207	0.0147064
799.285	0.0148743
799.363	0.0148289
799.442	0.0148581
799.520	0.0148511
799.598	0.0147278
799.676	0.0149490
799.754	0.0149159
799.832	0.0149240
799.910	0.0148700
799.988	0.0149282
800.067	0.0148580
800.145	0.0149241
800.223	0.0147963
800.301	0.0149673
800.379	0.0148449
800.457	0.0150072
800.535	0.0150112
800.613	0.0149035
800.692	0.0147517
800.770	0.0148244
800.848	0.0150283
800.926	0.0149429
801.004	0.0148468
801.082	0.0148269
801.160	0.0148208
801.238	0.0149545
801.317	0.0148955
801.395	0.0147889
801.473	0.0147159
801.551	0.0148048
801.629	0.0148367
801.707	0.0148494
801.785	0.0148471
801.863	0.0148260
801.942	0.0148162
802.020	0.0147544
802.098	0.0149438
802.176	0.0148502
802.254	0.0147161
802.332	0.0147340
802.410	0.0148553
802.488	0.0148014
802.567	0.0147351
802.645	0.0147510
802.723	0.0145966
802.801	0.0148435
802.879	0.0147707
802.957	0.0147839
803.035	0.0148225
803.113	0.0149364
803.192	0.0149080
803.270	0.0149007
803.348	0.0150010
803.426	0.0148740
803.504	0.0149850
803.582	0.0150038
803.660	0.0148896
803.738	0.0150691
803.817	0.0150919
803.895	0.0150087
803.973	0.0150778
804.051	0.0151644
804.129	0.0150946
804.207	0.0149477
804.285	0.0150391
804.363	0.0149704
804.442	0.0149980
804.520	0.0151315
804.598	0.0150282
804.676	0.0150652
804.754	0.0148750
804.832	0.0150208
804.910	0.0149545
804.988	0.0148512
805.067	0.0148430
805.145	0.0148512
805.223	0.0149141
805.301	0.0148919
805.379	0.0147510
805.457	0.0148736
805.535	0.0148711
805.613	0.0147878
805.692	0.0147821
805.770	0.0147276
805.848	0.0147871
805.926	0.0147335
806.004	0.0146194
806.082	0.0147776
806.160	0.0146867
806.238	0.0147312
806.317	0.0146362
806.395	0.0147651
806.473	0.0145866
806.551	0.0148388
806.629	0.0149027
806.707	0.0147643
806.785	0.0148093
806.863	0.0147498
806.942	0.0147309
807.020	0.0147173
807.098	0.0147574
807.176	0.0147215
807.254	0.0147456
807.332	0.0147593
807.410	0.0147574
807.488	0.0148032
807.567	0.0146901
807.645	0.0146870
807.723	0.0147734
807.801	0.0146586
807.879	0.0146907
807.957	0.0146174
808.035	0.0147451
808.113	0.0146491
808.192	0.0147173
808.270	0.0145123
808.348	0.0144918
808.426	0.0145298
808.504	0.0145905
808.582	0.0145251
808.660	0.0146684
808.738	0.0144617
808.817	0.0145407
808.895	0.0145403
808.973	0.0144028
809.051	0.0146516
809.129	0.0145238
809.207	0.0145067
809.285	0.0147118
809.363	0.0146609
809.442	0.0145042
809.520	0.0146011
809.598	0.0144928
809.676	0.0145526
809.754	0.0146221
809.832	0.0146522
809.910	0.0145868
809.988	0.0146761
810.067	0.0147211
810.145	0.0146597
810.223	0.0146399
810.301	0.0147387
810.379	0.0147033
810.457	0.0146646
810.535	0.0145908
810.613	0.0146921
810.692	0.0147409
810.770	0.0145293
810.848	0.0147225
810.926	0.0146304
811.004	0.0145966
811.082	0.0145918
811.160	0.0146461
811.238	0.0147394
811.317	0.0145480
811.395	0.0145580
811.473	0.0146584
811.551	0.0147136
811.629	0.0146853
811.707	0.0145909
811.785	0.0146606
811.863	0.0147063
811.942	0.0147945
812.020	0.0147316
812.098	0.0146849
812.176	0.0146275
812.254	0.0146909
812.332	0.0147112
812.410	0.0147312
812.488	0.0146308
812.567	0.0146606
812.645	0.0146954
812.723	0.0146972
812.801	0.0147435
812.879	0.0148450
812.957	0.0147499
813.035	0.0146962
813.113	0.0148400
813.192	0.0147259
813.270	0.0147971
813.348	0.0145785
813.426	0.0146246
813.504	0.0149291
813.582	0.0146872
813.660	0.0145890
813.738	0.0146404
813.817	0.0146456
813.895	0.0148031
813.973	0.0147631
814.051	0.0146548
814.129	0.0147346
814.207	0.0146692
814.285	0.0147636
814.363	0.0147522
814.442	0.0147425
814.520	0.0146409
814.598	0.0146859
814.676	0.0147282
814.754	0.0146508
814.832	0.0146739
814.910	0.0146897
814.988	0.0147758
815.067	0.0147623
815.145	0.0146635
815.223	0.0147758
815.301	0.0147040
815.379	0.0147601
815.457	0.0147554
815.535	0.0148006
815.613	0.0148154
815.692	0.0147634
815.770	0.0147204
815.848	0.0147009
815.926	0.0147929
816.004	0.0148212
816.082	0.0147605
816.160	0.0147216
816.238	0.0147028
816.317	0.0146427
816.395	0.0146813
816.473	0.0148203
816.551	0.0148101
816.629	0.0146106
816.707	0.0148367
816.785	0.0148228
816.863	0.0147816
816.942	0.0147364
817.020	0.0148248
817.098	0.0147720
817.176	0.0147661
817.254	0.0146899
817.332	0.0148274
817.410	0.0147884
817.488	0.0147958
817.567	0.0146442
817.645	0.0146963
817.723	0.0147861
817.801	0.0147918
817.879	0.0149055
817.957	0.0147807
818.035	0.0148717
818.113	0.0148578
818.192	0.0148672
818.270	0.0148287
818.348	0.0149564
818.426	0.0148854
818.504	0.0148172
818.582	0.0148372
818.660	0.0147277
818.738	0.0149232
818.817	0.0146558
818.895	0.0148006
818.973	0.0147790
819.051	0.0146947
819.129	0.0147161
819.207	0.0148009
819.285	0.0146729
819.363	0.0146799
819.442	0.0147046
819.520	0.0147193
819.598	0.0146554
819.676	0.0146895
819.754	0.0147190
819.832	0.0147195
819.910	0.0146095
819.988	0.0146155
820.067	0.0146411
820.145	0.0146210
820.223	0.0146906
820.301	0.0146974
820.379	0.0146686
820.457	0.0146989
820.535	0.0147829
820.613	0.0146516
820.692	0.0148132
820.770	0.0147645
820.848	0.0148397
820.926	0.0146976
821.004	0.0146585
821.082	0.0148335
821.160	0.0147335
821.238	0.0147283
821.317	0.0146912
821.395	0.0146857
821.473	0.0147163
821.551	0.0146793
821.629	0.0147259
821.707	0.0147300
821.785	0.0145722
821.863	0.0147433
821.942	0.0146210
822.020	0.0146456
822.098	0.0146575
822.176	0.0147578
822.254	0.0147189
822.332	0.0147777
822.410	0.0148183
822.488	0.0147422
822.567	0.0146657
822.645	0.0146164
822.723	0.0146833
822.801	0.0146667
822.879	0.0148639
822.957	0.0148785
823.035	0.0147424
823.113	0.0147028
823.192	0.0147687
823.270	0.0147817
823.348	0.0147747
823.426	0.0147025
823.504	0.0147666
823.582	0.0148457
823.660	0.0148053
823.738	0.0147095
823.817	0.0147576
823.895	0.0147408
823.973	0.0148405
824.051	0.0148506
824.129	0.0148029
824.207	0.0149020
824.285	0.0148282
824.363	0.0147017
824.442	0.0148936
824.520	0.0148551
824.598	0.0149364
824.676	0.0148366
824.754	0.0148450
824.832	0.0147900
824.910	0.0148527
824.988	0.0148296
825.067	0.0148260
825.145	0.0149899
825.223	0.0149583
825.301	0.0146782
825.379	0.0148286
825.457	0.0149278
825.535	0.0148893
825.613	0.0148360
825.692	0.0149777
825.770	0.0148076
825.848	0.0148033
825.926	0.0148037
826.004	0.0150143
826.082	0.0150732
826.160	0.0150161
826.238	0.0149476
826.317	0.0149329
826.395	0.0148532
826.473	0.0148989
826.551	0.0150515
826.629	0.0148946
826.707	0.0149350
826.785	0.0147796
826.863	0.0149091
826.942	0.0149693
827.020	0.0150381
827.098	0.0149538
827.176	0.0147338
827.254	0.0148481
827.332	0.0150198
827.410	0.0149507
827.488	0.0148201
827.567	0.0149911
827.645	0.0149822
827.723	0.0148109
827.801	0.0149321
827.879	0.0149348
827.957	0.0148980
828.035	0.0149171
828.113	0.0149301
828.192	0.0150322
828.270	0.0147583
828.348	0.0148236
828.426	0.0147980
828.504	0.0149027
828.582	0.0147314
828.660	0.0147887
828.738	0.0148432
828.817	0.0147597
828.895	0.0147528
828.973	0.0147320
829.051	0.0146964
829.129	0.0147321
829.207	0.0146660
829.285	0.0147560
829.363	0.0146143
829.442	0.0147791
829.520	0.0146977
829.598	0.0147809
829.676	0.0148357
829.754	0.0147880
829.832	0.0146311
829.910	0.0146304
829.988	0.0146239
830.067	0.0146621
830.145	0.0145635
830.223	0.0147215
830.301	0.0146402
830.379	0.0144272
830.457	0.0145444
830.535	0.0146795
830.613	0.0144868
830.692	0.0146002
830.770	0.0145126
830.848	0.0144066
830.926	0.0144678
831.004	0.0145338
831.082	0.0144271
831.160	0.0145273
831.238	0.0145374
831.317	0.0145524
831.395	0.0145341
831.473	0.0144573
831.551	0.0144991
831.629	0.0145078
831.707	0.0145769
831.785	0.0146734
831.863	0.0146660
831.942	0.0145759
832.020	0.0145837
832.098	0.0143452
832.176	0.0144542
832.254	0.0145550
832.332	0.0145496
832.410	0.0145450
832.488	0.0144880
832.567	0.0144612
832.645	0.0144259
832.723	0.0144427
832.801	0.0144922
832.879	0.0144263
832.957	0.0143958
833.035	0.0144747
833.113	0.0145625
833.192	0.0144893
833.270	0.0143080
833.348	0.0143912
833.426	0.0144059
833.504	0.0146090
833.582	0.0145734
833.660	0.0144911
833.738	0.0145808
833.817	0.0144956
833.895	0.0144829
833.973	0.0147203
834.051	0.0146049
834.129	0.0145831
834.207	0.0147122
834.285	0.0148022
834.363	0.0146680
834.442	0.0146690
834.520	0.0147217
834.598	0.0147163
834.676	0.0147984
834.754	0.0148987
834.832	0.0148750
834.910	0.0147915
834.988	0.0149397
835.067	0.0148261
835.145	0.0150099
835.223	0.0149072
835.301	0.0149104
835.379	0.0149614
835.457	0.0148744
835.535	0.0149879
835.613	0.0149648
835.692	0.0148447
835.770	0.0149757
835.848	0.0150373
835.926	0.0147662
836.004	0.0149810
836.082	0.0150223
836.160	0.0151361
836.238	0.0149778
836.317	0.0148866
836.395	0.0150405
836.473	0.0149323
836.551	0.0148247
836.629	0.0149001
836.707	0.0150505
836.785	0.0150966
836.863	0.0148990
836.942	0.0148499
837.020	0.0149961
837.098	0.0149357
837.176	0.0149798
837.254	0.0148494
837.332	0.0148559
837.410	0.0148878
837.488	0.0148980
837.567	0.0148699
837.645	0.0149282
837.723	0.0149430
837.801	0.0148760
837.879	0.0150514
837.957	0.0148657
838.035	0.0148849
838.113	0.0148528
838.192	0.0148145
838.270	0.0149097
838.348	0.0148526
838.426	0.0147648
838.504	0.0148260
838.582	0.0148904
838.660	0.0148000
838.738	0.0147647
838.817	0.0148654
838.895	0.0147155
838.973	0.0147661
839.051	0.0147001
839.129	0.0145784
839.207	0.0146584
839.285	0.0147363
839.363	0.0146259
839.442	0.0147000
839.520	0.0147736
839.598	0.0146635
839.676	0.0146106
839.754	0.0147369
839.832	0.0148141
839.910	0.0147017
839.988	0.0147332
840.067	0.0147153
840.145	0.0147025
840.223	0.0147571
840.301	0.0146532
840.379	0.0145881
840.457	0.0147609
840.535	0.0147079
840.613	0.0145976
840.692	0.0145479
840.770	0.0146709
840.848	0.0147105
840.926	0.0148280
841.004	0.0147131
841.082	0.0147037
841.160	0.0147137
841.238	0.0146871
841.317	0.0146461
841.395	0.0146886
841.473	0.0147587
841.551	0.0148033
841.629	0.0146856
841.707	0.0146620
841.785	0.0147075
841.863	0.0147694
841.942	0.0146709
842.020	0.0146265
842.098	0.0147531
842.176	0.0147757
842.254	0.0148373
842.332	0.0147678
842.410	0.0148705
842.488	0.0147565
842.567	0.0147424
842.645	0.0146523
842.723	0.0147794
842.801	0.0148056
842.879	0.0148364
842.957	0.0147363
843.035	0.0147337
843.113	0.0147100
843.192	0.0147821
843.270	0.0148773
843.348	0.0148864
843.426	0.0148621
843.504	0.0148936
843.582	0.0148312
843.660	0.0148650
843.738	0.0149117
843.817	0.0149829
843.895	0.0149927
843.973	0.0150546
844.051	0.0150733
844.129	0.0149827
844.207	0.0149984
844.285	0.0150102
844.363	0.0150140
844.442	0.0150333
844.520	0.0151153
844.598	0.0149477
844.676	0.0150527
844.754	0.0151987
844.832	0.0151479
844.910	0.0149942
844.988	0.0151220
845.067	0.0149697
845.145	0.0150282
845.223	0.0152098
845.301	0.0152572
845.379	0.0151469
845.457	0.0150342
845.535	0.0150744
845.613	0.0149971
845.692	0.0150412
845.770	0.0150240
845.848	0.0150925
845.926	0.0150007
846.004	0.0149226
846.082	0.0148561
846.160	0.0149741
846.238	0.0150893
846.317	0.0149530
846.395	0.0150382
846.473	0.0150414
846.551	0.0150008
846.629	0.0148030
846.707	0.0149284
846.785	0.0148634
846.863	0.0149738
846.942	0.0151128
847.020	0.0149686
847.098	0.0147742
847.176	0.0149471
847.254	0.0148915
847.332	0.0148499
847.410	0.0148000
847.488	0.0148010
847.567	0.0146350
847.645	0.0149352
847.723	0.0148215
847.801	0.0148844
847.879	0.0147224
847.957	0.0147816
848.035	0.0146742
848.113	0.0147397
848.192	0.0148142
848.270	0.0148592
848.348	0.0147852
848.426	0.0146738
848.504	0.0149003
848.582	0.0148070
848.660	0.0146867
848.738	0.0147184
848.817	0.0147633
848.895	0.0145374
848.973	0.0146490
849.051	0.0147356
849.129	0.0147335
849.207	0.0146838
849.285	0.0146617
849.363	0.0146275
849.442	0.0146684
849.520	0.0146844
849.598	0.0146349
849.676	0.0148289
849.754	0.0148061
849.832	0.0148295
849.910	0.0147747
849.988	0.0148696
850.067	0.0148132
850.145	0.0147937
850.223	0.0147812
850.301	0.0147981
850.379	0.0148607
850.457	0.0147530
850.535	0.0147824
850.613	0.0147409
850.692	0.0147691
850.770	0.0146044
850.848	0.0147688
850.926	0.0148335
851.004	0.0147012
851.082	0.0147225
851.160	0.0147838
851.238	0.0148656
851.317	0.0147894
851.395	0.0148819
851.473	0.0147877
851.551	0.0147960
851.629	0.0147719
851.707	0.0148614
851.785	0.0147937
851.863	0.0148523
851.942	0.0148194
852.020	0.0147402
852.098	0.0147186
852.176	0.0148502
852.254	0.0148405
852.332	0.0147573
852.410	0.0148470
852.488	0.0147890
852.567	0.0148965
852.645	0.0148904
852.723	0.0149686
852.801	0.0147166
852.879	0.0147243
852.957	0.0149387
853.035	0.0150395
853.113	0.0147009
853.192	0.0147856
853.270	0.0147250
853.348	0.0149021
853.426	0.0148963
853.504	0.0146760
853.582	0.0147202
853.660	0.0147218
853.738	0.0145722
853.817	0.0145900
853.895	0.0146984
853.973	0.0147218
854.051	0.0145808
854.129	0.0144375
854.207	0.0145869
854.285	0.0145744
854.363	0.0146883
854.442	0.0145128
854.520	0.0144366
854.598	0.0145570
854.676	0.0144641
854.754	0.0145898
854.832	0.0144280
854.910	0.0146012
854.988	0.0145384
855.067	0.0145679
855.145	0.0146265
855.223	0.0144532
855.301	0.0145100
855.379	0.0144194
855.457	0.0143092
855.535	0.0145229
855.613	0.0145724
855.692	0.0144497
855.770	0.0144318
855.848	0.0144084
855.926	0.0144286
856.004	0.0145073
856.082	0.0146066
856.160	0.0144073
856.238	0.0143820
856.317	0.0144727
856.395	0.0144695
856.473	0.0145521
856.551	0.0146608
856.629	0.0145457
856.707	0.0145625
856.785	0.0147137
856.863	0.0146541
856.942	0.0146880
857.020	0.0147476
857.098	0.0148559
857.176	0.0147485
857.254	0.0148380
857.332	0.0149165
857.410	0.0148310
857.488	0.0147952
857.567	0.0148206
857.645	0.0149351
857.723	0.0151125
857.801	0.0150318
857.879	0.0150073
857.957	0.0152135
858.035	0.0149951
858.113	0.0150938
858.192	0.0150979
858.270	0.0150401
858.348	0.0150361
858.426	0.0150513
858.504	0.0149889
858.582	0.0151226
858.660	0.0151722
858.738	0.0151054
858.817	0.0149398
858.895	0.0148439
858.973	0.0149699
859.051	0.0150348
859.129	0.0151194
859.207	0.0150150
859.285	0.0150632
859.363	0.0150227
859.442	0.0150645
859.520	0.0149676
859.598	0.0149750
859.676	0.0150854
859.754	0.0150578
859.832	0.0149546
859.910	0.0149844
859.988	0.0150211
860.067	0.0149416
860.145	0.0150360
860.223	0.0149622
860.301	0.0148408
860.379	0.0149061
860.457	0.0151289
860.535	0.0149493
860.613	0.0149635
860.692	0.0148591
860.770	0.0148926
860.848	0.0148793
860.926	0.0149898
861.004	0.0150301
861.082	0.0149480
861.160	0.0149881
861.238	0.0149127
861.317	0.0150900
861.395	0.0148997
861.473	0.0148056
861.551	0.0149214
861.629	0.0150411
861.707	0.0149439
861.785	0.0149983
861.863	0.0147818
861.942	0.0147952
862.020	0.0149761
862.098	0.0148898
862.176	0.0148607
862.254	0.0147466
862.332	0.0148263
862.410	0.0148839
862.488	0.0148681
862.567	0.0147166
862.645	0.0146288
862.723	0.0147440
862.801	0.0148747
862.879	0.0146421
862.957	0.0146825
863.035	0.0147695
863.113	0.0147544
863.192	0.0148901
863.270	0.0146512
863.348	0.0147552
863.426	0.0147882
863.504	0.0146217
863.582	0.0145894
863.660	0.0146050
863.738	0.0146468
863.817	0.0147076
863.895	0.0147606
863.973	0.0146806
864.051	0.0145211
864.129	0.0146028
864.207	0.0147072
864.285	0.0147317
864.363	0.0147252
864.442	0.0146947
864.520	0.0148185
864.598	0.0147523
864.676	0.0148354
864.754	0.0147854
864.832	0.0147773
864.910	0.0148330
864.988	0.0147269
865.067	0.0147317
865.145	0.0147647
865.223	0.0148290
865.301	0.0148500
865.379	0.0147588
865.457	0.0147401
865.535	0.0147994
865.613	0.0148230
865.692	0.0148690
865.770	0.0147359
865.848	0.0147637
865.926	0.0148715
866.004	0.0147549
866.082	0.0147177
866.160	0.0148737
866.238	0.0149462
866.317	0.0147848
866.395	0.0147249
866.473	0.0147256
866.551	0.0148103
866.629	0.0149641
866.707	0.0148057
866.785	0.0147635
866.863	0.0148267
866.942	0.0148857
867.020	0.0148443
867.098	0.0147290
867.176	0.0148048
867.254	0.0149508
867.332	0.0148795
867.410	0.0148363
867.488	0.0148779
867.567	0.0149461
867.645	0.0148053
867.723	0.0148319
867.801	0.0149756
867.879	0.0149560
867.957	0.0149453
868.035	0.0148990
868.113	0.0149627
868.192	0.0150047
868.270	0.0149551
868.348	0.0150956
868.426	0.0148142
868.504	0.0148248
868.582	0.0149593
868.660	0.0149431
868.738	0.0149444
868.817	0.0149859
868.895	0.0151276
868.973	0.0150045
869.051	0.0149786
869.129	0.0149482
869.207	0.0151265
869.285	0.0149934
869.363	0.0149113
869.442	0.0149438
869.520	0.0148823
869.598	0.0149345
869.676	0.0149308
869.754	0.0148923
869.832	0.0147878
869.910	0.0149349
869.988	0.0148765
870.067	0.0147823
870.145	0.0148442
870.223	0.0147767
870.301	0.0147999
870.379	0.0147272
870.457	0.0146159
870.535	0.0148199
870.613	0.0147841
870.692	0.0146730
870.770	0.0145559
870.848	0.0146782
870.926	0.0145772
871.004	0.0147495
871.082	0.0147929
871.160	0.0146948
871.238	0.0147073
871.317	0.0148232
871.395	0.0147643
871.473	0.0147738
871.551	0.0147577
871.629	0.0147319
871.707	0.0148059
871.785	0.0148825
871.863	0.0148476
871.942	0.0148235
872.020	0.0148370
872.098	0.0147278
872.176	0.0147250
872.254	0.0147143
872.332	0.0148363
872.410	0.0148590
872.488	0.0147157
872.567	0.0147563
872.645	0.0148315
872.723	0.0147770
872.801	0.0147042
872.879	0.0147395
872.957	0.0146945
873.035	0.0146394
873.113	0.0148294
873.192	0.0148127
873.270	0.0147697
873.348	0.0147640
873.426	0.0147749
873.504	0.0147779
873.582	0.0147577
873.660	0.0146904
873.738	0.0147044
873.817	0.0146391
873.895	0.0147961
873.973	0.0148325
874.051	0.0148026
874.129	0.0147978
874.207	0.0147799
874.285	0.0148013
874.363	0.0147778
874.442	0.0147771
874.520	0.0145803
874.598	0.0148217
874.676	0.0146109
874.754	0.0147102
874.832	0.0149004
874.910	0.0146976
874.988	0.0146259
875.067	0.0147527
875.145	0.0145927
875.223	0.0146581
875.301	0.0146894
875.379	0.0147044
875.457	0.0146210
875.535	0.0149434
875.613	0.0146880
875.692	0.0146358
875.770	0.0147682
875.848	0.0147707
875.926	0.0147180
876.004	0.0147653
876.082	0.0147546
876.160	0.0148188
876.238	0.0148228
876.317	0.0149418
876.395	0.0148023
876.473	0.0147200
876.551	0.0148755
876.629	0.0148577
876.707	0.0147543
876.785	0.0148119
876.863	0.0149786
876.942	0.0149184
877.020	0.0150060
877.098	0.0147691
877.176	0.0147718
877.254	0.0148370
877.332	0.0150473
877.410	0.0149491
877.488	0.0148516
877.567	0.0149534
877.645	0.0149116
877.723	0.0148549
877.801	0.0147655
877.879	0.0149940
877.957	0.0149612
878.035	0.0149705
878.113	0.0149676
878.192	0.0149322
878.270	0.0148410
878.348	0.0150597
878.426	0.0149181
878.504	0.0149355
878.582	0.0151121
878.660	0.0149265
878.738	0.0151634
878.817	0.0150639
878.895	0.0150433
878.973	0.0148841
879.051	0.0149740
879.129	0.0149814
879.207	0.0150205
879.285	0.0150910
879.363	0.0149765
879.442	0.0149220
879.520	0.0150591
879.598	0.0150960
879.676	0.0149417
879.754	0.0149329
879.832	0.0149757
879.910	0.0149294
879.988	0.0148717
880.067	0.0148332
880.145	0.0148207
880.223	0.0149805
880.301	0.0147757
880.379	0.0148505
880.457	0.0149001
880.535	0.0149306
880.613	0.0148754
880.692	0.0146793
880.770	0.0147591
880.848	0.0149120
880.926	0.0149145
881.004	0.0148508
881.082	0.0147710
881.160	0.0147410
881.238	0.0147659
881.317	0.0147480
881.395	0.0147710
881.473	0.0148170
881.551	0.0146804
881.629	0.0148268
881.707	0.0146487
881.785	0.0147616
881.863	0.0147453
881.942	0.0146502
882.020	0.0146758
882.098	0.0145506
882.176	0.0146701
882.254	0.0146889
882.332	0.0145402
882.410	0.0145064
882.488	0.0146616
882.567	0.0146455
882.645	0.0144927
882.723	0.0145193
882.801	0.0145819
882.879	0.0146696
882.957	0.0145499
883.035	0.0147366
883.113	0.0145229
883.192	0.0145837
883.270	0.0147124
883.348	0.0146400
883.426	0.0146188
883.504	0.0146085
883.582	0.0147017
883.660	0.0147522
883.738	0.0146792
883.817	0.0147515
883.895	0.0146338
883.973	0.0147564
884.051	0.0146617
884.129	0.0147969
884.207	0.0147678
884.285	0.0147458
884.363	0.0147075
884.442	0.0146752
884.520	0.0146835
884.598	0.0147076
884.676	0.0146582
884.754	0.0147108
884.832	0.0146366
884.910	0.0148417
884.988	0.0149158
885.067	0.0147124
885.145	0.0146796
885.223	0.0148639
885.301	0.0148143
885.379	0.0146339
885.457	0.0146883
885.535	0.0146438
885.613	0.0148746
885.692	0.0146873
885.770	0.0146581
885.848	0.0146818
885.926	0.0148888
886.004	0.0147509
886.082	0.0146322
886.160	0.0145618
886.238	0.0146091
886.317	0.0146476
886.395	0.0146846
886.473	0.0146779
886.551	0.0146549
886.629	0.0147861
886.707	0.0146420
886.785	0.0146150
886.863	0.0146991
886.942	0.0146457
887.020	0.0145644
887.098	0.0148229
887.176	0.0146935
887.254	0.0145639
887.332	0.0146701
887.410	0.0146077
887.488	0.0148183
887.567	0.0146987
887.645	0.0146468
887.723	0.0146733
887.801	0.0146819
887.879	0.0145845
887.957	0.0147469
888.035	0.0147272
888.113	0.0146939
888.192	0.0147215
888.270	0.0146076
888.348	0.0147170
888.426	0.0147718
888.504	0.0147457
888.582	0.0148074
888.660	0.0147843
888.738	0.0149374
888.817	0.0148889
888.895	0.0148968
888.973	0.0149847
889.051	0.0148582
889.129	0.0149201
889.207	0.0148384
889.285	0.0150407
889.363	0.0148017
889.442	0.0148220
889.520	0.0148927
889.598	0.0148373
889.676	0.0149541
889.754	0.0149270
889.832	0.0147366
889.910	0.0147228
889.988	0.0146397
890.067	0.0148577
890.145	0.0148946
890.223	0.0148979
890.301	0.0147330
890.379	0.0149261
890.457	0.0147768
890.535	0.0147343
890.613	0.0147304
890.692	0.0147732
890.770	0.0146246
890.848	0.0146140
890.926	0.0147118
891.004	0.0146420
891.082	0.0147765
891.160	0.0147821
891.238	0.0145754
891.317	0.0145456
891.395	0.0146227
891.473	0.0147861
891.551	0.0146474
891.629	0.0147060
891.707	0.0147120
891.785	0.0147353
891.863	0.0147341
891.942	0.0146217
892.020	0.0147251
892.098	0.0146583
892.176	0.0148520
892.254	0.0146635
892.332	0.0147200
892.410	0.0146773
892.488	0.0147773
892.567	0.0147372
892.645	0.0147182
892.723	0.0146138
892.801	0.0146997
892.879	0.0147806
892.957	0.0147293
893.035	0.0148193
893.113	0.0148711
893.192	0.0149046
893.270	0.0149571
893.348	0.0148316
893.426	0.0147434
893.504	0.0148145
893.582	0.0148192
893.660	0.0147629
893.738	0.0148788
893.817	0.0147880
893.895	0.0147763
893.973	0.0147902
894.051	0.0147530
894.129	0.0147021
894.207	0.0147536
894.285	0.0146747
894.363	0.0146888
894.442	0.0146225
894.520	0.0148268
894.598	0.0147507
894.676	0.0146576
894.754	0.0149013
894.832	0.0147599
894.910	0.0146912
894.988	0.0147330
895.067	0.0147498
895.145	0.0146125
895.223	0.0146445
895.301	0.0145576
895.379	0.0146014
895.457	0.0148320
895.535	0.0145524
895.613	0.0144050
895.692	0.0144662
895.770	0.0145143
895.848	0.0145773
895.926	0.0144707
896.004	0.0144620
896.082	0.0145089
896.160	0.0143983
896.238	0.0144755
896.317	0.0144352
896.395	0.0143935
896.473	0.0142387
896.551	0.0142297
896.629	0.0143341
896.707	0.0143546
896.785	0.0143345
896.863	0.0142916
896.942	0.0142370
897.020	0.0144026
897.098	0.0143459
897.176	0.0145263
897.254	0.0145635
897.332	0.0145535
897.410	0.0146748
897.488	0.0146096
897.567	0.0146147
897.645	0.0147048
897.723	0.0147150
897.801	0.0146351
897.879	0.0147637
897.957	0.0148048
898.035	0.0147018
898.113	0.0147346
898.192	0.0148187
898.270	0.0149169
898.348	0.0148358
898.426	0.0148229
898.504	0.0148825
898.582	0.0148887
898.660	0.0149072
898.738	0.0148463
898.817	0.0147156
898.895	0.0148832
898.973	0.0146213
899.051	0.0148054
899.129	0.0148721
899.207	0.0147833
899.285	0.0148404
899.363	0.0148009
899.442	0.0148678
899.520	0.0147276
899.598	0.0148169
899.676	0.0147913
899.754	0.0147628
899.832	0.0146674
899.910	0.0148056
899.988	0.0148054
900.067	0.0148401
900.145	0.0148866
900.223	0.0147337
900.301	0.0146314
900.379	0.0146167
900.457	0.0146899
900.535	0.0146828
900.613	0.0148071
900.692	0.0146828
900.770	0.0146390
900.848	0.0146405
900.926	0.0147569
901.004	0.0146565
901.082	0.0147284
901.160	0.0147637
901.238	0.0147681
901.317	0.0148729
901.395	0.0148058
901.473	0.0146574
901.551	0.0147144
901.629	0.0146882
901.707	0.0147980
901.785	0.0148615
901.863	0.0147074
901.942	0.0147475
902.020	0.0147209
902.098	0.0147978
902.176	0.0148012
902.254	0.0147894
902.332	0.0148875
902.410	0.0147856
902.488	0.0148701
902.567	0.0147842
902.645	0.0147585
902.723	0.0148710
902.801	0.0148306
902.879	0.0150771
902.957	0.0149296
903.035	0.0149101
903.113	0.0148258
903.192	0.0150406
903.270	0.0150022
903.348	0.0148890
903.426	0.0149246
903.504	0.0149184
903.582	0.0149047
903.660	0.0149591
903.738	0.0149841
903.817	0.0149682
903.895	0.0149288
903.973	0.0148157
904.051	0.0148374
904.129	0.0148866
904.207	0.0148869
904.285	0.0147544
904.363	0.0148911
904.442	0.0146769
904.520	0.0147032
904.598	0.0148841
904.676	0.0149023
904.754	0.0148029
904.832	0.0147025
904.910	0.0147713
904.988	0.0148927
905.067	0.0146682
905.145	0.0148225
905.223	0.0147834
905.301	0.0148435
905.379	0.0147741
905.457	0.0148479
905.535	0.0147202
905.613	0.0148933
905.692	0.0148419
905.770	0.0148825
905.848	0.0148676
905.926	0.0147897
906.004	0.0150117
906.082	0.0148273
906.160	0.0147509
906.238	0.0146864
906.317	0.0148398
906.395	0.0148666
906.473	0.0147620
906.551	0.0146384
906.629	0.0146387
906.707	0.0148428
906.785	0.0147017
906.863	0.0146187
906.942	0.0147511
907.020	0.0147573
907.098	0.0147529
907.176	0.0146429
907.254	0.0146532
907.332	0.0145934
907.410	0.0147044
907.488	0.0146104
907.567	0.0146198
907.645	0.0147368
907.723	0.0146458
907.801	0.0145769
907.879	0.0147136
907.957	0.0147662
908.035	0.0146154
908.113	0.0145656
908.192	0.0146578
908.270	0.0146622
908.348	0.0146481
908.426	0.0145123
908.504	0.0147030
908.582	0.0147210
908.660	0.0146175
908.738	0.0144223
908.817	0.0145522
908.895	0.0145982
908.973	0.0145071
909.051	0.0146944
909.129	0.0145464
909.207	0.0143962
909.285	0.0144420
909.363	0.0144476
909.442	0.0143968
909.520	0.0144766
909.598	0.0144663
909.676	0.0144196
909.754	0.0145219
909.832	0.0144675
909.910	0.0143979
909.988	0.0145509
910.067	0.0145172
910.145	0.0143281
910.223	0.0143043
910.301	0.0143496
910.379	0.0144362
910.457	0.0146465
910.535	0.0145465
910.613	0.0145441
910.692	0.0145230
910.770	0.0146030
910.848	0.0145805
910.926	0.0146165
911.004	0.0145795
911.082	0.0145500
911.160	0.0146017
911.238	0.0145866
911.317	0.0145775
911.395	0.0146923
911.473	0.0145943
911.551	0.0145941
911.629	0.0147887
911.707	0.0147395
911.785	0.0147775
911.863	0.0145255
911.942	0.0146368
912.020	0.0146590
912.098	0.0145857
912.176	0.0145471
912.254	0.0146994
912.332	0.0145114
912.410	0.0146579
912.488	0.0145573
912.567	0.0146490
912.645	0.0147310
912.723	0.0146827
912.801	0.0147410
912.879	0.0147063
912.957	0.0146636
913.035	0.0146530
913.113	0.0147433
913.192	0.0145934
913.270	0.0146698
913.348	0.0147398
913.426	0.0147786
913.504	0.0147405
913.582	0.0147069
913.660	0.0147642
913.738	0.0148036
913.817	0.0147638
913.895	0.0149203
913.973	0.0146082
914.051	0.0148210
914.129	0.0148997
914.207	0.0149040
914.285	0.0149023
914.363	0.0149076
914.442	0.0149174
914.520	0.0149013
914.598	0.0147681
914.676	0.0148539
914.754	0.0148141
914.832	0.0147060
914.910	0.0147713
914.988	0.0147651
915.067	0.0147164
915.145	0.0148492
915.223	0.0146711
915.301	0.0147379
915.379	0.0147806
915.457	0.0146597
915.535	0.0147439
915.613	0.0147798
915.692	0.0146634
915.770	0.0146681
915.848	0.0147225
915.926	0.0146201
916.004	0.0146648
916.082	0.0148141
916.160	0.0147755
916.238	0.0146728
916.317	0.0147039
916.395	0.0146945
916.473	0.0146130
916.551	0.0145959
916.629	0.0146899
916.707	0.0146091
916.785	0.0146600
916.863	0.0145947
916.942	0.0145186
917.020	0.0146473
917.098	0.0145842
917.176	0.0144816
917.254	0.0145105
917.332	0.0144184
917.410	0.0144071
917.488	0.0145756
917.567	0.0143744
917.645	0.0143974
917.723	0.0145667
917.801	0.0145876
917.879	0.0145844
917.957	0.0145969
918.035	0.0145657
918.113	0.0146140
918.192	0.0146140
918.270	0.0146180
918.348	0.0146351
918.426	0.0146153
918.504	0.0145351
918.582	0.0146103
918.660	0.0144429
918.738	0.0145923
918.817	0.0147130
918.895	0.0147140
918.973	0.0147213
919.051	0.0147701
919.129	0.0146626
919.207	0.0146031
919.285	0.0148355
919.363	0.0146882
919.442	0.0148462
919.520	0.0148125
919.598	0.0149271
919.676	0.0147944
919.754	0.0148592
919.832	0.0148786
919.910	0.0148267
