05/28/2022	14:28:57	Ver.	4.1	UNKNOWN
Optical Delay	599.988409	Delta X		0.078125	Sweeps	1	Scan Rate	0/0
Coordinates	Axis 1	NaN	Axis 2	NaN	Axis 3	NaN	Axis 4	NaN	Axis 5	NaN	Axis 6	0.000000
TX Power	0.000000	RX Power	0.000000

599.988	0.0145853
600.067	0.0145884
600.145	0.0145979
600.223	0.0146220
600.301	0.0148550
600.379	0.0146332
600.457	0.0146993
600.535	0.0147547
600.613	0.0146715
600.692	0.0147021
600.770	0.0146603
600.848	0.0147323
600.926	0.0147357
601.004	0.0147952
601.082	0.0147124
601.160	0.0147401
601.238	0.0147673
601.317	0.0145505
601.395	0.0147009
601.473	0.0147239
601.551	0.0145353
601.629	0.0147051
601.707	0.0146788
601.785	0.0146388
601.863	0.0146779
601.942	0.0146953
602.020	0.0146452
602.098	0.0147502
602.176	0.0146176
602.254	0.0146392
602.332	0.0145929
602.410	0.0145571
602.488	0.0146544
602.567	0.0147218
602.645	0.0147241
602.723	0.0145874
602.801	0.0146239
602.879	0.0146951
602.957	0.0145062
603.035	0.0146537
603.113	0.0147390
603.192	0.0147747
603.270	0.0147089
603.348	0.0146661
603.426	0.0146363
603.504	0.0147401
603.582	0.0147801
603.660	0.0146651
603.738	0.0147839
603.817	0.0147026
603.895	0.0147117
603.973	0.0146569
604.051	0.0147566
604.129	0.0146684
604.207	0.0147774
604.285	0.0146919
604.363	0.0146342
604.442	0.0146646
604.520	0.0146880
604.598	0.0148524
604.676	0.0147229
604.754	0.0145744
604.832	0.0146234
604.910	0.0148212
604.988	0.0147138
605.067	0.0146340
605.145	0.0146944
605.223	0.0146871
605.301	0.0146973
605.379	0.0146799
605.457	0.0147719
605.535	0.0148563
605.613	0.0147150
605.692	0.0146564
605.770	0.0147237
605.848	0.0147430
605.926	0.0148029
606.004	0.0147984
606.082	0.0147147
606.160	0.0146673
606.238	0.0147137
606.317	0.0146953
606.395	0.0147318
606.473	0.0146589
606.551	0.0147231
606.629	0.0145817
606.707	0.0146690
606.785	0.0147357
606.863	0.0148936
606.942	0.0147597
607.020	0.0146513
607.098	0.0147144
607.176	0.0147714
607.254	0.0146863
607.332	0.0147139
607.410	0.0147175
607.488	0.0147685
607.567	0.0147458
607.645	0.0146044
607.723	0.0147372
607.801	0.0148042
607.879	0.0146597
607.957	0.0146123
608.035	0.0145699
608.113	0.0147162
608.192	0.0147388
608.270	0.0146140
608.348	0.0147330
608.426	0.0147034
608.504	0.0147896
608.582	0.0146915
608.660	0.0147436
608.738	0.0148116
608.817	0.0147073
608.895	0.0146477
608.973	0.0146086
609.051	0.0146585
609.129	0.0148775
609.207	0.0147667
609.285	0.0148412
609.363	0.0146684
609.442	0.0147332
609.520	0.0147537
609.598	0.0147325
609.676	0.0147381
609.754	0.0146410
609.832	0.0147398
609.910	0.0148841
609.988	0.0147911
610.067	0.0147098
610.145	0.0148579
610.223	0.0147590
610.301	0.0146684
610.379	0.0145656
610.457	0.0147326
610.535	0.0147596
610.613	0.0147746
610.692	0.0146896
610.770	0.0147633
610.848	0.0146842
610.926	0.0146727
611.004	0.0147310
611.082	0.0147163
611.160	0.0148586
611.238	0.0147083
611.317	0.0146251
611.395	0.0147508
611.473	0.0146959
611.551	0.0147041
611.629	0.0148449
611.707	0.0147357
611.785	0.0146712
611.863	0.0147212
611.942	0.0147605
612.020	0.0146790
612.098	0.0147719
612.176	0.0147278
612.254	0.0147477
612.332	0.0147955
612.410	0.0147282
612.488	0.0146089
612.567	0.0145794
612.645	0.0146245
612.723	0.0146461
612.801	0.0145650
612.879	0.0146108
612.957	0.0145636
613.035	0.0145467
613.113	0.0146189
613.192	0.0146679
613.270	0.0145225
613.348	0.0147285
613.426	0.0145945
613.504	0.0147021
613.582	0.0146807
613.660	0.0146355
613.738	0.0147169
613.817	0.0145454
613.895	0.0147108
613.973	0.0146565
614.051	0.0145287
614.129	0.0146944
614.207	0.0147260
614.285	0.0146210
614.363	0.0145378
614.442	0.0146646
614.520	0.0145193
614.598	0.0145743
614.676	0.0145517
614.754	0.0146016
614.832	0.0147183
614.910	0.0146367
614.988	0.0146274
615.067	0.0147292
615.145	0.0146077
615.223	0.0146275
615.301	0.0146128
615.379	0.0146185
615.457	0.0146449
615.535	0.0145606
615.613	0.0146283
615.692	0.0146591
615.770	0.0145505
615.848	0.0145448
615.926	0.0146400
616.004	0.0147076
616.082	0.0146770
616.160	0.0145419
616.238	0.0146289
616.317	0.0146937
616.395	0.0147342
616.473	0.0146046
616.551	0.0146429
616.629	0.0145902
616.707	0.0145904
616.785	0.0145254
616.863	0.0146064
616.942	0.0146771
617.020	0.0145279
617.098	0.0146206
617.176	0.0146115
617.254	0.0145424
617.332	0.0145763
617.410	0.0146486
617.488	0.0145831
617.567	0.0144542
617.645	0.0145407
617.723	0.0146275
617.801	0.0146073
617.879	0.0146725
617.957	0.0145352
618.035	0.0145296
618.113	0.0144986
618.192	0.0145542
618.270	0.0146669
618.348	0.0145405
618.426	0.0146207
618.504	0.0146037
618.582	0.0146934
618.660	0.0146790
618.738	0.0146157
618.817	0.0145644
618.895	0.0144466
618.973	0.0145768
619.051	0.0147132
619.129	0.0145055
619.207	0.0146194
619.285	0.0144954
619.363	0.0145943
619.442	0.0147249
619.520	0.0147121
619.598	0.0147218
619.676	0.0146590
619.754	0.0146509
619.832	0.0145831
619.910	0.0147445
619.988	0.0146297
620.067	0.0146487
620.145	0.0146384
620.223	0.0145576
620.301	0.0146008
620.379	0.0146200
620.457	0.0146516
620.535	0.0146146
620.613	0.0146285
620.692	0.0145407
620.770	0.0146631
620.848	0.0144661
620.926	0.0146773
621.004	0.0145291
621.082	0.0146977
621.160	0.0146361
621.238	0.0147046
621.317	0.0146986
621.395	0.0145933
621.473	0.0145362
621.551	0.0144919
621.629	0.0145037
621.707	0.0147571
621.785	0.0144911
621.863	0.0143880
621.942	0.0145998
622.020	0.0144772
622.098	0.0145720
622.176	0.0145435
622.254	0.0144742
622.332	0.0144913
622.410	0.0147041
622.488	0.0145630
622.567	0.0147364
622.645	0.0147478
622.723	0.0144991
622.801	0.0145405
622.879	0.0146030
622.957	0.0147610
623.035	0.0146778
623.113	0.0145998
623.192	0.0146579
623.270	0.0147543
623.348	0.0148244
623.426	0.0147154
623.504	0.0145602
623.582	0.0146715
623.660	0.0148739
623.738	0.0146075
623.817	0.0146191
623.895	0.0147009
623.973	0.0146281
624.051	0.0146547
624.129	0.0145466
624.207	0.0146301
624.285	0.0147066
624.363	0.0146165
624.442	0.0145685
624.520	0.0145911
624.598	0.0146628
624.676	0.0145459
624.754	0.0146394
624.832	0.0147407
624.910	0.0145171
624.988	0.0146546
625.067	0.0146170
625.145	0.0145565
625.223	0.0147082
625.301	0.0146262
625.379	0.0147742
625.457	0.0146806
625.535	0.0145500
625.613	0.0145625
625.692	0.0145799
625.770	0.0145999
625.848	0.0145182
625.926	0.0145464
626.004	0.0145228
626.082	0.0146503
626.160	0.0145935
626.238	0.0145998
626.317	0.0145686
626.395	0.0145554
626.473	0.0146078
626.551	0.0145001
626.629	0.0145654
626.707	0.0144682
626.785	0.0144663
626.863	0.0145869
626.942	0.0144994
627.020	0.0146551
627.098	0.0146134
627.176	0.0144527
627.254	0.0145893
627.332	0.0145114
627.410	0.0145766
627.488	0.0147092
627.567	0.0145831
627.645	0.0145512
627.723	0.0146484
627.801	0.0146381
627.879	0.0146021
627.957	0.0146797
628.035	0.0147074
628.113	0.0147517
628.192	0.0145515
628.270	0.0145221
628.348	0.0145023
628.426	0.0145957
628.504	0.0146440
628.582	0.0146999
628.660	0.0146004
628.738	0.0146482
628.817	0.0146677
628.895	0.0146828
628.973	0.0146130
629.051	0.0145590
629.129	0.0146507
629.207	0.0147228
629.285	0.0145946
629.363	0.0146075
629.442	0.0144678
629.520	0.0146231
629.598	0.0144891
629.676	0.0145646
629.754	0.0146325
629.832	0.0145255
629.910	0.0145481
629.988	0.0146172
630.067	0.0146383
630.145	0.0145354
630.223	0.0144278
630.301	0.0146630
630.379	0.0145930
630.457	0.0145959
630.535	0.0145173
630.613	0.0146661
630.692	0.0147939
630.770	0.0147414
630.848	0.0145554
630.926	0.0146203
631.004	0.0147112
631.082	0.0146803
631.160	0.0146526
631.238	0.0147949
631.317	0.0148306
631.395	0.0149292
631.473	0.0148186
631.551	0.0147593
631.629	0.0148394
631.707	0.0149236
631.785	0.0147144
631.863	0.0146245
631.942	0.0147633
632.020	0.0147939
632.098	0.0146797
632.176	0.0145757
632.254	0.0145711
632.332	0.0146446
632.410	0.0145489
632.488	0.0145033
632.567	0.0145706
632.645	0.0146375
632.723	0.0145648
632.801	0.0146101
632.879	0.0145166
632.957	0.0145641
633.035	0.0146426
633.113	0.0146710
633.192	0.0147125
633.270	0.0147329
633.348	0.0146190
633.426	0.0147181
633.504	0.0147129
633.582	0.0148042
633.660	0.0148038
633.738	0.0147117
633.817	0.0147006
633.895	0.0148022
633.973	0.0146518
634.051	0.0145303
634.129	0.0147527
634.207	0.0144453
634.285	0.0145295
634.363	0.0145892
634.442	0.0145254
634.520	0.0144274
634.598	0.0144054
634.676	0.0145615
634.754	0.0145599
634.832	0.0144806
634.910	0.0144166
634.988	0.0145927
635.067	0.0145971
635.145	0.0146093
635.223	0.0146484
635.301	0.0146915
635.379	0.0147977
635.457	0.0148811
635.535	0.0146795
635.613	0.0147715
635.692	0.0148800
635.770	0.0149327
635.848	0.0150443
635.926	0.0148872
636.004	0.0150047
636.082	0.0149275
636.160	0.0147971
636.238	0.0148878
636.317	0.0147584
636.395	0.0148834
636.473	0.0150031
636.551	0.0148656
636.629	0.0148850
636.707	0.0148474
636.785	0.0148613
636.863	0.0148940
636.942	0.0148598
637.020	0.0148220
637.098	0.0149821
637.176	0.0147905
637.254	0.0147797
637.332	0.0147813
637.410	0.0147913
637.488	0.0147699
637.567	0.0145561
637.645	0.0145365
637.723	0.0144511
637.801	0.0145258
637.879	0.0144498
637.957	0.0143291
638.035	0.0142303
638.113	0.0144365
638.192	0.0141963
638.270	0.0141961
638.348	0.0143787
638.426	0.0142402
638.504	0.0141886
638.582	0.0144171
638.660	0.0144033
638.738	0.0144622
638.817	0.0143754
638.895	0.0146081
638.973	0.0145773
639.051	0.0145031
639.129	0.0146755
639.207	0.0145539
639.285	0.0144942
639.363	0.0147253
639.442	0.0145766
639.520	0.0145536
639.598	0.0146527
639.676	0.0146238
639.754	0.0146422
639.832	0.0145720
639.910	0.0145084
639.988	0.0147629
640.067	0.0146687
640.145	0.0148692
640.223	0.0146567
640.301	0.0148117
640.379	0.0148199
640.457	0.0150275
640.535	0.0148202
640.613	0.0149411
640.692	0.0150524
640.770	0.0149748
640.848	0.0149444
640.926	0.0149052
641.004	0.0149221
641.082	0.0148055
641.160	0.0148238
641.238	0.0147893
641.317	0.0148121
641.395	0.0148002
641.473	0.0147880
641.551	0.0147630
641.629	0.0147556
641.707	0.0146526
641.785	0.0145573
641.863	0.0146543
641.942	0.0146137
642.020	0.0144740
642.098	0.0146250
642.176	0.0145457
642.254	0.0143969
642.332	0.0144238
642.410	0.0144125
642.488	0.0144946
642.567	0.0142899
642.645	0.0142273
642.723	0.0142625
642.801	0.0143011
642.879	0.0143171
642.957	0.0141653
643.035	0.0143159
643.113	0.0142052
643.192	0.0143350
643.270	0.0143478
643.348	0.0143439
643.426	0.0144591
643.504	0.0144479
643.582	0.0145541
643.660	0.0144147
643.738	0.0145755
643.817	0.0146425
643.895	0.0146441
643.973	0.0146367
644.051	0.0146072
644.129	0.0147054
644.207	0.0146800
644.285	0.0147059
644.363	0.0146382
644.442	0.0146653
644.520	0.0146339
644.598	0.0147503
644.676	0.0148061
644.754	0.0147564
644.832	0.0147207
644.910	0.0147007
644.988	0.0147861
645.067	0.0147346
645.145	0.0147285
645.223	0.0148136
645.301	0.0146049
645.379	0.0147607
645.457	0.0147549
645.535	0.0148483
645.613	0.0148005
645.692	0.0148103
645.770	0.0146642
645.848	0.0146250
645.926	0.0147285
646.004	0.0147236
646.082	0.0146597
646.160	0.0145615
646.238	0.0145821
646.317	0.0146603
646.395	0.0145094
646.473	0.0144852
646.551	0.0146160
646.629	0.0146443
646.707	0.0145412
646.785	0.0146146
646.863	0.0145611
646.942	0.0144797
647.020	0.0144923
647.098	0.0144537
647.176	0.0144582
647.254	0.0144051
647.332	0.0142903
647.410	0.0143829
647.488	0.0143508
647.567	0.0144300
647.645	0.0143424
647.723	0.0145004
647.801	0.0145839
647.879	0.0143915
647.957	0.0144379
648.035	0.0145360
648.113	0.0144391
648.192	0.0144797
648.270	0.0146041
648.348	0.0146145
648.426	0.0145996
648.504	0.0146658
648.582	0.0146329
648.660	0.0146576
648.738	0.0147458
648.817	0.0147329
648.895	0.0147999
648.973	0.0147382
649.051	0.0146219
649.129	0.0147538
649.207	0.0146941
649.285	0.0146204
649.363	0.0147018
649.442	0.0146141
649.520	0.0146546
649.598	0.0144599
649.676	0.0145522
649.754	0.0145162
649.832	0.0144155
649.910	0.0144077
649.988	0.0144395
650.067	0.0143210
650.145	0.0143360
650.223	0.0144353
650.301	0.0146130
650.379	0.0146410
650.457	0.0145272
650.535	0.0145022
650.613	0.0147041
650.692	0.0146973
650.770	0.0147158
650.848	0.0147495
650.926	0.0147504
651.004	0.0148902
651.082	0.0149118
651.160	0.0146783
651.238	0.0150256
651.317	0.0148637
651.395	0.0148268
651.473	0.0149239
651.551	0.0146445
651.629	0.0147479
651.707	0.0147549
651.785	0.0147039
651.863	0.0147341
651.942	0.0148202
652.020	0.0148016
652.098	0.0146822
652.176	0.0145542
652.254	0.0147073
652.332	0.0145250
652.410	0.0146131
652.488	0.0145471
652.567	0.0145512
652.645	0.0145430
652.723	0.0144788
652.801	0.0144057
652.879	0.0144768
652.957	0.0143352
653.035	0.0144271
653.113	0.0143407
653.192	0.0144010
653.270	0.0142040
653.348	0.0142902
653.426	0.0143506
653.504	0.0143642
653.582	0.0143765
653.660	0.0143478
653.738	0.0142463
653.817	0.0142677
653.895	0.0144492
653.973	0.0145206
654.051	0.0145428
654.129	0.0144678
654.207	0.0146186
654.285	0.0146017
654.363	0.0146056
654.442	0.0145945
654.520	0.0147511
654.598	0.0148679
654.676	0.0147121
654.754	0.0147969
654.832	0.0148340
654.910	0.0147186
654.988	0.0148721
655.067	0.0147112
655.145	0.0146736
655.223	0.0147057
655.301	0.0145884
655.379	0.0145026
655.457	0.0146726
655.535	0.0145078
655.613	0.0144314
655.692	0.0143960
655.770	0.0143349
655.848	0.0143483
655.926	0.0143647
656.004	0.0144785
656.082	0.0144151
656.160	0.0145647
656.238	0.0143828
656.317	0.0144749
656.395	0.0145643
656.473	0.0146163
656.551	0.0145889
656.629	0.0147594
656.707	0.0148725
656.785	0.0147939
656.863	0.0148435
656.942	0.0149115
657.020	0.0150702
657.098	0.0150888
657.176	0.0150806
657.254	0.0151678
657.332	0.0153257
657.410	0.0153114
657.488	0.0152361
657.567	0.0152270
657.645	0.0152365
657.723	0.0151691
657.801	0.0151892
657.879	0.0150533
657.957	0.0149393
658.035	0.0149902
658.113	0.0148926
658.192	0.0148962
658.270	0.0147997
658.348	0.0146957
658.426	0.0146849
658.504	0.0146508
658.582	0.0144811
658.660	0.0145275
658.738	0.0143951
658.817	0.0142579
658.895	0.0144205
658.973	0.0144051
659.051	0.0142925
659.129	0.0143546
659.207	0.0144129
659.285	0.0143430
659.363	0.0144156
659.442	0.0144356
659.520	0.0145278
659.598	0.0145776
659.676	0.0145888
659.754	0.0145770
659.832	0.0146375
659.910	0.0146584
659.988	0.0144746
660.067	0.0145698
660.145	0.0145827
660.223	0.0145931
660.301	0.0145546
660.379	0.0145679
660.457	0.0145061
660.535	0.0144521
660.613	0.0144926
660.692	0.0145852
660.770	0.0147070
660.848	0.0145398
660.926	0.0145968
661.004	0.0146738
661.082	0.0146248
661.160	0.0146545
661.238	0.0146926
661.317	0.0147875
661.395	0.0148616
661.473	0.0149632
661.551	0.0149628
661.629	0.0151039
661.707	0.0151735
661.785	0.0152013
661.863	0.0150890
661.942	0.0152528
662.020	0.0154539
662.098	0.0151774
662.176	0.0152811
662.254	0.0153394
662.332	0.0153201
662.410	0.0154472
662.488	0.0151815
662.567	0.0151994
662.645	0.0152603
662.723	0.0152272
662.801	0.0150480
662.879	0.0149947
662.957	0.0149992
663.035	0.0148476
663.113	0.0147992
663.192	0.0146748
663.270	0.0146809
663.348	0.0145341
663.426	0.0145269
663.504	0.0142971
663.582	0.0143761
663.660	0.0141561
663.738	0.0142524
663.817	0.0142930
663.895	0.0141398
663.973	0.0141868
664.051	0.0142712
664.129	0.0141979
664.207	0.0142943
664.285	0.0143305
664.363	0.0144183
664.442	0.0145288
664.520	0.0145253
664.598	0.0145425
664.676	0.0146902
664.754	0.0146970
664.832	0.0146292
664.910	0.0148372
664.988	0.0149133
665.067	0.0147777
665.145	0.0149036
665.223	0.0150494
665.301	0.0150117
665.379	0.0150773
665.457	0.0149076
665.535	0.0149043
665.613	0.0149263
665.692	0.0148347
665.770	0.0148936
665.848	0.0149803
665.926	0.0146108
666.004	0.0148307
666.082	0.0147192
666.160	0.0146385
666.238	0.0145605
666.317	0.0146572
666.395	0.0145789
666.473	0.0143909
666.551	0.0145508
666.629	0.0145474
666.707	0.0144923
666.785	0.0145322
666.863	0.0143891
666.942	0.0144566
667.020	0.0144461
667.098	0.0144039
667.176	0.0143779
667.254	0.0143533
667.332	0.0144930
667.410	0.0144219
667.488	0.0145057
667.567	0.0144765
667.645	0.0144732
667.723	0.0146955
667.801	0.0147478
667.879	0.0147498
667.957	0.0148495
668.035	0.0147903
668.113	0.0148788
668.192	0.0150554
668.270	0.0149588
668.348	0.0150556
668.426	0.0151113
668.504	0.0151018
668.582	0.0148869
668.660	0.0149537
668.738	0.0150889
668.817	0.0151140
668.895	0.0150344
668.973	0.0149221
669.051	0.0149343
669.129	0.0149388
669.207	0.0148614
669.285	0.0148783
669.363	0.0147639
669.442	0.0147566
669.520	0.0145345
669.598	0.0145109
669.676	0.0146680
669.754	0.0144849
669.832	0.0145741
669.910	0.0145226
669.988	0.0145391
670.067	0.0145284
670.145	0.0144878
670.223	0.0145798
670.301	0.0145753
670.379	0.0145148
670.457	0.0144666
670.535	0.0146538
670.613	0.0147393
670.692	0.0145625
670.770	0.0144864
670.848	0.0145661
670.926	0.0145267
671.004	0.0144896
671.082	0.0145596
671.160	0.0143370
671.238	0.0144254
671.317	0.0143997
671.395	0.0144515
671.473	0.0143509
671.551	0.0143961
671.629	0.0143240
671.707	0.0142421
671.785	0.0142212
671.863	0.0142630
671.942	0.0142786
672.020	0.0142790
672.098	0.0142741
672.176	0.0144207
672.254	0.0145278
672.332	0.0145948
672.410	0.0146502
672.488	0.0146996
672.567	0.0149321
672.645	0.0150072
672.723	0.0152170
672.801	0.0152814
672.879	0.0151796
672.957	0.0153902
673.035	0.0155090
673.113	0.0153130
673.192	0.0153661
673.270	0.0154434
673.348	0.0153287
673.426	0.0152135
673.504	0.0151455
673.582	0.0151292
673.660	0.0151519
673.738	0.0150415
673.817	0.0148772
673.895	0.0148844
673.973	0.0146503
674.051	0.0145017
674.129	0.0143948
674.207	0.0143369
674.285	0.0141955
674.363	0.0139210
674.442	0.0139767
674.520	0.0138995
674.598	0.0138680
674.676	0.0138091
674.754	0.0138784
674.832	0.0138812
674.910	0.0137363
674.988	0.0138066
675.067	0.0138119
675.145	0.0137446
675.223	0.0138171
675.301	0.0141479
675.379	0.0142496
675.457	0.0142745
675.535	0.0143297
675.613	0.0145215
675.692	0.0146133
675.770	0.0146922
675.848	0.0148994
675.926	0.0150336
676.004	0.0150564
676.082	0.0152086
676.160	0.0152479
676.238	0.0153282
676.317	0.0153728
676.395	0.0153201
676.473	0.0152433
676.551	0.0152571
676.629	0.0152000
676.707	0.0151103
676.785	0.0151321
676.863	0.0150858
676.942	0.0151590
677.020	0.0149596
677.098	0.0147460
677.176	0.0148274
677.254	0.0147334
677.332	0.0145580
677.410	0.0147926
677.488	0.0145044
677.567	0.0143948
677.645	0.0146436
677.723	0.0146326
677.801	0.0144353
677.879	0.0144833
677.957	0.0145930
678.035	0.0145184
678.113	0.0146194
678.192	0.0146760
678.270	0.0146066
678.348	0.0147008
678.426	0.0145562
678.504	0.0144292
678.582	0.0146487
678.660	0.0144889
678.738	0.0145569
678.817	0.0146606
678.895	0.0144626
678.973	0.0145853
679.051	0.0144638
679.129	0.0144464
679.207	0.0144244
679.285	0.0146050
679.363	0.0145692
679.442	0.0147252
679.520	0.0145599
679.598	0.0146314
679.676	0.0147628
679.754	0.0148707
679.832	0.0149534
679.910	0.0148769
679.988	0.0149252
680.067	0.0148307
680.145	0.0151067
680.223	0.0150098
680.301	0.0150331
680.379	0.0150647
680.457	0.0149406
680.535	0.0149345
680.613	0.0149638
680.692	0.0148809
680.770	0.0147593
680.848	0.0148315
680.926	0.0149039
681.004	0.0147987
681.082	0.0147789
681.160	0.0145645
681.238	0.0146329
681.317	0.0146590
681.395	0.0146704
681.473	0.0145200
681.551	0.0146921
681.629	0.0146432
681.707	0.0146579
681.785	0.0146092
681.863	0.0147724
681.942	0.0146819
682.020	0.0148074
682.098	0.0146929
682.176	0.0145735
682.254	0.0144972
682.332	0.0147028
682.410	0.0146809
682.488	0.0147636
682.567	0.0147998
682.645	0.0146318
682.723	0.0146156
682.801	0.0145403
682.879	0.0146191
682.957	0.0146920
683.035	0.0146079
683.113	0.0146126
683.192	0.0146051
683.270	0.0144935
683.348	0.0144179
683.426	0.0144391
683.504	0.0144458
683.582	0.0144395
683.660	0.0144936
683.738	0.0145887
683.817	0.0146634
683.895	0.0146245
683.973	0.0146485
684.051	0.0146023
684.129	0.0146713
684.207	0.0147561
684.285	0.0149364
684.363	0.0149867
684.442	0.0149871
684.520	0.0150572
684.598	0.0151620
684.676	0.0152842
684.754	0.0153959
684.832	0.0155511
684.910	0.0155938
684.988	0.0156157
685.067	0.0155918
685.145	0.0157430
685.223	0.0157172
685.301	0.0157571
685.379	0.0158175
685.457	0.0157683
685.535	0.0154961
685.613	0.0154997
685.692	0.0152705
685.770	0.0151580
685.848	0.0150223
685.926	0.0148875
686.004	0.0147030
686.082	0.0146928
686.160	0.0145032
686.238	0.0144796
686.317	0.0143740
686.395	0.0142577
686.473	0.0142616
686.551	0.0141903
686.629	0.0140498
686.707	0.0140826
686.785	0.0141223
686.863	0.0142554
686.942	0.0142586
687.020	0.0142206
687.098	0.0141879
687.176	0.0142418
687.254	0.0142671
687.332	0.0142919
687.410	0.0143763
687.488	0.0141785
687.567	0.0142313
687.645	0.0142201
687.723	0.0142645
687.801	0.0142783
687.879	0.0142489
687.957	0.0140812
688.035	0.0143212
688.113	0.0144193
688.192	0.0143716
688.270	0.0143636
688.348	0.0145662
688.426	0.0145426
688.504	0.0145086
688.582	0.0145946
688.660	0.0146161
688.738	0.0147977
688.817	0.0148468
688.895	0.0147941
688.973	0.0149565
689.051	0.0150163
689.129	0.0150225
689.207	0.0148354
689.285	0.0148285
689.363	0.0148718
689.442	0.0148864
689.520	0.0148612
689.598	0.0149789
689.676	0.0149361
689.754	0.0148354
689.832	0.0147469
689.910	0.0148058
689.988	0.0148268
690.067	0.0147152
690.145	0.0147311
690.223	0.0145953
690.301	0.0145100
690.379	0.0145529
690.457	0.0143591
690.535	0.0144696
690.613	0.0144351
690.692	0.0143081
690.770	0.0143315
690.848	0.0142780
690.926	0.0140199
691.004	0.0142094
691.082	0.0140553
691.160	0.0141705
691.238	0.0139330
691.317	0.0139812
691.395	0.0140774
691.473	0.0138939
691.551	0.0139001
691.629	0.0137352
691.707	0.0138052
691.785	0.0137423
691.863	0.0138728
691.942	0.0136723
692.020	0.0136212
692.098	0.0136486
692.176	0.0137440
692.254	0.0136581
692.332	0.0137754
692.410	0.0138164
692.488	0.0138731
692.567	0.0139053
692.645	0.0141354
692.723	0.0141615
692.801	0.0143452
692.879	0.0145171
692.957	0.0146958
693.035	0.0147428
693.113	0.0147824
693.192	0.0149495
693.270	0.0151124
693.348	0.0152712
693.426	0.0154934
693.504	0.0155790
693.582	0.0156496
693.660	0.0156834
693.738	0.0157165
693.817	0.0156995
693.895	0.0159490
693.973	0.0158556
694.051	0.0158289
694.129	0.0158381
694.207	0.0159044
694.285	0.0158273
694.363	0.0157424
694.442	0.0157766
694.520	0.0155580
694.598	0.0155962
694.676	0.0157145
694.754	0.0154812
694.832	0.0154324
694.910	0.0153113
694.988	0.0152306
695.067	0.0149541
695.145	0.0149717
695.223	0.0149200
695.301	0.0148141
695.379	0.0146853
695.457	0.0145322
695.535	0.0144018
695.613	0.0142797
695.692	0.0140309
695.770	0.0140137
695.848	0.0139297
695.926	0.0139781
696.004	0.0137532
696.082	0.0136389
696.160	0.0135759
696.238	0.0134957
696.317	0.0135690
696.395	0.0135243
696.473	0.0135982
696.551	0.0136881
696.629	0.0136520
696.707	0.0136112
696.785	0.0137321
696.863	0.0139023
696.942	0.0140166
697.020	0.0140156
697.098	0.0142186
697.176	0.0143093
697.254	0.0144611
697.332	0.0144643
697.410	0.0146613
697.488	0.0147504
697.567	0.0148394
697.645	0.0149342
697.723	0.0150756
697.801	0.0151656
697.879	0.0149998
697.957	0.0153207
698.035	0.0153510
698.113	0.0154523
698.192	0.0154251
698.270	0.0154248
698.348	0.0154337
698.426	0.0155669
698.504	0.0153860
698.582	0.0155285
698.660	0.0155348
698.738	0.0155516
698.817	0.0153867
698.895	0.0154542
698.973	0.0154339
699.051	0.0155916
699.129	0.0154967
699.207	0.0153732
699.285	0.0153512
699.363	0.0152148
699.442	0.0151536
699.520	0.0150233
699.598	0.0149186
699.676	0.0148456
699.754	0.0146705
699.832	0.0145303
699.910	0.0142998
699.988	0.0141751
700.067	0.0141138
700.145	0.0140840
700.223	0.0139858
700.301	0.0137717
700.379	0.0138486
700.457	0.0138069
700.535	0.0138705
700.613	0.0137557
700.692	0.0137138
700.770	0.0138801
700.848	0.0139863
700.926	0.0138513
701.004	0.0139937
701.082	0.0141341
701.160	0.0140883
701.238	0.0141885
701.317	0.0141792
701.395	0.0142897
701.473	0.0143263
701.551	0.0143669
701.629	0.0144541
701.707	0.0145070
701.785	0.0145677
701.863	0.0145829
701.942	0.0147497
702.020	0.0149348
702.098	0.0149225
702.176	0.0150007
702.254	0.0152353
702.332	0.0152922
702.410	0.0152460
702.488	0.0153027
702.567	0.0153732
702.645	0.0154815
702.723	0.0154236
702.801	0.0154602
702.879	0.0153596
702.957	0.0154511
703.035	0.0154410
703.113	0.0153044
703.192	0.0153245
703.270	0.0152649
703.348	0.0153486
703.426	0.0153535
703.504	0.0152567
703.582	0.0150767
703.660	0.0152249
703.738	0.0150970
703.817	0.0150368
703.895	0.0149458
703.973	0.0147958
704.051	0.0146497
704.129	0.0147344
704.207	0.0147601
704.285	0.0145245
704.363	0.0145891
704.442	0.0145141
704.520	0.0144592
704.598	0.0143594
704.676	0.0144487
704.754	0.0144019
704.832	0.0143916
704.910	0.0143504
704.988	0.0144192
705.067	0.0146154
705.145	0.0144554
705.223	0.0144028
705.301	0.0145387
705.379	0.0145650
705.457	0.0144228
705.535	0.0143442
705.613	0.0143818
705.692	0.0144231
705.770	0.0144553
705.848	0.0144590
705.926	0.0144685
706.004	0.0143829
706.082	0.0145031
706.160	0.0145157
706.238	0.0144225
706.317	0.0144238
706.395	0.0144874
706.473	0.0142607
706.551	0.0144395
706.629	0.0145808
706.707	0.0145465
706.785	0.0143829
706.863	0.0146554
706.942	0.0143823
707.020	0.0144295
707.098	0.0145566
707.176	0.0144025
707.254	0.0144042
707.332	0.0144752
707.410	0.0147293
707.488	0.0147298
707.567	0.0146082
707.645	0.0148409
707.723	0.0147209
707.801	0.0146402
707.879	0.0148291
707.957	0.0148160
708.035	0.0147832
708.113	0.0148644
708.192	0.0147123
708.270	0.0146689
708.348	0.0147594
708.426	0.0146017
708.504	0.0146257
708.582	0.0145317
708.660	0.0146037
708.738	0.0145970
708.817	0.0146217
708.895	0.0144751
708.973	0.0145148
709.051	0.0146745
709.129	0.0145464
709.207	0.0145776
709.285	0.0146629
709.363	0.0144534
709.442	0.0145636
709.520	0.0145848
709.598	0.0144994
709.676	0.0146152
709.754	0.0144627
709.832	0.0144719
709.910	0.0144495
709.988	0.0146208
710.067	0.0146362
710.145	0.0146529
710.223	0.0144643
710.301	0.0145483
710.379	0.0145189
710.457	0.0145416
710.535	0.0144520
710.613	0.0145203
710.692	0.0145152
710.770	0.0143044
710.848	0.0144078
710.926	0.0142727
711.004	0.0142777
711.082	0.0141431
711.160	0.0142061
711.238	0.0142614
711.317	0.0141009
711.395	0.0141987
711.473	0.0140198
711.551	0.0140552
711.629	0.0140550
711.707	0.0141696
711.785	0.0138474
711.863	0.0140465
711.942	0.0141640
712.020	0.0139440
712.098	0.0141608
712.176	0.0141761
712.254	0.0140449
712.332	0.0141770
712.410	0.0143042
712.488	0.0143988
712.567	0.0144042
712.645	0.0145578
712.723	0.0144769
712.801	0.0145381
712.879	0.0146069
712.957	0.0146512
713.035	0.0146719
713.113	0.0145236
713.192	0.0145525
713.270	0.0145364
713.348	0.0145291
713.426	0.0146347
713.504	0.0145448
713.582	0.0146224
713.660	0.0147062
713.738	0.0147075
713.817	0.0146115
713.895	0.0147021
713.973	0.0147154
714.051	0.0148037
714.129	0.0149871
714.207	0.0149693
714.285	0.0148669
714.363	0.0150660
714.442	0.0150695
714.520	0.0150272
714.598	0.0148834
714.676	0.0149159
714.754	0.0149644
714.832	0.0150354
714.910	0.0148973
714.988	0.0148528
715.067	0.0147669
715.145	0.0149134
715.223	0.0147353
715.301	0.0146005
715.379	0.0147188
715.457	0.0146813
715.535	0.0145936
715.613	0.0146315
715.692	0.0146461
715.770	0.0143492
715.848	0.0146661
715.926	0.0146413
716.004	0.0145943
716.082	0.0147094
716.160	0.0146709
716.238	0.0147765
716.317	0.0147124
716.395	0.0146188
716.473	0.0147813
716.551	0.0149723
716.629	0.0149855
716.707	0.0149721
716.785	0.0149259
716.863	0.0150372
716.942	0.0150890
717.020	0.0151344
717.098	0.0150936
717.176	0.0150637
717.254	0.0150950
717.332	0.0151135
717.410	0.0150984
717.488	0.0149823
717.567	0.0150214
717.645	0.0150234
717.723	0.0149255
717.801	0.0147642
717.879	0.0147253
717.957	0.0146658
718.035	0.0146119
718.113	0.0145238
718.192	0.0144548
718.270	0.0144854
718.348	0.0143995
718.426	0.0144728
718.504	0.0144416
718.582	0.0144243
718.660	0.0143574
718.738	0.0144414
718.817	0.0143674
718.895	0.0143771
718.973	0.0146294
719.051	0.0144881
719.129	0.0146066
719.207	0.0145154
719.285	0.0145486
719.363	0.0146009
719.442	0.0145803
719.520	0.0144859
719.598	0.0144794
719.676	0.0146136
719.754	0.0147038
719.832	0.0145322
719.910	0.0144934
719.988	0.0143713
720.067	0.0146046
720.145	0.0146776
720.223	0.0145042
720.301	0.0146212
720.379	0.0145842
720.457	0.0145541
720.535	0.0145439
720.613	0.0145721
720.692	0.0144966
720.770	0.0144790
720.848	0.0146766
720.926	0.0145648
721.004	0.0144821
721.082	0.0145908
721.160	0.0145673
721.238	0.0146285
721.317	0.0145467
721.395	0.0144455
721.473	0.0146468
721.551	0.0147195
721.629	0.0146274
721.707	0.0147752
721.785	0.0147195
721.863	0.0146473
721.942	0.0148726
722.020	0.0148898
722.098	0.0147312
722.176	0.0148378
722.254	0.0148589
722.332	0.0147059
722.410	0.0148361
722.488	0.0148629
722.567	0.0147536
722.645	0.0147314
722.723	0.0145679
722.801	0.0145596
722.879	0.0145473
722.957	0.0145634
723.035	0.0143764
723.113	0.0143283
723.192	0.0144640
723.270	0.0144401
723.348	0.0143637
723.426	0.0143597
723.504	0.0142707
723.582	0.0143716
723.660	0.0143325
723.738	0.0143619
723.817	0.0145711
723.895	0.0143771
723.973	0.0145047
724.051	0.0145094
724.129	0.0145783
724.207	0.0145860
724.285	0.0145830
724.363	0.0147567
724.442	0.0148456
724.520	0.0148466
724.598	0.0148618
724.676	0.0149059
724.754	0.0148922
724.832	0.0148589
724.910	0.0148750
724.988	0.0148208
725.067	0.0148769
725.145	0.0149239
725.223	0.0149276
725.301	0.0149507
725.379	0.0148450
725.457	0.0148434
725.535	0.0148855
725.613	0.0149167
725.692	0.0148257
725.770	0.0149664
725.848	0.0148993
725.926	0.0148328
726.004	0.0146949
726.082	0.0148791
726.160	0.0148746
726.238	0.0147390
726.317	0.0147814
726.395	0.0148807
726.473	0.0148936
726.551	0.0150623
726.629	0.0150990
726.707	0.0150033
726.785	0.0149127
726.863	0.0148803
726.942	0.0149224
727.020	0.0148772
727.098	0.0149517
727.176	0.0150301
727.254	0.0149726
727.332	0.0149123
727.410	0.0148619
727.488	0.0149078
727.567	0.0148584
727.645	0.0148847
727.723	0.0147573
727.801	0.0148657
727.879	0.0147472
727.957	0.0147396
728.035	0.0147118
728.113	0.0148928
728.192	0.0148150
728.270	0.0148063
728.348	0.0147453
728.426	0.0148162
728.504	0.0146618
728.582	0.0148717
728.660	0.0147350
728.738	0.0147533
728.817	0.0147947
728.895	0.0146355
728.973	0.0146870
729.051	0.0145792
729.129	0.0147328
729.207	0.0146716
729.285	0.0147896
729.363	0.0147253
729.442	0.0146908
729.520	0.0145880
729.598	0.0146570
729.676	0.0147064
729.754	0.0145976
729.832	0.0147621
729.910	0.0146730
729.988	0.0146062
730.067	0.0146474
730.145	0.0146700
730.223	0.0146147
730.301	0.0145364
730.379	0.0145856
730.457	0.0144775
730.535	0.0144335
730.613	0.0146032
730.692	0.0144283
730.770	0.0144392
730.848	0.0143538
730.926	0.0143413
731.004	0.0142873
731.082	0.0144341
731.160	0.0143761
731.238	0.0143321
731.317	0.0143912
731.395	0.0143945
731.473	0.0143349
731.551	0.0142461
731.629	0.0144466
731.707	0.0145867
731.785	0.0147146
731.863	0.0145071
731.942	0.0144824
732.020	0.0145134
732.098	0.0144338
732.176	0.0144833
732.254	0.0144420
732.332	0.0145881
732.410	0.0145116
732.488	0.0143768
732.567	0.0144254
732.645	0.0144957
732.723	0.0143488
732.801	0.0145271
732.879	0.0146493
732.957	0.0143337
733.035	0.0145471
733.113	0.0146452
733.192	0.0144384
733.270	0.0144600
733.348	0.0145537
733.426	0.0145576
733.504	0.0146078
733.582	0.0145490
733.660	0.0144964
733.738	0.0146242
733.817	0.0145359
733.895	0.0145790
733.973	0.0145272
734.051	0.0145102
734.129	0.0146664
734.207	0.0145607
734.285	0.0145760
734.363	0.0147089
734.442	0.0145547
734.520	0.0146668
734.598	0.0147491
734.676	0.0146931
734.754	0.0144798
734.832	0.0145805
734.910	0.0146925
734.988	0.0145596
735.067	0.0145171
735.145	0.0146160
735.223	0.0145802
735.301	0.0145139
735.379	0.0146246
735.457	0.0145123
735.535	0.0145895
735.613	0.0145377
735.692	0.0147002
735.770	0.0146513
735.848	0.0147681
735.926	0.0146795
736.004	0.0146317
736.082	0.0145748
736.160	0.0146503
736.238	0.0145745
736.317	0.0146379
736.395	0.0147936
736.473	0.0146687
736.551	0.0147054
736.629	0.0147533
736.707	0.0147606
736.785	0.0148166
736.863	0.0147275
736.942	0.0148346
737.020	0.0147058
737.098	0.0148227
737.176	0.0147717
737.254	0.0147516
737.332	0.0147747
737.410	0.0147492
737.488	0.0146572
737.567	0.0146687
737.645	0.0146793
737.723	0.0149755
737.801	0.0148283
737.879	0.0147337
737.957	0.0148608
738.035	0.0148898
738.113	0.0149040
738.192	0.0149596
738.270	0.0149014
738.348	0.0149286
738.426	0.0151437
738.504	0.0149815
738.582	0.0147137
738.660	0.0148804
738.738	0.0149255
738.817	0.0149372
738.895	0.0148927
738.973	0.0148189
739.051	0.0149107
739.129	0.0149053
739.207	0.0149120
739.285	0.0149296
739.363	0.0150509
739.442	0.0149345
739.520	0.0148882
739.598	0.0149133
739.676	0.0148024
739.754	0.0148071
739.832	0.0147858
739.910	0.0145859
739.988	0.0147682
740.067	0.0148443
740.145	0.0146186
740.223	0.0147215
740.301	0.0145850
740.379	0.0146864
740.457	0.0147279
740.535	0.0145733
740.613	0.0145924
740.692	0.0146474
740.770	0.0146381
740.848	0.0145580
740.926	0.0146412
741.004	0.0145518
741.082	0.0147175
741.160	0.0146117
741.238	0.0145140
741.317	0.0146094
741.395	0.0146225
741.473	0.0146029
741.551	0.0145564
741.629	0.0146263
741.707	0.0146714
741.785	0.0146703
741.863	0.0147737
741.942	0.0147481
742.020	0.0147648
742.098	0.0146032
742.176	0.0148028
742.254	0.0147696
742.332	0.0148532
742.410	0.0148622
742.488	0.0148377
742.567	0.0147457
742.645	0.0148610
742.723	0.0148914
742.801	0.0148417
742.879	0.0150526
742.957	0.0149490
743.035	0.0146948
743.113	0.0148901
743.192	0.0149945
743.270	0.0149638
743.348	0.0146325
743.426	0.0148457
743.504	0.0148022
743.582	0.0147446
743.660	0.0147627
743.738	0.0146307
743.817	0.0146089
743.895	0.0146998
743.973	0.0147520
744.051	0.0146566
744.129	0.0146683
744.207	0.0145609
744.285	0.0145116
744.363	0.0145716
744.442	0.0146957
744.520	0.0147202
744.598	0.0146533
744.676	0.0148043
744.754	0.0147054
744.832	0.0146950
744.910	0.0147387
744.988	0.0147078
745.067	0.0145462
745.145	0.0146802
745.223	0.0147163
745.301	0.0145426
745.379	0.0146680
745.457	0.0146080
745.535	0.0145939
745.613	0.0145560
745.692	0.0144033
745.770	0.0144656
745.848	0.0144019
745.926	0.0145034
746.004	0.0143803
746.082	0.0144382
746.160	0.0145530
746.238	0.0144460
746.317	0.0145621
746.395	0.0147673
746.473	0.0146206
746.551	0.0144764
746.629	0.0147079
746.707	0.0146972
746.785	0.0146168
746.863	0.0147193
746.942	0.0147956
747.020	0.0149590
747.098	0.0146772
747.176	0.0147746
747.254	0.0149303
747.332	0.0149625
747.410	0.0148989
747.488	0.0148850
747.567	0.0149284
747.645	0.0147615
747.723	0.0146932
747.801	0.0146880
747.879	0.0146603
747.957	0.0146009
748.035	0.0147181
748.113	0.0147569
748.192	0.0146751
748.270	0.0145934
748.348	0.0146428
748.426	0.0147707
748.504	0.0146587
748.582	0.0145383
748.660	0.0145637
748.738	0.0146107
748.817	0.0146435
748.895	0.0147016
748.973	0.0146705
749.051	0.0147677
749.129	0.0146834
749.207	0.0148194
749.285	0.0146011
749.363	0.0145657
749.442	0.0146877
749.520	0.0147470
749.598	0.0146243
749.676	0.0147932
749.754	0.0147303
749.832	0.0146637
749.910	0.0146636
749.988	0.0145660
750.067	0.0147398
750.145	0.0147261
750.223	0.0148289
750.301	0.0146819
750.379	0.0146581
750.457	0.0147760
750.535	0.0145942
750.613	0.0146249
750.692	0.0146210
750.770	0.0144926
750.848	0.0146765
750.926	0.0146323
751.004	0.0145531
751.082	0.0146747
751.160	0.0146720
751.238	0.0145824
751.317	0.0145300
751.395	0.0147244
751.473	0.0145596
751.551	0.0145560
751.629	0.0146065
751.707	0.0144806
751.785	0.0146139
751.863	0.0143260
751.942	0.0146066
752.020	0.0145329
752.098	0.0145341
752.176	0.0146075
752.254	0.0146722
752.332	0.0145802
752.410	0.0145671
752.488	0.0146632
752.567	0.0146191
752.645	0.0145848
752.723	0.0146245
752.801	0.0145115
752.879	0.0146893
752.957	0.0146259
753.035	0.0147195
753.113	0.0146616
753.192	0.0146294
753.270	0.0146230
753.348	0.0145496
753.426	0.0145170
753.504	0.0145601
753.582	0.0144445
753.660	0.0146246
753.738	0.0144627
753.817	0.0145277
753.895	0.0144868
753.973	0.0145679
754.051	0.0145601
754.129	0.0148151
754.207	0.0146073
754.285	0.0145143
754.363	0.0146765
754.442	0.0147276
754.520	0.0147131
754.598	0.0146692
754.676	0.0146416
754.754	0.0148080
754.832	0.0147591
754.910	0.0146914
754.988	0.0148278
755.067	0.0147430
755.145	0.0146904
755.223	0.0147404
755.301	0.0146941
755.379	0.0146626
755.457	0.0148064
755.535	0.0147068
755.613	0.0147920
755.692	0.0148259
755.770	0.0146310
755.848	0.0145930
755.926	0.0147862
756.004	0.0146946
756.082	0.0146500
756.160	0.0146288
756.238	0.0147278
756.317	0.0146050
756.395	0.0145377
756.473	0.0146381
756.551	0.0145765
756.629	0.0144453
756.707	0.0145922
756.785	0.0146200
756.863	0.0147874
756.942	0.0145345
757.020	0.0145193
757.098	0.0146364
757.176	0.0146511
757.254	0.0146206
757.332	0.0146097
757.410	0.0146555
757.488	0.0148324
757.567	0.0147415
757.645	0.0147507
757.723	0.0147210
757.801	0.0149747
757.879	0.0149850
757.957	0.0148116
758.035	0.0148919
758.113	0.0149364
758.192	0.0148920
758.270	0.0149120
758.348	0.0149627
758.426	0.0149107
758.504	0.0149516
758.582	0.0150121
758.660	0.0149668
758.738	0.0149098
758.817	0.0148512
758.895	0.0149215
758.973	0.0150954
759.051	0.0150149
759.129	0.0149577
759.207	0.0149403
759.285	0.0149958
759.363	0.0148972
759.442	0.0149083
759.520	0.0148620
759.598	0.0148816
759.676	0.0148809
759.754	0.0147948
759.832	0.0144969
759.910	0.0146582
759.988	0.0147335
760.067	0.0146046
760.145	0.0144373
760.223	0.0146968
760.301	0.0146050
760.379	0.0146572
760.457	0.0145303
760.535	0.0144928
760.613	0.0145972
760.692	0.0144998
760.770	0.0145053
760.848	0.0146589
760.926	0.0145473
761.004	0.0145895
761.082	0.0144115
761.160	0.0144059
761.238	0.0147404
761.317	0.0145702
761.395	0.0146054
761.473	0.0145107
761.551	0.0145873
761.629	0.0144240
761.707	0.0146458
761.785	0.0145396
761.863	0.0147009
761.942	0.0147517
762.020	0.0146980
762.098	0.0146632
762.176	0.0147462
762.254	0.0146192
762.332	0.0148258
762.410	0.0147700
762.488	0.0147414
762.567	0.0147893
762.645	0.0147591
762.723	0.0147659
762.801	0.0146893
762.879	0.0148642
762.957	0.0147385
763.035	0.0147645
763.113	0.0147236
763.192	0.0147790
763.270	0.0147396
763.348	0.0147015
763.426	0.0146285
763.504	0.0147806
763.582	0.0146874
763.660	0.0146195
763.738	0.0144721
763.817	0.0146244
763.895	0.0146573
763.973	0.0146213
764.051	0.0145726
764.129	0.0146138
764.207	0.0146153
764.285	0.0145533
764.363	0.0145744
764.442	0.0144416
764.520	0.0144673
764.598	0.0146702
764.676	0.0145278
764.754	0.0145615
764.832	0.0144171
764.910	0.0145820
764.988	0.0145601
765.067	0.0145567
765.145	0.0145203
765.223	0.0144605
765.301	0.0145274
765.379	0.0145042
765.457	0.0144598
765.535	0.0144519
765.613	0.0144215
765.692	0.0145962
765.770	0.0146107
765.848	0.0145722
765.926	0.0144350
766.004	0.0143653
766.082	0.0145914
766.160	0.0145165
766.238	0.0145378
766.317	0.0146062
766.395	0.0146262
766.473	0.0146768
766.551	0.0146010
766.629	0.0146637
766.707	0.0146097
766.785	0.0147060
766.863	0.0148476
766.942	0.0146391
767.020	0.0146447
767.098	0.0147183
767.176	0.0147833
767.254	0.0146762
767.332	0.0147221
767.410	0.0146584
767.488	0.0146723
767.567	0.0148246
767.645	0.0146243
767.723	0.0148237
767.801	0.0148765
767.879	0.0145869
767.957	0.0145023
768.035	0.0146965
768.113	0.0145340
768.192	0.0146163
768.270	0.0147012
768.348	0.0145480
768.426	0.0145355
768.504	0.0145542
768.582	0.0147281
768.660	0.0144602
768.738	0.0145103
768.817	0.0146297
768.895	0.0148100
768.973	0.0148208
769.051	0.0146702
769.129	0.0147742
769.207	0.0148077
769.285	0.0147447
769.363	0.0147705
769.442	0.0146478
769.520	0.0146239
769.598	0.0146561
769.676	0.0147466
769.754	0.0147016
769.832	0.0147640
769.910	0.0146769
769.988	0.0147430
770.067	0.0147535
770.145	0.0148418
770.223	0.0146484
770.301	0.0146459
770.379	0.0146357
770.457	0.0147291
770.535	0.0146928
770.613	0.0148590
770.692	0.0146931
770.770	0.0145737
770.848	0.0145912
770.926	0.0147160
771.004	0.0146414
771.082	0.0145898
771.160	0.0146547
771.238	0.0146716
771.317	0.0145601
771.395	0.0146975
771.473	0.0146497
771.551	0.0147459
771.629	0.0147356
771.707	0.0147018
771.785	0.0147059
771.863	0.0146810
771.942	0.0146609
772.020	0.0146255
772.098	0.0147361
772.176	0.0147610
772.254	0.0146584
772.332	0.0146909
772.410	0.0147124
772.488	0.0146981
772.567	0.0145785
772.645	0.0147321
772.723	0.0146793
772.801	0.0146842
772.879	0.0146674
772.957	0.0147211
773.035	0.0146622
773.113	0.0144144
773.192	0.0147073
773.270	0.0146068
773.348	0.0145119
773.426	0.0146348
773.504	0.0146291
773.582	0.0144237
773.660	0.0145192
773.738	0.0145549
773.817	0.0145866
773.895	0.0145525
773.973	0.0146462
774.051	0.0143807
774.129	0.0144740
774.207	0.0144263
774.285	0.0144371
774.363	0.0144997
774.442	0.0144245
774.520	0.0145573
774.598	0.0143634
774.676	0.0143980
774.754	0.0145796
774.832	0.0143208
774.910	0.0144722
774.988	0.0144039
775.067	0.0144560
775.145	0.0144319
775.223	0.0143359
775.301	0.0146034
775.379	0.0146368
775.457	0.0146114
775.535	0.0145837
775.613	0.0146306
775.692	0.0147451
775.770	0.0146363
775.848	0.0145042
775.926	0.0147860
776.004	0.0147678
776.082	0.0146428
776.160	0.0146161
776.238	0.0146813
776.317	0.0147360
776.395	0.0146326
776.473	0.0146419
776.551	0.0145173
776.629	0.0146463
776.707	0.0147189
776.785	0.0147431
776.863	0.0147436
776.942	0.0146455
777.020	0.0146127
777.098	0.0145786
777.176	0.0145892
777.254	0.0146214
777.332	0.0147390
777.410	0.0147202
777.488	0.0147195
777.567	0.0147028
777.645	0.0147342
777.723	0.0147922
777.801	0.0147066
777.879	0.0147379
777.957	0.0146491
778.035	0.0147337
778.113	0.0147111
778.192	0.0148444
778.270	0.0146513
778.348	0.0145973
778.426	0.0146947
778.504	0.0146214
778.582	0.0144345
778.660	0.0146910
778.738	0.0146060
778.817	0.0146563
778.895	0.0144974
778.973	0.0145806
779.051	0.0146835
779.129	0.0145680
779.207	0.0146049
779.285	0.0145943
779.363	0.0145911
779.442	0.0144919
779.520	0.0145693
779.598	0.0145798
779.676	0.0145509
779.754	0.0146472
779.832	0.0146774
779.910	0.0146932
779.988	0.0146254
780.067	0.0146653
780.145	0.0146365
780.223	0.0146435
780.301	0.0146542
780.379	0.0147199
780.457	0.0147245
780.535	0.0147563
780.613	0.0145694
780.692	0.0146733
780.770	0.0146169
780.848	0.0146359
780.926	0.0146944
781.004	0.0146820
781.082	0.0146835
781.160	0.0146471
781.238	0.0146582
781.317	0.0146422
781.395	0.0147258
781.473	0.0146185
781.551	0.0147560
781.629	0.0146423
781.707	0.0147587
781.785	0.0146873
781.863	0.0144978
781.942	0.0146281
782.020	0.0146899
782.098	0.0146976
782.176	0.0148562
782.254	0.0147144
782.332	0.0146996
782.410	0.0147968
782.488	0.0148209
782.567	0.0146763
782.645	0.0147897
782.723	0.0149940
782.801	0.0148736
782.879	0.0148485
782.957	0.0148656
783.035	0.0147950
783.113	0.0147785
783.192	0.0149016
783.270	0.0148344
783.348	0.0148939
783.426	0.0148737
783.504	0.0147570
783.582	0.0147649
783.660	0.0149692
783.738	0.0149034
783.817	0.0147208
783.895	0.0146564
783.973	0.0145911
784.051	0.0146866
784.129	0.0146590
784.207	0.0146973
784.285	0.0145634
784.363	0.0146762
784.442	0.0145048
784.520	0.0147164
784.598	0.0146624
784.676	0.0146571
784.754	0.0146256
784.832	0.0145126
784.910	0.0147545
784.988	0.0147176
785.067	0.0147614
785.145	0.0146600
785.223	0.0145968
785.301	0.0145388
785.379	0.0145018
785.457	0.0145683
785.535	0.0146577
785.613	0.0145359
785.692	0.0145578
785.770	0.0145850
785.848	0.0145282
785.926	0.0145575
786.004	0.0146010
786.082	0.0145947
786.160	0.0145653
786.238	0.0145609
786.317	0.0145953
786.395	0.0145885
786.473	0.0145235
786.551	0.0145788
786.629	0.0146498
786.707	0.0146863
786.785	0.0144806
786.863	0.0145946
786.942	0.0143636
787.020	0.0145613
787.098	0.0145295
787.176	0.0144283
787.254	0.0145409
787.332	0.0145774
787.410	0.0144183
787.488	0.0143850
787.567	0.0145389
787.645	0.0145351
787.723	0.0144441
787.801	0.0144211
787.879	0.0145607
787.957	0.0145210
788.035	0.0144575
788.113	0.0145377
788.192	0.0145751
788.270	0.0145453
788.348	0.0144690
788.426	0.0143227
788.504	0.0145632
788.582	0.0146050
788.660	0.0144545
788.738	0.0143007
788.817	0.0143998
788.895	0.0143293
788.973	0.0143407
789.051	0.0144935
789.129	0.0143251
789.207	0.0145673
789.285	0.0144421
789.363	0.0144377
789.442	0.0143336
789.520	0.0145014
789.598	0.0144453
789.676	0.0144029
789.754	0.0144355
789.832	0.0147311
789.910	0.0145226
789.988	0.0146329
790.067	0.0145176
790.145	0.0144434
790.223	0.0145065
790.301	0.0145559
790.379	0.0145409
790.457	0.0146291
790.535	0.0146827
790.613	0.0146750
790.692	0.0144410
790.770	0.0145414
790.848	0.0147202
790.926	0.0145743
791.004	0.0144949
791.082	0.0145260
791.160	0.0145946
791.238	0.0145798
791.317	0.0145241
791.395	0.0144675
791.473	0.0145679
791.551	0.0145229
791.629	0.0145607
791.707	0.0146016
791.785	0.0145655
791.863	0.0146007
791.942	0.0146114
792.020	0.0146579
792.098	0.0144913
792.176	0.0144520
792.254	0.0145699
792.332	0.0147823
792.410	0.0145100
792.488	0.0143838
792.567	0.0146446
792.645	0.0144962
792.723	0.0143648
792.801	0.0143630
792.879	0.0145438
792.957	0.0145411
793.035	0.0145338
793.113	0.0145109
793.192	0.0145551
793.270	0.0145474
793.348	0.0144437
793.426	0.0145899
793.504	0.0146912
793.582	0.0146040
793.660	0.0145394
793.738	0.0144878
793.817	0.0143745
793.895	0.0144371
793.973	0.0145592
794.051	0.0146140
794.129	0.0144533
794.207	0.0145191
794.285	0.0144123
794.363	0.0144933
794.442	0.0144466
794.520	0.0145644
794.598	0.0146385
794.676	0.0146545
794.754	0.0145055
794.832	0.0146666
794.910	0.0147021
794.988	0.0144393
795.067	0.0145608
795.145	0.0146037
795.223	0.0147210
795.301	0.0147749
795.379	0.0147448
795.457	0.0147330
795.535	0.0147235
795.613	0.0148582
795.692	0.0147903
795.770	0.0146413
795.848	0.0146505
795.926	0.0147964
796.004	0.0146944
796.082	0.0146190
796.160	0.0147796
796.238	0.0147919
796.317	0.0146480
796.395	0.0146599
796.473	0.0146196
796.551	0.0145887
796.629	0.0145757
796.707	0.0145673
796.785	0.0145861
796.863	0.0146082
796.942	0.0146659
797.020	0.0145052
797.098	0.0144102
797.176	0.0143083
797.254	0.0144953
797.332	0.0145718
797.410	0.0144057
797.488	0.0143330
797.567	0.0145131
797.645	0.0144250
797.723	0.0144189
797.801	0.0145261
797.879	0.0144665
797.957	0.0145152
798.035	0.0144384
798.113	0.0145848
798.192	0.0144838
798.270	0.0145385
798.348	0.0146941
798.426	0.0146405
798.504	0.0146177
798.582	0.0145885
798.660	0.0147506
798.738	0.0148479
798.817	0.0148253
798.895	0.0148344
798.973	0.0145818
799.051	0.0146759
799.129	0.0147610
799.207	0.0147770
799.285	0.0147151
799.363	0.0146941
799.442	0.0147235
799.520	0.0147787
799.598	0.0146733
799.676	0.0146877
799.754	0.0146507
799.832	0.0145818
799.910	0.0146693
799.988	0.0148390
800.067	0.0147605
800.145	0.0147068
800.223	0.0147163
800.301	0.0147330
800.379	0.0146239
800.457	0.0146850
800.535	0.0147664
800.613	0.0148300
800.692	0.0147112
800.770	0.0145953
800.848	0.0148293
800.926	0.0148209
801.004	0.0148134
801.082	0.0147838
801.160	0.0147671
801.238	0.0147046
801.317	0.0146130
801.395	0.0146457
801.473	0.0148320
801.551	0.0147803
801.629	0.0147684
801.707	0.0147127
801.785	0.0147913
801.863	0.0146851
801.942	0.0146701
802.020	0.0146959
802.098	0.0147018
802.176	0.0147711
802.254	0.0147140
802.332	0.0145860
802.410	0.0146680
802.488	0.0146663
802.567	0.0146027
802.645	0.0145547
802.723	0.0145868
802.801	0.0146893
802.879	0.0145483
802.957	0.0146416
803.035	0.0145308
803.113	0.0146976
803.192	0.0147340
803.270	0.0145118
803.348	0.0146152
803.426	0.0149231
803.504	0.0147800
803.582	0.0147502
803.660	0.0147260
803.738	0.0146630
803.817	0.0148928
803.895	0.0149133
803.973	0.0147974
804.051	0.0149023
804.129	0.0148990
804.207	0.0148468
804.285	0.0149139
804.363	0.0148927
804.442	0.0149002
804.520	0.0149252
804.598	0.0148886
804.676	0.0148999
804.754	0.0148988
804.832	0.0146548
804.910	0.0148741
804.988	0.0149600
805.067	0.0149068
805.145	0.0148695
805.223	0.0147482
805.301	0.0148354
805.379	0.0149293
805.457	0.0149236
805.535	0.0147882
805.613	0.0146558
805.692	0.0147169
805.770	0.0147794
805.848	0.0146526
805.926	0.0147553
806.004	0.0147425
806.082	0.0147003
806.160	0.0148301
806.238	0.0147208
806.317	0.0147312
806.395	0.0148576
806.473	0.0148265
806.551	0.0147478
806.629	0.0148730
806.707	0.0148564
806.785	0.0147844
806.863	0.0147223
806.942	0.0148769
807.020	0.0147699
807.098	0.0148137
807.176	0.0147276
807.254	0.0146796
807.332	0.0147047
807.410	0.0147655
807.488	0.0145696
807.567	0.0145231
807.645	0.0145710
807.723	0.0146046
807.801	0.0145541
807.879	0.0144493
807.957	0.0145433
808.035	0.0145190
808.113	0.0143762
808.192	0.0145075
808.270	0.0143304
808.348	0.0144387
808.426	0.0145303
808.504	0.0144058
808.582	0.0144122
808.660	0.0144059
808.738	0.0144084
808.817	0.0144421
808.895	0.0144760
808.973	0.0144514
809.051	0.0145182
809.129	0.0144295
809.207	0.0143963
809.285	0.0144890
809.363	0.0144149
809.442	0.0146298
809.520	0.0145164
809.598	0.0146054
809.676	0.0145289
809.754	0.0146536
809.832	0.0145883
809.910	0.0146874
809.988	0.0146378
810.067	0.0146504
810.145	0.0147188
810.223	0.0146053
810.301	0.0145979
810.379	0.0146790
810.457	0.0144698
810.535	0.0145539
810.613	0.0147573
810.692	0.0146941
810.770	0.0147446
810.848	0.0145914
810.926	0.0145246
811.004	0.0145100
811.082	0.0145422
811.160	0.0145718
811.238	0.0146018
811.317	0.0146081
811.395	0.0145720
811.473	0.0145827
811.551	0.0146059
811.629	0.0146811
811.707	0.0145375
811.785	0.0145582
811.863	0.0146162
811.942	0.0146178
812.020	0.0144891
812.098	0.0146075
812.176	0.0145576
812.254	0.0147265
812.332	0.0145831
812.410	0.0145928
812.488	0.0145325
812.567	0.0146226
812.645	0.0147089
812.723	0.0146300
812.801	0.0145202
812.879	0.0145830
812.957	0.0146441
813.035	0.0146995
813.113	0.0146198
813.192	0.0146408
813.270	0.0147503
813.348	0.0146320
813.426	0.0147372
813.504	0.0145255
813.582	0.0144984
813.660	0.0145969
813.738	0.0146540
813.817	0.0146673
813.895	0.0145940
813.973	0.0146902
814.051	0.0146832
814.129	0.0146137
814.207	0.0146616
814.285	0.0146970
814.363	0.0145793
814.442	0.0146298
814.520	0.0146584
814.598	0.0147108
814.676	0.0146856
814.754	0.0145434
814.832	0.0144345
814.910	0.0145223
814.988	0.0147623
815.067	0.0144657
815.145	0.0146532
815.223	0.0147003
815.301	0.0147255
815.379	0.0146674
815.457	0.0147570
815.535	0.0146216
815.613	0.0146693
815.692	0.0146252
815.770	0.0147092
815.848	0.0146180
815.926	0.0146445
816.004	0.0145922
816.082	0.0145139
816.160	0.0146378
816.238	0.0144865
816.317	0.0146114
816.395	0.0145975
816.473	0.0145371
816.551	0.0146034
816.629	0.0145760
816.707	0.0145128
816.785	0.0146063
816.863	0.0143975
816.942	0.0144101
817.020	0.0144512
817.098	0.0146041
817.176	0.0144796
817.254	0.0145685
817.332	0.0146043
817.410	0.0145332
817.488	0.0145205
817.567	0.0145602
817.645	0.0145242
817.723	0.0145454
817.801	0.0147785
817.879	0.0145925
817.957	0.0145562
818.035	0.0145655
818.113	0.0146650
818.192	0.0143721
818.270	0.0145856
818.348	0.0146355
818.426	0.0145345
818.504	0.0145195
818.582	0.0146259
818.660	0.0146372
818.738	0.0146928
818.817	0.0145959
818.895	0.0144495
818.973	0.0145445
819.051	0.0145084
819.129	0.0145673
819.207	0.0144392
819.285	0.0144312
819.363	0.0145840
819.442	0.0144591
819.520	0.0144067
819.598	0.0144860
819.676	0.0146916
819.754	0.0145557
819.832	0.0146343
819.910	0.0146983
819.988	0.0147212
820.067	0.0145964
820.145	0.0145428
820.223	0.0145715
820.301	0.0145669
820.379	0.0147646
820.457	0.0148458
820.535	0.0148061
820.613	0.0148459
820.692	0.0148595
820.770	0.0148502
820.848	0.0150026
820.926	0.0147125
821.004	0.0148132
821.082	0.0148571
821.160	0.0149618
821.238	0.0149354
821.317	0.0148470
821.395	0.0147749
821.473	0.0148843
821.551	0.0148731
821.629	0.0147933
821.707	0.0148768
821.785	0.0149316
821.863	0.0149029
821.942	0.0149683
822.020	0.0148326
822.098	0.0148047
822.176	0.0148298
822.254	0.0148104
822.332	0.0148348
822.410	0.0150024
822.488	0.0148890
822.567	0.0149371
822.645	0.0148112
822.723	0.0147404
822.801	0.0148373
822.879	0.0149026
822.957	0.0149416
823.035	0.0149110
823.113	0.0148653
823.192	0.0147719
823.270	0.0149229
823.348	0.0150256
823.426	0.0149451
823.504	0.0147590
823.582	0.0146614
823.660	0.0148112
823.738	0.0146989
823.817	0.0147307
823.895	0.0147102
823.973	0.0146383
824.051	0.0146404
824.129	0.0146541
824.207	0.0146658
824.285	0.0145453
824.363	0.0146519
824.442	0.0147559
824.520	0.0145772
824.598	0.0144531
824.676	0.0146100
824.754	0.0146158
824.832	0.0145129
824.910	0.0145168
824.988	0.0144496
825.067	0.0146599
825.145	0.0146208
825.223	0.0146053
825.301	0.0144751
825.379	0.0146960
825.457	0.0146582
825.535	0.0145196
825.613	0.0145939
825.692	0.0146303
825.770	0.0146323
825.848	0.0146472
825.926	0.0146918
826.004	0.0146638
826.082	0.0146426
826.160	0.0148351
826.238	0.0146487
826.317	0.0147519
826.395	0.0146489
826.473	0.0146530
826.551	0.0147338
826.629	0.0146726
826.707	0.0146951
826.785	0.0147626
826.863	0.0147287
826.942	0.0146956
827.020	0.0146690
827.098	0.0147968
827.176	0.0146079
827.254	0.0146584
827.332	0.0147341
827.410	0.0148862
827.488	0.0146664
827.567	0.0143800
827.645	0.0145508
827.723	0.0148035
827.801	0.0145494
827.879	0.0147231
827.957	0.0146497
828.035	0.0145791
828.113	0.0146067
828.192	0.0146742
828.270	0.0147164
828.348	0.0147382
828.426	0.0146477
828.504	0.0147713
828.582	0.0145542
828.660	0.0147055
828.738	0.0146341
828.817	0.0145432
828.895	0.0146974
828.973	0.0147356
829.051	0.0146334
829.129	0.0145223
829.207	0.0147068
829.285	0.0147472
829.363	0.0146006
829.442	0.0146677
829.520	0.0147542
829.598	0.0147053
829.676	0.0146887
829.754	0.0148135
829.832	0.0146310
829.910	0.0147205
829.988	0.0147067
830.067	0.0146690
830.145	0.0148902
830.223	0.0147658
830.301	0.0148139
830.379	0.0148396
830.457	0.0147363
830.535	0.0147534
830.613	0.0148080
830.692	0.0147727
830.770	0.0146513
830.848	0.0147062
830.926	0.0146510
831.004	0.0148183
831.082	0.0147838
831.160	0.0147269
831.238	0.0147162
831.317	0.0148370
831.395	0.0147838
831.473	0.0147232
831.551	0.0147456
831.629	0.0147628
831.707	0.0147272
831.785	0.0147018
831.863	0.0147215
831.942	0.0148002
832.020	0.0147925
832.098	0.0148679
832.176	0.0147654
832.254	0.0146857
832.332	0.0148875
832.410	0.0147524
832.488	0.0147371
832.567	0.0147427
832.645	0.0148204
832.723	0.0147168
832.801	0.0148618
832.879	0.0146777
832.957	0.0145950
833.035	0.0146314
833.113	0.0147169
833.192	0.0146109
833.270	0.0145766
833.348	0.0146606
833.426	0.0146439
833.504	0.0147280
833.582	0.0147279
833.660	0.0145111
833.738	0.0145986
833.817	0.0147369
833.895	0.0147083
833.973	0.0146056
834.051	0.0146194
834.129	0.0145815
834.207	0.0148016
834.285	0.0147298
834.363	0.0146954
834.442	0.0147410
834.520	0.0146803
834.598	0.0148822
834.676	0.0147839
834.754	0.0144839
834.832	0.0146841
834.910	0.0146103
834.988	0.0146220
835.067	0.0146864
835.145	0.0147117
835.223	0.0147255
835.301	0.0148445
835.379	0.0146449
835.457	0.0146265
835.535	0.0146773
835.613	0.0146548
835.692	0.0146506
835.770	0.0146951
835.848	0.0146463
835.926	0.0146049
836.004	0.0147041
836.082	0.0146998
836.160	0.0147507
836.238	0.0148293
836.317	0.0146352
836.395	0.0147005
836.473	0.0147830
836.551	0.0147084
836.629	0.0147350
836.707	0.0146353
836.785	0.0146585
836.863	0.0147894
836.942	0.0147834
837.020	0.0147593
837.098	0.0146549
837.176	0.0146832
837.254	0.0148219
837.332	0.0148303
837.410	0.0149187
837.488	0.0149671
837.567	0.0148837
837.645	0.0149066
837.723	0.0148235
837.801	0.0150062
837.879	0.0148548
837.957	0.0149145
838.035	0.0148094
838.113	0.0149796
838.192	0.0147938
838.270	0.0149606
838.348	0.0149877
838.426	0.0148109
838.504	0.0148927
838.582	0.0148066
838.660	0.0148840
838.738	0.0149196
838.817	0.0147398
838.895	0.0148155
838.973	0.0149052
839.051	0.0147234
839.129	0.0147449
839.207	0.0147211
839.285	0.0148045
839.363	0.0149511
839.442	0.0146361
839.520	0.0146836
839.598	0.0147479
839.676	0.0145950
839.754	0.0147794
839.832	0.0147689
839.910	0.0147585
839.988	0.0147388
840.067	0.0146873
840.145	0.0147231
840.223	0.0146399
840.301	0.0145540
840.379	0.0145171
840.457	0.0145065
840.535	0.0146358
840.613	0.0146146
840.692	0.0146092
840.770	0.0145208
840.848	0.0146711
840.926	0.0145729
841.004	0.0146196
841.082	0.0145809
841.160	0.0146310
841.238	0.0145955
841.317	0.0145729
841.395	0.0144708
841.473	0.0146601
841.551	0.0146697
841.629	0.0145930
841.707	0.0145525
841.785	0.0145689
841.863	0.0147566
841.942	0.0147195
842.020	0.0145981
842.098	0.0145226
842.176	0.0145605
842.254	0.0145473
842.332	0.0145692
842.410	0.0147030
842.488	0.0148402
842.567	0.0146997
842.645	0.0147565
842.723	0.0146402
842.801	0.0147002
842.879	0.0147488
842.957	0.0146191
843.035	0.0145160
843.113	0.0146454
843.192	0.0148219
843.270	0.0146333
843.348	0.0144994
843.426	0.0146817
843.504	0.0145940
843.582	0.0145759
843.660	0.0145736
843.738	0.0146608
843.817	0.0145697
843.895	0.0145646
843.973	0.0146012
844.051	0.0145713
844.129	0.0147067
844.207	0.0146642
844.285	0.0147626
844.363	0.0146053
844.442	0.0146551
844.520	0.0147028
844.598	0.0145808
844.676	0.0145743
844.754	0.0146237
844.832	0.0146474
844.910	0.0146082
844.988	0.0144734
845.067	0.0145642
845.145	0.0147240
845.223	0.0146011
845.301	0.0145348
845.379	0.0146075
845.457	0.0145518
845.535	0.0147005
845.613	0.0147684
845.692	0.0146770
845.770	0.0144897
845.848	0.0146080
845.926	0.0148118
846.004	0.0147052
846.082	0.0145728
846.160	0.0146923
846.238	0.0148237
846.317	0.0146474
846.395	0.0147782
846.473	0.0147187
846.551	0.0147262
846.629	0.0148045
846.707	0.0146173
846.785	0.0147192
846.863	0.0147373
846.942	0.0147935
847.020	0.0147859
847.098	0.0146419
847.176	0.0147228
847.254	0.0147621
847.332	0.0147683
847.410	0.0147411
847.488	0.0146962
847.567	0.0146935
847.645	0.0146653
847.723	0.0147568
847.801	0.0147927
847.879	0.0149616
847.957	0.0147945
848.035	0.0147787
848.113	0.0148546
848.192	0.0148668
848.270	0.0147211
848.348	0.0147131
848.426	0.0147375
848.504	0.0147423
848.582	0.0147128
848.660	0.0148775
848.738	0.0148566
848.817	0.0148892
848.895	0.0148227
848.973	0.0149294
849.051	0.0147878
849.129	0.0148508
849.207	0.0148460
849.285	0.0148901
849.363	0.0149471
849.442	0.0149285
849.520	0.0147955
849.598	0.0149185
849.676	0.0148947
849.754	0.0149286
849.832	0.0148083
849.910	0.0148312
849.988	0.0148393
850.067	0.0147868
850.145	0.0148048
850.223	0.0148767
850.301	0.0147841
850.379	0.0147198
850.457	0.0147182
850.535	0.0146392
850.613	0.0146648
850.692	0.0147104
850.770	0.0147414
850.848	0.0147661
850.926	0.0146363
851.004	0.0147886
851.082	0.0146953
851.160	0.0146419
851.238	0.0145049
851.317	0.0145912
851.395	0.0146107
851.473	0.0146007
851.551	0.0145609
851.629	0.0146151
851.707	0.0146904
851.785	0.0145943
851.863	0.0146678
851.942	0.0146758
852.020	0.0144288
852.098	0.0145373
852.176	0.0145341
852.254	0.0145728
852.332	0.0145804
852.410	0.0147518
852.488	0.0146589
852.567	0.0146195
852.645	0.0144270
852.723	0.0145535
852.801	0.0143530
852.879	0.0145878
852.957	0.0146733
853.035	0.0145130
853.113	0.0144831
853.192	0.0144542
853.270	0.0144940
853.348	0.0145641
853.426	0.0145605
853.504	0.0144669
853.582	0.0145387
853.660	0.0144875
853.738	0.0144667
853.817	0.0143431
853.895	0.0144609
853.973	0.0143226
854.051	0.0144867
854.129	0.0143565
854.207	0.0142847
854.285	0.0145551
854.363	0.0145220
854.442	0.0142872
854.520	0.0144582
854.598	0.0145206
854.676	0.0143825
854.754	0.0144743
854.832	0.0144010
854.910	0.0144277
854.988	0.0144661
855.067	0.0144640
855.145	0.0145204
855.223	0.0144722
855.301	0.0145084
855.379	0.0144915
855.457	0.0143880
855.535	0.0145878
855.613	0.0145554
855.692	0.0144127
855.770	0.0144822
855.848	0.0145722
855.926	0.0146087
856.004	0.0144845
856.082	0.0146598
856.160	0.0145618
856.238	0.0147073
856.317	0.0145764
856.395	0.0144640
856.473	0.0146776
856.551	0.0146825
856.629	0.0146604
856.707	0.0145399
856.785	0.0145227
856.863	0.0146244
856.942	0.0145940
857.020	0.0146305
857.098	0.0146251
857.176	0.0147034
857.254	0.0146684
857.332	0.0145988
857.410	0.0144579
857.488	0.0145686
857.567	0.0145420
857.645	0.0148692
857.723	0.0147090
857.801	0.0147057
857.879	0.0147677
857.957	0.0148555
858.035	0.0147300
858.113	0.0147815
858.192	0.0146921
858.270	0.0147820
858.348	0.0147293
858.426	0.0148080
858.504	0.0149191
858.582	0.0147765
858.660	0.0147283
858.738	0.0148121
858.817	0.0148138
858.895	0.0148077
858.973	0.0148970
859.051	0.0148526
859.129	0.0148022
859.207	0.0149848
859.285	0.0149834
859.363	0.0149087
859.442	0.0148766
859.520	0.0148563
859.598	0.0147749
859.676	0.0149270
859.754	0.0149226
859.832	0.0149873
859.910	0.0148621
859.988	0.0149148
860.067	0.0148557
860.145	0.0147616
860.223	0.0147771
860.301	0.0148022
860.379	0.0148820
860.457	0.0147877
860.535	0.0147467
860.613	0.0147816
860.692	0.0149078
860.770	0.0147662
860.848	0.0146937
860.926	0.0146635
861.004	0.0148371
861.082	0.0149364
861.160	0.0147734
861.238	0.0148158
861.317	0.0149107
861.395	0.0149396
861.473	0.0148502
861.551	0.0149819
861.629	0.0148521
861.707	0.0149338
861.785	0.0148952
861.863	0.0149036
861.942	0.0150018
862.020	0.0148209
862.098	0.0148938
862.176	0.0147991
862.254	0.0149265
862.332	0.0149486
862.410	0.0147872
862.488	0.0145915
862.567	0.0147589
862.645	0.0147821
862.723	0.0148464
862.801	0.0148605
862.879	0.0147628
862.957	0.0148133
863.035	0.0148246
863.113	0.0148865
863.192	0.0146779
863.270	0.0146352
863.348	0.0149088
863.426	0.0147662
863.504	0.0147485
863.582	0.0147042
863.660	0.0146969
863.738	0.0148406
863.817	0.0147764
863.895	0.0147646
863.973	0.0146435
864.051	0.0145959
864.129	0.0147289
864.207	0.0146115
864.285	0.0145706
864.363	0.0145956
864.442	0.0147447
864.520	0.0147475
864.598	0.0147011
864.676	0.0146299
864.754	0.0147308
864.832	0.0147013
864.910	0.0146156
864.988	0.0146447
865.067	0.0145978
865.145	0.0146047
865.223	0.0145732
865.301	0.0144791
865.379	0.0144986
865.457	0.0146277
865.535	0.0145341
865.613	0.0145483
865.692	0.0145148
865.770	0.0143771
865.848	0.0146066
865.926	0.0145319
866.004	0.0144009
866.082	0.0144690
866.160	0.0146336
866.238	0.0145379
866.317	0.0145296
866.395	0.0144992
866.473	0.0145781
866.551	0.0145383
866.629	0.0145751
866.707	0.0146156
866.785	0.0144764
866.863	0.0145840
866.942	0.0146357
867.020	0.0144977
867.098	0.0145248
867.176	0.0145663
867.254	0.0145377
867.332	0.0146329
867.410	0.0147468
867.488	0.0146638
867.567	0.0146239
867.645	0.0145621
867.723	0.0145734
867.801	0.0146204
867.879	0.0147768
867.957	0.0147973
868.035	0.0147343
868.113	0.0145904
868.192	0.0145496
868.270	0.0146588
868.348	0.0146054
868.426	0.0145579
868.504	0.0146717
868.582	0.0145671
868.660	0.0145594
868.738	0.0144837
868.817	0.0146048
868.895	0.0146134
868.973	0.0146045
869.051	0.0146168
869.129	0.0146111
869.207	0.0144904
869.285	0.0144492
869.363	0.0145770
869.442	0.0145160
869.520	0.0145342
869.598	0.0145917
869.676	0.0145580
869.754	0.0146439
869.832	0.0147025
869.910	0.0146878
869.988	0.0145770
870.067	0.0145634
870.145	0.0146186
870.223	0.0146357
870.301	0.0144816
870.379	0.0145184
870.457	0.0146075
870.535	0.0146056
870.613	0.0145341
870.692	0.0145366
870.770	0.0145595
870.848	0.0147005
870.926	0.0146901
871.004	0.0145723
871.082	0.0144834
871.160	0.0143200
871.238	0.0146166
871.317	0.0145097
871.395	0.0145267
871.473	0.0146117
871.551	0.0145898
871.629	0.0145377
871.707	0.0144566
871.785	0.0145973
871.863	0.0145036
871.942	0.0146169
872.020	0.0146234
872.098	0.0145681
872.176	0.0144881
872.254	0.0146807
872.332	0.0145369
872.410	0.0144688
872.488	0.0146198
872.567	0.0145431
872.645	0.0144549
872.723	0.0144849
872.801	0.0145292
872.879	0.0145229
872.957	0.0146073
873.035	0.0144310
873.113	0.0145444
873.192	0.0144894
873.270	0.0145453
873.348	0.0146213
873.426	0.0145096
873.504	0.0145975
873.582	0.0145442
873.660	0.0144635
873.738	0.0147017
873.817	0.0145758
873.895	0.0145172
873.973	0.0145485
874.051	0.0145181
874.129	0.0145310
874.207	0.0145667
874.285	0.0145647
874.363	0.0146285
874.442	0.0143987
874.520	0.0144466
874.598	0.0146542
874.676	0.0146903
874.754	0.0145892
874.832	0.0144160
874.910	0.0143652
874.988	0.0144312
875.067	0.0144987
875.145	0.0143942
875.223	0.0144958
875.301	0.0144982
875.379	0.0144730
875.457	0.0145135
875.535	0.0144088
875.613	0.0143964
875.692	0.0144158
875.770	0.0144728
875.848	0.0144169
875.926	0.0144726
876.004	0.0144502
876.082	0.0143652
876.160	0.0143192
876.238	0.0144791
876.317	0.0144103
876.395	0.0143779
876.473	0.0144313
876.551	0.0143902
876.629	0.0144476
876.707	0.0145306
876.785	0.0145557
876.863	0.0146832
876.942	0.0145834
877.020	0.0145657
877.098	0.0146662
877.176	0.0145473
877.254	0.0145235
877.332	0.0146973
877.410	0.0145999
877.488	0.0145601
877.567	0.0146844
877.645	0.0145890
877.723	0.0146635
877.801	0.0146661
877.879	0.0145187
877.957	0.0144614
878.035	0.0148898
878.113	0.0145497
878.192	0.0144316
878.270	0.0146339
878.348	0.0147214
878.426	0.0144945
878.504	0.0145131
878.582	0.0146146
878.660	0.0146215
878.738	0.0146481
878.817	0.0146362
878.895	0.0146732
878.973	0.0145707
879.051	0.0144823
879.129	0.0147077
879.207	0.0146609
879.285	0.0144374
879.363	0.0145074
879.442	0.0146362
879.520	0.0147049
879.598	0.0145555
879.676	0.0144992
879.754	0.0146939
879.832	0.0145905
879.910	0.0146463
879.988	0.0145178
880.067	0.0146975
880.145	0.0146247
880.223	0.0146796
880.301	0.0145687
880.379	0.0146783
880.457	0.0145896
880.535	0.0145506
880.613	0.0145756
880.692	0.0144832
880.770	0.0146430
880.848	0.0147830
880.926	0.0146605
881.004	0.0145291
881.082	0.0144848
881.160	0.0146439
881.238	0.0145602
881.317	0.0146131
881.395	0.0147194
881.473	0.0148067
881.551	0.0146642
881.629	0.0146736
881.707	0.0145750
881.785	0.0147737
881.863	0.0147009
881.942	0.0147173
882.020	0.0147477
882.098	0.0147861
882.176	0.0147740
882.254	0.0148003
882.332	0.0149365
882.410	0.0147464
882.488	0.0147720
882.567	0.0147013
882.645	0.0146980
882.723	0.0147498
882.801	0.0146786
882.879	0.0147659
882.957	0.0147544
883.035	0.0147172
883.113	0.0146811
883.192	0.0147829
883.270	0.0146024
883.348	0.0145792
883.426	0.0145989
883.504	0.0146395
883.582	0.0144937
883.660	0.0144889
883.738	0.0145982
883.817	0.0146087
883.895	0.0145050
883.973	0.0145454
884.051	0.0146473
884.129	0.0146508
884.207	0.0145193
884.285	0.0146074
884.363	0.0145049
884.442	0.0146397
884.520	0.0145272
884.598	0.0144987
884.676	0.0145202
884.754	0.0145849
884.832	0.0144121
884.910	0.0145405
884.988	0.0145818
885.067	0.0144905
885.145	0.0144860
885.223	0.0145393
885.301	0.0144862
885.379	0.0145870
885.457	0.0145895
885.535	0.0145895
885.613	0.0146537
885.692	0.0146490
885.770	0.0145683
885.848	0.0145885
885.926	0.0146019
886.004	0.0147336
886.082	0.0145665
886.160	0.0145523
886.238	0.0145942
886.317	0.0145908
886.395	0.0145752
886.473	0.0145844
886.551	0.0145463
886.629	0.0145932
886.707	0.0146078
886.785	0.0147015
886.863	0.0146422
886.942	0.0146536
887.020	0.0145199
887.098	0.0145865
887.176	0.0146763
887.254	0.0146349
887.332	0.0146805
887.410	0.0145846
887.488	0.0147063
887.567	0.0146413
887.645	0.0146865
887.723	0.0146596
887.801	0.0145639
887.879	0.0145763
887.957	0.0146456
888.035	0.0147600
888.113	0.0147585
888.192	0.0146719
888.270	0.0146326
888.348	0.0146241
888.426	0.0146287
888.504	0.0146929
888.582	0.0145921
888.660	0.0146968
888.738	0.0146899
888.817	0.0147106
888.895	0.0146632
888.973	0.0147678
889.051	0.0147446
889.129	0.0145817
889.207	0.0145495
889.285	0.0147654
889.363	0.0145526
889.442	0.0147032
889.520	0.0147173
889.598	0.0145866
889.676	0.0146356
889.754	0.0146843
889.832	0.0145836
889.910	0.0147231
889.988	0.0146243
890.067	0.0147221
890.145	0.0147360
890.223	0.0148085
890.301	0.0147465
890.379	0.0147021
890.457	0.0146336
890.535	0.0148547
890.613	0.0147904
890.692	0.0147837
890.770	0.0147255
890.848	0.0147515
890.926	0.0147716
891.004	0.0146929
891.082	0.0147765
891.160	0.0148508
891.238	0.0147324
891.317	0.0147810
891.395	0.0148917
891.473	0.0147431
891.551	0.0147417
891.629	0.0147863
891.707	0.0147251
891.785	0.0147492
891.863	0.0148518
891.942	0.0147056
892.020	0.0146835
892.098	0.0149277
892.176	0.0147301
892.254	0.0147435
892.332	0.0148384
892.410	0.0146645
892.488	0.0148173
892.567	0.0146256
892.645	0.0148069
892.723	0.0147361
892.801	0.0147090
892.879	0.0147388
892.957	0.0146397
893.035	0.0147661
893.113	0.0148129
893.192	0.0147555
893.270	0.0147036
893.348	0.0146625
893.426	0.0147090
893.504	0.0146503
893.582	0.0147568
893.660	0.0147675
893.738	0.0146188
893.817	0.0147664
893.895	0.0146600
893.973	0.0145102
894.051	0.0145815
894.129	0.0147623
894.207	0.0146614
894.285	0.0145939
894.363	0.0145036
894.442	0.0146186
894.520	0.0145456
894.598	0.0146535
894.676	0.0146341
894.754	0.0145696
894.832	0.0146574
894.910	0.0145467
894.988	0.0146067
895.067	0.0145626
895.145	0.0145666
895.223	0.0146550
895.301	0.0145527
895.379	0.0144994
895.457	0.0145359
895.535	0.0146078
895.613	0.0144051
895.692	0.0145131
895.770	0.0145548
895.848	0.0145499
895.926	0.0146613
896.004	0.0144545
896.082	0.0143719
896.160	0.0144588
896.238	0.0145219
896.317	0.0144208
896.395	0.0145210
896.473	0.0145144
896.551	0.0144623
896.629	0.0145134
896.707	0.0144563
896.785	0.0145562
896.863	0.0145416
896.942	0.0144623
897.020	0.0144956
897.098	0.0143353
897.176	0.0144040
897.254	0.0144018
897.332	0.0144406
897.410	0.0143261
897.488	0.0144316
897.567	0.0144484
897.645	0.0144906
897.723	0.0143471
897.801	0.0143230
897.879	0.0142383
897.957	0.0143455
898.035	0.0144338
898.113	0.0142866
898.192	0.0144012
898.270	0.0143753
898.348	0.0143253
898.426	0.0143378
898.504	0.0144421
898.582	0.0143308
898.660	0.0141695
898.738	0.0143044
898.817	0.0142387
898.895	0.0143163
898.973	0.0144023
899.051	0.0144212
899.129	0.0145209
899.207	0.0143662
899.285	0.0143690
899.363	0.0144595
899.442	0.0145226
899.520	0.0144710
899.598	0.0145027
899.676	0.0146152
899.754	0.0146381
899.832	0.0146049
899.910	0.0146333
899.988	0.0145766
900.067	0.0147359
900.145	0.0146388
900.223	0.0146751
900.301	0.0146625
900.379	0.0146207
900.457	0.0147534
900.535	0.0148155
900.613	0.0147731
900.692	0.0147397
900.770	0.0148803
900.848	0.0147413
900.926	0.0147304
901.004	0.0147881
901.082	0.0147549
901.160	0.0146482
901.238	0.0146005
901.317	0.0147501
901.395	0.0148273
901.473	0.0147414
901.551	0.0147337
901.629	0.0148549
901.707	0.0150051
901.785	0.0148824
901.863	0.0146710
901.942	0.0147691
902.020	0.0149625
902.098	0.0148820
902.176	0.0147044
902.254	0.0147357
902.332	0.0146912
902.410	0.0147970
902.488	0.0148082
902.567	0.0147932
902.645	0.0146886
902.723	0.0147463
902.801	0.0147149
902.879	0.0147361
902.957	0.0146844
903.035	0.0146425
903.113	0.0147727
903.192	0.0146584
903.270	0.0146644
903.348	0.0146230
903.426	0.0145860
903.504	0.0146445
903.582	0.0144854
903.660	0.0146148
903.738	0.0147250
903.817	0.0146402
903.895	0.0146082
903.973	0.0144803
904.051	0.0147004
904.129	0.0147185
904.207	0.0146426
904.285	0.0145995
904.363	0.0145009
904.442	0.0146597
904.520	0.0147327
904.598	0.0145797
904.676	0.0147425
904.754	0.0146618
904.832	0.0146218
904.910	0.0147655
904.988	0.0144912
905.067	0.0146104
905.145	0.0145879
905.223	0.0144896
905.301	0.0145652
905.379	0.0146375
905.457	0.0145148
905.535	0.0147269
905.613	0.0147192
905.692	0.0147651
905.770	0.0147267
905.848	0.0146455
905.926	0.0146609
906.004	0.0146258
906.082	0.0144992
906.160	0.0145907
906.238	0.0145943
906.317	0.0146812
906.395	0.0146999
906.473	0.0146348
906.551	0.0145280
906.629	0.0144743
906.707	0.0145538
906.785	0.0145174
906.863	0.0145235
906.942	0.0146069
907.020	0.0145768
907.098	0.0145216
907.176	0.0145264
907.254	0.0146779
907.332	0.0146703
907.410	0.0146219
907.488	0.0145535
907.567	0.0146453
907.645	0.0146370
907.723	0.0145679
907.801	0.0146644
907.879	0.0145938
907.957	0.0145840
908.035	0.0147461
908.113	0.0147373
908.192	0.0148396
908.270	0.0146009
908.348	0.0145549
908.426	0.0147738
908.504	0.0145899
908.582	0.0147164
908.660	0.0146893
908.738	0.0147095
908.817	0.0145942
908.895	0.0146867
908.973	0.0146044
909.051	0.0148290
909.129	0.0147523
909.207	0.0146437
909.285	0.0147523
909.363	0.0147161
909.442	0.0147906
909.520	0.0148765
909.598	0.0147967
909.676	0.0147153
909.754	0.0148678
909.832	0.0146626
909.910	0.0147649
909.988	0.0147406
910.067	0.0147952
910.145	0.0147807
910.223	0.0148276
910.301	0.0149364
910.379	0.0149590
910.457	0.0148530
910.535	0.0148378
910.613	0.0149152
910.692	0.0149680
910.770	0.0149179
910.848	0.0147852
910.926	0.0148523
911.004	0.0150163
911.082	0.0150433
911.160	0.0150416
911.238	0.0148029
911.317	0.0148677
911.395	0.0149884
911.473	0.0149666
911.551	0.0148715
911.629	0.0148558
911.707	0.0149326
911.785	0.0148389
911.863	0.0148454
911.942	0.0148537
912.020	0.0148798
912.098	0.0147826
912.176	0.0146675
912.254	0.0148103
912.332	0.0149242
912.410	0.0147419
912.488	0.0147391
912.567	0.0146684
912.645	0.0147116
912.723	0.0146951
912.801	0.0147771
912.879	0.0146107
912.957	0.0147247
913.035	0.0147591
913.113	0.0147633
913.192	0.0147652
913.270	0.0146923
913.348	0.0146867
913.426	0.0147709
913.504	0.0148026
913.582	0.0147572
913.660	0.0147765
913.738	0.0148440
913.817	0.0147044
913.895	0.0147169
913.973	0.0148495
914.051	0.0147841
914.129	0.0149441
914.207	0.0148663
914.285	0.0147351
914.363	0.0148484
914.442	0.0149336
914.520	0.0148717
914.598	0.0148000
914.676	0.0147352
914.754	0.0148409
914.832	0.0146765
914.910	0.0145506
914.988	0.0147340
915.067	0.0145461
915.145	0.0146116
915.223	0.0146519
915.301	0.0146973
915.379	0.0145049
915.457	0.0144460
915.535	0.0146152
915.613	0.0144519
915.692	0.0143967
915.770	0.0146138
915.848	0.0145148
915.926	0.0145329
916.004	0.0146426
916.082	0.0146135
916.160	0.0144756
916.238	0.0145288
916.317	0.0145074
916.395	0.0146084
916.473	0.0145448
916.551	0.0145427
916.629	0.0146272
916.707	0.0144255
916.785	0.0144521
916.863	0.0144481
916.942	0.0144020
917.020	0.0144540
917.098	0.0144652
917.176	0.0146031
917.254	0.0143660
917.332	0.0143991
917.410	0.0145016
917.488	0.0143452
917.567	0.0144260
917.645	0.0145415
917.723	0.0144677
917.801	0.0144324
917.879	0.0144999
917.957	0.0144055
918.035	0.0145195
918.113	0.0145601
918.192	0.0146164
918.270	0.0145239
918.348	0.0146063
918.426	0.0145528
918.504	0.0145536
918.582	0.0146572
918.660	0.0146740
918.738	0.0146586
918.817	0.0147073
918.895	0.0146858
918.973	0.0147181
919.051	0.0146355
919.129	0.0147419
919.207	0.0146664
919.285	0.0146528
919.363	0.0147633
919.442	0.0147136
919.520	0.0145881
919.598	0.0147498
919.676	0.0147289
919.754	0.0147216
919.832	0.0147666
919.910	0.0146252
