05/28/2022	14:29:17	Ver.	4.1	UNKNOWN
Optical Delay	599.988409	Delta X		0.078125	Sweeps	1	Scan Rate	0/0
Coordinates	Axis 1	NaN	Axis 2	NaN	Axis 3	NaN	Axis 4	NaN	Axis 5	NaN	Axis 6	0.000000
TX Power	0.000000	RX Power	0.000000

599.988	0.0148339
600.067	0.0148928
600.145	0.0149582
600.223	0.0148027
600.301	0.0148293
600.379	0.0149430
600.457	0.0149221
600.535	0.0148934
600.613	0.0148589
600.692	0.0150365
600.770	0.0150033
600.848	0.0148169
600.926	0.0148363
601.004	0.0148675
601.082	0.0150072
601.160	0.0149534
601.238	0.0149332
601.317	0.0148733
601.395	0.0148617
601.473	0.0149792
601.551	0.0148679
601.629	0.0148080
601.707	0.0147729
601.785	0.0148277
601.863	0.0149207
601.942	0.0148663
602.020	0.0147000
602.098	0.0148125
602.176	0.0148348
602.254	0.0148759
602.332	0.0146613
602.410	0.0147260
602.488	0.0148357
602.567	0.0147605
602.645	0.0148130
602.723	0.0148933
602.801	0.0148235
602.879	0.0149416
602.957	0.0148578
603.035	0.0147147
603.113	0.0148526
603.192	0.0147875
603.270	0.0149184
603.348	0.0148345
603.426	0.0147015
603.504	0.0147752
603.582	0.0147026
603.660	0.0148071
603.738	0.0148413
603.817	0.0148791
603.895	0.0148862
603.973	0.0147794
604.051	0.0148156
604.129	0.0148161
604.207	0.0149128
604.285	0.0150376
604.363	0.0148711
604.442	0.0147121
604.520	0.0148506
604.598	0.0148358
604.676	0.0148412
604.754	0.0149161
604.832	0.0148996
604.910	0.0148492
604.988	0.0148670
605.067	0.0150123
605.145	0.0150403
605.223	0.0149054
605.301	0.0148805
605.379	0.0149779
605.457	0.0148251
605.535	0.0148207
605.613	0.0148827
605.692	0.0147932
605.770	0.0149410
605.848	0.0150095
605.926	0.0148846
606.004	0.0148613
606.082	0.0148142
606.160	0.0147971
606.238	0.0148071
606.317	0.0147388
606.395	0.0148799
606.473	0.0149953
606.551	0.0148179
606.629	0.0146842
606.707	0.0148692
606.785	0.0148846
606.863	0.0148589
606.942	0.0147413
607.020	0.0147191
607.098	0.0148244
607.176	0.0148623
607.254	0.0148732
607.332	0.0149009
607.410	0.0148380
607.488	0.0146907
607.567	0.0147036
607.645	0.0147677
607.723	0.0148072
607.801	0.0147755
607.879	0.0148618
607.957	0.0148978
608.035	0.0147685
608.113	0.0148586
608.192	0.0147821
608.270	0.0149036
608.348	0.0147555
608.426	0.0147204
608.504	0.0148365
608.582	0.0148318
608.660	0.0147303
608.738	0.0147709
608.817	0.0148495
608.895	0.0148862
608.973	0.0149025
609.051	0.0148422
609.129	0.0147347
609.207	0.0147016
609.285	0.0149031
609.363	0.0147925
609.442	0.0146945
609.520	0.0148218
609.598	0.0148653
609.676	0.0148607
609.754	0.0149366
609.832	0.0147916
609.910	0.0148262
609.988	0.0147654
610.067	0.0148404
610.145	0.0147810
610.223	0.0147648
610.301	0.0148060
610.379	0.0148005
610.457	0.0147465
610.535	0.0146500
610.613	0.0148716
610.692	0.0148176
610.770	0.0149040
610.848	0.0147874
610.926	0.0147694
611.004	0.0148760
611.082	0.0147987
611.160	0.0148254
611.238	0.0148832
611.317	0.0148326
611.395	0.0147224
611.473	0.0147981
611.551	0.0148399
611.629	0.0148136
611.707	0.0147794
611.785	0.0148049
611.863	0.0148373
611.942	0.0148638
612.020	0.0147749
612.098	0.0147507
612.176	0.0146877
612.254	0.0147415
612.332	0.0146213
612.410	0.0147549
612.488	0.0148860
612.567	0.0146564
612.645	0.0147038
612.723	0.0146652
612.801	0.0146928
612.879	0.0146950
612.957	0.0147208
613.035	0.0147094
613.113	0.0146279
613.192	0.0147295
613.270	0.0146060
613.348	0.0147449
613.426	0.0147023
613.504	0.0147105
613.582	0.0147965
613.660	0.0146731
613.738	0.0147243
613.817	0.0148384
613.895	0.0146028
613.973	0.0146515
614.051	0.0147515
614.129	0.0147626
614.207	0.0146912
614.285	0.0146672
614.363	0.0148087
614.442	0.0146879
614.520	0.0146635
614.598	0.0148098
614.676	0.0146081
614.754	0.0148054
614.832	0.0148043
614.910	0.0146941
614.988	0.0147911
615.067	0.0147984
615.145	0.0146687
615.223	0.0146818
615.301	0.0147755
615.379	0.0148093
615.457	0.0147376
615.535	0.0146466
615.613	0.0145892
615.692	0.0147821
615.770	0.0148206
615.848	0.0147805
615.926	0.0147870
616.004	0.0146410
616.082	0.0146273
616.160	0.0146953
616.238	0.0148195
616.317	0.0147416
616.395	0.0145798
616.473	0.0146647
616.551	0.0147298
616.629	0.0147045
616.707	0.0146311
616.785	0.0148181
616.863	0.0147273
616.942	0.0146444
617.020	0.0147610
617.098	0.0147298
617.176	0.0147089
617.254	0.0146677
617.332	0.0146812
617.410	0.0147305
617.488	0.0146954
617.567	0.0146871
617.645	0.0146500
617.723	0.0146358
617.801	0.0147905
617.879	0.0148645
617.957	0.0147533
618.035	0.0147933
618.113	0.0147274
618.192	0.0147655
618.270	0.0148042
618.348	0.0147500
618.426	0.0147876
618.504	0.0148520
618.582	0.0148307
618.660	0.0148758
618.738	0.0147751
618.817	0.0148632
618.895	0.0147739
618.973	0.0147534
619.051	0.0147764
619.129	0.0148046
619.207	0.0146146
619.285	0.0146832
619.363	0.0148349
619.442	0.0147551
619.520	0.0147301
619.598	0.0147290
619.676	0.0147836
619.754	0.0146735
619.832	0.0148187
619.910	0.0148562
619.988	0.0146615
620.067	0.0148284
620.145	0.0149390
620.223	0.0147457
620.301	0.0147367
620.379	0.0146986
620.457	0.0147855
620.535	0.0149084
620.613	0.0147881
620.692	0.0147743
620.770	0.0147993
620.848	0.0147665
620.926	0.0147115
621.004	0.0146558
621.082	0.0148576
621.160	0.0147846
621.238	0.0147674
621.317	0.0147695
621.395	0.0147717
621.473	0.0147205
621.551	0.0146729
621.629	0.0147034
621.707	0.0148078
621.785	0.0145821
621.863	0.0146917
621.942	0.0148033
622.020	0.0147202
622.098	0.0147572
622.176	0.0146218
622.254	0.0145399
622.332	0.0146591
622.410	0.0146362
622.488	0.0146293
622.567	0.0146458
622.645	0.0146474
622.723	0.0147919
622.801	0.0147161
622.879	0.0146928
622.957	0.0146609
623.035	0.0146812
623.113	0.0147051
623.192	0.0147739
623.270	0.0147062
623.348	0.0148415
623.426	0.0147582
623.504	0.0147850
623.582	0.0146245
623.660	0.0146368
623.738	0.0146635
623.817	0.0147442
623.895	0.0146938
623.973	0.0146973
624.051	0.0145198
624.129	0.0146951
624.207	0.0147795
624.285	0.0146453
624.363	0.0145483
624.442	0.0146572
624.520	0.0146770
624.598	0.0146141
624.676	0.0147718
624.754	0.0146400
624.832	0.0147180
624.910	0.0146269
624.988	0.0146140
625.067	0.0146487
625.145	0.0146165
625.223	0.0146144
625.301	0.0146973
625.379	0.0146677
625.457	0.0147247
625.535	0.0146919
625.613	0.0146350
625.692	0.0145948
625.770	0.0147285
625.848	0.0146355
625.926	0.0146915
626.004	0.0147989
626.082	0.0147211
626.160	0.0147878
626.238	0.0146785
626.317	0.0146620
626.395	0.0146851
626.473	0.0145892
626.551	0.0147800
626.629	0.0146709
626.707	0.0148194
626.785	0.0148164
626.863	0.0147365
626.942	0.0146638
627.020	0.0148459
627.098	0.0147388
627.176	0.0148516
627.254	0.0148029
627.332	0.0147477
627.410	0.0148015
627.488	0.0148822
627.567	0.0148327
627.645	0.0148203
627.723	0.0149498
627.801	0.0148276
627.879	0.0148784
627.957	0.0148846
628.035	0.0148104
628.113	0.0150091
628.192	0.0148494
628.270	0.0149350
628.348	0.0149017
628.426	0.0149319
628.504	0.0148152
628.582	0.0149014
628.660	0.0148251
628.738	0.0147176
628.817	0.0147667
628.895	0.0149718
628.973	0.0148528
629.051	0.0147856
629.129	0.0147430
629.207	0.0147395
629.285	0.0147747
629.363	0.0148469
629.442	0.0148193
629.520	0.0148726
629.598	0.0148532
629.676	0.0149300
629.754	0.0149307
629.832	0.0149286
629.910	0.0149533
629.988	0.0149080
630.067	0.0149213
630.145	0.0150498
630.223	0.0150613
630.301	0.0148158
630.379	0.0150407
630.457	0.0149255
630.535	0.0149558
630.613	0.0150482
630.692	0.0150312
630.770	0.0149225
630.848	0.0151567
630.926	0.0149989
631.004	0.0149612
631.082	0.0149322
631.160	0.0148542
631.238	0.0149780
631.317	0.0150617
631.395	0.0147518
631.473	0.0148359
631.551	0.0148683
631.629	0.0148337
631.707	0.0147126
631.785	0.0146812
631.863	0.0146851
631.942	0.0147976
632.020	0.0147871
632.098	0.0147912
632.176	0.0147562
632.254	0.0147518
632.332	0.0148626
632.410	0.0148102
632.488	0.0147462
632.567	0.0148180
632.645	0.0148444
632.723	0.0148296
632.801	0.0149383
632.879	0.0149369
632.957	0.0148466
633.035	0.0147896
633.113	0.0148930
633.192	0.0148416
633.270	0.0147981
633.348	0.0146777
633.426	0.0147437
633.504	0.0147322
633.582	0.0148945
633.660	0.0147276
633.738	0.0147029
633.817	0.0145322
633.895	0.0146947
633.973	0.0147367
634.051	0.0146010
634.129	0.0145361
634.207	0.0146369
634.285	0.0145902
634.363	0.0146093
634.442	0.0147012
634.520	0.0148061
634.598	0.0149713
634.676	0.0147369
634.754	0.0148827
634.832	0.0148769
634.910	0.0149228
634.988	0.0149300
635.067	0.0148853
635.145	0.0148933
635.223	0.0149741
635.301	0.0148723
635.379	0.0149873
635.457	0.0149589
635.535	0.0150149
635.613	0.0149654
635.692	0.0149695
635.770	0.0148450
635.848	0.0148874
635.926	0.0148910
636.004	0.0150336
636.082	0.0150301
636.160	0.0151343
636.238	0.0148637
636.317	0.0149812
636.395	0.0150360
636.473	0.0148310
636.551	0.0148694
636.629	0.0149403
636.707	0.0147061
636.785	0.0147203
636.863	0.0148023
636.942	0.0145897
637.020	0.0145409
637.098	0.0145675
637.176	0.0146216
637.254	0.0145177
637.332	0.0144892
637.410	0.0144568
637.488	0.0144421
637.567	0.0144435
637.645	0.0144944
637.723	0.0146225
637.801	0.0144926
637.879	0.0145698
637.957	0.0144534
638.035	0.0146132
638.113	0.0146157
638.192	0.0147413
638.270	0.0146284
638.348	0.0148678
638.426	0.0147346
638.504	0.0148304
638.582	0.0147729
638.660	0.0147899
638.738	0.0148362
638.817	0.0148081
638.895	0.0147246
638.973	0.0148884
639.051	0.0149601
639.129	0.0149117
639.207	0.0149366
639.285	0.0150133
639.363	0.0148584
639.442	0.0150674
639.520	0.0151859
639.598	0.0150557
639.676	0.0149522
639.754	0.0150854
639.832	0.0150261
639.910	0.0150105
639.988	0.0150365
640.067	0.0151095
640.145	0.0150095
640.223	0.0151418
640.301	0.0151998
640.379	0.0150414
640.457	0.0149548
640.535	0.0149548
640.613	0.0149443
640.692	0.0148725
640.770	0.0150108
640.848	0.0147087
640.926	0.0147971
641.004	0.0147438
641.082	0.0146565
641.160	0.0146086
641.238	0.0146920
641.317	0.0147701
641.395	0.0145502
641.473	0.0146107
641.551	0.0146519
641.629	0.0145777
641.707	0.0145489
641.785	0.0146409
641.863	0.0143751
641.942	0.0144371
642.020	0.0146185
642.098	0.0145603
642.176	0.0143494
642.254	0.0144344
642.332	0.0142892
642.410	0.0144090
642.488	0.0143901
642.567	0.0145473
642.645	0.0144288
642.723	0.0145022
642.801	0.0145647
642.879	0.0147437
642.957	0.0146262
643.035	0.0148170
643.113	0.0147428
643.192	0.0147971
643.270	0.0146893
643.348	0.0147371
643.426	0.0148398
643.504	0.0148848
643.582	0.0149668
643.660	0.0148829
643.738	0.0147329
643.817	0.0148700
643.895	0.0148517
643.973	0.0150135
644.051	0.0149968
644.129	0.0149121
644.207	0.0148779
644.285	0.0149681
644.363	0.0148656
644.442	0.0148513
644.520	0.0148320
644.598	0.0149122
644.676	0.0149357
644.754	0.0149571
644.832	0.0148708
644.910	0.0149368
644.988	0.0149123
645.067	0.0149773
645.145	0.0149049
645.223	0.0147878
645.301	0.0147345
645.379	0.0146867
645.457	0.0147705
645.535	0.0149387
645.613	0.0146964
645.692	0.0146881
645.770	0.0148297
645.848	0.0146927
645.926	0.0148219
646.004	0.0147529
646.082	0.0146576
646.160	0.0148864
646.238	0.0145895
646.317	0.0146849
646.395	0.0146302
646.473	0.0146196
646.551	0.0144902
646.629	0.0144726
646.707	0.0145402
646.785	0.0144291
646.863	0.0143375
646.942	0.0143684
647.020	0.0144107
647.098	0.0145424
647.176	0.0146244
647.254	0.0144900
647.332	0.0144952
647.410	0.0145937
647.488	0.0146750
647.567	0.0144635
647.645	0.0145671
647.723	0.0146887
647.801	0.0145509
647.879	0.0147368
647.957	0.0147192
648.035	0.0147259
648.113	0.0147450
648.192	0.0147058
648.270	0.0147246
648.348	0.0148372
648.426	0.0147598
648.504	0.0148393
648.582	0.0147205
648.660	0.0147353
648.738	0.0148583
648.817	0.0147748
648.895	0.0146972
648.973	0.0146318
649.051	0.0145860
649.129	0.0147611
649.207	0.0146159
649.285	0.0145678
649.363	0.0145014
649.442	0.0144357
649.520	0.0145089
649.598	0.0143372
649.676	0.0145768
649.754	0.0147192
649.832	0.0146262
649.910	0.0146666
649.988	0.0146445
650.067	0.0149004
650.145	0.0148809
650.223	0.0148154
650.301	0.0148095
650.379	0.0149841
650.457	0.0149483
650.535	0.0149806
650.613	0.0150403
650.692	0.0150894
650.770	0.0150517
650.848	0.0149339
650.926	0.0149833
651.004	0.0149273
651.082	0.0149756
651.160	0.0148294
651.238	0.0148100
651.317	0.0148517
651.395	0.0149046
651.473	0.0149101
651.551	0.0148913
651.629	0.0148459
651.707	0.0148862
651.785	0.0148704
651.863	0.0148027
651.942	0.0147455
652.020	0.0148176
652.098	0.0148332
652.176	0.0147660
652.254	0.0147916
652.332	0.0148125
652.410	0.0148343
652.488	0.0148187
652.567	0.0147916
652.645	0.0145228
652.723	0.0146310
652.801	0.0145052
652.879	0.0146496
652.957	0.0146609
653.035	0.0146188
653.113	0.0148195
653.192	0.0147830
653.270	0.0146974
653.348	0.0147011
653.426	0.0146944
653.504	0.0146826
653.582	0.0148157
653.660	0.0149425
653.738	0.0149562
653.817	0.0149531
653.895	0.0149570
653.973	0.0150671
654.051	0.0150121
654.129	0.0150763
654.207	0.0151311
654.285	0.0150517
654.363	0.0150705
654.442	0.0148867
654.520	0.0151107
654.598	0.0149284
654.676	0.0147948
654.754	0.0149155
654.832	0.0148828
654.910	0.0148374
654.988	0.0147532
655.067	0.0148277
655.145	0.0147061
655.223	0.0147615
655.301	0.0146564
655.379	0.0145480
655.457	0.0146088
655.535	0.0145999
655.613	0.0147009
655.692	0.0147308
655.770	0.0146376
655.848	0.0147766
655.926	0.0146790
656.004	0.0148373
656.082	0.0149406
656.160	0.0151027
656.238	0.0150152
656.317	0.0150060
656.395	0.0151791
656.473	0.0151057
656.551	0.0153303
656.629	0.0154414
656.707	0.0154241
656.785	0.0153482
656.863	0.0154543
656.942	0.0154192
657.020	0.0154129
657.098	0.0153979
657.176	0.0153819
657.254	0.0152073
657.332	0.0153629
657.410	0.0153610
657.488	0.0151073
657.567	0.0150937
657.645	0.0150317
657.723	0.0149606
657.801	0.0148739
657.879	0.0147797
657.957	0.0146247
658.035	0.0145220
658.113	0.0145628
658.192	0.0146223
658.270	0.0145541
658.348	0.0143443
658.426	0.0145272
658.504	0.0144674
658.582	0.0144298
658.660	0.0145141
658.738	0.0145847
658.817	0.0144517
658.895	0.0145667
658.973	0.0146871
659.051	0.0146086
659.129	0.0146129
659.207	0.0146809
659.285	0.0147189
659.363	0.0147581
659.442	0.0146297
659.520	0.0146050
659.598	0.0146532
659.676	0.0147395
659.754	0.0147414
659.832	0.0146689
659.910	0.0147905
659.988	0.0147597
660.067	0.0147535
660.145	0.0147504
660.223	0.0148062
660.301	0.0147393
660.379	0.0147685
660.457	0.0147527
660.535	0.0147466
660.613	0.0149708
660.692	0.0149323
660.770	0.0149806
660.848	0.0149831
660.926	0.0150816
661.004	0.0151189
661.082	0.0152493
661.160	0.0151392
661.238	0.0153296
661.317	0.0152632
661.395	0.0154392
661.473	0.0153046
661.551	0.0153429
661.629	0.0154536
661.707	0.0153438
661.785	0.0154216
661.863	0.0152939
661.942	0.0152414
662.020	0.0154228
662.098	0.0153386
662.176	0.0152321
662.254	0.0151492
662.332	0.0150513
662.410	0.0149747
662.488	0.0149782
662.567	0.0149982
662.645	0.0149142
662.723	0.0146805
662.801	0.0145997
662.879	0.0146911
662.957	0.0144942
663.035	0.0144183
663.113	0.0144458
663.192	0.0143053
663.270	0.0143738
663.348	0.0144164
663.426	0.0143334
663.504	0.0142831
663.582	0.0143681
663.660	0.0143530
663.738	0.0143165
663.817	0.0146325
663.895	0.0145415
663.973	0.0145031
664.051	0.0148343
664.129	0.0146465
664.207	0.0147971
664.285	0.0149474
664.363	0.0147523
664.442	0.0149157
664.520	0.0150838
664.598	0.0152041
664.676	0.0151820
664.754	0.0150984
664.832	0.0151302
664.910	0.0151979
664.988	0.0150718
665.067	0.0151300
665.145	0.0151925
665.223	0.0150338
665.301	0.0151370
665.379	0.0150964
665.457	0.0151333
665.535	0.0149281
665.613	0.0150019
665.692	0.0150380
665.770	0.0149396
665.848	0.0149295
665.926	0.0147298
666.004	0.0147882
666.082	0.0147744
666.160	0.0149063
666.238	0.0145767
666.317	0.0145070
666.395	0.0146297
666.473	0.0145022
666.551	0.0144492
666.629	0.0144587
666.707	0.0145007
666.785	0.0142545
666.863	0.0142656
666.942	0.0143340
667.020	0.0144176
667.098	0.0143259
667.176	0.0144243
667.254	0.0143420
667.332	0.0143778
667.410	0.0145603
667.488	0.0146891
667.567	0.0146502
667.645	0.0148040
667.723	0.0148943
667.801	0.0148618
667.879	0.0148851
667.957	0.0150454
668.035	0.0151545
668.113	0.0150917
668.192	0.0151758
668.270	0.0152483
668.348	0.0152191
668.426	0.0152210
668.504	0.0151921
668.582	0.0151292
668.660	0.0150252
668.738	0.0150507
668.817	0.0148536
668.895	0.0149471
668.973	0.0148730
669.051	0.0148661
669.129	0.0147211
669.207	0.0146190
669.285	0.0147256
669.363	0.0145973
669.442	0.0144978
669.520	0.0144722
669.598	0.0144813
669.676	0.0144953
669.754	0.0143394
669.832	0.0141549
669.910	0.0143410
669.988	0.0143173
670.067	0.0142564
670.145	0.0145084
670.223	0.0144386
670.301	0.0144866
670.379	0.0146850
670.457	0.0147017
670.535	0.0145679
670.613	0.0146313
670.692	0.0145444
670.770	0.0147355
670.848	0.0147311
670.926	0.0147824
671.004	0.0146435
671.082	0.0147236
671.160	0.0147053
671.238	0.0146297
671.317	0.0145569
671.395	0.0146786
671.473	0.0144790
671.551	0.0145668
671.629	0.0145572
671.707	0.0144046
671.785	0.0145039
671.863	0.0145349
671.942	0.0146519
672.020	0.0146217
672.098	0.0147485
672.176	0.0149130
672.254	0.0150375
672.332	0.0150790
672.410	0.0152262
672.488	0.0152329
672.567	0.0154192
672.645	0.0154913
672.723	0.0154597
672.801	0.0155950
672.879	0.0156309
672.957	0.0155813
673.035	0.0155117
673.113	0.0155850
673.192	0.0154684
673.270	0.0153542
673.348	0.0152058
673.426	0.0151793
673.504	0.0151035
673.582	0.0149221
673.660	0.0149151
673.738	0.0146750
673.817	0.0145155
673.895	0.0144778
673.973	0.0143851
674.051	0.0144247
674.129	0.0144789
674.207	0.0140791
674.285	0.0141103
674.363	0.0140243
674.442	0.0141173
674.520	0.0140774
674.598	0.0141154
674.676	0.0142029
674.754	0.0141223
674.832	0.0141674
674.910	0.0142893
674.988	0.0144307
675.067	0.0143299
675.145	0.0144596
675.223	0.0146586
675.301	0.0147643
675.379	0.0148210
675.457	0.0150283
675.535	0.0152065
675.613	0.0152550
675.692	0.0152534
675.770	0.0153826
675.848	0.0154689
675.926	0.0155060
676.004	0.0155967
676.082	0.0155657
676.160	0.0155998
676.238	0.0155024
676.317	0.0154346
676.395	0.0154581
676.473	0.0154301
676.551	0.0152304
676.629	0.0151608
676.707	0.0151753
676.785	0.0150330
676.863	0.0148412
676.942	0.0150503
677.020	0.0149158
677.098	0.0147945
677.176	0.0145985
677.254	0.0147274
677.332	0.0147443
677.410	0.0146617
677.488	0.0146760
677.567	0.0146206
677.645	0.0147048
677.723	0.0146140
677.801	0.0147882
677.879	0.0148719
677.957	0.0147526
678.035	0.0147626
678.113	0.0149059
678.192	0.0148340
678.270	0.0148472
678.348	0.0146929
678.426	0.0148872
678.504	0.0148109
678.582	0.0146613
678.660	0.0147659
678.738	0.0146457
678.817	0.0146178
678.895	0.0146795
678.973	0.0146620
679.051	0.0147650
679.129	0.0147207
679.207	0.0148744
679.285	0.0149203
679.363	0.0149062
679.442	0.0149266
679.520	0.0149547
679.598	0.0151454
679.676	0.0151930
679.754	0.0151927
679.832	0.0152358
679.910	0.0153822
679.988	0.0153022
680.067	0.0151782
680.145	0.0152273
680.223	0.0152377
680.301	0.0154070
680.379	0.0153578
680.457	0.0152617
680.535	0.0153277
680.613	0.0150305
680.692	0.0149286
680.770	0.0150704
680.848	0.0151755
680.926	0.0151698
681.004	0.0150366
681.082	0.0149158
681.160	0.0150475
681.238	0.0148642
681.317	0.0149139
681.395	0.0149189
681.473	0.0150493
681.551	0.0150292
681.629	0.0150861
681.707	0.0151479
681.785	0.0150136
681.863	0.0150168
681.942	0.0149299
682.020	0.0151600
682.098	0.0150475
682.176	0.0148539
682.254	0.0149649
682.332	0.0150236
682.410	0.0148145
682.488	0.0148135
682.567	0.0148677
682.645	0.0148097
682.723	0.0146799
682.801	0.0146185
682.879	0.0145586
682.957	0.0145708
683.035	0.0144664
683.113	0.0144589
683.192	0.0144865
683.270	0.0144148
683.348	0.0143723
683.426	0.0144175
683.504	0.0144308
683.582	0.0143142
683.660	0.0145747
683.738	0.0144823
683.817	0.0145741
683.895	0.0146718
683.973	0.0146917
684.051	0.0147348
684.129	0.0148569
684.207	0.0149252
684.285	0.0149382
684.363	0.0151846
684.442	0.0151348
684.520	0.0152459
684.598	0.0153704
684.676	0.0154418
684.754	0.0153803
684.832	0.0153882
684.910	0.0155157
684.988	0.0154615
685.067	0.0153780
685.145	0.0153675
685.223	0.0153551
685.301	0.0151656
685.379	0.0149633
685.457	0.0150587
685.535	0.0149421
685.613	0.0147759
685.692	0.0144292
685.770	0.0144041
685.848	0.0142377
685.926	0.0139981
686.004	0.0138962
686.082	0.0137750
686.160	0.0138087
686.238	0.0137165
686.317	0.0137637
686.395	0.0137679
686.473	0.0135931
686.551	0.0136376
686.629	0.0138274
686.707	0.0137942
686.785	0.0138412
686.863	0.0140915
686.942	0.0140968
687.020	0.0141332
687.098	0.0140116
687.176	0.0142286
687.254	0.0141892
687.332	0.0144213
687.410	0.0144441
687.488	0.0142241
687.567	0.0143220
687.645	0.0143338
687.723	0.0143886
687.801	0.0144347
687.879	0.0145579
687.957	0.0145601
688.035	0.0144965
688.113	0.0146654
688.192	0.0147160
688.270	0.0148975
688.348	0.0148771
688.426	0.0147663
688.504	0.0150546
688.582	0.0152291
688.660	0.0153077
688.738	0.0153284
688.817	0.0154392
688.895	0.0155133
688.973	0.0156892
689.051	0.0156229
689.129	0.0155849
689.207	0.0155957
689.285	0.0157085
689.363	0.0156950
689.442	0.0155243
689.520	0.0156000
689.598	0.0155870
689.676	0.0155255
689.754	0.0155421
689.832	0.0153571
689.910	0.0154728
689.988	0.0154693
690.067	0.0153564
690.145	0.0152335
690.223	0.0152439
690.301	0.0151012
690.379	0.0149637
690.457	0.0150189
690.535	0.0148737
690.613	0.0146970
690.692	0.0147905
690.770	0.0148018
690.848	0.0146742
690.926	0.0145889
691.004	0.0146291
691.082	0.0144066
691.160	0.0144741
691.238	0.0143224
691.317	0.0142995
691.395	0.0141634
691.473	0.0141841
691.551	0.0142251
691.629	0.0141250
691.707	0.0140721
691.785	0.0140775
691.863	0.0141117
691.942	0.0140158
692.020	0.0139069
692.098	0.0140116
692.176	0.0140362
692.254	0.0140789
692.332	0.0141951
692.410	0.0143058
692.488	0.0145115
692.567	0.0145767
692.645	0.0145473
692.723	0.0146246
692.801	0.0148185
692.879	0.0148341
692.957	0.0149210
693.035	0.0150149
693.113	0.0151817
693.192	0.0153780
693.270	0.0155401
693.348	0.0156433
693.426	0.0156109
693.504	0.0156033
693.582	0.0156229
693.660	0.0157314
693.738	0.0158541
693.817	0.0157137
693.895	0.0158305
693.973	0.0157874
694.051	0.0158024
694.129	0.0157667
694.207	0.0157092
694.285	0.0156326
694.363	0.0156011
694.442	0.0155033
694.520	0.0152734
694.598	0.0153587
694.676	0.0151738
694.754	0.0150148
694.832	0.0150373
694.910	0.0151523
694.988	0.0148315
695.067	0.0146364
695.145	0.0147028
695.223	0.0145394
695.301	0.0144357
695.379	0.0141880
695.457	0.0141662
695.535	0.0140873
695.613	0.0140513
695.692	0.0139685
695.770	0.0137991
695.848	0.0138168
695.926	0.0137421
696.004	0.0136274
696.082	0.0136693
696.160	0.0137588
696.238	0.0138363
696.317	0.0137058
696.395	0.0138078
696.473	0.0139899
696.551	0.0140302
696.629	0.0140382
696.707	0.0142930
696.785	0.0144353
696.863	0.0143733
696.942	0.0146329
697.020	0.0147818
697.098	0.0147854
697.176	0.0150487
697.254	0.0151235
697.332	0.0153072
697.410	0.0153284
697.488	0.0153341
697.567	0.0154488
697.645	0.0156339
697.723	0.0155720
697.801	0.0157214
697.879	0.0157146
697.957	0.0158298
698.035	0.0156757
698.113	0.0157561
698.192	0.0157850
698.270	0.0156916
698.348	0.0158383
698.426	0.0158758
698.504	0.0157019
698.582	0.0158046
698.660	0.0158878
698.738	0.0157501
698.817	0.0157165
698.895	0.0155659
698.973	0.0155598
699.051	0.0155434
699.129	0.0155154
699.207	0.0154603
699.285	0.0152908
699.363	0.0153909
699.442	0.0151659
699.520	0.0150520
699.598	0.0147511
699.676	0.0147529
699.754	0.0146417
699.832	0.0143969
699.910	0.0144311
699.988	0.0142854
700.067	0.0141342
700.145	0.0140054
700.223	0.0139783
700.301	0.0140275
700.379	0.0138327
700.457	0.0138281
700.535	0.0138809
700.613	0.0139165
700.692	0.0139316
700.770	0.0140210
700.848	0.0141300
700.926	0.0141354
701.004	0.0140958
701.082	0.0142309
701.160	0.0141308
701.238	0.0141700
701.317	0.0142003
701.395	0.0143467
701.473	0.0144910
701.551	0.0145495
701.629	0.0145128
701.707	0.0146554
701.785	0.0147181
701.863	0.0148318
701.942	0.0149356
702.020	0.0149905
702.098	0.0149602
702.176	0.0150416
702.254	0.0149812
702.332	0.0152370
702.410	0.0152335
702.488	0.0152287
702.567	0.0152873
702.645	0.0153701
702.723	0.0154456
702.801	0.0154749
702.879	0.0155376
702.957	0.0153232
703.035	0.0153626
703.113	0.0153940
703.192	0.0153651
703.270	0.0152216
703.348	0.0152059
703.426	0.0150227
703.504	0.0149810
703.582	0.0150378
703.660	0.0149168
703.738	0.0149599
703.817	0.0148862
703.895	0.0147617
703.973	0.0148000
704.051	0.0147211
704.129	0.0146926
704.207	0.0147884
704.285	0.0146161
704.363	0.0146934
704.442	0.0145522
704.520	0.0146553
704.598	0.0144790
704.676	0.0145442
704.754	0.0146145
704.832	0.0145717
704.910	0.0143875
704.988	0.0144457
705.067	0.0145105
705.145	0.0144926
705.223	0.0144330
705.301	0.0144432
705.379	0.0145837
705.457	0.0144518
705.535	0.0144366
705.613	0.0144556
705.692	0.0143901
705.770	0.0144241
705.848	0.0144444
705.926	0.0144402
706.004	0.0144274
706.082	0.0144486
706.160	0.0143895
706.238	0.0144403
706.317	0.0144503
706.395	0.0144331
706.473	0.0144238
706.551	0.0144350
706.629	0.0143930
706.707	0.0143925
706.785	0.0144955
706.863	0.0142867
706.942	0.0143115
707.020	0.0144527
707.098	0.0144933
707.176	0.0145084
707.254	0.0146265
707.332	0.0147220
707.410	0.0147536
707.488	0.0147498
707.567	0.0147299
707.645	0.0148327
707.723	0.0148295
707.801	0.0148006
707.879	0.0146861
707.957	0.0147558
708.035	0.0148998
708.113	0.0149832
708.192	0.0148500
708.270	0.0148402
708.348	0.0148476
708.426	0.0148096
708.504	0.0146996
708.582	0.0148175
708.660	0.0148633
708.738	0.0147870
708.817	0.0148031
708.895	0.0147697
708.973	0.0148508
709.051	0.0149139
709.129	0.0148644
709.207	0.0148767
709.285	0.0148502
709.363	0.0148063
709.442	0.0149336
709.520	0.0148406
709.598	0.0149119
709.676	0.0148672
709.754	0.0149647
709.832	0.0148454
709.910	0.0147935
709.988	0.0148260
710.067	0.0147475
710.145	0.0148776
710.223	0.0147015
710.301	0.0148297
710.379	0.0147293
710.457	0.0148351
710.535	0.0147710
710.613	0.0146662
710.692	0.0147509
710.770	0.0146230
710.848	0.0146690
710.926	0.0147821
711.004	0.0147502
711.082	0.0147260
711.160	0.0145496
711.238	0.0146590
711.317	0.0147062
711.395	0.0145734
711.473	0.0146457
711.551	0.0145228
711.629	0.0146683
711.707	0.0145734
711.785	0.0147169
711.863	0.0146470
711.942	0.0147118
712.020	0.0149339
712.098	0.0148903
712.176	0.0149934
712.254	0.0149612
712.332	0.0151342
712.410	0.0150327
712.488	0.0150639
712.567	0.0150559
712.645	0.0150724
712.723	0.0151186
712.801	0.0150255
712.879	0.0150942
712.957	0.0150196
713.035	0.0150711
713.113	0.0151147
713.192	0.0150671
713.270	0.0148624
713.348	0.0149969
713.426	0.0149425
713.504	0.0149337
713.582	0.0150556
713.660	0.0149732
713.738	0.0149981
713.817	0.0150633
713.895	0.0151633
713.973	0.0150856
714.051	0.0150953
714.129	0.0150012
714.207	0.0149799
714.285	0.0152200
714.363	0.0150242
714.442	0.0150035
714.520	0.0149155
714.598	0.0150826
714.676	0.0148016
714.754	0.0147443
714.832	0.0147035
714.910	0.0147315
714.988	0.0147012
715.067	0.0147451
715.145	0.0145538
715.223	0.0144431
715.301	0.0144532
715.379	0.0144650
715.457	0.0144309
715.535	0.0141980
715.613	0.0144357
715.692	0.0144202
715.770	0.0144583
715.848	0.0142440
715.926	0.0142969
716.004	0.0143684
716.082	0.0143539
716.160	0.0144267
716.238	0.0145416
716.317	0.0146718
716.395	0.0146601
716.473	0.0147636
716.551	0.0146516
716.629	0.0148473
716.707	0.0149167
716.785	0.0148080
716.863	0.0148543
716.942	0.0148946
717.020	0.0148824
717.098	0.0147517
717.176	0.0148206
717.254	0.0148418
717.332	0.0148239
717.410	0.0147425
717.488	0.0147760
717.567	0.0146432
717.645	0.0146661
717.723	0.0146694
717.801	0.0147399
717.879	0.0146341
717.957	0.0145367
718.035	0.0145008
718.113	0.0145800
718.192	0.0143532
718.270	0.0143834
718.348	0.0144331
718.426	0.0145027
718.504	0.0145901
718.582	0.0145110
718.660	0.0145893
718.738	0.0144630
718.817	0.0145506
718.895	0.0145452
718.973	0.0146270
719.051	0.0146722
719.129	0.0146706
719.207	0.0148830
719.285	0.0148355
719.363	0.0147732
719.442	0.0148462
719.520	0.0148198
719.598	0.0148987
719.676	0.0148383
719.754	0.0148626
719.832	0.0149472
719.910	0.0148605
719.988	0.0148766
720.067	0.0149079
720.145	0.0148194
720.223	0.0149498
720.301	0.0149608
720.379	0.0150129
720.457	0.0149940
720.535	0.0148727
720.613	0.0147662
720.692	0.0148833
720.770	0.0148462
720.848	0.0150187
720.926	0.0149036
721.004	0.0148567
721.082	0.0149541
721.160	0.0147587
721.238	0.0149325
721.317	0.0149438
721.395	0.0148579
721.473	0.0150129
721.551	0.0152013
721.629	0.0150602
721.707	0.0150845
721.785	0.0152369
721.863	0.0151577
721.942	0.0151760
722.020	0.0151010
722.098	0.0151412
722.176	0.0150558
722.254	0.0149773
722.332	0.0148943
722.410	0.0149181
722.488	0.0149512
722.567	0.0147751
722.645	0.0147565
722.723	0.0147323
722.801	0.0146687
722.879	0.0145948
722.957	0.0145058
723.035	0.0145836
723.113	0.0146038
723.192	0.0145381
723.270	0.0145313
723.348	0.0145461
723.426	0.0146020
723.504	0.0146682
723.582	0.0147337
723.660	0.0147668
723.738	0.0148734
723.817	0.0149062
723.895	0.0149354
723.973	0.0150185
724.051	0.0149579
724.129	0.0149561
724.207	0.0149461
724.285	0.0150248
724.363	0.0150442
724.442	0.0151575
724.520	0.0151532
724.598	0.0149576
724.676	0.0149686
724.754	0.0150121
724.832	0.0149869
724.910	0.0148711
724.988	0.0149802
725.067	0.0149499
725.145	0.0148438
725.223	0.0147944
725.301	0.0148836
725.379	0.0147542
725.457	0.0147324
725.535	0.0148801
725.613	0.0148792
725.692	0.0149049
725.770	0.0147775
725.848	0.0148607
725.926	0.0148090
726.004	0.0149186
726.082	0.0148122
726.160	0.0147770
726.238	0.0148927
726.317	0.0147650
726.395	0.0148856
726.473	0.0147918
726.551	0.0147764
726.629	0.0147610
726.707	0.0147758
726.785	0.0147355
726.863	0.0146781
726.942	0.0146123
727.020	0.0146036
727.098	0.0144544
727.176	0.0143920
727.254	0.0143633
727.332	0.0144004
727.410	0.0144380
727.488	0.0144830
727.567	0.0143380
727.645	0.0143244
727.723	0.0142866
727.801	0.0143431
727.879	0.0143557
727.957	0.0144598
728.035	0.0143066
728.113	0.0144322
728.192	0.0145673
728.270	0.0146777
728.348	0.0145966
728.426	0.0146523
728.504	0.0145094
728.582	0.0146275
728.660	0.0145590
728.738	0.0145525
728.817	0.0147317
728.895	0.0146311
728.973	0.0147079
729.051	0.0147610
729.129	0.0146914
729.207	0.0147453
729.285	0.0147208
729.363	0.0146934
729.442	0.0147055
729.520	0.0146539
729.598	0.0147088
729.676	0.0146099
729.754	0.0147572
729.832	0.0147993
729.910	0.0147793
729.988	0.0147775
730.067	0.0148630
730.145	0.0146107
730.223	0.0145992
730.301	0.0146434
730.379	0.0147116
730.457	0.0146664
730.535	0.0145731
730.613	0.0146362
730.692	0.0145669
730.770	0.0146501
730.848	0.0146621
730.926	0.0146088
731.004	0.0146271
731.082	0.0146814
731.160	0.0148395
731.238	0.0147813
731.317	0.0148074
731.395	0.0148780
731.473	0.0148478
731.551	0.0149684
731.629	0.0149814
731.707	0.0150215
731.785	0.0149889
731.863	0.0149732
731.942	0.0149550
732.020	0.0149990
732.098	0.0150444
732.176	0.0148225
732.254	0.0148933
732.332	0.0149930
732.410	0.0149128
732.488	0.0148633
732.567	0.0149444
732.645	0.0148785
732.723	0.0147424
732.801	0.0149504
732.879	0.0148069
732.957	0.0148721
733.035	0.0149201
733.113	0.0148486
733.192	0.0148698
733.270	0.0146213
733.348	0.0146983
733.426	0.0147494
733.504	0.0147944
733.582	0.0147504
733.660	0.0149180
733.738	0.0149217
733.817	0.0148724
733.895	0.0146774
733.973	0.0147665
734.051	0.0148508
734.129	0.0148048
734.207	0.0148668
734.285	0.0149822
734.363	0.0148856
734.442	0.0149331
734.520	0.0149159
734.598	0.0149059
734.676	0.0149416
734.754	0.0149331
734.832	0.0150195
734.910	0.0149157
734.988	0.0149581
735.067	0.0150824
735.145	0.0148867
735.223	0.0149060
735.301	0.0148685
735.379	0.0149270
735.457	0.0149260
735.535	0.0149310
735.613	0.0148894
735.692	0.0149118
735.770	0.0149135
735.848	0.0147472
735.926	0.0147697
736.004	0.0148860
736.082	0.0148481
736.160	0.0147157
736.238	0.0149647
736.317	0.0148721
736.395	0.0150288
736.473	0.0149155
736.551	0.0148370
736.629	0.0150538
736.707	0.0150769
736.785	0.0148600
736.863	0.0148801
736.942	0.0148935
737.020	0.0149362
737.098	0.0147363
737.176	0.0148586
737.254	0.0149825
737.332	0.0150006
737.410	0.0148782
737.488	0.0150229
737.567	0.0149821
737.645	0.0147730
737.723	0.0149096
737.801	0.0149823
737.879	0.0150029
737.957	0.0149197
738.035	0.0149625
738.113	0.0150446
738.192	0.0149165
738.270	0.0149686
738.348	0.0150346
738.426	0.0149804
738.504	0.0150576
738.582	0.0149734
738.660	0.0149680
738.738	0.0148350
738.817	0.0149580
738.895	0.0148698
738.973	0.0149596
739.051	0.0148794
739.129	0.0148863
739.207	0.0148785
739.285	0.0149041
739.363	0.0149001
739.442	0.0147923
739.520	0.0148750
739.598	0.0147194
739.676	0.0147603
739.754	0.0147826
739.832	0.0148573
739.910	0.0147058
739.988	0.0147424
740.067	0.0147216
740.145	0.0147352
740.223	0.0146850
740.301	0.0145333
740.379	0.0146381
740.457	0.0147224
740.535	0.0144894
740.613	0.0145479
740.692	0.0147199
740.770	0.0147481
740.848	0.0147648
740.926	0.0147272
741.004	0.0145858
741.082	0.0146741
741.160	0.0146669
741.238	0.0149278
741.317	0.0147150
741.395	0.0146899
741.473	0.0147881
741.551	0.0147794
741.629	0.0147466
741.707	0.0148124
741.785	0.0149942
741.863	0.0147437
741.942	0.0147742
742.020	0.0147485
742.098	0.0147099
742.176	0.0148257
742.254	0.0148747
742.332	0.0148510
742.410	0.0147610
742.488	0.0149567
742.567	0.0148765
742.645	0.0148638
742.723	0.0148118
742.801	0.0148140
742.879	0.0149651
742.957	0.0148682
743.035	0.0150146
743.113	0.0149409
743.192	0.0148708
743.270	0.0149589
743.348	0.0148132
743.426	0.0148597
743.504	0.0148535
743.582	0.0149611
743.660	0.0148667
743.738	0.0148178
743.817	0.0148063
743.895	0.0147579
743.973	0.0148123
744.051	0.0148911
744.129	0.0149277
744.207	0.0148521
744.285	0.0148048
744.363	0.0147353
744.442	0.0148245
744.520	0.0148719
744.598	0.0149693
744.676	0.0147646
744.754	0.0148209
744.832	0.0149861
744.910	0.0147118
744.988	0.0148973
745.067	0.0147671
745.145	0.0147968
745.223	0.0147328
745.301	0.0148008
745.379	0.0148100
745.457	0.0147083
745.535	0.0148243
745.613	0.0147038
745.692	0.0147501
745.770	0.0147809
745.848	0.0146503
745.926	0.0147413
746.004	0.0147913
746.082	0.0147947
746.160	0.0147888
746.238	0.0149515
746.317	0.0148226
746.395	0.0147358
746.473	0.0148454
746.551	0.0149084
746.629	0.0148729
746.707	0.0148617
746.785	0.0149268
746.863	0.0149168
746.942	0.0149052
747.020	0.0148936
747.098	0.0149480
747.176	0.0148708
747.254	0.0148026
747.332	0.0150269
747.410	0.0149405
747.488	0.0148554
747.567	0.0147865
747.645	0.0148730
747.723	0.0148036
747.801	0.0146590
747.879	0.0149509
747.957	0.0147615
748.035	0.0147348
748.113	0.0146914
748.192	0.0147421
748.270	0.0146398
748.348	0.0147680
748.426	0.0146747
748.504	0.0145847
748.582	0.0146615
748.660	0.0145335
748.738	0.0145976
748.817	0.0146267
748.895	0.0146731
748.973	0.0146868
749.051	0.0146662
749.129	0.0145642
749.207	0.0147021
749.285	0.0147697
749.363	0.0148251
749.442	0.0147173
749.520	0.0144507
749.598	0.0146648
749.676	0.0147512
749.754	0.0148321
749.832	0.0147028
749.910	0.0146760
749.988	0.0148190
750.067	0.0147540
750.145	0.0148565
750.223	0.0147707
750.301	0.0147172
750.379	0.0146459
750.457	0.0147168
750.535	0.0147692
750.613	0.0147548
750.692	0.0147510
750.770	0.0147231
750.848	0.0146060
750.926	0.0146768
751.004	0.0147395
751.082	0.0146861
751.160	0.0145622
751.238	0.0147765
751.317	0.0148011
751.395	0.0147297
751.473	0.0147578
751.551	0.0146516
751.629	0.0147845
751.707	0.0148081
751.785	0.0147033
751.863	0.0149322
751.942	0.0149360
752.020	0.0148211
752.098	0.0149075
752.176	0.0150053
752.254	0.0149758
752.332	0.0150727
752.410	0.0150888
752.488	0.0150067
752.567	0.0150970
752.645	0.0149774
752.723	0.0149879
752.801	0.0149240
752.879	0.0149570
752.957	0.0150007
753.035	0.0150143
753.113	0.0149205
753.192	0.0149127
753.270	0.0148679
753.348	0.0148141
753.426	0.0149315
753.504	0.0149432
753.582	0.0148834
753.660	0.0149764
753.738	0.0148968
753.817	0.0150299
753.895	0.0148698
753.973	0.0148665
754.051	0.0148915
754.129	0.0150224
754.207	0.0149706
754.285	0.0149108
754.363	0.0149500
754.442	0.0150720
754.520	0.0148940
754.598	0.0149652
754.676	0.0148212
754.754	0.0149752
754.832	0.0149783
754.910	0.0149335
754.988	0.0149275
755.067	0.0149187
755.145	0.0148750
755.223	0.0148747
755.301	0.0147855
755.379	0.0148624
755.457	0.0149155
755.535	0.0148267
755.613	0.0148805
755.692	0.0147693
755.770	0.0146784
755.848	0.0148174
755.926	0.0146646
756.004	0.0146844
756.082	0.0147896
756.160	0.0147260
756.238	0.0146460
756.317	0.0145905
756.395	0.0146519
756.473	0.0146429
756.551	0.0146178
756.629	0.0147228
756.707	0.0147775
756.785	0.0147412
756.863	0.0146815
756.942	0.0147131
757.020	0.0147030
757.098	0.0147410
757.176	0.0146044
757.254	0.0146540
757.332	0.0146640
757.410	0.0146629
757.488	0.0148073
757.567	0.0148452
757.645	0.0149287
757.723	0.0148517
757.801	0.0147427
757.879	0.0148391
757.957	0.0149001
758.035	0.0147884
758.113	0.0147636
758.192	0.0148466
758.270	0.0148485
758.348	0.0148331
758.426	0.0148156
758.504	0.0147581
758.582	0.0148692
758.660	0.0148283
758.738	0.0147127
758.817	0.0148178
758.895	0.0147288
758.973	0.0148557
759.051	0.0147051
759.129	0.0146030
759.207	0.0147314
759.285	0.0148977
759.363	0.0146352
759.442	0.0148167
759.520	0.0148193
759.598	0.0146238
759.676	0.0145834
759.754	0.0145272
759.832	0.0145609
759.910	0.0144809
759.988	0.0145429
760.067	0.0146091
760.145	0.0146699
760.223	0.0144271
760.301	0.0145432
760.379	0.0145717
760.457	0.0145128
760.535	0.0144688
760.613	0.0144543
760.692	0.0145889
760.770	0.0144289
760.848	0.0145758
760.926	0.0146944
761.004	0.0146844
761.082	0.0147288
761.160	0.0146111
761.238	0.0146390
761.317	0.0145386
761.395	0.0145193
761.473	0.0147063
761.551	0.0145875
761.629	0.0145672
761.707	0.0146836
761.785	0.0146503
761.863	0.0147314
761.942	0.0146655
762.020	0.0148394
762.098	0.0147715
762.176	0.0148449
762.254	0.0148847
762.332	0.0147209
762.410	0.0147995
762.488	0.0147610
762.567	0.0149361
762.645	0.0148947
762.723	0.0148125
762.801	0.0147743
762.879	0.0148468
762.957	0.0148782
763.035	0.0148462
763.113	0.0147685
763.192	0.0147697
763.270	0.0150047
763.348	0.0148239
763.426	0.0149591
763.504	0.0148870
763.582	0.0149326
763.660	0.0148136
763.738	0.0148713
763.817	0.0148631
763.895	0.0147570
763.973	0.0148338
764.051	0.0146289
764.129	0.0147331
764.207	0.0148347
764.285	0.0148454
764.363	0.0148488
764.442	0.0148527
764.520	0.0147820
764.598	0.0148158
764.676	0.0148154
764.754	0.0149445
764.832	0.0147841
764.910	0.0147174
764.988	0.0148269
765.067	0.0149185
765.145	0.0146611
765.223	0.0147249
765.301	0.0149646
765.379	0.0148311
765.457	0.0147302
765.535	0.0147945
765.613	0.0148797
765.692	0.0148267
765.770	0.0147711
765.848	0.0149548
765.926	0.0149752
766.004	0.0148497
766.082	0.0147669
766.160	0.0148000
766.238	0.0146912
766.317	0.0147950
766.395	0.0149599
766.473	0.0147047
766.551	0.0148126
766.629	0.0147806
766.707	0.0147246
766.785	0.0148398
766.863	0.0148428
766.942	0.0148071
767.020	0.0147858
767.098	0.0147166
767.176	0.0146633
767.254	0.0146771
767.332	0.0147149
767.410	0.0147312
767.488	0.0147619
767.567	0.0148189
767.645	0.0148845
767.723	0.0149380
767.801	0.0147620
767.879	0.0147062
767.957	0.0148768
768.035	0.0147446
768.113	0.0147357
768.192	0.0148325
768.270	0.0149275
768.348	0.0147428
768.426	0.0148269
768.504	0.0147879
768.582	0.0148161
768.660	0.0147736
768.738	0.0147849
768.817	0.0147570
768.895	0.0148183
768.973	0.0148544
769.051	0.0147581
769.129	0.0147337
769.207	0.0146558
769.285	0.0146313
769.363	0.0146774
769.442	0.0147093
769.520	0.0148044
769.598	0.0147594
769.676	0.0147428
769.754	0.0147315
769.832	0.0148029
769.910	0.0148242
769.988	0.0147474
770.067	0.0146904
770.145	0.0148191
770.223	0.0148187
770.301	0.0146931
770.379	0.0147429
770.457	0.0147379
770.535	0.0145934
770.613	0.0147226
770.692	0.0146814
770.770	0.0146574
770.848	0.0145103
770.926	0.0147562
771.004	0.0148814
771.082	0.0146703
771.160	0.0146344
771.238	0.0145798
771.317	0.0147363
771.395	0.0147128
771.473	0.0146887
771.551	0.0147691
771.629	0.0148050
771.707	0.0147592
771.785	0.0147126
771.863	0.0147285
771.942	0.0147139
772.020	0.0147103
772.098	0.0148788
772.176	0.0148647
772.254	0.0145938
772.332	0.0148244
772.410	0.0148550
772.488	0.0147019
772.567	0.0148386
772.645	0.0148637
772.723	0.0147829
772.801	0.0148020
772.879	0.0147703
772.957	0.0147551
773.035	0.0148172
773.113	0.0147631
773.192	0.0149284
773.270	0.0147070
773.348	0.0148808
773.426	0.0148713
773.504	0.0148087
773.582	0.0146798
773.660	0.0148315
773.738	0.0146165
773.817	0.0147540
773.895	0.0146536
773.973	0.0145866
774.051	0.0146027
774.129	0.0147688
774.207	0.0147517
774.285	0.0148156
774.363	0.0147321
774.442	0.0145857
774.520	0.0146626
774.598	0.0145890
774.676	0.0146140
774.754	0.0146474
774.832	0.0146032
774.910	0.0146541
774.988	0.0148096
775.067	0.0147630
775.145	0.0148227
775.223	0.0148661
775.301	0.0147474
775.379	0.0148032
775.457	0.0148837
775.535	0.0147733
775.613	0.0148180
775.692	0.0149110
775.770	0.0148682
775.848	0.0147842
775.926	0.0148948
776.004	0.0147459
776.082	0.0149117
776.160	0.0149130
776.238	0.0147145
776.317	0.0147617
776.395	0.0148353
776.473	0.0148381
776.551	0.0146459
776.629	0.0147226
776.707	0.0147654
776.785	0.0148325
776.863	0.0147463
776.942	0.0147356
777.020	0.0147659
777.098	0.0147985
777.176	0.0147887
777.254	0.0147874
777.332	0.0148650
777.410	0.0147652
777.488	0.0148148
777.567	0.0149606
777.645	0.0148170
777.723	0.0148137
777.801	0.0148029
777.879	0.0149028
777.957	0.0148847
778.035	0.0147338
778.113	0.0149178
778.192	0.0149065
778.270	0.0148394
778.348	0.0149422
778.426	0.0149395
778.504	0.0148315
778.582	0.0147967
778.660	0.0148309
778.738	0.0147154
778.817	0.0147658
778.895	0.0147527
778.973	0.0146295
779.051	0.0148759
779.129	0.0146957
779.207	0.0146368
779.285	0.0147844
779.363	0.0146173
779.442	0.0147069
779.520	0.0148808
779.598	0.0147516
779.676	0.0147117
779.754	0.0147027
779.832	0.0148501
779.910	0.0147430
779.988	0.0146449
780.067	0.0147512
780.145	0.0147211
780.223	0.0149256
780.301	0.0148518
780.379	0.0148669
780.457	0.0146420
780.535	0.0147413
780.613	0.0148169
780.692	0.0148105
780.770	0.0146395
780.848	0.0148887
780.926	0.0147923
781.004	0.0146920
781.082	0.0147797
781.160	0.0147529
781.238	0.0146828
781.317	0.0147191
781.395	0.0145766
781.473	0.0145009
781.551	0.0147124
781.629	0.0146575
781.707	0.0146704
781.785	0.0146196
781.863	0.0146783
781.942	0.0146653
782.020	0.0146214
782.098	0.0144990
782.176	0.0146670
782.254	0.0147309
782.332	0.0146409
782.410	0.0146468
782.488	0.0144747
782.567	0.0147253
782.645	0.0146215
782.723	0.0146893
782.801	0.0146135
782.879	0.0145455
782.957	0.0145205
783.035	0.0145538
783.113	0.0146669
783.192	0.0146133
783.270	0.0146810
783.348	0.0146805
783.426	0.0145663
783.504	0.0145469
783.582	0.0145103
783.660	0.0145922
783.738	0.0145859
783.817	0.0146375
783.895	0.0145342
783.973	0.0145936
784.051	0.0145640
784.129	0.0144965
784.207	0.0145522
784.285	0.0146111
784.363	0.0146206
784.442	0.0146024
784.520	0.0146341
784.598	0.0145761
784.676	0.0146184
784.754	0.0147282
784.832	0.0145650
784.910	0.0145995
784.988	0.0146304
785.067	0.0145502
785.145	0.0146738
785.223	0.0146104
785.301	0.0146557
785.379	0.0146483
785.457	0.0146510
785.535	0.0146413
785.613	0.0147202
785.692	0.0147786
785.770	0.0145595
785.848	0.0146194
785.926	0.0146931
786.004	0.0146502
786.082	0.0147541
786.160	0.0147444
786.238	0.0146906
786.317	0.0144686
786.395	0.0145698
786.473	0.0146160
786.551	0.0146497
786.629	0.0146518
786.707	0.0146669
786.785	0.0147921
786.863	0.0145825
786.942	0.0146720
787.020	0.0146933
787.098	0.0145988
787.176	0.0146318
787.254	0.0146924
787.332	0.0146738
787.410	0.0147852
787.488	0.0147900
787.567	0.0147155
787.645	0.0147418
787.723	0.0148129
787.801	0.0148645
787.879	0.0147301
787.957	0.0146279
788.035	0.0147805
788.113	0.0147583
788.192	0.0148185
788.270	0.0147392
788.348	0.0147451
788.426	0.0146603
788.504	0.0145522
788.582	0.0146597
788.660	0.0146329
788.738	0.0147347
788.817	0.0145094
788.895	0.0146851
788.973	0.0147642
789.051	0.0145848
789.129	0.0147190
789.207	0.0146242
789.285	0.0146406
789.363	0.0146828
789.442	0.0147021
789.520	0.0147886
789.598	0.0147536
789.676	0.0146463
789.754	0.0147926
789.832	0.0147556
789.910	0.0147622
789.988	0.0147189
790.067	0.0148203
790.145	0.0148210
790.223	0.0148670
790.301	0.0146986
790.379	0.0147118
790.457	0.0147977
790.535	0.0147749
790.613	0.0147669
790.692	0.0146067
790.770	0.0148148
790.848	0.0149511
790.926	0.0148559
791.004	0.0147477
791.082	0.0147825
791.160	0.0148425
791.238	0.0149270
791.317	0.0147129
791.395	0.0146767
791.473	0.0149529
791.551	0.0148643
791.629	0.0147260
791.707	0.0146439
791.785	0.0147211
791.863	0.0148042
791.942	0.0147306
792.020	0.0144969
792.098	0.0146827
792.176	0.0145347
792.254	0.0144877
792.332	0.0146777
792.410	0.0145783
792.488	0.0145154
792.567	0.0144508
792.645	0.0144818
792.723	0.0145551
792.801	0.0145552
792.879	0.0146121
792.957	0.0145657
793.035	0.0146458
793.113	0.0146273
793.192	0.0146223
793.270	0.0147147
793.348	0.0146795
793.426	0.0146925
793.504	0.0146037
793.582	0.0146488
793.660	0.0146764
793.738	0.0147222
793.817	0.0147128
793.895	0.0147630
793.973	0.0147430
794.051	0.0147976
794.129	0.0146938
794.207	0.0146423
794.285	0.0147660
794.363	0.0149976
794.442	0.0146821
794.520	0.0148285
794.598	0.0147935
794.676	0.0147855
794.754	0.0147234
794.832	0.0147552
794.910	0.0148884
794.988	0.0149586
795.067	0.0149695
795.145	0.0148610
795.223	0.0150083
795.301	0.0149012
795.379	0.0148885
795.457	0.0148267
795.535	0.0147449
795.613	0.0148711
795.692	0.0148365
795.770	0.0148396
795.848	0.0147605
795.926	0.0148619
796.004	0.0147638
796.082	0.0147167
796.160	0.0146342
796.238	0.0148040
796.317	0.0147999
796.395	0.0145603
796.473	0.0147558
796.551	0.0145924
796.629	0.0146555
796.707	0.0146997
796.785	0.0146754
796.863	0.0145903
796.942	0.0147288
797.020	0.0145877
797.098	0.0146667
797.176	0.0147742
797.254	0.0147039
797.332	0.0147033
797.410	0.0147953
797.488	0.0148741
797.567	0.0147239
797.645	0.0146418
797.723	0.0149100
797.801	0.0148020
797.879	0.0149104
797.957	0.0149126
798.035	0.0148419
798.113	0.0148663
798.192	0.0149937
798.270	0.0148376
798.348	0.0149474
798.426	0.0150613
798.504	0.0149939
798.582	0.0148351
798.660	0.0149284
798.738	0.0151742
798.817	0.0150043
798.895	0.0150280
798.973	0.0151372
799.051	0.0149872
799.129	0.0149417
799.207	0.0150091
799.285	0.0149123
799.363	0.0150035
799.442	0.0151422
799.520	0.0150645
799.598	0.0148845
799.676	0.0149092
799.754	0.0148604
799.832	0.0148162
799.910	0.0149408
799.988	0.0149639
800.067	0.0147585
800.145	0.0149573
800.223	0.0148768
800.301	0.0148919
800.379	0.0150092
800.457	0.0149016
800.535	0.0149742
800.613	0.0148882
800.692	0.0148914
800.770	0.0148992
800.848	0.0149850
800.926	0.0150245
801.004	0.0150114
801.082	0.0149043
801.160	0.0150353
801.238	0.0149049
801.317	0.0150024
801.395	0.0152292
801.473	0.0148205
801.551	0.0150115
801.629	0.0150700
801.707	0.0149133
801.785	0.0149777
801.863	0.0149580
801.942	0.0149898
802.020	0.0150856
802.098	0.0149957
802.176	0.0148380
802.254	0.0148367
802.332	0.0148502
802.410	0.0149268
802.488	0.0147875
802.567	0.0147884
802.645	0.0147862
802.723	0.0147993
802.801	0.0146946
802.879	0.0148682
802.957	0.0148056
803.035	0.0147688
803.113	0.0147745
803.192	0.0147618
803.270	0.0147988
803.348	0.0148145
803.426	0.0148865
803.504	0.0147988
803.582	0.0148714
803.660	0.0147354
803.738	0.0147155
803.817	0.0149018
803.895	0.0147318
803.973	0.0147064
804.051	0.0146831
804.129	0.0148540
804.207	0.0147418
804.285	0.0147540
804.363	0.0147555
804.442	0.0147224
804.520	0.0146127
804.598	0.0147019
804.676	0.0146692
804.754	0.0146058
804.832	0.0147559
804.910	0.0146875
804.988	0.0145596
805.067	0.0145150
805.145	0.0145546
805.223	0.0145379
805.301	0.0145105
805.379	0.0145906
805.457	0.0145248
805.535	0.0146117
805.613	0.0145586
805.692	0.0145520
805.770	0.0145607
805.848	0.0147359
805.926	0.0146676
806.004	0.0146453
806.082	0.0146973
806.160	0.0147564
806.238	0.0147156
806.317	0.0147215
806.395	0.0147105
806.473	0.0148322
806.551	0.0146608
806.629	0.0147851
806.707	0.0147412
806.785	0.0147745
806.863	0.0146969
806.942	0.0147769
807.020	0.0146835
807.098	0.0147036
807.176	0.0147723
807.254	0.0147085
807.332	0.0147843
807.410	0.0146510
807.488	0.0147376
807.567	0.0148103
807.645	0.0147179
807.723	0.0146255
807.801	0.0146523
807.879	0.0146729
807.957	0.0146691
808.035	0.0146609
808.113	0.0145399
808.192	0.0146671
808.270	0.0147259
808.348	0.0146819
808.426	0.0147073
808.504	0.0147589
808.582	0.0147213
808.660	0.0147568
808.738	0.0148703
808.817	0.0149001
808.895	0.0147745
808.973	0.0147700
809.051	0.0149593
809.129	0.0148685
809.207	0.0149574
809.285	0.0149788
809.363	0.0149216
809.442	0.0149984
809.520	0.0150117
809.598	0.0149713
809.676	0.0149342
809.754	0.0149348
809.832	0.0149488
809.910	0.0148328
809.988	0.0150388
810.067	0.0148465
810.145	0.0150325
810.223	0.0149343
810.301	0.0148304
810.379	0.0148541
810.457	0.0148027
810.535	0.0148156
810.613	0.0148322
810.692	0.0148093
810.770	0.0148497
810.848	0.0147192
810.926	0.0147337
811.004	0.0148770
811.082	0.0147318
811.160	0.0147775
811.238	0.0147733
811.317	0.0147756
811.395	0.0147660
811.473	0.0147133
811.551	0.0147524
811.629	0.0147217
811.707	0.0148398
811.785	0.0147404
811.863	0.0146810
811.942	0.0147291
812.020	0.0146996
812.098	0.0147535
812.176	0.0146460
812.254	0.0147474
812.332	0.0147164
812.410	0.0145805
812.488	0.0147342
812.567	0.0146419
812.645	0.0147060
812.723	0.0147090
812.801	0.0146567
812.879	0.0145736
812.957	0.0147144
813.035	0.0147128
813.113	0.0147476
813.192	0.0145634
813.270	0.0144810
813.348	0.0146535
813.426	0.0146204
813.504	0.0146165
813.582	0.0145773
813.660	0.0146529
813.738	0.0146803
813.817	0.0146452
813.895	0.0145266
813.973	0.0145171
814.051	0.0146737
814.129	0.0147812
814.207	0.0146030
814.285	0.0147334
814.363	0.0145335
814.442	0.0146109
814.520	0.0147033
814.598	0.0146721
814.676	0.0146919
814.754	0.0146834
814.832	0.0146886
814.910	0.0147358
814.988	0.0146629
815.067	0.0146638
815.145	0.0148448
815.223	0.0146532
815.301	0.0146885
815.379	0.0146376
815.457	0.0145908
815.535	0.0146476
815.613	0.0145781
815.692	0.0145615
815.770	0.0146861
815.848	0.0146440
815.926	0.0146381
816.004	0.0146037
816.082	0.0146032
816.160	0.0146570
816.238	0.0146229
816.317	0.0146881
816.395	0.0146759
816.473	0.0146604
816.551	0.0148504
816.629	0.0147147
816.707	0.0147187
816.785	0.0147559
816.863	0.0147486
816.942	0.0148308
817.020	0.0149354
817.098	0.0149698
817.176	0.0148598
817.254	0.0149869
817.332	0.0150497
817.410	0.0150677
817.488	0.0150954
817.567	0.0150589
817.645	0.0151115
817.723	0.0150970
817.801	0.0151337
817.879	0.0152623
817.957	0.0151231
818.035	0.0149502
818.113	0.0150639
818.192	0.0150797
818.270	0.0150127
818.348	0.0148815
818.426	0.0149577
818.504	0.0151358
818.582	0.0149455
818.660	0.0149313
818.738	0.0149384
818.817	0.0147867
818.895	0.0147630
818.973	0.0149198
819.051	0.0148685
819.129	0.0147016
819.207	0.0147684
819.285	0.0148192
819.363	0.0148290
819.442	0.0146888
819.520	0.0149567
819.598	0.0148872
819.676	0.0148926
819.754	0.0147831
819.832	0.0148450
819.910	0.0148183
819.988	0.0147865
820.067	0.0148010
820.145	0.0147516
820.223	0.0149161
820.301	0.0148647
820.379	0.0149759
820.457	0.0147331
820.535	0.0148672
820.613	0.0147954
820.692	0.0147723
820.770	0.0148394
820.848	0.0149084
820.926	0.0147662
821.004	0.0148621
821.082	0.0148953
821.160	0.0147908
821.238	0.0146651
821.317	0.0148256
821.395	0.0147156
821.473	0.0147311
821.551	0.0148673
821.629	0.0148299
821.707	0.0148808
821.785	0.0147495
821.863	0.0147899
821.942	0.0149080
822.020	0.0148801
822.098	0.0147825
822.176	0.0147883
822.254	0.0147095
822.332	0.0147638
822.410	0.0147438
822.488	0.0147538
822.567	0.0147729
822.645	0.0148203
822.723	0.0147228
822.801	0.0148154
822.879	0.0147910
822.957	0.0149271
823.035	0.0147745
823.113	0.0148134
823.192	0.0146891
823.270	0.0145415
823.348	0.0146500
823.426	0.0146992
823.504	0.0148642
823.582	0.0147894
823.660	0.0147469
823.738	0.0147904
823.817	0.0147268
823.895	0.0146818
823.973	0.0148215
824.051	0.0146788
824.129	0.0146894
824.207	0.0147208
824.285	0.0146800
824.363	0.0146526
824.442	0.0146817
824.520	0.0146686
824.598	0.0147540
824.676	0.0148149
824.754	0.0147189
824.832	0.0147697
824.910	0.0147276
824.988	0.0147296
825.067	0.0147661
825.145	0.0148665
825.223	0.0148643
825.301	0.0148092
825.379	0.0148611
825.457	0.0149114
825.535	0.0148924
825.613	0.0149438
825.692	0.0150000
825.770	0.0149059
825.848	0.0149950
825.926	0.0150738
826.004	0.0148978
826.082	0.0149120
826.160	0.0149818
826.238	0.0150581
826.317	0.0150200
826.395	0.0148764
826.473	0.0149795
826.551	0.0149699
826.629	0.0150217
826.707	0.0151369
826.785	0.0149434
826.863	0.0149438
826.942	0.0149841
827.020	0.0149438
827.098	0.0149292
827.176	0.0149673
827.254	0.0150549
827.332	0.0149273
827.410	0.0148769
827.488	0.0149420
827.567	0.0149374
827.645	0.0148820
827.723	0.0148514
827.801	0.0149135
827.879	0.0149289
827.957	0.0148923
828.035	0.0150275
828.113	0.0149626
828.192	0.0148167
828.270	0.0148006
828.348	0.0149437
828.426	0.0149356
828.504	0.0149223
828.582	0.0147637
828.660	0.0147507
828.738	0.0148282
828.817	0.0148158
828.895	0.0146889
828.973	0.0147714
829.051	0.0147314
829.129	0.0148705
829.207	0.0147408
829.285	0.0147838
829.363	0.0148570
829.442	0.0149114
829.520	0.0148081
829.598	0.0147764
829.676	0.0148891
829.754	0.0147639
829.832	0.0148238
829.910	0.0148215
829.988	0.0148445
830.067	0.0147850
830.145	0.0148142
830.223	0.0147474
830.301	0.0148213
830.379	0.0148032
830.457	0.0147383
830.535	0.0148426
830.613	0.0147126
830.692	0.0146616
830.770	0.0147530
830.848	0.0146948
830.926	0.0148615
831.004	0.0147997
831.082	0.0148122
831.160	0.0147662
831.238	0.0148679
831.317	0.0148113
831.395	0.0148101
831.473	0.0150343
831.551	0.0148843
831.629	0.0148565
831.707	0.0148615
831.785	0.0148750
831.863	0.0149284
831.942	0.0147790
832.020	0.0148634
832.098	0.0147469
832.176	0.0149088
832.254	0.0149238
832.332	0.0146901
832.410	0.0148125
832.488	0.0147601
832.567	0.0148645
832.645	0.0148589
832.723	0.0148214
832.801	0.0148195
832.879	0.0147874
832.957	0.0147289
833.035	0.0148724
833.113	0.0148794
833.192	0.0148203
833.270	0.0149607
833.348	0.0149064
833.426	0.0147822
833.504	0.0149134
833.582	0.0151094
833.660	0.0149726
833.738	0.0147948
833.817	0.0149077
833.895	0.0149480
833.973	0.0148933
834.051	0.0149460
834.129	0.0150363
834.207	0.0150225
834.285	0.0150066
834.363	0.0147956
834.442	0.0150157
834.520	0.0150463
834.598	0.0148506
834.676	0.0150967
834.754	0.0151283
834.832	0.0151419
834.910	0.0149637
834.988	0.0149329
835.067	0.0150321
835.145	0.0150538
835.223	0.0148893
835.301	0.0149946
835.379	0.0149132
835.457	0.0150062
835.535	0.0149389
835.613	0.0150105
835.692	0.0149995
835.770	0.0149671
835.848	0.0148958
835.926	0.0149564
836.004	0.0148615
836.082	0.0150536
836.160	0.0149962
836.238	0.0148565
836.317	0.0149817
836.395	0.0148347
836.473	0.0147834
836.551	0.0147793
836.629	0.0147767
836.707	0.0148235
836.785	0.0149198
836.863	0.0147768
836.942	0.0146386
837.020	0.0146709
837.098	0.0146623
837.176	0.0146983
837.254	0.0146609
837.332	0.0146487
837.410	0.0147858
837.488	0.0146906
837.567	0.0146452
837.645	0.0147074
837.723	0.0144402
837.801	0.0145401
837.879	0.0146169
837.957	0.0144816
838.035	0.0144742
838.113	0.0145178
838.192	0.0144451
838.270	0.0145111
838.348	0.0146390
838.426	0.0144672
838.504	0.0145956
838.582	0.0145197
838.660	0.0145829
838.738	0.0146657
838.817	0.0145534
838.895	0.0145432
838.973	0.0145568
839.051	0.0146188
839.129	0.0145526
839.207	0.0145607
839.285	0.0146484
839.363	0.0146951
839.442	0.0146758
839.520	0.0146463
839.598	0.0147014
839.676	0.0147125
839.754	0.0146743
839.832	0.0147445
839.910	0.0148038
839.988	0.0148520
840.067	0.0146600
840.145	0.0146207
840.223	0.0147478
840.301	0.0147958
840.379	0.0147890
840.457	0.0147346
840.535	0.0147128
840.613	0.0146998
840.692	0.0147961
840.770	0.0145455
840.848	0.0148417
840.926	0.0148083
841.004	0.0146827
841.082	0.0148441
841.160	0.0148914
841.238	0.0149194
841.317	0.0147754
841.395	0.0148853
841.473	0.0147795
841.551	0.0148536
841.629	0.0148598
841.707	0.0147939
841.785	0.0148516
841.863	0.0149920
841.942	0.0149448
842.020	0.0150571
842.098	0.0149625
842.176	0.0147465
842.254	0.0148955
842.332	0.0148842
842.410	0.0150000
842.488	0.0148751
842.567	0.0147666
842.645	0.0148006
842.723	0.0148714
842.801	0.0148467
842.879	0.0148344
842.957	0.0147913
843.035	0.0147566
843.113	0.0147125
843.192	0.0146124
843.270	0.0146635
843.348	0.0149387
843.426	0.0147703
843.504	0.0147984
843.582	0.0148104
843.660	0.0147513
843.738	0.0147147
843.817	0.0149031
843.895	0.0148703
843.973	0.0147982
844.051	0.0148584
844.129	0.0148217
844.207	0.0148760
844.285	0.0148782
844.363	0.0148672
844.442	0.0148085
844.520	0.0148180
844.598	0.0149755
844.676	0.0149360
844.754	0.0147351
844.832	0.0148459
844.910	0.0148295
844.988	0.0147493
845.067	0.0146577
845.145	0.0148306
845.223	0.0147810
845.301	0.0146344
845.379	0.0147237
845.457	0.0148183
845.535	0.0147691
845.613	0.0149889
845.692	0.0147836
845.770	0.0148714
845.848	0.0148853
845.926	0.0148563
846.004	0.0148196
846.082	0.0148536
846.160	0.0148695
846.238	0.0149078
846.317	0.0148881
846.395	0.0147825
846.473	0.0147691
846.551	0.0148709
846.629	0.0148212
846.707	0.0147984
846.785	0.0147086
846.863	0.0148940
846.942	0.0148775
847.020	0.0146785
847.098	0.0147032
847.176	0.0147413
847.254	0.0148003
847.332	0.0147771
847.410	0.0148147
847.488	0.0147197
847.567	0.0146449
847.645	0.0148366
847.723	0.0146568
847.801	0.0146003
847.879	0.0146703
847.957	0.0149203
848.035	0.0146572
848.113	0.0146987
848.192	0.0147475
848.270	0.0147205
848.348	0.0147227
848.426	0.0146478
848.504	0.0146948
848.582	0.0145705
848.660	0.0147437
848.738	0.0148746
848.817	0.0147477
848.895	0.0147055
848.973	0.0148877
849.051	0.0147810
849.129	0.0147987
849.207	0.0146479
849.285	0.0147701
849.363	0.0147707
849.442	0.0146685
849.520	0.0148535
849.598	0.0147536
849.676	0.0145758
849.754	0.0147150
849.832	0.0147185
849.910	0.0146840
849.988	0.0145519
850.067	0.0146087
850.145	0.0145386
850.223	0.0145952
850.301	0.0146242
850.379	0.0146124
850.457	0.0145547
850.535	0.0145506
850.613	0.0145609
850.692	0.0145786
850.770	0.0146165
850.848	0.0145831
850.926	0.0143770
851.004	0.0145615
851.082	0.0145034
851.160	0.0146371
851.238	0.0146545
851.317	0.0145200
851.395	0.0146387
851.473	0.0145554
851.551	0.0145765
851.629	0.0145183
851.707	0.0147004
851.785	0.0146077
851.863	0.0146649
851.942	0.0146636
852.020	0.0145525
852.098	0.0147428
852.176	0.0147543
852.254	0.0147537
852.332	0.0147014
852.410	0.0147612
852.488	0.0147494
852.567	0.0147596
852.645	0.0148119
852.723	0.0147575
852.801	0.0147681
852.879	0.0147581
852.957	0.0149089
853.035	0.0148646
853.113	0.0147389
853.192	0.0148706
853.270	0.0149179
853.348	0.0149680
853.426	0.0148607
853.504	0.0147475
853.582	0.0148730
853.660	0.0148417
853.738	0.0148216
853.817	0.0148498
853.895	0.0148055
853.973	0.0149363
854.051	0.0147388
854.129	0.0147523
854.207	0.0148621
854.285	0.0148879
854.363	0.0147044
854.442	0.0147813
854.520	0.0148489
854.598	0.0147217
854.676	0.0148213
854.754	0.0148519
854.832	0.0149396
854.910	0.0147882
854.988	0.0148643
855.067	0.0149429
855.145	0.0148293
855.223	0.0148508
855.301	0.0149143
855.379	0.0148730
855.457	0.0148817
855.535	0.0148968
855.613	0.0149409
855.692	0.0147490
855.770	0.0149041
855.848	0.0149245
855.926	0.0151216
856.004	0.0148460
856.082	0.0148270
856.160	0.0150497
856.238	0.0149532
856.317	0.0149134
856.395	0.0149610
856.473	0.0149348
856.551	0.0147236
856.629	0.0149681
856.707	0.0147723
856.785	0.0147919
856.863	0.0150100
856.942	0.0149422
857.020	0.0149159
857.098	0.0149215
857.176	0.0148762
857.254	0.0148753
857.332	0.0149168
857.410	0.0149255
857.488	0.0147887
857.567	0.0149104
857.645	0.0149213
857.723	0.0150147
857.801	0.0149909
857.879	0.0150034
857.957	0.0149789
858.035	0.0149445
858.113	0.0149973
858.192	0.0151057
858.270	0.0149995
858.348	0.0149051
858.426	0.0149706
858.504	0.0150477
858.582	0.0149219
858.660	0.0150393
858.738	0.0150124
858.817	0.0148958
858.895	0.0149422
858.973	0.0148915
859.051	0.0149318
859.129	0.0149498
859.207	0.0150046
859.285	0.0149805
859.363	0.0148363
859.442	0.0149278
859.520	0.0147900
859.598	0.0149075
859.676	0.0149244
859.754	0.0148045
859.832	0.0147705
859.910	0.0148309
859.988	0.0149110
860.067	0.0147659
860.145	0.0148553
860.223	0.0149703
860.301	0.0147512
860.379	0.0149634
860.457	0.0147298
860.535	0.0146925
860.613	0.0148734
860.692	0.0147632
860.770	0.0148779
860.848	0.0147401
860.926	0.0147478
861.004	0.0148748
861.082	0.0147322
861.160	0.0147375
861.238	0.0147134
861.317	0.0147743
861.395	0.0147598
861.473	0.0145938
861.551	0.0146159
861.629	0.0145768
861.707	0.0146613
861.785	0.0146460
861.863	0.0146632
861.942	0.0145886
862.020	0.0144367
862.098	0.0145834
862.176	0.0147083
862.254	0.0145853
862.332	0.0146043
862.410	0.0145831
862.488	0.0146749
862.567	0.0145712
862.645	0.0145757
862.723	0.0145551
862.801	0.0145142
862.879	0.0145248
862.957	0.0145850
863.035	0.0146309
863.113	0.0145359
863.192	0.0145957
863.270	0.0146518
863.348	0.0144801
863.426	0.0146179
863.504	0.0145832
863.582	0.0146369
863.660	0.0146763
863.738	0.0145354
863.817	0.0147710
863.895	0.0146272
863.973	0.0145613
864.051	0.0149267
864.129	0.0146179
864.207	0.0147008
864.285	0.0148691
864.363	0.0147414
864.442	0.0146844
864.520	0.0147404
864.598	0.0147839
864.676	0.0148286
864.754	0.0148707
864.832	0.0146917
864.910	0.0146021
864.988	0.0146301
865.067	0.0146901
865.145	0.0147203
865.223	0.0145863
865.301	0.0146368
865.379	0.0147477
865.457	0.0144427
865.535	0.0146462
865.613	0.0147401
865.692	0.0146765
865.770	0.0147272
865.848	0.0147309
865.926	0.0147134
866.004	0.0147269
866.082	0.0149183
866.160	0.0147456
866.238	0.0148048
866.317	0.0148518
866.395	0.0147107
866.473	0.0147821
866.551	0.0147834
866.629	0.0147765
866.707	0.0149338
866.785	0.0147815
866.863	0.0147376
866.942	0.0149184
867.020	0.0145850
867.098	0.0147371
867.176	0.0148235
867.254	0.0147768
867.332	0.0147321
867.410	0.0146675
867.488	0.0146958
867.567	0.0148141
867.645	0.0147659
867.723	0.0148176
867.801	0.0147867
867.879	0.0148463
867.957	0.0147770
868.035	0.0147920
868.113	0.0147107
868.192	0.0147987
868.270	0.0148767
868.348	0.0146512
868.426	0.0146970
868.504	0.0148256
868.582	0.0146949
868.660	0.0147340
868.738	0.0147693
868.817	0.0147440
868.895	0.0147643
868.973	0.0147086
869.051	0.0147144
869.129	0.0146785
869.207	0.0147628
869.285	0.0148968
869.363	0.0148561
869.442	0.0147088
869.520	0.0148992
869.598	0.0146653
869.676	0.0147149
869.754	0.0147494
869.832	0.0148026
869.910	0.0147844
869.988	0.0147706
870.067	0.0146519
870.145	0.0146188
870.223	0.0148278
870.301	0.0146803
870.379	0.0146332
870.457	0.0145673
870.535	0.0145808
870.613	0.0145502
870.692	0.0144992
870.770	0.0145815
870.848	0.0143835
870.926	0.0144904
871.004	0.0145486
871.082	0.0145598
871.160	0.0146170
871.238	0.0146632
871.317	0.0146229
871.395	0.0145040
871.473	0.0145020
871.551	0.0144028
871.629	0.0146079
871.707	0.0145358
871.785	0.0145037
871.863	0.0145453
871.942	0.0145901
872.020	0.0145805
872.098	0.0143693
872.176	0.0145641
872.254	0.0144919
872.332	0.0145416
872.410	0.0144542
872.488	0.0144653
872.567	0.0145557
872.645	0.0145132
872.723	0.0145683
872.801	0.0145826
872.879	0.0146304
872.957	0.0145092
873.035	0.0145204
873.113	0.0146047
873.192	0.0146306
873.270	0.0145998
873.348	0.0146349
873.426	0.0145947
873.504	0.0147282
873.582	0.0146902
873.660	0.0145799
873.738	0.0146401
873.817	0.0149010
873.895	0.0147517
873.973	0.0147221
874.051	0.0148589
874.129	0.0148544
874.207	0.0149798
874.285	0.0146668
874.363	0.0148347
874.442	0.0148116
874.520	0.0146442
874.598	0.0150135
874.676	0.0148022
874.754	0.0148474
874.832	0.0148052
874.910	0.0148437
874.988	0.0148791
875.067	0.0148124
875.145	0.0147645
875.223	0.0146739
875.301	0.0147941
875.379	0.0147976
875.457	0.0147903
875.535	0.0148282
875.613	0.0148378
875.692	0.0145747
875.770	0.0147033
875.848	0.0147421
875.926	0.0148794
876.004	0.0146544
876.082	0.0147539
876.160	0.0147739
876.238	0.0148147
876.317	0.0148003
876.395	0.0147649
876.473	0.0146465
876.551	0.0148273
876.629	0.0147603
876.707	0.0147903
876.785	0.0148769
876.863	0.0148476
876.942	0.0147832
877.020	0.0148988
877.098	0.0148291
877.176	0.0146741
877.254	0.0148924
877.332	0.0146510
877.410	0.0148159
877.488	0.0148353
877.567	0.0147461
877.645	0.0148050
877.723	0.0147397
877.801	0.0148067
877.879	0.0148339
877.957	0.0147758
878.035	0.0147216
878.113	0.0146767
878.192	0.0148615
878.270	0.0148293
878.348	0.0147531
878.426	0.0147256
878.504	0.0147394
878.582	0.0148523
878.660	0.0149213
878.738	0.0148961
878.817	0.0147762
878.895	0.0147556
878.973	0.0147661
879.051	0.0148585
879.129	0.0147912
879.207	0.0148108
879.285	0.0147399
879.363	0.0147749
879.442	0.0147119
879.520	0.0148508
879.598	0.0148066
879.676	0.0147491
879.754	0.0148289
879.832	0.0148620
879.910	0.0148076
879.988	0.0148193
880.067	0.0149203
880.145	0.0147765
880.223	0.0147749
880.301	0.0147990
880.379	0.0147612
880.457	0.0148222
880.535	0.0148021
880.613	0.0147279
880.692	0.0146547
880.770	0.0147449
880.848	0.0148016
880.926	0.0149541
881.004	0.0147640
881.082	0.0146742
881.160	0.0145773
881.238	0.0147807
881.317	0.0146902
881.395	0.0146555
881.473	0.0148199
881.551	0.0146485
881.629	0.0147996
881.707	0.0146490
881.785	0.0145889
881.863	0.0147247
881.942	0.0147299
882.020	0.0146462
882.098	0.0147530
882.176	0.0144656
882.254	0.0145921
882.332	0.0145323
882.410	0.0145683
882.488	0.0146735
882.567	0.0147045
882.645	0.0146743
882.723	0.0145837
882.801	0.0145827
882.879	0.0147668
882.957	0.0145149
883.035	0.0144482
883.113	0.0145795
883.192	0.0146487
883.270	0.0144407
883.348	0.0146654
883.426	0.0148381
883.504	0.0145847
883.582	0.0146592
883.660	0.0146164
883.738	0.0147329
883.817	0.0146842
883.895	0.0147777
883.973	0.0147800
884.051	0.0147458
884.129	0.0147872
884.207	0.0148122
884.285	0.0147749
884.363	0.0147572
884.442	0.0149393
884.520	0.0148911
884.598	0.0148289
884.676	0.0149033
884.754	0.0148699
884.832	0.0149552
884.910	0.0150703
884.988	0.0149281
885.067	0.0148783
885.145	0.0147945
885.223	0.0149291
885.301	0.0149143
885.379	0.0149939
885.457	0.0149566
885.535	0.0147980
885.613	0.0150521
885.692	0.0149304
885.770	0.0148924
885.848	0.0148750
885.926	0.0147562
886.004	0.0148882
886.082	0.0148885
886.160	0.0149113
886.238	0.0148045
886.317	0.0149749
886.395	0.0148708
886.473	0.0149919
886.551	0.0147197
886.629	0.0148889
886.707	0.0148685
886.785	0.0147790
886.863	0.0148328
886.942	0.0149263
887.020	0.0149559
887.098	0.0147295
887.176	0.0147736
887.254	0.0149472
887.332	0.0148946
887.410	0.0147586
887.488	0.0146925
887.567	0.0149028
887.645	0.0148495
887.723	0.0148645
887.801	0.0149490
887.879	0.0149397
887.957	0.0149243
888.035	0.0147433
888.113	0.0148127
888.192	0.0149853
888.270	0.0150356
888.348	0.0149132
888.426	0.0148974
888.504	0.0149666
888.582	0.0150879
888.660	0.0149849
888.738	0.0149548
888.817	0.0151399
888.895	0.0150047
888.973	0.0149621
889.051	0.0150420
889.129	0.0150061
889.207	0.0149289
889.285	0.0148344
889.363	0.0149064
889.442	0.0149635
889.520	0.0149447
889.598	0.0147318
889.676	0.0148048
889.754	0.0148499
889.832	0.0146511
889.910	0.0147073
889.988	0.0148312
890.067	0.0148461
890.145	0.0149002
890.223	0.0148151
890.301	0.0147049
890.379	0.0148304
890.457	0.0147491
890.535	0.0146768
890.613	0.0146651
890.692	0.0147225
890.770	0.0148566
890.848	0.0148023
890.926	0.0146307
891.004	0.0145278
891.082	0.0147588
891.160	0.0146428
891.238	0.0148033
891.317	0.0146542
891.395	0.0146091
891.473	0.0145222
891.551	0.0146357
891.629	0.0146523
891.707	0.0145668
891.785	0.0146313
891.863	0.0145924
891.942	0.0145657
892.020	0.0145495
892.098	0.0145540
892.176	0.0145147
892.254	0.0145842
892.332	0.0146476
892.410	0.0146085
892.488	0.0145609
892.567	0.0145797
892.645	0.0146783
892.723	0.0145599
892.801	0.0146143
892.879	0.0146329
892.957	0.0145313
893.035	0.0145369
893.113	0.0147929
893.192	0.0144650
893.270	0.0144975
893.348	0.0145617
893.426	0.0145886
893.504	0.0146432
893.582	0.0146944
893.660	0.0145239
893.738	0.0145828
893.817	0.0146155
893.895	0.0147168
893.973	0.0146291
894.051	0.0147200
894.129	0.0146670
894.207	0.0146348
894.285	0.0146715
894.363	0.0145951
894.442	0.0146039
894.520	0.0146242
894.598	0.0147042
894.676	0.0146819
894.754	0.0146181
894.832	0.0146252
894.910	0.0146951
894.988	0.0147047
895.067	0.0146301
895.145	0.0146437
895.223	0.0146674
895.301	0.0146991
895.379	0.0146075
895.457	0.0145788
895.535	0.0146112
895.613	0.0145854
895.692	0.0146241
895.770	0.0147470
895.848	0.0146965
895.926	0.0147598
896.004	0.0146538
896.082	0.0144689
896.160	0.0147638
896.238	0.0148710
896.317	0.0147646
896.395	0.0147832
896.473	0.0148464
896.551	0.0146809
896.629	0.0146417
896.707	0.0147697
896.785	0.0147520
896.863	0.0147865
896.942	0.0147002
897.020	0.0149376
897.098	0.0146990
897.176	0.0147392
897.254	0.0148245
897.332	0.0149326
897.410	0.0147154
897.488	0.0149083
897.567	0.0147620
897.645	0.0147908
897.723	0.0147356
897.801	0.0148416
897.879	0.0147859
897.957	0.0147113
898.035	0.0148976
898.113	0.0147017
898.192	0.0147347
898.270	0.0147456
898.348	0.0149295
898.426	0.0148216
898.504	0.0147917
898.582	0.0148531
898.660	0.0147282
898.738	0.0146999
898.817	0.0149975
898.895	0.0148240
898.973	0.0146561
899.051	0.0147939
899.129	0.0149232
899.207	0.0149207
899.285	0.0148827
899.363	0.0147511
899.442	0.0147081
899.520	0.0148254
899.598	0.0147797
899.676	0.0148792
899.754	0.0148853
899.832	0.0148136
899.910	0.0148298
899.988	0.0148163
900.067	0.0149474
900.145	0.0147931
900.223	0.0148416
900.301	0.0147634
900.379	0.0148480
900.457	0.0147265
900.535	0.0148702
900.613	0.0148670
900.692	0.0148146
900.770	0.0148631
900.848	0.0149751
900.926	0.0148687
901.004	0.0146964
901.082	0.0147586
901.160	0.0147182
901.238	0.0148013
901.317	0.0147953
901.395	0.0146671
901.473	0.0147952
901.551	0.0148668
901.629	0.0148009
901.707	0.0147282
901.785	0.0147095
901.863	0.0148895
901.942	0.0148447
902.020	0.0147942
902.098	0.0149559
902.176	0.0147672
902.254	0.0148590
902.332	0.0149614
902.410	0.0149408
902.488	0.0150478
902.567	0.0150008
902.645	0.0149860
902.723	0.0148904
902.801	0.0148013
902.879	0.0149348
902.957	0.0148168
903.035	0.0148431
903.113	0.0149046
903.192	0.0145919
903.270	0.0147078
903.348	0.0147646
903.426	0.0147524
903.504	0.0147865
903.582	0.0147469
903.660	0.0148148
903.738	0.0147159
903.817	0.0146790
903.895	0.0147031
903.973	0.0147393
904.051	0.0147472
904.129	0.0148418
904.207	0.0146728
904.285	0.0147856
904.363	0.0148169
904.442	0.0148928
904.520	0.0149307
904.598	0.0148862
904.676	0.0148397
904.754	0.0147568
904.832	0.0148702
904.910	0.0149184
904.988	0.0147996
905.067	0.0149955
905.145	0.0149577
905.223	0.0149077
905.301	0.0150195
905.379	0.0150660
905.457	0.0150214
905.535	0.0149489
905.613	0.0149497
905.692	0.0150340
905.770	0.0150635
905.848	0.0150915
905.926	0.0151237
906.004	0.0150436
906.082	0.0149596
906.160	0.0149805
906.238	0.0149947
906.317	0.0150528
906.395	0.0150397
906.473	0.0151122
906.551	0.0150853
906.629	0.0150208
906.707	0.0151211
906.785	0.0150342
906.863	0.0150568
906.942	0.0151213
907.020	0.0150452
907.098	0.0151970
907.176	0.0151376
907.254	0.0150771
907.332	0.0151256
907.410	0.0151223
907.488	0.0150382
907.567	0.0150269
907.645	0.0150460
907.723	0.0151105
907.801	0.0150687
907.879	0.0151261
907.957	0.0150292
908.035	0.0149730
908.113	0.0151019
908.192	0.0149681
908.270	0.0150080
908.348	0.0150057
908.426	0.0148913
908.504	0.0150703
908.582	0.0149908
908.660	0.0150413
908.738	0.0150690
908.817	0.0149790
908.895	0.0149995
908.973	0.0150087
909.051	0.0150439
909.129	0.0150082
909.207	0.0149300
909.285	0.0149313
909.363	0.0150034
909.442	0.0148135
909.520	0.0149549
909.598	0.0149167
909.676	0.0149103
909.754	0.0147488
909.832	0.0150368
909.910	0.0148795
909.988	0.0148950
910.067	0.0149242
910.145	0.0147856
910.223	0.0150420
910.301	0.0148685
910.379	0.0149271
910.457	0.0148379
910.535	0.0148226
910.613	0.0147789
910.692	0.0147827
910.770	0.0149457
910.848	0.0149416
910.926	0.0148177
911.004	0.0148567
911.082	0.0148950
911.160	0.0148614
911.238	0.0148016
911.317	0.0148744
911.395	0.0147518
911.473	0.0148651
911.551	0.0147353
911.629	0.0147090
911.707	0.0148496
911.785	0.0148727
911.863	0.0147566
911.942	0.0147845
912.020	0.0147713
912.098	0.0147321
912.176	0.0147288
912.254	0.0147363
912.332	0.0146976
912.410	0.0148396
912.488	0.0146893
912.567	0.0148229
912.645	0.0146011
912.723	0.0146753
912.801	0.0146439
912.879	0.0146571
912.957	0.0145518
913.035	0.0145964
913.113	0.0145899
913.192	0.0145806
913.270	0.0145818
913.348	0.0148027
913.426	0.0146150
913.504	0.0146486
913.582	0.0146652
913.660	0.0147059
913.738	0.0146758
913.817	0.0147740
913.895	0.0147873
913.973	0.0147308
914.051	0.0147598
914.129	0.0147539
914.207	0.0146799
914.285	0.0147338
914.363	0.0145927
914.442	0.0149084
914.520	0.0148187
914.598	0.0146839
914.676	0.0146881
914.754	0.0147052
914.832	0.0148557
914.910	0.0146835
914.988	0.0147555
915.067	0.0148363
915.145	0.0147923
915.223	0.0147568
915.301	0.0148500
915.379	0.0147526
915.457	0.0148443
915.535	0.0150297
915.613	0.0148251
915.692	0.0148335
915.770	0.0148533
915.848	0.0147680
915.926	0.0147557
916.004	0.0148402
916.082	0.0148201
916.160	0.0149311
916.238	0.0147778
916.317	0.0148146
916.395	0.0148893
916.473	0.0148974
916.551	0.0147324
916.629	0.0146705
916.707	0.0147279
916.785	0.0148968
916.863	0.0147150
916.942	0.0147379
917.020	0.0147247
917.098	0.0146698
917.176	0.0146356
917.254	0.0147382
917.332	0.0147516
917.410	0.0146270
917.488	0.0147151
917.567	0.0147235
917.645	0.0146822
917.723	0.0146484
917.801	0.0147511
917.879	0.0147930
917.957	0.0146838
918.035	0.0146913
918.113	0.0147799
918.192	0.0148500
918.270	0.0146826
918.348	0.0147872
918.426	0.0147524
918.504	0.0147102
918.582	0.0147723
918.660	0.0146944
918.738	0.0147918
918.817	0.0147164
918.895	0.0148238
918.973	0.0147184
919.051	0.0147604
919.129	0.0147577
919.207	0.0148525
919.285	0.0147039
919.363	0.0148573
919.442	0.0148803
919.520	0.0149444
919.598	0.0147710
919.676	0.0147758
919.754	0.0147353
919.832	0.0148794
919.910	0.0148819
