05/03/2022	20:02:51	Ver.	4.1	UNKNOWN
Optical Delay	660.009933	Delta X		0.078125	Sweeps	1	Scan Rate	0/0
Coordinates	Axis 1	NaN	Axis 2	NaN	Axis 3	NaN	Axis 4	NaN	Axis 5	NaN	Axis 6	0.000000
TX Power	0.000000	RX Power	0.000000

660.010	0.0143977
660.088	0.0143364
660.166	0.0143142
660.244	0.0144543
660.322	0.0144041
660.401	0.0144331
660.479	0.0145115
660.557	0.0142767
660.635	0.0143953
660.713	0.0143448
660.791	0.0144981
660.869	0.0144424
660.947	0.0144002
661.026	0.0144847
661.104	0.0145766
661.182	0.0144794
661.260	0.0144984
661.338	0.0144073
661.416	0.0143419
661.494	0.0143754
661.572	0.0143292
661.651	0.0142561
661.729	0.0144549
661.807	0.0144124
661.885	0.0144559
661.963	0.0143656
662.041	0.0142999
662.119	0.0144659
662.197	0.0145614
662.276	0.0144519
662.354	0.0145039
662.432	0.0145011
662.510	0.0144065
662.588	0.0144508
662.666	0.0144550
662.744	0.0143711
662.822	0.0144545
662.901	0.0144011
662.979	0.0143288
663.057	0.0144805
663.135	0.0143718
663.213	0.0144519
663.291	0.0144418
663.369	0.0143251
663.447	0.0144609
663.526	0.0143395
663.604	0.0143252
663.682	0.0143895
663.760	0.0143676
663.838	0.0143619
663.916	0.0143327
663.994	0.0144783
664.072	0.0144930
664.151	0.0144269
664.229	0.0143293
664.307	0.0145399
664.385	0.0143324
664.463	0.0144611
664.541	0.0144106
664.619	0.0144289
664.697	0.0144009
664.776	0.0143582
664.854	0.0144498
664.932	0.0144819
665.010	0.0144659
665.088	0.0144643
665.166	0.0144531
665.244	0.0143595
665.322	0.0145645
665.401	0.0144251
665.479	0.0144239
665.557	0.0145609
665.635	0.0144644
665.713	0.0143345
665.791	0.0144157
665.869	0.0144016
665.947	0.0145177
666.026	0.0144271
666.104	0.0144804
666.182	0.0144140
666.260	0.0144784
666.338	0.0144198
666.416	0.0143581
666.494	0.0145041
666.572	0.0144064
666.651	0.0143929
666.729	0.0144344
666.807	0.0143430
666.885	0.0144542
666.963	0.0145080
667.041	0.0143571
667.119	0.0144397
667.197	0.0144521
667.276	0.0144809
667.354	0.0143944
667.432	0.0145197
667.510	0.0143914
667.588	0.0144020
667.666	0.0144392
667.744	0.0145384
667.822	0.0143452
667.901	0.0144090
667.979	0.0143536
668.057	0.0143636
668.135	0.0144175
668.213	0.0144997
668.291	0.0144297
668.369	0.0143402
668.447	0.0143678
668.526	0.0144311
668.604	0.0142306
668.682	0.0145129
668.760	0.0144460
668.838	0.0142807
668.916	0.0143682
668.994	0.0145201
669.072	0.0142752
669.151	0.0143832
669.229	0.0144193
669.307	0.0143758
669.385	0.0144624
669.463	0.0144991
669.541	0.0145249
669.619	0.0143280
669.697	0.0143693
669.776	0.0144598
669.854	0.0144184
669.932	0.0144447
670.010	0.0144443
670.088	0.0143382
670.166	0.0144602
670.244	0.0143821
670.322	0.0144020
670.401	0.0144186
670.479	0.0144521
670.557	0.0144071
670.635	0.0143890
670.713	0.0143986
670.791	0.0142786
670.869	0.0143577
670.947	0.0144986
671.026	0.0144337
671.104	0.0143918
671.182	0.0144923
671.260	0.0144112
671.338	0.0144814
671.416	0.0144037
671.494	0.0143921
671.572	0.0143372
671.651	0.0142024
671.729	0.0144254
671.807	0.0144752
671.885	0.0143731
671.963	0.0144253
672.041	0.0143225
672.119	0.0144696
672.197	0.0144495
672.276	0.0143989
672.354	0.0144534
672.432	0.0143636
672.510	0.0143671
672.588	0.0143585
672.666	0.0142792
672.744	0.0144949
672.822	0.0145925
672.901	0.0144918
672.979	0.0143617
673.057	0.0143889
673.135	0.0144324
673.213	0.0143740
673.291	0.0144479
673.369	0.0143497
673.447	0.0143990
673.526	0.0143526
673.604	0.0144084
673.682	0.0144016
673.760	0.0143446
673.838	0.0144267
673.916	0.0144090
673.994	0.0143641
674.072	0.0144049
674.151	0.0143196
674.229	0.0143254
674.307	0.0143909
674.385	0.0142722
674.463	0.0143914
674.541	0.0144083
674.619	0.0143909
674.697	0.0144075
674.776	0.0143792
674.854	0.0144547
674.932	0.0144616
675.010	0.0145184
675.088	0.0146004
675.166	0.0143865
675.244	0.0143561
675.322	0.0144386
675.401	0.0142875
675.479	0.0144438
675.557	0.0145728
675.635	0.0144651
675.713	0.0144248
675.791	0.0146001
675.869	0.0143048
675.947	0.0142686
676.026	0.0145602
676.104	0.0143910
676.182	0.0143751
676.260	0.0144754
676.338	0.0144659
676.416	0.0143521
676.494	0.0143633
676.572	0.0142686
676.651	0.0143977
676.729	0.0143095
676.807	0.0144144
676.885	0.0143584
676.963	0.0143579
677.041	0.0144643
677.119	0.0142571
677.197	0.0143661
677.276	0.0142651
677.354	0.0144482
677.432	0.0145307
677.510	0.0144374
677.588	0.0143641
677.666	0.0144700
677.744	0.0144243
677.822	0.0144022
677.901	0.0143063
677.979	0.0144579
678.057	0.0144458
678.135	0.0143977
678.213	0.0143780
678.291	0.0142953
678.369	0.0144363
678.447	0.0144633
678.526	0.0144347
678.604	0.0143581
678.682	0.0144106
678.760	0.0145139
678.838	0.0143278
678.916	0.0143900
678.994	0.0144598
679.072	0.0145690
679.151	0.0144336
679.229	0.0143903
679.307	0.0143715
679.385	0.0144553
679.463	0.0144240
679.541	0.0144077
679.619	0.0145464
679.697	0.0143233
679.776	0.0143140
679.854	0.0144089
679.932	0.0144069
680.010	0.0144379
680.088	0.0143925
680.166	0.0143006
680.244	0.0145492
680.322	0.0143953
680.401	0.0144292
680.479	0.0143809
680.557	0.0144121
680.635	0.0143897
680.713	0.0143376
680.791	0.0144319
680.869	0.0143452
680.947	0.0144176
681.026	0.0144022
681.104	0.0143745
681.182	0.0144708
681.260	0.0144888
681.338	0.0144767
681.416	0.0144681
681.494	0.0144128
681.572	0.0143435
681.651	0.0144660
681.729	0.0143901
681.807	0.0143155
681.885	0.0143869
681.963	0.0144602
682.041	0.0143845
682.119	0.0143219
682.197	0.0143651
682.276	0.0144863
682.354	0.0143444
682.432	0.0144156
682.510	0.0144345
682.588	0.0145458
682.666	0.0145203
682.744	0.0144528
682.822	0.0144143
682.901	0.0143250
682.979	0.0144214
683.057	0.0145071
683.135	0.0144537
683.213	0.0143707
683.291	0.0142743
683.369	0.0145948
683.447	0.0145465
683.526	0.0144097
683.604	0.0144116
683.682	0.0144746
683.760	0.0144873
683.838	0.0144322
683.916	0.0143613
683.994	0.0143018
684.072	0.0143855
684.151	0.0144551
684.229	0.0144570
684.307	0.0145851
684.385	0.0143617
684.463	0.0143473
684.541	0.0142741
684.619	0.0144180
684.697	0.0145493
684.776	0.0143511
684.854	0.0143645
684.932	0.0144453
685.010	0.0145699
685.088	0.0145895
685.166	0.0144018
685.244	0.0145248
685.322	0.0144896
685.401	0.0144789
685.479	0.0144270
685.557	0.0144056
685.635	0.0144408
685.713	0.0144266
685.791	0.0144586
685.869	0.0144562
685.947	0.0144656
686.026	0.0143434
686.104	0.0144893
686.182	0.0143987
686.260	0.0144660
686.338	0.0144669
686.416	0.0144733
686.494	0.0144917
686.572	0.0144714
686.651	0.0144572
686.729	0.0143484
686.807	0.0143604
686.885	0.0144044
686.963	0.0144162
687.041	0.0145389
687.119	0.0145148
687.197	0.0143788
687.276	0.0143024
687.354	0.0145348
687.432	0.0145377
687.510	0.0143639
687.588	0.0144936
687.666	0.0144562
687.744	0.0144904
687.822	0.0144019
687.901	0.0145636
687.979	0.0145226
688.057	0.0144779
688.135	0.0143100
688.213	0.0144048
688.291	0.0144273
688.369	0.0145248
688.447	0.0143605
688.526	0.0145725
688.604	0.0145798
688.682	0.0144010
688.760	0.0144687
688.838	0.0144004
688.916	0.0143608
688.994	0.0143248
689.072	0.0143166
689.151	0.0144408
689.229	0.0145058
689.307	0.0143822
689.385	0.0144657
689.463	0.0144516
689.541	0.0144273
689.619	0.0144357
689.697	0.0144852
689.776	0.0143349
689.854	0.0143522
689.932	0.0144038
690.010	0.0143382
690.088	0.0143430
690.166	0.0145124
690.244	0.0143434
690.322	0.0143596
690.401	0.0143640
690.479	0.0144374
690.557	0.0144071
690.635	0.0142553
690.713	0.0144318
690.791	0.0144935
690.869	0.0144147
690.947	0.0142963
691.026	0.0145148
691.104	0.0145478
691.182	0.0143765
691.260	0.0144424
691.338	0.0144039
691.416	0.0145108
691.494	0.0143044
691.572	0.0144333
691.651	0.0143929
691.729	0.0143734
691.807	0.0143780
691.885	0.0142592
691.963	0.0143463
692.041	0.0143852
692.119	0.0143891
692.197	0.0142937
692.276	0.0144647
692.354	0.0145306
692.432	0.0144583
692.510	0.0143378
692.588	0.0144277
692.666	0.0144434
692.744	0.0144613
692.822	0.0144536
692.901	0.0143987
692.979	0.0144284
693.057	0.0144256
693.135	0.0144844
693.213	0.0143336
693.291	0.0144126
693.369	0.0144521
693.447	0.0144273
693.526	0.0144741
693.604	0.0144292
693.682	0.0143822
693.760	0.0143551
693.838	0.0144613
693.916	0.0143228
693.994	0.0142801
694.072	0.0144200
694.151	0.0142715
694.229	0.0143547
694.307	0.0144247
694.385	0.0143713
694.463	0.0143850
694.541	0.0144532
694.619	0.0143571
694.697	0.0142405
694.776	0.0143587
694.854	0.0145329
694.932	0.0143510
695.010	0.0143575
695.088	0.0144286
695.166	0.0144800
695.244	0.0143761
695.322	0.0143959
695.401	0.0143288
695.479	0.0145605
695.557	0.0144571
695.635	0.0144344
695.713	0.0143876
695.791	0.0143601
695.869	0.0143877
695.947	0.0144499
696.026	0.0143729
696.104	0.0143610
696.182	0.0142865
696.260	0.0142880
696.338	0.0144416
696.416	0.0142953
696.494	0.0143541
696.572	0.0143357
696.651	0.0144069
696.729	0.0143671
696.807	0.0146404
696.885	0.0145264
696.963	0.0144026
697.041	0.0144048
697.119	0.0144516
697.197	0.0144271
697.276	0.0144809
697.354	0.0144194
697.432	0.0143463
697.510	0.0143786
697.588	0.0143327
697.666	0.0143645
697.744	0.0143974
697.822	0.0145360
697.901	0.0144693
697.979	0.0145390
698.057	0.0144840
698.135	0.0144195
698.213	0.0144624
698.291	0.0143951
698.369	0.0143691
698.447	0.0143545
698.526	0.0144269
698.604	0.0144432
698.682	0.0144621
698.760	0.0144247
698.838	0.0145229
698.916	0.0144547
698.994	0.0143806
699.072	0.0144079
699.151	0.0143784
699.229	0.0143591
699.307	0.0143889
699.385	0.0143151
699.463	0.0144474
699.541	0.0144806
699.619	0.0143763
699.697	0.0144848
699.776	0.0143427
699.854	0.0142623
699.932	0.0143858
700.010	0.0144844
700.088	0.0144484
700.166	0.0143777
700.244	0.0143622
700.322	0.0144604
700.401	0.0143576
700.479	0.0144971
700.557	0.0143773
700.635	0.0144164
700.713	0.0143925
700.791	0.0142804
700.869	0.0144189
700.947	0.0143044
701.026	0.0143538
701.104	0.0144489
701.182	0.0145287
701.260	0.0144347
701.338	0.0143133
701.416	0.0144257
701.494	0.0143671
701.572	0.0144643
701.651	0.0143806
701.729	0.0144873
701.807	0.0144976
701.885	0.0144559
701.963	0.0143711
702.041	0.0143865
702.119	0.0144881
702.197	0.0143648
702.276	0.0144373
702.354	0.0145393
702.432	0.0146198
702.510	0.0143835
702.588	0.0145258
702.666	0.0144103
702.744	0.0144709
702.822	0.0145551
702.901	0.0143908
702.979	0.0143315
703.057	0.0145737
703.135	0.0145055
703.213	0.0144395
703.291	0.0144878
703.369	0.0146323
703.447	0.0144202
703.526	0.0146080
703.604	0.0145295
703.682	0.0145261
703.760	0.0143385
703.838	0.0143117
703.916	0.0142681
703.994	0.0142721
704.072	0.0143185
704.151	0.0144349
704.229	0.0145185
704.307	0.0142046
704.385	0.0145114
704.463	0.0143962
704.541	0.0144013
704.619	0.0143431
704.697	0.0142747
704.776	0.0143438
704.854	0.0144830
704.932	0.0144872
705.010	0.0144151
705.088	0.0144884
705.166	0.0146015
705.244	0.0146437
705.322	0.0145715
705.401	0.0146395
705.479	0.0146398
705.557	0.0147119
705.635	0.0148752
705.713	0.0147427
705.791	0.0146555
705.869	0.0148701
705.947	0.0148302
706.026	0.0147614
706.104	0.0148106
706.182	0.0148562
706.260	0.0149212
706.338	0.0146399
706.416	0.0145963
706.494	0.0146021
706.572	0.0145660
706.651	0.0146368
706.729	0.0144849
706.807	0.0143771
706.885	0.0144744
706.963	0.0144178
707.041	0.0143693
707.119	0.0145269
707.197	0.0142783
707.276	0.0144175
707.354	0.0144242
707.432	0.0142918
707.510	0.0141711
707.588	0.0141769
707.666	0.0143707
707.744	0.0144318
707.822	0.0142882
707.901	0.0142864
707.979	0.0142950
708.057	0.0143478
708.135	0.0140613
708.213	0.0142552
708.291	0.0140061
708.369	0.0138899
708.447	0.0139399
708.526	0.0137136
708.604	0.0135588
708.682	0.0134234
708.760	0.0131917
708.838	0.0129905
708.916	0.0126367
708.994	0.0122819
709.072	0.0118994
709.151	0.0114893
709.229	0.0111208
709.307	0.0110352
709.385	0.0110452
709.463	0.0112167
709.541	0.0117137
709.619	0.0122984
709.697	0.0131187
709.776	0.0139394
709.854	0.0148829
709.932	0.0157314
710.010	0.0164767
710.088	0.0170747
710.166	0.0175438
710.244	0.0177793
710.322	0.0179918
710.401	0.0179422
710.479	0.0175615
710.557	0.0171471
710.635	0.0169878
710.713	0.0165823
710.791	0.0163399
710.869	0.0161842
710.947	0.0159755
711.026	0.0160674
711.104	0.0159465
711.182	0.0157536
711.260	0.0155237
711.338	0.0153256
711.416	0.0153337
711.494	0.0152351
711.572	0.0154907
711.651	0.0156862
711.729	0.0159563
711.807	0.0164365
711.885	0.0171487
711.963	0.0177513
712.041	0.0179687
712.119	0.0180501
712.197	0.0178178
712.276	0.0172078
712.354	0.0161066
712.432	0.0148515
712.510	0.0133620
712.588	0.0118642
712.666	0.0103840
712.744	0.00900055
712.822	0.00782402
712.901	0.00673447
712.979	0.00614792
713.057	0.00569588
713.135	0.00540138
713.213	0.00551949
713.291	0.00562759
713.369	0.00600266
713.447	0.00691261
713.526	0.00779564
713.604	0.00900902
713.682	0.0104577
713.760	0.0120683
713.838	0.0136127
713.916	0.0152561
713.994	0.0169953
714.072	0.0186346
714.151	0.0204884
714.229	0.0221360
714.307	0.0234860
714.385	0.0250053
714.463	0.0259472
714.541	0.0265034
714.619	0.0268610
714.697	0.0265766
714.776	0.0258958
714.854	0.0249301
714.932	0.0235551
715.010	0.0217337
715.088	0.0197589
715.166	0.0177651
715.244	0.0154490
715.322	0.0133456
715.401	0.0113200
715.479	0.00941315
715.557	0.00805702
715.635	0.00667084
715.713	0.00582039
715.791	0.00541878
715.869	0.00513481
715.947	0.00512527
716.026	0.00548538
716.104	0.00593857
716.182	0.00658844
716.260	0.00737656
716.338	0.00820541
716.416	0.00934448
716.494	0.0103786
716.572	0.0113164
716.651	0.0122398
716.729	0.0131123
716.807	0.0139303
716.885	0.0147273
716.963	0.0155768
717.041	0.0163244
717.119	0.0168027
717.197	0.0171560
717.276	0.0174454
717.354	0.0180830
717.432	0.0185542
717.510	0.0188306
717.588	0.0191801
717.666	0.0194161
717.744	0.0195025
717.822	0.0195974
717.901	0.0195291
717.979	0.0193505
718.057	0.0191997
718.135	0.0188161
718.213	0.0184595
718.291	0.0179638
718.369	0.0173951
718.447	0.0169094
718.526	0.0163704
718.604	0.0157188
718.682	0.0152711
718.760	0.0148173
718.838	0.0142767
718.916	0.0140479
718.994	0.0137338
719.072	0.0131546
719.151	0.0129778
719.229	0.0126512
719.307	0.0122730
719.385	0.0119982
719.463	0.0118524
719.541	0.0113609
719.619	0.0111976
719.697	0.0110374
719.776	0.0106867
719.854	0.0105654
719.932	0.0103563
720.010	0.0104061
720.088	0.0102254
720.166	0.0101661
720.244	0.0102202
720.322	0.0103901
720.401	0.0104375
720.479	0.0104350
720.557	0.0106992
720.635	0.0109830
720.713	0.0112622
720.791	0.0116016
720.869	0.0120575
720.947	0.0126319
721.026	0.0129523
721.104	0.0135835
721.182	0.0143085
721.260	0.0149446
721.338	0.0155280
721.416	0.0161342
721.494	0.0166640
721.572	0.0172470
721.651	0.0174522
721.729	0.0178879
721.807	0.0179591
721.885	0.0181466
721.963	0.0182300
722.041	0.0182611
722.119	0.0182346
722.197	0.0181536
722.276	0.0180606
722.354	0.0178167
722.432	0.0179373
722.510	0.0177963
722.588	0.0175945
722.666	0.0175330
722.744	0.0174168
722.822	0.0172955
722.901	0.0169336
722.979	0.0166097
723.057	0.0165348
723.135	0.0162514
723.213	0.0157846
723.291	0.0154369
723.369	0.0150768
723.447	0.0148526
723.526	0.0146150
723.604	0.0142648
723.682	0.0138715
723.760	0.0135761
723.838	0.0132349
723.916	0.0130644
723.994	0.0124250
724.072	0.0118493
724.151	0.0116694
724.229	0.0111501
724.307	0.0108508
724.385	0.0104963
724.463	0.0102004
724.541	0.0100311
724.619	0.00985672
724.697	0.00980133
724.776	0.00974335
724.854	0.00995407
724.932	0.0100764
725.010	0.0103262
725.088	0.0108882
725.166	0.0112337
725.244	0.0115963
725.322	0.0120265
725.401	0.0124495
725.479	0.0129328
725.557	0.0132658
725.635	0.0136651
725.713	0.0142621
725.791	0.0146838
725.869	0.0152086
725.947	0.0157191
726.026	0.0159973
726.104	0.0165302
726.182	0.0169050
726.260	0.0172315
726.338	0.0174605
726.416	0.0176943
726.494	0.0177197
726.572	0.0178771
726.651	0.0178455
726.729	0.0179237
726.807	0.0176936
726.885	0.0175800
726.963	0.0174503
727.041	0.0173387
727.119	0.0171424
727.197	0.0170354
727.276	0.0169129
727.354	0.0166326
727.432	0.0164308
727.510	0.0161753
727.588	0.0160357
727.666	0.0159939
727.744	0.0157180
727.822	0.0156673
727.901	0.0156203
727.979	0.0153752
728.057	0.0151935
728.135	0.0151289
728.213	0.0149682
728.291	0.0147207
728.369	0.0146250
728.447	0.0145589
728.526	0.0145360
728.604	0.0146027
728.682	0.0145295
728.760	0.0143687
728.838	0.0142375
728.916	0.0141201
728.994	0.0140057
729.072	0.0135949
729.151	0.0132980
729.229	0.0131384
729.307	0.0129409
729.385	0.0124082
729.463	0.0123962
729.541	0.0121494
729.619	0.0120918
729.697	0.0120281
729.776	0.0116633
729.854	0.0116363
729.932	0.0116011
730.010	0.0114357
730.088	0.0112051
730.166	0.0111159
730.244	0.0110306
730.322	0.0111634
730.401	0.0111872
730.479	0.0112433
730.557	0.0115010
730.635	0.0117123
730.713	0.0119327
730.791	0.0120262
730.869	0.0123953
730.947	0.0126779
731.026	0.0129742
731.104	0.0134142
731.182	0.0137675
731.260	0.0140137
731.338	0.0143658
731.416	0.0148265
731.494	0.0150289
731.572	0.0153556
731.651	0.0156175
731.729	0.0157577
731.807	0.0161983
731.885	0.0164016
731.963	0.0165643
732.041	0.0168384
732.119	0.0171976
732.197	0.0174085
732.276	0.0177759
732.354	0.0178597
732.432	0.0179833
732.510	0.0180315
732.588	0.0180712
732.666	0.0180989
732.744	0.0178778
732.822	0.0177300
732.901	0.0175835
732.979	0.0172543
733.057	0.0169890
733.135	0.0168057
733.213	0.0164175
733.291	0.0162505
733.369	0.0160878
733.447	0.0157279
733.526	0.0154380
733.604	0.0149286
733.682	0.0147734
733.760	0.0144870
733.838	0.0142557
733.916	0.0141428
733.994	0.0139794
734.072	0.0139127
734.151	0.0136962
734.229	0.0137162
734.307	0.0134906
734.385	0.0133923
734.463	0.0133993
734.541	0.0131721
734.619	0.0130685
734.697	0.0129025
734.776	0.0126109
734.854	0.0125211
734.932	0.0123862
735.010	0.0120508
735.088	0.0119314
735.166	0.0119686
735.244	0.0118739
735.322	0.0117350
735.401	0.0116634
735.479	0.0115902
735.557	0.0116586
735.635	0.0117715
735.713	0.0118945
735.791	0.0119983
735.869	0.0123008
735.947	0.0122645
736.026	0.0125610
736.104	0.0127375
736.182	0.0129758
736.260	0.0132613
736.338	0.0136275
736.416	0.0139370
736.494	0.0140538
736.572	0.0143282
736.651	0.0146290
736.729	0.0149422
736.807	0.0148945
736.885	0.0152387
736.963	0.0152898
737.041	0.0154169
737.119	0.0155956
737.197	0.0154109
737.276	0.0154617
737.354	0.0154680
737.432	0.0154547
737.510	0.0153326
737.588	0.0153340
737.666	0.0153082
737.744	0.0155013
737.822	0.0155602
737.901	0.0153617
737.979	0.0156438
738.057	0.0157363
738.135	0.0157882
738.213	0.0158193
738.291	0.0156707
738.369	0.0157451
738.447	0.0157749
738.526	0.0156729
738.604	0.0157378
738.682	0.0157600
738.760	0.0156655
738.838	0.0156352
738.916	0.0155757
738.994	0.0155091
739.072	0.0154161
739.151	0.0152517
739.229	0.0151390
739.307	0.0151327
739.385	0.0150996
739.463	0.0150178
739.541	0.0148432
739.619	0.0147427
739.697	0.0148320
739.776	0.0149653
739.854	0.0147330
739.932	0.0147559
740.010	0.0146751
740.088	0.0147895
740.166	0.0147086
740.244	0.0147060
740.322	0.0146346
740.401	0.0146279
740.479	0.0144461
740.557	0.0143869
740.635	0.0142740
740.713	0.0141055
740.791	0.0138312
740.869	0.0136119
740.947	0.0134376
741.026	0.0130777
741.104	0.0129758
741.182	0.0127626
741.260	0.0126980
741.338	0.0125294
741.416	0.0124253
741.494	0.0123888
741.572	0.0124819
741.651	0.0123717
741.729	0.0126378
741.807	0.0126702
741.885	0.0125500
741.963	0.0128658
742.041	0.0130399
742.119	0.0130746
742.197	0.0130690
742.276	0.0131533
742.354	0.0132585
742.432	0.0134456
742.510	0.0135572
742.588	0.0134582
742.666	0.0134982
742.744	0.0135584
742.822	0.0136133
742.901	0.0136248
742.979	0.0136333
743.057	0.0137979
743.135	0.0139051
743.213	0.0139249
743.291	0.0139384
743.369	0.0139774
743.447	0.0141460
743.526	0.0143572
743.604	0.0145014
743.682	0.0147337
743.760	0.0148542
743.838	0.0151208
743.916	0.0152556
743.994	0.0153741
744.072	0.0157762
744.151	0.0159481
744.229	0.0159521
744.307	0.0160783
744.385	0.0161754
744.463	0.0162928
744.541	0.0164281
744.619	0.0165717
744.697	0.0167080
744.776	0.0165923
744.854	0.0165076
744.932	0.0165268
745.010	0.0164859
745.088	0.0162946
745.166	0.0160611
745.244	0.0159710
745.322	0.0159179
745.401	0.0156937
745.479	0.0156100
745.557	0.0155602
745.635	0.0152385
745.713	0.0151174
745.791	0.0150201
745.869	0.0146420
745.947	0.0146435
746.026	0.0144286
746.104	0.0144644
746.182	0.0141408
746.260	0.0140630
746.338	0.0140237
746.416	0.0140104
746.494	0.0139035
746.572	0.0137358
746.651	0.0136559
746.729	0.0134540
746.807	0.0134364
746.885	0.0134164
746.963	0.0131155
747.041	0.0129909
747.119	0.0130755
747.197	0.0130026
747.276	0.0129678
747.354	0.0129813
747.432	0.0128903
747.510	0.0130352
747.588	0.0128536
747.666	0.0129523
747.744	0.0129488
747.822	0.0129294
747.901	0.0130412
747.979	0.0130234
748.057	0.0130518
748.135	0.0130814
748.213	0.0131477
748.291	0.0132262
748.369	0.0131976
748.447	0.0134153
748.526	0.0134340
748.604	0.0135118
748.682	0.0137112
748.760	0.0138380
748.838	0.0139666
748.916	0.0140688
748.994	0.0142163
749.072	0.0143828
749.151	0.0145686
749.229	0.0146074
749.307	0.0147457
749.385	0.0147570
749.463	0.0148990
749.541	0.0149991
749.619	0.0150474
749.697	0.0150128
749.776	0.0151756
749.854	0.0150760
749.932	0.0151082
750.010	0.0151723
750.088	0.0151852
750.166	0.0151513
750.244	0.0152274
750.322	0.0152481
750.401	0.0152396
750.479	0.0152341
750.557	0.0151331
750.635	0.0151140
750.713	0.0151256
750.791	0.0151478
750.869	0.0150718
750.947	0.0150016
751.026	0.0149628
751.104	0.0148832
751.182	0.0150259
751.260	0.0150676
751.338	0.0150773
751.416	0.0151571
751.494	0.0151161
751.572	0.0151682
751.651	0.0153883
751.729	0.0153960
751.807	0.0151955
751.885	0.0152871
751.963	0.0153725
752.041	0.0153054
752.119	0.0152418
752.197	0.0152274
752.276	0.0153019
752.354	0.0152699
752.432	0.0153307
752.510	0.0152679
752.588	0.0152429
752.666	0.0150003
752.744	0.0150027
752.822	0.0148837
752.901	0.0148469
752.979	0.0147157
753.057	0.0144965
753.135	0.0145307
753.213	0.0144749
753.291	0.0142807
753.369	0.0139585
753.447	0.0137684
753.526	0.0137379
753.604	0.0136098
753.682	0.0134938
753.760	0.0133597
753.838	0.0131705
753.916	0.0130649
753.994	0.0131767
754.072	0.0130301
754.151	0.0129612
754.229	0.0129530
754.307	0.0128754
754.385	0.0128497
754.463	0.0129392
754.541	0.0128289
754.619	0.0129247
754.697	0.0129282
754.776	0.0129642
754.854	0.0131005
754.932	0.0129863
755.010	0.0130296
755.088	0.0131438
755.166	0.0133089
755.244	0.0134333
755.322	0.0133813
755.401	0.0135361
755.479	0.0137074
755.557	0.0138577
755.635	0.0138783
755.713	0.0139297
755.791	0.0142188
755.869	0.0143829
755.947	0.0143291
756.026	0.0144167
756.104	0.0145191
756.182	0.0145802
756.260	0.0145563
756.338	0.0148261
756.416	0.0149489
756.494	0.0149824
756.572	0.0149577
756.651	0.0151071
756.729	0.0152132
756.807	0.0152921
756.885	0.0154839
756.963	0.0155256
757.041	0.0156450
757.119	0.0156508
757.197	0.0157667
757.276	0.0158833
757.354	0.0158345
757.432	0.0158883
757.510	0.0158946
757.588	0.0157140
757.666	0.0158170
757.744	0.0157252
757.822	0.0156490
757.901	0.0156216
757.979	0.0154757
758.057	0.0154892
758.135	0.0152309
758.213	0.0150368
758.291	0.0150526
758.369	0.0148343
758.447	0.0147091
758.526	0.0146493
758.604	0.0145232
758.682	0.0144473
758.760	0.0143378
758.838	0.0143600
758.916	0.0141512
758.994	0.0141215
759.072	0.0142199
759.151	0.0142565
759.229	0.0142060
759.307	0.0140673
759.385	0.0141993
759.463	0.0141257
759.541	0.0141722
759.619	0.0141942
759.697	0.0142791
759.776	0.0143362
759.854	0.0143867
759.932	0.0143745
760.010	0.0143590
760.088	0.0143160
760.166	0.0142363
760.244	0.0142538
760.322	0.0142933
760.401	0.0141570
760.479	0.0141368
760.557	0.0140022
760.635	0.0138096
760.713	0.0137489
760.791	0.0135194
760.869	0.0135345
760.947	0.0133144
761.026	0.0132986
761.104	0.0134215
761.182	0.0131728
761.260	0.0131020
761.338	0.0131398
761.416	0.0133029
761.494	0.0133901
761.572	0.0133006
761.651	0.0134708
761.729	0.0136136
761.807	0.0136532
761.885	0.0137093
761.963	0.0138199
762.041	0.0140023
762.119	0.0139281
762.197	0.0140842
762.276	0.0141412
762.354	0.0141355
762.432	0.0143267
762.510	0.0143679
762.588	0.0144357
762.666	0.0144366
762.744	0.0146774
762.822	0.0145932
762.901	0.0146709
762.979	0.0147894
763.057	0.0149013
763.135	0.0150077
763.213	0.0149735
763.291	0.0150389
763.369	0.0150128
763.447	0.0151228
763.526	0.0152228
763.604	0.0151704
763.682	0.0151070
763.760	0.0152308
763.838	0.0152882
763.916	0.0150076
763.994	0.0150314
764.072	0.0150809
764.151	0.0150904
764.229	0.0151028
764.307	0.0150838
764.385	0.0150813
764.463	0.0150655
764.541	0.0151328
764.619	0.0149662
764.697	0.0151038
764.776	0.0150645
764.854	0.0151052
764.932	0.0148412
765.010	0.0149257
765.088	0.0149785
765.166	0.0148727
765.244	0.0147152
765.322	0.0147637
765.401	0.0147541
765.479	0.0146725
765.557	0.0146146
765.635	0.0144943
765.713	0.0144642
765.791	0.0143833
765.869	0.0143568
765.947	0.0143703
766.026	0.0141602
766.104	0.0141454
766.182	0.0142476
766.260	0.0139369
766.338	0.0140675
766.416	0.0139374
766.494	0.0140200
766.572	0.0138672
766.651	0.0139482
766.729	0.0139736
766.807	0.0138934
766.885	0.0139417
766.963	0.0140398
767.041	0.0138124
767.119	0.0138651
767.197	0.0140488
767.276	0.0139740
767.354	0.0137950
767.432	0.0137921
767.510	0.0137476
767.588	0.0139810
767.666	0.0138428
767.744	0.0137370
767.822	0.0136702
767.901	0.0136967
767.979	0.0136988
768.057	0.0136950
768.135	0.0137375
768.213	0.0137387
768.291	0.0137431
768.369	0.0137931
768.447	0.0138928
768.526	0.0137920
768.604	0.0139251
768.682	0.0138821
768.760	0.0139877
768.838	0.0141179
768.916	0.0139960
768.994	0.0139807
769.072	0.0141406
769.151	0.0140748
769.229	0.0141700
769.307	0.0143192
769.385	0.0144124
769.463	0.0143848
769.541	0.0143723
769.619	0.0144904
769.697	0.0145974
769.776	0.0146666
769.854	0.0145587
769.932	0.0147888
770.010	0.0148798
770.088	0.0148466
770.166	0.0147975
770.244	0.0149846
770.322	0.0148756
770.401	0.0148982
770.479	0.0151992
770.557	0.0150100
770.635	0.0149792
770.713	0.0150861
770.791	0.0151333
770.869	0.0150747
770.947	0.0149876
771.026	0.0149184
771.104	0.0149717
771.182	0.0149467
771.260	0.0149507
771.338	0.0149323
771.416	0.0149445
771.494	0.0148189
771.572	0.0147124
771.651	0.0148678
771.729	0.0147523
771.807	0.0147391
771.885	0.0146207
771.963	0.0145672
772.041	0.0147887
772.119	0.0147784
772.197	0.0147340
772.276	0.0147320
772.354	0.0147447
772.432	0.0147461
772.510	0.0147115
772.588	0.0148738
772.666	0.0147517
772.744	0.0147081
772.822	0.0148522
772.901	0.0147178
772.979	0.0148381
773.057	0.0148187
773.135	0.0147259
773.213	0.0146305
773.291	0.0145612
773.369	0.0145716
773.447	0.0144042
773.526	0.0143566
773.604	0.0144208
773.682	0.0143180
773.760	0.0142679
773.838	0.0142133
773.916	0.0141641
773.994	0.0140041
774.072	0.0140699
774.151	0.0139288
774.229	0.0136316
774.307	0.0137132
774.385	0.0137705
774.463	0.0135949
774.541	0.0134643
774.619	0.0133736
774.697	0.0133132
774.776	0.0133605
774.854	0.0132753
774.932	0.0133802
775.010	0.0132597
775.088	0.0131649
775.166	0.0131902
775.244	0.0134030
775.322	0.0135388
775.401	0.0134953
775.479	0.0136168
775.557	0.0136945
775.635	0.0138129
775.713	0.0140657
775.791	0.0141045
775.869	0.0141254
775.947	0.0142467
776.026	0.0143961
776.104	0.0143044
776.182	0.0144510
776.260	0.0144989
776.338	0.0146523
776.416	0.0144946
776.494	0.0145922
776.572	0.0148060
776.651	0.0146269
776.729	0.0147582
776.807	0.0148073
776.885	0.0146975
776.963	0.0147913
777.041	0.0148586
777.119	0.0149479
777.197	0.0148690
777.276	0.0149235
777.354	0.0149868
777.432	0.0151895
777.510	0.0150020
777.588	0.0150473
777.666	0.0150595
777.744	0.0153525
777.822	0.0152013
777.901	0.0151154
777.979	0.0151020
778.057	0.0150917
778.135	0.0152850
778.213	0.0150806
778.291	0.0150925
778.369	0.0149789
778.447	0.0150175
778.526	0.0150765
778.604	0.0148865
778.682	0.0148946
778.760	0.0148209
778.838	0.0147646
778.916	0.0148026
778.994	0.0147361
779.072	0.0146075
779.151	0.0146365
779.229	0.0146548
779.307	0.0145394
779.385	0.0146145
779.463	0.0146610
779.541	0.0145749
779.619	0.0146523
779.697	0.0146465
779.776	0.0146259
779.854	0.0146416
779.932	0.0146487
780.010	0.0144984
780.088	0.0145892
780.166	0.0145067
780.244	0.0145414
780.322	0.0146531
780.401	0.0144990
780.479	0.0144843
780.557	0.0143993
780.635	0.0143336
780.713	0.0144333
780.791	0.0142233
780.869	0.0141969
780.947	0.0141616
781.026	0.0142121
781.104	0.0140688
781.182	0.0141181
781.260	0.0140569
781.338	0.0139705
781.416	0.0138766
781.494	0.0139280
781.572	0.0138206
781.651	0.0139606
781.729	0.0139032
781.807	0.0138406
781.885	0.0138532
781.963	0.0138894
782.041	0.0138467
782.119	0.0139223
782.197	0.0137794
782.276	0.0139812
782.354	0.0139363
782.432	0.0139603
782.510	0.0140372
782.588	0.0139258
782.666	0.0140380
782.744	0.0141783
782.822	0.0140647
782.901	0.0140894
782.979	0.0140615
783.057	0.0140642
783.135	0.0141984
783.213	0.0143538
783.291	0.0142648
783.369	0.0143818
783.447	0.0143819
783.526	0.0144166
783.604	0.0143792
783.682	0.0144568
783.760	0.0147294
783.838	0.0146098
783.916	0.0146116
783.994	0.0147639
784.072	0.0148534
784.151	0.0146854
784.229	0.0149133
784.307	0.0148375
784.385	0.0149327
784.463	0.0149641
784.541	0.0150916
784.619	0.0148804
784.697	0.0149868
784.776	0.0150001
784.854	0.0149195
784.932	0.0149406
785.010	0.0150188
785.088	0.0150549
785.166	0.0149917
785.244	0.0149889
785.322	0.0150410
785.401	0.0149016
785.479	0.0149342
785.557	0.0149854
785.635	0.0149481
785.713	0.0148185
785.791	0.0149168
785.869	0.0149820
785.947	0.0148491
786.026	0.0148369
786.104	0.0145358
786.182	0.0147137
786.260	0.0147129
786.338	0.0145718
786.416	0.0145264
786.494	0.0145314
786.572	0.0146111
786.651	0.0143922
786.729	0.0143852
786.807	0.0144294
786.885	0.0143536
786.963	0.0142509
787.041	0.0143362
787.119	0.0141156
787.197	0.0142130
787.276	0.0141723
787.354	0.0141135
787.432	0.0140594
787.510	0.0140269
787.588	0.0139796
787.666	0.0141228
787.744	0.0140293
787.822	0.0141066
787.901	0.0140178
787.979	0.0140458
788.057	0.0140577
788.135	0.0141412
788.213	0.0139336
788.291	0.0140818
788.369	0.0141029
788.447	0.0141338
788.526	0.0140372
788.604	0.0140675
788.682	0.0140691
788.760	0.0140784
788.838	0.0141153
788.916	0.0141019
788.994	0.0141442
789.072	0.0140820
789.151	0.0140295
789.229	0.0140302
789.307	0.0139996
789.385	0.0141119
789.463	0.0141486
789.541	0.0142524
789.619	0.0140401
789.697	0.0139851
789.776	0.0141600
789.854	0.0142631
789.932	0.0142251
790.010	0.0140809
790.088	0.0141187
790.166	0.0141496
790.244	0.0141404
790.322	0.0141505
790.401	0.0143023
790.479	0.0144514
790.557	0.0142294
790.635	0.0143399
790.713	0.0143471
790.791	0.0143928
790.869	0.0144567
790.947	0.0143965
791.026	0.0144591
791.104	0.0143668
791.182	0.0144317
791.260	0.0144891
791.338	0.0145016
791.416	0.0145947
791.494	0.0147021
791.572	0.0146717
791.651	0.0145132
791.729	0.0145621
791.807	0.0146897
791.885	0.0145445
791.963	0.0147026
792.041	0.0145691
792.119	0.0148181
792.197	0.0147900
792.276	0.0147906
792.354	0.0147518
792.432	0.0147973
792.510	0.0148734
792.588	0.0149826
792.666	0.0150352
792.744	0.0149580
792.822	0.0149817
792.901	0.0148581
792.979	0.0148896
793.057	0.0149046
793.135	0.0148672
793.213	0.0148303
793.291	0.0148853
793.369	0.0148247
793.447	0.0147366
793.526	0.0147962
793.604	0.0148564
793.682	0.0147466
793.760	0.0147660
793.838	0.0146886
793.916	0.0146893
793.994	0.0148312
794.072	0.0147023
794.151	0.0146172
794.229	0.0144090
794.307	0.0145246
794.385	0.0144791
794.463	0.0143925
794.541	0.0143364
794.619	0.0142159
794.697	0.0142020
794.776	0.0143073
794.854	0.0142496
794.932	0.0141250
795.010	0.0140385
795.088	0.0141199
795.166	0.0139860
795.244	0.0139964
795.322	0.0141483
795.401	0.0140597
795.479	0.0139478
795.557	0.0139037
795.635	0.0137366
795.713	0.0137947
795.791	0.0138403
795.869	0.0138430
795.947	0.0138162
796.026	0.0137492
796.104	0.0136804
796.182	0.0139414
796.260	0.0138002
796.338	0.0139214
796.416	0.0139236
796.494	0.0137553
796.572	0.0139646
796.651	0.0140771
796.729	0.0141972
796.807	0.0140891
796.885	0.0141298
796.963	0.0142087
797.041	0.0142078
797.119	0.0143252
797.197	0.0143205
797.276	0.0142760
797.354	0.0144904
797.432	0.0144252
797.510	0.0144053
797.588	0.0144903
797.666	0.0145325
797.744	0.0144946
797.822	0.0144154
797.901	0.0145194
797.979	0.0145564
798.057	0.0145499
798.135	0.0145621
798.213	0.0144483
798.291	0.0144620
798.369	0.0143688
798.447	0.0144222
798.526	0.0146436
798.604	0.0144409
798.682	0.0145228
798.760	0.0144006
798.838	0.0143907
798.916	0.0144004
798.994	0.0145435
799.072	0.0146045
799.151	0.0145100
799.229	0.0144806
799.307	0.0145694
799.385	0.0144786
799.463	0.0145809
799.541	0.0145742
799.619	0.0145141
799.697	0.0145193
799.776	0.0145964
799.854	0.0145546
799.932	0.0144866
800.010	0.0145403
800.088	0.0145250
800.166	0.0145601
800.244	0.0146168
800.322	0.0145264
800.401	0.0145908
800.479	0.0145325
800.557	0.0146494
800.635	0.0146174
800.713	0.0146846
800.791	0.0147156
800.869	0.0148060
800.947	0.0147976
801.026	0.0148529
801.104	0.0148021
801.182	0.0149113
801.260	0.0148247
801.338	0.0147335
801.416	0.0148602
801.494	0.0149162
801.572	0.0147553
801.651	0.0148078
801.729	0.0147694
801.807	0.0147912
801.885	0.0145701
801.963	0.0145671
802.041	0.0144823
802.119	0.0145834
802.197	0.0143377
802.276	0.0141172
802.354	0.0141576
802.432	0.0140174
802.510	0.0140227
802.588	0.0140273
802.666	0.0138538
802.744	0.0138940
802.822	0.0138319
802.901	0.0137515
802.979	0.0138557
803.057	0.0137626
803.135	0.0139626
803.213	0.0139069
803.291	0.0138261
803.369	0.0139785
803.447	0.0139587
803.526	0.0138757
803.604	0.0140366
803.682	0.0138866
803.760	0.0138649
803.838	0.0138801
803.916	0.0138442
803.994	0.0139557
804.072	0.0138878
804.151	0.0139576
804.229	0.0139410
804.307	0.0140120
804.385	0.0140402
804.463	0.0142405
804.541	0.0142021
804.619	0.0141996
804.697	0.0142454
804.776	0.0141543
804.854	0.0143006
804.932	0.0142513
805.010	0.0142747
805.088	0.0143114
805.166	0.0143459
805.244	0.0143205
805.322	0.0142963
805.401	0.0142649
805.479	0.0143408
805.557	0.0142512
805.635	0.0142152
805.713	0.0141470
805.791	0.0141689
805.869	0.0142554
805.947	0.0141999
806.026	0.0143942
806.104	0.0144266
806.182	0.0145330
806.260	0.0146297
806.338	0.0147445
806.416	0.0149443
806.494	0.0150072
806.572	0.0152058
806.651	0.0152728
806.729	0.0155652
806.807	0.0154597
806.885	0.0156351
806.963	0.0157272
807.041	0.0157219
807.119	0.0156436
807.197	0.0154951
807.276	0.0152467
807.354	0.0151090
807.432	0.0149321
807.510	0.0146872
807.588	0.0146075
807.666	0.0144717
807.744	0.0145901
807.822	0.0145547
807.901	0.0145484
807.979	0.0145159
808.057	0.0146620
808.135	0.0146554
808.213	0.0147217
808.291	0.0148740
808.369	0.0148779
808.447	0.0150128
808.526	0.0149876
808.604	0.0150021
808.682	0.0149240
808.760	0.0147626
808.838	0.0146567
808.916	0.0145383
808.994	0.0146117
809.072	0.0143424
809.151	0.0141570
809.229	0.0138461
809.307	0.0135651
809.385	0.0134237
809.463	0.0131181
809.541	0.0130565
809.619	0.0129366
809.697	0.0128568
809.776	0.0128334
809.854	0.0126247
809.932	0.0127006
810.010	0.0130475
810.088	0.0132084
810.166	0.0132253
810.244	0.0135600
810.322	0.0138772
810.401	0.0140971
810.479	0.0144628
810.557	0.0147092
810.635	0.0148286
810.713	0.0150520
810.791	0.0152840
810.869	0.0153191
810.947	0.0154987
811.026	0.0154890
811.104	0.0154665
811.182	0.0153857
811.260	0.0153869
811.338	0.0152614
811.416	0.0152187
811.494	0.0150321
811.572	0.0150042
811.651	0.0148803
811.729	0.0145885
811.807	0.0144264
811.885	0.0142762
811.963	0.0142596
812.041	0.0140023
812.119	0.0138338
812.197	0.0139014
812.276	0.0136333
812.354	0.0137065
812.432	0.0139104
812.510	0.0137906
812.588	0.0137605
812.666	0.0138287
812.744	0.0139101
812.822	0.0138541
812.901	0.0139160
812.979	0.0140259
813.057	0.0141364
813.135	0.0142283
813.213	0.0144186
813.291	0.0143416
813.369	0.0144244
813.447	0.0145582
813.526	0.0146215
813.604	0.0146061
813.682	0.0147111
813.760	0.0147383
813.838	0.0148129
813.916	0.0149629
813.994	0.0149033
814.072	0.0149686
814.151	0.0150250
814.229	0.0149884
814.307	0.0150733
814.385	0.0151690
814.463	0.0151663
814.541	0.0153041
814.619	0.0152292
814.697	0.0153171
814.776	0.0153429
814.854	0.0151712
814.932	0.0153485
815.010	0.0152793
815.088	0.0151688
815.166	0.0151844
815.244	0.0150919
815.322	0.0149450
815.401	0.0149612
815.479	0.0149103
815.557	0.0147371
815.635	0.0146087
815.713	0.0144283
815.791	0.0142531
815.869	0.0141986
815.947	0.0139326
816.026	0.0138246
816.104	0.0136672
816.182	0.0136398
816.260	0.0134689
816.338	0.0132829
816.416	0.0133079
816.494	0.0131078
816.572	0.0131614
816.651	0.0130647
816.729	0.0131763
816.807	0.0130888
816.885	0.0131895
816.963	0.0132250
817.041	0.0135490
817.119	0.0135712
817.197	0.0136620
817.276	0.0138347
817.354	0.0138798
817.432	0.0140771
817.510	0.0142248
817.588	0.0142702
817.666	0.0145332
817.744	0.0145024
817.822	0.0144645
817.901	0.0145765
817.979	0.0146571
818.057	0.0146165
818.135	0.0146564
818.213	0.0146438
818.291	0.0146157
818.369	0.0146113
818.447	0.0146284
818.526	0.0146596
818.604	0.0146393
818.682	0.0147279
818.760	0.0147870
818.838	0.0147948
818.916	0.0146297
818.994	0.0147220
819.072	0.0147411
819.151	0.0148820
819.229	0.0147649
819.307	0.0147203
819.385	0.0147915
819.463	0.0145280
819.541	0.0145500
819.619	0.0144604
819.697	0.0144385
819.776	0.0143259
819.854	0.0143247
819.932	0.0142881
820.010	0.0142440
820.088	0.0141862
820.166	0.0143363
820.244	0.0141208
820.322	0.0142488
820.401	0.0142945
820.479	0.0142488
820.557	0.0143268
820.635	0.0142472
820.713	0.0143254
820.791	0.0142799
820.869	0.0143729
820.947	0.0144816
821.026	0.0144760
821.104	0.0143235
821.182	0.0143822
821.260	0.0144523
821.338	0.0143810
821.416	0.0143777
821.494	0.0143218
821.572	0.0143729
821.651	0.0143645
821.729	0.0142224
821.807	0.0144103
821.885	0.0143417
821.963	0.0143404
822.041	0.0143494
822.119	0.0143217
822.197	0.0142565
822.276	0.0143361
822.354	0.0143382
822.432	0.0144893
822.510	0.0145300
822.588	0.0144465
822.666	0.0145927
822.744	0.0145866
822.822	0.0146520
822.901	0.0147085
822.979	0.0145400
823.057	0.0147235
823.135	0.0146624
823.213	0.0145821
823.291	0.0144361
823.369	0.0146420
823.447	0.0147796
823.526	0.0146852
823.604	0.0146902
823.682	0.0146903
823.760	0.0146827
823.838	0.0148711
823.916	0.0148340
823.994	0.0147900
824.072	0.0149707
824.151	0.0148753
824.229	0.0148144
824.307	0.0146632
824.385	0.0147106
824.463	0.0146129
824.541	0.0145522
824.619	0.0146301
824.697	0.0143445
824.776	0.0144135
824.854	0.0141702
824.932	0.0139819
825.010	0.0140672
825.088	0.0139183
825.166	0.0140082
825.244	0.0139698
825.322	0.0136817
825.401	0.0138143
825.479	0.0138093
825.557	0.0137966
825.635	0.0138223
825.713	0.0137202
825.791	0.0137910
825.869	0.0137283
825.947	0.0136488
826.026	0.0137151
826.104	0.0136440
826.182	0.0137170
826.260	0.0137198
826.338	0.0137523
826.416	0.0137864
826.494	0.0137122
826.572	0.0138384
826.651	0.0138322
826.729	0.0140115
826.807	0.0140607
826.885	0.0140116
826.963	0.0142088
827.041	0.0142881
827.119	0.0143217
827.197	0.0145794
827.276	0.0145628
827.354	0.0145350
827.432	0.0147925
827.510	0.0146148
827.588	0.0147261
827.666	0.0149351
827.744	0.0147931
827.822	0.0148405
827.901	0.0148634
827.979	0.0148413
828.057	0.0148286
828.135	0.0149269
828.213	0.0148042
828.291	0.0148351
828.369	0.0148007
828.447	0.0148857
828.526	0.0148881
828.604	0.0149373
828.682	0.0149358
828.760	0.0150560
828.838	0.0151121
828.916	0.0149792
828.994	0.0151529
829.072	0.0151998
829.151	0.0149704
829.229	0.0151884
829.307	0.0151165
829.385	0.0150526
829.463	0.0150877
829.541	0.0150694
829.619	0.0150012
829.697	0.0149542
829.776	0.0149507
829.854	0.0147636
829.932	0.0147964
830.010	0.0148188
830.088	0.0148296
830.166	0.0147483
830.244	0.0146173
830.322	0.0145044
830.401	0.0143361
830.479	0.0144065
830.557	0.0141765
830.635	0.0141077
830.713	0.0140821
830.791	0.0142480
830.869	0.0140107
830.947	0.0139760
831.026	0.0140622
831.104	0.0140783
831.182	0.0139227
831.260	0.0139702
831.338	0.0140721
831.416	0.0140228
831.494	0.0140776
831.572	0.0140466
831.651	0.0140979
831.729	0.0139017
831.807	0.0138557
831.885	0.0137141
831.963	0.0134721
832.041	0.0133873
832.119	0.0134063
832.197	0.0133085
832.276	0.0132473
832.354	0.0132519
832.432	0.0131708
832.510	0.0132680
832.588	0.0133131
832.666	0.0133812
832.744	0.0135152
832.822	0.0137075
832.901	0.0138963
832.979	0.0139671
833.057	0.0141142
833.135	0.0142217
833.213	0.0141485
833.291	0.0144109
833.369	0.0146294
833.447	0.0146772
833.526	0.0148438
833.604	0.0148240
833.682	0.0149096
833.760	0.0149549
833.838	0.0152686
833.916	0.0154078
833.994	0.0153149
834.072	0.0154739
834.151	0.0154389
834.229	0.0154694
834.307	0.0154525
834.385	0.0153594
834.463	0.0152415
834.541	0.0151701
834.619	0.0151139
834.697	0.0149574
834.776	0.0147914
834.854	0.0146996
834.932	0.0147027
835.010	0.0146281
835.088	0.0146681
835.166	0.0145279
835.244	0.0145946
835.322	0.0146242
835.401	0.0146886
835.479	0.0146620
835.557	0.0147134
835.635	0.0146326
835.713	0.0148394
835.791	0.0147816
835.869	0.0148667
835.947	0.0149387
836.026	0.0148656
836.104	0.0146960
836.182	0.0146854
836.260	0.0146677
836.338	0.0146939
836.416	0.0145570
836.494	0.0145219
836.572	0.0142832
836.651	0.0142382
836.729	0.0142181
836.807	0.0141935
836.885	0.0138927
836.963	0.0140397
837.041	0.0139749
837.119	0.0139315
837.197	0.0138795
837.276	0.0139455
837.354	0.0140112
837.432	0.0141837
837.510	0.0141933
837.588	0.0142128
837.666	0.0143966
837.744	0.0144501
837.822	0.0144873
837.901	0.0145255
837.979	0.0145292
838.057	0.0144064
838.135	0.0143616
838.213	0.0145206
838.291	0.0142941
838.369	0.0141071
838.447	0.0142538
838.526	0.0141202
838.604	0.0139181
838.682	0.0137038
838.760	0.0138783
838.838	0.0139669
838.916	0.0139287
838.994	0.0137799
839.072	0.0138554
839.151	0.0138857
839.229	0.0139836
839.307	0.0138283
839.385	0.0139527
839.463	0.0138990
839.541	0.0140279
839.619	0.0141299
839.697	0.0142191
839.776	0.0142782
839.854	0.0143835
839.932	0.0142485
840.010	0.0143548
840.088	0.0145010
840.166	0.0143189
840.244	0.0144950
840.322	0.0144566
840.401	0.0144962
840.479	0.0144685
840.557	0.0144432
840.635	0.0147081
840.713	0.0146811
840.791	0.0147504
840.869	0.0147339
840.947	0.0147499
841.026	0.0149235
841.104	0.0148985
841.182	0.0149417
841.260	0.0149174
841.338	0.0149832
841.416	0.0148138
841.494	0.0148273
841.572	0.0147073
841.651	0.0147415
841.729	0.0147234
841.807	0.0146622
841.885	0.0145514
841.963	0.0144554
842.041	0.0144863
842.119	0.0145093
842.197	0.0144942
842.276	0.0142642
842.354	0.0144802
842.432	0.0145158
842.510	0.0144852
842.588	0.0146969
842.666	0.0147381
842.744	0.0148199
842.822	0.0147636
842.901	0.0147479
842.979	0.0147329
843.057	0.0148365
843.135	0.0148930
843.213	0.0147255
843.291	0.0145933
843.369	0.0144936
843.447	0.0144363
843.526	0.0142629
843.604	0.0142384
843.682	0.0139392
843.760	0.0139614
843.838	0.0140042
843.916	0.0138674
843.994	0.0139235
844.072	0.0138078
844.151	0.0139648
844.229	0.0139560
844.307	0.0140695
844.385	0.0141778
844.463	0.0140504
844.541	0.0141878
844.619	0.0143604
844.697	0.0144122
844.776	0.0146096
844.854	0.0145976
844.932	0.0145137
845.010	0.0146481
845.088	0.0146398
845.166	0.0147562
845.244	0.0147791
845.322	0.0147881
845.401	0.0148090
845.479	0.0147929
845.557	0.0148524
845.635	0.0148875
845.713	0.0146991
845.791	0.0145678
845.869	0.0145922
845.947	0.0145861
846.026	0.0145792
846.104	0.0144974
846.182	0.0146250
846.260	0.0145055
846.338	0.0144205
846.416	0.0144637
846.494	0.0143919
846.572	0.0142831
846.651	0.0143597
846.729	0.0143498
846.807	0.0144071
846.885	0.0144324
846.963	0.0143159
847.041	0.0143229
847.119	0.0143715
847.197	0.0143776
847.276	0.0143398
847.354	0.0143313
847.432	0.0143902
847.510	0.0144952
847.588	0.0142454
847.666	0.0144370
847.744	0.0144521
847.822	0.0144943
847.901	0.0144453
847.979	0.0142721
848.057	0.0144022
848.135	0.0143435
848.213	0.0144855
848.291	0.0144385
848.369	0.0144272
848.447	0.0145309
848.526	0.0143536
848.604	0.0145219
848.682	0.0143034
848.760	0.0145080
848.838	0.0145853
848.916	0.0146751
848.994	0.0145285
849.072	0.0147277
849.151	0.0145776
849.229	0.0146005
849.307	0.0146848
849.385	0.0147520
849.463	0.0147295
849.541	0.0146592
849.619	0.0147063
849.697	0.0146114
849.776	0.0146423
849.854	0.0146523
849.932	0.0145662
850.010	0.0145982
850.088	0.0146825
850.166	0.0145234
850.244	0.0145350
850.322	0.0144852
850.401	0.0145294
850.479	0.0143547
850.557	0.0144742
850.635	0.0146069
850.713	0.0145595
850.791	0.0144332
850.869	0.0145158
850.947	0.0146292
851.026	0.0144405
851.104	0.0142728
851.182	0.0143120
851.260	0.0144559
851.338	0.0143839
851.416	0.0144693
851.494	0.0143577
851.572	0.0141956
851.651	0.0142527
851.729	0.0142046
851.807	0.0143124
851.885	0.0142941
851.963	0.0144498
852.041	0.0144181
852.119	0.0142451
852.197	0.0144495
852.276	0.0144398
852.354	0.0144550
852.432	0.0144289
852.510	0.0144248
852.588	0.0145161
852.666	0.0144141
852.744	0.0142472
852.822	0.0144117
852.901	0.0145496
852.979	0.0143947
853.057	0.0142934
853.135	0.0143724
853.213	0.0144695
853.291	0.0143960
853.369	0.0143608
853.447	0.0143808
853.526	0.0144548
853.604	0.0145232
853.682	0.0145561
853.760	0.0146079
853.838	0.0146356
853.916	0.0144089
853.994	0.0144997
854.072	0.0145203
854.151	0.0143716
854.229	0.0145141
854.307	0.0143564
854.385	0.0144204
854.463	0.0144321
854.541	0.0142827
854.619	0.0144891
854.697	0.0143392
854.776	0.0144076
854.854	0.0145234
854.932	0.0144833
855.010	0.0144263
855.088	0.0141882
855.166	0.0143693
855.244	0.0144648
855.322	0.0144061
855.401	0.0142962
855.479	0.0142889
855.557	0.0142400
855.635	0.0143230
855.713	0.0143662
855.791	0.0144683
855.869	0.0144518
855.947	0.0144830
856.026	0.0145889
856.104	0.0146959
856.182	0.0146267
856.260	0.0148161
856.338	0.0145646
856.416	0.0147346
856.494	0.0148611
856.572	0.0148496
856.651	0.0147899
856.729	0.0146825
856.807	0.0146114
856.885	0.0145858
856.963	0.0146034
857.041	0.0144078
857.119	0.0143391
857.197	0.0143385
857.276	0.0145136
857.354	0.0144320
857.432	0.0143146
857.510	0.0143697
857.588	0.0143322
857.666	0.0143356
857.744	0.0143880
857.822	0.0142880
857.901	0.0144416
857.979	0.0145742
858.057	0.0145851
858.135	0.0143326
858.213	0.0144711
858.291	0.0145222
858.369	0.0145328
858.447	0.0145084
858.526	0.0146874
858.604	0.0145300
858.682	0.0143973
858.760	0.0145558
858.838	0.0145351
858.916	0.0143282
858.994	0.0143727
859.072	0.0143454
859.151	0.0142451
859.229	0.0144321
859.307	0.0144481
859.385	0.0143288
859.463	0.0143598
859.541	0.0145123
859.619	0.0143228
859.697	0.0144536
859.776	0.0145519
859.854	0.0145834
859.932	0.0146008
860.010	0.0145050
860.088	0.0146056
860.166	0.0147236
860.244	0.0147919
860.322	0.0147280
860.401	0.0146890
860.479	0.0145473
860.557	0.0145423
860.635	0.0146503
860.713	0.0146313
860.791	0.0146007
860.869	0.0146379
860.947	0.0143802
861.026	0.0144892
861.104	0.0145168
861.182	0.0144965
861.260	0.0143805
861.338	0.0143665
861.416	0.0144323
861.494	0.0142521
861.572	0.0142086
861.651	0.0142459
861.729	0.0142406
861.807	0.0141746
861.885	0.0141798
861.963	0.0140668
862.041	0.0143346
862.119	0.0141785
862.197	0.0141122
862.276	0.0141766
862.354	0.0140841
862.432	0.0142122
862.510	0.0143611
862.588	0.0142229
862.666	0.0143369
862.744	0.0143385
862.822	0.0143309
862.901	0.0143622
862.979	0.0143237
863.057	0.0142813
863.135	0.0143211
863.213	0.0141882
863.291	0.0141534
863.369	0.0142543
863.447	0.0142030
863.526	0.0140312
863.604	0.0141708
863.682	0.0141139
863.760	0.0141591
863.838	0.0141609
863.916	0.0141888
863.994	0.0142743
864.072	0.0143147
864.151	0.0144977
864.229	0.0143637
864.307	0.0144939
864.385	0.0144999
864.463	0.0145454
864.541	0.0145087
864.619	0.0146943
864.697	0.0147391
864.776	0.0148338
864.854	0.0148967
864.932	0.0148875
865.010	0.0149833
865.088	0.0149836
865.166	0.0150552
865.244	0.0151672
865.322	0.0151488
865.401	0.0150198
865.479	0.0148504
865.557	0.0150427
865.635	0.0147931
865.713	0.0148828
865.791	0.0148287
865.869	0.0146533
865.947	0.0146803
866.026	0.0145670
866.104	0.0144582
866.182	0.0143287
866.260	0.0142697
866.338	0.0142648
866.416	0.0143366
866.494	0.0143358
866.572	0.0142639
866.651	0.0142843
866.729	0.0141459
866.807	0.0142251
866.885	0.0140985
866.963	0.0141533
867.041	0.0143333
867.119	0.0140601
867.197	0.0141422
867.276	0.0141278
867.354	0.0140704
867.432	0.0140977
867.510	0.0141979
867.588	0.0141502
867.666	0.0141079
867.744	0.0141717
867.822	0.0141449
867.901	0.0141944
867.979	0.0140627
868.057	0.0140794
868.135	0.0142448
868.213	0.0142418
868.291	0.0143153
868.369	0.0142370
868.447	0.0142846
868.526	0.0143536
868.604	0.0144028
868.682	0.0144381
868.760	0.0143491
868.838	0.0142843
868.916	0.0145271
868.994	0.0144310
869.072	0.0144404
869.151	0.0144734
869.229	0.0145808
869.307	0.0144656
869.385	0.0144179
869.463	0.0145216
869.541	0.0144038
869.619	0.0145087
869.697	0.0144334
869.776	0.0143453
869.854	0.0143920
869.932	0.0144589
870.010	0.0143113
870.088	0.0143551
870.166	0.0144988
870.244	0.0144264
870.322	0.0142864
870.401	0.0144352
870.479	0.0144050
870.557	0.0144372
870.635	0.0145177
870.713	0.0143925
870.791	0.0144254
870.869	0.0145309
870.947	0.0144351
871.026	0.0145128
871.104	0.0145230
871.182	0.0147374
871.260	0.0145009
871.338	0.0145600
871.416	0.0146239
871.494	0.0146019
871.572	0.0147108
871.651	0.0146276
871.729	0.0145087
871.807	0.0147172
871.885	0.0146432
871.963	0.0144925
872.041	0.0144781
872.119	0.0145174
872.197	0.0145643
872.276	0.0145992
872.354	0.0145914
872.432	0.0145483
872.510	0.0145215
872.588	0.0145660
872.666	0.0144434
872.744	0.0143980
872.822	0.0144912
872.901	0.0144858
872.979	0.0145143
873.057	0.0144623
873.135	0.0144183
873.213	0.0144008
873.291	0.0143368
873.369	0.0142439
873.447	0.0143450
873.526	0.0144026
873.604	0.0144334
873.682	0.0144068
873.760	0.0146305
873.838	0.0145045
873.916	0.0145611
873.994	0.0146384
874.072	0.0146754
874.151	0.0146838
874.229	0.0149107
874.307	0.0148991
874.385	0.0147115
874.463	0.0146603
874.541	0.0146262
874.619	0.0146272
874.697	0.0146062
874.776	0.0146767
874.854	0.0144815
874.932	0.0143127
875.010	0.0144481
875.088	0.0142892
875.166	0.0142355
875.244	0.0141811
875.322	0.0141929
875.401	0.0140668
875.479	0.0141035
875.557	0.0142252
875.635	0.0140362
875.713	0.0140304
875.791	0.0141617
875.869	0.0141126
875.947	0.0143282
876.026	0.0141850
876.104	0.0143996
876.182	0.0143176
876.260	0.0144283
876.338	0.0145226
876.416	0.0144189
876.494	0.0144420
876.572	0.0144820
876.651	0.0142857
876.729	0.0142572
876.807	0.0141051
876.885	0.0142538
876.963	0.0142138
877.041	0.0141765
877.119	0.0139897
877.197	0.0141439
877.276	0.0140418
877.354	0.0141602
877.432	0.0141602
877.510	0.0142447
877.588	0.0143129
877.666	0.0143173
877.744	0.0143670
877.822	0.0144704
877.901	0.0144436
877.979	0.0144475
878.057	0.0144763
878.135	0.0146744
878.213	0.0145462
878.291	0.0146442
878.369	0.0145850
878.447	0.0144959
878.526	0.0145960
878.604	0.0145128
878.682	0.0145605
878.760	0.0145318
878.838	0.0144241
878.916	0.0143662
878.994	0.0142521
879.072	0.0141904
879.151	0.0142517
879.229	0.0143655
879.307	0.0142574
879.385	0.0141669
879.463	0.0142325
879.541	0.0142027
879.619	0.0142434
879.697	0.0143039
879.776	0.0143186
879.854	0.0144009
879.932	0.0144119
880.010	0.0144313
880.088	0.0145031
880.166	0.0144315
880.244	0.0146053
880.322	0.0144415
880.401	0.0145579
880.479	0.0146529
880.557	0.0144238
880.635	0.0145615
880.713	0.0145712
880.791	0.0145155
880.869	0.0145235
880.947	0.0146336
881.026	0.0145667
881.104	0.0145948
881.182	0.0145902
881.260	0.0144585
881.338	0.0143591
881.416	0.0143497
881.494	0.0143122
881.572	0.0144176
881.651	0.0142632
881.729	0.0144217
881.807	0.0142721
881.885	0.0144325
881.963	0.0143586
882.041	0.0143671
882.119	0.0145836
882.197	0.0145158
882.276	0.0146288
882.354	0.0146468
882.432	0.0145457
882.510	0.0145618
882.588	0.0144363
882.666	0.0145591
882.744	0.0145316
882.822	0.0144487
882.901	0.0144334
882.979	0.0144412
883.057	0.0143182
883.135	0.0143431
883.213	0.0143100
883.291	0.0142156
883.369	0.0142413
883.447	0.0143237
883.526	0.0142201
883.604	0.0142510
883.682	0.0140886
883.760	0.0142521
883.838	0.0142084
883.916	0.0142979
883.994	0.0144063
884.072	0.0143610
884.151	0.0142387
884.229	0.0142135
884.307	0.0142060
884.385	0.0142976
884.463	0.0142114
884.541	0.0140096
884.619	0.0142530
884.697	0.0141416
884.776	0.0141267
884.854	0.0141934
884.932	0.0142799
885.010	0.0141683
885.088	0.0141634
885.166	0.0142721
885.244	0.0143236
885.322	0.0144202
885.401	0.0143681
885.479	0.0143768
885.557	0.0144590
885.635	0.0143105
885.713	0.0143962
885.791	0.0143192
885.869	0.0145359
885.947	0.0144598
886.026	0.0143587
886.104	0.0144376
886.182	0.0143373
886.260	0.0145689
886.338	0.0145359
886.416	0.0145740
886.494	0.0145716
886.572	0.0145387
886.651	0.0145864
886.729	0.0146766
886.807	0.0146430
886.885	0.0146642
886.963	0.0147042
887.041	0.0146874
887.119	0.0145733
887.197	0.0144850
887.276	0.0145161
887.354	0.0144843
887.432	0.0144496
887.510	0.0144001
887.588	0.0144238
887.666	0.0145219
887.744	0.0143434
887.822	0.0142420
887.901	0.0141436
887.979	0.0142516
888.057	0.0143257
888.135	0.0142565
888.213	0.0143073
888.291	0.0144598
888.369	0.0141772
888.447	0.0141600
888.526	0.0143381
888.604	0.0142426
888.682	0.0142141
888.760	0.0142200
888.838	0.0142997
888.916	0.0143787
888.994	0.0143143
889.072	0.0141852
889.151	0.0143346
889.229	0.0143920
889.307	0.0143752
889.385	0.0144599
889.463	0.0145274
889.541	0.0144744
889.619	0.0144602
889.697	0.0144557
889.776	0.0143859
889.854	0.0144553
889.932	0.0144293
890.010	0.0145126
890.088	0.0145516
890.166	0.0144981
890.244	0.0143977
890.322	0.0143732
890.401	0.0143308
890.479	0.0142815
890.557	0.0142252
890.635	0.0142183
890.713	0.0141138
890.791	0.0141531
890.869	0.0142902
890.947	0.0141432
891.026	0.0141486
891.104	0.0143499
891.182	0.0141208
891.260	0.0141373
891.338	0.0142453
891.416	0.0141895
891.494	0.0142464
891.572	0.0143109
891.651	0.0141831
891.729	0.0141775
891.807	0.0143370
891.885	0.0142519
891.963	0.0142459
892.041	0.0143037
892.119	0.0143466
892.197	0.0142593
892.276	0.0141518
892.354	0.0141936
892.432	0.0140999
892.510	0.0141934
892.588	0.0142713
892.666	0.0142310
892.744	0.0142648
892.822	0.0142219
892.901	0.0141419
892.979	0.0141509
893.057	0.0142567
893.135	0.0142713
893.213	0.0142626
893.291	0.0142663
893.369	0.0143035
893.447	0.0142574
893.526	0.0141080
893.604	0.0142100
893.682	0.0144193
893.760	0.0141840
893.838	0.0142113
893.916	0.0144526
893.994	0.0144032
894.072	0.0144749
894.151	0.0144080
894.229	0.0145699
894.307	0.0144244
894.385	0.0145896
894.463	0.0147002
894.541	0.0148340
894.619	0.0147697
894.697	0.0147620
894.776	0.0147291
894.854	0.0148373
894.932	0.0147620
895.010	0.0146189
895.088	0.0146076
895.166	0.0146613
895.244	0.0147625
895.322	0.0146223
895.401	0.0145208
895.479	0.0145497
895.557	0.0146317
895.635	0.0145003
895.713	0.0143022
895.791	0.0144019
895.869	0.0144166
895.947	0.0143136
896.026	0.0144005
896.104	0.0142569
896.182	0.0144430
896.260	0.0145082
896.338	0.0144370
896.416	0.0143137
896.494	0.0143938
896.572	0.0145077
896.651	0.0145004
896.729	0.0145255
896.807	0.0144767
896.885	0.0144028
896.963	0.0144463
897.041	0.0145786
897.119	0.0144575
897.197	0.0143484
897.276	0.0145627
897.354	0.0145631
897.432	0.0145618
897.510	0.0147196
897.588	0.0145696
897.666	0.0145539
897.744	0.0145493
897.822	0.0145517
897.901	0.0144872
897.979	0.0143527
898.057	0.0144351
898.135	0.0143966
898.213	0.0144556
898.291	0.0142958
898.369	0.0143523
898.447	0.0143861
898.526	0.0141758
898.604	0.0142122
898.682	0.0142663
898.760	0.0141982
898.838	0.0141457
898.916	0.0142316
898.994	0.0141326
899.072	0.0142348
899.151	0.0141038
899.229	0.0140857
899.307	0.0141060
899.385	0.0143230
899.463	0.0142051
899.541	0.0143213
899.619	0.0143346
899.697	0.0143874
899.776	0.0142284
899.854	0.0141591
899.932	0.0141821
900.010	0.0142742
900.088	0.0141047
900.166	0.0141503
900.244	0.0141051
900.322	0.0140910
900.401	0.0139655
900.479	0.0139445
900.557	0.0140421
900.635	0.0139016
900.713	0.0140084
900.791	0.0139569
900.869	0.0139073
900.947	0.0139279
901.026	0.0140246
901.104	0.0141251
901.182	0.0141920
901.260	0.0143183
901.338	0.0144621
901.416	0.0147248
901.494	0.0147385
901.572	0.0150881
901.651	0.0152950
901.729	0.0154174
901.807	0.0154339
901.885	0.0154632
901.963	0.0153851
902.041	0.0155299
902.119	0.0153908
902.197	0.0153048
902.276	0.0150242
902.354	0.0148285
902.432	0.0146691
902.510	0.0144411
902.588	0.0141389
902.666	0.0141858
902.744	0.0138337
902.822	0.0137445
902.901	0.0137788
902.979	0.0136090
903.057	0.0134136
903.135	0.0135716
903.213	0.0136243
903.291	0.0137546
903.369	0.0137025
903.447	0.0140131
903.526	0.0144424
903.604	0.0148069
903.682	0.0151174
903.760	0.0151222
903.838	0.0153574
903.916	0.0151801
903.994	0.0148900
904.072	0.0147839
904.151	0.0144962
904.229	0.0140888
904.307	0.0138169
904.385	0.0134987
904.463	0.0131236
904.541	0.0129792
904.619	0.0128689
904.697	0.0130724
904.776	0.0133176
904.854	0.0134205
904.932	0.0137402
905.010	0.0143553
905.088	0.0146381
905.166	0.0149475
905.244	0.0153077
905.322	0.0154180
905.401	0.0157339
905.479	0.0158180
905.557	0.0160195
905.635	0.0159266
905.713	0.0159381
905.791	0.0157521
905.869	0.0157276
905.947	0.0153822
906.026	0.0152401
906.104	0.0150976
906.182	0.0148457
906.260	0.0146101
906.338	0.0144566
906.416	0.0143620
906.494	0.0141024
906.572	0.0139432
906.651	0.0139298
906.729	0.0137684
906.807	0.0137234
906.885	0.0136069
906.963	0.0134525
907.041	0.0133472
907.119	0.0132460
907.197	0.0132790
907.276	0.0132687
907.354	0.0133952
907.432	0.0133825
907.510	0.0134725
907.588	0.0136871
907.666	0.0137803
907.744	0.0139679
907.822	0.0141061
907.901	0.0142699
907.979	0.0143439
908.057	0.0145064
908.135	0.0146165
908.213	0.0149226
908.291	0.0148315
908.369	0.0150184
908.447	0.0151313
908.526	0.0150583
908.604	0.0152059
908.682	0.0152945
908.760	0.0153099
908.838	0.0152345
908.916	0.0152097
908.994	0.0150182
909.072	0.0150385
909.151	0.0149789
909.229	0.0149761
909.307	0.0148190
909.385	0.0147173
909.463	0.0145273
909.541	0.0144027
909.619	0.0144499
909.697	0.0143713
909.776	0.0145034
909.854	0.0143874
909.932	0.0143955
910.010	0.0144087
910.088	0.0144071
910.166	0.0143892
910.244	0.0143538
910.322	0.0143999
910.401	0.0143715
910.479	0.0143141
910.557	0.0142919
910.635	0.0141759
910.713	0.0140490
910.791	0.0139565
910.869	0.0139841
910.947	0.0139893
911.026	0.0141367
911.104	0.0141004
911.182	0.0142325
911.260	0.0142752
911.338	0.0142865
911.416	0.0143196
911.494	0.0146024
911.572	0.0144823
911.651	0.0144370
911.729	0.0144839
911.807	0.0144490
911.885	0.0145713
911.963	0.0144014
912.041	0.0143877
912.119	0.0142575
912.197	0.0141571
912.276	0.0142593
912.354	0.0143714
912.432	0.0142309
912.510	0.0143409
912.588	0.0143461
912.666	0.0142734
912.744	0.0144246
912.822	0.0144674
912.901	0.0145463
912.979	0.0144701
913.057	0.0146890
913.135	0.0144792
913.213	0.0145855
913.291	0.0147449
913.369	0.0145779
913.447	0.0146255
913.526	0.0145278
913.604	0.0146828
913.682	0.0145329
913.760	0.0145943
913.838	0.0144330
913.916	0.0144610
913.994	0.0144427
914.072	0.0144711
914.151	0.0141764
914.229	0.0143462
914.307	0.0143130
914.385	0.0144736
914.463	0.0141959
914.541	0.0144400
914.619	0.0143636
914.697	0.0144054
914.776	0.0143489
914.854	0.0142439
914.932	0.0143851
915.010	0.0143591
915.088	0.0143166
915.166	0.0143792
915.244	0.0143539
915.322	0.0142658
915.401	0.0143394
915.479	0.0143868
915.557	0.0143719
915.635	0.0143791
915.713	0.0144465
915.791	0.0144813
915.869	0.0143839
915.947	0.0144743
916.026	0.0145177
916.104	0.0145408
916.182	0.0142003
916.260	0.0142606
916.338	0.0143103
916.416	0.0143397
916.494	0.0142711
916.572	0.0142539
916.651	0.0143940
916.729	0.0143378
916.807	0.0142560
916.885	0.0143241
916.963	0.0144024
917.041	0.0144120
917.119	0.0145478
917.197	0.0144473
917.276	0.0145043
917.354	0.0146344
917.432	0.0145425
917.510	0.0146701
917.588	0.0147032
917.666	0.0146146
917.744	0.0145443
917.822	0.0145672
917.901	0.0145271
917.979	0.0144722
918.057	0.0143353
918.135	0.0143845
918.213	0.0142400
918.291	0.0143008
918.369	0.0143878
918.447	0.0142515
918.526	0.0143436
918.604	0.0143728
918.682	0.0143660
918.760	0.0146308
918.838	0.0145563
918.916	0.0148351
918.994	0.0147614
919.072	0.0146702
919.151	0.0145741
919.229	0.0145745
919.307	0.0146373
919.385	0.0143478
919.463	0.0142367
919.541	0.0142749
919.619	0.0140939
919.697	0.0139845
919.776	0.0140025
919.854	0.0139404
919.932	0.0139539
920.010	0.0140082
920.088	0.0139819
920.166	0.0141595
920.244	0.0143060
920.322	0.0143311
920.401	0.0144725
920.479	0.0145207
920.557	0.0145352
920.635	0.0145099
920.713	0.0145846
920.791	0.0145331
920.869	0.0142787
920.947	0.0142644
921.026	0.0141135
921.104	0.0141718
921.182	0.0142588
921.260	0.0141766
921.338	0.0141767
921.416	0.0140343
921.494	0.0139033
921.572	0.0139765
921.651	0.0140372
921.729	0.0140872
921.807	0.0141027
921.885	0.0141052
921.963	0.0142629
922.041	0.0143182
922.119	0.0143008
922.197	0.0143353
922.276	0.0144271
922.354	0.0144373
922.432	0.0146342
922.510	0.0147501
922.588	0.0146964
922.666	0.0147870
922.744	0.0148615
922.822	0.0147968
922.901	0.0146749
922.979	0.0148756
923.057	0.0148058
923.135	0.0148047
923.213	0.0147504
923.291	0.0146268
923.369	0.0144277
923.447	0.0146941
923.526	0.0145061
923.604	0.0145010
923.682	0.0145706
923.760	0.0143751
923.838	0.0146399
923.916	0.0145746
923.994	0.0146031
924.072	0.0147030
924.151	0.0146155
924.229	0.0145847
924.307	0.0146076
924.385	0.0145190
924.463	0.0145337
924.541	0.0147268
924.619	0.0146830
924.697	0.0146607
924.776	0.0146848
924.854	0.0145535
924.932	0.0145029
925.010	0.0144655
925.088	0.0143502
925.166	0.0143770
925.244	0.0144200
925.322	0.0144591
925.401	0.0143480
925.479	0.0144314
925.557	0.0144496
925.635	0.0142992
925.713	0.0143604
925.791	0.0143840
925.869	0.0143907
925.947	0.0145749
926.026	0.0144152
926.104	0.0144733
926.182	0.0144163
926.260	0.0144230
926.338	0.0144508
926.416	0.0143558
926.494	0.0143645
926.572	0.0142374
926.651	0.0141835
926.729	0.0142970
926.807	0.0142284
926.885	0.0141173
926.963	0.0139960
927.041	0.0140899
927.119	0.0141041
927.197	0.0141447
927.276	0.0140710
927.354	0.0143112
927.432	0.0142531
927.510	0.0143363
927.588	0.0143601
927.666	0.0145403
927.744	0.0146722
927.822	0.0145802
927.901	0.0146175
927.979	0.0147320
928.057	0.0148495
928.135	0.0148524
928.213	0.0148289
928.291	0.0146122
928.369	0.0146266
928.447	0.0145884
928.526	0.0144905
928.604	0.0145400
928.682	0.0145354
928.760	0.0143368
928.838	0.0142612
928.916	0.0143282
928.994	0.0143179
929.072	0.0143494
929.151	0.0142391
929.229	0.0144103
929.307	0.0143526
929.385	0.0144608
929.463	0.0144103
929.541	0.0144624
929.619	0.0144846
929.697	0.0146548
929.776	0.0147285
929.854	0.0146961
929.932	0.0147009
930.010	0.0148112
930.088	0.0147577
930.166	0.0147743
930.244	0.0148053
930.322	0.0146384
930.401	0.0146587
930.479	0.0146941
930.557	0.0146429
930.635	0.0148322
930.713	0.0147791
930.791	0.0145837
930.869	0.0148129
930.947	0.0146619
931.026	0.0145546
931.104	0.0147163
931.182	0.0145212
931.260	0.0144547
931.338	0.0144269
931.416	0.0143652
931.494	0.0144670
931.572	0.0145449
931.651	0.0143665
931.729	0.0142494
931.807	0.0142516
931.885	0.0141520
931.963	0.0143085
932.041	0.0143803
932.119	0.0143507
932.197	0.0142005
932.276	0.0141557
932.354	0.0143114
932.432	0.0142947
932.510	0.0142141
932.588	0.0143093
932.666	0.0143530
932.744	0.0142915
932.822	0.0143176
932.901	0.0142465
932.979	0.0143467
933.057	0.0143489
933.135	0.0142327
933.213	0.0142967
933.291	0.0144682
933.369	0.0144600
933.447	0.0143795
933.526	0.0143891
933.604	0.0143626
933.682	0.0145623
933.760	0.0144158
933.838	0.0143844
933.916	0.0143420
933.994	0.0145825
934.072	0.0144509
934.151	0.0144518
934.229	0.0144845
934.307	0.0145514
934.385	0.0144604
934.463	0.0146891
934.541	0.0145116
934.619	0.0143378
934.697	0.0144606
934.776	0.0145243
934.854	0.0144183
934.932	0.0143729
935.010	0.0142700
935.088	0.0142910
935.166	0.0141174
935.244	0.0143769
935.322	0.0141513
935.401	0.0142162
935.479	0.0143325
935.557	0.0142260
935.635	0.0142559
935.713	0.0143178
935.791	0.0142502
935.869	0.0143718
935.947	0.0144666
936.026	0.0144291
936.104	0.0144084
936.182	0.0144994
936.260	0.0146202
936.338	0.0145623
936.416	0.0146751
936.494	0.0145695
936.572	0.0145105
936.651	0.0145340
936.729	0.0145066
936.807	0.0144725
936.885	0.0143270
936.963	0.0144176
937.041	0.0144785
937.119	0.0144726
937.197	0.0144519
937.276	0.0143353
937.354	0.0143525
937.432	0.0143005
937.510	0.0142228
937.588	0.0143300
937.666	0.0142989
937.744	0.0142834
937.822	0.0142493
937.901	0.0142831
937.979	0.0143323
938.057	0.0142750
938.135	0.0143643
938.213	0.0142975
938.291	0.0142616
938.369	0.0143062
938.447	0.0143021
938.526	0.0143202
938.604	0.0144577
938.682	0.0144714
938.760	0.0146815
938.838	0.0146184
938.916	0.0146035
938.994	0.0145560
939.072	0.0146268
939.151	0.0147324
939.229	0.0147797
939.307	0.0147599
939.385	0.0146688
939.463	0.0147630
939.541	0.0146500
939.619	0.0143756
939.697	0.0143034
939.776	0.0144415
939.854	0.0142793
939.932	0.0141970
940.010	0.0143935
940.088	0.0143387
940.166	0.0142658
940.244	0.0143941
940.322	0.0142019
940.401	0.0142377
940.479	0.0142156
940.557	0.0143777
940.635	0.0143604
940.713	0.0144194
940.791	0.0144540
940.869	0.0144722
940.947	0.0145455
941.026	0.0145351
941.104	0.0145118
941.182	0.0144962
941.260	0.0145762
941.338	0.0143798
941.416	0.0142940
941.494	0.0142953
941.572	0.0143334
941.651	0.0143565
941.729	0.0143190
941.807	0.0144066
941.885	0.0142448
941.963	0.0142490
942.041	0.0143430
942.119	0.0144339
942.197	0.0142537
942.276	0.0142555
942.354	0.0143376
942.432	0.0142558
942.510	0.0144333
942.588	0.0143970
942.666	0.0143549
942.744	0.0143364
942.822	0.0143654
942.901	0.0143027
942.979	0.0142780
943.057	0.0144722
943.135	0.0141726
943.213	0.0142174
943.291	0.0142961
943.369	0.0143414
943.447	0.0142784
943.526	0.0143153
943.604	0.0145084
943.682	0.0144980
943.760	0.0144313
943.838	0.0145748
943.916	0.0143777
943.994	0.0145523
944.072	0.0145483
944.151	0.0145716
944.229	0.0146066
944.307	0.0147033
944.385	0.0148193
944.463	0.0146105
944.541	0.0146006
944.619	0.0146538
944.697	0.0146961
944.776	0.0148418
944.854	0.0147595
944.932	0.0148116
945.010	0.0147168
945.088	0.0146709
945.166	0.0147134
945.244	0.0147864
945.322	0.0145478
945.401	0.0147247
945.479	0.0147520
945.557	0.0147180
945.635	0.0145926
945.713	0.0145320
945.791	0.0144844
945.869	0.0145208
945.947	0.0144902
946.026	0.0145937
946.104	0.0144164
946.182	0.0144621
946.260	0.0143411
946.338	0.0144810
946.416	0.0143166
946.494	0.0141899
946.572	0.0142102
946.651	0.0142323
946.729	0.0142390
946.807	0.0142888
946.885	0.0143102
946.963	0.0141793
947.041	0.0141955
947.119	0.0144556
947.197	0.0144118
947.276	0.0143301
947.354	0.0144672
947.432	0.0146017
947.510	0.0147671
947.588	0.0147814
947.666	0.0146674
947.744	0.0147084
947.822	0.0148483
947.901	0.0149841
947.979	0.0148098
948.057	0.0148181
948.135	0.0147872
948.213	0.0147843
948.291	0.0145557
948.369	0.0144625
948.447	0.0142432
948.526	0.0142712
948.604	0.0141779
948.682	0.0141827
948.760	0.0141475
948.838	0.0139406
948.916	0.0139282
948.994	0.0140434
949.072	0.0140260
949.151	0.0141989
949.229	0.0142547
949.307	0.0143486
949.385	0.0144826
949.463	0.0144690
949.541	0.0145683
949.619	0.0145647
949.697	0.0146143
949.776	0.0145304
949.854	0.0145077
949.932	0.0143520
950.010	0.0142589
950.088	0.0142473
950.166	0.0142579
950.244	0.0141680
950.322	0.0141093
950.401	0.0141299
950.479	0.0141716
950.557	0.0142866
950.635	0.0143065
950.713	0.0143203
950.791	0.0144312
950.869	0.0144440
950.947	0.0144910
951.026	0.0144867
951.104	0.0145336
951.182	0.0145465
951.260	0.0145652
951.338	0.0144697
951.416	0.0145510
951.494	0.0145396
951.572	0.0145718
951.651	0.0145695
951.729	0.0144489
951.807	0.0145984
951.885	0.0145055
951.963	0.0143788
952.041	0.0144125
952.119	0.0145362
952.197	0.0144159
952.276	0.0142983
952.354	0.0143392
952.432	0.0143954
952.510	0.0141975
952.588	0.0143560
952.666	0.0144063
952.744	0.0143782
952.822	0.0143369
952.901	0.0143134
952.979	0.0142519
953.057	0.0143253
953.135	0.0143601
953.213	0.0143775
953.291	0.0143170
953.369	0.0144494
953.447	0.0146420
953.526	0.0144692
953.604	0.0145991
953.682	0.0147989
953.760	0.0148167
953.838	0.0147139
953.916	0.0147903
953.994	0.0147157
954.072	0.0148163
954.151	0.0147258
954.229	0.0147891
954.307	0.0145339
954.385	0.0144269
954.463	0.0143921
954.541	0.0143419
954.619	0.0143472
954.697	0.0141884
954.776	0.0140776
954.854	0.0140840
954.932	0.0140965
955.010	0.0140611
955.088	0.0140156
955.166	0.0142645
955.244	0.0142275
955.322	0.0141163
955.401	0.0143951
955.479	0.0145096
955.557	0.0144167
955.635	0.0146734
955.713	0.0146422
955.791	0.0146839
955.869	0.0147092
955.947	0.0147956
956.026	0.0148305
956.104	0.0148524
956.182	0.0149104
956.260	0.0149297
956.338	0.0149404
956.416	0.0150031
956.494	0.0149564
956.572	0.0148065
956.651	0.0147366
956.729	0.0146326
956.807	0.0146668
956.885	0.0144022
956.963	0.0145825
957.041	0.0143363
957.119	0.0142571
957.197	0.0142416
957.276	0.0141199
957.354	0.0141476
957.432	0.0140511
957.510	0.0140351
957.588	0.0139064
957.666	0.0140588
957.744	0.0138696
957.822	0.0139738
957.901	0.0139892
957.979	0.0139481
958.057	0.0140035
958.135	0.0141734
958.213	0.0141713
958.291	0.0141671
958.369	0.0143324
958.447	0.0143221
958.526	0.0144079
958.604	0.0144338
958.682	0.0143993
958.760	0.0146895
958.838	0.0147064
958.916	0.0144967
958.994	0.0144227
959.072	0.0144637
959.151	0.0145344
959.229	0.0144189
959.307	0.0144590
959.385	0.0144792
959.463	0.0143986
959.541	0.0144526
959.619	0.0142651
959.697	0.0140943
959.776	0.0140709
959.854	0.0142277
959.932	0.0140885
960.010	0.0141447
960.088	0.0141364
960.166	0.0142361
960.244	0.0141949
960.322	0.0142907
960.401	0.0143253
960.479	0.0143996
960.557	0.0145575
960.635	0.0145461
960.713	0.0145357
960.791	0.0147033
960.869	0.0148255
960.947	0.0147285
961.026	0.0145798
961.104	0.0146334
961.182	0.0146965
961.260	0.0145730
961.338	0.0147088
961.416	0.0146608
961.494	0.0145645
961.572	0.0144560
961.651	0.0144556
961.729	0.0145574
961.807	0.0145184
961.885	0.0144431
961.963	0.0142160
962.041	0.0142373
962.119	0.0144768
962.197	0.0143210
962.276	0.0141922
962.354	0.0141777
962.432	0.0142181
962.510	0.0141988
962.588	0.0141122
962.666	0.0143721
962.744	0.0143405
962.822	0.0143271
962.901	0.0142697
962.979	0.0142165
963.057	0.0143204
963.135	0.0142670
963.213	0.0143026
963.291	0.0143406
963.369	0.0142881
963.447	0.0142490
963.526	0.0141933
963.604	0.0140897
963.682	0.0141414
963.760	0.0142812
963.838	0.0143261
963.916	0.0141876
963.994	0.0141655
964.072	0.0141218
964.151	0.0142384
964.229	0.0142731
964.307	0.0142525
964.385	0.0142229
964.463	0.0143403
964.541	0.0144363
964.619	0.0144930
964.697	0.0146054
964.776	0.0146634
964.854	0.0146682
964.932	0.0147780
965.010	0.0147493
965.088	0.0147612
965.166	0.0146663
965.244	0.0145853
965.322	0.0146802
965.401	0.0145087
965.479	0.0144696
965.557	0.0144058
965.635	0.0142493
965.713	0.0143002
965.791	0.0141685
965.869	0.0140803
965.947	0.0140557
966.026	0.0139986
966.104	0.0141055
966.182	0.0141309
966.260	0.0142332
966.338	0.0141351
966.416	0.0142226
966.494	0.0142905
966.572	0.0144157
966.651	0.0144228
966.729	0.0145856
966.807	0.0146103
966.885	0.0147659
966.963	0.0148254
967.041	0.0148615
967.119	0.0147749
967.197	0.0149403
967.276	0.0149351
967.354	0.0149506
967.432	0.0149419
967.510	0.0146887
967.588	0.0148335
967.666	0.0146402
967.744	0.0146130
967.822	0.0145972
967.901	0.0147247
967.979	0.0146597
968.057	0.0146344
968.135	0.0145715
968.213	0.0147967
968.291	0.0147908
968.369	0.0148730
968.447	0.0147591
968.526	0.0147648
968.604	0.0146325
968.682	0.0146476
968.760	0.0147633
968.838	0.0147116
968.916	0.0146111
968.994	0.0146507
969.072	0.0144712
969.151	0.0142908
969.229	0.0142915
969.307	0.0141639
969.385	0.0141418
969.463	0.0140051
969.541	0.0140565
969.619	0.0139930
969.697	0.0139082
969.776	0.0138848
969.854	0.0138956
969.932	0.0139303
970.010	0.0140492
970.088	0.0140705
970.166	0.0142536
970.244	0.0143331
970.322	0.0142154
970.401	0.0142801
970.479	0.0143093
970.557	0.0144265
970.635	0.0144406
970.713	0.0143204
970.791	0.0143308
970.869	0.0144187
970.947	0.0142194
971.026	0.0143393
971.104	0.0141883
971.182	0.0143108
971.260	0.0143733
971.338	0.0142455
971.416	0.0142632
971.494	0.0142348
971.572	0.0143134
971.651	0.0143939
971.729	0.0142484
971.807	0.0141482
971.885	0.0142449
971.963	0.0144032
972.041	0.0141759
972.119	0.0140033
972.197	0.0144090
972.276	0.0142828
972.354	0.0143122
972.432	0.0142995
972.510	0.0143669
972.588	0.0143494
972.666	0.0143526
972.744	0.0143470
972.822	0.0146107
972.901	0.0143773
972.979	0.0145576
973.057	0.0145959
973.135	0.0145830
973.213	0.0145556
973.291	0.0145691
973.369	0.0143920
973.447	0.0142666
973.526	0.0144099
973.604	0.0144141
973.682	0.0144630
973.760	0.0142603
973.838	0.0143649
973.916	0.0143107
973.994	0.0143303
974.072	0.0142417
974.151	0.0142433
974.229	0.0141994
974.307	0.0142162
974.385	0.0141079
974.463	0.0142905
974.541	0.0142883
974.619	0.0142267
974.697	0.0143594
974.776	0.0144318
974.854	0.0144798
974.932	0.0145570
975.010	0.0145011
975.088	0.0145803
975.166	0.0147002
975.244	0.0146232
975.322	0.0145676
975.401	0.0146198
975.479	0.0146095
975.557	0.0145792
975.635	0.0146220
975.713	0.0145232
975.791	0.0143918
975.869	0.0145149
975.947	0.0145039
976.026	0.0145239
976.104	0.0143426
976.182	0.0143392
976.260	0.0143542
976.338	0.0142619
976.416	0.0141663
976.494	0.0142264
976.572	0.0143280
976.651	0.0142764
976.729	0.0142885
976.807	0.0142728
976.885	0.0142927
976.963	0.0142638
977.041	0.0143027
977.119	0.0143025
977.197	0.0142252
977.276	0.0143041
977.354	0.0144267
977.432	0.0142990
977.510	0.0144756
977.588	0.0145792
977.666	0.0145882
977.744	0.0146159
977.822	0.0146384
977.901	0.0145544
977.979	0.0145197
978.057	0.0145747
978.135	0.0145338
978.213	0.0146584
978.291	0.0147636
978.369	0.0147005
978.447	0.0146352
978.526	0.0146191
978.604	0.0146573
978.682	0.0145739
978.760	0.0145534
978.838	0.0144855
978.916	0.0146024
978.994	0.0146047
979.072	0.0146195
979.151	0.0144144
979.229	0.0144134
979.307	0.0144118
979.385	0.0143315
979.463	0.0143867
979.541	0.0145790
979.619	0.0145118
979.697	0.0143624
979.776	0.0144863
979.854	0.0144941
979.932	0.0144504
