05/03/2022	20:03:51	Ver.	4.1	UNKNOWN
Optical Delay	660.003261	Delta X		0.078125	Sweeps	1	Scan Rate	0/0
Coordinates	Axis 1	NaN	Axis 2	NaN	Axis 3	NaN	Axis 4	NaN	Axis 5	NaN	Axis 6	0.000000
TX Power	0.000000	RX Power	0.000000

660.003	0.0147777
660.081	0.0147878
660.160	0.0147528
660.238	0.0148257
660.316	0.0149004
660.394	0.0148489
660.472	0.0148311
660.550	0.0146599
660.628	0.0148552
660.706	0.0149757
660.785	0.0147153
660.863	0.0147432
660.941	0.0148849
661.019	0.0147853
661.097	0.0147913
661.175	0.0147346
661.253	0.0148046
661.331	0.0147878
661.410	0.0148608
661.488	0.0147522
661.566	0.0148373
661.644	0.0147580
661.722	0.0148255
661.800	0.0147118
661.878	0.0146513
661.956	0.0147173
662.035	0.0147253
662.113	0.0146078
662.191	0.0147932
662.269	0.0147861
662.347	0.0147090
662.425	0.0146713
662.503	0.0147702
662.581	0.0147018
662.660	0.0148827
662.738	0.0147096
662.816	0.0148330
662.894	0.0147028
662.972	0.0147990
663.050	0.0147056
663.128	0.0147451
663.206	0.0148853
663.285	0.0147052
663.363	0.0146632
663.441	0.0148045
663.519	0.0147062
663.597	0.0147731
663.675	0.0147810
663.753	0.0148535
663.831	0.0147021
663.910	0.0148484
663.988	0.0147199
664.066	0.0147490
664.144	0.0148272
664.222	0.0148103
664.300	0.0147369
664.378	0.0148713
664.456	0.0147157
664.535	0.0147581
664.613	0.0147925
664.691	0.0148056
664.769	0.0147946
664.847	0.0146994
664.925	0.0148230
665.003	0.0148179
665.081	0.0147393
665.160	0.0148311
665.238	0.0147948
665.316	0.0147267
665.394	0.0148335
665.472	0.0147786
665.550	0.0147898
665.628	0.0147018
665.706	0.0148299
665.785	0.0147592
665.863	0.0146883
665.941	0.0147837
666.019	0.0148029
666.097	0.0148344
666.175	0.0147027
666.253	0.0147496
666.331	0.0146904
666.410	0.0147510
666.488	0.0147235
666.566	0.0147330
666.644	0.0147542
666.722	0.0147928
666.800	0.0147289
666.878	0.0146896
666.956	0.0147451
667.035	0.0147410
667.113	0.0147678
667.191	0.0147163
667.269	0.0146900
667.347	0.0146616
667.425	0.0147013
667.503	0.0147198
667.581	0.0147240
667.660	0.0147913
667.738	0.0146781
667.816	0.0148056
667.894	0.0147272
667.972	0.0147786
668.050	0.0146848
668.128	0.0147616
668.206	0.0147524
668.285	0.0146733
668.363	0.0146115
668.441	0.0148177
668.519	0.0147954
668.597	0.0147018
668.675	0.0146606
668.753	0.0147013
668.831	0.0147141
668.910	0.0146571
668.988	0.0147819
669.066	0.0148064
669.144	0.0147878
669.222	0.0146987
669.300	0.0146795
669.378	0.0146864
669.456	0.0147613
669.535	0.0147136
669.613	0.0145819
669.691	0.0146118
669.769	0.0147066
669.847	0.0147560
669.925	0.0146960
670.003	0.0146539
670.081	0.0147062
670.160	0.0149184
670.238	0.0146664
670.316	0.0145998
670.394	0.0146145
670.472	0.0148181
670.550	0.0147864
670.628	0.0146024
670.706	0.0148385
670.785	0.0148320
670.863	0.0146701
670.941	0.0146586
671.019	0.0146966
671.097	0.0148058
671.175	0.0146723
671.253	0.0147343
671.331	0.0147943
671.410	0.0147370
671.488	0.0147246
671.566	0.0146980
671.644	0.0147687
671.722	0.0149553
671.800	0.0148330
671.878	0.0148092
671.956	0.0147557
672.035	0.0147791
672.113	0.0146933
672.191	0.0147588
672.269	0.0147477
672.347	0.0147021
672.425	0.0147208
672.503	0.0146628
672.581	0.0147744
672.660	0.0147739
672.738	0.0147289
672.816	0.0148257
672.894	0.0147828
672.972	0.0146920
673.050	0.0148165
673.128	0.0147971
673.206	0.0146746
673.285	0.0148531
673.363	0.0147321
673.441	0.0148748
673.519	0.0147870
673.597	0.0146946
673.675	0.0147957
673.753	0.0147057
673.831	0.0146996
673.910	0.0146701
673.988	0.0147168
674.066	0.0148387
674.144	0.0146416
674.222	0.0146770
674.300	0.0148925
674.378	0.0147517
674.456	0.0148269
674.535	0.0148789
674.613	0.0147544
674.691	0.0147297
674.769	0.0147470
674.847	0.0148038
674.925	0.0148530
675.003	0.0147533
675.081	0.0146471
675.160	0.0147147
675.238	0.0147417
675.316	0.0147736
675.394	0.0148090
675.472	0.0147598
675.550	0.0147128
675.628	0.0146957
675.706	0.0147600
675.785	0.0147348
675.863	0.0147186
675.941	0.0147181
676.019	0.0146772
676.097	0.0146622
676.175	0.0147890
676.253	0.0147680
676.331	0.0148551
676.410	0.0148566
676.488	0.0147826
676.566	0.0147125
676.644	0.0148116
676.722	0.0148242
676.800	0.0145666
676.878	0.0147394
676.956	0.0147601
677.035	0.0148313
677.113	0.0147223
677.191	0.0146664
677.269	0.0146896
677.347	0.0147085
677.425	0.0147714
677.503	0.0146883
677.581	0.0148005
677.660	0.0146752
677.738	0.0148124
677.816	0.0147938
677.894	0.0146281
677.972	0.0147733
678.050	0.0149732
678.128	0.0146740
678.206	0.0148000
678.285	0.0148067
678.363	0.0147846
678.441	0.0147894
678.519	0.0147747
678.597	0.0148439
678.675	0.0147260
678.753	0.0147459
678.831	0.0148156
678.910	0.0148123
678.988	0.0146131
679.066	0.0147562
679.144	0.0148328
679.222	0.0148033
679.300	0.0148938
679.378	0.0147899
679.456	0.0147454
679.535	0.0147519
679.613	0.0147449
679.691	0.0147605
679.769	0.0148843
679.847	0.0149052
679.925	0.0148048
680.003	0.0148727
680.081	0.0147848
680.160	0.0147934
680.238	0.0148152
680.316	0.0146616
680.394	0.0147179
680.472	0.0148547
680.550	0.0147190
680.628	0.0147195
680.706	0.0148470
680.785	0.0147695
680.863	0.0146706
680.941	0.0146552
681.019	0.0146632
681.097	0.0147279
681.175	0.0146532
681.253	0.0145911
681.331	0.0147425
681.410	0.0147171
681.488	0.0148506
681.566	0.0146523
681.644	0.0148398
681.722	0.0146677
681.800	0.0149326
681.878	0.0147762
681.956	0.0147664
682.035	0.0147070
682.113	0.0147425
682.191	0.0147460
682.269	0.0147846
682.347	0.0148392
682.425	0.0148074
682.503	0.0148767
682.581	0.0147340
682.660	0.0148315
682.738	0.0148215
682.816	0.0146638
682.894	0.0147838
682.972	0.0148238
683.050	0.0148678
683.128	0.0149403
683.206	0.0147249
683.285	0.0146307
683.363	0.0147980
683.441	0.0148444
683.519	0.0148561
683.597	0.0146794
683.675	0.0148001
683.753	0.0148313
683.831	0.0146938
683.910	0.0147267
683.988	0.0148578
684.066	0.0147635
684.144	0.0147690
684.222	0.0147729
684.300	0.0148812
684.378	0.0147313
684.456	0.0147142
684.535	0.0147451
684.613	0.0149622
684.691	0.0146922
684.769	0.0145610
684.847	0.0147869
684.925	0.0149195
685.003	0.0147419
685.081	0.0145615
685.160	0.0146909
685.238	0.0148727
685.316	0.0147648
685.394	0.0147617
685.472	0.0147309
685.550	0.0147963
685.628	0.0147997
685.706	0.0147679
685.785	0.0147964
685.863	0.0147663
685.941	0.0148394
686.019	0.0147066
686.097	0.0147436
686.175	0.0146854
686.253	0.0147976
686.331	0.0147903
686.410	0.0148320
686.488	0.0148429
686.566	0.0148417
686.644	0.0147942
686.722	0.0147222
686.800	0.0148947
686.878	0.0148722
686.956	0.0148969
687.035	0.0146918
687.113	0.0147629
687.191	0.0148370
687.269	0.0148017
687.347	0.0147544
687.425	0.0148981
687.503	0.0147829
687.581	0.0147272
687.660	0.0147775
687.738	0.0148158
687.816	0.0146507
687.894	0.0147022
687.972	0.0148705
688.050	0.0147523
688.128	0.0147849
688.206	0.0147488
688.285	0.0147948
688.363	0.0147009
688.441	0.0147618
688.519	0.0148347
688.597	0.0147449
688.675	0.0147792
688.753	0.0146665
688.831	0.0147138
688.910	0.0148486
688.988	0.0147201
689.066	0.0149245
689.144	0.0147680
689.222	0.0147279
689.300	0.0147618
689.378	0.0147445
689.456	0.0148643
689.535	0.0147701
689.613	0.0147764
689.691	0.0148045
689.769	0.0147351
689.847	0.0147041
689.925	0.0147296
690.003	0.0146454
690.081	0.0145615
690.160	0.0146363
690.238	0.0147327
690.316	0.0147438
690.394	0.0147306
690.472	0.0146334
690.550	0.0146051
690.628	0.0147854
690.706	0.0146812
690.785	0.0148248
690.863	0.0148841
690.941	0.0147943
691.019	0.0146986
691.097	0.0147215
691.175	0.0148016
691.253	0.0148145
691.331	0.0147462
691.410	0.0146896
691.488	0.0148280
691.566	0.0147647
691.644	0.0147578
691.722	0.0147518
691.800	0.0147937
691.878	0.0148214
691.956	0.0147673
692.035	0.0146857
692.113	0.0147248
692.191	0.0146835
692.269	0.0147594
692.347	0.0147622
692.425	0.0148618
692.503	0.0146659
692.581	0.0148540
692.660	0.0148196
692.738	0.0147630
692.816	0.0148122
692.894	0.0148209
692.972	0.0148076
693.050	0.0147178
693.128	0.0147884
693.206	0.0147274
693.285	0.0148415
693.363	0.0148034
693.441	0.0147665
693.519	0.0147629
693.597	0.0148840
693.675	0.0148222
693.753	0.0147591
693.831	0.0147555
693.910	0.0147242
693.988	0.0147498
694.066	0.0147038
694.144	0.0147795
694.222	0.0147959
694.300	0.0147627
694.378	0.0146428
694.456	0.0147000
694.535	0.0148490
694.613	0.0148307
694.691	0.0148027
694.769	0.0147541
694.847	0.0147231
694.925	0.0148137
695.003	0.0148520
695.081	0.0146939
695.160	0.0146499
695.238	0.0148721
695.316	0.0148519
695.394	0.0146533
695.472	0.0147079
695.550	0.0148154
695.628	0.0146561
695.706	0.0147101
695.785	0.0147121
695.863	0.0147367
695.941	0.0148483
696.019	0.0147357
696.097	0.0147082
696.175	0.0148941
696.253	0.0146492
696.331	0.0147630
696.410	0.0147789
696.488	0.0147000
696.566	0.0147131
696.644	0.0148002
696.722	0.0147970
696.800	0.0147726
696.878	0.0147148
696.956	0.0147163
697.035	0.0146707
697.113	0.0148104
697.191	0.0146596
697.269	0.0145354
697.347	0.0147131
697.425	0.0147164
697.503	0.0146980
697.581	0.0147018
697.660	0.0148169
697.738	0.0147172
697.816	0.0148328
697.894	0.0147777
697.972	0.0147748
698.050	0.0147631
698.128	0.0148342
698.206	0.0147306
698.285	0.0147448
698.363	0.0148357
698.441	0.0147739
698.519	0.0146140
698.597	0.0146954
698.675	0.0148179
698.753	0.0148125
698.831	0.0149253
698.910	0.0147450
698.988	0.0148471
699.066	0.0148534
699.144	0.0146582
699.222	0.0147285
699.300	0.0147105
699.378	0.0147771
699.456	0.0147640
699.535	0.0148293
699.613	0.0147661
699.691	0.0148183
699.769	0.0146758
699.847	0.0147734
699.925	0.0147845
700.003	0.0148815
700.081	0.0145300
700.160	0.0147645
700.238	0.0146886
700.316	0.0147242
700.394	0.0148766
700.472	0.0148129
700.550	0.0146008
700.628	0.0147543
700.706	0.0147476
700.785	0.0147872
700.863	0.0148006
700.941	0.0148976
701.019	0.0147202
701.097	0.0147001
701.175	0.0147318
701.253	0.0147318
701.331	0.0147653
701.410	0.0147381
701.488	0.0148906
701.566	0.0148026
701.644	0.0147327
701.722	0.0148648
701.800	0.0148310
701.878	0.0147702
701.956	0.0148026
702.035	0.0146744
702.113	0.0147054
702.191	0.0148064
702.269	0.0147549
702.347	0.0147636
702.425	0.0148325
702.503	0.0148231
702.581	0.0147926
702.660	0.0147022
702.738	0.0149088
702.816	0.0147900
702.894	0.0148128
702.972	0.0147737
703.050	0.0147554
703.128	0.0147444
703.206	0.0147887
703.285	0.0146978
703.363	0.0146761
703.441	0.0148944
703.519	0.0146694
703.597	0.0146016
703.675	0.0148020
703.753	0.0146354
703.831	0.0147186
703.910	0.0146944
703.988	0.0146378
704.066	0.0145879
704.144	0.0147858
704.222	0.0148069
704.300	0.0148132
704.378	0.0147533
704.456	0.0148023
704.535	0.0147455
704.613	0.0148801
704.691	0.0149450
704.769	0.0150330
704.847	0.0150278
704.925	0.0150740
705.003	0.0150393
705.081	0.0149952
705.160	0.0150034
705.238	0.0150671
705.316	0.0151022
705.394	0.0149520
705.472	0.0150129
705.550	0.0149999
705.628	0.0149676
705.706	0.0149583
705.785	0.0149707
705.863	0.0150571
705.941	0.0150534
706.019	0.0149158
706.097	0.0149709
706.175	0.0149074
706.253	0.0148099
706.331	0.0148297
706.410	0.0148993
706.488	0.0149178
706.566	0.0148321
706.644	0.0149306
706.722	0.0148757
706.800	0.0150062
706.878	0.0149944
706.956	0.0148196
707.035	0.0148240
707.113	0.0149963
707.191	0.0150268
707.269	0.0149284
707.347	0.0150485
707.425	0.0149467
707.503	0.0148497
707.581	0.0149475
707.660	0.0148265
707.738	0.0149493
707.816	0.0148263
707.894	0.0147362
707.972	0.0147815
708.050	0.0144366
708.128	0.0143817
708.206	0.0140826
708.285	0.0139991
708.363	0.0139162
708.441	0.0137011
708.519	0.0133706
708.597	0.0130862
708.675	0.0127591
708.753	0.0121184
708.831	0.0117747
708.910	0.0112384
708.988	0.0109050
709.066	0.0105270
709.144	0.0102158
709.222	0.0101631
709.300	0.0105688
709.378	0.0110455
709.456	0.0117407
709.535	0.0129901
709.613	0.0143888
709.691	0.0157173
709.769	0.0170378
709.847	0.0184525
709.925	0.0195689
710.003	0.0203001
710.081	0.0208899
710.160	0.0210791
710.238	0.0208494
710.316	0.0204667
710.394	0.0199492
710.472	0.0189448
710.550	0.0181779
710.628	0.0169173
710.706	0.0160439
710.785	0.0151746
710.863	0.0145043
710.941	0.0141637
711.019	0.0139471
711.097	0.0140540
711.175	0.0144682
711.253	0.0150880
711.331	0.0159900
711.410	0.0170248
711.488	0.0178873
711.566	0.0188277
711.644	0.0194328
711.722	0.0196902
711.800	0.0197769
711.878	0.0194418
711.956	0.0184798
712.035	0.0170220
712.113	0.0153442
712.191	0.0134681
712.269	0.0110944
712.347	0.00911293
712.425	0.00705582
712.503	0.00551926
712.581	0.00437737
712.660	0.00395660
712.738	0.00404305
712.816	0.00465218
712.894	0.00553581
712.972	0.00681801
713.050	0.00810791
713.128	0.00942650
713.206	0.0106724
713.285	0.0121026
713.363	0.0133930
713.441	0.0145020
713.519	0.0155299
713.597	0.0164067
713.675	0.0174034
713.753	0.0180677
713.831	0.0187730
713.910	0.0194933
713.988	0.0201457
714.066	0.0209880
714.144	0.0217861
714.222	0.0227293
714.300	0.0234529
714.378	0.0241550
714.456	0.0248192
714.535	0.0250809
714.613	0.0250267
714.691	0.0244054
714.769	0.0235435
714.847	0.0223264
714.925	0.0206328
715.003	0.0188650
715.081	0.0168604
715.160	0.0144833
715.238	0.0121279
715.316	0.0101685
715.394	0.00832115
715.472	0.00675270
715.550	0.00553925
715.628	0.00468987
715.706	0.00429359
715.785	0.00429527
715.863	0.00470558
715.941	0.00523994
716.019	0.00620323
716.097	0.00731621
716.175	0.00857758
716.253	0.00964676
716.331	0.0110690
716.410	0.0122426
716.488	0.0136019
716.566	0.0147618
716.644	0.0159476
716.722	0.0166294
716.800	0.0173402
716.878	0.0179897
716.956	0.0183397
717.035	0.0187173
717.113	0.0188646
717.191	0.0189181
717.269	0.0190302
717.347	0.0191624
717.425	0.0193107
717.503	0.0196074
717.581	0.0196756
717.660	0.0198629
717.738	0.0198389
717.816	0.0197120
717.894	0.0196401
717.972	0.0190952
718.050	0.0188548
718.128	0.0184809
718.206	0.0178321
718.285	0.0173667
718.363	0.0165475
718.441	0.0158636
718.519	0.0151722
718.597	0.0143872
718.675	0.0137890
718.753	0.0131892
718.831	0.0126585
718.910	0.0122990
718.988	0.0118037
719.066	0.0116088
719.144	0.0112974
719.222	0.0110831
719.300	0.0110738
719.378	0.0111073
719.456	0.0110410
719.535	0.0110316
719.613	0.0111306
719.691	0.0111406
719.769	0.0110940
719.847	0.0110719
719.925	0.0114361
720.003	0.0113221
720.081	0.0116142
720.160	0.0118327
720.238	0.0119959
720.316	0.0122276
720.394	0.0124892
720.472	0.0125960
720.550	0.0128944
720.628	0.0131673
720.706	0.0134298
720.785	0.0136153
720.863	0.0142302
720.941	0.0145619
721.019	0.0149691
721.097	0.0153905
721.175	0.0161638
721.253	0.0164449
721.331	0.0169780
721.410	0.0174757
721.488	0.0177334
721.566	0.0180141
721.644	0.0182489
721.722	0.0182767
721.800	0.0180315
721.878	0.0182998
721.956	0.0182903
722.035	0.0181071
722.113	0.0181490
722.191	0.0178696
722.269	0.0177808
722.347	0.0177731
722.425	0.0176832
722.503	0.0174434
722.581	0.0174282
722.660	0.0171338
722.738	0.0170530
722.816	0.0170287
722.894	0.0168098
722.972	0.0165578
723.050	0.0161827
723.128	0.0161040
723.206	0.0157721
723.285	0.0154561
723.363	0.0149825
723.441	0.0147625
723.519	0.0143401
723.597	0.0138542
723.675	0.0134791
723.753	0.0130202
723.831	0.0124908
723.910	0.0120744
723.988	0.0117376
724.066	0.0111124
724.144	0.0108688
724.222	0.0106015
724.300	0.0102405
724.378	0.00996521
724.456	0.00983833
724.535	0.00975960
724.613	0.00980682
724.691	0.00989265
724.769	0.0101723
724.847	0.0105766
724.925	0.0108028
725.003	0.0113387
725.081	0.0117642
725.160	0.0123186
725.238	0.0129311
725.316	0.0132983
725.394	0.0140287
725.472	0.0147114
725.550	0.0152348
725.628	0.0156030
725.706	0.0160379
725.785	0.0166247
725.863	0.0169972
725.941	0.0174850
726.019	0.0178890
726.097	0.0183322
726.175	0.0186385
726.253	0.0187964
726.331	0.0189663
726.410	0.0190397
726.488	0.0190285
726.566	0.0190253
726.644	0.0188453
726.722	0.0187950
726.800	0.0184483
726.878	0.0181534
726.956	0.0178410
727.035	0.0175048
727.113	0.0171483
727.191	0.0169872
727.269	0.0166116
727.347	0.0162714
727.425	0.0160430
727.503	0.0154771
727.581	0.0153348
727.660	0.0151100
727.738	0.0148605
727.816	0.0148470
727.894	0.0147742
727.972	0.0146368
728.050	0.0146839
728.128	0.0146768
728.206	0.0148496
728.285	0.0147413
728.363	0.0147329
728.441	0.0147301
728.519	0.0146574
728.597	0.0147099
728.675	0.0145391
728.753	0.0143658
728.831	0.0142207
728.910	0.0138412
728.988	0.0136832
729.066	0.0132386
729.144	0.0127213
729.222	0.0124992
729.300	0.0120689
729.378	0.0117781
729.456	0.0115350
729.535	0.0114973
729.613	0.0115037
729.691	0.0114355
729.769	0.0114465
729.847	0.0114421
729.925	0.0115114
730.003	0.0115811
730.081	0.0117864
730.160	0.0119884
730.238	0.0122856
730.316	0.0125043
730.394	0.0127824
730.472	0.0129743
730.550	0.0131852
730.628	0.0133894
730.706	0.0138857
730.785	0.0139266
730.863	0.0141953
730.941	0.0145628
731.019	0.0147975
731.097	0.0150294
731.175	0.0150576
731.253	0.0151553
731.331	0.0155950
731.410	0.0158198
731.488	0.0159364
731.566	0.0164165
731.644	0.0165035
731.722	0.0168207
731.800	0.0171774
731.878	0.0173112
731.956	0.0175920
732.035	0.0178247
732.113	0.0180962
732.191	0.0182621
732.269	0.0183080
732.347	0.0182901
732.425	0.0181953
732.503	0.0180965
732.581	0.0180431
732.660	0.0178168
732.738	0.0175842
732.816	0.0172001
732.894	0.0167695
732.972	0.0166584
733.050	0.0162799
733.128	0.0159566
733.206	0.0156633
733.285	0.0154597
733.363	0.0151505
733.441	0.0150969
733.519	0.0147234
733.597	0.0147231
733.675	0.0146947
733.753	0.0146253
733.831	0.0146233
733.910	0.0144913
733.988	0.0144092
734.066	0.0143616
734.144	0.0141176
734.222	0.0137946
734.300	0.0137843
734.378	0.0136690
734.456	0.0133710
734.535	0.0130958
734.613	0.0126502
734.691	0.0124197
734.769	0.0121002
734.847	0.0118607
734.925	0.0116386
735.003	0.0114268
735.081	0.0113204
735.160	0.0112271
735.238	0.0113042
735.316	0.0113568
735.394	0.0115331
735.472	0.0119268
735.550	0.0123080
735.628	0.0124841
735.706	0.0128178
735.785	0.0131516
735.863	0.0134443
735.941	0.0138528
736.019	0.0142909
736.097	0.0144374
736.175	0.0146688
736.253	0.0151242
736.331	0.0151009
736.410	0.0152071
736.488	0.0154539
736.566	0.0155795
736.644	0.0155448
736.722	0.0156610
736.800	0.0156392
736.878	0.0156606
736.956	0.0157360
737.035	0.0157905
737.113	0.0158831
737.191	0.0160333
737.269	0.0162091
737.347	0.0162458
737.425	0.0163410
737.503	0.0163017
737.581	0.0164085
737.660	0.0163836
737.738	0.0164611
737.816	0.0164209
737.894	0.0165267
737.972	0.0164340
738.050	0.0163586
738.128	0.0162431
738.206	0.0162289
738.285	0.0161024
738.363	0.0158612
738.441	0.0159698
738.519	0.0157491
738.597	0.0156464
738.675	0.0156879
738.753	0.0157511
738.831	0.0158188
738.910	0.0156002
738.988	0.0155785
739.066	0.0154826
739.144	0.0155011
739.222	0.0153960
739.300	0.0152418
739.378	0.0151600
739.456	0.0150380
739.535	0.0148866
739.613	0.0149377
739.691	0.0149684
739.769	0.0148219
739.847	0.0147913
739.925	0.0147143
740.003	0.0147133
740.081	0.0147182
740.160	0.0145976
740.238	0.0146023
740.316	0.0145456
740.394	0.0143899
740.472	0.0144335
740.550	0.0142709
740.628	0.0142098
740.706	0.0140676
740.785	0.0139252
740.863	0.0136485
740.941	0.0135850
741.019	0.0133151
741.097	0.0131734
741.175	0.0130881
741.253	0.0128586
741.331	0.0127531
741.410	0.0128815
741.488	0.0128571
741.566	0.0127801
741.644	0.0130372
741.722	0.0131689
741.800	0.0131148
741.878	0.0133640
741.956	0.0136597
742.035	0.0135685
742.113	0.0136880
742.191	0.0138297
742.269	0.0137321
742.347	0.0140185
742.425	0.0140075
742.503	0.0141142
742.581	0.0141337
742.660	0.0141499
742.738	0.0141419
742.816	0.0141312
742.894	0.0142785
742.972	0.0142740
743.050	0.0142597
743.128	0.0144444
743.206	0.0145962
743.285	0.0147722
743.363	0.0147530
743.441	0.0148683
743.519	0.0151865
743.597	0.0154954
743.675	0.0155798
743.753	0.0158194
743.831	0.0160617
743.910	0.0160648
743.988	0.0161972
744.066	0.0164341
744.144	0.0166891
744.222	0.0165864
744.300	0.0167086
744.378	0.0169099
744.456	0.0169154
744.535	0.0169525
744.613	0.0169837
744.691	0.0168328
744.769	0.0167537
744.847	0.0166476
744.925	0.0164907
745.003	0.0164402
745.081	0.0163103
745.160	0.0162747
745.238	0.0160377
745.316	0.0159999
745.394	0.0156662
745.472	0.0154892
745.550	0.0155180
745.628	0.0152690
745.706	0.0149997
745.785	0.0148078
745.863	0.0147184
745.941	0.0147165
746.019	0.0145892
746.097	0.0143135
746.175	0.0140753
746.253	0.0139564
746.331	0.0138189
746.410	0.0135995
746.488	0.0135516
746.566	0.0135646
746.644	0.0134048
746.722	0.0133880
746.800	0.0134126
746.878	0.0133740
746.956	0.0133330
747.035	0.0134148
747.113	0.0134499
747.191	0.0134307
747.269	0.0133955
747.347	0.0134885
747.425	0.0135246
747.503	0.0133904
747.581	0.0133370
747.660	0.0132870
747.738	0.0134671
747.816	0.0133133
747.894	0.0135271
747.972	0.0135504
748.050	0.0135866
748.128	0.0137018
748.206	0.0137234
748.285	0.0138451
748.363	0.0139870
748.441	0.0140775
748.519	0.0141313
748.597	0.0146001
748.675	0.0146522
748.753	0.0148032
748.831	0.0149956
748.910	0.0150266
748.988	0.0152893
749.066	0.0152389
749.144	0.0154136
749.222	0.0154033
749.300	0.0155351
749.378	0.0155574
749.456	0.0156107
749.535	0.0157145
749.613	0.0157642
749.691	0.0157253
749.769	0.0158482
749.847	0.0158764
749.925	0.0158372
750.003	0.0159332
750.081	0.0159682
750.160	0.0157861
750.238	0.0158993
750.316	0.0158913
750.394	0.0157682
750.472	0.0157542
750.550	0.0157524
750.628	0.0155093
750.706	0.0155890
750.785	0.0155526
750.863	0.0155299
750.941	0.0154095
751.019	0.0154428
751.097	0.0152914
751.175	0.0154412
751.253	0.0152959
751.331	0.0155062
751.410	0.0154985
751.488	0.0154435
751.566	0.0156561
751.644	0.0155159
751.722	0.0155769
751.800	0.0155655
751.878	0.0155159
751.956	0.0154741
752.035	0.0155422
752.113	0.0154882
752.191	0.0153539
752.269	0.0155023
752.347	0.0154312
752.425	0.0153004
752.503	0.0152174
752.581	0.0149915
752.660	0.0151160
752.738	0.0150017
752.816	0.0146886
752.894	0.0145995
752.972	0.0146067
753.050	0.0144410
753.128	0.0142891
753.206	0.0142522
753.285	0.0140866
753.363	0.0141382
753.441	0.0139732
753.519	0.0139104
753.597	0.0138484
753.675	0.0138196
753.753	0.0136922
753.831	0.0136304
753.910	0.0134864
753.988	0.0134520
754.066	0.0133807
754.144	0.0133567
754.222	0.0133009
754.300	0.0131896
754.378	0.0132304
754.456	0.0131149
754.535	0.0131121
754.613	0.0131375
754.691	0.0133556
754.769	0.0133328
754.847	0.0133441
754.925	0.0134513
755.003	0.0136280
755.081	0.0138783
755.160	0.0139082
755.238	0.0140937
755.316	0.0143146
755.394	0.0144487
755.472	0.0144634
755.550	0.0146947
755.628	0.0148174
755.706	0.0148912
755.785	0.0149366
755.863	0.0151584
755.941	0.0153341
756.019	0.0152934
756.097	0.0153300
756.175	0.0156482
756.253	0.0155254
756.331	0.0155736
756.410	0.0157449
756.488	0.0158295
756.566	0.0158514
756.644	0.0158886
756.722	0.0158610
756.800	0.0160267
756.878	0.0161137
756.956	0.0160736
757.035	0.0160657
757.113	0.0161295
757.191	0.0162238
757.269	0.0161079
757.347	0.0160619
757.425	0.0160498
757.503	0.0161101
757.581	0.0158875
757.660	0.0157574
757.738	0.0156278
757.816	0.0155024
757.894	0.0155602
757.972	0.0154112
758.050	0.0153389
758.128	0.0152405
758.206	0.0150993
758.285	0.0150415
758.363	0.0148964
758.441	0.0147578
758.519	0.0148000
758.597	0.0147781
758.675	0.0147769
758.753	0.0147906
758.831	0.0147041
758.910	0.0146436
758.988	0.0146687
759.066	0.0147008
759.144	0.0147787
759.222	0.0147361
759.300	0.0145931
759.378	0.0146446
759.456	0.0146198
759.535	0.0145840
759.613	0.0146016
759.691	0.0144630
759.769	0.0144401
759.847	0.0144239
759.925	0.0143101
760.003	0.0142715
760.081	0.0142130
760.160	0.0140115
760.238	0.0140181
760.316	0.0140641
760.394	0.0139239
760.472	0.0137951
760.550	0.0138293
760.628	0.0138005
760.706	0.0137350
760.785	0.0136711
760.863	0.0137601
760.941	0.0138233
761.019	0.0138293
761.097	0.0139380
761.175	0.0139216
761.253	0.0139429
761.331	0.0140761
761.410	0.0140623
761.488	0.0141452
761.566	0.0142550
761.644	0.0142329
761.722	0.0141171
761.800	0.0143207
761.878	0.0142226
761.956	0.0143236
762.035	0.0145314
762.113	0.0145241
762.191	0.0146390
762.269	0.0149947
762.347	0.0149490
762.425	0.0150847
762.503	0.0151510
762.581	0.0152594
762.660	0.0151643
762.738	0.0153837
762.816	0.0152292
762.894	0.0153640
762.972	0.0154642
763.050	0.0154749
763.128	0.0153560
763.206	0.0153130
763.285	0.0154359
763.363	0.0153683
763.441	0.0152924
763.519	0.0154848
763.597	0.0155033
763.675	0.0155232
763.753	0.0156119
763.831	0.0156113
763.910	0.0155833
763.988	0.0156898
764.066	0.0156663
764.144	0.0157761
764.222	0.0157662
764.300	0.0157217
764.378	0.0157204
764.456	0.0156387
764.535	0.0156231
764.613	0.0156251
764.691	0.0154842
764.769	0.0153004
764.847	0.0152847
764.925	0.0150701
765.003	0.0150767
765.081	0.0149244
765.160	0.0149394
765.238	0.0148431
765.316	0.0147510
765.394	0.0146854
765.472	0.0146415
765.550	0.0145915
765.628	0.0145111
765.706	0.0146544
765.785	0.0145691
765.863	0.0145324
765.941	0.0145430
766.019	0.0143597
766.097	0.0142951
766.175	0.0143750
766.253	0.0142119
766.331	0.0144200
766.410	0.0144271
766.488	0.0143763
766.566	0.0143087
766.644	0.0143167
766.722	0.0144286
766.800	0.0143790
766.878	0.0145041
766.956	0.0144385
767.035	0.0143912
767.113	0.0143459
767.191	0.0143893
767.269	0.0144327
767.347	0.0142712
767.425	0.0142926
767.503	0.0141781
767.581	0.0141631
767.660	0.0141620
767.738	0.0140501
767.816	0.0142101
767.894	0.0142004
767.972	0.0140226
768.050	0.0140549
768.128	0.0140956
768.206	0.0143029
768.285	0.0141900
768.363	0.0143181
768.441	0.0144070
768.519	0.0143644
768.597	0.0144929
768.675	0.0143646
768.753	0.0143996
768.831	0.0142580
768.910	0.0145094
768.988	0.0145764
769.066	0.0143795
769.144	0.0146331
769.222	0.0148019
769.300	0.0147679
769.378	0.0148608
769.456	0.0149072
769.535	0.0149371
769.613	0.0150462
769.691	0.0151173
769.769	0.0152245
769.847	0.0151993
769.925	0.0151607
770.003	0.0151993
770.081	0.0152181
770.160	0.0152335
770.238	0.0152204
770.316	0.0152695
770.394	0.0153543
770.472	0.0153815
770.550	0.0151703
770.628	0.0151704
770.706	0.0151102
770.785	0.0152976
770.863	0.0153854
770.941	0.0152409
771.019	0.0151974
771.097	0.0153486
771.175	0.0152811
771.253	0.0152038
771.331	0.0152863
771.410	0.0151865
771.488	0.0150984
771.566	0.0151144
771.644	0.0151532
771.722	0.0150452
771.800	0.0151666
771.878	0.0151014
771.956	0.0150438
772.035	0.0150462
772.113	0.0151009
772.191	0.0150969
772.269	0.0150522
772.347	0.0150793
772.425	0.0152260
772.503	0.0151512
772.581	0.0151544
772.660	0.0151492
772.738	0.0152819
772.816	0.0151412
772.894	0.0151319
772.972	0.0150745
773.050	0.0149733
773.128	0.0149102
773.206	0.0150629
773.285	0.0148053
773.363	0.0147433
773.441	0.0147695
773.519	0.0145054
773.597	0.0145276
773.675	0.0144448
773.753	0.0143997
773.831	0.0144408
773.910	0.0142129
773.988	0.0139541
774.066	0.0139799
774.144	0.0137679
774.222	0.0137889
774.300	0.0137491
774.378	0.0136529
774.456	0.0136652
774.535	0.0135908
774.613	0.0135462
774.691	0.0136937
774.769	0.0136809
774.847	0.0137172
774.925	0.0137619
775.003	0.0136390
775.081	0.0138773
775.160	0.0140526
775.238	0.0141404
775.316	0.0141454
775.394	0.0143871
775.472	0.0142908
775.550	0.0144791
775.628	0.0147379
775.706	0.0146746
775.785	0.0147427
775.863	0.0148251
775.941	0.0147698
776.019	0.0148532
776.097	0.0148828
776.175	0.0149110
776.253	0.0150303
776.331	0.0149311
776.410	0.0150759
776.488	0.0151529
776.566	0.0150175
776.644	0.0152859
776.722	0.0152928
776.800	0.0153662
776.878	0.0154095
776.956	0.0154727
777.035	0.0154681
777.113	0.0154716
777.191	0.0155974
777.269	0.0155393
777.347	0.0156007
777.425	0.0156377
777.503	0.0155520
777.581	0.0155133
777.660	0.0154790
777.738	0.0154854
777.816	0.0155950
777.894	0.0154524
777.972	0.0155510
778.050	0.0154362
778.128	0.0152460
778.206	0.0152966
778.285	0.0153487
778.363	0.0152245
778.441	0.0151660
778.519	0.0152564
778.597	0.0152017
778.675	0.0151977
778.753	0.0151034
778.831	0.0149519
778.910	0.0150470
778.988	0.0151200
779.066	0.0150826
779.144	0.0149696
779.222	0.0149629
779.300	0.0150050
779.378	0.0149451
779.456	0.0149345
779.535	0.0150768
779.613	0.0150548
779.691	0.0149018
779.769	0.0149973
779.847	0.0150515
779.925	0.0149920
780.003	0.0148615
780.081	0.0148051
780.160	0.0148051
780.238	0.0147900
780.316	0.0147375
780.394	0.0147656
780.472	0.0147897
780.550	0.0145626
780.628	0.0146308
780.706	0.0144551
780.785	0.0144598
780.863	0.0144354
780.941	0.0145705
781.019	0.0143214
781.097	0.0143550
781.175	0.0142635
781.253	0.0143642
781.331	0.0143593
781.410	0.0142686
781.488	0.0143127
781.566	0.0143098
781.644	0.0142469
781.722	0.0142043
781.800	0.0142307
781.878	0.0142750
781.956	0.0141527
782.035	0.0142231
782.113	0.0144703
782.191	0.0143041
782.269	0.0144884
782.347	0.0142364
782.425	0.0143346
782.503	0.0144460
782.581	0.0144044
782.660	0.0142844
782.738	0.0143821
782.816	0.0145078
782.894	0.0145263
782.972	0.0143803
783.050	0.0146638
783.128	0.0147572
783.206	0.0147492
783.285	0.0147791
783.363	0.0147889
783.441	0.0149189
783.519	0.0149396
783.597	0.0150390
783.675	0.0150565
783.753	0.0150454
783.831	0.0152921
783.910	0.0152031
783.988	0.0152135
784.066	0.0151888
784.144	0.0151920
784.222	0.0151678
784.300	0.0151778
784.378	0.0150876
784.456	0.0153481
784.535	0.0153136
784.613	0.0152139
784.691	0.0151508
784.769	0.0152606
784.847	0.0153211
784.925	0.0151904
785.003	0.0151953
785.081	0.0151913
785.160	0.0152988
785.238	0.0151511
785.316	0.0152736
785.394	0.0151799
785.472	0.0152753
785.550	0.0153260
785.628	0.0152045
785.706	0.0151083
785.785	0.0151537
785.863	0.0149916
785.941	0.0150863
786.019	0.0151069
786.097	0.0149613
786.175	0.0150252
786.253	0.0149403
786.331	0.0146587
786.410	0.0147052
786.488	0.0146121
786.566	0.0145535
786.644	0.0146001
786.722	0.0144135
786.800	0.0144508
786.878	0.0143742
786.956	0.0143677
787.035	0.0143300
787.113	0.0143159
787.191	0.0142625
787.269	0.0143491
787.347	0.0143002
787.425	0.0144062
787.503	0.0143690
787.581	0.0142851
787.660	0.0144518
787.738	0.0144019
787.816	0.0145617
787.894	0.0145493
787.972	0.0144715
788.050	0.0145844
788.128	0.0145902
788.206	0.0145243
788.285	0.0144819
788.363	0.0144196
788.441	0.0144749
788.519	0.0145638
788.597	0.0144193
788.675	0.0143766
788.753	0.0143652
788.831	0.0143619
788.910	0.0144032
788.988	0.0145664
789.066	0.0145232
789.144	0.0144302
789.222	0.0144465
789.300	0.0143179
789.378	0.0144172
789.456	0.0145528
789.535	0.0146680
789.613	0.0144276
789.691	0.0145044
789.769	0.0145005
789.847	0.0146327
789.925	0.0144819
790.003	0.0145161
790.081	0.0144180
790.160	0.0143980
790.238	0.0147166
790.316	0.0145096
790.394	0.0146172
790.472	0.0145375
790.550	0.0146647
790.628	0.0147355
790.706	0.0147372
790.785	0.0148412
790.863	0.0147870
790.941	0.0148525
791.019	0.0147652
791.097	0.0148972
791.175	0.0150743
791.253	0.0149111
791.331	0.0148560
791.410	0.0149716
791.488	0.0149912
791.566	0.0149543
791.644	0.0148869
791.722	0.0150158
791.800	0.0150412
791.878	0.0149824
791.956	0.0149625
792.035	0.0151058
792.113	0.0151154
792.191	0.0150907
792.269	0.0151188
792.347	0.0151906
792.425	0.0152412
792.503	0.0152339
792.581	0.0152579
792.660	0.0152032
792.738	0.0151921
792.816	0.0151658
792.894	0.0152272
792.972	0.0152491
793.050	0.0152699
793.128	0.0151227
793.206	0.0152126
793.285	0.0150634
793.363	0.0151666
793.441	0.0150372
793.519	0.0150460
793.597	0.0149217
793.675	0.0150244
793.753	0.0149905
793.831	0.0149179
793.910	0.0148167
793.988	0.0147786
794.066	0.0147501
794.144	0.0148375
794.222	0.0147744
794.300	0.0145762
794.378	0.0145977
794.456	0.0145254
794.535	0.0145307
794.613	0.0146295
794.691	0.0144494
794.769	0.0144805
794.847	0.0142908
794.925	0.0144775
795.003	0.0141614
795.081	0.0143836
795.160	0.0143346
795.238	0.0141816
795.316	0.0140224
795.394	0.0141097
795.472	0.0141986
795.550	0.0141309
795.628	0.0140649
795.706	0.0140085
795.785	0.0139350
795.863	0.0140663
795.941	0.0142085
796.019	0.0140471
796.097	0.0140198
796.175	0.0142026
796.253	0.0143871
796.331	0.0142810
796.410	0.0143363
796.488	0.0145284
796.566	0.0144197
796.644	0.0143995
796.722	0.0147221
796.800	0.0146999
796.878	0.0145117
796.956	0.0147113
797.035	0.0147420
797.113	0.0147513
797.191	0.0148799
797.269	0.0147426
797.347	0.0147003
797.425	0.0148569
797.503	0.0150537
797.581	0.0148786
797.660	0.0148658
797.738	0.0148560
797.816	0.0150024
797.894	0.0149012
797.972	0.0148521
798.050	0.0149749
798.128	0.0148759
798.206	0.0147772
798.285	0.0148716
798.363	0.0149660
798.441	0.0149002
798.519	0.0148551
798.597	0.0149296
798.675	0.0148165
798.753	0.0148225
798.831	0.0150035
798.910	0.0148855
798.988	0.0148647
799.066	0.0150298
799.144	0.0149864
799.222	0.0147113
799.300	0.0149547
799.378	0.0149606
799.456	0.0149511
799.535	0.0150352
799.613	0.0149443
799.691	0.0148544
799.769	0.0148845
799.847	0.0149879
799.925	0.0149131
800.003	0.0148604
800.081	0.0150332
800.160	0.0150500
800.238	0.0150574
800.316	0.0151263
800.394	0.0151562
800.472	0.0152900
800.550	0.0152266
800.628	0.0151263
800.706	0.0151905
800.785	0.0151026
800.863	0.0152457
800.941	0.0152676
801.019	0.0152278
801.097	0.0151287
801.175	0.0151943
801.253	0.0153240
801.331	0.0150635
801.410	0.0151302
801.488	0.0150757
801.566	0.0149559
801.644	0.0150717
801.722	0.0148457
801.800	0.0149643
801.878	0.0147774
801.956	0.0147255
802.035	0.0146949
802.113	0.0146096
802.191	0.0145774
802.269	0.0144286
802.347	0.0143757
802.425	0.0144480
802.503	0.0143250
802.581	0.0142344
802.660	0.0142345
802.738	0.0142352
802.816	0.0142564
802.894	0.0142545
802.972	0.0143015
803.050	0.0142105
803.128	0.0141776
803.206	0.0143233
803.285	0.0143416
803.363	0.0142074
803.441	0.0142053
803.519	0.0140697
803.597	0.0141482
803.675	0.0142135
803.753	0.0142112
803.831	0.0142913
803.910	0.0142885
803.988	0.0143781
804.066	0.0143777
804.144	0.0143569
804.222	0.0144056
804.300	0.0145477
804.378	0.0144554
804.456	0.0145618
804.535	0.0146739
804.613	0.0145612
804.691	0.0147128
804.769	0.0146535
804.847	0.0145557
804.925	0.0144936
805.003	0.0145553
805.081	0.0145534
805.160	0.0144675
805.238	0.0144011
805.316	0.0144485
805.394	0.0143501
805.472	0.0144476
805.550	0.0143128
805.628	0.0143120
805.706	0.0143568
805.785	0.0145663
805.863	0.0146828
805.941	0.0149480
806.019	0.0150740
806.097	0.0153657
806.175	0.0155090
806.253	0.0158384
806.331	0.0160110
806.410	0.0161366
806.488	0.0161960
806.566	0.0161031
806.644	0.0160037
806.722	0.0160434
806.800	0.0158302
806.878	0.0157358
806.956	0.0157494
807.035	0.0155178
807.113	0.0153867
807.191	0.0152408
807.269	0.0153600
807.347	0.0153720
807.425	0.0151874
807.503	0.0153970
807.581	0.0153662
807.660	0.0153724
807.738	0.0153025
807.816	0.0152657
807.894	0.0152579
807.972	0.0153033
808.050	0.0154801
808.128	0.0154755
808.206	0.0153374
808.285	0.0152831
808.363	0.0151749
808.441	0.0149593
808.519	0.0148397
808.597	0.0146500
808.675	0.0144501
808.753	0.0141034
808.831	0.0137459
808.910	0.0136309
808.988	0.0134556
809.066	0.0130952
809.144	0.0129131
809.222	0.0128416
809.300	0.0129919
809.378	0.0130648
809.456	0.0130673
809.535	0.0131998
809.613	0.0133686
809.691	0.0136784
809.769	0.0139103
809.847	0.0139901
809.925	0.0142097
810.003	0.0146066
810.081	0.0147685
810.160	0.0149527
810.238	0.0152181
810.316	0.0151917
810.394	0.0153585
810.472	0.0155127
810.550	0.0154024
810.628	0.0156230
810.706	0.0157388
810.785	0.0157257
810.863	0.0158261
810.941	0.0157581
811.019	0.0158111
811.097	0.0158057
811.175	0.0156680
811.253	0.0157124
811.331	0.0156647
811.410	0.0154064
811.488	0.0151676
811.566	0.0149401
811.644	0.0148570
811.722	0.0145208
811.800	0.0142955
811.878	0.0140957
811.956	0.0139260
812.035	0.0138480
812.113	0.0136034
812.191	0.0137035
812.269	0.0137068
812.347	0.0137190
812.425	0.0138231
812.503	0.0139476
812.581	0.0139857
812.660	0.0141788
812.738	0.0141371
812.816	0.0144893
812.894	0.0146396
812.972	0.0146911
813.050	0.0148750
813.128	0.0149664
813.206	0.0152023
813.285	0.0151955
813.363	0.0153431
813.441	0.0155407
813.519	0.0155036
813.597	0.0155235
813.675	0.0155198
813.753	0.0156804
813.831	0.0156972
813.910	0.0157644
813.988	0.0157656
814.066	0.0157674
814.144	0.0156554
814.222	0.0155352
814.300	0.0156043
814.378	0.0154192
814.456	0.0156170
814.535	0.0156289
814.613	0.0155026
814.691	0.0155211
814.769	0.0153377
814.847	0.0153641
814.925	0.0152643
815.003	0.0152128
815.081	0.0150156
815.160	0.0150159
815.238	0.0148225
815.316	0.0145867
815.394	0.0145847
815.472	0.0145752
815.550	0.0142528
815.628	0.0141744
815.706	0.0140182
815.785	0.0140050
815.863	0.0138963
815.941	0.0138468
816.019	0.0138670
816.097	0.0137676
816.175	0.0137495
816.253	0.0136572
816.331	0.0135605
816.410	0.0136568
816.488	0.0135898
816.566	0.0137152
816.644	0.0137044
816.722	0.0136156
816.800	0.0138621
816.878	0.0140887
816.956	0.0141730
817.035	0.0141461
817.113	0.0143933
817.191	0.0146024
817.269	0.0147372
817.347	0.0147892
817.425	0.0148947
817.503	0.0150647
817.581	0.0151304
817.660	0.0151043
817.738	0.0153056
817.816	0.0154099
817.894	0.0152883
817.972	0.0152903
818.050	0.0153129
818.128	0.0152410
818.206	0.0150848
818.285	0.0151381
818.363	0.0152853
818.441	0.0150471
818.519	0.0149632
818.597	0.0151700
818.675	0.0150676
818.753	0.0150594
818.831	0.0150615
818.910	0.0148311
818.988	0.0148851
819.066	0.0149210
819.144	0.0148312
819.222	0.0148595
819.300	0.0147772
819.378	0.0147319
819.456	0.0146766
819.535	0.0148071
819.613	0.0147750
819.691	0.0148016
819.769	0.0146138
819.847	0.0146341
819.925	0.0147012
820.003	0.0146499
820.081	0.0146246
820.160	0.0145199
820.238	0.0144156
820.316	0.0147662
820.394	0.0146245
820.472	0.0145917
820.550	0.0145758
820.628	0.0147734
820.706	0.0146275
820.785	0.0147285
820.863	0.0145621
820.941	0.0147179
821.019	0.0146117
821.097	0.0145260
821.175	0.0145644
821.253	0.0145255
821.331	0.0144745
821.410	0.0145509
821.488	0.0144965
821.566	0.0147690
821.644	0.0147829
821.722	0.0147724
821.800	0.0147932
821.878	0.0147534
821.956	0.0150535
822.035	0.0149880
822.113	0.0149805
822.191	0.0149313
822.269	0.0151036
822.347	0.0150078
822.425	0.0149598
822.503	0.0149091
822.581	0.0149715
822.660	0.0149157
822.738	0.0149847
822.816	0.0149203
822.894	0.0151122
822.972	0.0149512
823.050	0.0150150
823.128	0.0151247
823.206	0.0151169
823.285	0.0151346
823.363	0.0152458
823.441	0.0153556
823.519	0.0151936
823.597	0.0150542
823.675	0.0152510
823.753	0.0151842
823.831	0.0151659
823.910	0.0151743
823.988	0.0151109
824.066	0.0150022
824.144	0.0149300
824.222	0.0148629
824.300	0.0148118
824.378	0.0145374
824.456	0.0145532
824.535	0.0145509
824.613	0.0145117
824.691	0.0143865
824.769	0.0143385
824.847	0.0142577
824.925	0.0141000
825.003	0.0141249
825.081	0.0143285
825.160	0.0142937
825.238	0.0141132
825.316	0.0141357
825.394	0.0140646
825.472	0.0140450
825.550	0.0141292
825.628	0.0140839
825.706	0.0141561
825.785	0.0140669
825.863	0.0141097
825.941	0.0141055
826.019	0.0140675
826.097	0.0142214
826.175	0.0142660
826.253	0.0142081
826.331	0.0143370
826.410	0.0144046
826.488	0.0144450
826.566	0.0145144
826.644	0.0145956
826.722	0.0147289
826.800	0.0147237
826.878	0.0147920
826.956	0.0150809
827.035	0.0150220
827.113	0.0149734
827.191	0.0150257
827.269	0.0149434
827.347	0.0150470
827.425	0.0149347
827.503	0.0150348
827.581	0.0150527
827.660	0.0151217
827.738	0.0149317
827.816	0.0151238
827.894	0.0150590
827.972	0.0151240
828.050	0.0153368
828.128	0.0151675
828.206	0.0152442
828.285	0.0153365
828.363	0.0153650
828.441	0.0153540
828.519	0.0154663
828.597	0.0155578
828.675	0.0155362
828.753	0.0156604
828.831	0.0156831
828.910	0.0155914
828.988	0.0155342
829.066	0.0156084
829.144	0.0154581
829.222	0.0154971
829.300	0.0154695
829.378	0.0154414
829.456	0.0152285
829.535	0.0152997
829.613	0.0152206
829.691	0.0152988
829.769	0.0151331
829.847	0.0151785
829.925	0.0151236
830.003	0.0151472
830.081	0.0149885
830.160	0.0148343
830.238	0.0148733
830.316	0.0146420
830.394	0.0147396
830.472	0.0145940
830.550	0.0146039
830.628	0.0146365
830.706	0.0147041
830.785	0.0144559
830.863	0.0144252
830.941	0.0143537
831.019	0.0143716
831.097	0.0143275
831.175	0.0141888
831.253	0.0139979
831.331	0.0140012
831.410	0.0138725
831.488	0.0138939
831.566	0.0136455
831.644	0.0136246
831.722	0.0138128
831.800	0.0136023
831.878	0.0134888
831.956	0.0132334
832.035	0.0132951
832.113	0.0133800
832.191	0.0135026
832.269	0.0134556
832.347	0.0136894
832.425	0.0138603
832.503	0.0140769
832.581	0.0143513
832.660	0.0145884
832.738	0.0147816
832.816	0.0149162
832.894	0.0150995
832.972	0.0152422
833.050	0.0153675
833.128	0.0153060
833.206	0.0152889
833.285	0.0154778
833.363	0.0152186
833.441	0.0152775
833.519	0.0153666
833.597	0.0152934
833.675	0.0152988
833.753	0.0154768
833.831	0.0156372
833.910	0.0156483
833.988	0.0156989
834.066	0.0158176
834.144	0.0158309
834.222	0.0158177
834.300	0.0157563
834.378	0.0156429
834.456	0.0156318
834.535	0.0153886
834.613	0.0151493
834.691	0.0150352
834.769	0.0149519
834.847	0.0147505
834.925	0.0146159
835.003	0.0144666
835.081	0.0144401
835.160	0.0144753
835.238	0.0145142
835.316	0.0145718
835.394	0.0148006
835.472	0.0149191
835.550	0.0149429
835.628	0.0152065
835.706	0.0153711
835.785	0.0153986
835.863	0.0154213
835.941	0.0154737
836.019	0.0154747
836.097	0.0153835
836.175	0.0154018
836.253	0.0151852
836.331	0.0150645
836.410	0.0149211
836.488	0.0147199
836.566	0.0145890
836.644	0.0144272
836.722	0.0143272
836.800	0.0140657
836.878	0.0140318
836.956	0.0139553
837.035	0.0139384
837.113	0.0139822
837.191	0.0139948
837.269	0.0140161
837.347	0.0142583
837.425	0.0142339
837.503	0.0143617
837.581	0.0145844
837.660	0.0147051
837.738	0.0146489
837.816	0.0149577
837.894	0.0149515
837.972	0.0150430
838.050	0.0149718
838.128	0.0149936
838.206	0.0149744
838.285	0.0148508
838.363	0.0148434
838.441	0.0148135
838.519	0.0147694
838.597	0.0146862
838.675	0.0146346
838.753	0.0144704
838.831	0.0143813
838.910	0.0143484
838.988	0.0143930
839.066	0.0143679
839.144	0.0142766
839.222	0.0142843
839.300	0.0142786
839.378	0.0142280
839.456	0.0143535
839.535	0.0142018
839.613	0.0142632
839.691	0.0143151
839.769	0.0144509
839.847	0.0143568
839.925	0.0144794
840.003	0.0146393
840.081	0.0147813
840.160	0.0149476
840.238	0.0150755
840.316	0.0151174
840.394	0.0152464
840.472	0.0152193
840.550	0.0151398
840.628	0.0154674
840.706	0.0153134
840.785	0.0152965
840.863	0.0152152
840.941	0.0152312
841.019	0.0154334
841.097	0.0152142
841.175	0.0152109
841.253	0.0152544
841.331	0.0151924
841.410	0.0151897
841.488	0.0152370
841.566	0.0151094
841.644	0.0150407
841.722	0.0151657
841.800	0.0149254
841.878	0.0150880
841.956	0.0149110
842.035	0.0149995
842.113	0.0150407
842.191	0.0148794
842.269	0.0149247
842.347	0.0147985
842.425	0.0147539
842.503	0.0149171
842.581	0.0147954
842.660	0.0147810
842.738	0.0148152
842.816	0.0146014
842.894	0.0145914
842.972	0.0145021
843.050	0.0145695
843.128	0.0144799
843.206	0.0145430
843.285	0.0145431
843.363	0.0144982
843.441	0.0144214
843.519	0.0145237
843.597	0.0144335
843.675	0.0145396
843.753	0.0145033
843.831	0.0143698
843.910	0.0146421
843.988	0.0145676
844.066	0.0145213
844.144	0.0147613
844.222	0.0148916
844.300	0.0147699
844.378	0.0149398
844.456	0.0150329
844.535	0.0149780
844.613	0.0150092
844.691	0.0150543
844.769	0.0149323
844.847	0.0150239
844.925	0.0151858
845.003	0.0152304
845.081	0.0151210
845.160	0.0150107
845.238	0.0151307
845.316	0.0149454
845.394	0.0148531
845.472	0.0149569
845.550	0.0147675
845.628	0.0149610
845.706	0.0148949
845.785	0.0148618
845.863	0.0147533
845.941	0.0146261
846.019	0.0146455
846.097	0.0147295
846.175	0.0146140
846.253	0.0144691
846.331	0.0146606
846.410	0.0146773
846.488	0.0145528
846.566	0.0144629
846.644	0.0146059
846.722	0.0147577
846.800	0.0147552
846.878	0.0146413
846.956	0.0147813
847.035	0.0147495
847.113	0.0147775
847.191	0.0148650
847.269	0.0149392
847.347	0.0149825
847.425	0.0148966
847.503	0.0149567
847.581	0.0147379
847.660	0.0149506
847.738	0.0146989
847.816	0.0146799
847.894	0.0147447
847.972	0.0147510
848.050	0.0147520
848.128	0.0146533
848.206	0.0146660
848.285	0.0147257
848.363	0.0146731
848.441	0.0146090
848.519	0.0146659
848.597	0.0145671
848.675	0.0147254
848.753	0.0147744
848.831	0.0148380
848.910	0.0148356
848.988	0.0148792
849.066	0.0148476
849.144	0.0149636
849.222	0.0150038
849.300	0.0148923
849.378	0.0148858
849.456	0.0150188
849.535	0.0151346
849.613	0.0149144
849.691	0.0151652
849.769	0.0151336
849.847	0.0151709
849.925	0.0150735
850.003	0.0152179
850.081	0.0150945
850.160	0.0152175
850.238	0.0151889
850.316	0.0151672
850.394	0.0150845
850.472	0.0150494
850.550	0.0148100
850.628	0.0148090
850.706	0.0146694
850.785	0.0146539
850.863	0.0144296
850.941	0.0145735
851.019	0.0145440
851.097	0.0144737
851.175	0.0144293
851.253	0.0144752
851.331	0.0144871
851.410	0.0146004
851.488	0.0145551
851.566	0.0146320
851.644	0.0146085
851.722	0.0148262
851.800	0.0149416
851.878	0.0148604
851.956	0.0148331
852.035	0.0148959
852.113	0.0150161
852.191	0.0148000
852.269	0.0149129
852.347	0.0148985
852.425	0.0148923
852.503	0.0146454
852.581	0.0147146
852.660	0.0148731
852.738	0.0147573
852.816	0.0147594
852.894	0.0147958
852.972	0.0148997
853.050	0.0149353
853.128	0.0148666
853.206	0.0148621
853.285	0.0148869
853.363	0.0150002
853.441	0.0148651
853.519	0.0148718
853.597	0.0147673
853.675	0.0148080
853.753	0.0147750
853.831	0.0147047
853.910	0.0145251
853.988	0.0146324
854.066	0.0146088
854.144	0.0145249
854.222	0.0146717
854.300	0.0146062
854.378	0.0146118
854.456	0.0146404
854.535	0.0146060
854.613	0.0145941
854.691	0.0146279
854.769	0.0146256
854.847	0.0146962
854.925	0.0147798
855.003	0.0146846
855.081	0.0147790
855.160	0.0146710
855.238	0.0149046
855.316	0.0148578
855.394	0.0149203
855.472	0.0148335
855.550	0.0148401
855.628	0.0149796
855.706	0.0150580
855.785	0.0149961
855.863	0.0149949
855.941	0.0151493
856.019	0.0151202
856.097	0.0150230
856.175	0.0150497
856.253	0.0150278
856.331	0.0149909
856.410	0.0149982
856.488	0.0149384
856.566	0.0149974
856.644	0.0150065
856.722	0.0149522
856.800	0.0149329
856.878	0.0148726
856.956	0.0146935
857.035	0.0148247
857.113	0.0147748
857.191	0.0145992
857.269	0.0147091
857.347	0.0146358
857.425	0.0147851
857.503	0.0147209
857.581	0.0148443
857.660	0.0149194
857.738	0.0148431
857.816	0.0148730
857.894	0.0149910
857.972	0.0149249
858.050	0.0149409
858.128	0.0148676
858.206	0.0148043
858.285	0.0148672
858.363	0.0147710
858.441	0.0148536
858.519	0.0147823
858.597	0.0147485
858.675	0.0149029
858.753	0.0147726
858.831	0.0147581
858.910	0.0147215
858.988	0.0148912
859.066	0.0147221
859.144	0.0148668
859.222	0.0148382
859.300	0.0147648
859.378	0.0147621
859.456	0.0147402
859.535	0.0148929
859.613	0.0147844
859.691	0.0148667
859.769	0.0146881
859.847	0.0148795
859.925	0.0147948
860.003	0.0150188
860.081	0.0149744
860.160	0.0149793
860.238	0.0148628
860.316	0.0148771
860.394	0.0149557
860.472	0.0149561
860.550	0.0150171
860.628	0.0149395
860.706	0.0150057
860.785	0.0150102
860.863	0.0150566
860.941	0.0150278
861.019	0.0149435
861.097	0.0149886
861.175	0.0148531
861.253	0.0148314
861.331	0.0147952
861.410	0.0147749
861.488	0.0147720
861.566	0.0145910
861.644	0.0146230
861.722	0.0145029
861.800	0.0145580
861.878	0.0144659
861.956	0.0145370
862.035	0.0144280
862.113	0.0145708
862.191	0.0145029
862.269	0.0145112
862.347	0.0144995
862.425	0.0144643
862.503	0.0143751
862.581	0.0145229
862.660	0.0145544
862.738	0.0144904
862.816	0.0145061
862.894	0.0144476
862.972	0.0145741
863.050	0.0145313
863.128	0.0146155
863.206	0.0146924
863.285	0.0147452
863.363	0.0147630
863.441	0.0146751
863.519	0.0147989
863.597	0.0147174
863.675	0.0148032
863.753	0.0147987
863.831	0.0149184
863.910	0.0149172
863.988	0.0150845
864.066	0.0150251
864.144	0.0151097
864.222	0.0152185
864.300	0.0153010
864.378	0.0152245
864.456	0.0152243
864.535	0.0152493
864.613	0.0152350
864.691	0.0151957
864.769	0.0153152
864.847	0.0152679
864.925	0.0151934
865.003	0.0152690
865.081	0.0151566
865.160	0.0150311
865.238	0.0150069
865.316	0.0151421
865.394	0.0150993
865.472	0.0151599
865.550	0.0149666
865.628	0.0148366
865.706	0.0150349
865.785	0.0149706
865.863	0.0149302
865.941	0.0147748
866.019	0.0146310
866.097	0.0147105
866.175	0.0147046
866.253	0.0147515
866.331	0.0146738
866.410	0.0147121
866.488	0.0145728
866.566	0.0146809
866.644	0.0147508
866.722	0.0146775
866.800	0.0147465
866.878	0.0146037
866.956	0.0145649
867.035	0.0146723
867.113	0.0145529
867.191	0.0147015
867.269	0.0147071
867.347	0.0145379
867.425	0.0146916
867.503	0.0147491
867.581	0.0146569
867.660	0.0145924
867.738	0.0146985
867.816	0.0146889
867.894	0.0145866
867.972	0.0145059
868.050	0.0146210
868.128	0.0146366
868.206	0.0145431
868.285	0.0145619
868.363	0.0145136
868.441	0.0145718
868.519	0.0145406
868.597	0.0145296
868.675	0.0146965
868.753	0.0146542
868.831	0.0147263
868.910	0.0146465
868.988	0.0149110
869.066	0.0149119
869.144	0.0148048
869.222	0.0148135
869.300	0.0149551
869.378	0.0147649
869.456	0.0147823
869.535	0.0147673
869.613	0.0147431
869.691	0.0147711
869.769	0.0147907
869.847	0.0148194
869.925	0.0147425
870.003	0.0145534
870.081	0.0146758
870.160	0.0147523
870.238	0.0146297
870.316	0.0147586
870.394	0.0146700
870.472	0.0147698
870.550	0.0147494
870.628	0.0146786
870.706	0.0146535
870.785	0.0148297
870.863	0.0147755
870.941	0.0149149
871.019	0.0149386
871.097	0.0149496
871.175	0.0150787
871.253	0.0150185
871.331	0.0150460
871.410	0.0151525
871.488	0.0151102
871.566	0.0150023
871.644	0.0150402
871.722	0.0150581
871.800	0.0150751
871.878	0.0148402
871.956	0.0149246
872.035	0.0148160
872.113	0.0149471
872.191	0.0147473
872.269	0.0146908
872.347	0.0146416
872.425	0.0146882
872.503	0.0145176
872.581	0.0146484
872.660	0.0146259
872.738	0.0144157
872.816	0.0146165
872.894	0.0146512
872.972	0.0147001
873.050	0.0147041
873.128	0.0146308
873.206	0.0147749
873.285	0.0148488
873.363	0.0149659
873.441	0.0150468
873.519	0.0149880
873.597	0.0150045
873.675	0.0150468
873.753	0.0151984
873.831	0.0150730
873.910	0.0150762
873.988	0.0151294
874.066	0.0151090
874.144	0.0150992
874.222	0.0150916
874.300	0.0150398
874.378	0.0150449
874.456	0.0149562
874.535	0.0148341
874.613	0.0147027
874.691	0.0147684
874.769	0.0146518
874.847	0.0147030
874.925	0.0145239
875.003	0.0145713
875.081	0.0145165
875.160	0.0143951
875.238	0.0144665
875.316	0.0144022
875.394	0.0145296
875.472	0.0146072
875.550	0.0146584
875.628	0.0146322
875.706	0.0143658
875.785	0.0146194
875.863	0.0148508
875.941	0.0148941
876.019	0.0146681
876.097	0.0147427
876.175	0.0147326
876.253	0.0146922
876.331	0.0147213
876.410	0.0147607
876.488	0.0144984
876.566	0.0144752
876.644	0.0145114
876.722	0.0144226
876.800	0.0143211
876.878	0.0142188
876.956	0.0143433
877.035	0.0144580
877.113	0.0144249
877.191	0.0145370
877.269	0.0144805
877.347	0.0145090
877.425	0.0145596
877.503	0.0148512
877.581	0.0147596
877.660	0.0148814
877.738	0.0149072
877.816	0.0149567
877.894	0.0151277
877.972	0.0151275
878.050	0.0151163
878.128	0.0150936
878.206	0.0150523
878.285	0.0147742
878.363	0.0149614
878.441	0.0148405
878.519	0.0148817
878.597	0.0147477
878.675	0.0145223
878.753	0.0146447
878.831	0.0145861
878.910	0.0144568
878.988	0.0144210
879.066	0.0145335
879.144	0.0145028
879.222	0.0145784
879.300	0.0144951
879.378	0.0145768
879.456	0.0145452
879.535	0.0147269
879.613	0.0145943
879.691	0.0145717
879.769	0.0148267
879.847	0.0149730
879.925	0.0148412
880.003	0.0149179
880.081	0.0148731
880.160	0.0150066
880.238	0.0149734
880.316	0.0150037
880.394	0.0151490
880.472	0.0150084
880.550	0.0150789
880.628	0.0149962
880.706	0.0150137
880.785	0.0150273
880.863	0.0151284
880.941	0.0149953
881.019	0.0146867
881.097	0.0146665
881.175	0.0149021
881.253	0.0147424
881.331	0.0145875
881.410	0.0146362
881.488	0.0147100
881.566	0.0146225
881.644	0.0147720
881.722	0.0147802
881.800	0.0147401
881.878	0.0148168
881.956	0.0148704
882.035	0.0148930
882.113	0.0150925
882.191	0.0150254
882.269	0.0150717
882.347	0.0150325
882.425	0.0150216
882.503	0.0150623
882.581	0.0151103
882.660	0.0150034
882.738	0.0149203
882.816	0.0149089
882.894	0.0150018
882.972	0.0149242
883.050	0.0147636
883.128	0.0148186
883.206	0.0148563
883.285	0.0147175
883.363	0.0146353
883.441	0.0146418
883.519	0.0146235
883.597	0.0145116
883.675	0.0145416
883.753	0.0144861
883.831	0.0144961
883.910	0.0144413
883.988	0.0144743
884.066	0.0145270
884.144	0.0146481
884.222	0.0146830
884.300	0.0147159
884.378	0.0147432
884.456	0.0146589
884.535	0.0147459
884.613	0.0147824
884.691	0.0148012
884.769	0.0148442
884.847	0.0147723
884.925	0.0147609
885.003	0.0147717
885.081	0.0147081
885.160	0.0147968
885.238	0.0146815
885.316	0.0146559
885.394	0.0148085
885.472	0.0146002
885.550	0.0147108
885.628	0.0146305
885.706	0.0146736
885.785	0.0146957
885.863	0.0146822
885.941	0.0149107
886.019	0.0149357
886.097	0.0150015
886.175	0.0149194
886.253	0.0147919
886.331	0.0150990
886.410	0.0149952
886.488	0.0148397
886.566	0.0150481
886.644	0.0149458
886.722	0.0148205
886.800	0.0148275
886.878	0.0148980
886.956	0.0149078
887.035	0.0149065
887.113	0.0148535
887.191	0.0148590
887.269	0.0148273
887.347	0.0148724
887.425	0.0149145
887.503	0.0148193
887.581	0.0147490
887.660	0.0147477
887.738	0.0149390
887.816	0.0147876
887.894	0.0146579
887.972	0.0146302
888.050	0.0144789
888.128	0.0145010
888.206	0.0144485
888.285	0.0144216
888.363	0.0143566
888.441	0.0143777
888.519	0.0145486
888.597	0.0144633
888.675	0.0146128
888.753	0.0145622
888.831	0.0144955
888.910	0.0146703
888.988	0.0148015
889.066	0.0149046
889.144	0.0149356
889.222	0.0149801
889.300	0.0148100
889.378	0.0150042
889.456	0.0149735
889.535	0.0149842
889.613	0.0150047
889.691	0.0148416
889.769	0.0148393
889.847	0.0147028
889.925	0.0147928
890.003	0.0146561
890.081	0.0146186
890.160	0.0147520
890.238	0.0146568
890.316	0.0145801
890.394	0.0144852
890.472	0.0147215
890.550	0.0148399
890.628	0.0145113
890.706	0.0145887
890.785	0.0147462
890.863	0.0145181
890.941	0.0145522
891.019	0.0145863
891.097	0.0144389
891.175	0.0145084
891.253	0.0146046
891.331	0.0145705
891.410	0.0145365
891.488	0.0144896
891.566	0.0145324
891.644	0.0145097
891.722	0.0143600
891.800	0.0144589
891.878	0.0144350
891.956	0.0144840
892.035	0.0145541
892.113	0.0146501
892.191	0.0147319
892.269	0.0145793
892.347	0.0147454
892.425	0.0146616
892.503	0.0145734
892.581	0.0149100
892.660	0.0147740
892.738	0.0147414
892.816	0.0147348
892.894	0.0147784
892.972	0.0148106
893.050	0.0146281
893.128	0.0146346
893.206	0.0146737
893.285	0.0147141
893.363	0.0147615
893.441	0.0146306
893.519	0.0147871
893.597	0.0149366
893.675	0.0148730
893.753	0.0149976
893.831	0.0149316
893.910	0.0146964
893.988	0.0148713
894.066	0.0149492
894.144	0.0149239
894.222	0.0149648
894.300	0.0151330
894.378	0.0151019
894.456	0.0150602
894.535	0.0150860
894.613	0.0150570
894.691	0.0152169
894.769	0.0152118
894.847	0.0150845
894.925	0.0151927
895.003	0.0151482
895.081	0.0151437
895.160	0.0149902
895.238	0.0149542
895.316	0.0148870
895.394	0.0147007
895.472	0.0147208
895.550	0.0146955
895.628	0.0148894
895.706	0.0146525
895.785	0.0147936
895.863	0.0148339
895.941	0.0148672
896.019	0.0146918
896.097	0.0146817
896.175	0.0147621
896.253	0.0146815
896.331	0.0147898
896.410	0.0147812
896.488	0.0148544
896.566	0.0147635
896.644	0.0148235
896.722	0.0148526
896.800	0.0148541
896.878	0.0148600
896.956	0.0147699
897.035	0.0148378
897.113	0.0149363
897.191	0.0148294
897.269	0.0148790
897.347	0.0148595
897.425	0.0149952
897.503	0.0148000
897.581	0.0147806
897.660	0.0148850
897.738	0.0147770
897.816	0.0148157
897.894	0.0146743
897.972	0.0147679
898.050	0.0147588
898.128	0.0146588
898.206	0.0147308
898.285	0.0147721
898.363	0.0145281
898.441	0.0144836
898.519	0.0145214
898.597	0.0144668
898.675	0.0145395
898.753	0.0146201
898.831	0.0145496
898.910	0.0145432
898.988	0.0145490
899.066	0.0145381
899.144	0.0145259
899.222	0.0145025
899.300	0.0145783
899.378	0.0144513
899.456	0.0145757
899.535	0.0144666
899.613	0.0145434
899.691	0.0145409
899.769	0.0144140
899.847	0.0144093
899.925	0.0143452
900.003	0.0144347
900.081	0.0143166
900.160	0.0141926
900.238	0.0143101
900.316	0.0143761
900.394	0.0142908
900.472	0.0144291
900.550	0.0144447
900.628	0.0143773
900.706	0.0143663
900.785	0.0144577
900.863	0.0145926
900.941	0.0147109
901.019	0.0148555
901.097	0.0151672
901.175	0.0151571
901.253	0.0154377
901.331	0.0157150
901.410	0.0156594
901.488	0.0160944
901.566	0.0161566
901.644	0.0162112
901.722	0.0163284
901.800	0.0162653
901.878	0.0162792
901.956	0.0161301
902.035	0.0157214
902.113	0.0154877
902.191	0.0150891
902.269	0.0146101
902.347	0.0141962
902.425	0.0138319
902.503	0.0133575
902.581	0.0132087
902.660	0.0131087
902.738	0.0132630
902.816	0.0134396
902.894	0.0136111
902.972	0.0141174
903.050	0.0144888
903.128	0.0151302
903.206	0.0154608
903.285	0.0156712
903.363	0.0157585
903.441	0.0156497
903.519	0.0156712
903.597	0.0152569
903.675	0.0148277
903.753	0.0144151
903.831	0.0141252
903.910	0.0135830
903.988	0.0132581
904.066	0.0131420
904.144	0.0130638
904.222	0.0131970
904.300	0.0132917
904.378	0.0137203
904.456	0.0142144
904.535	0.0145864
904.613	0.0150490
904.691	0.0155719
904.769	0.0160417
904.847	0.0163181
904.925	0.0165823
905.003	0.0167502
905.081	0.0168905
905.160	0.0167058
905.238	0.0164660
905.316	0.0162952
905.394	0.0160487
905.472	0.0156194
905.550	0.0152681
905.628	0.0152193
905.706	0.0149112
905.785	0.0147573
905.863	0.0144551
905.941	0.0144394
906.019	0.0142907
906.097	0.0144193
906.175	0.0144077
906.253	0.0143095
906.331	0.0141458
906.410	0.0143465
906.488	0.0144540
906.566	0.0146404
906.644	0.0144280
906.722	0.0143743
906.800	0.0144810
906.878	0.0142689
906.956	0.0143233
907.035	0.0141388
907.113	0.0139575
907.191	0.0138200
907.269	0.0138678
907.347	0.0137569
907.425	0.0137648
907.503	0.0139781
907.581	0.0139175
907.660	0.0142252
907.738	0.0144198
907.816	0.0146646
907.894	0.0148257
907.972	0.0149892
908.050	0.0152600
908.128	0.0153230
908.206	0.0154984
908.285	0.0155917
908.363	0.0156531
908.441	0.0156806
908.519	0.0156424
908.597	0.0155879
908.675	0.0155830
908.753	0.0155724
908.831	0.0155089
908.910	0.0151863
908.988	0.0152892
909.066	0.0152506
909.144	0.0151158
909.222	0.0149383
909.300	0.0151121
909.378	0.0150350
909.456	0.0148481
909.535	0.0149020
909.613	0.0147740
909.691	0.0147807
909.769	0.0147524
909.847	0.0147093
909.925	0.0145909
910.003	0.0146252
910.081	0.0144927
910.160	0.0143497
910.238	0.0144653
910.316	0.0143625
910.394	0.0142462
910.472	0.0143961
910.550	0.0144144
910.628	0.0144724
910.706	0.0145690
910.785	0.0147276
910.863	0.0146751
910.941	0.0146760
911.019	0.0146267
911.097	0.0147031
911.175	0.0147965
911.253	0.0147399
911.331	0.0146671
911.410	0.0146603
911.488	0.0146405
911.566	0.0146706
911.644	0.0147896
911.722	0.0147821
911.800	0.0147234
911.878	0.0147219
911.956	0.0147689
912.035	0.0147811
912.113	0.0147881
912.191	0.0148845
912.269	0.0148653
912.347	0.0149200
912.425	0.0148673
912.503	0.0150765
912.581	0.0149313
912.660	0.0148507
912.738	0.0150525
912.816	0.0150257
912.894	0.0149796
912.972	0.0149210
913.050	0.0149206
913.128	0.0148615
913.206	0.0148993
913.285	0.0148952
913.363	0.0149306
913.441	0.0148238
913.519	0.0149043
913.597	0.0146330
913.675	0.0145611
913.753	0.0146909
913.831	0.0146056
913.910	0.0146513
913.988	0.0146601
914.066	0.0147160
914.144	0.0146819
914.222	0.0147427
914.300	0.0148904
914.378	0.0149606
914.456	0.0149654
914.535	0.0148560
914.613	0.0148878
914.691	0.0149606
914.769	0.0149402
914.847	0.0148410
914.925	0.0148130
915.003	0.0148446
915.081	0.0148278
915.160	0.0146209
915.238	0.0147559
915.316	0.0146212
915.394	0.0147469
915.472	0.0147816
915.550	0.0147366
915.628	0.0146751
915.706	0.0146585
915.785	0.0147021
915.863	0.0146333
915.941	0.0146167
916.019	0.0146646
916.097	0.0145556
916.175	0.0145838
916.253	0.0145255
916.331	0.0145763
916.410	0.0144785
916.488	0.0146368
916.566	0.0147767
916.644	0.0148438
916.722	0.0148125
916.800	0.0150099
916.878	0.0149998
916.956	0.0150223
917.035	0.0152384
917.113	0.0151053
917.191	0.0152152
917.269	0.0152839
917.347	0.0151170
917.425	0.0150450
917.503	0.0151113
917.581	0.0149119
917.660	0.0149905
917.738	0.0149000
917.816	0.0149049
917.894	0.0150085
917.972	0.0148405
918.050	0.0148668
918.128	0.0149719
918.206	0.0150664
918.285	0.0149442
918.363	0.0148857
918.441	0.0148135
918.519	0.0148347
918.597	0.0147197
918.675	0.0146646
918.753	0.0145308
918.831	0.0144804
918.910	0.0145189
918.988	0.0142757
919.066	0.0142506
919.144	0.0142924
919.222	0.0142456
919.300	0.0144075
919.378	0.0142824
919.456	0.0142664
919.535	0.0143910
919.613	0.0145370
919.691	0.0147316
919.769	0.0149218
919.847	0.0149282
919.925	0.0149770
920.003	0.0151690
920.081	0.0151967
920.160	0.0153609
920.238	0.0153654
920.316	0.0152940
920.394	0.0151526
920.472	0.0150837
920.550	0.0149250
920.628	0.0149201
920.706	0.0147980
920.785	0.0146289
920.863	0.0146138
920.941	0.0143446
921.019	0.0144048
921.097	0.0143729
921.175	0.0141463
921.253	0.0143011
921.331	0.0143392
921.410	0.0142199
921.488	0.0143473
921.566	0.0145361
921.644	0.0145525
921.722	0.0147070
921.800	0.0148761
921.878	0.0150004
921.956	0.0151174
922.035	0.0152057
922.113	0.0152271
922.191	0.0152199
922.269	0.0152274
922.347	0.0152997
922.425	0.0152679
922.503	0.0152477
922.581	0.0150749
922.660	0.0149530
922.738	0.0149517
922.816	0.0148307
922.894	0.0147120
922.972	0.0146938
923.050	0.0146470
923.128	0.0147053
923.206	0.0145728
923.285	0.0146378
923.363	0.0147269
923.441	0.0148916
923.519	0.0148427
923.597	0.0149928
923.675	0.0150096
923.753	0.0152219
923.831	0.0152738
923.910	0.0151623
923.988	0.0152988
924.066	0.0151796
924.144	0.0151537
924.222	0.0151832
924.300	0.0151138
924.378	0.0153010
924.456	0.0150468
924.535	0.0148199
924.613	0.0147873
924.691	0.0146955
924.769	0.0149083
924.847	0.0148272
924.925	0.0147786
925.003	0.0149127
925.081	0.0147962
925.160	0.0147099
925.238	0.0148916
925.316	0.0148351
925.394	0.0147121
925.472	0.0147711
925.550	0.0147114
925.628	0.0146510
925.706	0.0148090
925.785	0.0147128
925.863	0.0146178
925.941	0.0145775
926.019	0.0145377
926.097	0.0145765
926.175	0.0145673
926.253	0.0144548
926.331	0.0144656
926.410	0.0144430
926.488	0.0144738
926.566	0.0144071
926.644	0.0145148
926.722	0.0146407
926.800	0.0146449
926.878	0.0147021
926.956	0.0145412
927.035	0.0146758
927.113	0.0147384
927.191	0.0146762
927.269	0.0148139
927.347	0.0149737
927.425	0.0150046
927.503	0.0151585
927.581	0.0152019
927.660	0.0151569
927.738	0.0152089
927.816	0.0149962
927.894	0.0151046
927.972	0.0150554
928.050	0.0149026
928.128	0.0149577
928.206	0.0148208
928.285	0.0147495
928.363	0.0145929
928.441	0.0145974
928.519	0.0145865
928.597	0.0146229
928.675	0.0146813
928.753	0.0146599
928.831	0.0146931
928.910	0.0146635
928.988	0.0148026
929.066	0.0147302
929.144	0.0149767
929.222	0.0149845
929.300	0.0149755
929.378	0.0150422
929.456	0.0149818
929.535	0.0151252
929.613	0.0151411
929.691	0.0150922
929.769	0.0151746
929.847	0.0152705
929.925	0.0153207
930.003	0.0151646
930.081	0.0152210
930.160	0.0151646
930.238	0.0151052
930.316	0.0151303
930.394	0.0150089
930.472	0.0151233
930.550	0.0150211
930.628	0.0148855
930.706	0.0149281
930.785	0.0148847
930.863	0.0147179
930.941	0.0147435
931.019	0.0148022
931.097	0.0147224
931.175	0.0146677
931.253	0.0149048
931.331	0.0147363
931.410	0.0146889
931.488	0.0146810
931.566	0.0146833
931.644	0.0147964
931.722	0.0146372
931.800	0.0146651
931.878	0.0146986
931.956	0.0147313
932.035	0.0146883
932.113	0.0148818
932.191	0.0148985
932.269	0.0147602
932.347	0.0146807
932.425	0.0147649
932.503	0.0148751
932.581	0.0146877
932.660	0.0148026
932.738	0.0149063
932.816	0.0146616
932.894	0.0147389
932.972	0.0148398
933.050	0.0146946
933.128	0.0146728
933.206	0.0146760
933.285	0.0148006
933.363	0.0145153
933.441	0.0146325
933.519	0.0147463
933.597	0.0147269
933.675	0.0146292
933.753	0.0146517
933.831	0.0146808
933.910	0.0146942
933.988	0.0146850
934.066	0.0146507
934.144	0.0148853
934.222	0.0146922
934.300	0.0148580
934.378	0.0148556
934.456	0.0148090
934.535	0.0146753
934.613	0.0148370
934.691	0.0147147
934.769	0.0146059
934.847	0.0149091
934.925	0.0148636
935.003	0.0147604
935.081	0.0147722
935.160	0.0148703
935.238	0.0148737
935.316	0.0149577
935.394	0.0148325
935.472	0.0149068
935.550	0.0149423
935.628	0.0149501
935.706	0.0149859
935.785	0.0149830
935.863	0.0149773
935.941	0.0148254
936.019	0.0146938
936.097	0.0148093
936.175	0.0146976
936.253	0.0146382
936.331	0.0145512
936.410	0.0144822
936.488	0.0145640
936.566	0.0145851
936.644	0.0145477
936.722	0.0145949
936.800	0.0146613
936.878	0.0146269
936.956	0.0148418
937.035	0.0148058
937.113	0.0148824
937.191	0.0148068
937.269	0.0150460
937.347	0.0149090
937.425	0.0149058
937.503	0.0149924
937.581	0.0149143
937.660	0.0147989
937.738	0.0146783
937.816	0.0147421
937.894	0.0148049
937.972	0.0148262
938.050	0.0147469
938.128	0.0148121
938.206	0.0147431
938.285	0.0147998
938.363	0.0148363
938.441	0.0150201
938.519	0.0148122
938.597	0.0150796
938.675	0.0149628
938.753	0.0149834
938.831	0.0150060
938.910	0.0148527
938.988	0.0148508
939.066	0.0148898
939.144	0.0148886
939.222	0.0147790
939.300	0.0147393
939.378	0.0146730
939.456	0.0146951
939.535	0.0145919
939.613	0.0145887
939.691	0.0147060
939.769	0.0146938
939.847	0.0148113
939.925	0.0145694
940.003	0.0148937
940.081	0.0150592
940.160	0.0151517
940.238	0.0149972
940.316	0.0150976
940.394	0.0150227
940.472	0.0150943
940.550	0.0150515
940.628	0.0149866
940.706	0.0149550
940.785	0.0148483
940.863	0.0147602
940.941	0.0147281
941.019	0.0147744
941.097	0.0146870
941.175	0.0145499
941.253	0.0146555
941.331	0.0145958
941.410	0.0146501
941.488	0.0145984
941.566	0.0145125
941.644	0.0147205
941.722	0.0147092
941.800	0.0147148
941.878	0.0150093
941.956	0.0149634
942.035	0.0147646
942.113	0.0148323
942.191	0.0148120
942.269	0.0148335
942.347	0.0146860
942.425	0.0146458
942.503	0.0145558
942.581	0.0145563
942.660	0.0145663
942.738	0.0144788
942.816	0.0145321
942.894	0.0144445
942.972	0.0145470
943.050	0.0145170
943.128	0.0145103
943.206	0.0147230
943.285	0.0148347
943.363	0.0147769
943.441	0.0149945
943.519	0.0149456
943.597	0.0150207
943.675	0.0151979
943.753	0.0151632
943.831	0.0151685
943.910	0.0152434
943.988	0.0151847
944.066	0.0151845
944.144	0.0152678
944.222	0.0151157
944.300	0.0152007
944.378	0.0151496
944.456	0.0150128
944.535	0.0151099
944.613	0.0151080
944.691	0.0149343
944.769	0.0148388
944.847	0.0150918
944.925	0.0147916
945.003	0.0147968
945.081	0.0147961
945.160	0.0148257
945.238	0.0148149
945.316	0.0148530
945.394	0.0149442
945.472	0.0148564
945.550	0.0148582
945.628	0.0147743
945.706	0.0148043
945.785	0.0148613
945.863	0.0149940
945.941	0.0149270
946.019	0.0149392
946.097	0.0149446
946.175	0.0149045
946.253	0.0148431
946.331	0.0148718
946.410	0.0148367
946.488	0.0148329
946.566	0.0150092
946.644	0.0149374
946.722	0.0149650
946.800	0.0151218
946.878	0.0150706
946.956	0.0150488
947.035	0.0150919
947.113	0.0151947
947.191	0.0151925
947.269	0.0152580
947.347	0.0152095
947.425	0.0151281
947.503	0.0151681
947.581	0.0151680
947.660	0.0148837
947.738	0.0147670
947.816	0.0148341
947.894	0.0146175
947.972	0.0146257
948.050	0.0144534
948.128	0.0144518
948.206	0.0142421
948.285	0.0142030
948.363	0.0143097
948.441	0.0143242
948.519	0.0143393
948.597	0.0144547
948.675	0.0144234
948.753	0.0144566
948.831	0.0146019
948.910	0.0147791
948.988	0.0148771
949.066	0.0148634
949.144	0.0149298
949.222	0.0151453
949.300	0.0149557
949.378	0.0149232
949.456	0.0150645
949.535	0.0146812
949.613	0.0147038
949.691	0.0147495
949.769	0.0146905
949.847	0.0147857
949.925	0.0146206
950.003	0.0146864
950.081	0.0147888
950.160	0.0146369
950.238	0.0146251
950.316	0.0148750
950.394	0.0148589
950.472	0.0147482
950.550	0.0148420
950.628	0.0150332
950.706	0.0148204
950.785	0.0148608
950.863	0.0147707
950.941	0.0149277
951.019	0.0149048
951.097	0.0147945
951.175	0.0148632
951.253	0.0149206
951.331	0.0148386
951.410	0.0147626
951.488	0.0147091
951.566	0.0148175
951.644	0.0149008
951.722	0.0149233
951.800	0.0147163
951.878	0.0146855
951.956	0.0148413
952.035	0.0147120
952.113	0.0147049
952.191	0.0147931
952.269	0.0146996
952.347	0.0147134
952.425	0.0145982
952.503	0.0147265
952.581	0.0146770
952.660	0.0146926
952.738	0.0147469
952.816	0.0148183
952.894	0.0147823
952.972	0.0147820
953.050	0.0148643
953.128	0.0148733
953.206	0.0148625
953.285	0.0149949
953.363	0.0150636
953.441	0.0150366
953.519	0.0149797
953.597	0.0150099
953.675	0.0148987
953.753	0.0150956
953.831	0.0150024
953.910	0.0149606
953.988	0.0148507
954.066	0.0148400
954.144	0.0148240
954.222	0.0148141
954.300	0.0146899
954.378	0.0146313
954.456	0.0146355
954.535	0.0145382
954.613	0.0144714
954.691	0.0144928
954.769	0.0145618
954.847	0.0143118
954.925	0.0144292
955.003	0.0145013
955.081	0.0145325
955.160	0.0147086
955.238	0.0148500
955.316	0.0150092
955.394	0.0149604
955.472	0.0149549
955.550	0.0150176
955.628	0.0151496
955.706	0.0152304
955.785	0.0150294
955.863	0.0151547
955.941	0.0152779
956.019	0.0151693
956.097	0.0150817
956.175	0.0150426
956.253	0.0150564
956.331	0.0149271
956.410	0.0148396
956.488	0.0148026
956.566	0.0146489
956.644	0.0145544
956.722	0.0146475
956.800	0.0146391
956.878	0.0143957
956.956	0.0144655
957.035	0.0144143
957.113	0.0145221
957.191	0.0144742
957.269	0.0143451
957.347	0.0145739
957.425	0.0145177
957.503	0.0145031
957.581	0.0144931
957.660	0.0144765
957.738	0.0146600
957.816	0.0146441
957.894	0.0145077
957.972	0.0146585
958.050	0.0146927
958.128	0.0147778
958.206	0.0147227
958.285	0.0148227
958.363	0.0148254
958.441	0.0149609
958.519	0.0149702
958.597	0.0150073
958.675	0.0150741
958.753	0.0150516
958.831	0.0151457
958.910	0.0149906
958.988	0.0149027
959.066	0.0150843
959.144	0.0150281
959.222	0.0149239
959.300	0.0149545
959.378	0.0150259
959.456	0.0150249
959.535	0.0149196
959.613	0.0148086
959.691	0.0149184
959.769	0.0147997
959.847	0.0147940
959.925	0.0147923
960.003	0.0146742
960.081	0.0144611
960.160	0.0145712
960.238	0.0146957
960.316	0.0146578
960.394	0.0145049
960.472	0.0144098
960.550	0.0145430
960.628	0.0146457
960.706	0.0146449
960.785	0.0146169
960.863	0.0147522
960.941	0.0147826
961.019	0.0149276
961.097	0.0150253
961.175	0.0150311
961.253	0.0151531
961.331	0.0150375
961.410	0.0151611
961.488	0.0151257
961.566	0.0151951
961.644	0.0152151
961.722	0.0151752
961.800	0.0150260
961.878	0.0149136
961.956	0.0149210
962.035	0.0149119
962.113	0.0146909
962.191	0.0144885
962.269	0.0144845
962.347	0.0146004
962.425	0.0144659
962.503	0.0145209
962.581	0.0144797
962.660	0.0145126
962.738	0.0144653
962.816	0.0145648
962.894	0.0145004
962.972	0.0145542
963.050	0.0146170
963.128	0.0146090
963.206	0.0146885
963.285	0.0146239
963.363	0.0145414
963.441	0.0147027
963.519	0.0146124
963.597	0.0146202
963.675	0.0146785
963.753	0.0146442
963.831	0.0147990
963.910	0.0149739
963.988	0.0148135
964.066	0.0148936
964.144	0.0150709
964.222	0.0148608
964.300	0.0147488
964.378	0.0148477
964.456	0.0150014
964.535	0.0150925
964.613	0.0148898
964.691	0.0148923
964.769	0.0148806
964.847	0.0148012
964.925	0.0148090
965.003	0.0147771
965.081	0.0145446
965.160	0.0146223
965.238	0.0147058
965.316	0.0148261
965.394	0.0146269
965.472	0.0145616
965.550	0.0145259
965.628	0.0144836
965.706	0.0146560
965.785	0.0145749
965.863	0.0145918
965.941	0.0145370
966.019	0.0145283
966.097	0.0144498
966.175	0.0146750
966.253	0.0147247
966.331	0.0147427
966.410	0.0148466
966.488	0.0147614
966.566	0.0148672
966.644	0.0149677
966.722	0.0149098
966.800	0.0150193
966.878	0.0150414
966.956	0.0149786
967.035	0.0149796
967.113	0.0150475
967.191	0.0150924
967.269	0.0148194
967.347	0.0149110
967.425	0.0149149
967.503	0.0149579
967.581	0.0149627
967.660	0.0148323
967.738	0.0149651
967.816	0.0150571
967.894	0.0150896
967.972	0.0152026
968.050	0.0153281
968.128	0.0151833
968.206	0.0152361
968.285	0.0154465
968.363	0.0151550
968.441	0.0152362
968.519	0.0151247
968.597	0.0150718
968.675	0.0151346
968.753	0.0149840
968.831	0.0149634
968.910	0.0149487
968.988	0.0147076
969.066	0.0145554
969.144	0.0145165
969.222	0.0145588
969.300	0.0143370
969.378	0.0143661
969.456	0.0142757
969.535	0.0142816
969.613	0.0143227
969.691	0.0142645
969.769	0.0142596
969.847	0.0142645
969.925	0.0143426
970.003	0.0144794
970.081	0.0144904
970.160	0.0146056
970.238	0.0145168
970.316	0.0145762
970.394	0.0147020
970.472	0.0148004
970.550	0.0147840
970.628	0.0146745
970.706	0.0148504
970.785	0.0146534
970.863	0.0147652
970.941	0.0147643
971.019	0.0146621
971.097	0.0147567
971.175	0.0146800
971.253	0.0148650
971.331	0.0147555
971.410	0.0145289
971.488	0.0145971
971.566	0.0146203
971.644	0.0146659
971.722	0.0146489
971.800	0.0145184
971.878	0.0146154
971.956	0.0145964
972.035	0.0147262
972.113	0.0147161
972.191	0.0146630
972.269	0.0148699
972.347	0.0148746
972.425	0.0150449
972.503	0.0150833
972.581	0.0151389
972.660	0.0149983
972.738	0.0150377
972.816	0.0149793
972.894	0.0149834
972.972	0.0149796
973.050	0.0149603
973.128	0.0149689
973.206	0.0150805
973.285	0.0148576
973.363	0.0147002
973.441	0.0147615
973.519	0.0146143
973.597	0.0145995
973.675	0.0146133
973.753	0.0145474
973.831	0.0145395
973.910	0.0144146
973.988	0.0143616
974.066	0.0144537
974.144	0.0145727
974.222	0.0144117
974.300	0.0145969
974.378	0.0147311
974.456	0.0147388
974.535	0.0147653
974.613	0.0148123
974.691	0.0148775
974.769	0.0148241
974.847	0.0148115
974.925	0.0149329
975.003	0.0149766
975.081	0.0148901
975.160	0.0148785
975.238	0.0149464
975.316	0.0149749
975.394	0.0147937
975.472	0.0149048
975.550	0.0147461
975.628	0.0148690
975.706	0.0147752
975.785	0.0148720
975.863	0.0147208
975.941	0.0147801
976.019	0.0147160
976.097	0.0147188
976.175	0.0146752
976.253	0.0146618
976.331	0.0145322
976.410	0.0147093
976.488	0.0148351
976.566	0.0147228
976.644	0.0146236
976.722	0.0148194
976.800	0.0149836
976.878	0.0150678
976.956	0.0150119
977.035	0.0148791
977.113	0.0148579
977.191	0.0148138
977.269	0.0150410
977.347	0.0150485
977.425	0.0149885
977.503	0.0150997
977.581	0.0151475
977.660	0.0150330
977.738	0.0150567
977.816	0.0150304
977.894	0.0149331
977.972	0.0150136
978.050	0.0150018
978.128	0.0148592
978.206	0.0147964
978.285	0.0147661
978.363	0.0146459
978.441	0.0148330
978.519	0.0148080
978.597	0.0147665
978.675	0.0147685
978.753	0.0148073
978.831	0.0147813
978.910	0.0148494
978.988	0.0149239
979.066	0.0147521
979.144	0.0147191
979.222	0.0149319
979.300	0.0148660
979.378	0.0149452
979.456	0.0149762
979.535	0.0150412
979.613	0.0150331
979.691	0.0148399
979.769	0.0147926
979.847	0.0149078
979.925	0.0148492
