05/03/2022	20:05:36	Ver.	4.1	UNKNOWN
Optical Delay	660.003261	Delta X		0.078125	Sweeps	1	Scan Rate	0/0
Coordinates	Axis 1	NaN	Axis 2	NaN	Axis 3	NaN	Axis 4	NaN	Axis 5	NaN	Axis 6	0.000000
TX Power	0.000000	RX Power	0.000000

660.003	0.0144633
660.081	0.0145942
660.160	0.0144562
660.238	0.0145960
660.316	0.0144914
660.394	0.0143728
660.472	0.0142473
660.550	0.0145226
660.628	0.0145659
660.706	0.0145036
660.785	0.0144848
660.863	0.0144630
660.941	0.0144199
661.019	0.0144699
661.097	0.0145399
661.175	0.0144794
661.253	0.0145715
661.331	0.0144520
661.410	0.0144919
661.488	0.0144696
661.566	0.0145121
661.644	0.0143807
661.722	0.0143765
661.800	0.0142628
661.878	0.0145530
661.956	0.0143945
662.035	0.0144814
662.113	0.0145129
662.191	0.0143435
662.269	0.0144064
662.347	0.0144411
662.425	0.0144947
662.503	0.0143548
662.581	0.0143593
662.660	0.0145044
662.738	0.0144562
662.816	0.0144186
662.894	0.0143703
662.972	0.0145030
663.050	0.0145255
663.128	0.0144263
663.206	0.0144644
663.285	0.0144812
663.363	0.0144925
663.441	0.0144589
663.519	0.0143914
663.597	0.0144332
663.675	0.0144899
663.753	0.0144461
663.831	0.0144373
663.910	0.0144225
663.988	0.0145905
664.066	0.0144981
664.144	0.0145099
664.222	0.0145176
664.300	0.0145338
664.378	0.0144598
664.456	0.0144723
664.535	0.0144601
664.613	0.0145132
664.691	0.0145008
664.769	0.0146661
664.847	0.0144872
664.925	0.0145099
665.003	0.0144822
665.081	0.0144305
665.160	0.0143616
665.238	0.0144882
665.316	0.0145264
665.394	0.0144204
665.472	0.0144219
665.550	0.0144595
665.628	0.0144193
665.706	0.0143894
665.785	0.0144948
665.863	0.0145091
665.941	0.0144766
666.019	0.0145048
666.097	0.0144599
666.175	0.0145886
666.253	0.0144682
666.331	0.0145010
666.410	0.0144212
666.488	0.0144934
666.566	0.0145351
666.644	0.0145028
666.722	0.0144559
666.800	0.0144453
666.878	0.0145551
666.956	0.0144746
667.035	0.0145312
667.113	0.0144614
667.191	0.0143670
667.269	0.0143581
667.347	0.0145261
667.425	0.0146179
667.503	0.0145277
667.581	0.0144030
667.660	0.0144308
667.738	0.0145971
667.816	0.0143932
667.894	0.0144670
667.972	0.0145293
668.050	0.0144903
668.128	0.0145863
668.206	0.0145627
668.285	0.0144556
668.363	0.0142548
668.441	0.0144310
668.519	0.0145335
668.597	0.0144327
668.675	0.0145109
668.753	0.0144341
668.831	0.0146505
668.910	0.0145274
668.988	0.0144573
669.066	0.0144247
669.144	0.0146078
669.222	0.0145496
669.300	0.0143993
669.378	0.0145099
669.456	0.0146013
669.535	0.0144511
669.613	0.0145303
669.691	0.0144556
669.769	0.0144830
669.847	0.0145625
669.925	0.0144842
670.003	0.0144624
670.081	0.0143992
670.160	0.0144090
670.238	0.0145292
670.316	0.0144764
670.394	0.0143728
670.472	0.0144528
670.550	0.0145609
670.628	0.0145470
670.706	0.0145308
670.785	0.0145509
670.863	0.0145408
670.941	0.0143851
671.019	0.0143188
671.097	0.0145358
671.175	0.0145284
671.253	0.0144496
671.331	0.0145235
671.410	0.0145477
671.488	0.0145477
671.566	0.0144757
671.644	0.0145390
671.722	0.0145128
671.800	0.0145336
671.878	0.0145866
671.956	0.0143691
672.035	0.0143243
672.113	0.0146127
672.191	0.0145609
672.269	0.0144881
672.347	0.0144215
672.425	0.0145859
672.503	0.0144694
672.581	0.0145143
672.660	0.0144609
672.738	0.0142766
672.816	0.0145342
672.894	0.0145194
672.972	0.0144595
673.050	0.0145449
673.128	0.0143885
673.206	0.0144112
673.285	0.0145227
673.363	0.0144808
673.441	0.0145300
673.519	0.0145566
673.597	0.0145125
673.675	0.0145428
673.753	0.0144467
673.831	0.0144476
673.910	0.0144144
673.988	0.0144091
674.066	0.0144701
674.144	0.0145918
674.222	0.0144968
674.300	0.0144503
674.378	0.0144887
674.456	0.0145327
674.535	0.0143283
674.613	0.0144068
674.691	0.0144524
674.769	0.0145676
674.847	0.0145293
674.925	0.0144441
675.003	0.0145597
675.081	0.0145164
675.160	0.0145003
675.238	0.0145570
675.316	0.0144918
675.394	0.0144443
675.472	0.0144991
675.550	0.0144704
675.628	0.0144620
675.706	0.0144049
675.785	0.0143452
675.863	0.0145525
675.941	0.0146073
676.019	0.0145523
676.097	0.0144748
676.175	0.0144720
676.253	0.0145297
676.331	0.0145505
676.410	0.0146054
676.488	0.0145071
676.566	0.0144952
676.644	0.0144705
676.722	0.0144920
676.800	0.0144839
676.878	0.0145099
676.956	0.0145644
677.035	0.0144132
677.113	0.0145329
677.191	0.0144927
677.269	0.0145073
677.347	0.0147384
677.425	0.0145680
677.503	0.0145380
677.581	0.0143974
677.660	0.0144516
677.738	0.0146538
677.816	0.0145542
677.894	0.0143743
677.972	0.0144238
678.050	0.0145140
678.128	0.0144019
678.206	0.0144547
678.285	0.0145186
678.363	0.0145036
678.441	0.0143716
678.519	0.0145326
678.597	0.0145050
678.675	0.0144360
678.753	0.0145653
678.831	0.0145506
678.910	0.0144629
678.988	0.0145113
679.066	0.0145098
679.144	0.0144627
679.222	0.0144559
679.300	0.0144657
679.378	0.0145914
679.456	0.0145675
679.535	0.0145190
679.613	0.0144258
679.691	0.0145159
679.769	0.0145717
679.847	0.0145431
679.925	0.0144664
680.003	0.0145595
680.081	0.0144069
680.160	0.0144105
680.238	0.0143882
680.316	0.0145274
680.394	0.0144470
680.472	0.0144928
680.550	0.0143926
680.628	0.0145605
680.706	0.0144978
680.785	0.0145463
680.863	0.0143717
680.941	0.0144140
681.019	0.0145599
681.097	0.0144783
681.175	0.0143855
681.253	0.0145351
681.331	0.0145053
681.410	0.0143732
681.488	0.0145187
681.566	0.0145278
681.644	0.0144315
681.722	0.0145874
681.800	0.0144704
681.878	0.0144926
681.956	0.0145203
682.035	0.0144595
682.113	0.0145091
682.191	0.0145209
682.269	0.0144729
682.347	0.0143571
682.425	0.0144802
682.503	0.0144871
682.581	0.0143620
682.660	0.0144246
682.738	0.0144607
682.816	0.0144691
682.894	0.0144257
682.972	0.0143922
683.050	0.0144035
683.128	0.0144929
683.206	0.0145025
683.285	0.0143573
683.363	0.0144983
683.441	0.0144806
683.519	0.0144920
683.597	0.0144810
683.675	0.0144356
683.753	0.0145448
683.831	0.0144788
683.910	0.0144197
683.988	0.0145705
684.066	0.0144691
684.144	0.0144256
684.222	0.0144064
684.300	0.0145333
684.378	0.0144627
684.456	0.0145100
684.535	0.0145126
684.613	0.0143790
684.691	0.0145023
684.769	0.0144817
684.847	0.0144598
684.925	0.0142961
685.003	0.0144294
685.081	0.0143728
685.160	0.0145374
685.238	0.0146310
685.316	0.0145621
685.394	0.0144171
685.472	0.0145026
685.550	0.0144257
685.628	0.0144693
685.706	0.0143596
685.785	0.0146433
685.863	0.0144601
685.941	0.0143750
686.019	0.0144238
686.097	0.0144337
686.175	0.0144453
686.253	0.0145255
686.331	0.0144015
686.410	0.0145241
686.488	0.0144468
686.566	0.0143697
686.644	0.0143380
686.722	0.0143632
686.800	0.0145215
686.878	0.0146468
686.956	0.0145811
687.035	0.0143755
687.113	0.0146487
687.191	0.0146143
687.269	0.0145454
687.347	0.0143266
687.425	0.0145675
687.503	0.0145286
687.581	0.0145430
687.660	0.0144604
687.738	0.0145173
687.816	0.0144165
687.894	0.0144260
687.972	0.0144057
688.050	0.0144613
688.128	0.0144164
688.206	0.0145059
688.285	0.0145421
688.363	0.0145310
688.441	0.0145335
688.519	0.0143502
688.597	0.0144708
688.675	0.0146144
688.753	0.0146474
688.831	0.0144524
688.910	0.0143863
688.988	0.0144013
689.066	0.0144012
689.144	0.0144878
689.222	0.0143675
689.300	0.0145911
689.378	0.0144420
689.456	0.0144956
689.535	0.0144408
689.613	0.0145422
689.691	0.0144516
689.769	0.0145295
689.847	0.0145347
689.925	0.0143310
690.003	0.0144997
690.081	0.0144614
690.160	0.0145325
690.238	0.0144254
690.316	0.0144110
690.394	0.0145375
690.472	0.0144201
690.550	0.0144067
690.628	0.0145334
690.706	0.0145532
690.785	0.0146462
690.863	0.0144600
690.941	0.0145295
691.019	0.0145076
691.097	0.0145370
691.175	0.0143983
691.253	0.0145125
691.331	0.0145207
691.410	0.0144214
691.488	0.0144946
691.566	0.0146165
691.644	0.0146066
691.722	0.0143957
691.800	0.0144121
691.878	0.0145076
691.956	0.0145656
692.035	0.0145293
692.113	0.0144737
692.191	0.0144434
692.269	0.0145084
692.347	0.0145261
692.425	0.0144498
692.503	0.0145184
692.581	0.0144775
692.660	0.0144854
692.738	0.0145298
692.816	0.0144196
692.894	0.0144717
692.972	0.0144086
693.050	0.0144421
693.128	0.0145326
693.206	0.0143437
693.285	0.0145753
693.363	0.0145051
693.441	0.0143710
693.519	0.0145592
693.597	0.0144783
693.675	0.0145103
693.753	0.0144942
693.831	0.0145338
693.910	0.0142871
693.988	0.0144698
694.066	0.0144238
694.144	0.0144184
694.222	0.0144441
694.300	0.0143906
694.378	0.0143744
694.456	0.0144702
694.535	0.0144994
694.613	0.0145747
694.691	0.0144427
694.769	0.0144923
694.847	0.0144488
694.925	0.0144437
695.003	0.0144009
695.081	0.0143713
695.160	0.0146228
695.238	0.0145712
695.316	0.0144654
695.394	0.0145080
695.472	0.0143474
695.550	0.0144888
695.628	0.0145323
695.706	0.0145624
695.785	0.0143067
695.863	0.0144992
695.941	0.0145384
696.019	0.0143803
696.097	0.0144471
696.175	0.0145627
696.253	0.0145673
696.331	0.0145055
696.410	0.0145254
696.488	0.0146983
696.566	0.0144910
696.644	0.0144719
696.722	0.0144044
696.800	0.0144971
696.878	0.0145335
696.956	0.0146066
697.035	0.0144184
697.113	0.0143738
697.191	0.0144341
697.269	0.0145288
697.347	0.0145274
697.425	0.0144640
697.503	0.0144541
697.581	0.0146296
697.660	0.0144562
697.738	0.0144518
697.816	0.0144544
697.894	0.0144353
697.972	0.0144090
698.050	0.0144195
698.128	0.0145854
698.206	0.0145016
698.285	0.0144964
698.363	0.0144984
698.441	0.0145115
698.519	0.0144391
698.597	0.0143581
698.675	0.0144968
698.753	0.0144886
698.831	0.0144946
698.910	0.0142930
698.988	0.0144964
699.066	0.0144909
699.144	0.0145422
699.222	0.0144928
699.300	0.0145219
699.378	0.0144585
699.456	0.0144286
699.535	0.0145185
699.613	0.0144655
699.691	0.0144643
699.769	0.0144757
699.847	0.0145370
699.925	0.0144495
700.003	0.0144695
700.081	0.0144727
700.160	0.0145416
700.238	0.0144846
700.316	0.0145143
700.394	0.0143589
700.472	0.0143600
700.550	0.0143687
700.628	0.0144294
700.706	0.0143803
700.785	0.0143980
700.863	0.0144198
700.941	0.0144249
701.019	0.0143843
701.097	0.0143797
701.175	0.0145699
701.253	0.0146095
701.331	0.0144099
701.410	0.0145340
701.488	0.0146479
701.566	0.0144343
701.644	0.0143418
701.722	0.0145332
701.800	0.0144825
701.878	0.0144981
701.956	0.0145537
702.035	0.0144627
702.113	0.0144093
702.191	0.0145093
702.269	0.0146040
702.347	0.0144583
702.425	0.0143757
702.503	0.0143809
702.581	0.0144418
702.660	0.0144796
702.738	0.0143665
702.816	0.0143662
702.894	0.0144298
702.972	0.0145312
703.050	0.0144046
703.128	0.0143999
703.206	0.0143102
703.285	0.0143813
703.363	0.0144170
703.441	0.0144402
703.519	0.0144846
703.597	0.0144180
703.675	0.0145410
703.753	0.0144721
703.831	0.0144837
703.910	0.0145763
703.988	0.0146124
704.066	0.0145948
704.144	0.0146030
704.222	0.0145547
704.300	0.0145020
704.378	0.0146159
704.456	0.0147368
704.535	0.0147286
704.613	0.0146491
704.691	0.0146924
704.769	0.0146377
704.847	0.0145663
704.925	0.0146156
705.003	0.0145557
705.081	0.0147043
705.160	0.0146351
705.238	0.0145994
705.316	0.0145547
705.394	0.0145759
705.472	0.0146063
705.550	0.0144827
705.628	0.0145580
705.706	0.0145997
705.785	0.0145477
705.863	0.0146149
705.941	0.0147105
706.019	0.0148013
706.097	0.0146169
706.175	0.0147246
706.253	0.0147780
706.331	0.0148647
706.410	0.0146334
706.488	0.0148693
706.566	0.0146766
706.644	0.0147993
706.722	0.0149237
706.800	0.0149052
706.878	0.0148856
706.956	0.0147444
707.035	0.0146842
707.113	0.0147917
707.191	0.0146826
707.269	0.0146940
707.347	0.0146955
707.425	0.0146904
707.503	0.0147086
707.581	0.0144048
707.660	0.0144538
707.738	0.0143142
707.816	0.0142802
707.894	0.0142215
707.972	0.0141171
708.050	0.0139545
708.128	0.0137222
708.206	0.0134186
708.285	0.0132354
708.363	0.0129385
708.441	0.0124606
708.519	0.0120549
708.597	0.0116048
708.675	0.0110954
708.753	0.0105164
708.831	0.0100106
708.910	0.00955177
708.988	0.00943382
709.066	0.00928551
709.144	0.00943993
709.222	0.0100405
709.300	0.0108678
709.378	0.0121731
709.456	0.0134887
709.535	0.0150594
709.613	0.0164098
709.691	0.0178634
709.769	0.0191980
709.847	0.0200835
709.925	0.0206801
710.003	0.0209028
710.081	0.0207461
710.160	0.0204736
710.238	0.0196899
710.316	0.0186777
710.394	0.0177608
710.472	0.0168390
710.550	0.0160032
710.628	0.0154348
710.706	0.0146293
710.785	0.0144344
710.863	0.0144401
710.941	0.0146510
711.019	0.0152741
711.097	0.0159241
711.175	0.0166226
711.253	0.0171355
711.331	0.0179159
711.410	0.0185504
711.488	0.0185146
711.566	0.0184969
711.644	0.0181455
711.722	0.0172996
711.800	0.0161765
711.878	0.0149288
711.956	0.0132981
712.035	0.0117512
712.113	0.00995872
712.191	0.00825623
712.269	0.00674400
712.347	0.00538200
712.425	0.00453957
712.503	0.00421654
712.581	0.00448441
712.660	0.00533638
712.738	0.00654823
712.816	0.00806152
712.894	0.00977455
712.972	0.0115454
713.050	0.0131339
713.128	0.0144328
713.206	0.0155825
713.285	0.0163352
713.363	0.0169727
713.441	0.0174055
713.519	0.0174283
713.597	0.0173734
713.675	0.0172147
713.753	0.0170622
713.831	0.0168640
713.910	0.0168787
713.988	0.0170147
714.066	0.0172917
714.144	0.0182034
714.222	0.0190135
714.300	0.0199166
714.378	0.0210248
714.456	0.0220570
714.535	0.0227860
714.613	0.0232929
714.691	0.0233455
714.769	0.0229695
714.847	0.0220466
714.925	0.0208846
715.003	0.0191724
715.081	0.0171696
715.160	0.0149749
715.238	0.0126881
715.316	0.0105695
715.394	0.00856606
715.472	0.00692627
715.550	0.00540520
715.628	0.00446709
715.706	0.00398186
715.785	0.00397163
715.863	0.00451111
715.941	0.00521172
716.019	0.00614716
716.097	0.00745827
716.175	0.00855110
716.253	0.0100475
716.331	0.0113815
716.410	0.0125587
716.488	0.0138215
716.566	0.0149596
716.644	0.0160244
716.722	0.0170261
716.800	0.0176625
716.878	0.0181799
716.956	0.0187067
717.035	0.0189006
717.113	0.0192393
717.191	0.0192278
717.269	0.0193665
717.347	0.0193321
717.425	0.0193941
717.503	0.0193916
717.581	0.0194806
717.660	0.0194331
717.738	0.0194326
717.816	0.0192151
717.894	0.0189034
717.972	0.0185116
718.050	0.0181715
718.128	0.0176138
718.206	0.0170179
718.285	0.0163834
718.363	0.0156306
718.441	0.0147832
718.519	0.0139916
718.597	0.0132059
718.675	0.0124485
718.753	0.0117455
718.831	0.0110863
718.910	0.0105814
718.988	0.0101703
719.066	0.00968201
719.144	0.00960655
719.222	0.00956375
719.300	0.00963188
719.378	0.00986084
719.456	0.0101492
719.535	0.0103135
719.613	0.0105600
719.691	0.0109310
719.769	0.0114442
719.847	0.0116023
719.925	0.0121012
720.003	0.0123605
720.081	0.0126671
720.160	0.0132016
720.238	0.0136723
720.316	0.0138424
720.394	0.0139744
720.472	0.0143231
720.550	0.0147437
720.628	0.0148491
720.706	0.0148118
720.785	0.0148956
720.863	0.0151183
720.941	0.0152199
721.019	0.0152885
721.097	0.0153183
721.175	0.0156160
721.253	0.0158604
721.331	0.0160763
721.410	0.0162959
721.488	0.0164085
721.566	0.0166325
721.644	0.0166653
721.722	0.0168930
721.800	0.0168393
721.878	0.0169324
721.956	0.0166736
722.035	0.0165689
722.113	0.0165270
722.191	0.0166657
722.269	0.0165372
722.347	0.0164458
722.425	0.0165179
722.503	0.0164852
722.581	0.0163161
722.660	0.0163487
722.738	0.0162628
722.816	0.0161304
722.894	0.0158369
722.972	0.0158319
723.050	0.0155780
723.128	0.0153803
723.206	0.0153205
723.285	0.0149403
723.363	0.0147105
723.441	0.0145480
723.519	0.0141798
723.597	0.0138447
723.675	0.0134255
723.753	0.0131534
723.831	0.0124085
723.910	0.0119646
723.988	0.0114215
724.066	0.0110490
724.144	0.0106969
724.222	0.0102026
724.300	0.0100166
724.378	0.00999641
724.456	0.00978020
724.535	0.00990715
724.613	0.00991470
724.691	0.0100034
724.769	0.0103526
724.847	0.0106722
724.925	0.0109003
725.003	0.0114492
725.081	0.0119917
725.160	0.0125268
725.238	0.0132693
725.316	0.0137203
725.394	0.0141452
725.472	0.0145966
725.550	0.0148550
725.628	0.0154316
725.706	0.0158062
725.785	0.0160194
725.863	0.0164102
725.941	0.0168820
726.019	0.0172462
726.097	0.0177274
726.175	0.0181918
726.253	0.0184151
726.331	0.0186800
726.410	0.0188580
726.488	0.0188864
726.566	0.0188140
726.644	0.0187666
726.722	0.0185491
726.800	0.0182361
726.878	0.0178928
726.956	0.0175894
727.035	0.0170543
727.113	0.0166351
727.191	0.0161747
727.269	0.0158356
727.347	0.0153487
727.425	0.0150444
727.503	0.0148421
727.581	0.0147026
727.660	0.0146138
727.738	0.0144009
727.816	0.0143893
727.894	0.0143111
727.972	0.0144917
728.050	0.0145594
728.128	0.0146899
728.206	0.0147201
728.285	0.0147718
728.363	0.0146014
728.441	0.0142497
728.519	0.0141715
728.597	0.0139462
728.675	0.0137926
728.753	0.0135781
728.831	0.0130882
728.910	0.0126188
728.988	0.0121594
729.066	0.0117864
729.144	0.0113995
729.222	0.0111601
729.300	0.0108117
729.378	0.0107780
729.456	0.0105560
729.535	0.0105933
729.613	0.0108009
729.691	0.0110616
729.769	0.0113115
729.847	0.0115595
729.925	0.0119609
730.003	0.0122362
730.081	0.0125423
730.160	0.0127915
730.238	0.0131132
730.316	0.0133617
730.394	0.0137399
730.472	0.0137456
730.550	0.0139239
730.628	0.0141376
730.706	0.0142504
730.785	0.0143913
730.863	0.0146259
730.941	0.0146734
731.019	0.0149849
731.097	0.0149490
731.175	0.0151939
731.253	0.0154719
731.331	0.0158028
731.410	0.0157669
731.488	0.0162420
731.566	0.0162643
731.644	0.0165162
731.722	0.0166316
731.800	0.0168053
731.878	0.0169058
731.956	0.0171049
732.035	0.0172309
732.113	0.0173074
732.191	0.0173381
732.269	0.0172019
732.347	0.0170714
732.425	0.0169470
732.503	0.0165921
732.581	0.0162594
732.660	0.0160918
732.738	0.0156924
732.816	0.0155921
732.894	0.0153102
732.972	0.0152082
733.050	0.0151516
733.128	0.0149469
733.206	0.0148473
733.285	0.0148363
733.363	0.0148209
733.441	0.0147848
733.519	0.0149026
733.597	0.0149889
733.675	0.0149566
733.753	0.0149624
733.831	0.0148969
733.910	0.0150317
733.988	0.0148286
734.066	0.0147577
734.144	0.0145050
734.222	0.0140749
734.300	0.0139320
734.378	0.0136374
734.456	0.0131780
734.535	0.0126185
734.613	0.0123256
734.691	0.0119498
734.769	0.0115462
734.847	0.0112962
734.925	0.0109917
735.003	0.0109834
735.081	0.0109310
735.160	0.0109266
735.238	0.0110361
735.316	0.0113334
735.394	0.0115984
735.472	0.0120192
735.550	0.0125083
735.628	0.0127346
735.706	0.0132095
735.785	0.0134245
735.863	0.0136923
735.941	0.0138424
736.019	0.0140449
736.097	0.0141269
736.175	0.0143047
736.253	0.0142718
736.331	0.0142785
736.410	0.0144103
736.488	0.0144804
736.566	0.0145432
736.644	0.0147192
736.722	0.0148853
736.800	0.0149205
736.878	0.0151613
736.956	0.0152796
737.035	0.0155247
737.113	0.0158105
737.191	0.0159528
737.269	0.0161540
737.347	0.0163088
737.425	0.0164646
737.503	0.0165411
737.581	0.0164874
737.660	0.0166268
737.738	0.0165471
737.816	0.0163485
737.894	0.0163954
737.972	0.0161613
738.050	0.0159688
738.128	0.0158669
738.206	0.0158060
738.285	0.0156244
738.363	0.0155641
738.441	0.0155385
738.519	0.0156279
738.597	0.0155425
738.675	0.0154374
738.753	0.0153873
738.831	0.0155366
738.910	0.0153065
738.988	0.0153563
739.066	0.0152631
739.144	0.0151203
739.222	0.0152743
739.300	0.0150363
739.378	0.0147968
739.456	0.0147425
739.535	0.0146078
739.613	0.0143656
739.691	0.0142168
739.769	0.0139630
739.847	0.0138825
739.925	0.0136646
740.003	0.0137291
740.081	0.0137149
740.160	0.0135524
740.238	0.0136703
740.316	0.0137268
740.394	0.0136228
740.472	0.0135823
740.550	0.0136737
740.628	0.0137511
740.706	0.0135306
740.785	0.0135933
740.863	0.0134504
740.941	0.0133454
741.019	0.0132066
741.097	0.0131071
741.175	0.0130577
741.253	0.0128455
741.331	0.0128568
741.410	0.0129695
741.488	0.0129907
741.566	0.0128989
741.644	0.0131222
741.722	0.0132105
741.800	0.0134362
741.878	0.0133025
741.956	0.0135153
742.035	0.0136096
742.113	0.0136549
742.191	0.0138113
742.269	0.0137823
742.347	0.0137742
742.425	0.0137037
742.503	0.0138128
742.581	0.0138300
742.660	0.0139075
742.738	0.0138821
742.816	0.0138219
742.894	0.0141930
742.972	0.0144004
743.050	0.0143799
743.128	0.0144016
743.206	0.0146049
743.285	0.0147949
743.363	0.0147064
743.441	0.0148797
743.519	0.0151523
743.597	0.0152036
743.675	0.0153733
743.753	0.0154147
743.831	0.0155742
743.910	0.0157793
743.988	0.0157595
744.066	0.0158945
744.144	0.0160064
744.222	0.0161709
744.300	0.0162281
744.378	0.0161371
744.456	0.0161581
744.535	0.0163285
744.613	0.0164557
744.691	0.0162457
744.769	0.0163934
744.847	0.0162945
744.925	0.0161942
745.003	0.0160049
745.081	0.0160529
745.160	0.0157494
745.238	0.0155898
745.316	0.0155155
745.394	0.0154432
745.472	0.0151866
745.550	0.0150590
745.628	0.0148019
745.706	0.0147598
745.785	0.0143640
745.863	0.0141666
745.941	0.0140535
746.019	0.0139009
746.097	0.0135527
746.175	0.0135024
746.253	0.0134529
746.331	0.0135275
746.410	0.0133357
746.488	0.0133366
746.566	0.0134969
746.644	0.0135242
746.722	0.0134444
746.800	0.0134341
746.878	0.0134755
746.956	0.0131548
747.035	0.0131685
747.113	0.0133644
747.191	0.0132825
747.269	0.0131277
747.347	0.0130092
747.425	0.0128490
747.503	0.0128361
747.581	0.0129556
747.660	0.0129205
747.738	0.0129671
747.816	0.0129529
747.894	0.0130930
747.972	0.0133023
748.050	0.0133488
748.128	0.0134811
748.206	0.0137058
748.285	0.0138948
748.363	0.0139631
748.441	0.0140030
748.519	0.0142975
748.597	0.0143022
748.675	0.0145151
748.753	0.0145165
748.831	0.0145129
748.910	0.0147085
748.988	0.0147356
749.066	0.0148699
749.144	0.0147854
749.222	0.0149537
749.300	0.0150164
749.378	0.0150497
749.456	0.0152644
749.535	0.0152830
749.613	0.0153487
749.691	0.0154665
749.769	0.0155920
749.847	0.0156226
749.925	0.0156467
750.003	0.0156283
750.081	0.0158163
750.160	0.0157630
750.238	0.0156704
750.316	0.0155897
750.394	0.0155408
750.472	0.0154848
750.550	0.0153439
750.628	0.0153124
750.706	0.0151781
750.785	0.0149252
750.863	0.0149226
750.941	0.0150590
751.019	0.0149156
751.097	0.0148074
751.175	0.0148137
751.253	0.0150640
751.331	0.0150959
751.410	0.0151605
751.488	0.0151624
751.566	0.0151766
751.644	0.0152599
751.722	0.0153763
751.800	0.0153777
751.878	0.0152396
751.956	0.0151212
752.035	0.0150658
752.113	0.0149151
752.191	0.0147974
752.269	0.0148799
752.347	0.0146961
752.425	0.0143713
752.503	0.0144468
752.581	0.0142675
752.660	0.0143474
752.738	0.0142112
752.816	0.0142015
752.894	0.0140196
752.972	0.0140224
753.050	0.0140759
753.128	0.0138803
753.206	0.0137830
753.285	0.0136988
753.363	0.0137968
753.441	0.0135917
753.519	0.0136820
753.597	0.0137257
753.675	0.0135183
753.753	0.0135300
753.831	0.0133868
753.910	0.0132530
753.988	0.0131748
754.066	0.0129870
754.144	0.0129703
754.222	0.0130169
754.300	0.0128741
754.378	0.0127577
754.456	0.0128376
754.535	0.0128360
754.613	0.0130333
754.691	0.0132281
754.769	0.0131625
754.847	0.0131583
754.925	0.0136578
755.003	0.0138618
755.081	0.0138341
755.160	0.0140770
755.238	0.0143330
755.316	0.0144593
755.394	0.0146957
755.472	0.0148392
755.550	0.0148037
755.628	0.0150266
755.706	0.0149448
755.785	0.0149355
755.863	0.0150887
755.941	0.0150758
756.019	0.0152283
756.097	0.0150935
756.175	0.0151499
756.253	0.0150813
756.331	0.0151232
756.410	0.0151885
756.488	0.0152093
756.566	0.0152999
756.644	0.0153415
756.722	0.0153613
756.800	0.0155228
756.878	0.0156392
756.956	0.0155630
757.035	0.0155783
757.113	0.0157346
757.191	0.0157264
757.269	0.0157368
757.347	0.0157249
757.425	0.0154272
757.503	0.0153622
757.581	0.0153741
757.660	0.0154141
757.738	0.0152268
757.816	0.0150205
757.894	0.0150074
757.972	0.0150169
758.050	0.0149162
758.128	0.0149622
758.206	0.0147476
758.285	0.0148139
758.363	0.0147029
758.441	0.0147184
758.519	0.0146825
758.597	0.0145010
758.675	0.0146275
758.753	0.0145174
758.831	0.0145354
758.910	0.0144482
758.988	0.0143538
759.066	0.0143544
759.144	0.0142509
759.222	0.0141732
759.300	0.0139902
759.378	0.0139791
759.456	0.0140013
759.535	0.0138878
759.613	0.0137173
759.691	0.0137152
759.769	0.0135412
759.847	0.0135066
759.925	0.0134181
760.003	0.0134984
760.081	0.0135729
760.160	0.0134158
760.238	0.0134564
760.316	0.0135268
760.394	0.0135433
760.472	0.0136120
760.550	0.0137840
760.628	0.0137062
760.706	0.0136897
760.785	0.0139870
760.863	0.0139574
760.941	0.0138920
761.019	0.0138899
761.097	0.0138709
761.175	0.0138988
761.253	0.0139023
761.331	0.0139260
761.410	0.0138657
761.488	0.0140134
761.566	0.0139734
761.644	0.0139318
761.722	0.0141645
761.800	0.0143204
761.878	0.0141943
761.956	0.0143084
762.035	0.0145029
762.113	0.0145004
762.191	0.0147586
762.269	0.0148441
762.347	0.0147228
762.425	0.0148910
762.503	0.0148878
762.581	0.0147867
762.660	0.0149535
762.738	0.0148135
762.816	0.0149342
762.894	0.0149695
762.972	0.0148674
763.050	0.0149821
763.128	0.0149654
763.206	0.0149620
763.285	0.0149181
763.363	0.0151877
763.441	0.0151611
763.519	0.0153185
763.597	0.0152448
763.675	0.0153652
763.753	0.0153620
763.831	0.0155587
763.910	0.0154532
763.988	0.0153400
764.066	0.0154995
764.144	0.0154230
764.222	0.0152957
764.300	0.0152744
764.378	0.0152080
764.456	0.0152202
764.535	0.0150323
764.613	0.0150158
764.691	0.0150471
764.769	0.0147683
764.847	0.0145036
764.925	0.0144324
765.003	0.0145134
765.081	0.0144453
765.160	0.0143871
765.238	0.0143065
765.316	0.0142224
765.394	0.0143542
765.472	0.0142950
765.550	0.0142672
765.628	0.0143079
765.706	0.0141871
765.785	0.0142432
765.863	0.0143501
765.941	0.0142841
766.019	0.0141029
766.097	0.0142923
766.175	0.0141711
766.253	0.0140717
766.331	0.0141146
766.410	0.0141010
766.488	0.0141618
766.566	0.0141492
766.644	0.0140885
766.722	0.0142359
766.800	0.0139795
766.878	0.0139967
766.956	0.0139658
767.035	0.0139240
767.113	0.0139499
767.191	0.0138791
767.269	0.0137970
767.347	0.0136505
767.425	0.0136926
767.503	0.0136338
767.581	0.0136331
767.660	0.0138343
767.738	0.0138366
767.816	0.0139807
767.894	0.0139117
767.972	0.0140134
768.050	0.0139723
768.128	0.0140465
768.206	0.0140771
768.285	0.0141507
768.363	0.0141865
768.441	0.0141267
768.519	0.0140631
768.597	0.0142446
768.675	0.0142377
768.753	0.0141618
768.831	0.0142872
768.910	0.0143373
768.988	0.0143772
769.066	0.0144497
769.144	0.0146764
769.222	0.0145621
769.300	0.0146585
769.378	0.0148505
769.456	0.0147381
769.535	0.0148610
769.613	0.0147683
769.691	0.0148753
769.769	0.0148773
769.847	0.0149107
769.925	0.0151035
770.003	0.0149798
770.081	0.0149229
770.160	0.0147503
770.238	0.0150156
770.316	0.0150272
770.394	0.0148135
770.472	0.0148796
770.550	0.0149864
770.628	0.0149759
770.706	0.0146944
770.785	0.0148542
770.863	0.0149612
770.941	0.0148563
771.019	0.0149544
771.097	0.0149745
771.175	0.0150521
771.253	0.0149192
771.331	0.0149158
771.410	0.0150066
771.488	0.0149651
771.566	0.0148885
771.644	0.0148496
771.722	0.0148353
771.800	0.0148174
771.878	0.0147778
771.956	0.0148366
772.035	0.0147345
772.113	0.0149553
772.191	0.0149189
772.269	0.0149082
772.347	0.0147266
772.425	0.0148844
772.503	0.0148272
772.581	0.0149152
772.660	0.0148213
772.738	0.0148799
772.816	0.0148088
772.894	0.0147226
772.972	0.0145979
773.050	0.0145099
773.128	0.0145149
773.206	0.0144418
773.285	0.0144465
773.363	0.0141853
773.441	0.0141862
773.519	0.0141446
773.597	0.0140646
773.675	0.0139285
773.753	0.0138313
773.831	0.0137568
773.910	0.0138037
773.988	0.0136478
774.066	0.0136988
774.144	0.0134772
774.222	0.0134134
774.300	0.0133756
774.378	0.0134412
774.456	0.0133730
774.535	0.0133706
774.613	0.0133934
774.691	0.0134156
774.769	0.0137081
774.847	0.0137096
774.925	0.0136546
775.003	0.0137309
775.081	0.0140166
775.160	0.0139024
775.238	0.0139773
775.316	0.0140727
775.394	0.0141533
775.472	0.0142471
775.550	0.0141739
775.628	0.0140606
775.706	0.0141833
775.785	0.0143969
775.863	0.0144877
775.941	0.0143401
776.019	0.0145546
776.097	0.0144759
776.175	0.0145960
776.253	0.0146277
776.331	0.0148045
776.410	0.0148975
776.488	0.0149260
776.566	0.0149610
776.644	0.0150768
776.722	0.0151073
776.800	0.0151453
776.878	0.0152813
776.956	0.0152007
777.035	0.0151878
777.113	0.0154633
777.191	0.0153721
777.269	0.0151835
777.347	0.0151096
777.425	0.0152672
777.503	0.0152227
777.581	0.0152065
777.660	0.0151014
777.738	0.0151911
777.816	0.0150922
777.894	0.0151419
777.972	0.0150560
778.050	0.0150803
778.128	0.0149595
778.206	0.0150282
778.285	0.0148801
778.363	0.0147888
778.441	0.0148740
778.519	0.0148447
778.597	0.0148777
778.675	0.0147513
778.753	0.0147857
778.831	0.0148125
778.910	0.0147167
778.988	0.0147023
779.066	0.0146915
779.144	0.0147160
779.222	0.0147042
779.300	0.0146935
779.378	0.0146330
779.456	0.0147009
779.535	0.0147149
779.613	0.0145562
779.691	0.0145425
779.769	0.0144313
779.847	0.0145632
779.925	0.0146614
780.003	0.0144466
780.081	0.0144884
780.160	0.0143269
780.238	0.0144270
780.316	0.0144962
780.394	0.0143108
780.472	0.0143335
780.550	0.0144371
780.628	0.0142843
780.706	0.0142094
780.785	0.0143145
780.863	0.0141678
780.941	0.0140956
781.019	0.0141212
781.097	0.0142150
781.175	0.0140961
781.253	0.0141412
781.331	0.0139946
781.410	0.0140718
781.488	0.0140878
781.566	0.0140277
781.644	0.0140088
781.722	0.0139619
781.800	0.0139368
781.878	0.0139666
781.956	0.0139734
782.035	0.0139526
782.113	0.0139556
782.191	0.0139769
782.269	0.0139507
782.347	0.0141654
782.425	0.0139541
782.503	0.0140549
782.581	0.0141323
782.660	0.0140945
782.738	0.0140762
782.816	0.0141318
782.894	0.0142444
782.972	0.0142028
783.050	0.0144501
783.128	0.0142848
783.206	0.0145010
783.285	0.0146991
783.363	0.0146475
783.441	0.0146878
783.519	0.0147173
783.597	0.0147362
783.675	0.0148000
783.753	0.0148183
783.831	0.0149581
783.910	0.0150991
783.988	0.0149117
784.066	0.0149119
784.144	0.0147816
784.222	0.0149251
784.300	0.0149643
784.378	0.0148716
784.456	0.0148975
784.535	0.0148511
784.613	0.0148553
784.691	0.0147114
784.769	0.0147087
784.847	0.0147625
784.925	0.0148416
785.003	0.0148877
785.081	0.0149817
785.160	0.0149046
785.238	0.0148911
785.316	0.0147998
785.394	0.0148255
785.472	0.0148033
785.550	0.0149625
785.628	0.0149108
785.706	0.0150382
785.785	0.0148428
785.863	0.0148304
785.941	0.0148951
786.019	0.0148753
786.097	0.0147452
786.175	0.0146970
786.253	0.0147075
786.331	0.0145566
786.410	0.0144128
786.488	0.0142621
786.566	0.0143018
786.644	0.0143501
786.722	0.0141583
786.800	0.0140495
786.878	0.0140078
786.956	0.0141240
787.035	0.0140533
787.113	0.0140997
787.191	0.0141318
787.269	0.0141530
787.347	0.0141100
787.425	0.0141010
787.503	0.0141203
787.581	0.0140917
787.660	0.0141617
787.738	0.0141588
787.816	0.0142659
787.894	0.0143275
787.972	0.0141559
788.050	0.0142332
788.128	0.0141916
788.206	0.0141188
788.285	0.0142631
788.363	0.0142072
788.441	0.0141103
788.519	0.0140513
788.597	0.0141213
788.675	0.0141237
788.753	0.0141241
788.831	0.0141714
788.910	0.0141256
788.988	0.0141035
789.066	0.0141673
789.144	0.0142560
789.222	0.0141058
789.300	0.0144589
789.378	0.0143417
789.456	0.0142967
789.535	0.0142463
789.613	0.0142664
789.691	0.0143519
789.769	0.0142811
789.847	0.0140660
789.925	0.0141897
790.003	0.0142768
790.081	0.0143105
790.160	0.0142354
790.238	0.0143844
790.316	0.0143268
790.394	0.0144254
790.472	0.0144896
790.550	0.0143884
790.628	0.0145856
790.706	0.0145008
790.785	0.0146402
790.863	0.0146610
790.941	0.0146424
791.019	0.0145971
791.097	0.0146150
791.175	0.0147427
791.253	0.0147269
791.331	0.0145960
791.410	0.0145261
791.488	0.0146261
791.566	0.0147213
791.644	0.0146926
791.722	0.0146647
791.800	0.0147196
791.878	0.0148231
791.956	0.0146138
792.035	0.0147735
792.113	0.0150328
792.191	0.0147279
792.269	0.0148401
792.347	0.0149249
792.425	0.0149272
792.503	0.0149235
792.581	0.0149948
792.660	0.0149787
792.738	0.0150775
792.816	0.0149138
792.894	0.0148886
792.972	0.0150356
793.050	0.0150401
793.128	0.0149289
793.206	0.0148608
793.285	0.0149320
793.363	0.0150179
793.441	0.0148855
793.519	0.0147207
793.597	0.0149035
793.675	0.0147100
793.753	0.0146541
793.831	0.0147112
793.910	0.0146384
793.988	0.0144704
794.066	0.0144556
794.144	0.0144508
794.222	0.0143169
794.300	0.0143750
794.378	0.0142773
794.456	0.0143376
794.535	0.0142290
794.613	0.0141113
794.691	0.0140908
794.769	0.0142211
794.847	0.0140751
794.925	0.0140549
795.003	0.0140717
795.081	0.0140338
795.160	0.0139993
795.238	0.0139692
795.316	0.0138359
795.394	0.0140218
795.472	0.0140622
795.550	0.0138874
795.628	0.0139490
795.706	0.0138232
795.785	0.0138233
795.863	0.0138930
795.941	0.0139106
796.019	0.0139713
796.097	0.0140064
796.175	0.0140273
796.253	0.0140110
796.331	0.0138729
796.410	0.0140866
796.488	0.0143336
796.566	0.0141656
796.644	0.0143319
796.722	0.0143815
796.800	0.0144732
796.878	0.0142966
796.956	0.0144877
797.035	0.0144738
797.113	0.0144396
797.191	0.0145646
797.269	0.0145129
797.347	0.0144630
797.425	0.0145702
797.503	0.0144948
797.581	0.0145194
797.660	0.0144759
797.738	0.0144994
797.816	0.0145250
797.894	0.0145758
797.972	0.0146203
798.050	0.0146331
798.128	0.0146302
798.206	0.0145915
798.285	0.0145886
798.363	0.0146153
798.441	0.0146497
798.519	0.0146110
798.597	0.0146533
798.675	0.0147225
798.753	0.0146890
798.831	0.0145559
798.910	0.0146117
798.988	0.0144829
799.066	0.0146208
799.144	0.0145463
799.222	0.0145208
799.300	0.0145700
799.378	0.0146384
799.456	0.0147442
799.535	0.0144973
799.613	0.0145503
799.691	0.0148045
799.769	0.0148280
799.847	0.0147912
799.925	0.0148629
800.003	0.0147865
800.081	0.0147799
800.160	0.0147090
800.238	0.0148891
800.316	0.0147581
800.394	0.0147359
800.472	0.0147085
800.550	0.0147725
800.628	0.0146560
800.706	0.0148381
800.785	0.0148128
800.863	0.0149065
800.941	0.0148199
801.019	0.0148055
801.097	0.0147525
801.175	0.0146688
801.253	0.0148177
801.331	0.0148422
801.410	0.0147327
801.488	0.0147201
801.566	0.0147131
801.644	0.0146366
801.722	0.0145194
801.800	0.0145344
801.878	0.0145425
801.956	0.0145826
802.035	0.0144907
802.113	0.0143568
802.191	0.0144140
802.269	0.0144115
802.347	0.0142623
802.425	0.0141842
802.503	0.0140282
802.581	0.0141613
802.660	0.0142386
802.738	0.0139424
802.816	0.0139336
802.894	0.0139818
802.972	0.0138816
803.050	0.0138834
803.128	0.0137050
803.206	0.0137628
803.285	0.0138717
803.363	0.0138640
803.441	0.0138188
803.519	0.0138567
803.597	0.0139619
803.675	0.0139188
803.753	0.0139868
803.831	0.0138683
803.910	0.0140350
803.988	0.0139979
804.066	0.0140253
804.144	0.0141460
804.222	0.0141787
804.300	0.0141864
804.378	0.0142353
804.456	0.0140965
804.535	0.0142126
804.613	0.0142930
804.691	0.0142783
804.769	0.0141300
804.847	0.0142362
804.925	0.0143222
805.003	0.0143667
805.081	0.0141232
805.160	0.0139776
805.238	0.0140710
805.316	0.0141412
805.394	0.0141194
805.472	0.0140668
805.550	0.0142344
805.628	0.0144598
805.706	0.0145758
805.785	0.0148862
805.863	0.0149392
805.941	0.0152110
806.019	0.0152930
806.097	0.0155615
806.175	0.0153663
806.253	0.0154183
806.331	0.0154376
806.410	0.0155479
806.488	0.0153718
806.566	0.0153751
806.644	0.0151659
806.722	0.0152496
806.800	0.0152847
806.878	0.0155262
806.956	0.0153931
807.035	0.0154121
807.113	0.0155413
807.191	0.0154656
807.269	0.0155069
807.347	0.0156402
807.425	0.0155584
807.503	0.0156039
807.581	0.0156013
807.660	0.0154774
807.738	0.0154034
807.816	0.0152406
807.894	0.0151606
807.972	0.0149463
808.050	0.0148161
808.128	0.0146278
808.206	0.0143692
808.285	0.0143648
808.363	0.0140660
808.441	0.0138541
808.519	0.0135542
808.597	0.0134252
808.675	0.0131699
808.753	0.0128793
808.831	0.0128858
808.910	0.0127720
808.988	0.0128748
809.066	0.0129206
809.144	0.0129701
809.222	0.0131988
809.300	0.0132377
809.378	0.0135152
809.456	0.0136427
809.535	0.0138652
809.613	0.0139933
809.691	0.0142111
809.769	0.0144376
809.847	0.0145690
809.925	0.0147458
810.003	0.0147603
810.081	0.0149283
810.160	0.0147816
810.238	0.0148895
810.316	0.0150227
810.394	0.0149369
810.472	0.0151090
810.550	0.0150199
810.628	0.0151340
810.706	0.0152302
810.785	0.0153156
810.863	0.0152254
810.941	0.0152794
811.019	0.0150265
811.097	0.0150787
811.175	0.0149276
811.253	0.0149503
811.331	0.0146084
811.410	0.0145453
811.488	0.0143513
811.566	0.0142256
811.644	0.0140667
811.722	0.0138636
811.800	0.0137427
811.878	0.0136096
811.956	0.0134878
812.035	0.0135384
812.113	0.0134077
812.191	0.0134823
812.269	0.0134825
812.347	0.0136652
812.425	0.0138100
812.503	0.0138651
812.581	0.0141239
812.660	0.0141637
812.738	0.0142537
812.816	0.0144112
812.894	0.0145473
812.972	0.0148438
813.050	0.0148457
813.128	0.0150483
813.206	0.0150594
813.285	0.0151831
813.363	0.0153207
813.441	0.0153622
813.519	0.0154891
813.597	0.0156686
813.675	0.0156480
813.753	0.0155711
813.831	0.0154981
813.910	0.0154800
813.988	0.0154547
814.066	0.0152970
814.144	0.0153060
814.222	0.0152603
814.300	0.0151374
814.378	0.0150571
814.456	0.0149438
814.535	0.0148418
814.613	0.0148683
814.691	0.0146759
814.769	0.0145257
814.847	0.0145698
814.925	0.0144917
815.003	0.0143829
815.081	0.0145100
815.160	0.0141563
815.238	0.0140705
815.316	0.0138845
815.394	0.0138877
815.472	0.0137772
815.550	0.0137594
815.628	0.0137747
815.706	0.0136855
815.785	0.0136719
815.863	0.0136635
815.941	0.0134581
816.019	0.0135259
816.097	0.0136180
816.175	0.0135824
816.253	0.0137426
816.331	0.0138712
816.410	0.0138051
816.488	0.0138468
816.566	0.0138859
816.644	0.0139543
816.722	0.0139632
816.800	0.0139145
816.878	0.0139221
816.956	0.0140754
817.035	0.0141806
817.113	0.0142775
817.191	0.0142171
817.269	0.0144901
817.347	0.0145156
817.425	0.0145039
817.503	0.0147037
817.581	0.0147809
817.660	0.0148852
817.738	0.0150189
817.816	0.0149255
817.894	0.0151289
817.972	0.0149496
818.050	0.0149642
818.128	0.0150162
818.206	0.0149070
818.285	0.0148907
818.363	0.0149097
818.441	0.0148261
818.519	0.0145215
818.597	0.0144707
818.675	0.0145454
818.753	0.0146624
818.831	0.0145303
818.910	0.0143594
818.988	0.0144642
819.066	0.0144868
819.144	0.0144473
819.222	0.0143488
819.300	0.0143033
819.378	0.0145546
819.456	0.0146519
819.535	0.0144844
819.613	0.0146716
819.691	0.0145639
819.769	0.0144453
819.847	0.0144534
819.925	0.0144208
820.003	0.0144162
820.081	0.0144247
820.160	0.0142735
820.238	0.0142736
820.316	0.0142207
820.394	0.0141114
820.472	0.0141392
820.550	0.0139738
820.628	0.0141962
820.706	0.0141463
820.785	0.0140832
820.863	0.0140314
820.941	0.0141660
821.019	0.0142194
821.097	0.0142605
821.175	0.0142394
821.253	0.0144288
821.331	0.0144251
821.410	0.0145324
821.488	0.0145523
821.566	0.0146639
821.644	0.0146579
821.722	0.0147215
821.800	0.0147176
821.878	0.0146502
821.956	0.0147234
822.035	0.0147305
822.113	0.0146494
822.191	0.0148111
822.269	0.0146588
822.347	0.0146946
822.425	0.0147850
822.503	0.0148854
822.581	0.0149792
822.660	0.0148808
822.738	0.0149161
822.816	0.0150417
822.894	0.0151165
822.972	0.0150300
823.050	0.0149807
823.128	0.0150046
823.206	0.0149343
823.285	0.0147757
823.363	0.0147740
823.441	0.0147688
823.519	0.0146960
823.597	0.0146199
823.675	0.0145486
823.753	0.0143020
823.831	0.0143676
823.910	0.0143072
823.988	0.0141061
824.066	0.0141085
824.144	0.0142245
824.222	0.0142934
824.300	0.0141119
824.378	0.0141648
824.456	0.0142614
824.535	0.0141387
824.613	0.0141325
824.691	0.0141720
824.769	0.0140398
824.847	0.0139539
824.925	0.0140627
825.003	0.0140508
825.081	0.0139873
825.160	0.0139909
825.238	0.0140704
825.316	0.0139303
825.394	0.0139398
825.472	0.0139388
825.550	0.0140202
825.628	0.0139609
825.706	0.0139027
825.785	0.0140168
825.863	0.0139970
825.941	0.0139756
826.019	0.0140987
826.097	0.0141254
826.175	0.0141993
826.253	0.0141719
826.331	0.0142143
826.410	0.0141583
826.488	0.0142496
826.566	0.0144740
826.644	0.0145190
826.722	0.0143246
826.800	0.0143723
826.878	0.0144976
826.956	0.0146770
827.035	0.0145980
827.113	0.0145795
827.191	0.0145013
827.269	0.0146416
827.347	0.0146606
827.425	0.0146742
827.503	0.0146356
827.581	0.0147397
827.660	0.0147390
827.738	0.0147296
827.816	0.0148351
827.894	0.0148994
827.972	0.0148508
828.050	0.0149744
828.128	0.0151511
828.206	0.0149538
828.285	0.0149953
828.363	0.0151667
828.441	0.0153597
828.519	0.0152526
828.597	0.0151479
828.675	0.0151721
828.753	0.0152306
828.831	0.0153458
828.910	0.0152872
828.988	0.0151795
829.066	0.0153034
829.144	0.0153123
829.222	0.0152668
829.300	0.0151276
829.378	0.0151536
829.456	0.0151534
829.535	0.0151087
829.613	0.0149348
829.691	0.0151548
829.769	0.0149894
829.847	0.0149940
829.925	0.0147237
830.003	0.0146882
830.081	0.0146411
830.160	0.0144337
830.238	0.0143999
830.316	0.0141946
830.394	0.0141999
830.472	0.0141222
830.550	0.0139707
830.628	0.0139574
830.706	0.0138824
830.785	0.0137868
830.863	0.0137859
830.941	0.0136987
831.019	0.0136241
831.097	0.0135194
831.175	0.0135964
831.253	0.0134360
831.331	0.0133309
831.410	0.0133998
831.488	0.0135375
831.566	0.0133117
831.644	0.0135421
831.722	0.0134870
831.800	0.0133288
831.878	0.0135442
831.956	0.0135461
832.035	0.0134637
832.113	0.0135607
832.191	0.0136070
832.269	0.0137888
832.347	0.0139954
832.425	0.0142423
832.503	0.0143567
832.581	0.0147164
832.660	0.0149573
832.738	0.0149249
832.816	0.0151088
832.894	0.0152222
832.972	0.0151737
833.050	0.0151138
833.128	0.0150723
833.206	0.0149149
833.285	0.0148000
833.363	0.0148196
833.441	0.0146758
833.519	0.0146277
833.597	0.0147043
833.675	0.0147249
833.753	0.0148705
833.831	0.0149857
833.910	0.0151709
833.988	0.0153013
834.066	0.0155059
834.144	0.0156093
834.222	0.0154884
834.300	0.0155470
834.378	0.0154254
834.456	0.0151531
834.535	0.0150366
834.613	0.0149626
834.691	0.0147308
834.769	0.0144681
834.847	0.0142709
834.925	0.0142406
835.003	0.0139969
835.081	0.0139505
835.160	0.0139247
835.238	0.0139652
835.316	0.0141264
835.394	0.0144315
835.472	0.0145308
835.550	0.0146365
835.628	0.0148460
835.706	0.0151003
835.785	0.0151061
835.863	0.0151956
835.941	0.0153413
836.019	0.0153085
836.097	0.0152998
836.175	0.0152435
836.253	0.0152017
836.331	0.0149480
836.410	0.0148377
836.488	0.0146708
836.566	0.0145491
836.644	0.0144459
836.722	0.0142191
836.800	0.0141109
836.878	0.0139133
836.956	0.0137347
837.035	0.0136631
837.113	0.0135459
837.191	0.0135673
837.269	0.0135522
837.347	0.0135651
837.425	0.0137219
837.503	0.0137315
837.581	0.0140649
837.660	0.0142183
837.738	0.0143500
837.816	0.0144993
837.894	0.0146239
837.972	0.0146120
838.050	0.0148412
838.128	0.0149931
838.206	0.0149066
838.285	0.0150464
838.363	0.0149981
838.441	0.0149411
838.519	0.0149009
838.597	0.0147439
838.675	0.0146888
838.753	0.0145293
838.831	0.0143783
838.910	0.0142138
838.988	0.0141605
839.066	0.0141991
839.144	0.0140541
839.222	0.0140265
839.300	0.0137986
839.378	0.0138316
839.456	0.0140565
839.535	0.0141074
839.613	0.0139592
839.691	0.0140248
839.769	0.0141438
839.847	0.0143108
839.925	0.0144292
840.003	0.0145462
840.081	0.0146680
840.160	0.0146909
840.238	0.0147499
840.316	0.0147718
840.394	0.0148714
840.472	0.0148433
840.550	0.0148271
840.628	0.0148393
840.706	0.0148097
840.785	0.0149044
840.863	0.0148666
840.941	0.0150536
841.019	0.0149570
841.097	0.0151366
841.175	0.0150673
841.253	0.0152007
841.331	0.0149534
841.410	0.0152708
841.488	0.0150281
841.566	0.0150569
841.644	0.0149680
841.722	0.0149245
841.800	0.0147368
841.878	0.0147762
841.956	0.0147130
842.035	0.0145250
842.113	0.0144929
842.191	0.0142703
842.269	0.0142725
842.347	0.0141286
842.425	0.0141593
842.503	0.0140864
842.581	0.0139245
842.660	0.0140174
842.738	0.0140530
842.816	0.0142763
842.894	0.0141236
842.972	0.0141524
843.050	0.0143323
843.128	0.0144292
843.206	0.0146426
843.285	0.0144687
843.363	0.0146449
843.441	0.0146173
843.519	0.0147674
843.597	0.0147373
843.675	0.0144402
843.753	0.0147425
843.831	0.0147723
843.910	0.0147057
843.988	0.0145503
844.066	0.0145339
844.144	0.0145805
844.222	0.0145611
844.300	0.0144661
844.378	0.0144672
844.456	0.0145358
844.535	0.0145112
844.613	0.0145053
844.691	0.0145094
844.769	0.0146822
844.847	0.0145384
844.925	0.0146281
845.003	0.0146017
845.081	0.0145531
845.160	0.0146646
845.238	0.0145953
845.316	0.0144680
845.394	0.0144695
845.472	0.0142960
845.550	0.0143804
845.628	0.0143916
845.706	0.0143406
845.785	0.0143329
845.863	0.0143350
845.941	0.0142388
846.019	0.0143789
846.097	0.0143711
846.175	0.0143412
846.253	0.0142027
846.331	0.0143443
846.410	0.0144242
846.488	0.0143103
846.566	0.0143764
846.644	0.0144833
846.722	0.0145197
846.800	0.0146246
846.878	0.0145309
846.956	0.0146027
847.035	0.0145855
847.113	0.0147068
847.191	0.0148638
847.269	0.0147958
847.347	0.0147723
847.425	0.0147369
847.503	0.0146972
847.581	0.0145741
847.660	0.0146368
847.738	0.0144544
847.816	0.0144864
847.894	0.0145651
847.972	0.0144379
848.050	0.0144373
848.128	0.0142966
848.206	0.0141542
848.285	0.0142953
848.363	0.0142363
848.441	0.0143817
848.519	0.0142966
848.597	0.0142920
848.675	0.0143134
848.753	0.0142254
848.831	0.0142601
848.910	0.0143595
848.988	0.0143937
849.066	0.0144322
849.144	0.0144764
849.222	0.0143327
849.300	0.0145847
849.378	0.0146292
849.456	0.0147860
849.535	0.0147543
849.613	0.0149004
849.691	0.0149447
849.769	0.0149820
849.847	0.0149280
849.925	0.0149061
850.003	0.0148944
850.081	0.0149868
850.160	0.0148563
850.238	0.0147770
850.316	0.0146558
850.394	0.0144507
850.472	0.0144313
850.550	0.0144386
850.628	0.0143084
850.706	0.0140923
850.785	0.0141367
850.863	0.0140795
850.941	0.0141452
851.019	0.0141674
851.097	0.0143759
851.175	0.0143145
851.253	0.0144742
851.331	0.0144382
851.410	0.0144534
851.488	0.0145408
851.566	0.0145703
851.644	0.0146820
851.722	0.0146774
851.800	0.0145958
851.878	0.0146942
851.956	0.0146952
852.035	0.0143554
852.113	0.0144986
852.191	0.0144785
852.269	0.0143334
852.347	0.0145264
852.425	0.0144164
852.503	0.0143318
852.581	0.0144086
852.660	0.0145388
852.738	0.0144798
852.816	0.0145130
852.894	0.0145659
852.972	0.0145348
853.050	0.0144700
853.128	0.0145058
853.206	0.0145351
853.285	0.0145390
853.363	0.0144777
853.441	0.0144869
853.519	0.0143974
853.597	0.0145642
853.675	0.0143578
853.753	0.0141673
853.831	0.0143092
853.910	0.0143230
853.988	0.0143704
854.066	0.0142872
854.144	0.0143527
854.222	0.0143313
854.300	0.0143121
854.378	0.0143359
854.456	0.0143189
854.535	0.0144608
854.613	0.0146064
854.691	0.0145181
854.769	0.0145648
854.847	0.0146642
854.925	0.0146495
855.003	0.0146958
855.081	0.0148003
855.160	0.0147383
855.238	0.0147922
855.316	0.0147702
855.394	0.0147354
855.472	0.0146717
855.550	0.0146368
855.628	0.0145753
855.706	0.0146402
855.785	0.0145059
855.863	0.0145744
855.941	0.0146985
856.019	0.0146784
856.097	0.0145570
856.175	0.0144917
856.253	0.0146825
856.331	0.0145444
856.410	0.0144958
856.488	0.0145708
856.566	0.0144942
856.644	0.0145929
856.722	0.0146629
856.800	0.0145453
856.878	0.0146244
856.956	0.0145944
857.035	0.0146702
857.113	0.0145393
857.191	0.0147618
857.269	0.0146057
857.347	0.0146751
857.425	0.0145750
857.503	0.0145591
857.581	0.0145779
857.660	0.0146687
857.738	0.0144810
857.816	0.0144920
857.894	0.0146193
857.972	0.0147488
858.050	0.0145344
858.128	0.0146167
858.206	0.0145577
858.285	0.0143731
858.363	0.0145048
858.441	0.0144812
858.519	0.0145001
858.597	0.0144123
858.675	0.0144810
858.753	0.0144439
858.831	0.0143994
858.910	0.0144443
858.988	0.0144014
859.066	0.0143382
859.144	0.0142410
859.222	0.0143647
859.300	0.0144208
859.378	0.0143861
859.456	0.0143358
859.535	0.0142886
859.613	0.0144253
859.691	0.0143214
859.769	0.0145803
859.847	0.0145663
859.925	0.0145077
860.003	0.0146019
860.081	0.0147207
860.160	0.0147772
860.238	0.0146679
860.316	0.0148071
860.394	0.0147805
860.472	0.0148130
860.550	0.0148201
860.628	0.0148500
860.706	0.0148535
860.785	0.0146994
860.863	0.0146924
860.941	0.0147701
861.019	0.0147497
861.097	0.0146502
861.175	0.0145941
861.253	0.0143966
861.331	0.0144141
861.410	0.0142876
861.488	0.0141984
861.566	0.0141683
861.644	0.0141211
861.722	0.0142243
861.800	0.0140417
861.878	0.0138322
861.956	0.0139388
862.035	0.0140888
862.113	0.0141389
862.191	0.0141049
862.269	0.0141384
862.347	0.0142577
862.425	0.0141343
862.503	0.0141566
862.581	0.0142965
862.660	0.0142682
862.738	0.0142718
862.816	0.0142047
862.894	0.0144999
862.972	0.0143917
863.050	0.0143465
863.128	0.0145172
863.206	0.0145415
863.285	0.0145592
863.363	0.0147830
863.441	0.0147416
863.519	0.0148341
863.597	0.0146986
863.675	0.0147267
863.753	0.0146504
863.831	0.0147569
863.910	0.0147216
863.988	0.0147613
864.066	0.0147256
864.144	0.0147887
864.222	0.0149097
864.300	0.0148530
864.378	0.0149519
864.456	0.0146333
864.535	0.0148888
864.613	0.0147808
864.691	0.0146136
864.769	0.0149123
864.847	0.0147662
864.925	0.0145361
865.003	0.0145522
865.081	0.0146140
865.160	0.0146367
865.238	0.0146001
865.316	0.0146063
865.394	0.0145670
865.472	0.0145549
865.550	0.0146948
865.628	0.0145896
865.706	0.0145642
865.785	0.0144778
865.863	0.0144697
865.941	0.0143924
866.019	0.0145176
866.097	0.0144594
866.175	0.0145668
866.253	0.0145295
866.331	0.0145354
866.410	0.0144922
866.488	0.0145197
866.566	0.0144950
866.644	0.0144950
866.722	0.0144548
866.800	0.0145194
866.878	0.0145961
866.956	0.0144556
867.035	0.0143996
867.113	0.0142953
867.191	0.0143495
867.269	0.0144154
867.347	0.0143312
867.425	0.0143651
867.503	0.0142916
867.581	0.0143328
867.660	0.0142859
867.738	0.0141470
867.816	0.0142492
867.894	0.0141382
867.972	0.0141608
868.050	0.0140213
868.128	0.0141547
868.206	0.0140988
868.285	0.0140685
868.363	0.0141241
868.441	0.0140861
868.519	0.0142712
868.597	0.0142310
868.675	0.0142230
868.753	0.0143784
868.831	0.0144707
868.910	0.0145459
868.988	0.0145490
869.066	0.0146234
869.144	0.0147783
869.222	0.0147162
869.300	0.0146532
869.378	0.0147137
869.456	0.0146069
869.535	0.0145483
869.613	0.0145014
869.691	0.0145061
869.769	0.0144495
869.847	0.0143788
869.925	0.0143537
870.003	0.0143401
870.081	0.0144414
870.160	0.0144161
870.238	0.0143419
870.316	0.0142284
870.394	0.0144071
870.472	0.0145392
870.550	0.0145102
870.628	0.0146600
870.706	0.0146271
870.785	0.0146694
870.863	0.0146709
870.941	0.0148381
871.019	0.0150666
871.097	0.0150388
871.175	0.0150483
871.253	0.0149667
871.331	0.0149494
871.410	0.0149147
871.488	0.0148432
871.566	0.0148636
871.644	0.0147683
871.722	0.0145592
871.800	0.0145233
871.878	0.0143421
871.956	0.0143214
872.035	0.0142992
872.113	0.0141898
872.191	0.0140282
872.269	0.0141640
872.347	0.0140297
872.425	0.0140627
872.503	0.0141299
872.581	0.0142820
872.660	0.0143792
872.738	0.0142450
872.816	0.0142509
872.894	0.0145722
872.972	0.0144550
873.050	0.0146510
873.128	0.0148003
873.206	0.0147024
873.285	0.0147308
873.363	0.0149313
873.441	0.0149654
873.519	0.0149135
873.597	0.0148898
873.675	0.0148325
873.753	0.0149414
873.831	0.0148491
873.910	0.0148414
873.988	0.0148015
874.066	0.0146877
874.144	0.0144430
874.222	0.0145505
874.300	0.0144562
874.378	0.0144235
874.456	0.0145282
874.535	0.0143864
874.613	0.0142540
874.691	0.0144470
874.769	0.0144046
874.847	0.0143630
874.925	0.0141442
875.003	0.0141711
875.081	0.0143855
875.160	0.0143103
875.238	0.0144737
875.316	0.0143157
875.394	0.0143485
875.472	0.0144491
875.550	0.0144636
875.628	0.0146613
875.706	0.0146445
875.785	0.0145043
875.863	0.0144944
875.941	0.0143659
876.019	0.0144035
876.097	0.0144457
876.175	0.0142817
876.253	0.0141673
876.331	0.0142000
876.410	0.0142697
876.488	0.0141529
876.566	0.0140855
876.644	0.0139958
876.722	0.0139059
876.800	0.0140257
876.878	0.0140765
876.956	0.0140634
877.035	0.0142254
877.113	0.0141782
877.191	0.0142917
877.269	0.0143927
877.347	0.0144662
877.425	0.0146676
877.503	0.0147349
877.581	0.0146593
877.660	0.0145644
877.738	0.0146767
877.816	0.0148523
877.894	0.0147884
877.972	0.0146986
878.050	0.0146585
878.128	0.0145708
878.206	0.0147012
878.285	0.0144070
878.363	0.0145135
878.441	0.0144266
878.519	0.0143503
878.597	0.0142338
878.675	0.0142154
878.753	0.0142197
878.831	0.0141660
878.910	0.0139955
878.988	0.0141483
879.066	0.0141847
879.144	0.0142207
879.222	0.0142182
879.300	0.0141863
879.378	0.0142754
879.456	0.0143026
879.535	0.0143079
879.613	0.0143470
879.691	0.0143542
879.769	0.0145442
879.847	0.0147319
879.925	0.0146780
880.003	0.0146666
880.081	0.0147661
880.160	0.0148237
880.238	0.0149462
880.316	0.0149207
880.394	0.0150311
880.472	0.0147733
880.550	0.0147849
880.628	0.0149054
880.706	0.0147867
880.785	0.0147105
880.863	0.0147030
880.941	0.0146223
881.019	0.0146782
881.097	0.0145366
881.175	0.0143259
881.253	0.0145631
881.331	0.0145128
881.410	0.0143208
881.488	0.0142755
881.566	0.0143608
881.644	0.0143088
881.722	0.0143333
881.800	0.0144193
881.878	0.0145204
881.956	0.0145483
882.035	0.0144756
882.113	0.0145755
882.191	0.0146139
882.269	0.0145483
882.347	0.0147082
882.425	0.0148116
882.503	0.0146470
882.581	0.0147306
882.660	0.0148153
882.738	0.0146440
882.816	0.0146999
882.894	0.0145402
882.972	0.0146133
883.050	0.0146315
883.128	0.0144090
883.206	0.0145752
883.285	0.0143159
883.363	0.0143359
883.441	0.0141994
883.519	0.0142268
883.597	0.0141000
883.675	0.0140375
883.753	0.0139747
883.831	0.0140878
883.910	0.0141372
883.988	0.0141518
884.066	0.0142323
884.144	0.0142203
884.222	0.0142640
884.300	0.0143545
884.378	0.0144208
884.456	0.0143005
884.535	0.0143718
884.613	0.0143675
884.691	0.0144171
884.769	0.0144042
884.847	0.0144416
884.925	0.0144991
885.003	0.0144543
885.081	0.0143141
885.160	0.0143349
885.238	0.0143444
885.316	0.0143083
885.394	0.0144804
885.472	0.0142758
885.550	0.0142891
885.628	0.0142508
885.706	0.0143787
885.785	0.0145538
885.863	0.0144716
885.941	0.0145024
886.019	0.0146114
886.097	0.0145474
886.175	0.0145567
886.253	0.0147050
886.331	0.0146855
886.410	0.0143946
886.488	0.0145461
886.566	0.0144859
886.644	0.0145630
886.722	0.0144875
886.800	0.0145094
886.878	0.0144681
886.956	0.0146647
887.035	0.0145461
887.113	0.0146350
887.191	0.0147096
887.269	0.0144934
887.347	0.0144815
887.425	0.0145258
887.503	0.0147704
887.581	0.0145486
887.660	0.0144502
887.738	0.0144767
887.816	0.0143182
887.894	0.0142602
887.972	0.0141294
888.050	0.0141940
888.128	0.0141651
888.206	0.0141140
888.285	0.0142548
888.363	0.0143611
888.441	0.0141176
888.519	0.0140879
888.597	0.0143201
888.675	0.0143499
888.753	0.0141679
888.831	0.0143312
888.910	0.0145014
888.988	0.0145126
889.066	0.0145461
889.144	0.0146333
889.222	0.0147133
889.300	0.0145681
889.378	0.0145704
889.456	0.0145779
889.535	0.0145679
889.613	0.0143394
889.691	0.0143604
889.769	0.0143779
889.847	0.0143851
889.925	0.0143204
890.003	0.0143212
890.081	0.0142698
890.160	0.0143721
890.238	0.0144607
890.316	0.0142939
890.394	0.0143788
890.472	0.0143848
890.550	0.0143565
890.628	0.0142994
890.706	0.0141772
890.785	0.0142027
890.863	0.0142304
890.941	0.0142076
891.019	0.0141564
891.097	0.0142667
891.175	0.0141672
891.253	0.0142027
891.331	0.0142661
891.410	0.0141710
891.488	0.0142977
891.566	0.0141759
891.644	0.0141142
891.722	0.0142612
891.800	0.0142082
891.878	0.0142867
891.956	0.0141837
892.035	0.0143261
892.113	0.0144519
892.191	0.0144861
892.269	0.0144751
892.347	0.0144182
892.425	0.0143865
892.503	0.0145681
892.581	0.0144872
892.660	0.0144288
892.738	0.0144667
892.816	0.0143682
892.894	0.0143741
892.972	0.0143850
893.050	0.0145518
893.128	0.0144313
893.206	0.0145216
893.285	0.0145996
893.363	0.0145533
893.441	0.0145126
893.519	0.0146413
893.597	0.0145971
893.675	0.0146283
893.753	0.0146271
893.831	0.0146277
893.910	0.0146228
893.988	0.0143614
894.066	0.0144933
894.144	0.0145992
894.222	0.0145168
894.300	0.0145896
894.378	0.0146983
894.456	0.0147537
894.535	0.0146952
894.613	0.0146774
894.691	0.0147113
894.769	0.0147163
894.847	0.0147765
894.925	0.0147558
895.003	0.0147406
895.081	0.0145644
895.160	0.0145603
895.238	0.0146075
895.316	0.0145698
895.394	0.0146523
895.472	0.0144951
895.550	0.0143838
895.628	0.0144250
895.706	0.0143877
895.785	0.0143330
895.863	0.0143886
895.941	0.0142403
896.019	0.0142426
896.097	0.0141463
896.175	0.0143501
896.253	0.0142467
896.331	0.0145448
896.410	0.0144143
896.488	0.0143475
896.566	0.0144423
896.644	0.0143066
896.722	0.0145808
896.800	0.0145123
896.878	0.0145212
896.956	0.0145393
897.035	0.0145782
897.113	0.0145646
897.191	0.0145759
897.269	0.0145620
897.347	0.0145940
897.425	0.0144910
897.503	0.0145530
897.581	0.0145539
897.660	0.0145202
897.738	0.0144446
897.816	0.0144808
897.894	0.0146251
897.972	0.0146176
898.050	0.0144835
898.128	0.0145315
898.206	0.0144616
898.285	0.0144427
898.363	0.0143899
898.441	0.0145908
898.519	0.0143970
898.597	0.0142226
898.675	0.0144235
898.753	0.0142699
898.831	0.0143089
898.910	0.0143131
898.988	0.0142281
899.066	0.0142428
899.144	0.0140333
899.222	0.0140794
899.300	0.0141397
899.378	0.0141289
899.456	0.0139581
899.535	0.0140179
899.613	0.0140511
899.691	0.0139947
899.769	0.0140703
899.847	0.0141578
899.925	0.0140269
900.003	0.0141419
900.081	0.0141678
900.160	0.0141321
900.238	0.0142232
900.316	0.0140517
900.394	0.0141209
900.472	0.0141373
900.550	0.0140755
900.628	0.0142106
900.706	0.0143116
900.785	0.0142646
900.863	0.0144551
900.941	0.0146808
901.019	0.0147152
901.097	0.0149548
901.175	0.0152934
901.253	0.0154529
901.331	0.0156995
901.410	0.0160210
901.488	0.0160067
901.566	0.0160774
901.644	0.0160305
901.722	0.0158633
901.800	0.0155923
901.878	0.0152386
901.956	0.0149194
902.035	0.0145371
902.113	0.0141543
902.191	0.0137220
902.269	0.0133582
902.347	0.0130309
902.425	0.0131582
902.503	0.0132288
902.581	0.0134081
902.660	0.0138229
902.738	0.0140763
902.816	0.0143545
902.894	0.0146492
902.972	0.0147021
903.050	0.0148412
903.128	0.0147264
903.206	0.0145364
903.285	0.0144238
903.363	0.0140981
903.441	0.0138538
903.519	0.0136081
903.597	0.0132925
903.675	0.0130762
903.753	0.0131302
903.831	0.0131538
903.910	0.0132614
903.988	0.0135484
904.066	0.0137835
904.144	0.0142190
904.222	0.0143320
904.300	0.0146915
904.378	0.0150111
904.456	0.0155105
904.535	0.0157692
904.613	0.0160468
904.691	0.0160217
904.769	0.0160588
904.847	0.0164297
904.925	0.0162888
905.003	0.0159711
905.081	0.0158134
905.160	0.0156130
905.238	0.0152140
905.316	0.0149189
905.394	0.0146418
905.472	0.0144079
905.550	0.0139196
905.628	0.0138071
905.706	0.0136971
905.785	0.0135660
905.863	0.0137305
905.941	0.0137932
906.019	0.0137727
906.097	0.0138298
906.175	0.0139132
906.253	0.0140184
906.331	0.0142731
906.410	0.0145170
906.488	0.0145720
906.566	0.0146663
906.644	0.0147723
906.722	0.0147771
906.800	0.0145663
906.878	0.0145424
906.956	0.0143030
907.035	0.0142784
907.113	0.0140892
907.191	0.0139949
907.269	0.0137505
907.347	0.0136469
907.425	0.0136987
907.503	0.0136403
907.581	0.0137608
907.660	0.0138541
907.738	0.0139652
907.816	0.0140664
907.894	0.0142339
907.972	0.0144617
908.050	0.0145987
908.128	0.0148072
908.206	0.0148371
908.285	0.0149232
908.363	0.0149342
908.441	0.0149559
908.519	0.0151074
908.597	0.0150108
908.675	0.0150233
908.753	0.0149230
908.831	0.0151512
908.910	0.0149462
908.988	0.0149256
909.066	0.0150043
909.144	0.0150362
909.222	0.0148874
909.300	0.0148190
909.378	0.0148481
909.456	0.0145790
909.535	0.0145755
909.613	0.0144085
909.691	0.0143069
909.769	0.0141109
909.847	0.0141354
909.925	0.0142033
910.003	0.0140658
910.081	0.0141499
910.160	0.0141449
910.238	0.0140852
910.316	0.0142303
910.394	0.0141361
910.472	0.0143088
910.550	0.0144682
910.628	0.0144002
910.706	0.0143887
910.785	0.0143177
910.863	0.0143069
910.941	0.0142098
911.019	0.0142429
911.097	0.0141183
911.175	0.0141243
911.253	0.0141954
911.331	0.0141763
911.410	0.0141990
911.488	0.0142088
911.566	0.0143748
911.644	0.0145481
911.722	0.0145215
911.800	0.0146113
911.878	0.0145310
911.956	0.0146799
912.035	0.0146107
912.113	0.0147462
912.191	0.0147124
912.269	0.0146761
912.347	0.0145777
912.425	0.0145612
912.503	0.0145544
912.581	0.0145621
912.660	0.0145884
912.738	0.0145803
912.816	0.0145956
912.894	0.0145890
912.972	0.0144823
913.050	0.0143335
913.128	0.0144859
913.206	0.0144182
913.285	0.0144185
913.363	0.0143787
913.441	0.0143633
913.519	0.0143423
913.597	0.0143746
913.675	0.0144371
913.753	0.0143011
913.831	0.0142590
913.910	0.0143885
913.988	0.0144867
914.066	0.0144312
914.144	0.0144949
914.222	0.0145139
914.300	0.0145943
914.378	0.0147131
914.456	0.0149730
914.535	0.0148563
914.613	0.0146450
914.691	0.0147796
914.769	0.0147479
914.847	0.0145690
914.925	0.0145522
915.003	0.0144276
915.081	0.0145792
915.160	0.0144382
915.238	0.0144170
915.316	0.0144594
915.394	0.0143004
915.472	0.0142207
915.550	0.0142783
915.628	0.0142606
915.706	0.0141184
915.785	0.0141809
915.863	0.0140398
915.941	0.0141225
916.019	0.0142271
916.097	0.0142386
916.175	0.0142415
916.253	0.0141692
916.331	0.0142892
916.410	0.0142650
916.488	0.0143624
916.566	0.0144482
916.644	0.0145336
916.722	0.0146145
916.800	0.0147070
916.878	0.0145791
916.956	0.0145908
917.035	0.0146853
917.113	0.0146517
917.191	0.0147060
917.269	0.0147904
917.347	0.0148356
917.425	0.0148094
917.503	0.0148780
917.581	0.0149477
917.660	0.0148610
917.738	0.0149075
917.816	0.0149384
917.894	0.0148310
917.972	0.0148702
918.050	0.0147388
918.128	0.0147045
918.206	0.0146561
918.285	0.0144691
918.363	0.0143738
918.441	0.0143121
918.519	0.0141912
918.597	0.0139761
918.675	0.0137708
918.753	0.0138309
918.831	0.0137527
918.910	0.0137299
918.988	0.0136196
919.066	0.0138041
919.144	0.0139939
919.222	0.0140000
919.300	0.0142124
919.378	0.0143999
919.456	0.0146496
919.535	0.0149747
919.613	0.0147099
919.691	0.0147606
919.769	0.0149284
919.847	0.0148711
919.925	0.0150380
920.003	0.0149791
920.081	0.0147601
920.160	0.0148186
920.238	0.0145722
920.316	0.0146041
920.394	0.0143301
920.472	0.0141566
920.550	0.0142463
920.628	0.0142374
920.706	0.0140199
920.785	0.0139310
920.863	0.0140310
920.941	0.0140524
921.019	0.0139225
921.097	0.0140050
921.175	0.0139902
921.253	0.0139404
921.331	0.0140421
921.410	0.0144186
921.488	0.0144909
921.566	0.0146639
921.644	0.0147508
921.722	0.0147410
921.800	0.0147926
921.878	0.0150037
921.956	0.0150072
922.035	0.0148091
922.113	0.0148819
922.191	0.0147684
922.269	0.0146667
922.347	0.0146820
922.425	0.0145031
922.503	0.0145831
922.581	0.0144174
922.660	0.0142893
922.738	0.0143089
922.816	0.0142319
922.894	0.0144185
922.972	0.0143484
923.050	0.0143571
923.128	0.0146259
923.206	0.0146904
923.285	0.0146272
923.363	0.0148273
923.441	0.0148292
923.519	0.0148750
923.597	0.0149123
923.675	0.0148929
923.753	0.0150543
923.831	0.0151031
923.910	0.0149636
923.988	0.0149194
924.066	0.0148869
924.144	0.0148544
924.222	0.0146864
924.300	0.0146806
924.378	0.0146870
924.456	0.0145156
924.535	0.0144123
924.613	0.0143974
924.691	0.0144118
924.769	0.0143183
924.847	0.0144704
924.925	0.0143531
925.003	0.0142550
925.081	0.0144241
925.160	0.0142127
925.238	0.0143467
925.316	0.0143779
925.394	0.0141714
925.472	0.0142401
925.550	0.0142308
925.628	0.0141063
925.706	0.0142822
925.785	0.0142301
925.863	0.0141806
925.941	0.0141033
926.019	0.0143196
926.097	0.0142585
926.175	0.0143217
926.253	0.0141164
926.331	0.0142883
926.410	0.0142966
926.488	0.0143872
926.566	0.0144109
926.644	0.0143963
926.722	0.0143404
926.800	0.0144227
926.878	0.0146911
926.956	0.0145646
927.035	0.0145831
927.113	0.0145552
927.191	0.0147040
927.269	0.0145950
927.347	0.0146566
927.425	0.0147395
927.503	0.0148111
927.581	0.0146148
927.660	0.0145655
927.738	0.0145288
927.816	0.0144494
927.894	0.0145620
927.972	0.0146162
928.050	0.0143885
928.128	0.0144848
928.206	0.0144447
928.285	0.0143763
928.363	0.0143803
928.441	0.0145818
928.519	0.0143746
928.597	0.0144380
928.675	0.0144455
928.753	0.0145113
928.831	0.0145392
928.910	0.0146859
928.988	0.0146632
929.066	0.0146728
929.144	0.0146971
929.222	0.0146980
929.300	0.0148840
929.378	0.0147505
929.456	0.0146181
929.535	0.0148250
929.613	0.0147664
929.691	0.0147226
929.769	0.0147833
929.847	0.0147628
929.925	0.0147756
930.003	0.0148137
930.081	0.0147495
930.160	0.0145533
930.238	0.0145161
930.316	0.0146588
930.394	0.0146140
930.472	0.0144828
930.550	0.0144437
930.628	0.0144794
930.706	0.0145338
930.785	0.0144708
930.863	0.0144120
930.941	0.0144614
931.019	0.0145190
931.097	0.0146205
931.175	0.0143893
931.253	0.0145123
931.331	0.0145930
931.410	0.0145840
931.488	0.0145006
931.566	0.0144676
931.644	0.0144215
931.722	0.0142824
931.800	0.0143680
931.878	0.0144396
931.956	0.0143767
932.035	0.0143452
932.113	0.0145021
932.191	0.0144312
932.269	0.0144707
932.347	0.0144330
932.425	0.0144788
932.503	0.0145959
932.581	0.0144268
932.660	0.0143591
932.738	0.0144491
932.816	0.0144630
932.894	0.0143663
932.972	0.0144384
933.050	0.0145993
933.128	0.0143970
933.206	0.0144085
933.285	0.0144001
933.363	0.0143467
933.441	0.0142023
933.519	0.0142491
933.597	0.0142996
933.675	0.0143233
933.753	0.0142696
933.831	0.0142184
933.910	0.0143427
933.988	0.0142586
934.066	0.0141333
934.144	0.0142152
934.222	0.0143098
934.300	0.0142673
934.378	0.0143117
934.456	0.0142727
934.535	0.0144981
934.613	0.0144116
934.691	0.0144976
934.769	0.0147260
934.847	0.0146421
934.925	0.0146355
935.003	0.0146680
935.081	0.0148496
935.160	0.0149932
935.238	0.0147930
935.316	0.0147963
935.394	0.0147583
935.472	0.0146791
935.550	0.0147776
935.628	0.0145648
935.706	0.0146199
935.785	0.0144553
935.863	0.0142621
935.941	0.0142084
936.019	0.0142190
936.097	0.0142375
936.175	0.0142547
936.253	0.0140141
936.331	0.0142779
936.410	0.0142593
936.488	0.0142030
936.566	0.0144419
936.644	0.0143867
936.722	0.0143572
936.800	0.0144820
936.878	0.0145268
936.956	0.0146184
937.035	0.0147041
937.113	0.0146400
937.191	0.0148313
937.269	0.0146500
937.347	0.0146817
937.425	0.0146631
937.503	0.0146204
937.581	0.0146939
937.660	0.0143603
937.738	0.0144371
937.816	0.0144351
937.894	0.0145011
937.972	0.0144359
938.050	0.0144312
938.128	0.0145358
938.206	0.0144450
938.285	0.0145061
938.363	0.0143484
938.441	0.0143932
938.519	0.0144139
938.597	0.0143747
938.675	0.0144099
938.753	0.0142706
938.831	0.0142455
938.910	0.0141932
938.988	0.0143767
939.066	0.0141519
939.144	0.0142773
939.222	0.0142427
939.300	0.0143708
939.378	0.0143439
939.456	0.0143256
939.535	0.0146445
939.613	0.0146508
939.691	0.0147363
939.769	0.0148309
939.847	0.0149108
939.925	0.0149939
940.003	0.0149896
940.081	0.0150247
940.160	0.0149777
940.238	0.0149457
940.316	0.0148553
940.394	0.0146255
940.472	0.0146680
940.550	0.0147124
940.628	0.0145712
940.706	0.0144254
940.785	0.0143636
940.863	0.0143904
940.941	0.0143155
941.019	0.0142150
941.097	0.0143198
941.175	0.0144266
941.253	0.0142807
941.331	0.0144361
941.410	0.0145951
941.488	0.0143574
941.566	0.0144537
941.644	0.0144696
941.722	0.0145599
941.800	0.0144657
941.878	0.0142473
941.956	0.0143141
942.035	0.0143647
942.113	0.0143647
942.191	0.0141635
942.269	0.0141057
942.347	0.0141380
942.425	0.0141486
942.503	0.0140743
942.581	0.0141614
942.660	0.0141190
942.738	0.0141068
942.816	0.0142019
942.894	0.0142718
942.972	0.0142757
943.050	0.0144482
943.128	0.0144465
943.206	0.0145234
943.285	0.0146338
943.363	0.0146532
943.441	0.0146859
943.519	0.0149512
943.597	0.0149461
943.675	0.0149781
943.753	0.0150253
943.831	0.0148902
943.910	0.0150477
943.988	0.0149866
944.066	0.0149459
944.144	0.0149142
944.222	0.0148897
944.300	0.0149039
944.378	0.0145844
944.456	0.0145968
944.535	0.0146959
944.613	0.0145680
944.691	0.0145637
944.769	0.0144977
944.847	0.0144350
944.925	0.0144096
945.003	0.0146031
945.081	0.0145038
945.160	0.0145934
945.238	0.0144820
945.316	0.0144730
945.394	0.0146233
945.472	0.0144732
945.550	0.0147387
945.628	0.0146138
945.706	0.0145300
945.785	0.0146452
945.863	0.0148000
945.941	0.0148250
946.019	0.0146117
946.097	0.0147213
946.175	0.0146990
946.253	0.0147043
946.331	0.0146553
946.410	0.0147768
946.488	0.0146771
946.566	0.0147264
946.644	0.0146724
946.722	0.0146861
946.800	0.0146646
946.878	0.0147539
946.956	0.0149039
947.035	0.0149332
947.113	0.0148196
947.191	0.0146728
947.269	0.0147591
947.347	0.0146239
947.425	0.0145194
947.503	0.0146349
947.581	0.0143905
947.660	0.0142592
947.738	0.0141025
947.816	0.0140440
947.894	0.0138710
947.972	0.0139561
948.050	0.0140129
948.128	0.0139273
948.206	0.0139127
948.285	0.0139710
948.363	0.0141309
948.441	0.0141618
948.519	0.0143233
948.597	0.0143675
948.675	0.0145086
948.753	0.0145941
948.831	0.0145920
948.910	0.0145519
948.988	0.0145780
949.066	0.0146121
949.144	0.0146175
949.222	0.0145454
949.300	0.0142695
949.378	0.0142899
949.456	0.0144361
949.535	0.0144230
949.613	0.0143814
949.691	0.0143027
949.769	0.0142928
949.847	0.0142720
949.925	0.0144747
950.003	0.0143011
950.081	0.0143797
950.160	0.0144019
950.238	0.0146479
950.316	0.0145639
950.394	0.0145160
950.472	0.0144187
950.550	0.0142410
950.628	0.0143511
950.706	0.0144665
950.785	0.0143024
950.863	0.0142797
950.941	0.0142736
951.019	0.0144015
951.097	0.0142473
951.175	0.0143474
951.253	0.0142780
951.331	0.0144913
951.410	0.0143560
951.488	0.0143861
951.566	0.0144460
951.644	0.0144432
951.722	0.0144853
951.800	0.0145572
951.878	0.0143781
951.956	0.0145935
952.035	0.0145547
952.113	0.0142386
952.191	0.0143273
952.269	0.0145655
952.347	0.0144809
952.425	0.0144444
952.503	0.0143961
952.581	0.0143441
952.660	0.0144532
952.738	0.0143992
952.816	0.0144263
952.894	0.0144128
952.972	0.0144614
953.050	0.0143365
953.128	0.0144949
953.206	0.0145966
953.285	0.0143539
953.363	0.0144018
953.441	0.0144368
953.519	0.0145315
953.597	0.0147383
953.675	0.0145988
953.753	0.0144331
953.831	0.0145634
953.910	0.0144477
953.988	0.0144201
954.066	0.0144434
954.144	0.0143668
954.222	0.0144608
954.300	0.0144923
954.378	0.0143294
954.456	0.0144479
954.535	0.0144739
954.613	0.0143975
954.691	0.0144130
954.769	0.0144827
954.847	0.0146566
954.925	0.0145892
955.003	0.0145419
955.081	0.0144750
955.160	0.0146680
955.238	0.0146597
955.316	0.0146635
955.394	0.0147310
955.472	0.0147025
955.550	0.0147048
955.628	0.0146731
955.706	0.0146920
955.785	0.0146828
955.863	0.0147617
955.941	0.0146670
956.019	0.0145390
956.097	0.0145565
956.175	0.0146074
956.253	0.0145871
956.331	0.0144063
956.410	0.0144920
956.488	0.0143792
956.566	0.0143823
956.644	0.0143645
956.722	0.0143118
956.800	0.0143785
956.878	0.0143265
956.956	0.0143691
957.035	0.0142824
957.113	0.0143243
957.191	0.0143367
957.269	0.0143835
957.347	0.0142640
957.425	0.0144208
957.503	0.0143728
957.581	0.0144221
957.660	0.0143857
957.738	0.0143893
957.816	0.0144825
957.894	0.0144833
957.972	0.0143253
958.050	0.0144188
958.128	0.0145383
958.206	0.0144778
958.285	0.0145129
958.363	0.0144853
958.441	0.0146831
958.519	0.0147616
958.597	0.0145016
958.675	0.0146271
958.753	0.0147013
958.831	0.0148611
958.910	0.0148568
958.988	0.0146639
959.066	0.0147176
959.144	0.0147068
959.222	0.0147735
959.300	0.0146743
959.378	0.0145492
959.456	0.0144843
959.535	0.0146605
959.613	0.0146387
959.691	0.0145142
959.769	0.0143991
959.847	0.0142513
959.925	0.0143539
960.003	0.0142941
960.081	0.0142181
960.160	0.0141195
960.238	0.0138821
960.316	0.0140750
960.394	0.0139700
960.472	0.0138950
960.550	0.0139741
960.628	0.0140673
960.706	0.0141692
960.785	0.0141502
960.863	0.0143306
960.941	0.0144915
961.019	0.0147174
961.097	0.0147457
961.175	0.0147063
961.253	0.0148367
961.331	0.0148891
961.410	0.0149055
961.488	0.0150703
961.566	0.0150394
961.644	0.0151306
961.722	0.0150465
961.800	0.0149389
961.878	0.0147787
961.956	0.0146678
962.035	0.0146033
962.113	0.0144272
962.191	0.0142357
962.269	0.0142142
962.347	0.0141231
962.425	0.0141479
962.503	0.0140735
962.581	0.0140012
962.660	0.0139658
962.738	0.0140949
962.816	0.0140366
962.894	0.0140950
962.972	0.0141429
963.050	0.0141681
963.128	0.0141031
963.206	0.0143109
963.285	0.0143498
963.363	0.0143591
963.441	0.0144798
963.519	0.0144977
963.597	0.0146138
963.675	0.0145226
963.753	0.0144804
963.831	0.0146022
963.910	0.0147401
963.988	0.0147263
964.066	0.0146199
964.144	0.0145544
964.222	0.0145797
964.300	0.0143941
964.378	0.0144679
964.456	0.0143437
964.535	0.0143415
964.613	0.0143150
964.691	0.0142757
964.769	0.0142298
964.847	0.0142116
964.925	0.0142443
965.003	0.0142075
965.081	0.0143251
965.160	0.0143306
965.238	0.0143835
965.316	0.0144609
965.394	0.0143472
965.472	0.0144230
965.550	0.0145130
965.628	0.0145495
965.706	0.0144354
965.785	0.0143502
965.863	0.0145365
965.941	0.0144891
966.019	0.0145536
966.097	0.0145528
966.175	0.0145018
966.253	0.0145694
966.331	0.0144969
966.410	0.0145481
966.488	0.0147610
966.566	0.0146854
966.644	0.0144927
966.722	0.0145507
966.800	0.0145734
966.878	0.0145570
966.956	0.0145052
967.035	0.0146690
967.113	0.0146734
967.191	0.0145670
967.269	0.0146761
967.347	0.0146813
967.425	0.0146503
967.503	0.0147303
967.581	0.0147239
967.660	0.0147959
967.738	0.0147366
967.816	0.0147778
967.894	0.0147691
967.972	0.0147418
968.050	0.0148651
968.128	0.0146952
968.206	0.0146877
968.285	0.0147746
968.363	0.0147406
968.441	0.0146893
968.519	0.0146822
968.597	0.0147086
968.675	0.0145355
968.753	0.0145471
968.831	0.0145444
968.910	0.0143673
968.988	0.0142773
969.066	0.0142129
969.144	0.0143024
969.222	0.0141917
969.300	0.0140371
969.378	0.0139621
969.456	0.0140127
969.535	0.0139577
969.613	0.0139733
969.691	0.0139642
969.769	0.0140380
969.847	0.0141435
969.925	0.0140586
970.003	0.0141466
970.081	0.0142307
970.160	0.0143168
970.238	0.0142271
970.316	0.0143705
970.394	0.0144712
970.472	0.0145591
970.550	0.0146200
970.628	0.0145178
970.706	0.0143761
970.785	0.0146419
970.863	0.0146173
970.941	0.0144020
971.019	0.0144308
971.097	0.0143925
971.175	0.0143128
971.253	0.0144695
971.331	0.0144466
971.410	0.0143771
971.488	0.0143360
971.566	0.0144505
971.644	0.0143094
971.722	0.0143308
971.800	0.0144710
971.878	0.0146004
971.956	0.0144502
972.035	0.0145994
972.113	0.0147477
972.191	0.0146265
972.269	0.0147141
972.347	0.0147977
972.425	0.0148092
972.503	0.0147499
972.581	0.0147039
972.660	0.0146886
972.738	0.0148069
972.816	0.0147672
972.894	0.0146812
972.972	0.0146643
973.050	0.0146289
973.128	0.0146676
973.206	0.0145723
973.285	0.0145715
973.363	0.0143816
973.441	0.0144456
973.519	0.0144691
973.597	0.0141806
973.675	0.0141088
973.753	0.0140482
973.831	0.0141309
973.910	0.0141795
973.988	0.0140538
974.066	0.0141016
974.144	0.0140287
974.222	0.0142589
974.300	0.0142149
974.378	0.0143546
974.456	0.0144193
974.535	0.0143775
974.613	0.0143234
974.691	0.0144354
974.769	0.0144186
974.847	0.0143301
974.925	0.0144228
975.003	0.0145830
975.081	0.0145313
975.160	0.0145124
975.238	0.0146655
975.316	0.0144786
975.394	0.0145719
975.472	0.0143674
975.550	0.0144113
975.628	0.0144815
975.706	0.0145043
975.785	0.0144377
975.863	0.0143935
975.941	0.0143387
976.019	0.0143204
976.097	0.0144204
976.175	0.0145109
976.253	0.0144473
976.331	0.0145011
976.410	0.0144862
976.488	0.0145366
976.566	0.0146879
976.644	0.0147568
976.722	0.0146167
976.800	0.0147388
976.878	0.0147076
976.956	0.0147820
977.035	0.0147982
977.113	0.0148542
977.191	0.0149429
977.269	0.0148027
977.347	0.0148999
977.425	0.0149031
977.503	0.0148791
977.581	0.0148528
977.660	0.0149313
977.738	0.0146582
977.816	0.0146878
977.894	0.0146605
977.972	0.0146321
978.050	0.0143142
978.128	0.0144015
978.206	0.0144236
978.285	0.0142561
978.363	0.0142745
978.441	0.0141271
978.519	0.0143257
978.597	0.0143285
978.675	0.0143605
978.753	0.0145213
978.831	0.0144225
978.910	0.0144523
978.988	0.0145722
979.066	0.0147093
979.144	0.0145428
979.222	0.0145713
979.300	0.0146013
979.378	0.0147603
979.456	0.0146027
979.535	0.0145607
979.613	0.0145490
979.691	0.0145922
979.769	0.0144076
979.847	0.0144273
979.925	0.0142088
