05/03/2022	20:07:46	Ver.	4.1	UNKNOWN
Optical Delay	660.003261	Delta X		0.078125	Sweeps	1	Scan Rate	0/0
Coordinates	Axis 1	NaN	Axis 2	NaN	Axis 3	NaN	Axis 4	NaN	Axis 5	NaN	Axis 6	0.000000
TX Power	0.000000	RX Power	0.000000

660.003	0.0146357
660.081	0.0145982
660.160	0.0146951
660.238	0.0146673
660.316	0.0144556
660.394	0.0144537
660.472	0.0146449
660.550	0.0146239
660.628	0.0145465
660.706	0.0145293
660.785	0.0145576
660.863	0.0146210
660.941	0.0147129
661.019	0.0145428
661.097	0.0146498
661.175	0.0146935
661.253	0.0146017
661.331	0.0146149
661.410	0.0146706
661.488	0.0147020
661.566	0.0146435
661.644	0.0146278
661.722	0.0146729
661.800	0.0146557
661.878	0.0146393
661.956	0.0146655
662.035	0.0146384
662.113	0.0146867
662.191	0.0147012
662.269	0.0146648
662.347	0.0146061
662.425	0.0146122
662.503	0.0145678
662.581	0.0145875
662.660	0.0146693
662.738	0.0146331
662.816	0.0146278
662.894	0.0144611
662.972	0.0145918
663.050	0.0146249
663.128	0.0147116
663.206	0.0146289
663.285	0.0147057
663.363	0.0146942
663.441	0.0146657
663.519	0.0145584
663.597	0.0146018
663.675	0.0146495
663.753	0.0146539
663.831	0.0145868
663.910	0.0147464
663.988	0.0147135
664.066	0.0146867
664.144	0.0145570
664.222	0.0146555
664.300	0.0146113
664.378	0.0145695
664.456	0.0146878
664.535	0.0146791
664.613	0.0146620
664.691	0.0147142
664.769	0.0146251
664.847	0.0146482
664.925	0.0146402
665.003	0.0145584
665.081	0.0147264
665.160	0.0145448
665.238	0.0146915
665.316	0.0146395
665.394	0.0145558
665.472	0.0147155
665.550	0.0147173
665.628	0.0146365
665.706	0.0146004
665.785	0.0146693
665.863	0.0146593
665.941	0.0146680
666.019	0.0146776
666.097	0.0146596
666.175	0.0146468
666.253	0.0146124
666.331	0.0146525
666.410	0.0145860
666.488	0.0146735
666.566	0.0146635
666.644	0.0146458
666.722	0.0145791
666.800	0.0146177
666.878	0.0144431
666.956	0.0145404
667.035	0.0145766
667.113	0.0146581
667.191	0.0147817
667.269	0.0147076
667.347	0.0145635
667.425	0.0147303
667.503	0.0145744
667.581	0.0145349
667.660	0.0146127
667.738	0.0145977
667.816	0.0145952
667.894	0.0146447
667.972	0.0147451
668.050	0.0146065
668.128	0.0145786
668.206	0.0145522
668.285	0.0145233
668.363	0.0146118
668.441	0.0145449
668.519	0.0146498
668.597	0.0146587
668.675	0.0145415
668.753	0.0145226
668.831	0.0147292
668.910	0.0146222
668.988	0.0147424
669.066	0.0146539
669.144	0.0146346
669.222	0.0146005
669.300	0.0145383
669.378	0.0147130
669.456	0.0145270
669.535	0.0145264
669.613	0.0146549
669.691	0.0146575
669.769	0.0145931
669.847	0.0146458
669.925	0.0145116
670.003	0.0145190
670.081	0.0145509
670.160	0.0144518
670.238	0.0144825
670.316	0.0145078
670.394	0.0147680
670.472	0.0145863
670.550	0.0146431
670.628	0.0146289
670.706	0.0145697
670.785	0.0146957
670.863	0.0146714
670.941	0.0145984
671.019	0.0146537
671.097	0.0145738
671.175	0.0145567
671.253	0.0144916
671.331	0.0144773
671.410	0.0145435
671.488	0.0145636
671.566	0.0146973
671.644	0.0145942
671.722	0.0146511
671.800	0.0146539
671.878	0.0145691
671.956	0.0146438
672.035	0.0145956
672.113	0.0145616
672.191	0.0145578
672.269	0.0146875
672.347	0.0145592
672.425	0.0144789
672.503	0.0146603
672.581	0.0146539
672.660	0.0145833
672.738	0.0145961
672.816	0.0146683
672.894	0.0145277
672.972	0.0146382
673.050	0.0148022
673.128	0.0145837
673.206	0.0146702
673.285	0.0146613
673.363	0.0146555
673.441	0.0148463
673.519	0.0146976
673.597	0.0146654
673.675	0.0146783
673.753	0.0146231
673.831	0.0143967
673.910	0.0146034
673.988	0.0146368
674.066	0.0146761
674.144	0.0145110
674.222	0.0146165
674.300	0.0146750
674.378	0.0146505
674.456	0.0146627
674.535	0.0145667
674.613	0.0145733
674.691	0.0146204
674.769	0.0145952
674.847	0.0145930
674.925	0.0145708
675.003	0.0146761
675.081	0.0146094
675.160	0.0145535
675.238	0.0146033
675.316	0.0146321
675.394	0.0146930
675.472	0.0146507
675.550	0.0145281
675.628	0.0146886
675.706	0.0146918
675.785	0.0146664
675.863	0.0145727
675.941	0.0145787
676.019	0.0146309
676.097	0.0146369
676.175	0.0147088
676.253	0.0144492
676.331	0.0144940
676.410	0.0147562
676.488	0.0146825
676.566	0.0146285
676.644	0.0146957
676.722	0.0146041
676.800	0.0146110
676.878	0.0146087
676.956	0.0145477
677.035	0.0145096
677.113	0.0146795
677.191	0.0145434
677.269	0.0146980
677.347	0.0146300
677.425	0.0146136
677.503	0.0146096
677.581	0.0145073
677.660	0.0145690
677.738	0.0146177
677.816	0.0145715
677.894	0.0146503
677.972	0.0146319
678.050	0.0147072
678.128	0.0147609
678.206	0.0146257
678.285	0.0145963
678.363	0.0144986
678.441	0.0147445
678.519	0.0146945
678.597	0.0145112
678.675	0.0147185
678.753	0.0145678
678.831	0.0145901
678.910	0.0146395
678.988	0.0145407
679.066	0.0145022
679.144	0.0145415
679.222	0.0145616
679.300	0.0146954
679.378	0.0145356
679.456	0.0145663
679.535	0.0147215
679.613	0.0145964
679.691	0.0144349
679.769	0.0146023
679.847	0.0146758
679.925	0.0146387
680.003	0.0146965
680.081	0.0146194
680.160	0.0145528
680.238	0.0146078
680.316	0.0147446
680.394	0.0145427
680.472	0.0146855
680.550	0.0146214
680.628	0.0146049
680.706	0.0146808
680.785	0.0146384
680.863	0.0146633
680.941	0.0146406
681.019	0.0145710
681.097	0.0145728
681.175	0.0146259
681.253	0.0145673
681.331	0.0147509
681.410	0.0146008
681.488	0.0146612
681.566	0.0146651
681.644	0.0144685
681.722	0.0145718
681.800	0.0145479
681.878	0.0145941
681.956	0.0147244
682.035	0.0146623
682.113	0.0147375
682.191	0.0146477
682.269	0.0146627
682.347	0.0146274
682.425	0.0144199
682.503	0.0147240
682.581	0.0147106
682.660	0.0146706
682.738	0.0146523
682.816	0.0146435
682.894	0.0146580
682.972	0.0146364
683.050	0.0147185
683.128	0.0145614
683.206	0.0146680
683.285	0.0145715
683.363	0.0145921
683.441	0.0144356
683.519	0.0145916
683.597	0.0146539
683.675	0.0146296
683.753	0.0146557
683.831	0.0145392
683.910	0.0147301
683.988	0.0146648
684.066	0.0145714
684.144	0.0145232
684.222	0.0146609
684.300	0.0146328
684.378	0.0144842
684.456	0.0146358
684.535	0.0146139
684.613	0.0146996
684.691	0.0145700
684.769	0.0146745
684.847	0.0147077
684.925	0.0146185
685.003	0.0146643
685.081	0.0146002
685.160	0.0146232
685.238	0.0147455
685.316	0.0147550
685.394	0.0145961
685.472	0.0146050
685.550	0.0146500
685.628	0.0146659
685.706	0.0145056
685.785	0.0147092
685.863	0.0146561
685.941	0.0145627
686.019	0.0146248
686.097	0.0146721
686.175	0.0146449
686.253	0.0147179
686.331	0.0146619
686.410	0.0146203
686.488	0.0147768
686.566	0.0147767
686.644	0.0146259
686.722	0.0146344
686.800	0.0146248
686.878	0.0146670
686.956	0.0147314
687.035	0.0147279
687.113	0.0147145
687.191	0.0147033
687.269	0.0147291
687.347	0.0147926
687.425	0.0145809
687.503	0.0145471
687.581	0.0145525
687.660	0.0145969
687.738	0.0146647
687.816	0.0146529
687.894	0.0148003
687.972	0.0147755
688.050	0.0146154
688.128	0.0147348
688.206	0.0147144
688.285	0.0146307
688.363	0.0146638
688.441	0.0146608
688.519	0.0146810
688.597	0.0146458
688.675	0.0146758
688.753	0.0146527
688.831	0.0145530
688.910	0.0146115
688.988	0.0146071
689.066	0.0146366
689.144	0.0146301
689.222	0.0146275
689.300	0.0145604
689.378	0.0145578
689.456	0.0145555
689.535	0.0146158
689.613	0.0146501
689.691	0.0147161
689.769	0.0145451
689.847	0.0145101
689.925	0.0146458
690.003	0.0145625
690.081	0.0147049
690.160	0.0146271
690.238	0.0146700
690.316	0.0147119
690.394	0.0147028
690.472	0.0146093
690.550	0.0146609
690.628	0.0146181
690.706	0.0144682
690.785	0.0146556
690.863	0.0146452
690.941	0.0146799
691.019	0.0146131
691.097	0.0145247
691.175	0.0147061
691.253	0.0146100
691.331	0.0145792
691.410	0.0144546
691.488	0.0145931
691.566	0.0145930
691.644	0.0145225
691.722	0.0145178
691.800	0.0147202
691.878	0.0146233
691.956	0.0146738
692.035	0.0146390
692.113	0.0146749
692.191	0.0144968
692.269	0.0145984
692.347	0.0146165
692.425	0.0146099
692.503	0.0147014
692.581	0.0146906
692.660	0.0145848
692.738	0.0146661
692.816	0.0145039
692.894	0.0145374
692.972	0.0146472
693.050	0.0146564
693.128	0.0145647
693.206	0.0145468
693.285	0.0146883
693.363	0.0145296
693.441	0.0146865
693.519	0.0145627
693.597	0.0147013
693.675	0.0145431
693.753	0.0146761
693.831	0.0146705
693.910	0.0145984
693.988	0.0144808
694.066	0.0145534
694.144	0.0146153
694.222	0.0146897
694.300	0.0146026
694.378	0.0145918
694.456	0.0146839
694.535	0.0147556
694.613	0.0145033
694.691	0.0145006
694.769	0.0146268
694.847	0.0146540
694.925	0.0145029
695.003	0.0145137
695.081	0.0145168
695.160	0.0144768
695.238	0.0145920
695.316	0.0146569
695.394	0.0146205
695.472	0.0145295
695.550	0.0145627
695.628	0.0146964
695.706	0.0146326
695.785	0.0145276
695.863	0.0146734
695.941	0.0145052
696.019	0.0145948
696.097	0.0145850
696.175	0.0145255
696.253	0.0145058
696.331	0.0146938
696.410	0.0147318
696.488	0.0146407
696.566	0.0146452
696.644	0.0146977
696.722	0.0145638
696.800	0.0146030
696.878	0.0146468
696.956	0.0146102
697.035	0.0145696
697.113	0.0145601
697.191	0.0145708
697.269	0.0146284
697.347	0.0145387
697.425	0.0146638
697.503	0.0146194
697.581	0.0145466
697.660	0.0146576
697.738	0.0146238
697.816	0.0145821
697.894	0.0146352
697.972	0.0145593
698.050	0.0145357
698.128	0.0146776
698.206	0.0145721
698.285	0.0147203
698.363	0.0147730
698.441	0.0146684
698.519	0.0145138
698.597	0.0146325
698.675	0.0147272
698.753	0.0147370
698.831	0.0146778
698.910	0.0147068
698.988	0.0145883
699.066	0.0145551
699.144	0.0146156
699.222	0.0145251
699.300	0.0146357
699.378	0.0145692
699.456	0.0145596
699.535	0.0145416
699.613	0.0145100
699.691	0.0147322
699.769	0.0147937
699.847	0.0144773
699.925	0.0145631
700.003	0.0144456
700.081	0.0145728
700.160	0.0146662
700.238	0.0146561
700.316	0.0145664
700.394	0.0145692
700.472	0.0145963
700.550	0.0144662
700.628	0.0145125
700.706	0.0145525
700.785	0.0145709
700.863	0.0146423
700.941	0.0145553
701.019	0.0146351
701.097	0.0145101
701.175	0.0145863
701.253	0.0144762
701.331	0.0144910
701.410	0.0144896
701.488	0.0146411
701.566	0.0145976
701.644	0.0146081
701.722	0.0146049
701.800	0.0146960
701.878	0.0146801
701.956	0.0147482
702.035	0.0146040
702.113	0.0145456
702.191	0.0146487
702.269	0.0145885
702.347	0.0145681
702.425	0.0146423
702.503	0.0146449
702.581	0.0145712
702.660	0.0146545
702.738	0.0145702
702.816	0.0144585
702.894	0.0146603
702.972	0.0146159
703.050	0.0146058
703.128	0.0146477
703.206	0.0145341
703.285	0.0146022
703.363	0.0145784
703.441	0.0145056
703.519	0.0144465
703.597	0.0144659
703.675	0.0144637
703.753	0.0145560
703.831	0.0145037
703.910	0.0146395
703.988	0.0146224
704.066	0.0145090
704.144	0.0144563
704.222	0.0146579
704.300	0.0147692
704.378	0.0145728
704.456	0.0146948
704.535	0.0147855
704.613	0.0147065
704.691	0.0148450
704.769	0.0148846
704.847	0.0150094
704.925	0.0148627
705.003	0.0148542
705.081	0.0149497
705.160	0.0149932
705.238	0.0149018
705.316	0.0149203
705.394	0.0150681
705.472	0.0151079
705.550	0.0149817
705.628	0.0150148
705.706	0.0149931
705.785	0.0150920
705.863	0.0151524
705.941	0.0150873
706.019	0.0152149
706.097	0.0149391
706.175	0.0149249
706.253	0.0149424
706.331	0.0151613
706.410	0.0150596
706.488	0.0148442
706.566	0.0148154
706.644	0.0147996
706.722	0.0146514
706.800	0.0145377
706.878	0.0144857
706.956	0.0144643
707.035	0.0144420
707.113	0.0142567
707.191	0.0141848
707.269	0.0140143
707.347	0.0139001
707.425	0.0137180
707.503	0.0136385
707.581	0.0134364
707.660	0.0132169
707.738	0.0129929
707.816	0.0126653
707.894	0.0120849
707.972	0.0112972
708.050	0.0104339
708.128	0.00948189
708.206	0.00865440
708.285	0.00849754
708.363	0.00867020
708.441	0.00990349
708.519	0.0118987
708.597	0.0146331
708.675	0.0175420
708.753	0.0198036
708.831	0.0213025
708.910	0.0219413
708.988	0.0212326
709.066	0.0194920
709.144	0.0170995
709.222	0.0145164
709.300	0.0121917
709.378	0.0104823
709.456	0.00973434
709.535	0.00985359
709.613	0.0113951
709.691	0.0133168
709.769	0.0161223
709.847	0.0191522
709.925	0.0216951
710.003	0.0238698
710.081	0.0253627
710.160	0.0256796
710.238	0.0250809
710.316	0.0234402
710.394	0.0211784
710.472	0.0186767
710.550	0.0164507
710.628	0.0142216
710.706	0.0125076
710.785	0.0111842
710.863	0.0102764
710.941	0.00955116
711.019	0.00945831
711.097	0.00941879
711.175	0.00935097
711.253	0.00949310
711.331	0.00950562
711.410	0.00934578
711.488	0.00940590
711.566	0.00935951
711.644	0.00940659
711.722	0.00977959
711.800	0.0103632
711.878	0.0111433
711.956	0.0120567
712.035	0.0129429
712.113	0.0143273
712.191	0.0153745
712.269	0.0163714
712.347	0.0173228
712.425	0.0179317
712.503	0.0186037
712.581	0.0188813
712.660	0.0189674
712.738	0.0186934
712.816	0.0182516
712.894	0.0175413
712.972	0.0170759
713.050	0.0162226
713.128	0.0152110
713.206	0.0144537
713.285	0.0139868
713.363	0.0133813
713.441	0.0131747
713.519	0.0133536
713.597	0.0137119
713.675	0.0139857
713.753	0.0145346
713.831	0.0150812
713.910	0.0157294
713.988	0.0159180
714.066	0.0163442
714.144	0.0164451
714.222	0.0167348
714.300	0.0168790
714.378	0.0165475
714.456	0.0166101
714.535	0.0167158
714.613	0.0165128
714.691	0.0162444
714.769	0.0159435
714.847	0.0155036
714.925	0.0150095
715.003	0.0145431
715.081	0.0140745
715.160	0.0135509
715.238	0.0130853
715.316	0.0126524
715.394	0.0120811
715.472	0.0117773
715.550	0.0114612
715.628	0.0113895
715.706	0.0111777
715.785	0.0109140
715.863	0.0111295
715.941	0.0111468
716.019	0.0114335
716.097	0.0118384
716.175	0.0123183
716.253	0.0128764
716.331	0.0134955
716.410	0.0141776
716.488	0.0149239
716.566	0.0157402
716.644	0.0163541
716.722	0.0169702
716.800	0.0177267
716.878	0.0182841
716.956	0.0187696
717.035	0.0193804
717.113	0.0196405
717.191	0.0198332
717.269	0.0198731
717.347	0.0201280
717.425	0.0198814
717.503	0.0195079
717.581	0.0191557
717.660	0.0183590
717.738	0.0173172
717.816	0.0164468
717.894	0.0152517
717.972	0.0141364
718.050	0.0129649
718.128	0.0119711
718.206	0.0111777
718.285	0.0106019
718.363	0.0100222
718.441	0.00979797
718.519	0.00950439
718.597	0.00942863
718.675	0.00931000
718.753	0.00933800
718.831	0.00930717
718.910	0.00955536
718.988	0.0100096
719.066	0.0102999
719.144	0.0109693
719.222	0.0117331
719.300	0.0125931
719.378	0.0132616
719.456	0.0140025
719.535	0.0144557
719.613	0.0150309
719.691	0.0155432
719.769	0.0159775
719.847	0.0160887
719.925	0.0165263
720.003	0.0168842
720.081	0.0171904
720.160	0.0172818
720.238	0.0176252
720.316	0.0178599
720.394	0.0179205
720.472	0.0176194
720.550	0.0174537
720.628	0.0171483
720.706	0.0166588
720.785	0.0160287
720.863	0.0153764
720.941	0.0149207
721.019	0.0147609
721.097	0.0144289
721.175	0.0143132
721.253	0.0143221
721.331	0.0142725
721.410	0.0142581
721.488	0.0142428
721.566	0.0143073
721.644	0.0144862
721.722	0.0144897
721.800	0.0145886
721.878	0.0147349
721.956	0.0148751
722.035	0.0151142
722.113	0.0149968
722.191	0.0150114
722.269	0.0149358
722.347	0.0146925
722.425	0.0144965
722.503	0.0144816
722.581	0.0141976
722.660	0.0139558
722.738	0.0139544
722.816	0.0141586
722.894	0.0140786
722.972	0.0141662
723.050	0.0141698
723.128	0.0139682
723.206	0.0141070
723.285	0.0140688
723.363	0.0138860
723.441	0.0138383
723.519	0.0136494
723.597	0.0137446
723.675	0.0138712
723.753	0.0138781
723.831	0.0141664
723.910	0.0140566
723.988	0.0141144
724.066	0.0140831
724.144	0.0138963
724.222	0.0137305
724.300	0.0133917
724.378	0.0131936
724.456	0.0129091
724.535	0.0130956
724.613	0.0130392
724.691	0.0134177
724.769	0.0136307
724.847	0.0137824
724.925	0.0138478
725.003	0.0141983
725.081	0.0142567
725.160	0.0146777
725.238	0.0150831
725.316	0.0155683
725.394	0.0157468
725.472	0.0160711
725.550	0.0163992
725.628	0.0161645
725.706	0.0162196
725.785	0.0161159
725.863	0.0159113
725.941	0.0156142
726.019	0.0154308
726.097	0.0153052
726.175	0.0152583
726.253	0.0154102
726.331	0.0157360
726.410	0.0161961
726.488	0.0164087
726.566	0.0168415
726.644	0.0169768
726.722	0.0172777
726.800	0.0172441
726.878	0.0171194
726.956	0.0170139
727.035	0.0168293
727.113	0.0168444
727.191	0.0165596
727.269	0.0165224
727.347	0.0164111
727.425	0.0159879
727.503	0.0157803
727.581	0.0155826
727.660	0.0151389
727.738	0.0146222
727.816	0.0141645
727.894	0.0137246
727.972	0.0132484
728.050	0.0130481
728.128	0.0127295
728.206	0.0124429
728.285	0.0122456
728.363	0.0121231
728.441	0.0120554
728.519	0.0120780
728.597	0.0120648
728.675	0.0120764
728.753	0.0121400
728.831	0.0123023
728.910	0.0126134
728.988	0.0128066
729.066	0.0128073
729.144	0.0129882
729.222	0.0130120
729.300	0.0129996
729.378	0.0130546
729.456	0.0131075
729.535	0.0132475
729.613	0.0131991
729.691	0.0131322
729.769	0.0131248
729.847	0.0131153
729.925	0.0133093
730.003	0.0133511
730.081	0.0135392
730.160	0.0137859
730.238	0.0139511
730.316	0.0145037
730.394	0.0149332
730.472	0.0152188
730.550	0.0155969
730.628	0.0160096
730.706	0.0164404
730.785	0.0168909
730.863	0.0169646
730.941	0.0171304
731.019	0.0173033
731.097	0.0174000
731.175	0.0173077
731.253	0.0171426
731.331	0.0168722
731.410	0.0166825
731.488	0.0163889
731.566	0.0161062
731.644	0.0159319
731.722	0.0156314
731.800	0.0154701
731.878	0.0153215
731.956	0.0150194
732.035	0.0148225
732.113	0.0148135
732.191	0.0146452
732.269	0.0145592
732.347	0.0144726
732.425	0.0145208
732.503	0.0145621
732.581	0.0147086
732.660	0.0146925
732.738	0.0147173
732.816	0.0148180
732.894	0.0149213
732.972	0.0149007
733.050	0.0149885
733.128	0.0149209
733.206	0.0148441
733.285	0.0148067
733.363	0.0146735
733.441	0.0145385
733.519	0.0142646
733.597	0.0139270
733.675	0.0134798
733.753	0.0131107
733.831	0.0128701
733.910	0.0127229
733.988	0.0125907
734.066	0.0125848
734.144	0.0126926
734.222	0.0129804
734.300	0.0131871
734.378	0.0134014
734.456	0.0138564
734.535	0.0141933
734.613	0.0144694
734.691	0.0147256
734.769	0.0149801
734.847	0.0149844
734.925	0.0147054
735.003	0.0146696
735.081	0.0144839
735.160	0.0141870
735.238	0.0139445
735.316	0.0135458
735.394	0.0133788
735.472	0.0132124
735.550	0.0130284
735.628	0.0130402
735.706	0.0131282
735.785	0.0132764
735.863	0.0135606
735.941	0.0136612
736.019	0.0137599
736.097	0.0140143
736.175	0.0143193
736.253	0.0145215
736.331	0.0147456
736.410	0.0149472
736.488	0.0151601
736.566	0.0156159
736.644	0.0158179
736.722	0.0159523
736.800	0.0159271
736.878	0.0159772
736.956	0.0160476
737.035	0.0159216
737.113	0.0157263
737.191	0.0157188
737.269	0.0155689
737.347	0.0153993
737.425	0.0154066
737.503	0.0155013
737.581	0.0156025
737.660	0.0155691
737.738	0.0157585
737.816	0.0156528
737.894	0.0157402
737.972	0.0157304
738.050	0.0160390
738.128	0.0161411
738.206	0.0161886
738.285	0.0162317
738.363	0.0162313
738.441	0.0162179
738.519	0.0162135
738.597	0.0159190
738.675	0.0159058
738.753	0.0154906
738.831	0.0153268
738.910	0.0151534
738.988	0.0147039
739.066	0.0146250
739.144	0.0142298
739.222	0.0142533
739.300	0.0141467
739.378	0.0139389
739.456	0.0139134
739.535	0.0140923
739.613	0.0139471
739.691	0.0139419
739.769	0.0139922
739.847	0.0138459
739.925	0.0137084
740.003	0.0135772
740.081	0.0136192
740.160	0.0135207
740.238	0.0133093
740.316	0.0133405
740.394	0.0134608
740.472	0.0134487
740.550	0.0135033
740.628	0.0135004
740.706	0.0134256
740.785	0.0135470
740.863	0.0137101
740.941	0.0139271
741.019	0.0139515
741.097	0.0141512
741.175	0.0142248
741.253	0.0142966
741.331	0.0141399
741.410	0.0140708
741.488	0.0140335
741.566	0.0138810
741.644	0.0138494
741.722	0.0137036
741.800	0.0135165
741.878	0.0134289
741.956	0.0135639
742.035	0.0135875
742.113	0.0137682
742.191	0.0138032
742.269	0.0142100
742.347	0.0144359
742.425	0.0146991
742.503	0.0149963
742.581	0.0152309
742.660	0.0155193
742.738	0.0155213
742.816	0.0156153
742.894	0.0157774
742.972	0.0158185
743.050	0.0158598
743.128	0.0159116
743.206	0.0157419
743.285	0.0156688
743.363	0.0155432
743.441	0.0154977
743.519	0.0153876
743.597	0.0152413
743.675	0.0151752
743.753	0.0152250
743.831	0.0154142
743.910	0.0152289
743.988	0.0154792
744.066	0.0154584
744.144	0.0154989
744.222	0.0155344
744.300	0.0153220
744.378	0.0153275
744.456	0.0153894
744.535	0.0151446
744.613	0.0150470
744.691	0.0149004
744.769	0.0147114
744.847	0.0145467
744.925	0.0144679
745.003	0.0144026
745.081	0.0145385
745.160	0.0142248
745.238	0.0143145
745.316	0.0143999
745.394	0.0144950
745.472	0.0144041
745.550	0.0143629
745.628	0.0146334
745.706	0.0145790
745.785	0.0146046
745.863	0.0144617
745.941	0.0143861
746.019	0.0142172
746.097	0.0139022
746.175	0.0139238
746.253	0.0137209
746.331	0.0134107
746.410	0.0133971
746.488	0.0133971
746.566	0.0132669
746.644	0.0132338
746.722	0.0133041
746.800	0.0133537
746.878	0.0134397
746.956	0.0134747
747.035	0.0136093
747.113	0.0136436
747.191	0.0138620
747.269	0.0140162
747.347	0.0140395
747.425	0.0142420
747.503	0.0143227
747.581	0.0145746
747.660	0.0145293
747.738	0.0145613
747.816	0.0146783
747.894	0.0146856
747.972	0.0147002
748.050	0.0147199
748.128	0.0145757
748.206	0.0144767
748.285	0.0145016
748.363	0.0144941
748.441	0.0143754
748.519	0.0144145
748.597	0.0145763
748.675	0.0146667
748.753	0.0146013
748.831	0.0148869
748.910	0.0149180
748.988	0.0151495
749.066	0.0153310
749.144	0.0152855
749.222	0.0153922
749.300	0.0154700
749.378	0.0154937
749.456	0.0156466
749.535	0.0156512
749.613	0.0153560
749.691	0.0155284
749.769	0.0152318
749.847	0.0151747
749.925	0.0151944
750.003	0.0152426
750.081	0.0150296
750.160	0.0150199
750.238	0.0150036
750.316	0.0153285
750.394	0.0152395
750.472	0.0155022
750.550	0.0155402
750.628	0.0156518
750.706	0.0157307
750.785	0.0157658
750.863	0.0157775
750.941	0.0155357
751.019	0.0153776
751.097	0.0154430
751.175	0.0153356
751.253	0.0152735
751.331	0.0153179
751.410	0.0152219
751.488	0.0150944
751.566	0.0150061
751.644	0.0148505
751.722	0.0148710
751.800	0.0148646
751.878	0.0147778
751.956	0.0146371
752.035	0.0144473
752.113	0.0143038
752.191	0.0142571
752.269	0.0142373
752.347	0.0140835
752.425	0.0137786
752.503	0.0136594
752.581	0.0134394
752.660	0.0134824
752.738	0.0136314
752.816	0.0135548
752.894	0.0135703
752.972	0.0137899
753.050	0.0139081
753.128	0.0139146
753.206	0.0139026
753.285	0.0139764
753.363	0.0139217
753.441	0.0139141
753.519	0.0138856
753.597	0.0139886
753.675	0.0139240
753.753	0.0138297
753.831	0.0138342
753.910	0.0140667
753.988	0.0140641
754.066	0.0141575
754.144	0.0141547
754.222	0.0142345
754.300	0.0141174
754.378	0.0142098
754.456	0.0143704
754.535	0.0142440
754.613	0.0144378
754.691	0.0144540
754.769	0.0144807
754.847	0.0146053
754.925	0.0145067
755.003	0.0145992
755.081	0.0146767
755.160	0.0145844
755.238	0.0145422
755.316	0.0144777
755.394	0.0145136
755.472	0.0146828
755.550	0.0146819
755.628	0.0148534
755.706	0.0150301
755.785	0.0152621
755.863	0.0153250
755.941	0.0154977
756.019	0.0155054
756.097	0.0154908
756.175	0.0155977
756.253	0.0156813
756.331	0.0155316
756.410	0.0155052
756.488	0.0155171
756.566	0.0155762
756.644	0.0153441
756.722	0.0153113
756.800	0.0152271
756.878	0.0151509
756.956	0.0151449
757.035	0.0150935
757.113	0.0149972
757.191	0.0148701
757.269	0.0148777
757.347	0.0150279
757.425	0.0149888
757.503	0.0147952
757.581	0.0148697
757.660	0.0149705
757.738	0.0149644
757.816	0.0149632
757.894	0.0148936
757.972	0.0147526
758.050	0.0149933
758.128	0.0148930
758.206	0.0147092
758.285	0.0145682
758.363	0.0146430
758.441	0.0144868
758.519	0.0143750
758.597	0.0142377
758.675	0.0140733
758.753	0.0140912
758.831	0.0138908
758.910	0.0138123
758.988	0.0136469
759.066	0.0135934
759.144	0.0135529
759.222	0.0134691
759.300	0.0137646
759.378	0.0136368
759.456	0.0137440
759.535	0.0139137
759.613	0.0140478
759.691	0.0140911
759.769	0.0142674
759.847	0.0144012
759.925	0.0143607
760.003	0.0144944
760.081	0.0145069
760.160	0.0145878
760.238	0.0144903
760.316	0.0144125
760.394	0.0144497
760.472	0.0144700
760.550	0.0142758
760.628	0.0143410
760.706	0.0143327
760.785	0.0142688
760.863	0.0142886
760.941	0.0143560
761.019	0.0143286
761.097	0.0143364
761.175	0.0144672
761.253	0.0145478
761.331	0.0145271
761.410	0.0145733
761.488	0.0144981
761.566	0.0146172
761.644	0.0144382
761.722	0.0143990
761.800	0.0145339
761.878	0.0145905
761.956	0.0145267
762.035	0.0146236
762.113	0.0147879
762.191	0.0148678
762.269	0.0149631
762.347	0.0151204
762.425	0.0151478
762.503	0.0151193
762.581	0.0151863
762.660	0.0153014
762.738	0.0153224
762.816	0.0154389
762.894	0.0154566
762.972	0.0154412
763.050	0.0154858
763.128	0.0153545
763.206	0.0153433
763.285	0.0154014
763.363	0.0152495
763.441	0.0151286
763.519	0.0149505
763.597	0.0148422
763.675	0.0147532
763.753	0.0147429
763.831	0.0147558
763.910	0.0145633
763.988	0.0145323
764.066	0.0146289
764.144	0.0145609
764.222	0.0145876
764.300	0.0146310
764.378	0.0146428
764.456	0.0147487
764.535	0.0148216
764.613	0.0147571
764.691	0.0148649
764.769	0.0151163
764.847	0.0149706
764.925	0.0148626
765.003	0.0149440
765.081	0.0148492
765.160	0.0149230
765.238	0.0147670
765.316	0.0146790
765.394	0.0146601
765.472	0.0145146
765.550	0.0145817
765.628	0.0148119
765.706	0.0146570
765.785	0.0144032
765.863	0.0145551
765.941	0.0145121
766.019	0.0145248
766.097	0.0143195
766.175	0.0144144
766.253	0.0142809
766.331	0.0141849
766.410	0.0140272
766.488	0.0141072
766.566	0.0140740
766.644	0.0139460
766.722	0.0139890
766.800	0.0139754
766.878	0.0140443
766.956	0.0140302
767.035	0.0140578
767.113	0.0138490
767.191	0.0139522
767.269	0.0139823
767.347	0.0140632
767.425	0.0141781
767.503	0.0141757
767.581	0.0141013
767.660	0.0143303
767.738	0.0141985
767.816	0.0143035
767.894	0.0144010
767.972	0.0143093
768.050	0.0144566
768.128	0.0142546
768.206	0.0143860
768.285	0.0146233
768.363	0.0146035
768.441	0.0145307
768.519	0.0145084
768.597	0.0145753
768.675	0.0147144
768.753	0.0147774
768.831	0.0147100
768.910	0.0149734
768.988	0.0149445
769.066	0.0147313
769.144	0.0149632
769.222	0.0151328
769.300	0.0151284
769.378	0.0149837
769.456	0.0151158
769.535	0.0151339
769.613	0.0150324
769.691	0.0149720
769.769	0.0150343
769.847	0.0149265
769.925	0.0148649
770.003	0.0149184
770.081	0.0149971
770.160	0.0150503
770.238	0.0150463
770.316	0.0152238
770.394	0.0151097
770.472	0.0151254
770.550	0.0152649
770.628	0.0151801
770.706	0.0152025
770.785	0.0150383
770.863	0.0150798
770.941	0.0151682
771.019	0.0150915
771.097	0.0151804
771.175	0.0151396
771.253	0.0150616
771.331	0.0151146
771.410	0.0150050
771.488	0.0150005
771.566	0.0150761
771.644	0.0149715
771.722	0.0149072
771.800	0.0146946
771.878	0.0148746
771.956	0.0147698
772.035	0.0147063
772.113	0.0146131
772.191	0.0145783
772.269	0.0145124
772.347	0.0145448
772.425	0.0143826
772.503	0.0140245
772.581	0.0142867
772.660	0.0143376
772.738	0.0141766
772.816	0.0141537
772.894	0.0141488
772.972	0.0140617
773.050	0.0142184
773.128	0.0143018
773.206	0.0142530
773.285	0.0140462
773.363	0.0141592
773.441	0.0141011
773.519	0.0141410
773.597	0.0140353
773.675	0.0140428
773.753	0.0141531
773.831	0.0142385
773.910	0.0143520
773.988	0.0143398
774.066	0.0142598
774.144	0.0143532
774.222	0.0144262
774.300	0.0143422
774.378	0.0144804
774.456	0.0143919
774.535	0.0144261
774.613	0.0143865
774.691	0.0142855
774.769	0.0141939
774.847	0.0143181
774.925	0.0142091
775.003	0.0141821
775.081	0.0142274
775.160	0.0143427
775.238	0.0143767
775.316	0.0143148
775.394	0.0144393
775.472	0.0147076
775.550	0.0146427
775.628	0.0149084
775.706	0.0147999
775.785	0.0149342
775.863	0.0151106
775.941	0.0152652
776.019	0.0151921
776.097	0.0152271
776.175	0.0153296
776.253	0.0153478
776.331	0.0154045
776.410	0.0152901
776.488	0.0153280
776.566	0.0151546
776.644	0.0152122
776.722	0.0151672
776.800	0.0152395
776.878	0.0152892
776.956	0.0151661
777.035	0.0151650
777.113	0.0152065
777.191	0.0151665
777.269	0.0150768
777.347	0.0150886
777.425	0.0150588
777.503	0.0150759
777.581	0.0148399
777.660	0.0149297
777.738	0.0148173
777.816	0.0149805
777.894	0.0147508
777.972	0.0147571
778.050	0.0147194
778.128	0.0148560
778.206	0.0149638
778.285	0.0148692
778.363	0.0150456
778.441	0.0149222
778.519	0.0148364
778.597	0.0150009
778.675	0.0150852
778.753	0.0149281
778.831	0.0148543
778.910	0.0149215
778.988	0.0148511
779.066	0.0146279
779.144	0.0146368
779.222	0.0145493
779.300	0.0145287
779.378	0.0144874
779.456	0.0144256
779.535	0.0143590
779.613	0.0144919
779.691	0.0145004
779.769	0.0143129
779.847	0.0145607
779.925	0.0144042
780.003	0.0143945
780.081	0.0145230
780.160	0.0144437
780.238	0.0144016
780.316	0.0144466
780.394	0.0144167
780.472	0.0144424
780.550	0.0144191
780.628	0.0145766
780.706	0.0145303
780.785	0.0142936
780.863	0.0143034
780.941	0.0143590
781.019	0.0143160
781.097	0.0143617
781.175	0.0142410
781.253	0.0143129
781.331	0.0141525
781.410	0.0142047
781.488	0.0141240
781.566	0.0141928
781.644	0.0140726
781.722	0.0142435
781.800	0.0140862
781.878	0.0141775
781.956	0.0142784
782.035	0.0141600
782.113	0.0141617
782.191	0.0143205
782.269	0.0143931
782.347	0.0144836
782.425	0.0145794
782.503	0.0145396
782.581	0.0148347
782.660	0.0147204
782.738	0.0147644
782.816	0.0149045
782.894	0.0149408
782.972	0.0149512
783.050	0.0149520
783.128	0.0148832
783.206	0.0149263
783.285	0.0149570
783.363	0.0151247
783.441	0.0150377
783.519	0.0148826
783.597	0.0148999
783.675	0.0150066
783.753	0.0149887
783.831	0.0149081
783.910	0.0148801
783.988	0.0148808
784.066	0.0147476
784.144	0.0147188
784.222	0.0147912
784.300	0.0147581
784.378	0.0147759
784.456	0.0147720
784.535	0.0146699
784.613	0.0147688
784.691	0.0148361
784.769	0.0149554
784.847	0.0149649
784.925	0.0148915
785.003	0.0148349
785.081	0.0149416
785.160	0.0149458
785.238	0.0149113
785.316	0.0148845
785.394	0.0150251
785.472	0.0149081
785.550	0.0149813
785.628	0.0148997
785.706	0.0149103
785.785	0.0148151
785.863	0.0148298
785.941	0.0146855
786.019	0.0146741
786.097	0.0146369
786.175	0.0146121
786.253	0.0145919
786.331	0.0145536
786.410	0.0145299
786.488	0.0144495
786.566	0.0144052
786.644	0.0142532
786.722	0.0142784
786.800	0.0142637
786.878	0.0143127
786.956	0.0141238
787.035	0.0141132
787.113	0.0140855
787.191	0.0140987
787.269	0.0140450
787.347	0.0143448
787.425	0.0140547
787.503	0.0140490
787.581	0.0141640
787.660	0.0141575
787.738	0.0141256
787.816	0.0143442
787.894	0.0143302
787.972	0.0143069
788.050	0.0144157
788.128	0.0145638
788.206	0.0143712
788.285	0.0143463
788.363	0.0143346
788.441	0.0143375
788.519	0.0144176
788.597	0.0143738
788.675	0.0144431
788.753	0.0143093
788.831	0.0145876
788.910	0.0144710
788.988	0.0145470
789.066	0.0145758
789.144	0.0145991
789.222	0.0146680
789.300	0.0146532
789.378	0.0147100
789.456	0.0146759
789.535	0.0144893
789.613	0.0145606
789.691	0.0145236
789.769	0.0144759
789.847	0.0145002
789.925	0.0145166
790.003	0.0145378
790.081	0.0145756
790.160	0.0145361
790.238	0.0146750
790.316	0.0145779
790.394	0.0146454
790.472	0.0148798
790.550	0.0147810
790.628	0.0148067
790.706	0.0147755
790.785	0.0147303
790.863	0.0147504
790.941	0.0149162
791.019	0.0148766
791.097	0.0149220
791.175	0.0148193
791.253	0.0148482
791.331	0.0149705
791.410	0.0149471
791.488	0.0150711
791.566	0.0151816
791.644	0.0151576
791.722	0.0150780
791.800	0.0151247
791.878	0.0151590
791.956	0.0149033
792.035	0.0149389
792.113	0.0151146
792.191	0.0149592
792.269	0.0149496
792.347	0.0148660
792.425	0.0146499
792.503	0.0147885
792.581	0.0148605
792.660	0.0148753
792.738	0.0147328
792.816	0.0147544
792.894	0.0147234
792.972	0.0146529
793.050	0.0145959
793.128	0.0146938
793.206	0.0147601
793.285	0.0146518
793.363	0.0145191
793.441	0.0146708
793.519	0.0146419
793.597	0.0144588
793.675	0.0144368
793.753	0.0144953
793.831	0.0143045
793.910	0.0144286
793.988	0.0143433
794.066	0.0142866
794.144	0.0142891
794.222	0.0143040
794.300	0.0144759
794.378	0.0144089
794.456	0.0144680
794.535	0.0142910
794.613	0.0146361
794.691	0.0144234
794.769	0.0143600
794.847	0.0143748
794.925	0.0142945
795.003	0.0143575
795.081	0.0143341
795.160	0.0141550
795.238	0.0142191
795.316	0.0143316
795.394	0.0142582
795.472	0.0143914
795.550	0.0143560
795.628	0.0143477
795.706	0.0143117
795.785	0.0144639
795.863	0.0145020
795.941	0.0145179
796.019	0.0144489
796.097	0.0143365
796.175	0.0143951
796.253	0.0144796
796.331	0.0143633
796.410	0.0144735
796.488	0.0144300
796.566	0.0144086
796.644	0.0144123
796.722	0.0144360
796.800	0.0144212
796.878	0.0145132
796.956	0.0145318
797.035	0.0145020
797.113	0.0147053
797.191	0.0145963
797.269	0.0147166
797.347	0.0147853
797.425	0.0148539
797.503	0.0148069
797.581	0.0148430
797.660	0.0147778
797.738	0.0148705
797.816	0.0148415
797.894	0.0148772
797.972	0.0147327
798.050	0.0148146
798.128	0.0147620
798.206	0.0147284
798.285	0.0147992
798.363	0.0146612
798.441	0.0147552
798.519	0.0148629
798.597	0.0147768
798.675	0.0147898
798.753	0.0148559
798.831	0.0148756
798.910	0.0147923
798.988	0.0147756
799.066	0.0147524
799.144	0.0149373
799.222	0.0149133
799.300	0.0147860
799.378	0.0148940
799.456	0.0149165
799.535	0.0150407
799.613	0.0150201
799.691	0.0150047
799.769	0.0149294
799.847	0.0149468
799.925	0.0148534
800.003	0.0148445
800.081	0.0148144
800.160	0.0148701
800.238	0.0147637
800.316	0.0145921
800.394	0.0146923
800.472	0.0147874
800.550	0.0146455
800.628	0.0146050
800.706	0.0147710
800.785	0.0146410
800.863	0.0145980
800.941	0.0145959
801.019	0.0147521
801.097	0.0146478
801.175	0.0147002
801.253	0.0147182
801.331	0.0147430
801.410	0.0145982
801.488	0.0144089
801.566	0.0145111
801.644	0.0144723
801.722	0.0143169
801.800	0.0143523
801.878	0.0143718
801.956	0.0143970
802.035	0.0142903
802.113	0.0143350
802.191	0.0143307
802.269	0.0143311
802.347	0.0141781
802.425	0.0142279
802.503	0.0143150
802.581	0.0141380
802.660	0.0141504
802.738	0.0141859
802.816	0.0142297
802.894	0.0142319
802.972	0.0142069
803.050	0.0143201
803.128	0.0140543
803.206	0.0143106
803.285	0.0142379
803.363	0.0142112
803.441	0.0143143
803.519	0.0141898
803.597	0.0142896
803.675	0.0143146
803.753	0.0142918
803.831	0.0140713
803.910	0.0141505
803.988	0.0140701
804.066	0.0139788
804.144	0.0140790
804.222	0.0140405
804.300	0.0139870
804.378	0.0141301
804.456	0.0143475
804.535	0.0144042
804.613	0.0146584
804.691	0.0146994
804.769	0.0147758
804.847	0.0150621
804.925	0.0150928
805.003	0.0149057
805.081	0.0149145
805.160	0.0149164
805.238	0.0147305
805.316	0.0146311
805.394	0.0145724
805.472	0.0144246
805.550	0.0144335
805.628	0.0145112
805.706	0.0146638
805.785	0.0148414
805.863	0.0151528
805.941	0.0152932
806.019	0.0156129
806.097	0.0158736
806.175	0.0159045
806.253	0.0161189
806.331	0.0164127
806.410	0.0163013
806.488	0.0163116
806.566	0.0163013
806.644	0.0160480
806.722	0.0156813
806.800	0.0154259
806.878	0.0150594
806.956	0.0148873
807.035	0.0145662
807.113	0.0141645
807.191	0.0139701
807.269	0.0138270
807.347	0.0136172
807.425	0.0133892
807.503	0.0134813
807.581	0.0134256
807.660	0.0134029
807.738	0.0135580
807.816	0.0136966
807.894	0.0138814
807.972	0.0140887
808.050	0.0140932
808.128	0.0143393
808.206	0.0145167
808.285	0.0145706
808.363	0.0146413
808.441	0.0147861
808.519	0.0147435
808.597	0.0147610
808.675	0.0149468
808.753	0.0147363
808.831	0.0146829
808.910	0.0148605
808.988	0.0146772
809.066	0.0146528
809.144	0.0146947
809.222	0.0146817
809.300	0.0146633
809.378	0.0145791
809.456	0.0144884
809.535	0.0146044
809.613	0.0146686
809.691	0.0145763
809.769	0.0146180
809.847	0.0146326
809.925	0.0143704
810.003	0.0144727
810.081	0.0143814
810.160	0.0142713
810.238	0.0144662
810.316	0.0142181
810.394	0.0142528
810.472	0.0142615
810.550	0.0142532
810.628	0.0142019
810.706	0.0140681
810.785	0.0141334
810.863	0.0142954
810.941	0.0142491
811.019	0.0142841
811.097	0.0145436
811.175	0.0145800
811.253	0.0146044
811.331	0.0147677
811.410	0.0149251
811.488	0.0150030
811.566	0.0151592
811.644	0.0152165
811.722	0.0151126
811.800	0.0151585
811.878	0.0152271
811.956	0.0149526
812.035	0.0148797
812.113	0.0150376
812.191	0.0150121
812.269	0.0148987
812.347	0.0148367
812.425	0.0149176
812.503	0.0150257
812.581	0.0150453
812.660	0.0150182
812.738	0.0150205
812.816	0.0150394
812.894	0.0151887
812.972	0.0153191
813.050	0.0152705
813.128	0.0151293
813.206	0.0153134
813.285	0.0151627
813.363	0.0152534
813.441	0.0150835
813.519	0.0149661
813.597	0.0149686
813.675	0.0148230
813.753	0.0147658
813.831	0.0145484
813.910	0.0143886
813.988	0.0141560
814.066	0.0140883
814.144	0.0140589
814.222	0.0139144
814.300	0.0139925
814.378	0.0140687
814.456	0.0138067
814.535	0.0138047
814.613	0.0139550
814.691	0.0140086
814.769	0.0139300
814.847	0.0140411
814.925	0.0140803
815.003	0.0143966
815.081	0.0143682
815.160	0.0144446
815.238	0.0144497
815.316	0.0146819
815.394	0.0147714
815.472	0.0147157
815.550	0.0147275
815.628	0.0148750
815.706	0.0149757
815.785	0.0148914
815.863	0.0148653
815.941	0.0147559
816.019	0.0147822
816.097	0.0147205
816.175	0.0146525
816.253	0.0147118
816.331	0.0145671
816.410	0.0144717
816.488	0.0144146
816.566	0.0143687
816.644	0.0144157
816.722	0.0144188
816.800	0.0143497
816.878	0.0143941
816.956	0.0142493
817.035	0.0144115
817.113	0.0144720
817.191	0.0144296
817.269	0.0144614
817.347	0.0144246
817.425	0.0144864
817.503	0.0146420
817.581	0.0146775
817.660	0.0146240
817.738	0.0146841
817.816	0.0146283
817.894	0.0145796
817.972	0.0146091
818.050	0.0147283
818.128	0.0147110
818.206	0.0147625
818.285	0.0146880
818.363	0.0146020
818.441	0.0145717
818.519	0.0145676
818.597	0.0146474
818.675	0.0145414
818.753	0.0145762
818.831	0.0147074
818.910	0.0145304
818.988	0.0145438
819.066	0.0145648
819.144	0.0147034
819.222	0.0146423
819.300	0.0146892
819.378	0.0146786
819.456	0.0146366
819.535	0.0146967
819.613	0.0146833
819.691	0.0147078
819.769	0.0145520
819.847	0.0145535
819.925	0.0145200
820.003	0.0144781
820.081	0.0145592
820.160	0.0145209
820.238	0.0143742
820.316	0.0145183
820.394	0.0144881
820.472	0.0145321
820.550	0.0147031
820.628	0.0145474
820.706	0.0146678
820.785	0.0146529
820.863	0.0148306
820.941	0.0148141
821.019	0.0148257
821.097	0.0147998
821.175	0.0149597
821.253	0.0150838
821.331	0.0149871
821.410	0.0151921
821.488	0.0151316
821.566	0.0152410
821.644	0.0152691
821.722	0.0152937
821.800	0.0153337
821.878	0.0150895
821.956	0.0151636
822.035	0.0151933
822.113	0.0150738
822.191	0.0149528
822.269	0.0148268
822.347	0.0147907
822.425	0.0147693
822.503	0.0145498
822.581	0.0146154
822.660	0.0144302
822.738	0.0142443
822.816	0.0142294
822.894	0.0142171
822.972	0.0141477
823.050	0.0139493
823.128	0.0141689
823.206	0.0141086
823.285	0.0141321
823.363	0.0140550
823.441	0.0142140
823.519	0.0144172
823.597	0.0142538
823.675	0.0144280
823.753	0.0144941
823.831	0.0145798
823.910	0.0145396
823.988	0.0145808
824.066	0.0146517
824.144	0.0146492
824.222	0.0146860
824.300	0.0146276
824.378	0.0146603
824.456	0.0144927
824.535	0.0144429
824.613	0.0144668
824.691	0.0145704
824.769	0.0144280
824.847	0.0143913
824.925	0.0143566
825.003	0.0144181
825.081	0.0143934
825.160	0.0143525
825.238	0.0142783
825.316	0.0142537
825.394	0.0143360
825.472	0.0142488
825.550	0.0142962
825.628	0.0143261
825.706	0.0143118
825.785	0.0143689
825.863	0.0143617
825.941	0.0145343
826.019	0.0144061
826.097	0.0143571
826.175	0.0144905
826.253	0.0145773
826.331	0.0144077
826.410	0.0145876
826.488	0.0146726
826.566	0.0146844
826.644	0.0146559
826.722	0.0147623
826.800	0.0147163
826.878	0.0146827
826.956	0.0149148
827.035	0.0148645
827.113	0.0149585
827.191	0.0149458
827.269	0.0149795
827.347	0.0151790
827.425	0.0150888
827.503	0.0150202
827.581	0.0153223
827.660	0.0152477
827.738	0.0152943
827.816	0.0155242
827.894	0.0153277
827.972	0.0154008
828.050	0.0154932
828.128	0.0155552
828.206	0.0156192
828.285	0.0153679
828.363	0.0154131
828.441	0.0153966
828.519	0.0152332
828.597	0.0150683
828.675	0.0150165
828.753	0.0148731
828.831	0.0147579
828.910	0.0147856
828.988	0.0147175
829.066	0.0146164
829.144	0.0146136
829.222	0.0145265
829.300	0.0146775
829.378	0.0144186
829.456	0.0143525
829.535	0.0141609
829.613	0.0140285
829.691	0.0141053
829.769	0.0138720
829.847	0.0138087
829.925	0.0137743
830.003	0.0137611
830.081	0.0138136
830.160	0.0140478
830.238	0.0139710
830.316	0.0139901
830.394	0.0139143
830.472	0.0139796
830.550	0.0141544
830.628	0.0140765
830.706	0.0141500
830.785	0.0142597
830.863	0.0141914
830.941	0.0143172
831.019	0.0144800
831.097	0.0145214
831.175	0.0145975
831.253	0.0145634
831.331	0.0145255
831.410	0.0145342
831.488	0.0146819
831.566	0.0146806
831.644	0.0146950
831.722	0.0146711
831.800	0.0146319
831.878	0.0145853
831.956	0.0147859
832.035	0.0148582
832.113	0.0149852
832.191	0.0148403
832.269	0.0149715
832.347	0.0151010
832.425	0.0150809
832.503	0.0150498
832.581	0.0151694
832.660	0.0150464
832.738	0.0148623
832.816	0.0146323
832.894	0.0147102
832.972	0.0145775
833.050	0.0144970
833.128	0.0144573
833.206	0.0142840
833.285	0.0144296
833.363	0.0143993
833.441	0.0145930
833.519	0.0146259
833.597	0.0147456
833.675	0.0149500
833.753	0.0152290
833.831	0.0154250
833.910	0.0154432
833.988	0.0155513
834.066	0.0157275
834.144	0.0156226
834.222	0.0155931
834.300	0.0154017
834.378	0.0152523
834.456	0.0151844
834.535	0.0148902
834.613	0.0146821
834.691	0.0144176
834.769	0.0143413
834.847	0.0141083
834.925	0.0139565
835.003	0.0139664
835.081	0.0141818
835.160	0.0141372
835.238	0.0142206
835.316	0.0141916
835.394	0.0144693
835.472	0.0147501
835.550	0.0148662
835.628	0.0149307
835.706	0.0151334
835.785	0.0153637
835.863	0.0154539
835.941	0.0154926
836.019	0.0153286
836.097	0.0152016
836.175	0.0153399
836.253	0.0150958
836.331	0.0149255
836.410	0.0147707
836.488	0.0147623
836.566	0.0144772
836.644	0.0144751
836.722	0.0143716
836.800	0.0142213
836.878	0.0140473
836.956	0.0140544
837.035	0.0139914
837.113	0.0140935
837.191	0.0140965
837.269	0.0139926
837.347	0.0142031
837.425	0.0140892
837.503	0.0140992
837.581	0.0141187
837.660	0.0141361
837.738	0.0142444
837.816	0.0142012
837.894	0.0143525
837.972	0.0144604
838.050	0.0144982
838.128	0.0146661
838.206	0.0145966
838.285	0.0146608
838.363	0.0147438
838.441	0.0150352
838.519	0.0149982
838.597	0.0150923
838.675	0.0150585
838.753	0.0152229
838.831	0.0152496
838.910	0.0150445
838.988	0.0151871
839.066	0.0150092
839.144	0.0150638
839.222	0.0150500
839.300	0.0149416
839.378	0.0150198
839.456	0.0146867
839.535	0.0148447
839.613	0.0145922
839.691	0.0145480
839.769	0.0146578
839.847	0.0143095
839.925	0.0144273
840.003	0.0145276
840.081	0.0145679
840.160	0.0143095
840.238	0.0143449
840.316	0.0145097
840.394	0.0144965
840.472	0.0144446
840.550	0.0144939
840.628	0.0145393
840.706	0.0145773
840.785	0.0147374
840.863	0.0146262
840.941	0.0147991
841.019	0.0147476
841.097	0.0148511
841.175	0.0149523
841.253	0.0149413
841.331	0.0148534
841.410	0.0148412
841.488	0.0146664
841.566	0.0147646
841.644	0.0146328
841.722	0.0146806
841.800	0.0146104
841.878	0.0145934
841.956	0.0145841
842.035	0.0145392
842.113	0.0145433
842.191	0.0144798
842.269	0.0147095
842.347	0.0146098
842.425	0.0146795
842.503	0.0147624
842.581	0.0146762
842.660	0.0146808
842.738	0.0149174
842.816	0.0150073
842.894	0.0147710
842.972	0.0150098
843.050	0.0150241
843.128	0.0150030
843.206	0.0150385
843.285	0.0150006
843.363	0.0150086
843.441	0.0150927
843.519	0.0149033
843.597	0.0149021
843.675	0.0149094
843.753	0.0148695
843.831	0.0147304
843.910	0.0144904
843.988	0.0145603
844.066	0.0144870
844.144	0.0143587
844.222	0.0143855
844.300	0.0144454
844.378	0.0143380
844.456	0.0144415
844.535	0.0143389
844.613	0.0145621
844.691	0.0146721
844.769	0.0145715
844.847	0.0144258
844.925	0.0145969
845.003	0.0147438
845.081	0.0147900
845.160	0.0145417
845.238	0.0145430
845.316	0.0146564
845.394	0.0148467
845.472	0.0148444
845.550	0.0147205
845.628	0.0146934
845.706	0.0147071
845.785	0.0146412
845.863	0.0146038
845.941	0.0146011
846.019	0.0145958
846.097	0.0145732
846.175	0.0143736
846.253	0.0144621
846.331	0.0144258
846.410	0.0143111
846.488	0.0144348
846.566	0.0143605
846.644	0.0144917
846.722	0.0144261
846.800	0.0144253
846.878	0.0144525
846.956	0.0145972
847.035	0.0145692
847.113	0.0147749
847.191	0.0147179
847.269	0.0147708
847.347	0.0147977
847.425	0.0149979
847.503	0.0149783
847.581	0.0148772
847.660	0.0149268
847.738	0.0150027
847.816	0.0149699
847.894	0.0150459
847.972	0.0150362
848.050	0.0149715
848.128	0.0149309
848.206	0.0147804
848.285	0.0147903
848.363	0.0147102
848.441	0.0146926
848.519	0.0145750
848.597	0.0146055
848.675	0.0144083
848.753	0.0143042
848.831	0.0144369
848.910	0.0143936
848.988	0.0144735
849.066	0.0144300
849.144	0.0144136
849.222	0.0144784
849.300	0.0142991
849.378	0.0144678
849.456	0.0145518
849.535	0.0144318
849.613	0.0145066
849.691	0.0144833
849.769	0.0144607
849.847	0.0145898
849.925	0.0146908
850.003	0.0146873
850.081	0.0147624
850.160	0.0148421
850.238	0.0148187
850.316	0.0149569
850.394	0.0149937
850.472	0.0150655
850.550	0.0150770
850.628	0.0149820
850.706	0.0150986
850.785	0.0151526
850.863	0.0150171
850.941	0.0150446
851.019	0.0150275
851.097	0.0148547
851.175	0.0148445
851.253	0.0147192
851.331	0.0146977
851.410	0.0145063
851.488	0.0145894
851.566	0.0143435
851.644	0.0142004
851.722	0.0144787
851.800	0.0144008
851.878	0.0142281
851.956	0.0142693
852.035	0.0145733
852.113	0.0143690
852.191	0.0142415
852.269	0.0143604
852.347	0.0143472
852.425	0.0144259
852.503	0.0143890
852.581	0.0145692
852.660	0.0146179
852.738	0.0144807
852.816	0.0144870
852.894	0.0146426
852.972	0.0146146
853.050	0.0145311
853.128	0.0146169
853.206	0.0146458
853.285	0.0149368
853.363	0.0147208
853.441	0.0146871
853.519	0.0147220
853.597	0.0147717
853.675	0.0147974
853.753	0.0146168
853.831	0.0146572
853.910	0.0146828
853.988	0.0147381
854.066	0.0147296
854.144	0.0148299
854.222	0.0148963
854.300	0.0148099
854.378	0.0148291
854.456	0.0149228
854.535	0.0149995
854.613	0.0150146
854.691	0.0148528
854.769	0.0149852
854.847	0.0149212
854.925	0.0147874
855.003	0.0148840
855.081	0.0148505
855.160	0.0147194
855.238	0.0147844
855.316	0.0148193
855.394	0.0147511
855.472	0.0145963
855.550	0.0147147
855.628	0.0147512
855.706	0.0147291
855.785	0.0147787
855.863	0.0147804
855.941	0.0147787
856.019	0.0146585
856.097	0.0147162
856.175	0.0149370
856.253	0.0148071
856.331	0.0147024
856.410	0.0148242
856.488	0.0148319
856.566	0.0147968
856.644	0.0147058
856.722	0.0147987
856.800	0.0147079
856.878	0.0146980
856.956	0.0146980
857.035	0.0145361
857.113	0.0144577
857.191	0.0144164
857.269	0.0144791
857.347	0.0144380
857.425	0.0144191
857.503	0.0144329
857.581	0.0144646
857.660	0.0142737
857.738	0.0143202
857.816	0.0142776
857.894	0.0142976
857.972	0.0144653
858.050	0.0144072
858.128	0.0144534
858.206	0.0143601
858.285	0.0144391
858.363	0.0144574
858.441	0.0146269
858.519	0.0146033
858.597	0.0146893
858.675	0.0148368
858.753	0.0150271
858.831	0.0150115
858.910	0.0151328
858.988	0.0148852
859.066	0.0150397
859.144	0.0151457
859.222	0.0150755
859.300	0.0150350
859.378	0.0150185
859.456	0.0150584
859.535	0.0149178
859.613	0.0148923
859.691	0.0148415
859.769	0.0146849
859.847	0.0146866
859.925	0.0144257
860.003	0.0144681
860.081	0.0145585
860.160	0.0143436
860.238	0.0143789
860.316	0.0143849
860.394	0.0145351
860.472	0.0144542
860.550	0.0143957
860.628	0.0145066
860.706	0.0143900
860.785	0.0144163
860.863	0.0144744
860.941	0.0145974
861.019	0.0147432
861.097	0.0145080
861.175	0.0145685
861.253	0.0146245
861.331	0.0147158
861.410	0.0145903
861.488	0.0146015
861.566	0.0147213
861.644	0.0147519
861.722	0.0146539
861.800	0.0146393
861.878	0.0147186
861.956	0.0145020
862.035	0.0145222
862.113	0.0144861
862.191	0.0145432
862.269	0.0146423
862.347	0.0146236
862.425	0.0143929
862.503	0.0144288
862.581	0.0144494
862.660	0.0144240
862.738	0.0147027
862.816	0.0144952
862.894	0.0146329
862.972	0.0146600
863.050	0.0146534
863.128	0.0146527
863.206	0.0147909
863.285	0.0146892
863.363	0.0147054
863.441	0.0146696
863.519	0.0147729
863.597	0.0146883
863.675	0.0146753
863.753	0.0146877
863.831	0.0147021
863.910	0.0146370
863.988	0.0146351
864.066	0.0146685
864.144	0.0147009
864.222	0.0145683
864.300	0.0146755
864.378	0.0148686
864.456	0.0147143
864.535	0.0147469
864.613	0.0147508
864.691	0.0147993
864.769	0.0148584
864.847	0.0149108
864.925	0.0147829
865.003	0.0147556
865.081	0.0149019
865.160	0.0150040
865.238	0.0149994
865.316	0.0148421
865.394	0.0148930
865.472	0.0149462
865.550	0.0147771
865.628	0.0147598
865.706	0.0147611
865.785	0.0146541
865.863	0.0146571
865.941	0.0146294
866.019	0.0145463
866.097	0.0143844
866.175	0.0144321
866.253	0.0144395
866.331	0.0143605
866.410	0.0144147
866.488	0.0142828
866.566	0.0141978
866.644	0.0142909
866.722	0.0142197
866.800	0.0142085
866.878	0.0140778
866.956	0.0141254
867.035	0.0142061
867.113	0.0141790
867.191	0.0142115
867.269	0.0142172
867.347	0.0141067
867.425	0.0142361
867.503	0.0141812
867.581	0.0144114
867.660	0.0143394
867.738	0.0143601
867.816	0.0143814
867.894	0.0144225
867.972	0.0144920
868.050	0.0145528
868.128	0.0145191
868.206	0.0145236
868.285	0.0145367
868.363	0.0147084
868.441	0.0147155
868.519	0.0145650
868.597	0.0146707
868.675	0.0146033
868.753	0.0146291
868.831	0.0146742
868.910	0.0145903
868.988	0.0147450
869.066	0.0145180
869.144	0.0145920
869.222	0.0147189
869.300	0.0146523
869.378	0.0146634
869.456	0.0146133
869.535	0.0147590
869.613	0.0147696
869.691	0.0147170
869.769	0.0147524
869.847	0.0149133
869.925	0.0148741
870.003	0.0148099
870.081	0.0150425
870.160	0.0149848
870.238	0.0150734
870.316	0.0149496
870.394	0.0149931
870.472	0.0149613
870.550	0.0149654
870.628	0.0149641
870.706	0.0148659
870.785	0.0147009
870.863	0.0145316
870.941	0.0143879
871.019	0.0143397
871.097	0.0142681
871.175	0.0143294
871.253	0.0142651
871.331	0.0140442
871.410	0.0140030
871.488	0.0140796
871.566	0.0142490
871.644	0.0141280
871.722	0.0141853
871.800	0.0143535
871.878	0.0143594
871.956	0.0145271
872.035	0.0147279
872.113	0.0148007
872.191	0.0148754
872.269	0.0151109
872.347	0.0152399
872.425	0.0153003
872.503	0.0154455
872.581	0.0153549
872.660	0.0153854
872.738	0.0154624
872.816	0.0155201
872.894	0.0152977
872.972	0.0151283
873.050	0.0152638
873.128	0.0150344
873.206	0.0147453
873.285	0.0146498
873.363	0.0145329
873.441	0.0143896
873.519	0.0143601
873.597	0.0141730
873.675	0.0142610
873.753	0.0143385
873.831	0.0142690
873.910	0.0142483
873.988	0.0143523
874.066	0.0144236
874.144	0.0142546
874.222	0.0144642
874.300	0.0145370
874.378	0.0145731
874.456	0.0144878
874.535	0.0144730
874.613	0.0144970
874.691	0.0147152
874.769	0.0146887
874.847	0.0147304
874.925	0.0146283
875.003	0.0146037
875.081	0.0147879
875.160	0.0147164
875.238	0.0147244
875.316	0.0145602
875.394	0.0146696
875.472	0.0145007
875.550	0.0144363
875.628	0.0144408
875.706	0.0143870
875.785	0.0143212
875.863	0.0144931
875.941	0.0144037
876.019	0.0142978
876.097	0.0144415
876.175	0.0144016
876.253	0.0145900
876.331	0.0145885
876.410	0.0146225
876.488	0.0147150
876.566	0.0147801
876.644	0.0146434
876.722	0.0146629
876.800	0.0144783
876.878	0.0144791
876.956	0.0145294
877.035	0.0145046
877.113	0.0145116
877.191	0.0145101
877.269	0.0144335
877.347	0.0144102
877.425	0.0144697
877.503	0.0144625
877.581	0.0144153
877.660	0.0143494
877.738	0.0143140
877.816	0.0142644
877.894	0.0144357
877.972	0.0143326
878.050	0.0144189
878.128	0.0144291
878.206	0.0143349
878.285	0.0144661
878.363	0.0143343
878.441	0.0144211
878.519	0.0145422
878.597	0.0144795
878.675	0.0143469
878.753	0.0145282
878.831	0.0146632
878.910	0.0146261
878.988	0.0147000
879.066	0.0146878
879.144	0.0146502
879.222	0.0145984
879.300	0.0147629
879.378	0.0148956
879.456	0.0147479
879.535	0.0146935
879.613	0.0146719
879.691	0.0149026
879.769	0.0148896
879.847	0.0149489
879.925	0.0150040
880.003	0.0150230
880.081	0.0149677
880.160	0.0150413
880.238	0.0150485
880.316	0.0149703
880.394	0.0149155
880.472	0.0150400
880.550	0.0150256
880.628	0.0147626
880.706	0.0144945
880.785	0.0146963
880.863	0.0147385
880.941	0.0145869
881.019	0.0144421
881.097	0.0144463
881.175	0.0144164
881.253	0.0141832
881.331	0.0142625
881.410	0.0144975
881.488	0.0142093
881.566	0.0143561
881.644	0.0143573
881.722	0.0145357
881.800	0.0144044
881.878	0.0143926
881.956	0.0146197
882.035	0.0145495
882.113	0.0146256
882.191	0.0147053
882.269	0.0148782
882.347	0.0149483
882.425	0.0148507
882.503	0.0148624
882.581	0.0148236
882.660	0.0148848
882.738	0.0147973
882.816	0.0147790
882.894	0.0148154
882.972	0.0145670
883.050	0.0148438
883.128	0.0146915
883.206	0.0143343
883.285	0.0142838
883.363	0.0144160
883.441	0.0144587
883.519	0.0143653
883.597	0.0144037
883.675	0.0143769
883.753	0.0142508
883.831	0.0142038
883.910	0.0142742
883.988	0.0143290
884.066	0.0141976
884.144	0.0144704
884.222	0.0143118
884.300	0.0143566
884.378	0.0145335
884.456	0.0145125
884.535	0.0145465
884.613	0.0144511
884.691	0.0145255
884.769	0.0146709
884.847	0.0145615
884.925	0.0146926
885.003	0.0147231
885.081	0.0146773
885.160	0.0147571
885.238	0.0147102
885.316	0.0148352
885.394	0.0149050
885.472	0.0148221
885.550	0.0147729
885.628	0.0145985
885.706	0.0146922
885.785	0.0147071
885.863	0.0145451
885.941	0.0146787
886.019	0.0145944
886.097	0.0146212
886.175	0.0146219
886.253	0.0146005
886.331	0.0145955
886.410	0.0145508
886.488	0.0146526
886.566	0.0146191
886.644	0.0145291
886.722	0.0145005
886.800	0.0145004
886.878	0.0146186
886.956	0.0146149
887.035	0.0146702
887.113	0.0146658
887.191	0.0146024
887.269	0.0147183
887.347	0.0146943
887.425	0.0146689
887.503	0.0145685
887.581	0.0146154
887.660	0.0146733
887.738	0.0146091
887.816	0.0146930
887.894	0.0147147
887.972	0.0145486
888.050	0.0146172
888.128	0.0147916
888.206	0.0146329
888.285	0.0145816
888.363	0.0145521
888.441	0.0145828
888.519	0.0144579
888.597	0.0143736
888.675	0.0145362
888.753	0.0143106
888.831	0.0142759
888.910	0.0144156
888.988	0.0143640
889.066	0.0143826
889.144	0.0143282
889.222	0.0143468
889.300	0.0142963
889.378	0.0144478
889.456	0.0144735
889.535	0.0143987
889.613	0.0144534
889.691	0.0143568
889.769	0.0145032
889.847	0.0144297
889.925	0.0141931
890.003	0.0144671
890.081	0.0144768
890.160	0.0144418
890.238	0.0143290
890.316	0.0143437
890.394	0.0142926
890.472	0.0144630
890.550	0.0144081
890.628	0.0143801
890.706	0.0143661
890.785	0.0145762
890.863	0.0144673
890.941	0.0143842
891.019	0.0144819
891.097	0.0146333
891.175	0.0145933
891.253	0.0146888
891.331	0.0147813
891.410	0.0145599
891.488	0.0146744
891.566	0.0144955
891.644	0.0146406
891.722	0.0147331
891.800	0.0146055
891.878	0.0144154
891.956	0.0145928
892.035	0.0145385
892.113	0.0145182
892.191	0.0146642
892.269	0.0146784
892.347	0.0147913
892.425	0.0148990
892.503	0.0149216
892.581	0.0149227
892.660	0.0150168
892.738	0.0148415
892.816	0.0150677
892.894	0.0149806
892.972	0.0148367
893.050	0.0148340
893.128	0.0147335
893.206	0.0148138
893.285	0.0146684
893.363	0.0146185
893.441	0.0146734
893.519	0.0145884
893.597	0.0145082
893.675	0.0145049
893.753	0.0145262
893.831	0.0145946
893.910	0.0144649
893.988	0.0144209
894.066	0.0144308
894.144	0.0145193
894.222	0.0146150
894.300	0.0145510
894.378	0.0145640
894.456	0.0146349
894.535	0.0148308
894.613	0.0148063
894.691	0.0147655
894.769	0.0147715
894.847	0.0146867
894.925	0.0146856
895.003	0.0147791
895.081	0.0147442
895.160	0.0147637
895.238	0.0146841
895.316	0.0146893
895.394	0.0147877
895.472	0.0146389
895.550	0.0148357
895.628	0.0148011
895.706	0.0148451
895.785	0.0148727
895.863	0.0147925
895.941	0.0149320
896.019	0.0147438
896.097	0.0146056
896.175	0.0146972
896.253	0.0145891
896.331	0.0146185
896.410	0.0146319
896.488	0.0144065
896.566	0.0143722
896.644	0.0144817
896.722	0.0144165
896.800	0.0145041
896.878	0.0144618
896.956	0.0143083
897.035	0.0145241
897.113	0.0144480
897.191	0.0143904
897.269	0.0144594
897.347	0.0146465
897.425	0.0145490
897.503	0.0146519
897.581	0.0147163
897.660	0.0146478
897.738	0.0145412
897.816	0.0146102
897.894	0.0145088
897.972	0.0145561
898.050	0.0145282
898.128	0.0145678
898.206	0.0145872
898.285	0.0143776
898.363	0.0144348
898.441	0.0145110
898.519	0.0144848
898.597	0.0145458
898.675	0.0144223
898.753	0.0144064
898.831	0.0145629
898.910	0.0146128
898.988	0.0145853
899.066	0.0144633
899.144	0.0145273
899.222	0.0144647
899.300	0.0142728
899.378	0.0143911
899.456	0.0142719
899.535	0.0141618
899.613	0.0141846
899.691	0.0142197
899.769	0.0143806
899.847	0.0141328
899.925	0.0140685
900.003	0.0143428
900.081	0.0145139
900.160	0.0147031
900.238	0.0150922
900.316	0.0154405
900.394	0.0156247
900.472	0.0158850
900.550	0.0161690
900.628	0.0159980
900.706	0.0158733
900.785	0.0156519
900.863	0.0152204
900.941	0.0146081
901.019	0.0141290
901.097	0.0138684
901.175	0.0136455
901.253	0.0134547
901.331	0.0137627
901.410	0.0141320
901.488	0.0147560
901.566	0.0152609
901.644	0.0157616
901.722	0.0158847
901.800	0.0161202
901.878	0.0157947
901.956	0.0153254
902.035	0.0148681
902.113	0.0140433
902.191	0.0134420
902.269	0.0127548
902.347	0.0122159
902.425	0.0118504
902.503	0.0118069
902.581	0.0119936
902.660	0.0124162
902.738	0.0128534
902.816	0.0135742
902.894	0.0142748
902.972	0.0150786
903.050	0.0157066
903.128	0.0161626
903.206	0.0164082
903.285	0.0165702
903.363	0.0165965
903.441	0.0164055
903.519	0.0162582
903.597	0.0158807
903.675	0.0155415
903.753	0.0155051
903.831	0.0153501
903.910	0.0150005
903.988	0.0148718
904.066	0.0146066
904.144	0.0144725
904.222	0.0144995
904.300	0.0143682
904.378	0.0143108
904.456	0.0141629
904.535	0.0141517
904.613	0.0141357
904.691	0.0140461
904.769	0.0141644
904.847	0.0142985
904.925	0.0142872
905.003	0.0143246
905.081	0.0143878
905.160	0.0143633
905.238	0.0144101
905.316	0.0144967
905.394	0.0144622
905.472	0.0143777
905.550	0.0145919
905.628	0.0145479
905.706	0.0146952
905.785	0.0147967
905.863	0.0148332
905.941	0.0149256
906.019	0.0150826
906.097	0.0152869
906.175	0.0153285
906.253	0.0152988
906.331	0.0152473
906.410	0.0154111
906.488	0.0152251
906.566	0.0152950
906.644	0.0152688
906.722	0.0152032
906.800	0.0149547
906.878	0.0146988
906.956	0.0147493
907.035	0.0144746
907.113	0.0143170
907.191	0.0140222
907.269	0.0138808
907.347	0.0138631
907.425	0.0137823
907.503	0.0137434
907.581	0.0136213
907.660	0.0136749
907.738	0.0139002
907.816	0.0138947
907.894	0.0139819
907.972	0.0143147
908.050	0.0145142
908.128	0.0146667
908.206	0.0147231
908.285	0.0149757
908.363	0.0150818
908.441	0.0151240
908.519	0.0151720
908.597	0.0152684
908.675	0.0152279
908.753	0.0153050
908.831	0.0150661
908.910	0.0151283
908.988	0.0151622
909.066	0.0152782
909.144	0.0151253
909.222	0.0152266
909.300	0.0150520
909.378	0.0150510
909.456	0.0150954
909.535	0.0151671
909.613	0.0149072
909.691	0.0147702
909.769	0.0146722
909.847	0.0144136
909.925	0.0143613
910.003	0.0143614
910.081	0.0141900
910.160	0.0141525
910.238	0.0141866
910.316	0.0140389
910.394	0.0140876
910.472	0.0142842
910.550	0.0143562
910.628	0.0142414
910.706	0.0143208
910.785	0.0143761
910.863	0.0145075
910.941	0.0145638
911.019	0.0146591
911.097	0.0146421
911.175	0.0145146
911.253	0.0146342
911.331	0.0146908
911.410	0.0146796
911.488	0.0146883
911.566	0.0146824
911.644	0.0148293
911.722	0.0147813
911.800	0.0147682
911.878	0.0148295
911.956	0.0148740
912.035	0.0149551
912.113	0.0148933
912.191	0.0149711
912.269	0.0148513
912.347	0.0148238
912.425	0.0146769
912.503	0.0146365
912.581	0.0145175
912.660	0.0143880
912.738	0.0144225
912.816	0.0141790
912.894	0.0142796
912.972	0.0143267
913.050	0.0142431
913.128	0.0143586
913.206	0.0143325
913.285	0.0144315
913.363	0.0144609
913.441	0.0146606
913.519	0.0146931
913.597	0.0146786
913.675	0.0148493
913.753	0.0149118
913.831	0.0147742
913.910	0.0148926
913.988	0.0148222
914.066	0.0148903
914.144	0.0149172
914.222	0.0148384
914.300	0.0147264
914.378	0.0147347
914.456	0.0148993
914.535	0.0146564
914.613	0.0147162
914.691	0.0147992
914.769	0.0149421
914.847	0.0149378
914.925	0.0149428
915.003	0.0149535
915.081	0.0151201
915.160	0.0151489
915.238	0.0150329
915.316	0.0149476
915.394	0.0151792
915.472	0.0149476
915.550	0.0149081
915.628	0.0148986
915.706	0.0147381
915.785	0.0147102
915.863	0.0146378
915.941	0.0143690
916.019	0.0143279
916.097	0.0143038
916.175	0.0141277
916.253	0.0141052
916.331	0.0142044
916.410	0.0142351
916.488	0.0143358
916.566	0.0144209
916.644	0.0144464
916.722	0.0146487
916.800	0.0145967
916.878	0.0148161
916.956	0.0148660
917.035	0.0148422
917.113	0.0149046
917.191	0.0148164
917.269	0.0147348
917.347	0.0146796
917.425	0.0145539
917.503	0.0145108
917.581	0.0143582
917.660	0.0143895
917.738	0.0143860
917.816	0.0143095
917.894	0.0144468
917.972	0.0147891
918.050	0.0146792
918.128	0.0147097
918.206	0.0148903
918.285	0.0151162
918.363	0.0152991
918.441	0.0153486
918.519	0.0152219
918.597	0.0152375
918.675	0.0152996
918.753	0.0150313
918.831	0.0149260
918.910	0.0147524
918.988	0.0146245
919.066	0.0144730
919.144	0.0145790
919.222	0.0144670
919.300	0.0142197
919.378	0.0142915
919.456	0.0141914
919.535	0.0142985
919.613	0.0141357
919.691	0.0142754
919.769	0.0142126
919.847	0.0142546
919.925	0.0144759
920.003	0.0144704
920.081	0.0145364
920.160	0.0143945
920.238	0.0145892
920.316	0.0145819
920.394	0.0145935
920.472	0.0148223
920.550	0.0148587
920.628	0.0148573
920.706	0.0148223
920.785	0.0147764
920.863	0.0147936
920.941	0.0148148
921.019	0.0147595
921.097	0.0147504
921.175	0.0146332
921.253	0.0146070
921.331	0.0145146
921.410	0.0144473
921.488	0.0145261
921.566	0.0143317
921.644	0.0144830
921.722	0.0145431
921.800	0.0145713
921.878	0.0145779
921.956	0.0146297
922.035	0.0147653
922.113	0.0148125
922.191	0.0149561
922.269	0.0150091
922.347	0.0149994
922.425	0.0150649
922.503	0.0150111
922.581	0.0150231
922.660	0.0148890
922.738	0.0148914
922.816	0.0148288
922.894	0.0146986
922.972	0.0147632
923.050	0.0146386
923.128	0.0147634
923.206	0.0145770
923.285	0.0146503
923.363	0.0146854
923.441	0.0146641
923.519	0.0145683
923.597	0.0146676
923.675	0.0147585
923.753	0.0146904
923.831	0.0146508
923.910	0.0147363
923.988	0.0148177
924.066	0.0146788
924.144	0.0145919
924.222	0.0147188
924.300	0.0149006
924.378	0.0148767
924.456	0.0148622
924.535	0.0146422
924.613	0.0147882
924.691	0.0146982
924.769	0.0147278
924.847	0.0146420
924.925	0.0145449
925.003	0.0145618
925.081	0.0144189
925.160	0.0144413
925.238	0.0143781
925.316	0.0142570
925.394	0.0143753
925.472	0.0142597
925.550	0.0143878
925.628	0.0143899
925.706	0.0144780
925.785	0.0144960
925.863	0.0145071
925.941	0.0145762
926.019	0.0146138
926.097	0.0147063
926.175	0.0147306
926.253	0.0145948
926.331	0.0147179
926.410	0.0145560
926.488	0.0146010
926.566	0.0145749
926.644	0.0144289
926.722	0.0144652
926.800	0.0145699
926.878	0.0146174
926.956	0.0144759
927.035	0.0146212
927.113	0.0145986
927.191	0.0146076
927.269	0.0146568
927.347	0.0148518
927.425	0.0147684
927.503	0.0147119
927.581	0.0148617
927.660	0.0148524
927.738	0.0148516
927.816	0.0149400
927.894	0.0150335
927.972	0.0149156
928.050	0.0148731
928.128	0.0150098
928.206	0.0149738
928.285	0.0149163
928.363	0.0150269
928.441	0.0149741
928.519	0.0150408
928.597	0.0149561
928.675	0.0149751
928.753	0.0148895
928.831	0.0148127
928.910	0.0146494
928.988	0.0147076
929.066	0.0146146
929.144	0.0144161
929.222	0.0143737
929.300	0.0144364
929.378	0.0144559
929.456	0.0143707
929.535	0.0142511
929.613	0.0145319
929.691	0.0144139
929.769	0.0146913
929.847	0.0146661
929.925	0.0147600
930.003	0.0148246
930.081	0.0149337
930.160	0.0149681
930.238	0.0150210
930.316	0.0151659
930.394	0.0150631
930.472	0.0150944
930.550	0.0150603
930.628	0.0150661
930.706	0.0147826
930.785	0.0147605
930.863	0.0147958
930.941	0.0147293
931.019	0.0146356
931.097	0.0146008
931.175	0.0144884
931.253	0.0145206
931.331	0.0143606
931.410	0.0144652
931.488	0.0142675
931.566	0.0142559
931.644	0.0141292
931.722	0.0143060
931.800	0.0142905
931.878	0.0142808
931.956	0.0143793
932.035	0.0143298
932.113	0.0144881
932.191	0.0144559
932.269	0.0146418
932.347	0.0145824
932.425	0.0146766
932.503	0.0146635
932.581	0.0148196
932.660	0.0148700
932.738	0.0147361
932.816	0.0146428
932.894	0.0145428
932.972	0.0147449
933.050	0.0146136
933.128	0.0145235
933.206	0.0145751
933.285	0.0143089
933.363	0.0144354
933.441	0.0144759
933.519	0.0145095
933.597	0.0146112
933.675	0.0145000
933.753	0.0145742
933.831	0.0145705
933.910	0.0147375
933.988	0.0146901
934.066	0.0147573
934.144	0.0147343
934.222	0.0149230
934.300	0.0149161
934.378	0.0147885
934.456	0.0147992
934.535	0.0148930
934.613	0.0147916
934.691	0.0147665
934.769	0.0147287
934.847	0.0148678
934.925	0.0148812
935.003	0.0149348
935.081	0.0146842
935.160	0.0146487
935.238	0.0147919
935.316	0.0148253
935.394	0.0147225
935.472	0.0146809
935.550	0.0145325
935.628	0.0147400
935.706	0.0146339
935.785	0.0147668
935.863	0.0147810
935.941	0.0147755
936.019	0.0147578
936.097	0.0146971
936.175	0.0145880
936.253	0.0146066
936.331	0.0144479
936.410	0.0145363
936.488	0.0145712
936.566	0.0146986
936.644	0.0145739
936.722	0.0147141
936.800	0.0145841
936.878	0.0144851
936.956	0.0144530
937.035	0.0146227
937.113	0.0146493
937.191	0.0145711
937.269	0.0144757
937.347	0.0145742
937.425	0.0146275
937.503	0.0145311
937.581	0.0144298
937.660	0.0145007
937.738	0.0145520
937.816	0.0145812
937.894	0.0145813
937.972	0.0146112
938.050	0.0146420
938.128	0.0146858
938.206	0.0146302
938.285	0.0147455
938.363	0.0148207
938.441	0.0149554
938.519	0.0148810
938.597	0.0150656
938.675	0.0149281
938.753	0.0150435
938.831	0.0148961
938.910	0.0150701
938.988	0.0148946
939.066	0.0149470
939.144	0.0147762
939.222	0.0147481
939.300	0.0148548
939.378	0.0148774
939.456	0.0146684
939.535	0.0146554
939.613	0.0146779
939.691	0.0146014
939.769	0.0145966
939.847	0.0145936
939.925	0.0145796
940.003	0.0145387
940.081	0.0146165
940.160	0.0146089
940.238	0.0145498
940.316	0.0145448
940.394	0.0144928
940.472	0.0146304
940.550	0.0145779
940.628	0.0145450
940.706	0.0146749
940.785	0.0145948
940.863	0.0145889
940.941	0.0145398
941.019	0.0145885
941.097	0.0146597
941.175	0.0146423
941.253	0.0145976
941.331	0.0145313
941.410	0.0145286
941.488	0.0145226
941.566	0.0145180
941.644	0.0145066
941.722	0.0143967
941.800	0.0144080
941.878	0.0144439
941.956	0.0144899
942.035	0.0145010
942.113	0.0145260
942.191	0.0144614
942.269	0.0142824
942.347	0.0144653
942.425	0.0145692
942.503	0.0145525
942.581	0.0146509
942.660	0.0145234
942.738	0.0145153
942.816	0.0145818
942.894	0.0145531
942.972	0.0144614
943.050	0.0144893
943.128	0.0145811
943.206	0.0146478
943.285	0.0147327
943.363	0.0146683
943.441	0.0146632
943.519	0.0148815
943.597	0.0148422
943.675	0.0149251
943.753	0.0149699
943.831	0.0149524
943.910	0.0148279
943.988	0.0149197
944.066	0.0150543
944.144	0.0149927
944.222	0.0149224
944.300	0.0148878
944.378	0.0149371
944.456	0.0148617
944.535	0.0149748
944.613	0.0149865
944.691	0.0149169
944.769	0.0147813
944.847	0.0149264
944.925	0.0149746
945.003	0.0148132
945.081	0.0146458
945.160	0.0147440
945.238	0.0147266
945.316	0.0146996
945.394	0.0146559
945.472	0.0143781
945.550	0.0145098
945.628	0.0145970
945.706	0.0146333
945.785	0.0144566
945.863	0.0146306
945.941	0.0146098
946.019	0.0145867
946.097	0.0147118
946.175	0.0146474
946.253	0.0145773
946.331	0.0146587
946.410	0.0146748
946.488	0.0146420
946.566	0.0144658
946.644	0.0145034
946.722	0.0144886
946.800	0.0143445
946.878	0.0143002
946.956	0.0142541
947.035	0.0141595
947.113	0.0141097
947.191	0.0140027
947.269	0.0141401
947.347	0.0142706
947.425	0.0143918
947.503	0.0146243
947.581	0.0147235
947.660	0.0149005
947.738	0.0149195
947.816	0.0149902
947.894	0.0151379
947.972	0.0153748
948.050	0.0152606
948.128	0.0151566
948.206	0.0151624
948.285	0.0150887
948.363	0.0149149
948.441	0.0149551
948.519	0.0147523
948.597	0.0146394
948.675	0.0145792
948.753	0.0144521
948.831	0.0144607
948.910	0.0141943
948.988	0.0142345
949.066	0.0141876
949.144	0.0141290
949.222	0.0143195
949.300	0.0142370
949.378	0.0143092
949.456	0.0143919
949.535	0.0145246
949.613	0.0144993
949.691	0.0146041
949.769	0.0146670
949.847	0.0147887
949.925	0.0147624
950.003	0.0147215
950.081	0.0147885
950.160	0.0147245
950.238	0.0147109
950.316	0.0146304
950.394	0.0146435
950.472	0.0144509
950.550	0.0144675
950.628	0.0143606
950.706	0.0144006
950.785	0.0143771
950.863	0.0142808
950.941	0.0143697
951.019	0.0143337
951.097	0.0144217
951.175	0.0143051
951.253	0.0143034
951.331	0.0144472
951.410	0.0146042
951.488	0.0145876
951.566	0.0146244
951.644	0.0146275
951.722	0.0148462
951.800	0.0148314
951.878	0.0149555
951.956	0.0148443
952.035	0.0149200
952.113	0.0149152
952.191	0.0148878
952.269	0.0149676
952.347	0.0149240
952.425	0.0147431
952.503	0.0147380
952.581	0.0146967
952.660	0.0146951
952.738	0.0145482
952.816	0.0144980
952.894	0.0143923
952.972	0.0144073
953.050	0.0143841
953.128	0.0144303
953.206	0.0144063
953.285	0.0144441
953.363	0.0144389
953.441	0.0145630
953.519	0.0146406
953.597	0.0147124
953.675	0.0147205
953.753	0.0146458
953.831	0.0148024
953.910	0.0148008
953.988	0.0148689
954.066	0.0148776
954.144	0.0148639
954.222	0.0148512
954.300	0.0147702
954.378	0.0147860
954.456	0.0145374
954.535	0.0145853
954.613	0.0146764
954.691	0.0143834
954.769	0.0143867
954.847	0.0144093
954.925	0.0143514
955.003	0.0141853
955.081	0.0142324
955.160	0.0142404
955.238	0.0142757
955.316	0.0143937
955.394	0.0144772
955.472	0.0144831
955.550	0.0146101
955.628	0.0146524
955.706	0.0148163
955.785	0.0147616
955.863	0.0147047
955.941	0.0148028
956.019	0.0149065
956.097	0.0149334
956.175	0.0148277
956.253	0.0149277
956.331	0.0149104
956.410	0.0147783
956.488	0.0148465
956.566	0.0148253
956.644	0.0148093
956.722	0.0148650
956.800	0.0149417
956.878	0.0148843
956.956	0.0149008
957.035	0.0147742
957.113	0.0147594
957.191	0.0149625
957.269	0.0150179
957.347	0.0148840
957.425	0.0147061
957.503	0.0147422
957.581	0.0148049
957.660	0.0146884
957.738	0.0147353
957.816	0.0147065
957.894	0.0144202
957.972	0.0144817
958.050	0.0142593
958.128	0.0142462
958.206	0.0141994
958.285	0.0142175
958.363	0.0142579
958.441	0.0141563
958.519	0.0141509
958.597	0.0143538
958.675	0.0144299
958.753	0.0145161
958.831	0.0144786
958.910	0.0145860
958.988	0.0146537
959.066	0.0147069
959.144	0.0148454
959.222	0.0147943
959.300	0.0147469
959.378	0.0147141
959.456	0.0146483
959.535	0.0146822
959.613	0.0146381
959.691	0.0145603
959.769	0.0145399
959.847	0.0146209
959.925	0.0144075
960.003	0.0143854
960.081	0.0144444
960.160	0.0144585
960.238	0.0145479
960.316	0.0144656
960.394	0.0145580
960.472	0.0145691
960.550	0.0146379
960.628	0.0145837
960.706	0.0147025
960.785	0.0148474
960.863	0.0149253
960.941	0.0149278
961.019	0.0150077
961.097	0.0149675
961.175	0.0151241
961.253	0.0152412
961.331	0.0153053
961.410	0.0151652
961.488	0.0153034
961.566	0.0152013
961.644	0.0150392
961.722	0.0150102
961.800	0.0149691
961.878	0.0148305
961.956	0.0146895
962.035	0.0146138
962.113	0.0145303
962.191	0.0145245
962.269	0.0143495
962.347	0.0141537
962.425	0.0142003
962.503	0.0142248
962.581	0.0143383
962.660	0.0142921
962.738	0.0143204
962.816	0.0143097
962.894	0.0144936
962.972	0.0146553
963.050	0.0145061
963.128	0.0146487
963.206	0.0146459
963.285	0.0145695
963.363	0.0145263
963.441	0.0147101
963.519	0.0145116
963.597	0.0144884
963.675	0.0145544
963.753	0.0145493
963.831	0.0144672
963.910	0.0144007
963.988	0.0143901
964.066	0.0144172
964.144	0.0143150
964.222	0.0144048
964.300	0.0144627
964.378	0.0145246
964.456	0.0144597
964.535	0.0144584
964.613	0.0144520
964.691	0.0148099
964.769	0.0146500
964.847	0.0146198
964.925	0.0148167
965.003	0.0148614
965.081	0.0148806
965.160	0.0149903
965.238	0.0147900
965.316	0.0148708
965.394	0.0147827
965.472	0.0148563
965.550	0.0148339
965.628	0.0148582
965.706	0.0148317
965.785	0.0147422
965.863	0.0147669
965.941	0.0148573
966.019	0.0147784
966.097	0.0147273
966.175	0.0149919
966.253	0.0148713
966.331	0.0148042
966.410	0.0149663
966.488	0.0149809
966.566	0.0149251
966.644	0.0150413
966.722	0.0149686
966.800	0.0149986
966.878	0.0149519
966.956	0.0147889
967.035	0.0147844
967.113	0.0148125
967.191	0.0147767
967.269	0.0147098
967.347	0.0145740
967.425	0.0146135
967.503	0.0144089
967.581	0.0143433
967.660	0.0142275
967.738	0.0143362
967.816	0.0142093
967.894	0.0141886
967.972	0.0142117
968.050	0.0141106
968.128	0.0142001
968.206	0.0143081
968.285	0.0143038
968.363	0.0143687
968.441	0.0144575
968.519	0.0145863
968.597	0.0145712
968.675	0.0147945
968.753	0.0146907
968.831	0.0146600
968.910	0.0147591
968.988	0.0147237
969.066	0.0146361
969.144	0.0146279
969.222	0.0147083
969.300	0.0147569
969.378	0.0146728
969.456	0.0144692
969.535	0.0144962
969.613	0.0146508
969.691	0.0145483
969.769	0.0144276
969.847	0.0144164
969.925	0.0143133
970.003	0.0144299
970.081	0.0142702
970.160	0.0143649
970.238	0.0144893
970.316	0.0144162
970.394	0.0143744
970.472	0.0146348
970.550	0.0145997
970.628	0.0147968
970.706	0.0147144
970.785	0.0147514
970.863	0.0148688
970.941	0.0150938
971.019	0.0150640
971.097	0.0148941
971.175	0.0148785
971.253	0.0149918
971.331	0.0149754
971.410	0.0146586
971.488	0.0147740
971.566	0.0147692
971.644	0.0147498
971.722	0.0147418
971.800	0.0146095
971.878	0.0145190
971.956	0.0145754
972.035	0.0142960
972.113	0.0145435
972.191	0.0145535
972.269	0.0144543
972.347	0.0143924
972.425	0.0143036
972.503	0.0144727
972.581	0.0144332
972.660	0.0143435
972.738	0.0144527
972.816	0.0144173
972.894	0.0145665
972.972	0.0146009
973.050	0.0144780
973.128	0.0143945
973.206	0.0142833
973.285	0.0142867
973.363	0.0142569
973.441	0.0141815
973.519	0.0142104
973.597	0.0141892
973.675	0.0143140
973.753	0.0142492
973.831	0.0142522
973.910	0.0142580
973.988	0.0144128
974.066	0.0143874
974.144	0.0144149
974.222	0.0145552
974.300	0.0145630
974.378	0.0146288
974.456	0.0146053
974.535	0.0147500
974.613	0.0146136
974.691	0.0146542
974.769	0.0148464
974.847	0.0148126
974.925	0.0148104
975.003	0.0147722
975.081	0.0147845
975.160	0.0148242
975.238	0.0149536
975.316	0.0147701
975.394	0.0149160
975.472	0.0148068
975.550	0.0148624
975.628	0.0148643
975.706	0.0146848
975.785	0.0147109
975.863	0.0147932
975.941	0.0148730
976.019	0.0147567
976.097	0.0148106
976.175	0.0150087
976.253	0.0150008
976.331	0.0150208
976.410	0.0151414
976.488	0.0149934
976.566	0.0150970
976.644	0.0151655
976.722	0.0149799
976.800	0.0150116
976.878	0.0149822
976.956	0.0147994
977.035	0.0147998
977.113	0.0148580
977.191	0.0147786
977.269	0.0145625
977.347	0.0145502
977.425	0.0145685
977.503	0.0146678
977.581	0.0145608
977.660	0.0146761
977.738	0.0146532
977.816	0.0148708
977.894	0.0147562
977.972	0.0146902
978.050	0.0145338
978.128	0.0147818
978.206	0.0146445
978.285	0.0145021
978.363	0.0146252
978.441	0.0144410
978.519	0.0143142
978.597	0.0144461
978.675	0.0144612
978.753	0.0143605
978.831	0.0142173
978.910	0.0143152
978.988	0.0144309
979.066	0.0143812
979.144	0.0144569
979.222	0.0143620
979.300	0.0144415
979.378	0.0145367
979.456	0.0143810
979.535	0.0144164
979.613	0.0145057
979.691	0.0145464
979.769	0.0145697
979.847	0.0144614
979.925	0.0145331
