05/03/2022	20:16:01	Ver.	4.1	UNKNOWN
Optical Delay	660.003261	Delta X		0.078125	Sweeps	1	Scan Rate	0/0
Coordinates	Axis 1	NaN	Axis 2	NaN	Axis 3	NaN	Axis 4	NaN	Axis 5	NaN	Axis 6	0.000000
TX Power	0.000000	RX Power	0.000000

660.003	0.0145267
660.081	0.0144365
660.160	0.0144577
660.238	0.0144743
660.316	0.0145249
660.394	0.0144241
660.472	0.0144773
660.550	0.0144543
660.628	0.0144333
660.706	0.0143974
660.785	0.0143915
660.863	0.0144784
660.941	0.0145769
661.019	0.0144796
661.097	0.0145275
661.175	0.0144739
661.253	0.0143853
661.331	0.0144362
661.410	0.0146089
661.488	0.0144230
661.566	0.0143107
661.644	0.0144302
661.722	0.0144863
661.800	0.0143670
661.878	0.0143835
661.956	0.0144665
662.035	0.0144874
662.113	0.0143164
662.191	0.0143414
662.269	0.0143282
662.347	0.0144779
662.425	0.0145554
662.503	0.0143972
662.581	0.0145012
662.660	0.0144966
662.738	0.0145756
662.816	0.0144743
662.894	0.0144907
662.972	0.0145975
663.050	0.0144144
663.128	0.0144436
663.206	0.0144914
663.285	0.0146012
663.363	0.0145213
663.441	0.0144951
663.519	0.0143470
663.597	0.0144544
663.675	0.0146001
663.753	0.0145265
663.831	0.0144135
663.910	0.0144965
663.988	0.0144530
664.066	0.0143685
664.144	0.0144266
664.222	0.0144502
664.300	0.0144917
664.378	0.0144289
664.456	0.0144583
664.535	0.0145161
664.613	0.0145299
664.691	0.0144680
664.769	0.0144392
664.847	0.0144936
664.925	0.0145260
665.003	0.0144379
665.081	0.0145980
665.160	0.0144764
665.238	0.0145512
665.316	0.0144402
665.394	0.0143980
665.472	0.0145652
665.550	0.0145296
665.628	0.0144079
665.706	0.0144123
665.785	0.0144442
665.863	0.0144654
665.941	0.0143571
666.019	0.0145131
666.097	0.0145526
666.175	0.0144575
666.253	0.0144439
666.331	0.0145674
666.410	0.0144434
666.488	0.0145267
666.566	0.0145583
666.644	0.0145036
666.722	0.0145361
666.800	0.0144499
666.878	0.0145053
666.956	0.0144630
667.035	0.0144994
667.113	0.0144915
667.191	0.0145579
667.269	0.0144192
667.347	0.0145094
667.425	0.0143726
667.503	0.0143995
667.581	0.0145152
667.660	0.0144669
667.738	0.0144350
667.816	0.0145542
667.894	0.0145911
667.972	0.0144613
668.050	0.0144903
668.128	0.0145235
668.206	0.0144788
668.285	0.0144903
668.363	0.0144730
668.441	0.0145476
668.519	0.0146342
668.597	0.0145291
668.675	0.0146357
668.753	0.0146932
668.831	0.0145020
668.910	0.0146099
668.988	0.0143700
669.066	0.0145009
669.144	0.0145411
669.222	0.0145454
669.300	0.0144024
669.378	0.0144294
669.456	0.0145252
669.535	0.0144242
669.613	0.0143839
669.691	0.0144181
669.769	0.0145441
669.847	0.0144189
669.925	0.0144070
670.003	0.0142879
670.081	0.0144234
670.160	0.0144418
670.238	0.0144912
670.316	0.0145283
670.394	0.0145378
670.472	0.0145747
670.550	0.0144014
670.628	0.0144338
670.706	0.0144773
670.785	0.0144572
670.863	0.0144356
670.941	0.0143750
671.019	0.0145350
671.097	0.0145931
671.175	0.0145163
671.253	0.0144060
671.331	0.0146139
671.410	0.0145045
671.488	0.0145129
671.566	0.0145676
671.644	0.0145648
671.722	0.0145876
671.800	0.0143436
671.878	0.0144985
671.956	0.0144973
672.035	0.0145249
672.113	0.0145274
672.191	0.0146136
672.269	0.0145026
672.347	0.0145001
672.425	0.0145397
672.503	0.0143733
672.581	0.0144783
672.660	0.0144722
672.738	0.0145480
672.816	0.0145323
672.894	0.0145042
672.972	0.0145074
673.050	0.0145782
673.128	0.0144633
673.206	0.0145845
673.285	0.0145380
673.363	0.0145596
673.441	0.0146086
673.519	0.0144915
673.597	0.0143881
673.675	0.0145271
673.753	0.0143932
673.831	0.0145495
673.910	0.0145449
673.988	0.0144608
674.066	0.0144543
674.144	0.0144830
674.222	0.0145313
674.300	0.0144361
674.378	0.0145438
674.456	0.0144125
674.535	0.0145210
674.613	0.0146374
674.691	0.0145966
674.769	0.0145184
674.847	0.0145969
674.925	0.0145132
675.003	0.0144971
675.081	0.0144993
675.160	0.0145417
675.238	0.0145818
675.316	0.0145535
675.394	0.0144207
675.472	0.0144923
675.550	0.0145359
675.628	0.0144983
675.706	0.0145028
675.785	0.0145963
675.863	0.0145128
675.941	0.0145812
676.019	0.0144434
676.097	0.0144554
676.175	0.0144897
676.253	0.0145086
676.331	0.0144467
676.410	0.0145013
676.488	0.0143335
676.566	0.0144653
676.644	0.0145051
676.722	0.0144405
676.800	0.0144952
676.878	0.0145145
676.956	0.0144244
677.035	0.0146010
677.113	0.0145474
677.191	0.0144639
677.269	0.0144862
677.347	0.0145172
677.425	0.0145999
677.503	0.0143433
677.581	0.0145058
677.660	0.0144828
677.738	0.0145444
677.816	0.0144862
677.894	0.0144583
677.972	0.0145045
678.050	0.0145776
678.128	0.0145251
678.206	0.0145495
678.285	0.0144685
678.363	0.0144847
678.441	0.0144155
678.519	0.0145538
678.597	0.0144355
678.675	0.0145478
678.753	0.0146424
678.831	0.0145801
678.910	0.0146086
678.988	0.0145032
679.066	0.0144630
679.144	0.0145473
679.222	0.0144014
679.300	0.0143935
679.378	0.0146685
679.456	0.0144326
679.535	0.0145436
679.613	0.0144247
679.691	0.0145242
679.769	0.0144658
679.847	0.0144572
679.925	0.0145261
680.003	0.0145679
680.081	0.0145135
680.160	0.0144991
680.238	0.0145858
680.316	0.0144675
680.394	0.0143064
680.472	0.0144109
680.550	0.0144877
680.628	0.0143970
680.706	0.0144085
680.785	0.0144135
680.863	0.0144842
680.941	0.0144898
681.019	0.0144958
681.097	0.0144738
681.175	0.0144967
681.253	0.0145424
681.331	0.0145049
681.410	0.0144393
681.488	0.0144973
681.566	0.0144991
681.644	0.0144332
681.722	0.0145027
681.800	0.0145601
681.878	0.0146765
681.956	0.0143269
682.035	0.0143781
682.113	0.0144422
682.191	0.0144936
682.269	0.0146465
682.347	0.0144378
682.425	0.0144019
682.503	0.0143837
682.581	0.0144534
682.660	0.0145889
682.738	0.0146242
682.816	0.0145517
682.894	0.0145489
682.972	0.0144742
683.050	0.0145065
683.128	0.0145423
683.206	0.0145985
683.285	0.0144516
683.363	0.0145905
683.441	0.0145802
683.519	0.0145463
683.597	0.0145229
683.675	0.0144923
683.753	0.0145862
683.831	0.0143371
683.910	0.0144865
683.988	0.0145691
684.066	0.0143489
684.144	0.0145949
684.222	0.0143505
684.300	0.0145883
684.378	0.0144985
684.456	0.0144371
684.535	0.0143187
684.613	0.0145206
684.691	0.0144611
684.769	0.0143459
684.847	0.0145646
684.925	0.0144469
685.003	0.0144422
685.081	0.0144789
685.160	0.0143887
685.238	0.0145296
685.316	0.0144678
685.394	0.0144872
685.472	0.0143288
685.550	0.0144633
685.628	0.0145567
685.706	0.0145161
685.785	0.0144032
685.863	0.0144163
685.941	0.0144509
686.019	0.0143803
686.097	0.0144981
686.175	0.0145529
686.253	0.0145456
686.331	0.0144753
686.410	0.0144064
686.488	0.0144775
686.566	0.0145206
686.644	0.0145697
686.722	0.0146571
686.800	0.0144511
686.878	0.0144101
686.956	0.0145817
687.035	0.0145317
687.113	0.0145574
687.191	0.0144610
687.269	0.0146355
687.347	0.0144095
687.425	0.0145448
687.503	0.0145532
687.581	0.0145884
687.660	0.0145173
687.738	0.0144998
687.816	0.0144772
687.894	0.0143347
687.972	0.0145423
688.050	0.0145673
688.128	0.0146210
688.206	0.0145798
688.285	0.0146004
688.363	0.0143690
688.441	0.0144623
688.519	0.0143233
688.597	0.0145414
688.675	0.0145718
688.753	0.0145811
688.831	0.0144276
688.910	0.0145654
688.988	0.0145869
689.066	0.0145425
689.144	0.0144928
689.222	0.0144775
689.300	0.0145071
689.378	0.0144785
689.456	0.0145368
689.535	0.0145264
689.613	0.0145167
689.691	0.0145150
689.769	0.0146082
689.847	0.0145694
689.925	0.0144881
690.003	0.0143954
690.081	0.0146583
690.160	0.0144540
690.238	0.0144949
690.316	0.0145258
690.394	0.0146874
690.472	0.0145047
690.550	0.0145795
690.628	0.0144949
690.706	0.0145725
690.785	0.0145261
690.863	0.0144011
690.941	0.0144731
691.019	0.0146057
691.097	0.0145297
691.175	0.0145596
691.253	0.0145715
691.331	0.0144317
691.410	0.0146115
691.488	0.0145827
691.566	0.0144543
691.644	0.0144819
691.722	0.0144827
691.800	0.0146488
691.878	0.0144302
691.956	0.0146378
692.035	0.0145627
692.113	0.0145647
692.191	0.0145811
692.269	0.0144544
692.347	0.0144757
692.425	0.0144932
692.503	0.0145396
692.581	0.0145383
692.660	0.0144325
692.738	0.0144524
692.816	0.0144990
692.894	0.0143481
692.972	0.0143094
693.050	0.0144266
693.128	0.0145402
693.206	0.0145350
693.285	0.0144031
693.363	0.0144440
693.441	0.0144173
693.519	0.0144872
693.597	0.0144210
693.675	0.0145135
693.753	0.0144560
693.831	0.0143900
693.910	0.0145930
693.988	0.0145361
694.066	0.0144282
694.144	0.0145908
694.222	0.0144831
694.300	0.0144654
694.378	0.0145428
694.456	0.0145048
694.535	0.0144456
694.613	0.0145049
694.691	0.0145976
694.769	0.0145442
694.847	0.0145496
694.925	0.0145514
695.003	0.0144651
695.081	0.0145116
695.160	0.0145560
695.238	0.0146108
695.316	0.0145125
695.394	0.0145513
695.472	0.0144886
695.550	0.0144678
695.628	0.0145509
695.706	0.0143465
695.785	0.0144360
695.863	0.0144337
695.941	0.0144985
696.019	0.0144893
696.097	0.0145579
696.175	0.0145208
696.253	0.0144646
696.331	0.0143346
696.410	0.0143071
696.488	0.0144046
696.566	0.0144534
696.644	0.0145602
696.722	0.0144447
696.800	0.0144029
696.878	0.0143388
696.956	0.0144247
697.035	0.0144666
697.113	0.0145573
697.191	0.0145864
697.269	0.0145116
697.347	0.0144553
697.425	0.0144435
697.503	0.0145000
697.581	0.0144720
697.660	0.0144489
697.738	0.0145423
697.816	0.0146274
697.894	0.0144414
697.972	0.0145397
698.050	0.0145695
698.128	0.0144204
698.206	0.0145094
698.285	0.0146332
698.363	0.0145756
698.441	0.0145962
698.519	0.0144940
698.597	0.0144710
698.675	0.0144785
698.753	0.0145589
698.831	0.0144958
698.910	0.0143337
698.988	0.0145400
699.066	0.0146198
699.144	0.0144680
699.222	0.0146155
699.300	0.0144680
699.378	0.0145605
699.456	0.0144096
699.535	0.0145141
699.613	0.0145562
699.691	0.0146749
699.769	0.0145744
699.847	0.0145802
699.925	0.0147756
700.003	0.0145589
700.081	0.0144829
700.160	0.0144418
700.238	0.0145183
700.316	0.0146617
700.394	0.0145607
700.472	0.0146375
700.550	0.0145770
700.628	0.0145077
700.706	0.0146247
700.785	0.0145863
700.863	0.0145933
700.941	0.0146167
701.019	0.0145623
701.097	0.0143684
701.175	0.0143313
701.253	0.0143100
701.331	0.0141605
701.410	0.0141850
701.488	0.0140405
701.566	0.0141170
701.644	0.0142043
701.722	0.0142354
701.800	0.0143626
701.878	0.0144530
701.956	0.0146260
702.035	0.0147527
702.113	0.0150208
702.191	0.0150566
702.269	0.0150985
702.347	0.0148856
702.425	0.0146367
702.503	0.0143795
702.581	0.0139088
702.660	0.0133836
702.738	0.0130608
702.816	0.0127273
702.894	0.0124907
702.972	0.0123163
703.050	0.0124400
703.128	0.0127002
703.206	0.0130142
703.285	0.0135121
703.363	0.0142451
703.441	0.0149890
703.519	0.0155588
703.597	0.0163622
703.675	0.0172061
703.753	0.0180638
703.831	0.0187247
703.910	0.0193546
703.988	0.0197272
704.066	0.0198062
704.144	0.0196365
704.222	0.0190302
704.300	0.0182112
704.378	0.0171785
704.456	0.0156527
704.535	0.0137695
704.613	0.0118441
704.691	0.00971764
704.769	0.00764709
704.847	0.00613106
704.925	0.00488693
705.003	0.00450211
705.081	0.00465927
705.160	0.00556252
705.238	0.00699829
705.316	0.00870811
705.394	0.0106951
705.472	0.0125664
705.550	0.0145262
705.628	0.0159952
705.706	0.0173035
705.785	0.0184233
705.863	0.0193764
705.941	0.0204082
706.019	0.0211703
706.097	0.0220210
706.175	0.0230142
706.253	0.0236152
706.331	0.0239656
706.410	0.0241426
706.488	0.0241043
706.566	0.0234790
706.644	0.0224995
706.722	0.0211824
706.800	0.0196603
706.878	0.0176462
706.956	0.0153492
707.035	0.0132520
707.113	0.0109055
707.191	0.00858971
707.269	0.00640167
707.347	0.00459259
707.425	0.00320244
707.503	0.00205109
707.581	0.00157120
707.660	0.00168152
707.738	0.00225700
707.816	0.00310966
707.894	0.00440521
707.972	0.00565254
708.050	0.00731392
708.128	0.00912735
708.206	0.0111150
708.285	0.0130895
708.363	0.0149024
708.441	0.0168797
708.519	0.0187147
708.597	0.0203783
708.675	0.0218938
708.753	0.0232934
708.831	0.0245835
708.910	0.0256158
708.988	0.0262598
709.066	0.0265289
709.144	0.0268384
709.222	0.0265645
709.300	0.0260110
709.378	0.0250892
709.456	0.0237389
709.535	0.0222851
709.613	0.0206834
709.691	0.0189222
709.769	0.0169431
709.847	0.0148768
709.925	0.0127227
710.003	0.0106726
710.081	0.00883980
710.160	0.00687698
710.238	0.00525780
710.316	0.00426018
710.394	0.00368896
710.472	0.00315903
710.550	0.00300079
710.628	0.00331154
710.706	0.00394714
710.785	0.00474915
710.863	0.00590179
710.941	0.00689095
711.019	0.00811348
711.097	0.00945381
711.175	0.0105551
711.253	0.0114985
711.331	0.0126700
711.410	0.0136314
711.488	0.0146482
711.566	0.0159563
711.644	0.0171262
711.722	0.0184217
711.800	0.0195850
711.878	0.0209547
711.956	0.0222385
712.035	0.0232973
712.113	0.0240895
712.191	0.0247272
712.269	0.0250723
712.347	0.0250956
712.425	0.0248048
712.503	0.0242654
712.581	0.0234180
712.660	0.0221800
712.738	0.0207565
712.816	0.0191689
712.894	0.0173000
712.972	0.0155592
713.050	0.0137183
713.128	0.0119246
713.206	0.0104311
713.285	0.00898834
713.363	0.00778748
713.441	0.00700890
713.519	0.00661346
713.597	0.00622566
713.675	0.00637688
713.753	0.00678719
713.831	0.00721352
713.910	0.00789726
713.988	0.00867279
714.066	0.00948280
714.144	0.0100919
714.222	0.0105690
714.300	0.0110613
714.378	0.0114212
714.456	0.0117075
714.535	0.0120531
714.613	0.0125436
714.691	0.0130014
714.769	0.0133820
714.847	0.0140586
714.925	0.0149176
715.003	0.0158792
715.081	0.0167640
715.160	0.0178488
715.238	0.0186910
715.316	0.0195136
715.394	0.0203841
715.472	0.0209181
715.550	0.0211073
715.628	0.0210448
715.706	0.0207976
715.785	0.0205911
715.863	0.0201205
715.941	0.0194802
716.019	0.0188013
716.097	0.0181017
716.175	0.0172392
716.253	0.0164410
716.331	0.0158304
716.410	0.0152344
716.488	0.0145368
716.566	0.0140528
716.644	0.0136913
716.722	0.0132848
716.800	0.0129425
716.878	0.0125732
716.956	0.0123774
717.035	0.0117815
717.113	0.0113995
717.191	0.0110238
717.269	0.0107075
717.347	0.0104066
717.425	0.0100106
717.503	0.00999786
717.581	0.00995155
717.660	0.00987122
717.738	0.00987427
717.816	0.0101407
717.894	0.0102068
717.972	0.0105442
718.050	0.0110557
718.128	0.0111952
718.206	0.0115846
718.285	0.0120987
718.363	0.0128824
718.441	0.0133755
718.519	0.0140394
718.597	0.0147309
718.675	0.0156341
718.753	0.0163409
718.831	0.0171326
718.910	0.0177749
718.988	0.0181987
719.066	0.0189313
719.144	0.0193066
719.222	0.0193449
719.300	0.0193954
719.378	0.0195038
719.456	0.0192476
719.535	0.0192451
719.613	0.0189159
719.691	0.0186390
719.769	0.0184849
719.847	0.0180964
719.925	0.0178209
720.003	0.0175561
720.081	0.0171257
720.160	0.0168272
720.238	0.0163306
720.316	0.0155276
720.394	0.0151283
720.472	0.0145372
720.550	0.0137276
720.628	0.0132070
720.706	0.0125761
720.785	0.0119022
720.863	0.0115043
720.941	0.0111670
721.019	0.0108326
721.097	0.0107503
721.175	0.0105756
721.253	0.0107434
721.331	0.0107459
721.410	0.0105669
721.488	0.0108656
721.566	0.0107764
721.644	0.0107095
721.722	0.0108522
721.800	0.0109401
721.878	0.0111446
721.956	0.0112155
722.035	0.0115241
722.113	0.0121159
722.191	0.0124492
722.269	0.0128834
722.347	0.0134061
722.425	0.0137788
722.503	0.0142487
722.581	0.0148610
722.660	0.0154723
722.738	0.0160725
722.816	0.0167767
722.894	0.0172193
722.972	0.0179852
723.050	0.0184523
723.128	0.0186623
723.206	0.0190629
723.285	0.0189369
723.363	0.0188779
723.441	0.0187142
723.519	0.0184920
723.597	0.0180147
723.675	0.0176169
723.753	0.0172973
723.831	0.0168774
723.910	0.0164390
723.988	0.0160338
724.066	0.0156763
724.144	0.0154096
724.222	0.0150728
724.300	0.0148482
724.378	0.0148166
724.456	0.0146172
724.535	0.0143139
724.613	0.0142823
724.691	0.0142079
724.769	0.0140472
724.847	0.0139890
724.925	0.0138153
725.003	0.0136903
725.081	0.0132712
725.160	0.0129927
725.238	0.0127390
725.316	0.0123629
725.394	0.0121274
725.472	0.0119476
725.550	0.0117249
725.628	0.0115589
725.706	0.0115879
725.785	0.0115479
725.863	0.0114284
725.941	0.0115141
726.019	0.0116363
726.097	0.0117585
726.175	0.0119756
726.253	0.0121573
726.331	0.0123820
726.410	0.0127612
726.488	0.0130161
726.566	0.0133820
726.644	0.0136548
726.722	0.0140725
726.800	0.0144267
726.878	0.0147516
726.956	0.0151863
727.035	0.0155578
727.113	0.0160158
727.191	0.0164249
727.269	0.0164954
727.347	0.0170052
727.425	0.0171262
727.503	0.0172819
727.581	0.0174428
727.660	0.0174687
727.738	0.0174168
727.816	0.0172519
727.894	0.0171871
727.972	0.0169472
728.050	0.0168109
728.128	0.0167616
728.206	0.0165880
728.285	0.0164515
728.363	0.0164480
728.441	0.0162891
728.519	0.0159039
728.597	0.0157484
728.675	0.0156528
728.753	0.0154319
728.831	0.0152422
728.910	0.0149361
728.988	0.0147327
729.066	0.0144367
729.144	0.0141214
729.222	0.0137712
729.300	0.0135606
729.378	0.0132464
729.456	0.0129641
729.535	0.0128143
729.613	0.0125463
729.691	0.0122507
729.769	0.0122354
729.847	0.0120681
729.925	0.0120929
730.003	0.0120921
730.081	0.0122652
730.160	0.0122881
730.238	0.0125218
730.316	0.0125421
730.394	0.0125765
730.472	0.0125314
730.550	0.0125458
730.628	0.0126241
730.706	0.0126041
730.785	0.0124442
730.863	0.0126169
730.941	0.0127371
731.019	0.0130496
731.097	0.0131786
731.175	0.0134073
731.253	0.0138755
731.331	0.0141530
731.410	0.0146457
731.488	0.0152171
731.566	0.0158817
731.644	0.0161714
731.722	0.0166074
731.800	0.0171979
731.878	0.0174155
731.956	0.0176069
732.035	0.0176770
732.113	0.0175534
732.191	0.0175731
732.269	0.0171892
732.347	0.0169494
732.425	0.0166174
732.503	0.0163545
732.581	0.0159249
732.660	0.0155048
732.738	0.0154164
732.816	0.0150299
732.894	0.0149152
732.972	0.0148689
733.050	0.0148117
733.128	0.0148323
733.206	0.0150011
733.285	0.0151240
733.363	0.0152204
733.441	0.0151537
733.519	0.0153025
733.597	0.0154277
733.675	0.0153153
733.753	0.0151229
733.831	0.0148701
733.910	0.0146080
733.988	0.0142036
734.066	0.0139113
734.144	0.0135713
734.222	0.0130695
734.300	0.0124950
734.378	0.0120433
734.456	0.0118102
734.535	0.0116505
734.613	0.0113652
734.691	0.0113485
734.769	0.0114281
734.847	0.0115912
734.925	0.0118369
735.003	0.0121556
735.081	0.0124398
735.160	0.0127447
735.238	0.0130644
735.316	0.0132674
735.394	0.0134759
735.472	0.0138143
735.550	0.0140540
735.628	0.0142089
735.706	0.0144416
735.785	0.0146664
735.863	0.0148354
735.941	0.0148720
736.019	0.0148221
736.097	0.0150328
736.175	0.0150401
736.253	0.0151567
736.331	0.0154333
736.410	0.0155471
736.488	0.0157133
736.566	0.0159502
736.644	0.0160497
736.722	0.0161405
736.800	0.0161520
736.878	0.0162143
736.956	0.0162817
737.035	0.0161718
737.113	0.0160948
737.191	0.0160123
737.269	0.0160469
737.347	0.0158678
737.425	0.0157859
737.503	0.0158359
737.581	0.0158850
737.660	0.0156790
737.738	0.0157433
737.816	0.0157364
737.894	0.0156351
737.972	0.0153728
738.050	0.0153088
738.128	0.0152807
738.206	0.0148368
738.285	0.0148332
738.363	0.0145935
738.441	0.0143311
738.519	0.0140622
738.597	0.0139018
738.675	0.0137617
738.753	0.0135929
738.831	0.0134804
738.910	0.0133772
738.988	0.0131541
739.066	0.0132524
739.144	0.0131912
739.222	0.0132967
739.300	0.0134246
739.378	0.0135873
739.456	0.0136069
739.535	0.0136597
739.613	0.0137209
739.691	0.0138238
739.769	0.0137213
739.847	0.0137525
739.925	0.0138290
740.003	0.0135356
740.081	0.0134290
740.160	0.0133429
740.238	0.0131366
740.316	0.0134963
740.394	0.0133112
740.472	0.0132438
740.550	0.0134943
740.628	0.0134175
740.706	0.0138017
740.785	0.0138898
740.863	0.0139312
740.941	0.0141789
741.019	0.0141963
741.097	0.0143280
741.175	0.0144555
741.253	0.0148706
741.331	0.0147243
741.410	0.0149384
741.488	0.0151138
741.566	0.0152048
741.644	0.0152014
741.722	0.0154118
741.800	0.0154443
741.878	0.0154485
741.956	0.0157641
742.035	0.0159933
742.113	0.0159345
742.191	0.0159262
742.269	0.0159930
742.347	0.0161190
742.425	0.0161249
742.503	0.0159921
742.581	0.0160878
742.660	0.0159963
742.738	0.0158194
742.816	0.0157590
742.894	0.0156258
742.972	0.0154781
743.050	0.0154505
743.128	0.0153072
743.206	0.0150904
743.285	0.0149576
743.363	0.0147897
743.441	0.0146391
743.519	0.0143658
743.597	0.0142535
743.675	0.0140136
743.753	0.0138538
743.831	0.0138046
743.910	0.0137020
743.988	0.0135373
744.066	0.0134750
744.144	0.0134550
744.222	0.0133548
744.300	0.0133048
744.378	0.0133047
744.456	0.0133328
744.535	0.0132336
744.613	0.0131417
744.691	0.0133732
744.769	0.0133069
744.847	0.0132103
744.925	0.0130634
745.003	0.0133361
745.081	0.0132642
745.160	0.0134343
745.238	0.0134539
745.316	0.0135397
745.394	0.0137267
745.472	0.0138757
745.550	0.0141973
745.628	0.0142924
745.706	0.0144564
745.785	0.0145950
745.863	0.0148178
745.941	0.0147901
746.019	0.0151045
746.097	0.0152744
746.175	0.0155583
746.253	0.0154948
746.331	0.0155851
746.410	0.0156880
746.488	0.0157710
746.566	0.0157131
746.644	0.0157520
746.722	0.0157842
746.800	0.0157503
746.878	0.0156686
746.956	0.0158031
747.035	0.0156882
747.113	0.0155580
747.191	0.0151793
747.269	0.0152698
747.347	0.0151633
747.425	0.0151203
747.503	0.0149873
747.581	0.0146608
747.660	0.0146579
747.738	0.0146825
747.816	0.0146531
747.894	0.0145174
747.972	0.0143156
748.050	0.0143626
748.128	0.0142794
748.206	0.0142467
748.285	0.0139525
748.363	0.0139709
748.441	0.0138232
748.519	0.0136758
748.597	0.0138805
748.675	0.0135629
748.753	0.0137659
748.831	0.0136918
748.910	0.0136209
748.988	0.0136195
749.066	0.0135170
749.144	0.0136058
749.222	0.0136935
749.300	0.0136396
749.378	0.0135918
749.456	0.0135659
749.535	0.0137273
749.613	0.0138759
749.691	0.0139553
749.769	0.0140988
749.847	0.0141969
749.925	0.0142847
750.003	0.0143928
750.081	0.0144714
750.160	0.0146661
750.238	0.0148818
750.316	0.0149211
750.394	0.0150198
750.472	0.0151263
750.550	0.0152254
750.628	0.0153082
750.706	0.0152573
750.785	0.0153339
750.863	0.0153636
750.941	0.0154605
751.019	0.0153445
751.097	0.0155164
751.175	0.0153481
751.253	0.0152718
751.331	0.0154741
751.410	0.0153625
751.488	0.0153214
751.566	0.0152688
751.644	0.0149859
751.722	0.0149470
751.800	0.0147696
751.878	0.0146249
751.956	0.0145786
752.035	0.0145016
752.113	0.0143656
752.191	0.0143004
752.269	0.0143468
752.347	0.0142985
752.425	0.0141229
752.503	0.0141505
752.581	0.0141001
752.660	0.0139643
752.738	0.0139101
752.816	0.0138273
752.894	0.0137418
752.972	0.0136450
753.050	0.0136100
753.128	0.0135848
753.206	0.0134447
753.285	0.0135455
753.363	0.0134009
753.441	0.0133713
753.519	0.0135830
753.597	0.0137571
753.675	0.0137421
753.753	0.0139915
753.831	0.0141434
753.910	0.0142666
753.988	0.0142941
754.066	0.0145057
754.144	0.0146799
754.222	0.0149393
754.300	0.0148552
754.378	0.0149020
754.456	0.0148858
754.535	0.0148529
754.613	0.0150764
754.691	0.0151514
754.769	0.0151690
754.847	0.0150732
754.925	0.0150008
755.003	0.0150420
755.081	0.0149059
755.160	0.0148770
755.238	0.0148381
755.316	0.0148820
755.394	0.0149009
755.472	0.0148510
755.550	0.0148038
755.628	0.0147377
755.706	0.0146397
755.785	0.0146779
755.863	0.0146303
755.941	0.0145356
756.019	0.0146245
756.097	0.0145748
756.175	0.0146068
756.253	0.0145139
756.331	0.0145397
756.410	0.0144842
756.488	0.0144503
756.566	0.0144165
756.644	0.0143068
756.722	0.0142476
756.800	0.0141442
756.878	0.0141182
756.956	0.0141483
757.035	0.0140350
757.113	0.0140607
757.191	0.0140814
757.269	0.0140247
757.347	0.0140487
757.425	0.0141547
757.503	0.0143119
757.581	0.0143695
757.660	0.0145017
757.738	0.0145559
757.816	0.0147623
757.894	0.0148296
757.972	0.0150311
758.050	0.0150730
758.128	0.0149811
758.206	0.0150894
758.285	0.0152299
758.363	0.0151215
758.441	0.0151804
758.519	0.0152567
758.597	0.0151862
758.675	0.0152473
758.753	0.0152217
758.831	0.0150179
758.910	0.0149715
758.988	0.0149757
759.066	0.0147815
759.144	0.0146592
759.222	0.0145544
759.300	0.0144912
759.378	0.0143379
759.456	0.0141404
759.535	0.0139699
759.613	0.0141600
759.691	0.0140157
759.769	0.0137686
759.847	0.0137224
759.925	0.0136704
760.003	0.0136362
760.081	0.0135229
760.160	0.0134682
760.238	0.0133987
760.316	0.0134176
760.394	0.0133857
760.472	0.0135546
760.550	0.0134382
760.628	0.0133996
760.706	0.0135571
760.785	0.0136507
760.863	0.0137307
760.941	0.0138663
761.019	0.0140132
761.097	0.0142153
761.175	0.0143955
761.253	0.0145035
761.331	0.0146212
761.410	0.0149777
761.488	0.0150447
761.566	0.0151383
761.644	0.0152866
761.722	0.0154733
761.800	0.0156392
761.878	0.0155035
761.956	0.0155920
762.035	0.0155267
762.113	0.0156137
762.191	0.0155748
762.269	0.0155219
762.347	0.0155356
762.425	0.0154386
762.503	0.0153066
762.581	0.0153022
762.660	0.0151303
762.738	0.0150459
762.816	0.0150461
762.894	0.0149621
762.972	0.0149139
763.050	0.0148375
763.128	0.0147624
763.206	0.0147212
763.285	0.0146671
763.363	0.0146706
763.441	0.0145272
763.519	0.0144270
763.597	0.0145291
763.675	0.0144270
763.753	0.0143583
763.831	0.0142775
763.910	0.0142627
763.988	0.0141600
764.066	0.0142410
764.144	0.0142558
764.222	0.0139854
764.300	0.0141605
764.378	0.0140715
764.456	0.0140208
764.535	0.0139404
764.613	0.0141080
764.691	0.0140724
764.769	0.0139323
764.847	0.0142262
764.925	0.0141670
765.003	0.0141850
765.081	0.0142632
765.160	0.0141827
765.238	0.0143195
765.316	0.0142163
765.394	0.0141599
765.472	0.0141105
765.550	0.0141831
765.628	0.0141520
765.706	0.0143362
765.785	0.0142358
765.863	0.0140546
765.941	0.0142416
766.019	0.0142551
766.097	0.0142555
766.175	0.0143089
766.253	0.0143153
766.331	0.0144151
766.410	0.0143948
766.488	0.0144275
766.566	0.0145605
766.644	0.0145521
766.722	0.0146671
766.800	0.0147821
766.878	0.0146797
766.956	0.0147796
767.035	0.0148299
767.113	0.0148281
767.191	0.0149334
767.269	0.0149515
767.347	0.0149225
767.425	0.0150529
767.503	0.0149866
767.581	0.0150321
767.660	0.0149727
767.738	0.0149338
767.816	0.0149277
767.894	0.0147443
767.972	0.0146949
768.050	0.0147382
768.128	0.0146351
768.206	0.0146101
768.285	0.0146117
768.363	0.0145469
768.441	0.0143888
768.519	0.0144321
768.597	0.0145397
768.675	0.0145257
768.753	0.0145264
768.831	0.0143544
768.910	0.0144371
768.988	0.0143273
769.066	0.0143063
769.144	0.0141673
769.222	0.0141379
769.300	0.0139269
769.378	0.0141370
769.456	0.0139972
769.535	0.0139621
769.613	0.0139766
769.691	0.0139735
769.769	0.0139059
769.847	0.0139149
769.925	0.0139705
770.003	0.0141359
770.081	0.0142365
770.160	0.0142465
770.238	0.0143362
770.316	0.0143553
770.394	0.0144389
770.472	0.0145444
770.550	0.0146718
770.628	0.0147266
770.706	0.0149216
770.785	0.0149136
770.863	0.0150241
770.941	0.0151068
771.019	0.0150937
771.097	0.0152380
771.175	0.0151590
771.253	0.0153158
771.331	0.0152601
771.410	0.0152785
771.488	0.0151231
771.566	0.0150536
771.644	0.0150343
771.722	0.0150481
771.800	0.0149832
771.878	0.0148310
771.956	0.0147424
772.035	0.0146838
772.113	0.0146033
772.191	0.0145185
772.269	0.0143909
772.347	0.0144263
772.425	0.0144141
772.503	0.0142262
772.581	0.0142429
772.660	0.0142062
772.738	0.0139743
772.816	0.0139494
772.894	0.0141267
772.972	0.0140627
773.050	0.0139207
773.128	0.0139135
773.206	0.0139468
773.285	0.0139075
773.363	0.0139667
773.441	0.0139978
773.519	0.0140857
773.597	0.0141448
773.675	0.0140385
773.753	0.0142353
773.831	0.0142517
773.910	0.0142593
773.988	0.0145736
774.066	0.0144619
774.144	0.0144342
774.222	0.0147498
774.300	0.0147330
774.378	0.0147897
774.456	0.0147453
774.535	0.0147206
774.613	0.0148033
774.691	0.0147959
774.769	0.0147059
774.847	0.0147347
774.925	0.0146993
775.003	0.0147698
775.081	0.0148250
775.160	0.0147388
775.238	0.0148690
775.316	0.0149274
775.394	0.0148219
775.472	0.0150041
775.550	0.0148099
775.628	0.0147897
775.706	0.0147695
775.785	0.0148182
775.863	0.0148121
775.941	0.0147288
776.019	0.0147459
776.097	0.0145847
776.175	0.0145522
776.253	0.0145447
776.331	0.0144654
776.410	0.0143763
776.488	0.0144443
776.566	0.0142704
776.644	0.0142105
776.722	0.0142509
776.800	0.0141842
776.878	0.0142001
776.956	0.0140469
777.035	0.0140290
777.113	0.0140049
777.191	0.0140359
777.269	0.0140804
777.347	0.0140402
777.425	0.0141600
777.503	0.0141726
777.581	0.0141324
777.660	0.0140031
777.738	0.0142226
777.816	0.0142094
777.894	0.0144027
777.972	0.0142905
778.050	0.0142916
778.128	0.0143908
778.206	0.0144491
778.285	0.0146175
778.363	0.0145872
778.441	0.0146505
778.519	0.0146006
778.597	0.0146185
778.675	0.0145881
778.753	0.0147562
778.831	0.0148190
778.910	0.0148592
778.988	0.0147496
779.066	0.0149207
779.144	0.0149192
779.222	0.0150585
779.300	0.0149358
779.378	0.0149270
779.456	0.0148547
779.535	0.0148955
779.613	0.0147149
779.691	0.0147227
779.769	0.0146496
779.847	0.0146488
779.925	0.0146838
780.003	0.0146368
780.081	0.0145425
780.160	0.0144695
780.238	0.0144225
780.316	0.0143896
780.394	0.0143945
780.472	0.0143494
780.550	0.0142813
780.628	0.0142244
780.706	0.0141187
780.785	0.0141402
780.863	0.0140100
780.941	0.0140611
781.019	0.0140170
781.097	0.0139523
781.175	0.0138992
781.253	0.0140697
781.331	0.0138850
781.410	0.0138361
781.488	0.0140112
781.566	0.0140311
781.644	0.0141238
781.722	0.0139945
781.800	0.0141119
781.878	0.0139924
781.956	0.0140935
782.035	0.0141113
782.113	0.0142620
782.191	0.0142181
782.269	0.0143340
782.347	0.0143961
782.425	0.0144254
782.503	0.0145217
782.581	0.0146907
782.660	0.0146866
782.738	0.0148724
782.816	0.0151092
782.894	0.0150410
782.972	0.0152248
783.050	0.0152392
783.128	0.0152912
783.206	0.0153714
783.285	0.0152723
783.363	0.0151633
783.441	0.0151816
783.519	0.0151829
783.597	0.0150993
783.675	0.0149930
783.753	0.0149174
783.831	0.0148505
783.910	0.0148202
783.988	0.0145695
784.066	0.0145853
784.144	0.0144346
784.222	0.0142649
784.300	0.0144231
784.378	0.0142712
784.456	0.0143092
784.535	0.0141988
784.613	0.0141480
784.691	0.0140743
784.769	0.0142593
784.847	0.0143690
784.925	0.0142082
785.003	0.0142353
785.081	0.0142165
785.160	0.0140820
785.238	0.0140397
785.316	0.0142117
785.394	0.0143622
785.472	0.0142122
785.550	0.0141267
785.628	0.0142197
785.706	0.0142388
785.785	0.0141855
785.863	0.0141389
785.941	0.0141941
786.019	0.0143549
786.097	0.0144582
786.175	0.0143306
786.253	0.0143261
786.331	0.0145621
786.410	0.0145169
786.488	0.0145835
786.566	0.0147735
786.644	0.0148154
786.722	0.0147424
786.800	0.0148064
786.878	0.0147683
786.956	0.0148797
787.035	0.0149561
787.113	0.0148549
787.191	0.0148307
787.269	0.0148949
787.347	0.0149123
787.425	0.0149059
787.503	0.0149356
787.581	0.0148550
787.660	0.0147208
787.738	0.0148153
787.816	0.0147456
787.894	0.0146640
787.972	0.0146105
788.050	0.0146861
788.128	0.0145147
788.206	0.0145491
788.285	0.0144604
788.363	0.0145285
788.441	0.0144582
788.519	0.0144540
788.597	0.0142818
788.675	0.0142815
788.753	0.0143062
788.831	0.0141658
788.910	0.0141470
788.988	0.0140947
789.066	0.0141459
789.144	0.0141013
789.222	0.0139011
789.300	0.0141393
789.378	0.0139918
789.456	0.0139335
789.535	0.0139894
789.613	0.0141179
789.691	0.0141750
789.769	0.0140417
789.847	0.0141122
789.925	0.0142426
790.003	0.0142207
790.081	0.0143602
790.160	0.0144601
790.238	0.0147739
790.316	0.0146547
790.394	0.0147215
790.472	0.0147982
790.550	0.0148079
790.628	0.0147234
790.706	0.0148653
790.785	0.0149619
790.863	0.0149352
790.941	0.0150381
791.019	0.0150476
791.097	0.0149936
791.175	0.0150506
791.253	0.0151479
791.331	0.0151527
791.410	0.0149478
791.488	0.0151922
791.566	0.0151891
791.644	0.0149174
791.722	0.0150296
791.800	0.0148865
791.878	0.0149405
791.956	0.0149225
792.035	0.0147586
792.113	0.0147006
792.191	0.0146638
792.269	0.0146671
792.347	0.0145224
792.425	0.0143851
792.503	0.0144915
792.581	0.0142171
792.660	0.0143274
792.738	0.0144077
792.816	0.0144936
792.894	0.0142475
792.972	0.0142317
793.050	0.0141952
793.128	0.0142393
793.206	0.0142042
793.285	0.0141617
793.363	0.0141397
793.441	0.0139292
793.519	0.0141081
793.597	0.0142371
793.675	0.0141167
793.753	0.0142422
793.831	0.0143083
793.910	0.0143265
793.988	0.0144051
794.066	0.0144218
794.144	0.0144221
794.222	0.0145139
794.300	0.0146427
794.378	0.0146011
794.456	0.0147163
794.535	0.0146284
794.613	0.0147031
794.691	0.0146869
794.769	0.0148216
794.847	0.0146552
794.925	0.0148542
795.003	0.0146481
795.081	0.0146433
795.160	0.0147790
795.238	0.0148492
795.316	0.0146831
795.394	0.0147205
795.472	0.0146052
795.550	0.0147032
795.628	0.0147933
795.706	0.0146329
795.785	0.0147839
795.863	0.0146989
795.941	0.0145576
796.019	0.0145789
796.097	0.0145762
796.175	0.0146294
796.253	0.0145155
796.331	0.0146001
796.410	0.0144391
796.488	0.0144032
796.566	0.0143671
796.644	0.0142989
796.722	0.0143727
796.800	0.0143539
796.878	0.0141209
796.956	0.0141684
797.035	0.0143455
797.113	0.0141886
797.191	0.0141655
797.269	0.0141530
797.347	0.0141818
797.425	0.0142629
797.503	0.0141336
797.581	0.0141537
797.660	0.0141692
797.738	0.0143086
797.816	0.0140841
797.894	0.0141650
797.972	0.0142248
798.050	0.0143355
798.128	0.0142950
798.206	0.0141667
798.285	0.0143319
798.363	0.0142642
798.441	0.0142547
798.519	0.0142477
798.597	0.0142982
798.675	0.0142933
798.753	0.0144394
798.831	0.0144994
798.910	0.0145168
798.988	0.0146654
799.066	0.0147724
799.144	0.0148525
799.222	0.0150431
799.300	0.0151978
799.378	0.0151852
799.456	0.0154030
799.535	0.0153943
799.613	0.0155977
799.691	0.0156839
799.769	0.0154860
799.847	0.0155704
799.925	0.0155472
800.003	0.0153294
800.081	0.0152517
800.160	0.0151846
800.238	0.0150411
800.316	0.0147681
800.394	0.0145771
800.472	0.0144234
800.550	0.0141386
800.628	0.0139136
800.706	0.0135136
800.785	0.0133562
800.863	0.0133713
800.941	0.0134531
801.019	0.0133736
801.097	0.0134029
801.175	0.0134355
801.253	0.0135110
801.331	0.0135593
801.410	0.0137109
801.488	0.0139073
801.566	0.0140440
801.644	0.0142411
801.722	0.0144736
801.800	0.0146110
801.878	0.0146633
801.956	0.0149171
802.035	0.0148924
802.113	0.0150537
802.191	0.0151762
802.269	0.0154813
802.347	0.0153335
802.425	0.0154585
802.503	0.0153843
802.581	0.0151515
802.660	0.0150724
802.738	0.0150309
802.816	0.0148057
802.894	0.0144912
802.972	0.0144086
803.050	0.0141547
803.128	0.0140141
803.206	0.0139105
803.285	0.0140069
803.363	0.0137539
803.441	0.0139224
803.519	0.0137626
803.597	0.0137120
803.675	0.0137550
803.753	0.0139099
803.831	0.0139687
803.910	0.0140872
803.988	0.0141544
804.066	0.0140945
804.144	0.0141294
804.222	0.0143814
804.300	0.0143729
804.378	0.0144999
804.456	0.0146613
804.535	0.0145935
804.613	0.0147496
804.691	0.0149207
804.769	0.0149085
804.847	0.0150600
804.925	0.0149670
805.003	0.0153183
805.081	0.0154366
805.160	0.0153127
805.238	0.0153244
805.316	0.0154837
805.394	0.0154346
805.472	0.0152808
805.550	0.0151533
805.628	0.0152625
805.706	0.0150545
805.785	0.0146815
805.863	0.0145808
805.941	0.0143967
806.019	0.0141004
806.097	0.0140445
806.175	0.0138256
806.253	0.0135115
806.331	0.0133700
806.410	0.0134189
806.488	0.0134634
806.566	0.0133812
806.644	0.0134131
806.722	0.0134243
806.800	0.0134991
806.878	0.0133578
806.956	0.0135593
807.035	0.0136775
807.113	0.0137177
807.191	0.0137670
807.269	0.0139043
807.347	0.0141149
807.425	0.0143036
807.503	0.0143865
807.581	0.0145958
807.660	0.0146173
807.738	0.0147940
807.816	0.0149494
807.894	0.0150180
807.972	0.0152660
808.050	0.0153018
808.128	0.0155228
808.206	0.0157106
808.285	0.0157587
808.363	0.0158591
808.441	0.0158724
808.519	0.0158883
808.597	0.0158843
808.675	0.0158822
808.753	0.0156450
808.831	0.0155363
808.910	0.0154575
808.988	0.0153354
809.066	0.0150478
809.144	0.0149694
809.222	0.0147399
809.300	0.0144497
809.378	0.0142893
809.456	0.0143152
809.535	0.0140659
809.613	0.0140340
809.691	0.0138901
809.769	0.0137751
809.847	0.0137402
809.925	0.0135950
810.003	0.0136189
810.081	0.0137152
810.160	0.0137078
810.238	0.0135776
810.316	0.0135577
810.394	0.0136052
810.472	0.0136461
810.550	0.0135538
810.628	0.0136449
810.706	0.0136784
810.785	0.0137646
810.863	0.0139247
810.941	0.0139510
811.019	0.0140127
811.097	0.0140887
811.175	0.0142844
811.253	0.0143169
811.331	0.0146507
811.410	0.0146728
811.488	0.0147420
811.566	0.0150114
811.644	0.0151224
811.722	0.0151151
811.800	0.0152889
811.878	0.0155011
811.956	0.0154041
812.035	0.0153812
812.113	0.0154319
812.191	0.0153371
812.269	0.0153107
812.347	0.0152979
812.425	0.0154140
812.503	0.0151801
812.581	0.0151977
812.660	0.0150818
812.738	0.0148757
812.816	0.0148665
812.894	0.0148229
812.972	0.0146964
813.050	0.0144855
813.128	0.0144827
813.206	0.0143215
813.285	0.0142163
813.363	0.0142443
813.441	0.0142007
813.519	0.0140047
813.597	0.0140762
813.675	0.0139567
813.753	0.0138692
813.831	0.0139004
813.910	0.0138197
813.988	0.0137794
814.066	0.0140158
814.144	0.0140649
814.222	0.0139273
814.300	0.0141037
814.378	0.0141383
814.456	0.0143064
814.535	0.0141930
814.613	0.0142780
814.691	0.0142519
814.769	0.0143973
814.847	0.0145977
814.925	0.0146117
815.003	0.0146419
815.081	0.0148561
815.160	0.0148732
815.238	0.0150124
815.316	0.0149532
815.394	0.0150220
815.472	0.0150954
815.550	0.0151072
815.628	0.0150681
815.706	0.0150862
815.785	0.0150001
815.863	0.0149501
815.941	0.0148656
816.019	0.0149126
816.097	0.0148113
816.175	0.0146362
816.253	0.0147720
816.331	0.0145919
816.410	0.0144469
816.488	0.0143787
816.566	0.0142715
816.644	0.0142703
816.722	0.0144032
816.800	0.0141917
816.878	0.0142712
816.956	0.0142764
817.035	0.0143408
817.113	0.0142788
817.191	0.0142266
817.269	0.0144122
817.347	0.0143756
817.425	0.0142564
817.503	0.0144200
817.581	0.0145547
817.660	0.0144334
817.738	0.0145309
817.816	0.0144596
817.894	0.0145029
817.972	0.0144907
818.050	0.0145611
818.128	0.0145217
818.206	0.0145535
818.285	0.0144522
818.363	0.0143251
818.441	0.0143672
818.519	0.0143985
818.597	0.0142785
818.675	0.0143844
818.753	0.0144336
818.831	0.0143053
818.910	0.0141952
818.988	0.0143446
819.066	0.0144131
819.144	0.0144975
819.222	0.0143896
819.300	0.0144423
819.378	0.0143916
819.456	0.0143404
819.535	0.0144261
819.613	0.0143465
819.691	0.0144867
819.769	0.0145206
819.847	0.0144210
819.925	0.0144283
820.003	0.0144441
820.081	0.0143957
820.160	0.0143380
820.238	0.0144183
820.316	0.0145773
820.394	0.0146436
820.472	0.0145014
820.550	0.0144594
820.628	0.0145653
820.706	0.0146307
820.785	0.0147817
820.863	0.0148015
820.941	0.0147671
821.019	0.0148755
821.097	0.0147913
821.175	0.0148175
821.253	0.0149554
821.331	0.0149615
821.410	0.0149490
821.488	0.0150103
821.566	0.0148414
821.644	0.0148626
821.722	0.0147749
821.800	0.0148238
821.878	0.0147795
821.956	0.0146399
822.035	0.0145898
822.113	0.0145315
822.191	0.0143883
822.269	0.0144018
822.347	0.0144211
822.425	0.0142498
822.503	0.0143559
822.581	0.0142245
822.660	0.0142185
822.738	0.0144714
822.816	0.0143337
822.894	0.0144139
822.972	0.0143319
823.050	0.0143902
823.128	0.0144910
823.206	0.0144035
823.285	0.0144271
823.363	0.0146422
823.441	0.0145226
823.519	0.0145439
823.597	0.0145448
823.675	0.0146555
823.753	0.0145402
823.831	0.0145268
823.910	0.0145911
823.988	0.0144843
824.066	0.0144439
824.144	0.0146312
824.222	0.0146850
824.300	0.0148444
824.378	0.0145684
824.456	0.0147440
824.535	0.0146715
824.613	0.0147820
824.691	0.0148499
824.769	0.0148157
824.847	0.0147269
824.925	0.0146872
825.003	0.0146992
825.081	0.0146793
825.160	0.0146908
825.238	0.0146243
825.316	0.0146062
825.394	0.0144749
825.472	0.0143481
825.550	0.0145221
825.628	0.0143365
825.706	0.0143525
825.785	0.0142404
825.863	0.0142977
825.941	0.0143600
826.019	0.0142799
826.097	0.0144104
826.175	0.0144168
826.253	0.0143813
826.331	0.0144267
826.410	0.0142809
826.488	0.0142995
826.566	0.0144421
826.644	0.0142020
826.722	0.0141450
826.800	0.0141571
826.878	0.0142339
826.956	0.0142607
827.035	0.0141948
827.113	0.0143709
827.191	0.0144149
827.269	0.0145284
827.347	0.0147260
827.425	0.0147723
827.503	0.0148516
827.581	0.0149450
827.660	0.0152256
827.738	0.0151107
827.816	0.0150995
827.894	0.0151917
827.972	0.0153770
828.050	0.0152507
828.128	0.0153004
828.206	0.0152611
828.285	0.0153384
828.363	0.0151488
828.441	0.0151073
828.519	0.0148737
828.597	0.0147717
828.675	0.0145954
828.753	0.0145240
828.831	0.0143491
828.910	0.0142612
828.988	0.0141501
829.066	0.0140913
829.144	0.0139958
829.222	0.0139116
829.300	0.0139378
829.378	0.0138974
829.456	0.0139340
829.535	0.0139046
829.613	0.0138485
829.691	0.0138837
829.769	0.0141050
829.847	0.0140098
829.925	0.0142847
830.003	0.0142522
830.081	0.0144646
830.160	0.0143654
830.238	0.0145250
830.316	0.0146253
830.394	0.0146795
830.472	0.0147189
830.550	0.0146844
830.628	0.0148146
830.706	0.0148882
830.785	0.0148898
830.863	0.0149712
830.941	0.0148952
831.019	0.0148193
831.097	0.0149074
831.175	0.0149580
831.253	0.0147163
831.331	0.0148763
831.410	0.0147665
831.488	0.0146828
831.566	0.0147473
831.644	0.0146119
831.722	0.0146300
831.800	0.0147376
831.878	0.0143548
831.956	0.0142763
832.035	0.0143584
832.113	0.0143033
832.191	0.0141751
832.269	0.0143519
832.347	0.0141442
832.425	0.0140885
832.503	0.0141914
832.581	0.0141041
832.660	0.0139827
832.738	0.0141692
832.816	0.0140642
832.894	0.0140440
832.972	0.0143552
833.050	0.0143610
833.128	0.0143011
833.206	0.0143951
833.285	0.0146328
833.363	0.0144915
833.441	0.0146953
833.519	0.0148190
833.597	0.0147962
833.675	0.0148378
833.753	0.0146873
833.831	0.0148701
833.910	0.0148582
833.988	0.0147617
834.066	0.0148589
834.144	0.0146922
834.222	0.0147266
834.300	0.0145664
834.378	0.0145313
834.456	0.0145677
834.535	0.0144976
834.613	0.0145212
834.691	0.0144727
834.769	0.0144775
834.847	0.0144402
834.925	0.0144580
835.003	0.0144917
835.081	0.0145691
835.160	0.0144419
835.238	0.0144765
835.316	0.0145488
835.394	0.0146500
835.472	0.0145477
835.550	0.0145753
835.628	0.0146397
835.706	0.0147407
835.785	0.0146851
835.863	0.0145762
835.941	0.0147456
836.019	0.0147437
836.097	0.0148505
836.175	0.0147842
836.253	0.0147407
836.331	0.0147211
836.410	0.0148081
836.488	0.0147414
836.566	0.0147856
836.644	0.0148071
836.722	0.0146706
836.800	0.0146569
836.878	0.0146723
836.956	0.0145469
837.035	0.0144759
837.113	0.0143638
837.191	0.0142152
837.269	0.0143181
837.347	0.0139877
837.425	0.0142506
837.503	0.0140051
837.581	0.0139960
837.660	0.0140179
837.738	0.0139724
837.816	0.0139839
837.894	0.0140599
837.972	0.0139197
838.050	0.0141440
838.128	0.0141593
838.206	0.0142720
838.285	0.0143222
838.363	0.0142860
838.441	0.0141930
838.519	0.0145224
838.597	0.0144931
838.675	0.0145069
838.753	0.0145679
838.831	0.0146169
838.910	0.0146229
838.988	0.0147374
839.066	0.0148349
839.144	0.0149548
839.222	0.0149264
839.300	0.0149347
839.378	0.0148059
839.456	0.0149277
839.535	0.0148194
839.613	0.0150021
839.691	0.0147653
839.769	0.0146960
839.847	0.0145486
839.925	0.0143793
840.003	0.0145077
840.081	0.0144299
840.160	0.0144547
840.238	0.0144114
840.316	0.0145665
840.394	0.0144804
840.472	0.0145081
840.550	0.0145394
840.628	0.0146542
840.706	0.0145728
840.785	0.0145701
840.863	0.0145728
840.941	0.0146048
841.019	0.0146146
841.097	0.0146376
841.175	0.0143861
841.253	0.0144783
841.331	0.0145283
841.410	0.0144215
841.488	0.0142847
841.566	0.0143671
841.644	0.0143432
841.722	0.0143883
841.800	0.0143446
841.878	0.0144583
841.956	0.0142976
842.035	0.0142924
842.113	0.0143307
842.191	0.0143686
842.269	0.0142989
842.347	0.0141549
842.425	0.0141349
842.503	0.0141822
842.581	0.0142999
842.660	0.0142223
842.738	0.0143482
842.816	0.0142757
842.894	0.0144179
842.972	0.0143601
843.050	0.0144003
843.128	0.0144807
843.206	0.0146029
843.285	0.0145149
843.363	0.0144612
843.441	0.0146546
843.519	0.0147456
843.597	0.0147322
843.675	0.0147535
843.753	0.0147931
843.831	0.0148654
843.910	0.0148167
843.988	0.0152291
844.066	0.0151349
844.144	0.0149930
844.222	0.0151675
844.300	0.0150888
844.378	0.0152645
844.456	0.0153184
844.535	0.0152105
844.613	0.0150960
844.691	0.0151789
844.769	0.0151028
844.847	0.0147904
844.925	0.0147721
845.003	0.0146520
845.081	0.0145426
845.160	0.0145338
845.238	0.0145128
845.316	0.0144569
845.394	0.0142921
845.472	0.0141486
845.550	0.0141369
845.628	0.0141779
845.706	0.0141260
845.785	0.0139212
845.863	0.0137282
845.941	0.0139386
846.019	0.0139088
846.097	0.0137694
846.175	0.0137866
846.253	0.0136865
846.331	0.0135583
846.410	0.0137962
846.488	0.0137772
846.566	0.0137769
846.644	0.0138900
846.722	0.0138776
846.800	0.0140218
846.878	0.0141976
846.956	0.0143383
847.035	0.0143366
847.113	0.0144490
847.191	0.0145890
847.269	0.0147853
847.347	0.0147273
847.425	0.0148699
847.503	0.0149434
847.581	0.0149621
847.660	0.0149408
847.738	0.0149577
847.816	0.0151049
847.894	0.0151366
847.972	0.0150719
848.050	0.0151048
848.128	0.0151563
848.206	0.0149791
848.285	0.0150287
848.363	0.0150792
848.441	0.0150571
848.519	0.0148973
848.597	0.0149667
848.675	0.0149615
848.753	0.0148888
848.831	0.0147659
848.910	0.0146321
848.988	0.0145719
849.066	0.0146025
849.144	0.0143967
849.222	0.0140763
849.300	0.0142964
849.378	0.0140907
849.456	0.0139455
849.535	0.0139857
849.613	0.0140371
849.691	0.0138853
849.769	0.0139291
849.847	0.0139304
849.925	0.0140528
850.003	0.0140689
850.081	0.0140939
850.160	0.0141936
850.238	0.0142704
850.316	0.0142385
850.394	0.0142574
850.472	0.0143900
850.550	0.0144009
850.628	0.0145363
850.706	0.0145132
850.785	0.0147278
850.863	0.0145927
850.941	0.0146395
851.019	0.0148180
851.097	0.0147714
851.175	0.0148743
851.253	0.0149549
851.331	0.0148108
851.410	0.0148112
851.488	0.0148196
851.566	0.0148251
851.644	0.0148522
851.722	0.0145863
851.800	0.0145690
851.878	0.0147517
851.956	0.0148797
852.035	0.0145988
852.113	0.0147317
852.191	0.0146998
852.269	0.0146465
852.347	0.0147176
852.425	0.0146836
852.503	0.0146333
852.581	0.0146610
852.660	0.0146529
852.738	0.0146456
852.816	0.0145461
852.894	0.0146033
852.972	0.0146101
853.050	0.0145170
853.128	0.0145052
853.206	0.0143256
853.285	0.0142734
853.363	0.0142171
853.441	0.0140794
853.519	0.0141671
853.597	0.0140491
853.675	0.0140228
853.753	0.0139786
853.831	0.0139407
853.910	0.0139581
853.988	0.0139790
854.066	0.0139817
854.144	0.0140836
854.222	0.0141769
854.300	0.0140303
854.378	0.0142986
854.456	0.0141880
854.535	0.0145866
854.613	0.0146607
854.691	0.0145968
854.769	0.0145841
854.847	0.0147968
854.925	0.0148499
855.003	0.0148878
855.081	0.0148306
855.160	0.0147646
855.238	0.0148572
855.316	0.0148343
855.394	0.0148265
855.472	0.0147644
855.550	0.0147948
855.628	0.0146090
855.706	0.0147845
855.785	0.0147019
855.863	0.0146835
855.941	0.0146384
856.019	0.0146645
856.097	0.0144995
856.175	0.0144770
856.253	0.0146282
856.331	0.0145641
856.410	0.0145889
856.488	0.0143591
856.566	0.0143021
856.644	0.0143242
856.722	0.0142979
856.800	0.0143083
856.878	0.0143079
856.956	0.0140698
857.035	0.0140495
857.113	0.0140835
857.191	0.0141594
857.269	0.0142641
857.347	0.0141974
857.425	0.0141159
857.503	0.0142821
857.581	0.0141654
857.660	0.0143175
857.738	0.0142974
857.816	0.0144192
857.894	0.0144688
857.972	0.0145036
858.050	0.0145213
858.128	0.0146194
858.206	0.0146346
858.285	0.0145037
858.363	0.0144955
858.441	0.0145559
858.519	0.0145152
858.597	0.0144436
858.675	0.0146551
858.753	0.0145484
858.831	0.0145081
858.910	0.0145300
858.988	0.0146001
859.066	0.0146629
859.144	0.0146084
859.222	0.0147733
859.300	0.0146822
859.378	0.0146050
859.456	0.0147987
859.535	0.0147883
859.613	0.0145810
859.691	0.0147240
859.769	0.0147153
859.847	0.0144976
859.925	0.0146845
860.003	0.0146040
860.081	0.0146398
860.160	0.0147158
860.238	0.0145734
860.316	0.0145535
860.394	0.0146413
860.472	0.0145744
860.550	0.0144833
860.628	0.0144524
860.706	0.0144882
860.785	0.0145031
860.863	0.0143377
860.941	0.0144115
861.019	0.0142968
861.097	0.0143150
861.175	0.0143277
861.253	0.0143206
861.331	0.0143888
861.410	0.0143436
861.488	0.0144196
861.566	0.0143404
861.644	0.0143453
861.722	0.0144046
861.800	0.0144014
861.878	0.0145171
861.956	0.0144141
862.035	0.0141847
862.113	0.0143766
862.191	0.0143882
862.269	0.0142827
862.347	0.0141148
862.425	0.0142744
862.503	0.0140958
862.581	0.0142914
862.660	0.0142492
862.738	0.0143575
862.816	0.0143114
862.894	0.0143311
862.972	0.0144042
863.050	0.0145387
863.128	0.0144813
863.206	0.0143384
863.285	0.0144952
863.363	0.0144571
863.441	0.0146152
863.519	0.0146217
863.597	0.0144873
863.675	0.0144581
863.753	0.0146090
863.831	0.0147690
863.910	0.0146954
863.988	0.0145762
864.066	0.0147141
864.144	0.0147262
864.222	0.0147191
864.300	0.0145820
864.378	0.0145650
864.456	0.0146759
864.535	0.0145374
864.613	0.0145638
864.691	0.0146377
864.769	0.0147364
864.847	0.0145874
864.925	0.0146691
865.003	0.0146151
865.081	0.0146124
865.160	0.0146921
865.238	0.0148145
865.316	0.0147745
865.394	0.0146593
865.472	0.0147235
865.550	0.0146298
865.628	0.0147340
865.706	0.0145753
865.785	0.0145151
865.863	0.0143910
865.941	0.0143591
866.019	0.0143050
866.097	0.0142596
866.175	0.0142857
866.253	0.0141634
866.331	0.0140137
866.410	0.0141454
866.488	0.0140972
866.566	0.0140004
866.644	0.0139963
866.722	0.0141079
866.800	0.0140892
866.878	0.0140823
866.956	0.0142400
867.035	0.0143457
867.113	0.0142491
867.191	0.0142442
867.269	0.0144517
867.347	0.0145137
867.425	0.0145392
867.503	0.0145838
867.581	0.0145413
867.660	0.0147119
867.738	0.0147562
867.816	0.0146636
867.894	0.0149028
867.972	0.0148740
868.050	0.0148572
868.128	0.0148603
868.206	0.0148767
868.285	0.0147660
868.363	0.0146664
868.441	0.0147017
868.519	0.0145602
868.597	0.0147447
868.675	0.0147598
868.753	0.0144572
868.831	0.0145042
868.910	0.0145081
868.988	0.0144926
869.066	0.0145480
869.144	0.0144570
869.222	0.0145564
869.300	0.0144510
869.378	0.0144558
869.456	0.0144175
869.535	0.0144620
869.613	0.0144588
869.691	0.0145302
869.769	0.0144293
869.847	0.0143708
869.925	0.0142322
870.003	0.0141602
870.081	0.0141871
870.160	0.0142267
870.238	0.0142490
870.316	0.0141811
870.394	0.0142063
870.472	0.0141386
870.550	0.0142371
870.628	0.0141290
870.706	0.0142967
870.785	0.0143314
870.863	0.0143343
870.941	0.0144407
871.019	0.0144003
871.097	0.0144701
871.175	0.0144483
871.253	0.0146991
871.331	0.0147301
871.410	0.0146573
871.488	0.0146952
871.566	0.0147614
871.644	0.0148056
871.722	0.0148573
871.800	0.0148539
871.878	0.0149108
871.956	0.0149286
872.035	0.0150107
872.113	0.0149187
872.191	0.0149100
872.269	0.0150076
872.347	0.0148438
872.425	0.0147466
872.503	0.0147076
872.581	0.0147280
872.660	0.0147330
872.738	0.0145895
872.816	0.0143947
872.894	0.0142850
872.972	0.0144447
873.050	0.0142897
873.128	0.0141840
873.206	0.0141430
873.285	0.0140218
873.363	0.0141158
873.441	0.0142031
873.519	0.0140378
873.597	0.0140383
873.675	0.0140001
873.753	0.0140110
873.831	0.0140566
873.910	0.0141997
873.988	0.0142142
874.066	0.0141759
874.144	0.0140195
874.222	0.0143022
874.300	0.0142760
874.378	0.0144190
874.456	0.0144857
874.535	0.0143858
874.613	0.0143863
874.691	0.0144016
874.769	0.0145029
874.847	0.0145576
874.925	0.0145812
875.003	0.0145433
875.081	0.0144827
875.160	0.0145852
875.238	0.0145376
875.316	0.0147800
875.394	0.0146677
875.472	0.0146585
875.550	0.0145122
875.628	0.0145592
875.706	0.0147227
875.785	0.0146320
875.863	0.0143726
875.941	0.0144594
876.019	0.0143777
876.097	0.0143523
876.175	0.0144133
876.253	0.0145200
876.331	0.0144579
876.410	0.0144627
876.488	0.0145443
876.566	0.0144713
876.644	0.0145486
876.722	0.0146324
876.800	0.0145782
876.878	0.0146188
876.956	0.0147546
877.035	0.0145350
877.113	0.0145039
877.191	0.0147215
877.269	0.0147751
877.347	0.0146375
877.425	0.0146464
877.503	0.0144852
877.581	0.0146058
877.660	0.0145387
877.738	0.0146380
877.816	0.0145710
877.894	0.0144288
877.972	0.0144501
878.050	0.0143494
878.128	0.0143986
878.206	0.0144113
878.285	0.0145304
878.363	0.0143307
878.441	0.0142546
878.519	0.0143258
878.597	0.0143995
878.675	0.0143346
878.753	0.0141969
878.831	0.0142386
878.910	0.0141750
878.988	0.0141693
879.066	0.0142239
879.144	0.0142651
879.222	0.0142905
879.300	0.0144677
879.378	0.0146432
879.456	0.0144966
879.535	0.0145237
879.613	0.0146916
879.691	0.0147091
879.769	0.0147422
879.847	0.0147543
879.925	0.0146987
880.003	0.0146898
880.081	0.0148623
880.160	0.0146420
880.238	0.0147056
880.316	0.0147343
880.394	0.0147391
880.472	0.0146231
880.550	0.0146120
880.628	0.0146442
880.706	0.0146626
880.785	0.0146724
880.863	0.0147145
880.941	0.0145799
881.019	0.0146451
881.097	0.0146671
881.175	0.0145170
881.253	0.0145653
881.331	0.0144900
881.410	0.0145370
881.488	0.0144604
881.566	0.0144630
881.644	0.0145451
881.722	0.0144126
881.800	0.0145245
881.878	0.0143105
881.956	0.0142137
882.035	0.0143021
882.113	0.0144052
882.191	0.0142827
882.269	0.0143955
882.347	0.0142924
882.425	0.0143378
882.503	0.0143300
882.581	0.0143193
882.660	0.0143875
882.738	0.0143819
882.816	0.0143228
882.894	0.0143542
882.972	0.0142934
883.050	0.0143019
883.128	0.0142390
883.206	0.0142703
883.285	0.0142693
883.363	0.0143116
883.441	0.0143606
883.519	0.0143605
883.597	0.0142695
883.675	0.0142513
883.753	0.0142710
883.831	0.0143062
883.910	0.0143800
883.988	0.0144707
884.066	0.0143234
884.144	0.0144392
884.222	0.0145055
884.300	0.0145198
884.378	0.0145027
884.456	0.0145788
884.535	0.0145459
884.613	0.0145932
884.691	0.0147296
884.769	0.0146265
884.847	0.0146092
884.925	0.0147089
885.003	0.0147185
885.081	0.0147488
885.160	0.0147520
885.238	0.0148248
885.316	0.0147248
885.394	0.0147606
885.472	0.0147253
885.550	0.0147120
885.628	0.0145276
885.706	0.0147337
885.785	0.0145534
885.863	0.0145737
885.941	0.0145347
886.019	0.0144250
886.097	0.0144028
886.175	0.0143639
886.253	0.0142729
886.331	0.0141549
886.410	0.0141644
886.488	0.0141500
886.566	0.0141341
886.644	0.0141985
886.722	0.0140865
886.800	0.0140244
886.878	0.0141389
886.956	0.0140941
887.035	0.0143247
887.113	0.0144112
887.191	0.0142964
887.269	0.0144717
887.347	0.0144556
887.425	0.0145149
887.503	0.0145161
887.581	0.0145334
887.660	0.0146925
887.738	0.0146770
887.816	0.0146277
887.894	0.0147363
887.972	0.0147470
888.050	0.0147225
888.128	0.0148826
888.206	0.0148874
888.285	0.0148007
888.363	0.0147523
888.441	0.0147823
888.519	0.0147096
888.597	0.0147874
888.675	0.0148020
888.753	0.0147949
888.831	0.0147670
888.910	0.0147215
888.988	0.0147955
889.066	0.0148199
889.144	0.0148013
889.222	0.0147578
889.300	0.0145906
889.378	0.0147552
889.456	0.0147397
889.535	0.0147405
889.613	0.0145849
889.691	0.0146230
889.769	0.0145345
889.847	0.0146270
889.925	0.0144804
890.003	0.0144011
890.081	0.0145396
890.160	0.0144350
890.238	0.0144510
890.316	0.0143667
890.394	0.0143714
890.472	0.0142587
890.550	0.0140958
890.628	0.0142793
890.706	0.0142439
890.785	0.0141922
890.863	0.0142037
890.941	0.0142043
891.019	0.0140519
891.097	0.0141592
891.175	0.0141518
891.253	0.0141553
891.331	0.0142368
891.410	0.0142256
891.488	0.0142542
891.566	0.0143057
891.644	0.0145417
891.722	0.0144344
891.800	0.0145429
891.878	0.0145043
891.956	0.0146074
892.035	0.0147739
892.113	0.0146946
892.191	0.0147191
892.269	0.0148780
892.347	0.0149242
892.425	0.0147392
892.503	0.0147183
892.581	0.0146971
892.660	0.0148094
892.738	0.0147888
892.816	0.0146435
892.894	0.0146886
892.972	0.0147989
893.050	0.0147829
893.128	0.0146158
893.206	0.0146062
893.285	0.0146480
893.363	0.0145789
893.441	0.0146455
893.519	0.0145853
893.597	0.0145319
893.675	0.0145341
893.753	0.0144711
893.831	0.0145306
893.910	0.0144411
893.988	0.0144106
894.066	0.0144993
894.144	0.0144071
894.222	0.0144093
894.300	0.0143047
894.378	0.0143285
894.456	0.0141839
894.535	0.0143742
894.613	0.0143843
894.691	0.0142646
894.769	0.0143353
894.847	0.0144292
894.925	0.0146179
895.003	0.0145679
895.081	0.0144600
895.160	0.0146082
895.238	0.0145325
895.316	0.0145936
895.394	0.0146116
895.472	0.0146309
895.550	0.0146713
895.628	0.0146262
895.706	0.0145300
895.785	0.0144826
895.863	0.0145582
895.941	0.0143656
896.019	0.0141887
896.097	0.0140726
896.175	0.0141798
896.253	0.0140245
896.331	0.0139133
896.410	0.0141291
896.488	0.0141016
896.566	0.0142717
896.644	0.0143384
896.722	0.0144901
896.800	0.0148161
896.878	0.0148940
896.956	0.0150520
897.035	0.0153223
897.113	0.0152943
897.191	0.0153366
897.269	0.0153989
897.347	0.0153314
897.425	0.0152882
897.503	0.0151123
897.581	0.0150249
897.660	0.0150230
897.738	0.0147070
897.816	0.0147402
897.894	0.0146280
897.972	0.0144409
898.050	0.0144307
898.128	0.0141713
898.206	0.0139499
898.285	0.0138400
898.363	0.0137799
898.441	0.0135937
898.519	0.0133676
898.597	0.0133655
898.675	0.0132844
898.753	0.0132876
898.831	0.0134269
898.910	0.0135284
898.988	0.0135960
899.066	0.0138797
899.144	0.0140548
899.222	0.0143854
899.300	0.0147089
899.378	0.0148196
899.456	0.0151215
899.535	0.0152947
899.613	0.0154488
899.691	0.0156532
899.769	0.0158417
899.847	0.0156711
899.925	0.0155407
900.003	0.0153573
900.081	0.0155422
900.160	0.0152599
900.238	0.0152946
900.316	0.0151762
900.394	0.0147482
900.472	0.0148051
900.550	0.0147773
900.628	0.0144466
900.706	0.0145874
900.785	0.0143311
900.863	0.0142662
900.941	0.0140824
901.019	0.0138998
901.097	0.0138869
901.175	0.0137138
901.253	0.0134886
901.331	0.0134615
901.410	0.0134538
901.488	0.0134885
901.566	0.0134147
901.644	0.0134637
901.722	0.0136222
901.800	0.0137240
901.878	0.0139622
901.956	0.0142165
902.035	0.0142646
902.113	0.0143683
902.191	0.0146223
902.269	0.0148849
902.347	0.0148802
902.425	0.0151156
902.503	0.0152103
902.581	0.0151824
902.660	0.0151964
902.738	0.0152515
902.816	0.0151951
902.894	0.0152740
902.972	0.0150919
903.050	0.0149220
903.128	0.0149659
903.206	0.0148729
903.285	0.0148315
903.363	0.0148306
903.441	0.0149058
903.519	0.0149453
903.597	0.0149181
903.675	0.0148689
903.753	0.0150253
903.831	0.0149746
903.910	0.0149847
903.988	0.0147731
904.066	0.0147455
904.144	0.0148064
904.222	0.0144530
904.300	0.0142794
904.378	0.0142415
904.456	0.0138998
904.535	0.0137843
904.613	0.0136046
904.691	0.0136537
904.769	0.0135207
904.847	0.0134927
904.925	0.0136271
905.003	0.0136112
905.081	0.0136093
905.160	0.0138024
905.238	0.0139506
905.316	0.0139758
905.394	0.0141786
905.472	0.0142705
905.550	0.0146698
905.628	0.0145654
905.706	0.0147757
905.785	0.0148068
905.863	0.0147556
905.941	0.0148467
906.019	0.0146888
906.097	0.0146553
906.175	0.0146766
906.253	0.0147046
906.331	0.0146509
906.410	0.0145683
906.488	0.0146421
906.566	0.0147918
906.644	0.0147158
906.722	0.0148602
906.800	0.0149126
906.878	0.0148573
906.956	0.0150199
907.035	0.0150581
907.113	0.0151100
907.191	0.0150965
907.269	0.0149686
907.347	0.0149097
907.425	0.0147372
907.503	0.0146281
907.581	0.0144716
907.660	0.0143429
907.738	0.0141321
907.816	0.0141421
907.894	0.0140440
907.972	0.0139405
908.050	0.0137842
908.128	0.0137347
908.206	0.0139283
908.285	0.0139561
908.363	0.0140237
908.441	0.0140809
908.519	0.0142205
908.597	0.0140933
908.675	0.0141839
908.753	0.0143757
908.831	0.0143547
908.910	0.0144170
908.988	0.0144478
909.066	0.0144443
909.144	0.0145281
909.222	0.0145274
909.300	0.0146747
909.378	0.0146841
909.456	0.0146480
909.535	0.0148409
909.613	0.0149756
909.691	0.0149273
909.769	0.0149655
909.847	0.0149936
909.925	0.0149805
910.003	0.0149814
910.081	0.0148938
910.160	0.0149046
910.238	0.0149728
910.316	0.0148066
910.394	0.0147707
910.472	0.0149381
910.550	0.0146959
910.628	0.0146494
910.706	0.0147015
910.785	0.0147566
910.863	0.0145850
910.941	0.0146385
911.019	0.0146838
911.097	0.0145992
911.175	0.0143164
911.253	0.0143607
911.331	0.0143822
911.410	0.0142232
911.488	0.0144056
911.566	0.0143835
911.644	0.0143907
911.722	0.0144209
911.800	0.0144032
911.878	0.0144496
911.956	0.0145190
912.035	0.0145198
912.113	0.0145637
912.191	0.0144830
912.269	0.0144217
912.347	0.0144910
912.425	0.0145329
912.503	0.0145449
912.581	0.0144238
912.660	0.0142520
912.738	0.0142509
912.816	0.0143324
912.894	0.0143704
912.972	0.0144337
913.050	0.0143080
913.128	0.0143620
913.206	0.0141499
913.285	0.0141180
913.363	0.0141802
913.441	0.0141730
913.519	0.0141222
913.597	0.0140749
913.675	0.0141701
913.753	0.0142631
913.831	0.0141325
913.910	0.0142570
913.988	0.0143448
914.066	0.0142470
914.144	0.0143731
914.222	0.0146101
914.300	0.0147214
914.378	0.0148383
914.456	0.0148853
914.535	0.0148534
914.613	0.0150210
914.691	0.0150909
914.769	0.0149047
914.847	0.0151358
914.925	0.0150059
915.003	0.0150977
915.081	0.0150641
915.160	0.0149885
915.238	0.0149141
915.316	0.0148434
915.394	0.0146494
915.472	0.0147837
915.550	0.0145848
915.628	0.0144786
915.706	0.0146568
915.785	0.0145110
915.863	0.0144741
915.941	0.0144495
916.019	0.0145054
916.097	0.0146079
916.175	0.0146010
916.253	0.0144305
916.331	0.0145294
916.410	0.0142915
916.488	0.0144181
916.566	0.0144585
916.644	0.0143581
916.722	0.0143404
916.800	0.0143125
916.878	0.0143556
916.956	0.0141798
917.035	0.0141778
917.113	0.0142606
917.191	0.0141650
917.269	0.0142773
917.347	0.0141655
917.425	0.0143230
917.503	0.0143146
917.581	0.0142168
917.660	0.0142092
917.738	0.0144046
917.816	0.0143462
917.894	0.0144638
917.972	0.0144859
918.050	0.0143990
918.128	0.0144833
918.206	0.0147217
918.285	0.0147823
918.363	0.0147778
918.441	0.0148647
918.519	0.0149070
918.597	0.0149386
918.675	0.0150579
918.753	0.0150148
918.831	0.0151038
918.910	0.0150727
918.988	0.0151813
919.066	0.0151478
919.144	0.0150989
919.222	0.0150343
919.300	0.0150365
919.378	0.0147761
919.456	0.0147097
919.535	0.0146673
919.613	0.0145867
919.691	0.0144260
919.769	0.0144071
919.847	0.0142587
919.925	0.0141785
920.003	0.0141959
920.081	0.0141117
920.160	0.0141827
920.238	0.0141643
920.316	0.0142001
920.394	0.0142924
920.472	0.0143538
920.550	0.0142517
920.628	0.0143102
920.706	0.0145313
920.785	0.0145638
920.863	0.0144756
920.941	0.0144877
921.019	0.0143314
921.097	0.0145630
921.175	0.0145992
921.253	0.0145847
921.331	0.0145617
921.410	0.0145193
921.488	0.0144443
921.566	0.0144824
921.644	0.0145382
921.722	0.0144740
921.800	0.0144804
921.878	0.0144272
921.956	0.0142862
922.035	0.0144546
922.113	0.0144685
922.191	0.0145451
922.269	0.0145069
922.347	0.0143721
922.425	0.0145867
922.503	0.0146433
922.581	0.0146484
922.660	0.0147467
922.738	0.0147884
922.816	0.0146752
922.894	0.0147733
922.972	0.0147442
923.050	0.0147071
923.128	0.0148734
923.206	0.0150480
923.285	0.0149813
923.363	0.0150779
923.441	0.0150774
923.519	0.0150460
923.597	0.0149388
923.675	0.0151059
923.753	0.0149175
923.831	0.0148136
923.910	0.0149841
923.988	0.0148856
924.066	0.0146502
924.144	0.0147758
924.222	0.0145435
924.300	0.0145534
924.378	0.0144733
924.456	0.0143604
924.535	0.0144799
924.613	0.0142828
924.691	0.0141776
924.769	0.0143069
924.847	0.0142802
924.925	0.0143807
925.003	0.0144341
925.081	0.0143390
925.160	0.0143696
925.238	0.0142995
925.316	0.0143430
925.394	0.0143452
925.472	0.0144407
925.550	0.0143656
925.628	0.0142090
925.706	0.0142841
925.785	0.0144022
925.863	0.0143105
925.941	0.0144547
926.019	0.0141622
926.097	0.0141958
926.175	0.0143069
926.253	0.0142616
926.331	0.0143817
926.410	0.0144647
926.488	0.0144650
926.566	0.0145020
926.644	0.0145547
926.722	0.0146535
926.800	0.0148286
926.878	0.0148593
926.956	0.0147507
927.035	0.0146893
927.113	0.0147544
927.191	0.0148653
927.269	0.0147579
927.347	0.0146584
927.425	0.0147133
927.503	0.0146504
927.581	0.0145653
927.660	0.0145506
927.738	0.0143491
927.816	0.0144289
927.894	0.0144277
927.972	0.0143311
928.050	0.0142715
928.128	0.0142648
928.206	0.0143340
928.285	0.0141415
928.363	0.0142580
928.441	0.0141714
928.519	0.0142224
928.597	0.0143031
928.675	0.0141460
928.753	0.0142262
928.831	0.0142039
928.910	0.0141489
928.988	0.0142347
929.066	0.0142143
929.144	0.0143327
929.222	0.0143523
929.300	0.0142748
929.378	0.0144876
929.456	0.0146215
929.535	0.0144682
929.613	0.0145510
929.691	0.0146541
929.769	0.0146101
929.847	0.0147278
929.925	0.0148167
930.003	0.0146982
930.081	0.0148754
930.160	0.0148465
930.238	0.0146887
930.316	0.0146606
930.394	0.0146587
930.472	0.0146357
930.550	0.0145466
930.628	0.0146131
930.706	0.0144819
930.785	0.0144630
930.863	0.0145098
930.941	0.0145196
931.019	0.0142195
931.097	0.0143062
931.175	0.0144495
931.253	0.0143822
931.331	0.0142446
931.410	0.0143147
931.488	0.0142896
931.566	0.0142503
931.644	0.0143939
931.722	0.0142166
931.800	0.0142867
931.878	0.0144055
931.956	0.0142733
932.035	0.0143327
932.113	0.0144097
932.191	0.0144425
932.269	0.0142967
932.347	0.0143647
932.425	0.0144574
932.503	0.0145058
932.581	0.0143990
932.660	0.0144638
932.738	0.0144771
932.816	0.0145934
932.894	0.0145115
932.972	0.0145243
933.050	0.0145699
933.128	0.0145531
933.206	0.0145798
933.285	0.0144894
933.363	0.0143232
933.441	0.0145111
933.519	0.0144505
933.597	0.0143674
933.675	0.0142877
933.753	0.0144468
933.831	0.0143365
933.910	0.0143046
933.988	0.0143216
934.066	0.0142701
934.144	0.0142724
934.222	0.0143456
934.300	0.0144695
934.378	0.0143217
934.456	0.0142793
934.535	0.0143155
934.613	0.0142606
934.691	0.0143787
934.769	0.0144311
934.847	0.0143936
934.925	0.0144416
935.003	0.0145187
935.081	0.0145116
935.160	0.0146835
935.238	0.0145525
935.316	0.0145442
935.394	0.0146113
935.472	0.0144884
935.550	0.0146687
935.628	0.0147777
935.706	0.0145330
935.785	0.0146096
935.863	0.0146083
935.941	0.0144805
936.019	0.0145296
936.097	0.0147249
936.175	0.0145508
936.253	0.0147257
936.331	0.0145737
936.410	0.0145616
936.488	0.0144788
936.566	0.0145804
936.644	0.0145897
936.722	0.0144280
936.800	0.0145412
936.878	0.0144888
936.956	0.0144024
937.035	0.0143906
937.113	0.0143478
937.191	0.0143787
937.269	0.0143885
937.347	0.0143474
937.425	0.0142718
937.503	0.0144122
937.581	0.0144107
937.660	0.0143620
937.738	0.0144749
937.816	0.0144263
937.894	0.0144389
937.972	0.0145377
938.050	0.0146575
938.128	0.0146651
938.206	0.0146957
938.285	0.0147083
938.363	0.0146908
938.441	0.0148979
938.519	0.0148550
938.597	0.0149204
938.675	0.0149072
938.753	0.0149763
938.831	0.0148400
938.910	0.0148472
938.988	0.0146589
939.066	0.0147251
939.144	0.0146103
939.222	0.0145950
939.300	0.0144556
939.378	0.0144190
939.456	0.0144675
939.535	0.0143905
939.613	0.0142715
939.691	0.0142116
939.769	0.0142709
939.847	0.0141910
939.925	0.0142387
940.003	0.0143690
940.081	0.0142803
940.160	0.0143261
940.238	0.0142059
940.316	0.0142545
940.394	0.0144061
940.472	0.0142149
940.550	0.0145640
940.628	0.0144440
940.706	0.0144096
940.785	0.0144962
940.863	0.0143620
940.941	0.0146086
941.019	0.0145066
941.097	0.0146239
941.175	0.0146784
941.253	0.0146140
941.331	0.0146638
941.410	0.0149683
941.488	0.0148649
941.566	0.0147708
941.644	0.0148785
941.722	0.0148898
941.800	0.0147981
941.878	0.0147966
941.956	0.0148005
942.035	0.0148439
942.113	0.0149018
942.191	0.0146777
942.269	0.0146767
942.347	0.0146756
942.425	0.0145596
942.503	0.0144489
942.581	0.0144352
942.660	0.0144754
942.738	0.0144755
942.816	0.0144822
942.894	0.0145052
942.972	0.0145418
943.050	0.0143443
943.128	0.0143845
943.206	0.0145518
943.285	0.0143052
943.363	0.0142872
943.441	0.0143246
943.519	0.0144035
943.597	0.0143369
943.675	0.0143708
943.753	0.0143366
943.831	0.0143587
943.910	0.0143730
943.988	0.0142471
944.066	0.0144389
944.144	0.0145921
944.222	0.0145277
944.300	0.0143938
944.378	0.0144334
944.456	0.0145158
944.535	0.0146130
944.613	0.0144244
944.691	0.0144753
944.769	0.0143378
944.847	0.0142837
944.925	0.0144857
945.003	0.0144807
945.081	0.0145169
945.160	0.0144807
945.238	0.0145219
945.316	0.0144431
945.394	0.0145533
945.472	0.0145657
945.550	0.0146320
945.628	0.0146376
945.706	0.0146764
945.785	0.0146067
945.863	0.0146901
945.941	0.0147939
946.019	0.0147926
946.097	0.0146709
946.175	0.0146368
946.253	0.0147153
946.331	0.0146226
946.410	0.0146013
946.488	0.0145850
946.566	0.0145090
946.644	0.0145255
946.722	0.0145416
946.800	0.0144066
946.878	0.0145357
946.956	0.0145271
947.035	0.0144398
947.113	0.0145448
947.191	0.0146243
947.269	0.0145483
947.347	0.0145040
947.425	0.0144407
947.503	0.0144051
947.581	0.0143754
947.660	0.0143749
947.738	0.0144051
947.816	0.0141979
947.894	0.0143040
947.972	0.0142584
948.050	0.0141487
948.128	0.0142311
948.206	0.0140821
948.285	0.0141177
948.363	0.0141612
948.441	0.0140952
948.519	0.0141300
948.597	0.0141869
948.675	0.0141648
948.753	0.0142769
948.831	0.0141393
948.910	0.0143935
948.988	0.0145078
949.066	0.0145409
949.144	0.0145164
949.222	0.0146338
949.300	0.0145269
949.378	0.0146183
949.456	0.0145686
949.535	0.0146236
949.613	0.0146785
949.691	0.0145753
949.769	0.0145553
949.847	0.0143629
949.925	0.0143848
950.003	0.0145392
950.081	0.0144455
950.160	0.0143253
950.238	0.0143240
950.316	0.0144593
950.394	0.0144118
950.472	0.0143250
950.550	0.0143295
950.628	0.0144775
950.706	0.0144148
950.785	0.0144901
950.863	0.0144364
950.941	0.0145285
951.019	0.0144003
951.097	0.0144623
951.175	0.0143806
951.253	0.0143343
951.331	0.0145865
951.410	0.0144637
951.488	0.0144024
951.566	0.0144678
951.644	0.0143847
951.722	0.0142640
951.800	0.0142691
951.878	0.0142952
951.956	0.0142162
952.035	0.0142305
952.113	0.0141547
952.191	0.0141603
952.269	0.0142585
952.347	0.0141702
952.425	0.0142208
952.503	0.0141035
952.581	0.0142799
952.660	0.0142498
952.738	0.0143652
952.816	0.0144196
952.894	0.0142991
952.972	0.0144006
953.050	0.0144904
953.128	0.0146019
953.206	0.0146656
953.285	0.0147557
953.363	0.0148342
953.441	0.0148210
953.519	0.0150504
953.597	0.0149651
953.675	0.0150709
953.753	0.0150269
953.831	0.0150410
953.910	0.0149792
953.988	0.0150291
954.066	0.0149275
954.144	0.0149738
954.222	0.0149467
954.300	0.0148384
954.378	0.0146681
954.456	0.0146286
954.535	0.0147529
954.613	0.0145647
954.691	0.0144907
954.769	0.0144328
954.847	0.0144406
954.925	0.0142876
955.003	0.0141053
955.081	0.0140559
955.160	0.0140085
955.238	0.0139189
955.316	0.0139652
955.394	0.0139647
955.472	0.0137582
955.550	0.0138853
955.628	0.0139259
955.706	0.0139840
955.785	0.0139204
955.863	0.0138976
955.941	0.0139179
956.019	0.0139564
956.097	0.0139458
956.175	0.0139840
956.253	0.0141820
956.331	0.0141058
956.410	0.0142229
956.488	0.0142727
956.566	0.0145190
956.644	0.0144672
956.722	0.0145860
956.800	0.0146286
956.878	0.0146825
956.956	0.0147472
957.035	0.0147673
957.113	0.0145232
957.191	0.0145520
957.269	0.0145497
957.347	0.0145282
957.425	0.0145048
957.503	0.0145811
957.581	0.0145139
957.660	0.0143407
957.738	0.0144548
957.816	0.0144579
957.894	0.0144524
957.972	0.0144268
958.050	0.0144538
958.128	0.0145415
958.206	0.0147274
958.285	0.0146487
958.363	0.0146635
958.441	0.0148162
958.519	0.0147743
958.597	0.0149044
958.675	0.0149078
958.753	0.0148281
958.831	0.0149120
958.910	0.0148585
958.988	0.0149036
959.066	0.0149046
959.144	0.0148895
959.222	0.0148395
959.300	0.0146969
959.378	0.0147276
959.456	0.0147511
959.535	0.0146908
959.613	0.0145688
959.691	0.0143977
959.769	0.0145551
959.847	0.0143291
959.925	0.0142931
960.003	0.0143956
960.081	0.0143640
960.160	0.0142009
960.238	0.0141553
960.316	0.0142580
960.394	0.0141880
960.472	0.0142907
960.550	0.0140994
960.628	0.0140324
960.706	0.0140042
960.785	0.0141409
960.863	0.0142002
960.941	0.0141014
961.019	0.0142058
961.097	0.0141637
961.175	0.0141393
961.253	0.0143491
961.331	0.0143362
961.410	0.0144233
961.488	0.0145635
961.566	0.0144665
961.644	0.0145460
961.722	0.0144727
961.800	0.0146436
961.878	0.0146623
961.956	0.0146140
962.035	0.0147215
962.113	0.0146353
962.191	0.0146416
962.269	0.0147855
962.347	0.0148297
962.425	0.0150769
962.503	0.0150260
962.581	0.0149554
962.660	0.0149960
962.738	0.0148328
962.816	0.0149250
962.894	0.0148473
962.972	0.0148576
963.050	0.0149094
963.128	0.0147355
963.206	0.0146337
963.285	0.0144033
963.363	0.0145146
963.441	0.0143506
963.519	0.0143921
963.597	0.0144881
963.675	0.0142831
963.753	0.0141222
963.831	0.0142987
963.910	0.0143365
963.988	0.0142179
964.066	0.0141733
964.144	0.0142300
964.222	0.0142870
964.300	0.0144403
964.378	0.0143690
964.456	0.0143695
964.535	0.0142300
964.613	0.0143604
964.691	0.0143960
964.769	0.0145068
964.847	0.0145624
964.925	0.0144848
965.003	0.0144200
965.081	0.0146771
965.160	0.0145724
965.238	0.0146602
965.316	0.0146071
965.394	0.0147861
965.472	0.0147098
965.550	0.0147478
965.628	0.0147376
965.706	0.0149677
965.785	0.0148368
965.863	0.0146891
965.941	0.0146284
966.019	0.0145606
966.097	0.0145065
966.175	0.0144332
966.253	0.0143491
966.331	0.0143225
966.410	0.0144375
966.488	0.0142266
966.566	0.0142899
966.644	0.0142876
966.722	0.0143817
966.800	0.0143883
966.878	0.0143451
966.956	0.0143196
967.035	0.0142465
967.113	0.0143970
967.191	0.0143463
967.269	0.0145733
967.347	0.0147305
967.425	0.0145764
967.503	0.0145945
967.581	0.0148199
967.660	0.0146638
967.738	0.0147420
967.816	0.0148196
967.894	0.0146677
967.972	0.0147753
968.050	0.0147518
968.128	0.0147346
968.206	0.0146286
968.285	0.0146551
968.363	0.0146315
968.441	0.0147013
968.519	0.0144581
968.597	0.0146165
968.675	0.0143782
968.753	0.0143394
968.831	0.0144551
968.910	0.0143163
968.988	0.0143440
969.066	0.0143262
969.144	0.0142335
969.222	0.0142481
969.300	0.0142762
969.378	0.0143688
969.456	0.0144203
969.535	0.0143523
969.613	0.0144154
969.691	0.0145228
969.769	0.0146323
969.847	0.0145327
969.925	0.0145352
970.003	0.0146950
970.081	0.0147186
970.160	0.0144109
970.238	0.0144495
970.316	0.0144296
970.394	0.0144072
970.472	0.0144026
970.550	0.0142290
970.628	0.0142713
970.706	0.0143752
970.785	0.0142451
970.863	0.0141579
970.941	0.0142242
971.019	0.0141525
971.097	0.0141737
971.175	0.0143562
971.253	0.0141619
971.331	0.0142802
971.410	0.0143109
971.488	0.0142068
971.566	0.0143788
971.644	0.0143043
971.722	0.0143738
971.800	0.0143539
971.878	0.0143430
971.956	0.0144280
972.035	0.0142729
972.113	0.0143848
972.191	0.0143874
972.269	0.0143423
972.347	0.0143089
972.425	0.0143250
972.503	0.0143703
972.581	0.0144006
972.660	0.0143886
972.738	0.0144942
972.816	0.0144653
972.894	0.0146259
972.972	0.0146667
973.050	0.0147202
973.128	0.0146443
973.206	0.0147820
973.285	0.0147176
973.363	0.0146527
973.441	0.0146461
973.519	0.0147583
973.597	0.0147230
973.675	0.0146489
973.753	0.0147399
973.831	0.0145882
973.910	0.0146449
973.988	0.0146818
974.066	0.0146339
974.144	0.0145893
974.222	0.0144958
974.300	0.0145501
974.378	0.0144145
974.456	0.0142288
974.535	0.0142423
974.613	0.0142776
974.691	0.0144762
974.769	0.0141299
974.847	0.0141504
974.925	0.0143171
975.003	0.0141544
975.081	0.0140896
975.160	0.0141776
975.238	0.0141268
975.316	0.0141851
975.394	0.0143773
975.472	0.0143588
975.550	0.0143233
975.628	0.0142909
975.706	0.0142415
975.785	0.0142854
975.863	0.0144370
975.941	0.0143901
976.019	0.0144496
976.097	0.0144210
976.175	0.0144372
976.253	0.0143103
976.331	0.0145072
976.410	0.0144794
976.488	0.0144473
976.566	0.0145403
976.644	0.0145076
976.722	0.0144746
976.800	0.0145337
976.878	0.0144762
976.956	0.0144614
977.035	0.0145235
977.113	0.0144527
977.191	0.0143310
977.269	0.0143865
977.347	0.0145563
977.425	0.0144656
977.503	0.0144705
977.581	0.0145007
977.660	0.0145117
977.738	0.0144910
977.816	0.0146233
977.894	0.0146003
977.972	0.0145540
978.050	0.0145828
978.128	0.0146493
978.206	0.0145422
978.285	0.0146235
978.363	0.0145924
978.441	0.0148265
978.519	0.0146459
978.597	0.0146647
978.675	0.0146710
978.753	0.0145768
978.831	0.0144889
978.910	0.0144985
978.988	0.0145157
979.066	0.0146003
979.144	0.0144101
979.222	0.0143401
979.300	0.0144434
979.378	0.0144591
979.456	0.0143044
979.535	0.0142996
979.613	0.0142821
979.691	0.0142561
979.769	0.0141822
979.847	0.0141834
979.925	0.0141382
