05/03/2022	20:30:12	Ver.	4.1	UNKNOWN
Optical Delay	660.003261	Delta X		0.078125	Sweeps	1	Scan Rate	0/0
Coordinates	Axis 1	NaN	Axis 2	NaN	Axis 3	NaN	Axis 4	NaN	Axis 5	NaN	Axis 6	0.000000
TX Power	0.000000	RX Power	0.000000

660.003	0.0145054
660.081	0.0145521
660.160	0.0144472
660.238	0.0144474
660.316	0.0144594
660.394	0.0145258
660.472	0.0144012
660.550	0.0144310
660.628	0.0145701
660.706	0.0145040
660.785	0.0144707
660.863	0.0144517
660.941	0.0144905
661.019	0.0144817
661.097	0.0144257
661.175	0.0144538
661.253	0.0144633
661.331	0.0144311
661.410	0.0144253
661.488	0.0144175
661.566	0.0145813
661.644	0.0145886
661.722	0.0144334
661.800	0.0144100
661.878	0.0144379
661.956	0.0145630
662.035	0.0144586
662.113	0.0144805
662.191	0.0145515
662.269	0.0143926
662.347	0.0144885
662.425	0.0144513
662.503	0.0145230
662.581	0.0144903
662.660	0.0143761
662.738	0.0143915
662.816	0.0143949
662.894	0.0144588
662.972	0.0144527
663.050	0.0144582
663.128	0.0143476
663.206	0.0144695
663.285	0.0144469
663.363	0.0144506
663.441	0.0144149
663.519	0.0144645
663.597	0.0143462
663.675	0.0144824
663.753	0.0144437
663.831	0.0143858
663.910	0.0144485
663.988	0.0143465
664.066	0.0144109
664.144	0.0143868
664.222	0.0144344
664.300	0.0144152
664.378	0.0144034
664.456	0.0144106
664.535	0.0144983
664.613	0.0143577
664.691	0.0144069
664.769	0.0143121
664.847	0.0144247
664.925	0.0143279
665.003	0.0145864
665.081	0.0144293
665.160	0.0144839
665.238	0.0145068
665.316	0.0144707
665.394	0.0144244
665.472	0.0144604
665.550	0.0146044
665.628	0.0145358
665.706	0.0145109
665.785	0.0143532
665.863	0.0145847
665.941	0.0145925
666.019	0.0145216
666.097	0.0144986
666.175	0.0144273
666.253	0.0143928
666.331	0.0144263
666.410	0.0145206
666.488	0.0145262
666.566	0.0144966
666.644	0.0142949
666.722	0.0144271
666.800	0.0145007
666.878	0.0145486
666.956	0.0145784
667.035	0.0144988
667.113	0.0146057
667.191	0.0146330
667.269	0.0144425
667.347	0.0145005
667.425	0.0145428
667.503	0.0144667
667.581	0.0144553
667.660	0.0145585
667.738	0.0146274
667.816	0.0145235
667.894	0.0144335
667.972	0.0144937
668.050	0.0145718
668.128	0.0145058
668.206	0.0144621
668.285	0.0145983
668.363	0.0145961
668.441	0.0144429
668.519	0.0144037
668.597	0.0145794
668.675	0.0143671
668.753	0.0143900
668.831	0.0143854
668.910	0.0144226
668.988	0.0144023
669.066	0.0145484
669.144	0.0144793
669.222	0.0145352
669.300	0.0142455
669.378	0.0143785
669.456	0.0145670
669.535	0.0145755
669.613	0.0145204
669.691	0.0143587
669.769	0.0144221
669.847	0.0144251
669.925	0.0144482
670.003	0.0144469
670.081	0.0144418
670.160	0.0144360
670.238	0.0144394
670.316	0.0144896
670.394	0.0145322
670.472	0.0144557
670.550	0.0144244
670.628	0.0145287
670.706	0.0143793
670.785	0.0144753
670.863	0.0144375
670.941	0.0144852
671.019	0.0145184
671.097	0.0145154
671.175	0.0144051
671.253	0.0143663
671.331	0.0145364
671.410	0.0145041
671.488	0.0145622
671.566	0.0144965
671.644	0.0144537
671.722	0.0144908
671.800	0.0143857
671.878	0.0145807
671.956	0.0145422
672.035	0.0144817
672.113	0.0145946
672.191	0.0144940
672.269	0.0144673
672.347	0.0145591
672.425	0.0145370
672.503	0.0144209
672.581	0.0144881
672.660	0.0144526
672.738	0.0144038
672.816	0.0145373
672.894	0.0145300
672.972	0.0145229
673.050	0.0145216
673.128	0.0145224
673.206	0.0144811
673.285	0.0144981
673.363	0.0145919
673.441	0.0145461
673.519	0.0144094
673.597	0.0146406
673.675	0.0144065
673.753	0.0144672
673.831	0.0143819
673.910	0.0143089
673.988	0.0144170
674.066	0.0145213
674.144	0.0144532
674.222	0.0145591
674.300	0.0145311
674.378	0.0143633
674.456	0.0143175
674.535	0.0143653
674.613	0.0145375
674.691	0.0143966
674.769	0.0144784
674.847	0.0142966
674.925	0.0144788
675.003	0.0144955
675.081	0.0143703
675.160	0.0143646
675.238	0.0144327
675.316	0.0144695
675.394	0.0145501
675.472	0.0145245
675.550	0.0143317
675.628	0.0144894
675.706	0.0144121
675.785	0.0144609
675.863	0.0142938
675.941	0.0144416
676.019	0.0144260
676.097	0.0144263
676.175	0.0144221
676.253	0.0144833
676.331	0.0145127
676.410	0.0144332
676.488	0.0144799
676.566	0.0144498
676.644	0.0144923
676.722	0.0144683
676.800	0.0144174
676.878	0.0144286
676.956	0.0144208
677.035	0.0145144
677.113	0.0145901
677.191	0.0144219
677.269	0.0145015
677.347	0.0145671
677.425	0.0144662
677.503	0.0145451
677.581	0.0145316
677.660	0.0145760
677.738	0.0144739
677.816	0.0145854
677.894	0.0145343
677.972	0.0144617
678.050	0.0144942
678.128	0.0144997
678.206	0.0144947
678.285	0.0143789
678.363	0.0144740
678.441	0.0145066
678.519	0.0144936
678.597	0.0145158
678.675	0.0145014
678.753	0.0144426
678.831	0.0143906
678.910	0.0144930
678.988	0.0144693
679.066	0.0143738
679.144	0.0144895
679.222	0.0145927
679.300	0.0144427
679.378	0.0143858
679.456	0.0144305
679.535	0.0145579
679.613	0.0144466
679.691	0.0142871
679.769	0.0143922
679.847	0.0145139
679.925	0.0145533
680.003	0.0145796
680.081	0.0144718
680.160	0.0144297
680.238	0.0144496
680.316	0.0144156
680.394	0.0144458
680.472	0.0144451
680.550	0.0143969
680.628	0.0144323
680.706	0.0145850
680.785	0.0145920
680.863	0.0144852
680.941	0.0143893
681.019	0.0144783
681.097	0.0145358
681.175	0.0143684
681.253	0.0146318
681.331	0.0145338
681.410	0.0144957
681.488	0.0144098
681.566	0.0142832
681.644	0.0144359
681.722	0.0145447
681.800	0.0145042
681.878	0.0144596
681.956	0.0145204
682.035	0.0144731
682.113	0.0145466
682.191	0.0143700
682.269	0.0143427
682.347	0.0145297
682.425	0.0145938
682.503	0.0145080
682.581	0.0142771
682.660	0.0145354
682.738	0.0145427
682.816	0.0145449
682.894	0.0144588
682.972	0.0144735
683.050	0.0144421
683.128	0.0145665
683.206	0.0144298
683.285	0.0145219
683.363	0.0144263
683.441	0.0144222
683.519	0.0145152
683.597	0.0145903
683.675	0.0145758
683.753	0.0144420
683.831	0.0143565
683.910	0.0145433
683.988	0.0145139
684.066	0.0144421
684.144	0.0143796
684.222	0.0144573
684.300	0.0145624
684.378	0.0145512
684.456	0.0144355
684.535	0.0144717
684.613	0.0145173
684.691	0.0145513
684.769	0.0144830
684.847	0.0145628
684.925	0.0145883
685.003	0.0144981
685.081	0.0145071
685.160	0.0145270
685.238	0.0143891
685.316	0.0143832
685.394	0.0145387
685.472	0.0146829
685.550	0.0145275
685.628	0.0144341
685.706	0.0145432
685.785	0.0145292
685.863	0.0145142
685.941	0.0145504
686.019	0.0145895
686.097	0.0145544
686.175	0.0145168
686.253	0.0145705
686.331	0.0144676
686.410	0.0144590
686.488	0.0145541
686.566	0.0144061
686.644	0.0143721
686.722	0.0143905
686.800	0.0145442
686.878	0.0144306
686.956	0.0144160
687.035	0.0143985
687.113	0.0145229
687.191	0.0144081
687.269	0.0144067
687.347	0.0143530
687.425	0.0143659
687.503	0.0144273
687.581	0.0145187
687.660	0.0145495
687.738	0.0144904
687.816	0.0145583
687.894	0.0145467
687.972	0.0145092
688.050	0.0144297
688.128	0.0145110
688.206	0.0146271
688.285	0.0144829
688.363	0.0143688
688.441	0.0144654
688.519	0.0145837
688.597	0.0143513
688.675	0.0143378
688.753	0.0143208
688.831	0.0143269
688.910	0.0143193
688.988	0.0143819
689.066	0.0143881
689.144	0.0144641
689.222	0.0144381
689.300	0.0142957
689.378	0.0143810
689.456	0.0144842
689.535	0.0145548
689.613	0.0145312
689.691	0.0146796
689.769	0.0146732
689.847	0.0147186
689.925	0.0144922
690.003	0.0148355
690.081	0.0146973
690.160	0.0145875
690.238	0.0145046
690.316	0.0146144
690.394	0.0145907
690.472	0.0145518
690.550	0.0145622
690.628	0.0145378
690.706	0.0143765
690.785	0.0142596
690.863	0.0142728
690.941	0.0142854
691.019	0.0142422
691.097	0.0142358
691.175	0.0143050
691.253	0.0140689
691.331	0.0141185
691.410	0.0141284
691.488	0.0142367
691.566	0.0143745
691.644	0.0142850
691.722	0.0142660
691.800	0.0143339
691.878	0.0143163
691.956	0.0144502
692.035	0.0143739
692.113	0.0145189
692.191	0.0143525
692.269	0.0145263
692.347	0.0147105
692.425	0.0145934
692.503	0.0148074
692.581	0.0145713
692.660	0.0147715
692.738	0.0147825
692.816	0.0147376
692.894	0.0148145
692.972	0.0148225
693.050	0.0147550
693.128	0.0148613
693.206	0.0147010
693.285	0.0146941
693.363	0.0146332
693.441	0.0146255
693.519	0.0145257
693.597	0.0144117
693.675	0.0143641
693.753	0.0143061
693.831	0.0143630
693.910	0.0143549
693.988	0.0141547
694.066	0.0141394
694.144	0.0142820
694.222	0.0141566
694.300	0.0142525
694.378	0.0141196
694.456	0.0141825
694.535	0.0141087
694.613	0.0142071
694.691	0.0142164
694.769	0.0140581
694.847	0.0142340
694.925	0.0142622
695.003	0.0140931
695.081	0.0142549
695.160	0.0143298
695.238	0.0141652
695.316	0.0143580
695.394	0.0144027
695.472	0.0144462
695.550	0.0144807
695.628	0.0145307
695.706	0.0146230
695.785	0.0146106
695.863	0.0146445
695.941	0.0146822
696.019	0.0148135
696.097	0.0147263
696.175	0.0147986
696.253	0.0147792
696.331	0.0148646
696.410	0.0149346
696.488	0.0150496
696.566	0.0149680
696.644	0.0149974
696.722	0.0150208
696.800	0.0149418
696.878	0.0149398
696.956	0.0150896
697.035	0.0150809
697.113	0.0149318
697.191	0.0148283
697.269	0.0148442
697.347	0.0147156
697.425	0.0144780
697.503	0.0143969
697.581	0.0141201
697.660	0.0141270
697.738	0.0142477
697.816	0.0140594
697.894	0.0138541
697.972	0.0137120
698.050	0.0135461
698.128	0.0136519
698.206	0.0136249
698.285	0.0137069
698.363	0.0136209
698.441	0.0138074
698.519	0.0138468
698.597	0.0140813
698.675	0.0141576
698.753	0.0141737
698.831	0.0143130
698.910	0.0143166
698.988	0.0144102
699.066	0.0145661
699.144	0.0144977
699.222	0.0144626
699.300	0.0146230
699.378	0.0147567
699.456	0.0146521
699.535	0.0147062
699.613	0.0147110
699.691	0.0147307
699.769	0.0146303
699.847	0.0146525
699.925	0.0145437
700.003	0.0145421
700.081	0.0145815
700.160	0.0146748
700.238	0.0146117
700.316	0.0144910
700.394	0.0145983
700.472	0.0145859
700.550	0.0145681
700.628	0.0145310
700.706	0.0146404
700.785	0.0144691
700.863	0.0146692
700.941	0.0147894
701.019	0.0147424
701.097	0.0147369
701.175	0.0149319
701.253	0.0149199
701.331	0.0149277
701.410	0.0151028
701.488	0.0151787
701.566	0.0151203
701.644	0.0150499
701.722	0.0151459
701.800	0.0149590
701.878	0.0149672
701.956	0.0149048
702.035	0.0147302
702.113	0.0146291
702.191	0.0144142
702.269	0.0141584
702.347	0.0141194
702.425	0.0139997
702.503	0.0138553
702.581	0.0136922
702.660	0.0137176
702.738	0.0137734
702.816	0.0137938
702.894	0.0135664
702.972	0.0137070
703.050	0.0137377
703.128	0.0137379
703.206	0.0137749
703.285	0.0139455
703.363	0.0139472
703.441	0.0141225
703.519	0.0141047
703.597	0.0140510
703.675	0.0141334
703.753	0.0143524
703.831	0.0144976
703.910	0.0146713
703.988	0.0147277
704.066	0.0148962
704.144	0.0150301
704.222	0.0151891
704.300	0.0150375
704.378	0.0149869
704.456	0.0150377
704.535	0.0149696
704.613	0.0148143
704.691	0.0146709
704.769	0.0145837
704.847	0.0143297
704.925	0.0143307
705.003	0.0143250
705.081	0.0142584
705.160	0.0141944
705.238	0.0142744
705.316	0.0144131
705.394	0.0144249
705.472	0.0145512
705.550	0.0145307
705.628	0.0147857
705.706	0.0146368
705.785	0.0148029
705.863	0.0148449
705.941	0.0147335
706.019	0.0149142
706.097	0.0148173
706.175	0.0149743
706.253	0.0150866
706.331	0.0151725
706.410	0.0150133
706.488	0.0150858
706.566	0.0151821
706.644	0.0150621
706.722	0.0151582
706.800	0.0151251
706.878	0.0150444
706.956	0.0150787
707.035	0.0149553
707.113	0.0147893
707.191	0.0147698
707.269	0.0146239
707.347	0.0145497
707.425	0.0144357
707.503	0.0143753
707.581	0.0142545
707.660	0.0141267
707.738	0.0140389
707.816	0.0138265
707.894	0.0138387
707.972	0.0136680
708.050	0.0137417
708.128	0.0137411
708.206	0.0135494
708.285	0.0135886
708.363	0.0135220
708.441	0.0134497
708.519	0.0135025
708.597	0.0135681
708.675	0.0135792
708.753	0.0136052
708.831	0.0136295
708.910	0.0138486
708.988	0.0138689
709.066	0.0142300
709.144	0.0143719
709.222	0.0145051
709.300	0.0146608
709.378	0.0148936
709.456	0.0149195
709.535	0.0150652
709.613	0.0150568
709.691	0.0153079
709.769	0.0150613
709.847	0.0149702
709.925	0.0149932
710.003	0.0149097
710.081	0.0147892
710.160	0.0145238
710.238	0.0146120
710.316	0.0144431
710.394	0.0143925
710.472	0.0144255
710.550	0.0143057
710.628	0.0142082
710.706	0.0143463
710.785	0.0143645
710.863	0.0143819
710.941	0.0143844
711.019	0.0145328
711.097	0.0146667
711.175	0.0148234
711.253	0.0149780
711.331	0.0153045
711.410	0.0152911
711.488	0.0153313
711.566	0.0154689
711.644	0.0155305
711.722	0.0156154
711.800	0.0155775
711.878	0.0157002
711.956	0.0154884
712.035	0.0154449
712.113	0.0152391
712.191	0.0151299
712.269	0.0148760
712.347	0.0146278
712.425	0.0145712
712.503	0.0143980
712.581	0.0143573
712.660	0.0143339
712.738	0.0140686
712.816	0.0141010
712.894	0.0140898
712.972	0.0140694
713.050	0.0140858
713.128	0.0140251
713.206	0.0139324
713.285	0.0139181
713.363	0.0138972
713.441	0.0137975
713.519	0.0138522
713.597	0.0137376
713.675	0.0136196
713.753	0.0136095
713.831	0.0135871
713.910	0.0133900
713.988	0.0134706
714.066	0.0134993
714.144	0.0135149
714.222	0.0135215
714.300	0.0137215
714.378	0.0137502
714.456	0.0138883
714.535	0.0140065
714.613	0.0141450
714.691	0.0144666
714.769	0.0146446
714.847	0.0147119
714.925	0.0147077
715.003	0.0148096
715.081	0.0148692
715.160	0.0149285
715.238	0.0149561
715.316	0.0149695
715.394	0.0149287
715.472	0.0148590
715.550	0.0148064
715.628	0.0146392
715.706	0.0145430
715.785	0.0145840
715.863	0.0145609
715.941	0.0145108
716.019	0.0145533
716.097	0.0145940
716.175	0.0145661
716.253	0.0147094
716.331	0.0146066
716.410	0.0145808
716.488	0.0147649
716.566	0.0148911
716.644	0.0149890
716.722	0.0149605
716.800	0.0150045
716.878	0.0150240
716.956	0.0151459
717.035	0.0152973
717.113	0.0152786
717.191	0.0152905
717.269	0.0153679
717.347	0.0153735
717.425	0.0154505
717.503	0.0153369
717.581	0.0153391
717.660	0.0152325
717.738	0.0152772
717.816	0.0150928
717.894	0.0149824
717.972	0.0146774
718.050	0.0146720
718.128	0.0145782
718.206	0.0143644
718.285	0.0141844
718.363	0.0141802
718.441	0.0140340
718.519	0.0139085
718.597	0.0137381
718.675	0.0136245
718.753	0.0136770
718.831	0.0135883
718.910	0.0136399
718.988	0.0133440
719.066	0.0134965
719.144	0.0135635
719.222	0.0135243
719.300	0.0134263
719.378	0.0134750
719.456	0.0135379
719.535	0.0136005
719.613	0.0137843
719.691	0.0137689
719.769	0.0138546
719.847	0.0139480
719.925	0.0140925
720.003	0.0141509
720.081	0.0142725
720.160	0.0142684
720.238	0.0143660
720.316	0.0144983
720.394	0.0144829
720.472	0.0144390
720.550	0.0144262
720.628	0.0146080
720.706	0.0144640
720.785	0.0144578
720.863	0.0143315
720.941	0.0143457
721.019	0.0141663
721.097	0.0142308
721.175	0.0142011
721.253	0.0142155
721.331	0.0142532
721.410	0.0144401
721.488	0.0143687
721.566	0.0144212
721.644	0.0144945
721.722	0.0145081
721.800	0.0147404
721.878	0.0149394
721.956	0.0152879
722.035	0.0152685
722.113	0.0152410
722.191	0.0153363
722.269	0.0155114
722.347	0.0154707
722.425	0.0155198
722.503	0.0155302
722.581	0.0156036
722.660	0.0154889
722.738	0.0153152
722.816	0.0153522
722.894	0.0153572
722.972	0.0151565
723.050	0.0152673
723.128	0.0150754
723.206	0.0152154
723.285	0.0151749
723.363	0.0149922
723.441	0.0149220
723.519	0.0148612
723.597	0.0149557
723.675	0.0148546
723.753	0.0147767
723.831	0.0146171
723.910	0.0146318
723.988	0.0143935
724.066	0.0143669
724.144	0.0141697
724.222	0.0140091
724.300	0.0138197
724.378	0.0137597
724.456	0.0136209
724.535	0.0136754
724.613	0.0134192
724.691	0.0133585
724.769	0.0133048
724.847	0.0132355
724.925	0.0134012
725.003	0.0134143
725.081	0.0134067
725.160	0.0135791
725.238	0.0137285
725.316	0.0137743
725.394	0.0139776
725.472	0.0140105
725.550	0.0141862
725.628	0.0143210
725.706	0.0144450
725.785	0.0144045
725.863	0.0142953
725.941	0.0143877
726.019	0.0144520
726.097	0.0144283
726.175	0.0143517
726.253	0.0143203
726.331	0.0141702
726.410	0.0141784
726.488	0.0141229
726.566	0.0140979
726.644	0.0142158
726.722	0.0143250
726.800	0.0143700
726.878	0.0143225
726.956	0.0144161
727.035	0.0143826
727.113	0.0144712
727.191	0.0146429
727.269	0.0148299
727.347	0.0148374
727.425	0.0149796
727.503	0.0151380
727.581	0.0152576
727.660	0.0154015
727.738	0.0155409
727.816	0.0156464
727.894	0.0157238
727.972	0.0157867
728.050	0.0158808
728.128	0.0158727
728.206	0.0158316
728.285	0.0158431
728.363	0.0156630
728.441	0.0157207
728.519	0.0156216
728.597	0.0153535
728.675	0.0152228
728.753	0.0151249
728.831	0.0150203
728.910	0.0149819
728.988	0.0148959
729.066	0.0148232
729.144	0.0148030
729.222	0.0146964
729.300	0.0146067
729.378	0.0145789
729.456	0.0145158
729.535	0.0145480
729.613	0.0145315
729.691	0.0144498
729.769	0.0143368
729.847	0.0142824
729.925	0.0142444
730.003	0.0139729
730.081	0.0138174
730.160	0.0136876
730.238	0.0136611
730.316	0.0133831
730.394	0.0134189
730.472	0.0134591
730.550	0.0133436
730.628	0.0133071
730.706	0.0132800
730.785	0.0133299
730.863	0.0134595
730.941	0.0135437
731.019	0.0136076
731.097	0.0137737
731.175	0.0140504
731.253	0.0139711
731.331	0.0141720
731.410	0.0142606
731.488	0.0141859
731.566	0.0143371
731.644	0.0143628
731.722	0.0143691
731.800	0.0142858
731.878	0.0143012
731.956	0.0143070
732.035	0.0144289
732.113	0.0143816
732.191	0.0142518
732.269	0.0142574
732.347	0.0142962
732.425	0.0142280
732.503	0.0142546
732.581	0.0144144
732.660	0.0144743
732.738	0.0145430
732.816	0.0147539
732.894	0.0148394
732.972	0.0148229
733.050	0.0150687
733.128	0.0152280
733.206	0.0155633
733.285	0.0154250
733.363	0.0153669
733.441	0.0155736
733.519	0.0156931
733.597	0.0156437
733.675	0.0157467
733.753	0.0156524
733.831	0.0156148
733.910	0.0155565
733.988	0.0155359
734.066	0.0154097
734.144	0.0153522
734.222	0.0151633
734.300	0.0151226
734.378	0.0149277
734.456	0.0148781
734.535	0.0149194
734.613	0.0148722
734.691	0.0148203
734.769	0.0146941
734.847	0.0147307
734.925	0.0148840
735.003	0.0145438
735.081	0.0147221
735.160	0.0146648
735.238	0.0145789
735.316	0.0145670
735.394	0.0145881
735.472	0.0143304
735.550	0.0142175
735.628	0.0140451
735.706	0.0141020
735.785	0.0137394
735.863	0.0136797
735.941	0.0136607
736.019	0.0135018
736.097	0.0131585
736.175	0.0132063
736.253	0.0130132
736.331	0.0131870
736.410	0.0133559
736.488	0.0132850
736.566	0.0133995
736.644	0.0133793
736.722	0.0134291
736.800	0.0136131
736.878	0.0138403
736.956	0.0137389
737.035	0.0138774
737.113	0.0141124
737.191	0.0140343
737.269	0.0141125
737.347	0.0142297
737.425	0.0143370
737.503	0.0142702
737.581	0.0142588
737.660	0.0142621
737.738	0.0143755
737.816	0.0142419
737.894	0.0142668
737.972	0.0142726
738.050	0.0141629
738.128	0.0143841
738.206	0.0144592
738.285	0.0146151
738.363	0.0144801
738.441	0.0147197
738.519	0.0148016
738.597	0.0149187
738.675	0.0150729
738.753	0.0152961
738.831	0.0151782
738.910	0.0153778
738.988	0.0154651
739.066	0.0156348
739.144	0.0156979
739.222	0.0155565
739.300	0.0155965
739.378	0.0155503
739.456	0.0155380
739.535	0.0154591
739.613	0.0154224
739.691	0.0153754
739.769	0.0152296
739.847	0.0151630
739.925	0.0151019
740.003	0.0149361
740.081	0.0149256
740.160	0.0150336
740.238	0.0150204
740.316	0.0148136
740.394	0.0147335
740.472	0.0148112
740.550	0.0147362
740.628	0.0146844
740.706	0.0146882
740.785	0.0147430
740.863	0.0146998
740.941	0.0146070
741.019	0.0145020
741.097	0.0145029
741.175	0.0143153
741.253	0.0143088
741.331	0.0141125
741.410	0.0139435
741.488	0.0139165
741.566	0.0136323
741.644	0.0136301
741.722	0.0135760
741.800	0.0135575
741.878	0.0133171
741.956	0.0134311
742.035	0.0133222
742.113	0.0131789
742.191	0.0131498
742.269	0.0132633
742.347	0.0132275
742.425	0.0132941
742.503	0.0134189
742.581	0.0135275
742.660	0.0134333
742.738	0.0134985
742.816	0.0137231
742.894	0.0136818
742.972	0.0138591
743.050	0.0139749
743.128	0.0140492
743.206	0.0141017
743.285	0.0140928
743.363	0.0142690
743.441	0.0143763
743.519	0.0144164
743.597	0.0144704
743.675	0.0144266
743.753	0.0145518
743.831	0.0145702
743.910	0.0145067
743.988	0.0145043
744.066	0.0146326
744.144	0.0146799
744.222	0.0149455
744.300	0.0148306
744.378	0.0149928
744.456	0.0151910
744.535	0.0150135
744.613	0.0152338
744.691	0.0154154
744.769	0.0154567
744.847	0.0154541
744.925	0.0155882
745.003	0.0153780
745.081	0.0154819
745.160	0.0156287
745.238	0.0157332
745.316	0.0157247
745.394	0.0156437
745.472	0.0157332
745.550	0.0157153
745.628	0.0155810
745.706	0.0154519
745.785	0.0155483
745.863	0.0153989
745.941	0.0152251
746.019	0.0151718
746.097	0.0151472
746.175	0.0151062
746.253	0.0151278
746.331	0.0151348
746.410	0.0150159
746.488	0.0150154
746.566	0.0148754
746.644	0.0148136
746.722	0.0147813
746.800	0.0146248
746.878	0.0145607
746.956	0.0145686
747.035	0.0144304
747.113	0.0143068
747.191	0.0141477
747.269	0.0141724
747.347	0.0140557
747.425	0.0139204
747.503	0.0139151
747.581	0.0137625
747.660	0.0135048
747.738	0.0134686
747.816	0.0135623
747.894	0.0134090
747.972	0.0133244
748.050	0.0131398
748.128	0.0131860
748.206	0.0131689
748.285	0.0130994
748.363	0.0131197
748.441	0.0132177
748.519	0.0132018
748.597	0.0130908
748.675	0.0131950
748.753	0.0131567
748.831	0.0132230
748.910	0.0132110
748.988	0.0132098
749.066	0.0134229
749.144	0.0135660
749.222	0.0137099
749.300	0.0136636
749.378	0.0137849
749.456	0.0140043
749.535	0.0141828
749.613	0.0143404
749.691	0.0144691
749.769	0.0145789
749.847	0.0146336
749.925	0.0146906
750.003	0.0148073
750.081	0.0148263
750.160	0.0148645
750.238	0.0151369
750.316	0.0151218
750.394	0.0152178
750.472	0.0151622
750.550	0.0153596
750.628	0.0154041
750.706	0.0153732
750.785	0.0156493
750.863	0.0156326
750.941	0.0158449
751.019	0.0157864
751.097	0.0157913
751.175	0.0159113
751.253	0.0159000
751.331	0.0159982
751.410	0.0160760
751.488	0.0160155
751.566	0.0161356
751.644	0.0159376
751.722	0.0159321
751.800	0.0157523
751.878	0.0156272
751.956	0.0153774
752.035	0.0153087
752.113	0.0153579
752.191	0.0150310
752.269	0.0149415
752.347	0.0148704
752.425	0.0148641
752.503	0.0147755
752.581	0.0145397
752.660	0.0145293
752.738	0.0145033
752.816	0.0144843
752.894	0.0143316
752.972	0.0142040
753.050	0.0142332
753.128	0.0141666
753.206	0.0139763
753.285	0.0140637
753.363	0.0139339
753.441	0.0138808
753.519	0.0136843
753.597	0.0136891
753.675	0.0136509
753.753	0.0135199
753.831	0.0133808
753.910	0.0133512
753.988	0.0131693
754.066	0.0131104
754.144	0.0131285
754.222	0.0130156
754.300	0.0128011
754.378	0.0129365
754.456	0.0129670
754.535	0.0129758
754.613	0.0128530
754.691	0.0129224
754.769	0.0129198
754.847	0.0128904
754.925	0.0130700
755.003	0.0130859
755.081	0.0132643
755.160	0.0135178
755.238	0.0135624
755.316	0.0136874
755.394	0.0139043
755.472	0.0140627
755.550	0.0142171
755.628	0.0141685
755.706	0.0143823
755.785	0.0143868
755.863	0.0145776
755.941	0.0146432
756.019	0.0146375
756.097	0.0147351
756.175	0.0149338
756.253	0.0148850
756.331	0.0150084
756.410	0.0148929
756.488	0.0150791
756.566	0.0152592
756.644	0.0153020
756.722	0.0154412
756.800	0.0155775
756.878	0.0157587
756.956	0.0157926
757.035	0.0160010
757.113	0.0161175
757.191	0.0162546
757.269	0.0163583
757.347	0.0163544
757.425	0.0163795
757.503	0.0166262
757.581	0.0165038
757.660	0.0163068
757.738	0.0163266
757.816	0.0163561
757.894	0.0160863
757.972	0.0159940
758.050	0.0157612
758.128	0.0155495
758.206	0.0155259
758.285	0.0153288
758.363	0.0152367
758.441	0.0151100
758.519	0.0149200
758.597	0.0147137
758.675	0.0147111
758.753	0.0145260
758.831	0.0144664
758.910	0.0144491
758.988	0.0142131
759.066	0.0142424
759.144	0.0141987
759.222	0.0141494
759.300	0.0140334
759.378	0.0138466
759.456	0.0139188
759.535	0.0138049
759.613	0.0138239
759.691	0.0137041
759.769	0.0135004
759.847	0.0135501
759.925	0.0133738
760.003	0.0133527
760.081	0.0132140
760.160	0.0130895
760.238	0.0130611
760.316	0.0128436
760.394	0.0128551
760.472	0.0129123
760.550	0.0128782
760.628	0.0130000
760.706	0.0128757
760.785	0.0129163
760.863	0.0129115
760.941	0.0129423
761.019	0.0129611
761.097	0.0131802
761.175	0.0131928
761.253	0.0132121
761.331	0.0133669
761.410	0.0134401
761.488	0.0134448
761.566	0.0136841
761.644	0.0138044
761.722	0.0137084
761.800	0.0139767
761.878	0.0141476
761.956	0.0141228
762.035	0.0143172
762.113	0.0144827
762.191	0.0145219
762.269	0.0146805
762.347	0.0147665
762.425	0.0146326
762.503	0.0148029
762.581	0.0151128
762.660	0.0150740
762.738	0.0151465
762.816	0.0154162
762.894	0.0154350
762.972	0.0155577
763.050	0.0155615
763.128	0.0155931
763.206	0.0156538
763.285	0.0158221
763.363	0.0158946
763.441	0.0160651
763.519	0.0159752
763.597	0.0160564
763.675	0.0161548
763.753	0.0162770
763.831	0.0161876
763.910	0.0161131
763.988	0.0160575
764.066	0.0161822
764.144	0.0160664
764.222	0.0158945
764.300	0.0158260
764.378	0.0158154
764.456	0.0155708
764.535	0.0155080
764.613	0.0154659
764.691	0.0152695
764.769	0.0151221
764.847	0.0150009
764.925	0.0149737
765.003	0.0148526
765.081	0.0147295
765.160	0.0146291
765.238	0.0146763
765.316	0.0143721
765.394	0.0141500
765.472	0.0142061
765.550	0.0141369
765.628	0.0140582
765.706	0.0140189
765.785	0.0139722
765.863	0.0139477
765.941	0.0136987
766.019	0.0136606
766.097	0.0137209
766.175	0.0134448
766.253	0.0134983
766.331	0.0134367
766.410	0.0132448
766.488	0.0133083
766.566	0.0131927
766.644	0.0131770
766.722	0.0131670
766.800	0.0130396
766.878	0.0131879
766.956	0.0132301
767.035	0.0131117
767.113	0.0130786
767.191	0.0131127
767.269	0.0132018
767.347	0.0131757
767.425	0.0131602
767.503	0.0132302
767.581	0.0132738
767.660	0.0133648
767.738	0.0134882
767.816	0.0137465
767.894	0.0137408
767.972	0.0138823
768.050	0.0139178
768.128	0.0139729
768.206	0.0143545
768.285	0.0142377
768.363	0.0144805
768.441	0.0145508
768.519	0.0146614
768.597	0.0146207
768.675	0.0146384
768.753	0.0147929
768.831	0.0150488
768.910	0.0149987
768.988	0.0150012
769.066	0.0151186
769.144	0.0152032
769.222	0.0153937
769.300	0.0154711
769.378	0.0154954
769.456	0.0155766
769.535	0.0156889
769.613	0.0158370
769.691	0.0158012
769.769	0.0158437
769.847	0.0158057
769.925	0.0159651
770.003	0.0160400
770.081	0.0158804
770.160	0.0159574
770.238	0.0159413
770.316	0.0159144
770.394	0.0158263
770.472	0.0158538
770.550	0.0157793
770.628	0.0157172
770.706	0.0154729
770.785	0.0153170
770.863	0.0152976
770.941	0.0151971
771.019	0.0151095
771.097	0.0151164
771.175	0.0150273
771.253	0.0148255
771.331	0.0146958
771.410	0.0148261
771.488	0.0145165
771.566	0.0144650
771.644	0.0145349
771.722	0.0143131
771.800	0.0142971
771.878	0.0143016
771.956	0.0141553
772.035	0.0140322
772.113	0.0140579
772.191	0.0140211
772.269	0.0139223
772.347	0.0139370
772.425	0.0138651
772.503	0.0138033
772.581	0.0134686
772.660	0.0135091
772.738	0.0134001
772.816	0.0132632
772.894	0.0131278
772.972	0.0131558
773.050	0.0130124
773.128	0.0131298
773.206	0.0129432
773.285	0.0129304
773.363	0.0128672
773.441	0.0129004
773.519	0.0129874
773.597	0.0128992
773.675	0.0130136
773.753	0.0130583
773.831	0.0130238
773.910	0.0130570
773.988	0.0131230
774.066	0.0131798
774.144	0.0133547
774.222	0.0134202
774.300	0.0135648
774.378	0.0136501
774.456	0.0139642
774.535	0.0138850
774.613	0.0140053
774.691	0.0143327
774.769	0.0143820
774.847	0.0143596
774.925	0.0143138
775.003	0.0144025
775.081	0.0145155
775.160	0.0147800
775.238	0.0148531
775.316	0.0148273
775.394	0.0150236
775.472	0.0149986
775.550	0.0151495
775.628	0.0152059
775.706	0.0153265
775.785	0.0155378
775.863	0.0155740
775.941	0.0156553
776.019	0.0157199
776.097	0.0157710
776.175	0.0157762
776.253	0.0158784
776.331	0.0159814
776.410	0.0158536
776.488	0.0159367
776.566	0.0158994
776.644	0.0159536
776.722	0.0159075
776.800	0.0159381
776.878	0.0158063
776.956	0.0158785
777.035	0.0157199
777.113	0.0156808
777.191	0.0155312
777.269	0.0154543
777.347	0.0153135
777.425	0.0152949
777.503	0.0151418
777.581	0.0151333
777.660	0.0149219
777.738	0.0147003
777.816	0.0146987
777.894	0.0147099
777.972	0.0145519
778.050	0.0144910
778.128	0.0142914
778.206	0.0141715
778.285	0.0141587
778.363	0.0141471
778.441	0.0140904
778.519	0.0140577
778.597	0.0138915
778.675	0.0138708
778.753	0.0138634
778.831	0.0138074
778.910	0.0136945
778.988	0.0135241
779.066	0.0134903
779.144	0.0133021
779.222	0.0132262
779.300	0.0130482
779.378	0.0130946
779.456	0.0130589
779.535	0.0131385
779.613	0.0130199
779.691	0.0130379
779.769	0.0131023
779.847	0.0132114
779.925	0.0131911
780.003	0.0131107
780.081	0.0131841
780.160	0.0131945
780.238	0.0134235
780.316	0.0134503
780.394	0.0136096
780.472	0.0138882
780.550	0.0138879
780.628	0.0139167
780.706	0.0140910
780.785	0.0141741
780.863	0.0142696
780.941	0.0143732
781.019	0.0144675
781.097	0.0145591
781.175	0.0145356
781.253	0.0146401
781.331	0.0146716
781.410	0.0147900
781.488	0.0148920
781.566	0.0149146
781.644	0.0149798
781.722	0.0149956
781.800	0.0149732
781.878	0.0151408
781.956	0.0151749
782.035	0.0153356
782.113	0.0153677
782.191	0.0154009
782.269	0.0154504
782.347	0.0156854
782.425	0.0156422
782.503	0.0156597
782.581	0.0156254
782.660	0.0157104
782.738	0.0156984
782.816	0.0157004
782.894	0.0155910
782.972	0.0155245
783.050	0.0156526
783.128	0.0155286
783.206	0.0155802
783.285	0.0154958
783.363	0.0155039
783.441	0.0154150
783.519	0.0152377
783.597	0.0151813
783.675	0.0152314
783.753	0.0151945
783.831	0.0150585
783.910	0.0148756
783.988	0.0146925
784.066	0.0146367
784.144	0.0145832
784.222	0.0144716
784.300	0.0144008
784.378	0.0141976
784.456	0.0140789
784.535	0.0140974
784.613	0.0141212
784.691	0.0140120
784.769	0.0139964
784.847	0.0139812
784.925	0.0140473
785.003	0.0139485
785.081	0.0138950
785.160	0.0139280
785.238	0.0138970
785.316	0.0138340
785.394	0.0139642
785.472	0.0139226
785.550	0.0138573
785.628	0.0138250
785.706	0.0137046
785.785	0.0136574
785.863	0.0136257
785.941	0.0135833
786.019	0.0135120
786.097	0.0137170
786.175	0.0136427
786.253	0.0135541
786.331	0.0136848
786.410	0.0137566
786.488	0.0138553
786.566	0.0138887
786.644	0.0138690
786.722	0.0140160
786.800	0.0139276
786.878	0.0138960
786.956	0.0138718
787.035	0.0140005
787.113	0.0140119
787.191	0.0140361
787.269	0.0141978
787.347	0.0142901
787.425	0.0143232
787.503	0.0143964
787.581	0.0143335
787.660	0.0144636
787.738	0.0143569
787.816	0.0145319
787.894	0.0146465
787.972	0.0145852
788.050	0.0147370
788.128	0.0147915
788.206	0.0148148
788.285	0.0148155
788.363	0.0149815
788.441	0.0149728
788.519	0.0150405
788.597	0.0150851
788.675	0.0150841
788.753	0.0151831
788.831	0.0152414
788.910	0.0152511
788.988	0.0152335
789.066	0.0152863
789.144	0.0151377
789.222	0.0152477
789.300	0.0154405
789.378	0.0153108
789.456	0.0152855
789.535	0.0154037
789.613	0.0153434
789.691	0.0151463
789.769	0.0151172
789.847	0.0151809
789.925	0.0152365
790.003	0.0150928
790.081	0.0151316
790.160	0.0149049
790.238	0.0149535
790.316	0.0149430
790.394	0.0148194
790.472	0.0146063
790.550	0.0144231
790.628	0.0144857
790.706	0.0145513
790.785	0.0145049
790.863	0.0144154
790.941	0.0144238
791.019	0.0144337
791.097	0.0142569
791.175	0.0141227
791.253	0.0142326
791.331	0.0143530
791.410	0.0142688
791.488	0.0141567
791.566	0.0142973
791.644	0.0142960
791.722	0.0144120
791.800	0.0141979
791.878	0.0143034
791.956	0.0140616
792.035	0.0141557
792.113	0.0141366
792.191	0.0139387
792.269	0.0137997
792.347	0.0139252
792.425	0.0137739
792.503	0.0137332
792.581	0.0138358
792.660	0.0138477
792.738	0.0137444
792.816	0.0136938
792.894	0.0137671
792.972	0.0138175
793.050	0.0137849
793.128	0.0138463
793.206	0.0138869
793.285	0.0137478
793.363	0.0138979
793.441	0.0139263
793.519	0.0140337
793.597	0.0141043
793.675	0.0139816
793.753	0.0141419
793.831	0.0140891
793.910	0.0140974
793.988	0.0142499
794.066	0.0141702
794.144	0.0142012
794.222	0.0142387
794.300	0.0142731
794.378	0.0143047
794.456	0.0143123
794.535	0.0143348
794.613	0.0145317
794.691	0.0145354
794.769	0.0148171
794.847	0.0147549
794.925	0.0147210
795.003	0.0148018
795.081	0.0149344
795.160	0.0149842
795.238	0.0148949
795.316	0.0150246
795.394	0.0151658
795.472	0.0151428
795.550	0.0152467
795.628	0.0153642
795.706	0.0151982
795.785	0.0153361
795.863	0.0152796
795.941	0.0152029
796.019	0.0152757
796.097	0.0152534
796.175	0.0153900
796.253	0.0152331
796.331	0.0150951
796.410	0.0151595
796.488	0.0150673
796.566	0.0150273
796.644	0.0151578
796.722	0.0150261
796.800	0.0148971
796.878	0.0149601
796.956	0.0149570
797.035	0.0149904
797.113	0.0149862
797.191	0.0148827
797.269	0.0148549
797.347	0.0146832
797.425	0.0146058
797.503	0.0145348
797.581	0.0146008
797.660	0.0144505
797.738	0.0142478
797.816	0.0144392
797.894	0.0142651
797.972	0.0142673
798.050	0.0142929
798.128	0.0142086
798.206	0.0139865
798.285	0.0140041
798.363	0.0140358
798.441	0.0139169
798.519	0.0138938
798.597	0.0138893
798.675	0.0136696
798.753	0.0137582
798.831	0.0136200
798.910	0.0135635
798.988	0.0136420
799.066	0.0136486
799.144	0.0137078
799.222	0.0136451
799.300	0.0135841
799.378	0.0135961
799.456	0.0137177
799.535	0.0137429
799.613	0.0138161
799.691	0.0137416
799.769	0.0139938
799.847	0.0139328
799.925	0.0140118
800.003	0.0140578
800.081	0.0142396
800.160	0.0141700
800.238	0.0142503
800.316	0.0143622
800.394	0.0143723
800.472	0.0146438
800.550	0.0144881
800.628	0.0144453
800.706	0.0144265
800.785	0.0145052
800.863	0.0145418
800.941	0.0145470
801.019	0.0146372
801.097	0.0147144
801.175	0.0147980
801.253	0.0149228
801.331	0.0148076
801.410	0.0150610
801.488	0.0152055
801.566	0.0152512
801.644	0.0150789
801.722	0.0151994
801.800	0.0151888
801.878	0.0153635
801.956	0.0152158
802.035	0.0152157
802.113	0.0152630
802.191	0.0152703
802.269	0.0154872
802.347	0.0152909
802.425	0.0151350
802.503	0.0152061
802.581	0.0151855
802.660	0.0150370
802.738	0.0149326
802.816	0.0149111
802.894	0.0148538
802.972	0.0147579
803.050	0.0147395
803.128	0.0147095
803.206	0.0149203
803.285	0.0147501
803.363	0.0146260
803.441	0.0145534
803.519	0.0145486
803.597	0.0145714
803.675	0.0144123
803.753	0.0145138
803.831	0.0142979
803.910	0.0143072
803.988	0.0141953
804.066	0.0140894
804.144	0.0141233
804.222	0.0140718
804.300	0.0141476
804.378	0.0138530
804.456	0.0139606
804.535	0.0139014
804.613	0.0140133
804.691	0.0141045
804.769	0.0140456
804.847	0.0140887
804.925	0.0142019
805.003	0.0140910
805.081	0.0141553
805.160	0.0141492
805.238	0.0143914
805.316	0.0141735
805.394	0.0140690
805.472	0.0140886
805.550	0.0140734
805.628	0.0140559
805.706	0.0140188
805.785	0.0139558
805.863	0.0140457
805.941	0.0138754
806.019	0.0139616
806.097	0.0141101
806.175	0.0141755
806.253	0.0140733
806.331	0.0141565
806.410	0.0142352
806.488	0.0142529
806.566	0.0143623
806.644	0.0144304
806.722	0.0145036
806.800	0.0145891
806.878	0.0145482
806.956	0.0146248
807.035	0.0146873
807.113	0.0148115
807.191	0.0149306
807.269	0.0148991
807.347	0.0147192
807.425	0.0147398
807.503	0.0148510
807.581	0.0148735
807.660	0.0147999
807.738	0.0148544
807.816	0.0147351
807.894	0.0147998
807.972	0.0149667
808.050	0.0149212
808.128	0.0147715
808.206	0.0148592
808.285	0.0149246
808.363	0.0149110
808.441	0.0148292
808.519	0.0146287
808.597	0.0147260
808.675	0.0147155
808.753	0.0146706
808.831	0.0147160
808.910	0.0146428
808.988	0.0144971
809.066	0.0145899
809.144	0.0144898
809.222	0.0144834
809.300	0.0144661
809.378	0.0144370
809.456	0.0145611
809.535	0.0145582
809.613	0.0145741
809.691	0.0144572
809.769	0.0144296
809.847	0.0145829
809.925	0.0145210
810.003	0.0145714
810.081	0.0144624
810.160	0.0145342
810.238	0.0144498
810.316	0.0145464
810.394	0.0144370
810.472	0.0144865
810.550	0.0143793
810.628	0.0143507
810.706	0.0144778
810.785	0.0144693
810.863	0.0145458
810.941	0.0143889
811.019	0.0143540
811.097	0.0144984
811.175	0.0144419
811.253	0.0145086
811.331	0.0145055
811.410	0.0145082
811.488	0.0146046
811.566	0.0144728
811.644	0.0145762
811.722	0.0145881
811.800	0.0144632
811.878	0.0144370
811.956	0.0144664
812.035	0.0145707
812.113	0.0143951
812.191	0.0144129
812.269	0.0141853
812.347	0.0143285
812.425	0.0142298
812.503	0.0143060
812.581	0.0142560
812.660	0.0142197
812.738	0.0142876
812.816	0.0142788
812.894	0.0143463
812.972	0.0144500
813.050	0.0144392
813.128	0.0144983
813.206	0.0144427
813.285	0.0145057
813.363	0.0146185
813.441	0.0144844
813.519	0.0146426
813.597	0.0145880
813.675	0.0144922
813.753	0.0145776
813.831	0.0145746
813.910	0.0145527
813.988	0.0145110
814.066	0.0144850
814.144	0.0144772
814.222	0.0145333
814.300	0.0144169
814.378	0.0144367
814.456	0.0142813
814.535	0.0143789
814.613	0.0143678
814.691	0.0142442
814.769	0.0145269
814.847	0.0143914
814.925	0.0143951
815.003	0.0142377
815.081	0.0142126
815.160	0.0142904
815.238	0.0144538
815.316	0.0143951
815.394	0.0144769
815.472	0.0145041
815.550	0.0143637
815.628	0.0144579
815.706	0.0145391
815.785	0.0144634
815.863	0.0146125
815.941	0.0146149
816.019	0.0144700
816.097	0.0145669
816.175	0.0146398
816.253	0.0147095
816.331	0.0146745
816.410	0.0147092
816.488	0.0147850
816.566	0.0148279
816.644	0.0146533
816.722	0.0148347
816.800	0.0147769
816.878	0.0147735
816.956	0.0149017
817.035	0.0147797
817.113	0.0147102
817.191	0.0147497
817.269	0.0146450
817.347	0.0145929
817.425	0.0146442
817.503	0.0145750
817.581	0.0146017
817.660	0.0145200
817.738	0.0145618
817.816	0.0144702
817.894	0.0144883
817.972	0.0143760
818.050	0.0143563
818.128	0.0143345
818.206	0.0144295
818.285	0.0143784
818.363	0.0143920
818.441	0.0143175
818.519	0.0143219
818.597	0.0141811
818.675	0.0144247
818.753	0.0144144
818.831	0.0142667
818.910	0.0142765
818.988	0.0144554
819.066	0.0143364
819.144	0.0142025
819.222	0.0141809
819.300	0.0142753
819.378	0.0143224
819.456	0.0143012
819.535	0.0143710
819.613	0.0143530
819.691	0.0143382
819.769	0.0142863
819.847	0.0144360
819.925	0.0144733
820.003	0.0143650
820.081	0.0144184
820.160	0.0143489
820.238	0.0142996
820.316	0.0143573
820.394	0.0143324
820.472	0.0142646
820.550	0.0142950
820.628	0.0142226
820.706	0.0142470
820.785	0.0143144
820.863	0.0142957
820.941	0.0141962
821.019	0.0141069
821.097	0.0141296
821.175	0.0142273
821.253	0.0143224
821.331	0.0143970
821.410	0.0143908
821.488	0.0144080
821.566	0.0143936
821.644	0.0143701
821.722	0.0144980
821.800	0.0145206
821.878	0.0145078
821.956	0.0145046
822.035	0.0145668
822.113	0.0145670
822.191	0.0145711
822.269	0.0146162
822.347	0.0146354
822.425	0.0146346
822.503	0.0147441
822.581	0.0147545
822.660	0.0147637
822.738	0.0147646
822.816	0.0148917
822.894	0.0149532
822.972	0.0149065
823.050	0.0150529
823.128	0.0150478
823.206	0.0149261
823.285	0.0150884
823.363	0.0149943
823.441	0.0150443
823.519	0.0150360
823.597	0.0150236
823.675	0.0149297
823.753	0.0149791
823.831	0.0149646
823.910	0.0150078
823.988	0.0149254
824.066	0.0147927
824.144	0.0147063
824.222	0.0146315
824.300	0.0146419
824.378	0.0144762
824.456	0.0144026
824.535	0.0143015
824.613	0.0143487
824.691	0.0142514
824.769	0.0142102
824.847	0.0142259
824.925	0.0140775
825.003	0.0140711
825.081	0.0141849
825.160	0.0141582
825.238	0.0141486
825.316	0.0142128
825.394	0.0141439
825.472	0.0140820
825.550	0.0141943
825.628	0.0142847
825.706	0.0142851
825.785	0.0143501
825.863	0.0141814
825.941	0.0143385
826.019	0.0143200
826.097	0.0141548
826.175	0.0141262
826.253	0.0141179
826.331	0.0140819
826.410	0.0141745
826.488	0.0141602
826.566	0.0142187
826.644	0.0142182
826.722	0.0143578
826.800	0.0142467
826.878	0.0142132
826.956	0.0144807
827.035	0.0144566
827.113	0.0144734
827.191	0.0145175
827.269	0.0143698
827.347	0.0145065
827.425	0.0144932
827.503	0.0145113
827.581	0.0144006
827.660	0.0143204
827.738	0.0144771
827.816	0.0144886
827.894	0.0144886
827.972	0.0144375
828.050	0.0145141
828.128	0.0145414
828.206	0.0146235
828.285	0.0145589
828.363	0.0145827
828.441	0.0147920
828.519	0.0147386
828.597	0.0146793
828.675	0.0147822
828.753	0.0148335
828.831	0.0147948
828.910	0.0147947
828.988	0.0148177
829.066	0.0149449
829.144	0.0150847
829.222	0.0147655
829.300	0.0147975
829.378	0.0148462
829.456	0.0149634
829.535	0.0150716
829.613	0.0149657
829.691	0.0150771
829.769	0.0151288
829.847	0.0150852
829.925	0.0148979
830.003	0.0149578
830.081	0.0148428
830.160	0.0148148
830.238	0.0148360
830.316	0.0147834
830.394	0.0146014
830.472	0.0145692
830.550	0.0146965
830.628	0.0145213
830.706	0.0144418
830.785	0.0142045
830.863	0.0142235
830.941	0.0143185
831.019	0.0141303
831.097	0.0141059
831.175	0.0141712
831.253	0.0139885
831.331	0.0141070
831.410	0.0140690
831.488	0.0139604
831.566	0.0140790
831.644	0.0141846
831.722	0.0140385
831.800	0.0140257
831.878	0.0139783
831.956	0.0141839
832.035	0.0140801
832.113	0.0142375
832.191	0.0141312
832.269	0.0143163
832.347	0.0143793
832.425	0.0142358
832.503	0.0143130
832.581	0.0144095
832.660	0.0142752
832.738	0.0142083
832.816	0.0142614
832.894	0.0142798
832.972	0.0142531
833.050	0.0142074
833.128	0.0142422
833.206	0.0142178
833.285	0.0141857
833.363	0.0143209
833.441	0.0143620
833.519	0.0142777
833.597	0.0144344
833.675	0.0145084
833.753	0.0146336
833.831	0.0145534
833.910	0.0146423
833.988	0.0147468
834.066	0.0147972
834.144	0.0149062
834.222	0.0148219
834.300	0.0148746
834.378	0.0147641
834.456	0.0147545
834.535	0.0148914
834.613	0.0149401
834.691	0.0147321
834.769	0.0147939
834.847	0.0148196
834.925	0.0148707
835.003	0.0148316
835.081	0.0147803
835.160	0.0147694
835.238	0.0148671
835.316	0.0147257
835.394	0.0148797
835.472	0.0147124
835.550	0.0147508
835.628	0.0147829
835.706	0.0147053
835.785	0.0147100
835.863	0.0146981
835.941	0.0146586
836.019	0.0145371
836.097	0.0145686
836.175	0.0146181
836.253	0.0145970
836.331	0.0144371
836.410	0.0145800
836.488	0.0145458
836.566	0.0145725
836.644	0.0145217
836.722	0.0145253
836.800	0.0144524
836.878	0.0145749
836.956	0.0145374
837.035	0.0145670
837.113	0.0144374
837.191	0.0144460
837.269	0.0143362
837.347	0.0143501
837.425	0.0143135
837.503	0.0143638
837.581	0.0145052
837.660	0.0142426
837.738	0.0144492
837.816	0.0143201
837.894	0.0142350
837.972	0.0142403
838.050	0.0142043
838.128	0.0141718
838.206	0.0142272
838.285	0.0142091
838.363	0.0142854
838.441	0.0143605
838.519	0.0142918
838.597	0.0142706
838.675	0.0142995
838.753	0.0143117
838.831	0.0142885
838.910	0.0143240
838.988	0.0144914
839.066	0.0145275
839.144	0.0144565
839.222	0.0143639
839.300	0.0144376
839.378	0.0145853
839.456	0.0145468
839.535	0.0143475
839.613	0.0145399
839.691	0.0145224
839.769	0.0144405
839.847	0.0144529
839.925	0.0145634
840.003	0.0146009
840.081	0.0144299
840.160	0.0146967
840.238	0.0145770
840.316	0.0144355
840.394	0.0144119
840.472	0.0145160
840.550	0.0144740
840.628	0.0145953
840.706	0.0144604
840.785	0.0145240
840.863	0.0145811
840.941	0.0145061
841.019	0.0144371
841.097	0.0145515
841.175	0.0145522
841.253	0.0145346
841.331	0.0146169
841.410	0.0144985
841.488	0.0144189
841.566	0.0146033
841.644	0.0145844
841.722	0.0146199
841.800	0.0145041
841.878	0.0144468
841.956	0.0145768
842.035	0.0144632
842.113	0.0143746
842.191	0.0144509
842.269	0.0144867
842.347	0.0145419
842.425	0.0144759
842.503	0.0143998
842.581	0.0143588
842.660	0.0143829
842.738	0.0143427
842.816	0.0144690
842.894	0.0144704
842.972	0.0142865
843.050	0.0142883
843.128	0.0144563
843.206	0.0145141
843.285	0.0144279
843.363	0.0143218
843.441	0.0144672
843.519	0.0145174
843.597	0.0144459
843.675	0.0145557
843.753	0.0144621
843.831	0.0145148
843.910	0.0143913
843.988	0.0146564
844.066	0.0144651
844.144	0.0144101
844.222	0.0145226
844.300	0.0145603
844.378	0.0145090
844.456	0.0145158
844.535	0.0145187
844.613	0.0147532
844.691	0.0146686
844.769	0.0145355
844.847	0.0146234
844.925	0.0146532
845.003	0.0145765
845.081	0.0145938
845.160	0.0146528
845.238	0.0146427
845.316	0.0145383
845.394	0.0145959
845.472	0.0145206
845.550	0.0144977
845.628	0.0145123
845.706	0.0145499
845.785	0.0144993
845.863	0.0145110
845.941	0.0145262
846.019	0.0146260
846.097	0.0144937
846.175	0.0144640
846.253	0.0144682
846.331	0.0144350
846.410	0.0143612
846.488	0.0145375
846.566	0.0145544
846.644	0.0146006
846.722	0.0144064
846.800	0.0143796
846.878	0.0145037
846.956	0.0144944
847.035	0.0143102
847.113	0.0143870
847.191	0.0145298
847.269	0.0144835
847.347	0.0145689
847.425	0.0144545
847.503	0.0144662
847.581	0.0145151
847.660	0.0146416
847.738	0.0144752
847.816	0.0145855
847.894	0.0144209
847.972	0.0145033
848.050	0.0145316
848.128	0.0146025
848.206	0.0147845
848.285	0.0148144
848.363	0.0146328
848.441	0.0145496
848.519	0.0146564
848.597	0.0147160
848.675	0.0145551
848.753	0.0145584
848.831	0.0146122
848.910	0.0144145
848.988	0.0145637
849.066	0.0144175
849.144	0.0144272
849.222	0.0144547
849.300	0.0144524
849.378	0.0144850
849.456	0.0144321
849.535	0.0143658
849.613	0.0143945
849.691	0.0145001
849.769	0.0144341
849.847	0.0144299
849.925	0.0142876
850.003	0.0143736
850.081	0.0142870
850.160	0.0143867
850.238	0.0144910
850.316	0.0143210
850.394	0.0144531
850.472	0.0146246
850.550	0.0146263
850.628	0.0145699
850.706	0.0147132
850.785	0.0146698
850.863	0.0146593
850.941	0.0147951
851.019	0.0147173
851.097	0.0148451
851.175	0.0146548
851.253	0.0147180
851.331	0.0147327
851.410	0.0146516
851.488	0.0147485
851.566	0.0144966
851.644	0.0145356
851.722	0.0145074
851.800	0.0144480
851.878	0.0144396
851.956	0.0144427
852.035	0.0143134
852.113	0.0143926
852.191	0.0144742
852.269	0.0144383
852.347	0.0143688
852.425	0.0145966
852.503	0.0142471
852.581	0.0143795
852.660	0.0144700
852.738	0.0143100
852.816	0.0143620
852.894	0.0144422
852.972	0.0143432
853.050	0.0143223
853.128	0.0144611
853.206	0.0144465
853.285	0.0144068
853.363	0.0142095
853.441	0.0143389
853.519	0.0143538
853.597	0.0141449
853.675	0.0142897
853.753	0.0143420
853.831	0.0144294
853.910	0.0142177
853.988	0.0142705
854.066	0.0142587
854.144	0.0143987
854.222	0.0143118
854.300	0.0143092
854.378	0.0144888
854.456	0.0143498
854.535	0.0144505
854.613	0.0144706
854.691	0.0144405
854.769	0.0144888
854.847	0.0146134
854.925	0.0147521
855.003	0.0146011
855.081	0.0144905
855.160	0.0145277
855.238	0.0145642
855.316	0.0144370
855.394	0.0143765
855.472	0.0143460
855.550	0.0143468
855.628	0.0143578
855.706	0.0142462
855.785	0.0144032
855.863	0.0144308
855.941	0.0144092
856.019	0.0143737
856.097	0.0144976
856.175	0.0143788
856.253	0.0144307
856.331	0.0143398
856.410	0.0142928
856.488	0.0142370
856.566	0.0144193
856.644	0.0143463
856.722	0.0143988
856.800	0.0143314
856.878	0.0143593
856.956	0.0143570
857.035	0.0143688
857.113	0.0143390
857.191	0.0143866
857.269	0.0143732
857.347	0.0144762
857.425	0.0144865
857.503	0.0143795
857.581	0.0145425
857.660	0.0146045
857.738	0.0145798
857.816	0.0146824
857.894	0.0145039
857.972	0.0144369
858.050	0.0146686
858.128	0.0146707
858.206	0.0144611
858.285	0.0144848
858.363	0.0145325
858.441	0.0146111
858.519	0.0145959
858.597	0.0145429
858.675	0.0146284
858.753	0.0145268
858.831	0.0145470
858.910	0.0145232
858.988	0.0146538
859.066	0.0144376
859.144	0.0144314
859.222	0.0145470
859.300	0.0145437
859.378	0.0146248
859.456	0.0146680
859.535	0.0145219
859.613	0.0145624
859.691	0.0146018
859.769	0.0146326
859.847	0.0146327
859.925	0.0146059
860.003	0.0147230
860.081	0.0147406
860.160	0.0148293
860.238	0.0147166
860.316	0.0147563
860.394	0.0147756
860.472	0.0148212
860.550	0.0146564
860.628	0.0147783
860.706	0.0147091
860.785	0.0146360
860.863	0.0147597
860.941	0.0146906
861.019	0.0146290
861.097	0.0145176
861.175	0.0145036
861.253	0.0145530
861.331	0.0145620
861.410	0.0144382
861.488	0.0144534
861.566	0.0144555
861.644	0.0146585
861.722	0.0144362
861.800	0.0142108
861.878	0.0143512
861.956	0.0143463
862.035	0.0144643
862.113	0.0143850
862.191	0.0144826
862.269	0.0142981
862.347	0.0145305
862.425	0.0143575
862.503	0.0143560
862.581	0.0142249
862.660	0.0143282
862.738	0.0141076
862.816	0.0142381
862.894	0.0142527
862.972	0.0140705
863.050	0.0140611
863.128	0.0141966
863.206	0.0140225
863.285	0.0141116
863.363	0.0141477
863.441	0.0142001
863.519	0.0139822
863.597	0.0140314
863.675	0.0142081
863.753	0.0142102
863.831	0.0141315
863.910	0.0142490
863.988	0.0143018
864.066	0.0142834
864.144	0.0142974
864.222	0.0143790
864.300	0.0145155
864.378	0.0144000
864.456	0.0145246
864.535	0.0146070
864.613	0.0145747
864.691	0.0146530
864.769	0.0144078
864.847	0.0146220
864.925	0.0146690
865.003	0.0145029
865.081	0.0146852
865.160	0.0146874
865.238	0.0145770
865.316	0.0147191
865.394	0.0147704
865.472	0.0147403
865.550	0.0147103
865.628	0.0147305
865.706	0.0147292
865.785	0.0146892
865.863	0.0146903
865.941	0.0146156
866.019	0.0147315
866.097	0.0147242
866.175	0.0146145
866.253	0.0145708
866.331	0.0146728
866.410	0.0146739
866.488	0.0146435
866.566	0.0146864
866.644	0.0146314
866.722	0.0146710
866.800	0.0145217
866.878	0.0146109
866.956	0.0148210
867.035	0.0146413
867.113	0.0145295
867.191	0.0144996
867.269	0.0146134
867.347	0.0146314
867.425	0.0145887
867.503	0.0144314
867.581	0.0144067
867.660	0.0143675
867.738	0.0144250
867.816	0.0143952
867.894	0.0143272
867.972	0.0143501
868.050	0.0143513
868.128	0.0142399
868.206	0.0143472
868.285	0.0142819
868.363	0.0140548
868.441	0.0141359
868.519	0.0142617
868.597	0.0143470
868.675	0.0142279
868.753	0.0141603
868.831	0.0142339
868.910	0.0143456
868.988	0.0141614
869.066	0.0142161
869.144	0.0142722
869.222	0.0141830
869.300	0.0143405
869.378	0.0142628
869.456	0.0142561
869.535	0.0141866
869.613	0.0142680
869.691	0.0143262
869.769	0.0141721
869.847	0.0140806
869.925	0.0140262
870.003	0.0141993
870.081	0.0142874
870.160	0.0143061
870.238	0.0143304
870.316	0.0142511
870.394	0.0143866
870.472	0.0142995
870.550	0.0144552
870.628	0.0145258
870.706	0.0144951
870.785	0.0145279
870.863	0.0145864
870.941	0.0145700
871.019	0.0146944
871.097	0.0146178
871.175	0.0146664
871.253	0.0147149
871.331	0.0147033
871.410	0.0147855
871.488	0.0147913
871.566	0.0147694
871.644	0.0147533
871.722	0.0148071
871.800	0.0148956
871.878	0.0147540
871.956	0.0147204
872.035	0.0147173
872.113	0.0148820
872.191	0.0148615
872.269	0.0147976
872.347	0.0149496
872.425	0.0147523
872.503	0.0145994
872.581	0.0148116
872.660	0.0147025
872.738	0.0146719
872.816	0.0146787
872.894	0.0147810
872.972	0.0148061
873.050	0.0148908
873.128	0.0148186
873.206	0.0146668
873.285	0.0147537
873.363	0.0148212
873.441	0.0147389
873.519	0.0145995
873.597	0.0146495
873.675	0.0147208
873.753	0.0147956
873.831	0.0145948
873.910	0.0143869
873.988	0.0145455
874.066	0.0146465
874.144	0.0143892
874.222	0.0145354
874.300	0.0143938
874.378	0.0143328
874.456	0.0143510
874.535	0.0142775
874.613	0.0143267
874.691	0.0142250
874.769	0.0141763
874.847	0.0142874
874.925	0.0144057
875.003	0.0142771
875.081	0.0141184
875.160	0.0143055
875.238	0.0142703
875.316	0.0143436
875.394	0.0142718
875.472	0.0141701
875.550	0.0142091
875.628	0.0142307
875.706	0.0142377
875.785	0.0143810
875.863	0.0142424
875.941	0.0142292
876.019	0.0143010
876.097	0.0143160
876.175	0.0143186
876.253	0.0144617
876.331	0.0145728
876.410	0.0143782
876.488	0.0143345
876.566	0.0143937
876.644	0.0145347
876.722	0.0144439
876.800	0.0145011
876.878	0.0144997
876.956	0.0143992
877.035	0.0145845
877.113	0.0145208
877.191	0.0145986
877.269	0.0146818
877.347	0.0146384
877.425	0.0145547
877.503	0.0145514
877.581	0.0146445
877.660	0.0147087
877.738	0.0146299
877.816	0.0145415
877.894	0.0145708
877.972	0.0146641
878.050	0.0146584
878.128	0.0146268
878.206	0.0146069
878.285	0.0147089
878.363	0.0147024
878.441	0.0147295
878.519	0.0146994
878.597	0.0146589
878.675	0.0145660
878.753	0.0146346
878.831	0.0147360
878.910	0.0147015
878.988	0.0145932
879.066	0.0146683
879.144	0.0146043
879.222	0.0146686
879.300	0.0146746
879.378	0.0146696
879.456	0.0145116
879.535	0.0144604
879.613	0.0145726
879.691	0.0146210
879.769	0.0144900
879.847	0.0145483
879.925	0.0145990
880.003	0.0143832
880.081	0.0144054
880.160	0.0145135
880.238	0.0145263
880.316	0.0143662
880.394	0.0144611
880.472	0.0145092
880.550	0.0144586
880.628	0.0145053
880.706	0.0144014
880.785	0.0144479
880.863	0.0142011
880.941	0.0142583
881.019	0.0142873
881.097	0.0144812
881.175	0.0142410
881.253	0.0142277
881.331	0.0143082
881.410	0.0142512
881.488	0.0142822
881.566	0.0142536
881.644	0.0143983
881.722	0.0142907
881.800	0.0143974
881.878	0.0142921
881.956	0.0143362
882.035	0.0143259
882.113	0.0144118
882.191	0.0144224
882.269	0.0144650
882.347	0.0145058
882.425	0.0143520
882.503	0.0142730
882.581	0.0144066
882.660	0.0144001
882.738	0.0143575
882.816	0.0144178
882.894	0.0145547
882.972	0.0144897
883.050	0.0143373
883.128	0.0145480
883.206	0.0147023
883.285	0.0146136
883.363	0.0143324
883.441	0.0144487
883.519	0.0143294
883.597	0.0143948
883.675	0.0143815
883.753	0.0143676
883.831	0.0145418
883.910	0.0144083
883.988	0.0144753
884.066	0.0143198
884.144	0.0143677
884.222	0.0146094
884.300	0.0143985
884.378	0.0143656
884.456	0.0144411
884.535	0.0145924
884.613	0.0143988
884.691	0.0144793
884.769	0.0145268
884.847	0.0143600
884.925	0.0143752
885.003	0.0145470
885.081	0.0143579
885.160	0.0145539
885.238	0.0144908
885.316	0.0145192
885.394	0.0146001
885.472	0.0146767
885.550	0.0145865
885.628	0.0145985
885.706	0.0147939
885.785	0.0147480
885.863	0.0147193
885.941	0.0148692
886.019	0.0148667
886.097	0.0148418
886.175	0.0147331
886.253	0.0146259
886.331	0.0147648
886.410	0.0146245
886.488	0.0148009
886.566	0.0147203
886.644	0.0146326
886.722	0.0146333
886.800	0.0146077
886.878	0.0144584
886.956	0.0144635
887.035	0.0144103
887.113	0.0145342
887.191	0.0144732
887.269	0.0144153
887.347	0.0144448
887.425	0.0143932
887.503	0.0144628
887.581	0.0145570
887.660	0.0144151
887.738	0.0143599
887.816	0.0143914
887.894	0.0143844
887.972	0.0144220
888.050	0.0143434
888.128	0.0143816
888.206	0.0143690
888.285	0.0143329
888.363	0.0143073
888.441	0.0143270
888.519	0.0144096
888.597	0.0143881
888.675	0.0143144
888.753	0.0143906
888.831	0.0143086
888.910	0.0143536
888.988	0.0142774
889.066	0.0143837
889.144	0.0144131
889.222	0.0143265
889.300	0.0143795
889.378	0.0143828
889.456	0.0144699
889.535	0.0144389
889.613	0.0144736
889.691	0.0144922
889.769	0.0144943
889.847	0.0145630
889.925	0.0145905
890.003	0.0145589
890.081	0.0144797
890.160	0.0145435
890.238	0.0145321
890.316	0.0146117
890.394	0.0146172
890.472	0.0145729
890.550	0.0143804
890.628	0.0145422
890.706	0.0144830
890.785	0.0144426
890.863	0.0144955
890.941	0.0143578
891.019	0.0145222
891.097	0.0143555
891.175	0.0142764
891.253	0.0142950
891.331	0.0143371
891.410	0.0143625
891.488	0.0143868
891.566	0.0144731
891.644	0.0144800
891.722	0.0144575
891.800	0.0143658
891.878	0.0144695
891.956	0.0144697
892.035	0.0147791
892.113	0.0146189
892.191	0.0146107
892.269	0.0145625
892.347	0.0144842
892.425	0.0145852
892.503	0.0145403
892.581	0.0145632
892.660	0.0146167
892.738	0.0145602
892.816	0.0145492
892.894	0.0146568
892.972	0.0144487
893.050	0.0144709
893.128	0.0145963
893.206	0.0147213
893.285	0.0144592
893.363	0.0146217
893.441	0.0145739
893.519	0.0145145
893.597	0.0144502
893.675	0.0145855
893.753	0.0146091
893.831	0.0144971
893.910	0.0145558
893.988	0.0145824
894.066	0.0145767
894.144	0.0145843
894.222	0.0146413
894.300	0.0146417
894.378	0.0146452
894.456	0.0145195
894.535	0.0145626
894.613	0.0146667
894.691	0.0145979
894.769	0.0145740
894.847	0.0145512
894.925	0.0146707
895.003	0.0146023
895.081	0.0147172
895.160	0.0144942
895.238	0.0144789
895.316	0.0144565
895.394	0.0144809
895.472	0.0143051
895.550	0.0143565
895.628	0.0144663
895.706	0.0144280
895.785	0.0144099
895.863	0.0144070
895.941	0.0144020
896.019	0.0143146
896.097	0.0144222
896.175	0.0143494
896.253	0.0143581
896.331	0.0144526
896.410	0.0144762
896.488	0.0144580
896.566	0.0143494
896.644	0.0142374
896.722	0.0144801
896.800	0.0143475
896.878	0.0144159
896.956	0.0144933
897.035	0.0145260
897.113	0.0145375
897.191	0.0144323
897.269	0.0142622
897.347	0.0143620
897.425	0.0142931
897.503	0.0144460
897.581	0.0143265
897.660	0.0142896
897.738	0.0142941
897.816	0.0144209
897.894	0.0142918
897.972	0.0142718
898.050	0.0144259
898.128	0.0145393
898.206	0.0144595
898.285	0.0144682
898.363	0.0144082
898.441	0.0144280
898.519	0.0145165
898.597	0.0144141
898.675	0.0144823
898.753	0.0142796
898.831	0.0144463
898.910	0.0143475
898.988	0.0144892
899.066	0.0145561
899.144	0.0144784
899.222	0.0145964
899.300	0.0146168
899.378	0.0146391
899.456	0.0146553
899.535	0.0147581
899.613	0.0146229
899.691	0.0147437
899.769	0.0146768
899.847	0.0148658
899.925	0.0147401
900.003	0.0146910
900.081	0.0149535
900.160	0.0148915
900.238	0.0147536
900.316	0.0148512
900.394	0.0147822
900.472	0.0148019
900.550	0.0147213
900.628	0.0148970
900.706	0.0146347
900.785	0.0146813
900.863	0.0145210
900.941	0.0146889
901.019	0.0146296
901.097	0.0146629
901.175	0.0146789
901.253	0.0145310
901.331	0.0144157
901.410	0.0145084
901.488	0.0145872
901.566	0.0145410
901.644	0.0144219
901.722	0.0143585
901.800	0.0142877
901.878	0.0145008
901.956	0.0144057
902.035	0.0144463
902.113	0.0143835
902.191	0.0143167
902.269	0.0142188
902.347	0.0143935
902.425	0.0144568
902.503	0.0143848
902.581	0.0141875
902.660	0.0143878
902.738	0.0142863
902.816	0.0142017
902.894	0.0142616
902.972	0.0143179
903.050	0.0143082
903.128	0.0141874
903.206	0.0142067
903.285	0.0142687
903.363	0.0143394
903.441	0.0142432
903.519	0.0141683
903.597	0.0142937
903.675	0.0141647
903.753	0.0142771
903.831	0.0141546
903.910	0.0141995
903.988	0.0141454
904.066	0.0142659
904.144	0.0143308
904.222	0.0143114
904.300	0.0143841
904.378	0.0142969
904.456	0.0144721
904.535	0.0145552
904.613	0.0145620
904.691	0.0146552
904.769	0.0144616
904.847	0.0144978
904.925	0.0145418
905.003	0.0147684
905.081	0.0146545
905.160	0.0147381
905.238	0.0147224
905.316	0.0147680
905.394	0.0147419
905.472	0.0146072
905.550	0.0146169
905.628	0.0146136
905.706	0.0146267
905.785	0.0146857
905.863	0.0145729
905.941	0.0146281
906.019	0.0146323
906.097	0.0143658
906.175	0.0144476
906.253	0.0143421
906.331	0.0144160
906.410	0.0146462
906.488	0.0144412
906.566	0.0143423
906.644	0.0144762
906.722	0.0144814
906.800	0.0144669
906.878	0.0142946
906.956	0.0142731
907.035	0.0143288
907.113	0.0144366
907.191	0.0144409
907.269	0.0143986
907.347	0.0144675
907.425	0.0143631
907.503	0.0144528
907.581	0.0144621
907.660	0.0145840
907.738	0.0145457
907.816	0.0146439
907.894	0.0145122
907.972	0.0146202
908.050	0.0144393
908.128	0.0145469
908.206	0.0145982
908.285	0.0147031
908.363	0.0145383
908.441	0.0145611
908.519	0.0145199
908.597	0.0145223
908.675	0.0144720
908.753	0.0145171
908.831	0.0145445
908.910	0.0144888
908.988	0.0144827
909.066	0.0146078
909.144	0.0144475
909.222	0.0144765
909.300	0.0144920
909.378	0.0145422
909.456	0.0144506
909.535	0.0144370
909.613	0.0145521
909.691	0.0145529
909.769	0.0146355
909.847	0.0146212
909.925	0.0145890
910.003	0.0144601
910.081	0.0146461
910.160	0.0144843
910.238	0.0145663
910.316	0.0146238
910.394	0.0147092
910.472	0.0146214
910.550	0.0146648
910.628	0.0145083
910.706	0.0145058
910.785	0.0145770
910.863	0.0145019
910.941	0.0144162
911.019	0.0145307
911.097	0.0143443
911.175	0.0143131
911.253	0.0142838
911.331	0.0143897
911.410	0.0142114
911.488	0.0141239
911.566	0.0143018
911.644	0.0144221
911.722	0.0143154
911.800	0.0141494
911.878	0.0141919
911.956	0.0142784
912.035	0.0142636
912.113	0.0142901
912.191	0.0142496
912.269	0.0143247
912.347	0.0144440
912.425	0.0142316
912.503	0.0143954
912.581	0.0144176
912.660	0.0144038
912.738	0.0144790
912.816	0.0144517
912.894	0.0144331
912.972	0.0145406
913.050	0.0146806
913.128	0.0145918
913.206	0.0145380
913.285	0.0146049
913.363	0.0146847
913.441	0.0147025
913.519	0.0147701
913.597	0.0147343
913.675	0.0146337
913.753	0.0147968
913.831	0.0147983
913.910	0.0146321
913.988	0.0148051
914.066	0.0147681
914.144	0.0147385
914.222	0.0146095
914.300	0.0147456
914.378	0.0147485
914.456	0.0146912
914.535	0.0146239
914.613	0.0146017
914.691	0.0147502
914.769	0.0146600
914.847	0.0147167
914.925	0.0146754
915.003	0.0146840
915.081	0.0147466
915.160	0.0147275
915.238	0.0145679
915.316	0.0144926
915.394	0.0145025
915.472	0.0145923
915.550	0.0144558
915.628	0.0145429
915.706	0.0146210
915.785	0.0144784
915.863	0.0145279
915.941	0.0144169
916.019	0.0144064
916.097	0.0143786
916.175	0.0143833
916.253	0.0144079
916.331	0.0144633
916.410	0.0144536
916.488	0.0143967
916.566	0.0143478
916.644	0.0143334
916.722	0.0143115
916.800	0.0144955
916.878	0.0142327
916.956	0.0142712
917.035	0.0143420
917.113	0.0142504
917.191	0.0142423
917.269	0.0142274
917.347	0.0142097
917.425	0.0141573
917.503	0.0141953
917.581	0.0141548
917.660	0.0140218
917.738	0.0142128
917.816	0.0142516
917.894	0.0142607
917.972	0.0143446
918.050	0.0143108
918.128	0.0143107
918.206	0.0143395
918.285	0.0142744
918.363	0.0144408
918.441	0.0145137
918.519	0.0146143
918.597	0.0146519
918.675	0.0147823
918.753	0.0147018
918.831	0.0146169
918.910	0.0145145
918.988	0.0148477
919.066	0.0146566
919.144	0.0146924
919.222	0.0147067
919.300	0.0146942
919.378	0.0147467
919.456	0.0145600
919.535	0.0146442
919.613	0.0147195
919.691	0.0147255
919.769	0.0145724
919.847	0.0146628
919.925	0.0145282
920.003	0.0146290
920.081	0.0147465
920.160	0.0146985
920.238	0.0145679
920.316	0.0146648
920.394	0.0146373
920.472	0.0146723
920.550	0.0146686
920.628	0.0147515
920.706	0.0147668
920.785	0.0146275
920.863	0.0145750
920.941	0.0147382
921.019	0.0146613
921.097	0.0146355
921.175	0.0147579
921.253	0.0147305
921.331	0.0146231
921.410	0.0145685
921.488	0.0144669
921.566	0.0144003
921.644	0.0144986
921.722	0.0146036
921.800	0.0145029
921.878	0.0145015
921.956	0.0144613
922.035	0.0143520
922.113	0.0143945
922.191	0.0145790
922.269	0.0143728
922.347	0.0143085
922.425	0.0143430
922.503	0.0143255
922.581	0.0144172
922.660	0.0144041
922.738	0.0144427
922.816	0.0144626
922.894	0.0144973
922.972	0.0143932
923.050	0.0144804
923.128	0.0143805
923.206	0.0144471
923.285	0.0144332
923.363	0.0144781
923.441	0.0144044
923.519	0.0145785
923.597	0.0144267
923.675	0.0145538
923.753	0.0145560
923.831	0.0144765
923.910	0.0145505
923.988	0.0144480
924.066	0.0144933
924.144	0.0144897
924.222	0.0144877
924.300	0.0144958
924.378	0.0145885
924.456	0.0144504
924.535	0.0145753
924.613	0.0144968
924.691	0.0145329
924.769	0.0144541
924.847	0.0144405
924.925	0.0146162
925.003	0.0146374
925.081	0.0145356
925.160	0.0146178
925.238	0.0146223
925.316	0.0145784
925.394	0.0146963
925.472	0.0147434
925.550	0.0147655
925.628	0.0146922
925.706	0.0145908
925.785	0.0145556
925.863	0.0146072
925.941	0.0146505
926.019	0.0146706
926.097	0.0146006
926.175	0.0146081
926.253	0.0146874
926.331	0.0147789
926.410	0.0146122
926.488	0.0146353
926.566	0.0145501
926.644	0.0144447
926.722	0.0145124
926.800	0.0145778
926.878	0.0145268
926.956	0.0144056
927.035	0.0144617
927.113	0.0145347
927.191	0.0144926
927.269	0.0142692
927.347	0.0143029
927.425	0.0144147
927.503	0.0143859
927.581	0.0144286
927.660	0.0143134
927.738	0.0142690
927.816	0.0142960
927.894	0.0143148
927.972	0.0142917
928.050	0.0144541
928.128	0.0141899
928.206	0.0142458
928.285	0.0144427
928.363	0.0144026
928.441	0.0145293
928.519	0.0144456
928.597	0.0143834
928.675	0.0143983
928.753	0.0146159
928.831	0.0145352
928.910	0.0144476
928.988	0.0145514
929.066	0.0143535
929.144	0.0145497
929.222	0.0143549
929.300	0.0144756
929.378	0.0145801
929.456	0.0145660
929.535	0.0144781
929.613	0.0144236
929.691	0.0143151
929.769	0.0145192
929.847	0.0144483
929.925	0.0144238
930.003	0.0145341
930.081	0.0146045
930.160	0.0147147
930.238	0.0146362
930.316	0.0147244
930.394	0.0146497
930.472	0.0146904
930.550	0.0148454
930.628	0.0146281
930.706	0.0146834
930.785	0.0147635
930.863	0.0146608
930.941	0.0146104
931.019	0.0146364
931.097	0.0145161
931.175	0.0146307
931.253	0.0146494
931.331	0.0146620
931.410	0.0145268
931.488	0.0145988
931.566	0.0144216
931.644	0.0144642
931.722	0.0144605
931.800	0.0144528
931.878	0.0143392
931.956	0.0143832
932.035	0.0143018
932.113	0.0143884
932.191	0.0143488
932.269	0.0142970
932.347	0.0142640
932.425	0.0143953
932.503	0.0144521
932.581	0.0143080
932.660	0.0143097
932.738	0.0143211
932.816	0.0142583
932.894	0.0143397
932.972	0.0144177
933.050	0.0143122
933.128	0.0142893
933.206	0.0142979
933.285	0.0142975
933.363	0.0141994
933.441	0.0144277
933.519	0.0143528
933.597	0.0143053
933.675	0.0142731
933.753	0.0143089
933.831	0.0143941
933.910	0.0143514
933.988	0.0144404
934.066	0.0144901
934.144	0.0145953
934.222	0.0145705
934.300	0.0145741
934.378	0.0145567
934.456	0.0146271
934.535	0.0145713
934.613	0.0146035
934.691	0.0146536
934.769	0.0146255
934.847	0.0148532
934.925	0.0146994
935.003	0.0146435
935.081	0.0147954
935.160	0.0147474
935.238	0.0146338
935.316	0.0147219
935.394	0.0148638
935.472	0.0147141
935.550	0.0147830
935.628	0.0147247
935.706	0.0148141
935.785	0.0147508
935.863	0.0146726
935.941	0.0148382
936.019	0.0147710
936.097	0.0146619
936.175	0.0146528
936.253	0.0145927
936.331	0.0145886
936.410	0.0144971
936.488	0.0144978
936.566	0.0145869
936.644	0.0144506
936.722	0.0143526
936.800	0.0145123
936.878	0.0145761
936.956	0.0143962
937.035	0.0144434
937.113	0.0143710
937.191	0.0144612
937.269	0.0145027
937.347	0.0144431
937.425	0.0143674
937.503	0.0143159
937.581	0.0142073
937.660	0.0143977
937.738	0.0144582
937.816	0.0143988
937.894	0.0143366
937.972	0.0143854
938.050	0.0143706
938.128	0.0145096
938.206	0.0145371
938.285	0.0144532
938.363	0.0143520
938.441	0.0144408
938.519	0.0144733
938.597	0.0145651
938.675	0.0145052
938.753	0.0146292
938.831	0.0145319
938.910	0.0145261
938.988	0.0145316
939.066	0.0145097
939.144	0.0144526
939.222	0.0145713
939.300	0.0144116
939.378	0.0143526
939.456	0.0145373
939.535	0.0144276
939.613	0.0143183
939.691	0.0142584
939.769	0.0143169
939.847	0.0143464
939.925	0.0143190
940.003	0.0142828
940.081	0.0143964
940.160	0.0143818
940.238	0.0143605
940.316	0.0143674
940.394	0.0145055
940.472	0.0144595
940.550	0.0144341
940.628	0.0144440
940.706	0.0145437
940.785	0.0144578
940.863	0.0144584
940.941	0.0145217
941.019	0.0145593
941.097	0.0144004
941.175	0.0144231
941.253	0.0144865
941.331	0.0145581
941.410	0.0144309
941.488	0.0144634
941.566	0.0143958
941.644	0.0144267
941.722	0.0143837
941.800	0.0143143
941.878	0.0143688
941.956	0.0144003
942.035	0.0144530
942.113	0.0144621
942.191	0.0143783
942.269	0.0144067
942.347	0.0145103
942.425	0.0145916
942.503	0.0144552
942.581	0.0145464
942.660	0.0146217
942.738	0.0146114
942.816	0.0146075
942.894	0.0145364
942.972	0.0145324
943.050	0.0145918
943.128	0.0145988
943.206	0.0145972
943.285	0.0144883
943.363	0.0144928
943.441	0.0145222
943.519	0.0145021
943.597	0.0144051
943.675	0.0145906
943.753	0.0144032
943.831	0.0144753
943.910	0.0145609
943.988	0.0144088
944.066	0.0144542
944.144	0.0146814
944.222	0.0147018
944.300	0.0145127
944.378	0.0147957
944.456	0.0146321
944.535	0.0145374
944.613	0.0146725
944.691	0.0146616
944.769	0.0147046
944.847	0.0147216
944.925	0.0146765
945.003	0.0147395
945.081	0.0146916
945.160	0.0145903
945.238	0.0147202
945.316	0.0146812
945.394	0.0145982
945.472	0.0146802
945.550	0.0146688
945.628	0.0145789
945.706	0.0147173
945.785	0.0145840
945.863	0.0145851
945.941	0.0146107
946.019	0.0145615
946.097	0.0145821
946.175	0.0145659
946.253	0.0146062
946.331	0.0146300
946.410	0.0146282
946.488	0.0145027
946.566	0.0145885
946.644	0.0146679
946.722	0.0146616
946.800	0.0146853
946.878	0.0146953
946.956	0.0147044
947.035	0.0146150
947.113	0.0145660
947.191	0.0147056
947.269	0.0147015
947.347	0.0145947
947.425	0.0145241
947.503	0.0145294
947.581	0.0146539
947.660	0.0143398
947.738	0.0143413
947.816	0.0144668
947.894	0.0144415
947.972	0.0143397
948.050	0.0144186
948.128	0.0143375
948.206	0.0142242
948.285	0.0143104
948.363	0.0144012
948.441	0.0143256
948.519	0.0142956
948.597	0.0142562
948.675	0.0144342
948.753	0.0144822
948.831	0.0144157
948.910	0.0144694
948.988	0.0144089
949.066	0.0144769
949.144	0.0144503
949.222	0.0144431
949.300	0.0144332
949.378	0.0143993
949.456	0.0145393
949.535	0.0144342
949.613	0.0145155
949.691	0.0144377
949.769	0.0145433
949.847	0.0144367
949.925	0.0146643
950.003	0.0146738
950.081	0.0145723
950.160	0.0144430
950.238	0.0146867
950.316	0.0146600
950.394	0.0144302
950.472	0.0144080
950.550	0.0145441
950.628	0.0145786
950.706	0.0144982
950.785	0.0145538
950.863	0.0145277
950.941	0.0144914
951.019	0.0145449
951.097	0.0145836
951.175	0.0145979
951.253	0.0146608
951.331	0.0146529
951.410	0.0147020
951.488	0.0147660
951.566	0.0148106
951.644	0.0146693
951.722	0.0145694
951.800	0.0148711
951.878	0.0147585
951.956	0.0145940
952.035	0.0146284
952.113	0.0146098
952.191	0.0148348
952.269	0.0146542
952.347	0.0146236
952.425	0.0145583
952.503	0.0145878
952.581	0.0145948
952.660	0.0145817
952.738	0.0144728
952.816	0.0145773
952.894	0.0144267
952.972	0.0142399
953.050	0.0142500
953.128	0.0144309
953.206	0.0144422
953.285	0.0142391
953.363	0.0144369
953.441	0.0144194
953.519	0.0143369
953.597	0.0142220
953.675	0.0142766
953.753	0.0142060
953.831	0.0142718
953.910	0.0143747
953.988	0.0143867
954.066	0.0143312
954.144	0.0143530
954.222	0.0142971
954.300	0.0143568
954.378	0.0144143
954.456	0.0143898
954.535	0.0142649
954.613	0.0144610
954.691	0.0145461
954.769	0.0144424
954.847	0.0143867
954.925	0.0144703
955.003	0.0143600
955.081	0.0144061
955.160	0.0143495
955.238	0.0144337
955.316	0.0144817
955.394	0.0143546
955.472	0.0143204
955.550	0.0143652
955.628	0.0144871
955.706	0.0143998
955.785	0.0144211
955.863	0.0143881
955.941	0.0144661
956.019	0.0143262
956.097	0.0144034
956.175	0.0144582
956.253	0.0143227
956.331	0.0145816
956.410	0.0144568
956.488	0.0144478
956.566	0.0145041
956.644	0.0145449
956.722	0.0145148
956.800	0.0145042
956.878	0.0145156
956.956	0.0147186
957.035	0.0145803
957.113	0.0146384
957.191	0.0146447
957.269	0.0146677
957.347	0.0145946
957.425	0.0145605
957.503	0.0146310
957.581	0.0145615
957.660	0.0144492
957.738	0.0145395
957.816	0.0144579
957.894	0.0144170
957.972	0.0144819
958.050	0.0144555
958.128	0.0143430
958.206	0.0143216
958.285	0.0143079
958.363	0.0144563
958.441	0.0144749
958.519	0.0141762
958.597	0.0143353
958.675	0.0141803
958.753	0.0143060
958.831	0.0143387
958.910	0.0143377
958.988	0.0141835
959.066	0.0143244
959.144	0.0143122
959.222	0.0141579
959.300	0.0142515
959.378	0.0141410
959.456	0.0141774
959.535	0.0143512
959.613	0.0142896
959.691	0.0140596
959.769	0.0143423
959.847	0.0142152
959.925	0.0142791
960.003	0.0142368
960.081	0.0143557
960.160	0.0144029
960.238	0.0144196
960.316	0.0143508
960.394	0.0144280
960.472	0.0144787
960.550	0.0143505
960.628	0.0144261
960.706	0.0143748
960.785	0.0145612
960.863	0.0145028
960.941	0.0144736
961.019	0.0145377
961.097	0.0145525
961.175	0.0146094
961.253	0.0146033
961.331	0.0146791
961.410	0.0147352
961.488	0.0146248
961.566	0.0145789
961.644	0.0147628
961.722	0.0147147
961.800	0.0145747
961.878	0.0146598
961.956	0.0147796
962.035	0.0146397
962.113	0.0145821
962.191	0.0145604
962.269	0.0145498
962.347	0.0145720
962.425	0.0145509
962.503	0.0145540
962.581	0.0144585
962.660	0.0146483
962.738	0.0146133
962.816	0.0145102
962.894	0.0145100
962.972	0.0145042
963.050	0.0145731
963.128	0.0146640
963.206	0.0145454
963.285	0.0144003
963.363	0.0144875
963.441	0.0145219
963.519	0.0144650
963.597	0.0144823
963.675	0.0145007
963.753	0.0144656
963.831	0.0144781
963.910	0.0142931
963.988	0.0143596
964.066	0.0143880
964.144	0.0143882
964.222	0.0143174
964.300	0.0143071
964.378	0.0143890
964.456	0.0142463
964.535	0.0142231
964.613	0.0142929
964.691	0.0143188
964.769	0.0142395
964.847	0.0143958
964.925	0.0144209
965.003	0.0143159
965.081	0.0143513
965.160	0.0144234
965.238	0.0143577
965.316	0.0141992
965.394	0.0143652
965.472	0.0143886
965.550	0.0144720
965.628	0.0143830
965.706	0.0144365
965.785	0.0144555
965.863	0.0144798
965.941	0.0143050
966.019	0.0144979
966.097	0.0144251
966.175	0.0144544
966.253	0.0145178
966.331	0.0144894
966.410	0.0144855
966.488	0.0143656
966.566	0.0144508
966.644	0.0145530
966.722	0.0145994
966.800	0.0146191
966.878	0.0144366
966.956	0.0146777
967.035	0.0146730
967.113	0.0144449
967.191	0.0146905
967.269	0.0147247
967.347	0.0147514
967.425	0.0147003
967.503	0.0147768
967.581	0.0147585
967.660	0.0147556
967.738	0.0148156
967.816	0.0147312
967.894	0.0148056
967.972	0.0147581
968.050	0.0148315
968.128	0.0147937
968.206	0.0147193
968.285	0.0146946
968.363	0.0146122
968.441	0.0144843
968.519	0.0146626
968.597	0.0145287
968.675	0.0143391
968.753	0.0144863
968.831	0.0144534
968.910	0.0144065
968.988	0.0143758
969.066	0.0143755
969.144	0.0143168
969.222	0.0143047
969.300	0.0142901
969.378	0.0144516
969.456	0.0142727
969.535	0.0142196
969.613	0.0143820
969.691	0.0143181
969.769	0.0142265
969.847	0.0142783
969.925	0.0141234
970.003	0.0142101
970.081	0.0142876
970.160	0.0143145
970.238	0.0143157
970.316	0.0142551
970.394	0.0143813
970.472	0.0143229
970.550	0.0143159
970.628	0.0144365
970.706	0.0142925
970.785	0.0144567
970.863	0.0143903
970.941	0.0144369
971.019	0.0143275
971.097	0.0144144
971.175	0.0145644
971.253	0.0145777
971.331	0.0145826
971.410	0.0145099
971.488	0.0147203
971.566	0.0146030
971.644	0.0145591
971.722	0.0146535
971.800	0.0147494
971.878	0.0147286
971.956	0.0148698
972.035	0.0147357
972.113	0.0147150
972.191	0.0148095
972.269	0.0148299
972.347	0.0147152
972.425	0.0147675
972.503	0.0147591
972.581	0.0147109
972.660	0.0146432
972.738	0.0147421
972.816	0.0147549
972.894	0.0147515
972.972	0.0147198
973.050	0.0147009
973.128	0.0147872
973.206	0.0147999
973.285	0.0147086
973.363	0.0146618
973.441	0.0147778
973.519	0.0147015
973.597	0.0147126
973.675	0.0147254
973.753	0.0146842
973.831	0.0146135
973.910	0.0145257
973.988	0.0146040
974.066	0.0146268
974.144	0.0144690
974.222	0.0144839
974.300	0.0145280
974.378	0.0144678
974.456	0.0142937
974.535	0.0145018
974.613	0.0144400
974.691	0.0142857
974.769	0.0143172
974.847	0.0142199
974.925	0.0143192
975.003	0.0142697
975.081	0.0143262
975.160	0.0142069
975.238	0.0142022
975.316	0.0141059
975.394	0.0141599
975.472	0.0140720
975.550	0.0141629
975.628	0.0140950
975.706	0.0142329
975.785	0.0141776
975.863	0.0142081
975.941	0.0141635
976.019	0.0142397
976.097	0.0143568
976.175	0.0142307
976.253	0.0142048
976.331	0.0143432
976.410	0.0143730
976.488	0.0144020
976.566	0.0144401
976.644	0.0145267
976.722	0.0144173
976.800	0.0144997
976.878	0.0144742
976.956	0.0144693
977.035	0.0144765
977.113	0.0145108
977.191	0.0144864
977.269	0.0145621
977.347	0.0144373
977.425	0.0144875
977.503	0.0145914
977.581	0.0145654
977.660	0.0145381
977.738	0.0145052
977.816	0.0145245
977.894	0.0146201
977.972	0.0144965
978.050	0.0146249
978.128	0.0145699
978.206	0.0144727
978.285	0.0145139
978.363	0.0145689
978.441	0.0146705
978.519	0.0145378
978.597	0.0147176
978.675	0.0146030
978.753	0.0144946
978.831	0.0147541
978.910	0.0148010
978.988	0.0146790
979.066	0.0148024
979.144	0.0147485
979.222	0.0146555
979.300	0.0147602
979.378	0.0147534
979.456	0.0148129
979.535	0.0147275
979.613	0.0145281
979.691	0.0146838
979.769	0.0146062
979.847	0.0146923
979.925	0.0146149
