05/03/2022	20:33:07	Ver.	4.1	UNKNOWN
Optical Delay	660.003261	Delta X		0.078125	Sweeps	1	Scan Rate	0/0
Coordinates	Axis 1	NaN	Axis 2	NaN	Axis 3	NaN	Axis 4	NaN	Axis 5	NaN	Axis 6	0.000000
TX Power	0.000000	RX Power	0.000000

660.003	0.0142795
660.081	0.0142054
660.160	0.0142542
660.238	0.0142832
660.316	0.0142012
660.394	0.0141457
660.472	0.0142966
660.550	0.0141473
660.628	0.0143970
660.706	0.0142714
660.785	0.0141048
660.863	0.0142767
660.941	0.0142209
661.019	0.0141824
661.097	0.0142767
661.175	0.0142644
661.253	0.0142177
661.331	0.0142765
661.410	0.0142546
661.488	0.0143832
661.566	0.0143045
661.644	0.0142640
661.722	0.0142796
661.800	0.0143209
661.878	0.0142776
661.956	0.0142560
662.035	0.0141904
662.113	0.0142890
662.191	0.0143549
662.269	0.0142788
662.347	0.0143079
662.425	0.0142581
662.503	0.0143564
662.581	0.0143785
662.660	0.0142898
662.738	0.0143031
662.816	0.0142965
662.894	0.0141749
662.972	0.0142343
663.050	0.0142087
663.128	0.0144043
663.206	0.0142507
663.285	0.0141833
663.363	0.0142754
663.441	0.0143048
663.519	0.0142769
663.597	0.0142616
663.675	0.0143149
663.753	0.0142074
663.831	0.0143605
663.910	0.0143447
663.988	0.0144033
664.066	0.0142544
664.144	0.0143579
664.222	0.0143371
664.300	0.0143176
664.378	0.0142921
664.456	0.0143374
664.535	0.0143462
664.613	0.0143517
664.691	0.0142768
664.769	0.0142986
664.847	0.0142303
664.925	0.0142942
665.003	0.0143755
665.081	0.0143941
665.160	0.0143527
665.238	0.0143351
665.316	0.0142970
665.394	0.0143863
665.472	0.0143845
665.550	0.0142091
665.628	0.0142551
665.706	0.0143363
665.785	0.0143842
665.863	0.0144204
665.941	0.0143240
666.019	0.0143848
666.097	0.0144391
666.175	0.0142124
666.253	0.0142108
666.331	0.0144749
666.410	0.0146011
666.488	0.0142649
666.566	0.0143181
666.644	0.0144340
666.722	0.0143341
666.800	0.0141682
666.878	0.0143193
666.956	0.0144120
667.035	0.0145067
667.113	0.0143974
667.191	0.0143396
667.269	0.0144054
667.347	0.0143000
667.425	0.0143604
667.503	0.0141348
667.581	0.0142793
667.660	0.0143257
667.738	0.0143400
667.816	0.0143783
667.894	0.0143800
667.972	0.0143790
668.050	0.0142386
668.128	0.0142281
668.206	0.0144716
668.285	0.0141132
668.363	0.0141377
668.441	0.0142387
668.519	0.0141905
668.597	0.0143420
668.675	0.0143819
668.753	0.0143164
668.831	0.0142912
668.910	0.0143855
668.988	0.0142807
669.066	0.0142712
669.144	0.0143220
669.222	0.0142772
669.300	0.0143259
669.378	0.0143683
669.456	0.0142667
669.535	0.0143158
669.613	0.0143198
669.691	0.0143755
669.769	0.0144261
669.847	0.0141664
669.925	0.0142852
670.003	0.0143092
670.081	0.0142606
670.160	0.0143113
670.238	0.0141767
670.316	0.0143304
670.394	0.0143170
670.472	0.0142538
670.550	0.0142799
670.628	0.0144330
670.706	0.0143683
670.785	0.0142932
670.863	0.0143707
670.941	0.0143707
671.019	0.0141952
671.097	0.0142926
671.175	0.0143366
671.253	0.0143125
671.331	0.0142009
671.410	0.0144222
671.488	0.0142950
671.566	0.0142213
671.644	0.0142807
671.722	0.0143992
671.800	0.0143443
671.878	0.0142438
671.956	0.0142899
672.035	0.0142765
672.113	0.0143212
672.191	0.0143530
672.269	0.0142744
672.347	0.0141508
672.425	0.0142310
672.503	0.0142701
672.581	0.0143194
672.660	0.0142937
672.738	0.0142632
672.816	0.0142850
672.894	0.0141931
672.972	0.0140465
673.050	0.0142673
673.128	0.0142102
673.206	0.0141965
673.285	0.0141701
673.363	0.0142026
673.441	0.0143030
673.519	0.0142530
673.597	0.0142606
673.675	0.0142856
673.753	0.0143107
673.831	0.0143284
673.910	0.0141608
673.988	0.0141876
674.066	0.0141373
674.144	0.0142375
674.222	0.0142471
674.300	0.0143149
674.378	0.0142203
674.456	0.0141782
674.535	0.0142907
674.613	0.0144264
674.691	0.0142630
674.769	0.0142048
674.847	0.0143398
674.925	0.0141969
675.003	0.0142508
675.081	0.0140895
675.160	0.0142915
675.238	0.0143424
675.316	0.0142933
675.394	0.0142682
675.472	0.0142943
675.550	0.0143147
675.628	0.0141020
675.706	0.0141659
675.785	0.0142213
675.863	0.0142408
675.941	0.0142553
676.019	0.0141256
676.097	0.0142755
676.175	0.0142451
676.253	0.0141444
676.331	0.0142338
676.410	0.0142650
676.488	0.0141571
676.566	0.0142542
676.644	0.0142158
676.722	0.0141415
676.800	0.0143534
676.878	0.0142825
676.956	0.0141359
677.035	0.0142410
677.113	0.0142014
677.191	0.0143772
677.269	0.0143533
677.347	0.0142751
677.425	0.0142322
677.503	0.0143447
677.581	0.0143234
677.660	0.0143169
677.738	0.0143692
677.816	0.0143161
677.894	0.0142416
677.972	0.0143433
678.050	0.0143341
678.128	0.0141595
678.206	0.0142591
678.285	0.0142817
678.363	0.0143262
678.441	0.0142065
678.519	0.0143251
678.597	0.0142825
678.675	0.0142792
678.753	0.0141895
678.831	0.0140916
678.910	0.0143315
678.988	0.0144187
679.066	0.0142255
679.144	0.0142429
679.222	0.0143054
679.300	0.0143105
679.378	0.0143921
679.456	0.0143649
679.535	0.0142697
679.613	0.0142844
679.691	0.0142315
679.769	0.0143245
679.847	0.0142491
679.925	0.0142045
680.003	0.0142224
680.081	0.0141735
680.160	0.0141117
680.238	0.0142175
680.316	0.0142877
680.394	0.0141325
680.472	0.0142381
680.550	0.0142730
680.628	0.0142484
680.706	0.0142545
680.785	0.0142085
680.863	0.0142548
680.941	0.0142354
681.019	0.0143587
681.097	0.0143142
681.175	0.0143011
681.253	0.0140795
681.331	0.0141003
681.410	0.0143526
681.488	0.0142511
681.566	0.0143794
681.644	0.0144015
681.722	0.0141826
681.800	0.0142168
681.878	0.0143082
681.956	0.0143169
682.035	0.0142880
682.113	0.0143383
682.191	0.0143204
682.269	0.0143476
682.347	0.0142366
682.425	0.0143230
682.503	0.0142753
682.581	0.0142902
682.660	0.0142809
682.738	0.0142815
682.816	0.0142898
682.894	0.0142699
682.972	0.0141350
683.050	0.0141381
683.128	0.0142584
683.206	0.0142852
683.285	0.0141122
683.363	0.0142368
683.441	0.0142790
683.519	0.0142498
683.597	0.0142972
683.675	0.0141397
683.753	0.0142561
683.831	0.0141929
683.910	0.0142120
683.988	0.0143330
684.066	0.0141982
684.144	0.0142374
684.222	0.0141200
684.300	0.0142366
684.378	0.0143385
684.456	0.0143021
684.535	0.0141153
684.613	0.0141415
684.691	0.0141207
684.769	0.0142329
684.847	0.0142805
684.925	0.0140995
685.003	0.0140864
685.081	0.0139745
685.160	0.0142349
685.238	0.0140752
685.316	0.0140740
685.394	0.0142105
685.472	0.0142692
685.550	0.0143410
685.628	0.0142998
685.706	0.0143858
685.785	0.0143790
685.863	0.0143717
685.941	0.0143415
686.019	0.0144246
686.097	0.0144309
686.175	0.0144136
686.253	0.0144912
686.331	0.0144434
686.410	0.0144328
686.488	0.0145519
686.566	0.0143011
686.644	0.0143396
686.722	0.0142904
686.800	0.0142994
686.878	0.0142789
686.956	0.0141703
687.035	0.0141294
687.113	0.0142436
687.191	0.0140889
687.269	0.0141163
687.347	0.0142899
687.425	0.0142059
687.503	0.0141206
687.581	0.0142420
687.660	0.0142714
687.738	0.0142015
687.816	0.0143714
687.894	0.0143222
687.972	0.0143580
688.050	0.0142477
688.128	0.0144751
688.206	0.0143983
688.285	0.0143872
688.363	0.0143694
688.441	0.0145463
688.519	0.0144466
688.597	0.0146136
688.675	0.0144090
688.753	0.0145333
688.831	0.0147545
688.910	0.0145287
688.988	0.0145416
689.066	0.0145258
689.144	0.0145559
689.222	0.0145804
689.300	0.0144523
689.378	0.0143880
689.456	0.0144009
689.535	0.0143037
689.613	0.0141854
689.691	0.0141455
689.769	0.0141136
689.847	0.0141570
689.925	0.0141008
690.003	0.0140791
690.081	0.0140999
690.160	0.0140866
690.238	0.0141708
690.316	0.0143377
690.394	0.0140275
690.472	0.0141396
690.550	0.0140781
690.628	0.0140540
690.706	0.0140905
690.785	0.0142335
690.863	0.0141553
690.941	0.0140518
691.019	0.0141256
691.097	0.0142879
691.175	0.0141183
691.253	0.0141266
691.331	0.0141887
691.410	0.0141654
691.488	0.0141769
691.566	0.0142472
691.644	0.0141264
691.722	0.0142825
691.800	0.0142482
691.878	0.0142948
691.956	0.0143301
692.035	0.0143551
692.113	0.0144974
692.191	0.0145354
692.269	0.0146249
692.347	0.0146088
692.425	0.0146460
692.503	0.0146249
692.581	0.0147685
692.660	0.0146516
692.738	0.0149006
692.816	0.0146665
692.894	0.0147217
692.972	0.0148350
693.050	0.0147230
693.128	0.0147089
693.206	0.0148106
693.285	0.0147261
693.363	0.0145374
693.441	0.0144498
693.519	0.0144669
693.597	0.0143710
693.675	0.0142806
693.753	0.0142616
693.831	0.0141297
693.910	0.0141645
693.988	0.0139918
694.066	0.0139633
694.144	0.0139044
694.222	0.0139972
694.300	0.0138395
694.378	0.0137498
694.456	0.0139214
694.535	0.0140179
694.613	0.0138827
694.691	0.0139962
694.769	0.0140766
694.847	0.0141049
694.925	0.0141473
695.003	0.0142062
695.081	0.0142636
695.160	0.0144774
695.238	0.0144273
695.316	0.0145094
695.394	0.0144323
695.472	0.0146591
695.550	0.0145848
695.628	0.0145440
695.706	0.0146834
695.785	0.0145831
695.863	0.0144402
695.941	0.0145146
696.019	0.0145192
696.097	0.0143847
696.175	0.0142974
696.253	0.0144013
696.331	0.0142898
696.410	0.0142757
696.488	0.0144270
696.566	0.0143493
696.644	0.0144386
696.722	0.0144161
696.800	0.0143056
696.878	0.0143633
696.956	0.0144157
697.035	0.0144272
697.113	0.0145046
697.191	0.0145081
697.269	0.0145012
697.347	0.0146451
697.425	0.0145664
697.503	0.0146101
697.581	0.0147449
697.660	0.0147363
697.738	0.0146310
697.816	0.0147269
697.894	0.0146149
697.972	0.0145106
698.050	0.0144145
698.128	0.0145360
698.206	0.0145960
698.285	0.0144602
698.363	0.0143817
698.441	0.0142523
698.519	0.0142097
698.597	0.0140915
698.675	0.0137794
698.753	0.0137825
698.831	0.0137985
698.910	0.0137621
698.988	0.0138599
699.066	0.0136726
699.144	0.0137125
699.222	0.0137025
699.300	0.0138722
699.378	0.0139915
699.456	0.0140237
699.535	0.0140134
699.613	0.0141886
699.691	0.0140871
699.769	0.0141910
699.847	0.0143296
699.925	0.0142391
700.003	0.0142985
700.081	0.0144015
700.160	0.0146381
700.238	0.0145544
700.316	0.0146093
700.394	0.0147497
700.472	0.0146219
700.550	0.0144890
700.628	0.0147264
700.706	0.0146728
700.785	0.0143439
700.863	0.0143755
700.941	0.0143147
701.019	0.0139928
701.097	0.0141080
701.175	0.0140000
701.253	0.0138745
701.331	0.0139482
701.410	0.0138800
701.488	0.0137860
701.566	0.0140176
701.644	0.0140580
701.722	0.0138850
701.800	0.0140690
701.878	0.0142788
701.956	0.0142889
702.035	0.0143769
702.113	0.0144926
702.191	0.0145454
702.269	0.0144794
702.347	0.0145131
702.425	0.0144727
702.503	0.0146264
702.581	0.0146793
702.660	0.0145966
702.738	0.0145387
702.816	0.0145661
702.894	0.0145018
702.972	0.0145007
703.050	0.0144564
703.128	0.0142784
703.206	0.0143481
703.285	0.0142542
703.363	0.0142115
703.441	0.0141619
703.519	0.0142113
703.597	0.0142095
703.675	0.0140614
703.753	0.0141719
703.831	0.0142521
703.910	0.0142001
703.988	0.0141533
704.066	0.0140842
704.144	0.0140617
704.222	0.0140152
704.300	0.0138456
704.378	0.0139064
704.456	0.0138138
704.535	0.0138342
704.613	0.0137060
704.691	0.0137344
704.769	0.0136604
704.847	0.0136559
704.925	0.0136192
705.003	0.0136707
705.081	0.0137444
705.160	0.0137972
705.238	0.0138287
705.316	0.0138709
705.394	0.0140092
705.472	0.0140234
705.550	0.0141470
705.628	0.0143150
705.706	0.0143848
705.785	0.0144411
705.863	0.0146619
705.941	0.0146364
706.019	0.0147395
706.097	0.0147165
706.175	0.0146361
706.253	0.0146562
706.331	0.0145082
706.410	0.0145361
706.488	0.0143869
706.566	0.0143090
706.644	0.0141851
706.722	0.0142004
706.800	0.0140895
706.878	0.0139788
706.956	0.0139555
707.035	0.0141136
707.113	0.0140951
707.191	0.0140228
707.269	0.0142069
707.347	0.0140559
707.425	0.0142541
707.503	0.0142431
707.581	0.0145042
707.660	0.0145358
707.738	0.0145112
707.816	0.0145139
707.894	0.0146284
707.972	0.0147310
708.050	0.0147928
708.128	0.0149202
708.206	0.0149503
708.285	0.0148678
708.363	0.0148164
708.441	0.0147127
708.519	0.0147389
708.597	0.0145007
708.675	0.0144602
708.753	0.0143493
708.831	0.0141773
708.910	0.0140613
708.988	0.0141465
709.066	0.0143423
709.144	0.0141704
709.222	0.0143604
709.300	0.0142941
709.378	0.0143700
709.456	0.0145197
709.535	0.0144920
709.613	0.0144543
709.691	0.0144306
709.769	0.0145980
709.847	0.0145753
709.925	0.0142448
710.003	0.0141886
710.081	0.0142063
710.160	0.0140873
710.238	0.0140340
710.316	0.0138244
710.394	0.0137955
710.472	0.0137785
710.550	0.0136717
710.628	0.0136962
710.706	0.0136082
710.785	0.0135653
710.863	0.0138219
710.941	0.0138584
711.019	0.0138634
711.097	0.0139732
711.175	0.0141148
711.253	0.0143053
711.331	0.0141901
711.410	0.0141502
711.488	0.0142889
711.566	0.0145898
711.644	0.0145761
711.722	0.0145590
711.800	0.0146537
711.878	0.0146419
711.956	0.0146037
712.035	0.0146861
712.113	0.0145844
712.191	0.0146666
712.269	0.0145804
712.347	0.0144907
712.425	0.0144635
712.503	0.0144977
712.581	0.0143929
712.660	0.0142977
712.738	0.0144010
712.816	0.0142835
712.894	0.0142245
712.972	0.0142116
713.050	0.0141704
713.128	0.0142955
713.206	0.0142488
713.285	0.0143995
713.363	0.0146089
713.441	0.0144769
713.519	0.0146875
713.597	0.0147461
713.675	0.0146485
713.753	0.0148949
713.831	0.0149433
713.910	0.0149322
713.988	0.0150436
714.066	0.0150562
714.144	0.0149570
714.222	0.0149078
714.300	0.0146974
714.378	0.0148644
714.456	0.0147399
714.535	0.0144305
714.613	0.0145157
714.691	0.0144072
714.769	0.0142830
714.847	0.0140990
714.925	0.0139680
715.003	0.0141584
715.081	0.0142012
715.160	0.0142301
715.238	0.0142431
715.316	0.0144277
715.394	0.0143081
715.472	0.0145213
715.550	0.0145446
715.628	0.0146443
715.706	0.0146638
715.785	0.0146143
715.863	0.0145355
715.941	0.0145207
716.019	0.0143910
716.097	0.0142075
716.175	0.0141372
716.253	0.0141293
716.331	0.0138800
716.410	0.0137314
716.488	0.0136003
716.566	0.0135625
716.644	0.0135378
716.722	0.0135239
716.800	0.0134488
716.878	0.0135657
716.956	0.0136823
717.035	0.0137402
717.113	0.0137640
717.191	0.0139007
717.269	0.0141818
717.347	0.0140408
717.425	0.0142364
717.503	0.0142651
717.581	0.0144340
717.660	0.0144704
717.738	0.0145173
717.816	0.0144525
717.894	0.0145226
717.972	0.0146268
718.050	0.0145782
718.128	0.0145251
718.206	0.0144798
718.285	0.0145206
718.363	0.0146444
718.441	0.0144644
718.519	0.0144792
718.597	0.0144338
718.675	0.0142880
718.753	0.0144057
718.831	0.0144581
718.910	0.0143049
718.988	0.0143562
719.066	0.0143121
719.144	0.0144250
719.222	0.0144791
719.300	0.0145674
719.378	0.0145434
719.456	0.0145927
719.535	0.0146320
719.613	0.0145722
719.691	0.0145663
719.769	0.0147346
719.847	0.0147008
719.925	0.0148729
720.003	0.0148436
720.081	0.0148495
720.160	0.0147549
720.238	0.0146719
720.316	0.0146754
720.394	0.0146402
720.472	0.0145711
720.550	0.0144417
720.628	0.0146318
720.706	0.0144897
720.785	0.0143681
720.863	0.0143672
720.941	0.0142828
721.019	0.0141711
721.097	0.0141406
721.175	0.0142111
721.253	0.0141444
721.331	0.0141415
721.410	0.0141059
721.488	0.0141436
721.566	0.0141185
721.644	0.0142004
721.722	0.0141608
721.800	0.0141611
721.878	0.0142538
721.956	0.0140546
722.035	0.0140170
722.113	0.0140509
722.191	0.0139635
722.269	0.0139447
722.347	0.0137006
722.425	0.0137257
722.503	0.0136578
722.581	0.0136327
722.660	0.0135782
722.738	0.0133601
722.816	0.0135004
722.894	0.0136523
722.972	0.0135807
723.050	0.0135397
723.128	0.0138357
723.206	0.0136959
723.285	0.0138022
723.363	0.0138309
723.441	0.0140041
723.519	0.0142422
723.597	0.0143857
723.675	0.0143159
723.753	0.0143757
723.831	0.0144659
723.910	0.0143454
723.988	0.0144671
724.066	0.0145000
724.144	0.0144281
724.222	0.0143309
724.300	0.0143615
724.378	0.0142343
724.456	0.0143764
724.535	0.0143567
724.613	0.0141299
724.691	0.0142211
724.769	0.0141518
724.847	0.0141186
724.925	0.0143925
725.003	0.0144300
725.081	0.0146475
725.160	0.0146299
725.238	0.0144915
725.316	0.0146555
725.394	0.0147163
725.472	0.0146928
725.550	0.0149380
725.628	0.0149465
725.706	0.0148299
725.785	0.0148089
725.863	0.0147818
725.941	0.0147723
726.019	0.0147594
726.097	0.0147807
726.175	0.0145602
726.253	0.0146934
726.331	0.0146046
726.410	0.0144091
726.488	0.0144117
726.566	0.0144488
726.644	0.0145377
726.722	0.0144789
726.800	0.0143417
726.878	0.0143941
726.956	0.0144026
727.035	0.0143156
727.113	0.0140961
727.191	0.0143399
727.269	0.0142604
727.347	0.0141261
727.425	0.0142804
727.503	0.0142655
727.581	0.0141627
727.660	0.0140736
727.738	0.0139848
727.816	0.0139545
727.894	0.0139577
727.972	0.0140731
728.050	0.0138975
728.128	0.0138890
728.206	0.0139011
728.285	0.0136640
728.363	0.0137245
728.441	0.0137520
728.519	0.0137222
728.597	0.0136027
728.675	0.0137831
728.753	0.0135853
728.831	0.0136992
728.910	0.0137656
728.988	0.0137568
729.066	0.0139245
729.144	0.0139191
729.222	0.0138638
729.300	0.0139280
729.378	0.0141377
729.456	0.0140359
729.535	0.0141056
729.613	0.0142292
729.691	0.0142907
729.769	0.0142719
729.847	0.0143582
729.925	0.0142663
730.003	0.0142309
730.081	0.0144396
730.160	0.0143322
730.238	0.0143360
730.316	0.0143935
730.394	0.0144098
730.472	0.0144740
730.550	0.0142252
730.628	0.0144218
730.706	0.0144828
730.785	0.0143539
730.863	0.0143759
730.941	0.0146538
731.019	0.0145461
731.097	0.0145277
731.175	0.0146658
731.253	0.0146494
731.331	0.0146685
731.410	0.0148571
731.488	0.0148959
731.566	0.0148356
731.644	0.0149614
731.722	0.0149452
731.800	0.0150632
731.878	0.0150069
731.956	0.0149578
732.035	0.0149155
732.113	0.0148413
732.191	0.0147298
732.269	0.0147179
732.347	0.0146906
732.425	0.0146220
732.503	0.0146265
732.581	0.0144886
732.660	0.0143873
732.738	0.0144576
732.816	0.0144411
732.894	0.0143614
732.972	0.0144301
733.050	0.0144549
733.128	0.0143990
733.206	0.0143987
733.285	0.0144308
733.363	0.0144511
733.441	0.0144316
733.519	0.0143848
733.597	0.0144443
733.675	0.0144245
733.753	0.0143443
733.831	0.0141098
733.910	0.0141568
733.988	0.0141486
734.066	0.0138692
734.144	0.0139016
734.222	0.0137315
734.300	0.0136742
734.378	0.0134859
734.456	0.0135153
734.535	0.0134041
734.613	0.0136155
734.691	0.0136669
734.769	0.0135413
734.847	0.0136542
734.925	0.0137194
735.003	0.0137366
735.081	0.0137630
735.160	0.0137518
735.238	0.0137434
735.316	0.0139207
735.394	0.0139790
735.472	0.0139680
735.550	0.0139352
735.628	0.0140819
735.706	0.0141306
735.785	0.0142031
735.863	0.0141730
735.941	0.0141099
736.019	0.0142146
736.097	0.0142002
736.175	0.0140665
736.253	0.0140833
736.331	0.0141064
736.410	0.0141029
736.488	0.0141013
736.566	0.0141995
736.644	0.0142439
736.722	0.0142854
736.800	0.0142171
736.878	0.0142588
736.956	0.0143553
737.035	0.0144236
737.113	0.0144650
737.191	0.0144656
737.269	0.0145609
737.347	0.0146658
737.425	0.0146967
737.503	0.0147796
737.581	0.0148512
737.660	0.0148950
737.738	0.0148625
737.816	0.0149360
737.894	0.0148421
737.972	0.0148038
738.050	0.0145885
738.128	0.0146474
738.206	0.0146413
738.285	0.0146361
738.363	0.0145498
738.441	0.0146384
738.519	0.0145438
738.597	0.0145538
738.675	0.0145345
738.753	0.0145170
738.831	0.0144775
738.910	0.0144349
738.988	0.0145308
739.066	0.0146269
739.144	0.0145359
739.222	0.0145010
739.300	0.0146948
739.378	0.0147018
739.456	0.0146218
739.535	0.0145254
739.613	0.0145725
739.691	0.0145062
739.769	0.0144744
739.847	0.0144227
739.925	0.0143071
740.003	0.0141726
740.081	0.0141084
740.160	0.0139592
740.238	0.0138715
740.316	0.0137639
740.394	0.0138103
740.472	0.0137421
740.550	0.0135851
740.628	0.0135191
740.706	0.0133954
740.785	0.0135440
740.863	0.0137056
740.941	0.0136106
741.019	0.0136415
741.097	0.0137520
741.175	0.0136922
741.253	0.0137880
741.331	0.0136060
741.410	0.0137470
741.488	0.0137374
741.566	0.0137028
741.644	0.0137850
741.722	0.0138414
741.800	0.0138480
741.878	0.0139655
741.956	0.0139855
742.035	0.0140563
742.113	0.0140992
742.191	0.0141829
742.269	0.0142348
742.347	0.0141381
742.425	0.0142018
742.503	0.0142786
742.581	0.0142412
742.660	0.0143885
742.738	0.0142866
742.816	0.0143364
742.894	0.0143684
742.972	0.0143604
743.050	0.0143897
743.128	0.0144936
743.206	0.0145771
743.285	0.0146164
743.363	0.0145574
743.441	0.0147352
743.519	0.0147881
743.597	0.0147411
743.675	0.0149904
743.753	0.0148940
743.831	0.0150546
743.910	0.0148978
743.988	0.0150836
744.066	0.0150558
744.144	0.0149462
744.222	0.0149180
744.300	0.0148724
744.378	0.0148173
744.456	0.0148968
744.535	0.0147508
744.613	0.0147231
744.691	0.0144485
744.769	0.0144317
744.847	0.0144552
744.925	0.0144146
745.003	0.0142896
745.081	0.0142484
745.160	0.0141914
745.238	0.0143784
745.316	0.0144503
745.394	0.0144370
745.472	0.0143689
745.550	0.0143628
745.628	0.0144814
745.706	0.0144170
745.785	0.0143361
745.863	0.0144168
745.941	0.0143784
746.019	0.0139827
746.097	0.0141498
746.175	0.0140384
746.253	0.0140749
746.331	0.0139342
746.410	0.0139275
746.488	0.0138507
746.566	0.0137196
746.644	0.0136115
746.722	0.0137112
746.800	0.0136754
746.878	0.0137009
746.956	0.0136778
747.035	0.0135719
747.113	0.0135725
747.191	0.0135512
747.269	0.0137431
747.347	0.0136068
747.425	0.0135578
747.503	0.0135167
747.581	0.0134881
747.660	0.0134800
747.738	0.0134461
747.816	0.0135207
747.894	0.0136176
747.972	0.0136964
748.050	0.0137236
748.128	0.0137975
748.206	0.0138889
748.285	0.0141547
748.363	0.0140722
748.441	0.0141469
748.519	0.0141758
748.597	0.0143745
748.675	0.0142781
748.753	0.0142651
748.831	0.0143178
748.910	0.0143446
748.988	0.0144985
749.066	0.0145248
749.144	0.0144986
749.222	0.0145957
749.300	0.0146037
749.378	0.0144792
749.456	0.0146497
749.535	0.0146777
749.613	0.0148051
749.691	0.0148126
749.769	0.0149379
749.847	0.0149597
749.925	0.0150385
750.003	0.0150424
750.081	0.0150414
750.160	0.0152075
750.238	0.0152127
750.316	0.0152925
750.394	0.0149480
750.472	0.0149097
750.550	0.0148369
750.628	0.0148812
750.706	0.0147926
750.785	0.0147495
750.863	0.0145032
750.941	0.0146812
751.019	0.0144473
751.097	0.0145110
751.175	0.0144512
751.253	0.0144734
751.331	0.0144160
751.410	0.0144057
751.488	0.0144656
751.566	0.0144734
751.644	0.0146554
751.722	0.0144910
751.800	0.0145696
751.878	0.0144305
751.956	0.0142118
752.035	0.0141859
752.113	0.0143214
752.191	0.0142896
752.269	0.0140148
752.347	0.0140447
752.425	0.0140704
752.503	0.0139490
752.581	0.0138274
752.660	0.0137737
752.738	0.0137295
752.816	0.0138226
752.894	0.0138497
752.972	0.0137215
753.050	0.0138177
753.128	0.0138589
753.206	0.0138154
753.285	0.0136427
753.363	0.0136171
753.441	0.0136848
753.519	0.0136684
753.597	0.0136475
753.675	0.0136255
753.753	0.0135195
753.831	0.0136271
753.910	0.0136316
753.988	0.0135046
754.066	0.0136629
754.144	0.0137674
754.222	0.0137593
754.300	0.0138255
754.378	0.0139207
754.456	0.0138160
754.535	0.0139374
754.613	0.0141270
754.691	0.0140872
754.769	0.0141888
754.847	0.0143244
754.925	0.0143049
755.003	0.0143911
755.081	0.0142666
755.160	0.0143182
755.238	0.0144112
755.316	0.0144389
755.394	0.0145119
755.472	0.0145586
755.550	0.0145298
755.628	0.0146016
755.706	0.0146530
755.785	0.0148363
755.863	0.0147350
755.941	0.0148026
756.019	0.0150032
756.097	0.0150385
756.175	0.0150629
756.253	0.0152251
756.331	0.0150848
756.410	0.0151762
756.488	0.0151959
756.566	0.0151580
756.644	0.0150124
756.722	0.0150486
756.800	0.0149967
756.878	0.0148894
756.956	0.0148393
757.035	0.0148537
757.113	0.0147477
757.191	0.0145702
757.269	0.0144821
757.347	0.0144543
757.425	0.0143156
757.503	0.0143977
757.581	0.0143557
757.660	0.0142020
757.738	0.0142252
757.816	0.0142061
757.894	0.0141660
757.972	0.0140547
758.050	0.0141795
758.128	0.0140389
758.206	0.0140709
758.285	0.0139568
758.363	0.0139558
758.441	0.0139193
758.519	0.0137979
758.597	0.0138326
758.675	0.0137529
758.753	0.0137081
758.831	0.0136075
758.910	0.0135973
758.988	0.0137037
759.066	0.0135655
759.144	0.0134805
759.222	0.0134853
759.300	0.0134921
759.378	0.0133735
759.456	0.0134863
759.535	0.0133536
759.613	0.0133354
759.691	0.0134575
759.769	0.0133740
759.847	0.0133500
759.925	0.0134026
760.003	0.0134615
760.081	0.0135732
760.160	0.0135021
760.238	0.0135103
760.316	0.0136742
760.394	0.0137598
760.472	0.0137509
760.550	0.0138425
760.628	0.0138691
760.706	0.0140700
760.785	0.0141045
760.863	0.0142262
760.941	0.0142406
761.019	0.0143530
761.097	0.0144149
761.175	0.0143863
761.253	0.0145869
761.331	0.0144995
761.410	0.0146188
761.488	0.0145278
761.566	0.0145207
761.644	0.0146630
761.722	0.0146622
761.800	0.0146111
761.878	0.0147646
761.956	0.0147028
762.035	0.0147136
762.113	0.0149166
762.191	0.0148976
762.269	0.0150806
762.347	0.0149770
762.425	0.0150652
762.503	0.0151901
762.581	0.0152022
762.660	0.0151697
762.738	0.0152110
762.816	0.0153429
762.894	0.0152143
762.972	0.0151387
763.050	0.0151501
763.128	0.0150989
763.206	0.0151962
763.285	0.0150874
763.363	0.0148348
763.441	0.0147501
763.519	0.0149010
763.597	0.0148911
763.675	0.0147307
763.753	0.0146100
763.831	0.0145441
763.910	0.0143856
763.988	0.0142867
764.066	0.0143706
764.144	0.0143594
764.222	0.0141825
764.300	0.0141341
764.378	0.0139581
764.456	0.0139407
764.535	0.0139957
764.613	0.0139782
764.691	0.0139866
764.769	0.0140381
764.847	0.0138870
764.925	0.0140268
765.003	0.0139201
765.081	0.0138823
765.160	0.0138188
765.238	0.0138062
765.316	0.0137916
765.394	0.0136456
765.472	0.0136671
765.550	0.0135746
765.628	0.0135514
765.706	0.0134382
765.785	0.0134413
765.863	0.0133658
765.941	0.0133774
766.019	0.0133631
766.097	0.0134446
766.175	0.0134190
766.253	0.0135453
766.331	0.0134937
766.410	0.0134262
766.488	0.0136079
766.566	0.0136453
766.644	0.0135601
766.722	0.0137518
766.800	0.0137790
766.878	0.0140500
766.956	0.0139519
767.035	0.0140676
767.113	0.0140860
767.191	0.0142036
767.269	0.0143591
767.347	0.0142620
767.425	0.0144732
767.503	0.0144296
767.581	0.0144378
767.660	0.0146272
767.738	0.0145963
767.816	0.0147449
767.894	0.0148147
767.972	0.0146011
768.050	0.0145761
768.128	0.0146564
768.206	0.0147586
768.285	0.0148855
768.363	0.0149114
768.441	0.0150009
768.519	0.0149976
768.597	0.0149581
768.675	0.0149614
768.753	0.0151680
768.831	0.0153075
768.910	0.0151866
768.988	0.0151135
769.066	0.0154801
769.144	0.0153283
769.222	0.0152802
769.300	0.0153295
769.378	0.0153311
769.456	0.0152387
769.535	0.0152280
769.613	0.0153016
769.691	0.0152015
769.769	0.0152084
769.847	0.0150713
769.925	0.0148974
770.003	0.0149217
770.081	0.0148380
770.160	0.0146503
770.238	0.0145664
770.316	0.0144991
770.394	0.0145654
770.472	0.0142830
770.550	0.0140965
770.628	0.0140181
770.706	0.0140711
770.785	0.0140358
770.863	0.0138411
770.941	0.0139811
771.019	0.0138744
771.097	0.0140059
771.175	0.0139240
771.253	0.0138132
771.331	0.0139394
771.410	0.0137193
771.488	0.0137134
771.566	0.0137109
771.644	0.0137298
771.722	0.0137727
771.800	0.0136520
771.878	0.0136199
771.956	0.0136238
772.035	0.0135191
772.113	0.0132822
772.191	0.0134876
772.269	0.0134332
772.347	0.0133556
772.425	0.0133071
772.503	0.0134850
772.581	0.0132236
772.660	0.0134445
772.738	0.0134866
772.816	0.0134764
772.894	0.0135505
772.972	0.0135603
773.050	0.0137097
773.128	0.0137019
773.206	0.0137741
773.285	0.0138536
773.363	0.0137762
773.441	0.0141204
773.519	0.0139336
773.597	0.0140127
773.675	0.0141602
773.753	0.0140879
773.831	0.0143838
773.910	0.0144437
773.988	0.0143970
774.066	0.0143412
774.144	0.0143528
774.222	0.0145018
774.300	0.0146268
774.378	0.0145623
774.456	0.0147360
774.535	0.0147229
774.613	0.0147424
774.691	0.0149601
774.769	0.0149489
774.847	0.0150195
774.925	0.0150653
775.003	0.0152430
775.081	0.0152420
775.160	0.0152403
775.238	0.0153695
775.316	0.0154562
775.394	0.0155618
775.472	0.0155559
775.550	0.0155550
775.628	0.0154646
775.706	0.0154572
775.785	0.0155319
775.863	0.0153278
775.941	0.0154184
776.019	0.0153951
776.097	0.0154314
776.175	0.0151267
776.253	0.0150494
776.331	0.0150536
776.410	0.0150896
776.488	0.0148718
776.566	0.0147549
776.644	0.0145985
776.722	0.0145917
776.800	0.0144756
776.878	0.0144011
776.956	0.0141788
777.035	0.0142347
777.113	0.0140041
777.191	0.0139266
777.269	0.0139917
777.347	0.0138535
777.425	0.0137725
777.503	0.0136618
777.581	0.0136991
777.660	0.0136542
777.738	0.0136447
777.816	0.0137454
777.894	0.0135372
777.972	0.0135378
778.050	0.0136588
778.128	0.0135774
778.206	0.0135086
778.285	0.0134525
778.363	0.0133922
778.441	0.0133455
778.519	0.0134187
778.597	0.0132249
778.675	0.0132648
778.753	0.0132471
778.831	0.0132288
778.910	0.0132479
778.988	0.0134145
779.066	0.0131770
779.144	0.0132835
779.222	0.0133344
779.300	0.0134528
779.378	0.0135424
779.456	0.0136578
779.535	0.0136713
779.613	0.0136726
779.691	0.0135877
779.769	0.0136960
779.847	0.0136759
779.925	0.0138566
780.003	0.0140060
780.081	0.0140411
780.160	0.0140340
780.238	0.0140335
780.316	0.0141389
780.394	0.0141345
780.472	0.0140767
780.550	0.0142483
780.628	0.0142670
780.706	0.0142742
780.785	0.0143223
780.863	0.0143994
780.941	0.0143661
781.019	0.0145242
781.097	0.0146132
781.175	0.0146916
781.253	0.0147063
781.331	0.0147887
781.410	0.0148422
781.488	0.0149722
781.566	0.0149233
781.644	0.0150231
781.722	0.0151112
781.800	0.0150521
781.878	0.0152285
781.956	0.0152208
782.035	0.0152155
782.113	0.0151520
782.191	0.0152117
782.269	0.0151125
782.347	0.0150806
782.425	0.0150980
782.503	0.0151555
782.581	0.0149555
782.660	0.0149992
782.738	0.0149755
782.816	0.0148949
782.894	0.0149031
782.972	0.0147847
783.050	0.0147211
783.128	0.0146201
783.206	0.0145842
783.285	0.0144868
783.363	0.0144676
783.441	0.0141576
783.519	0.0141962
783.597	0.0140329
783.675	0.0140246
783.753	0.0138748
783.831	0.0139223
783.910	0.0137156
783.988	0.0137256
784.066	0.0137466
784.144	0.0136230
784.222	0.0137928
784.300	0.0136183
784.378	0.0137074
784.456	0.0136214
784.535	0.0137035
784.613	0.0137625
784.691	0.0136890
784.769	0.0137045
784.847	0.0136311
784.925	0.0136833
785.003	0.0135846
785.081	0.0138157
785.160	0.0136035
785.238	0.0133798
785.316	0.0136002
785.394	0.0134591
785.472	0.0134766
785.550	0.0135383
785.628	0.0135844
785.706	0.0133732
785.785	0.0135590
785.863	0.0136103
785.941	0.0136406
786.019	0.0136193
786.097	0.0137228
786.175	0.0138768
786.253	0.0137865
786.331	0.0139080
786.410	0.0139943
786.488	0.0140368
786.566	0.0141224
786.644	0.0141721
786.722	0.0141622
786.800	0.0142281
786.878	0.0142111
786.956	0.0143442
787.035	0.0142487
787.113	0.0142691
787.191	0.0142536
787.269	0.0143221
787.347	0.0144224
787.425	0.0143518
787.503	0.0144386
787.581	0.0144793
787.660	0.0144180
787.738	0.0146059
787.816	0.0147896
787.894	0.0148997
787.972	0.0148882
788.050	0.0149490
788.128	0.0150262
788.206	0.0152320
788.285	0.0150737
788.363	0.0152242
788.441	0.0152876
788.519	0.0153203
788.597	0.0153864
788.675	0.0154411
788.753	0.0154691
788.831	0.0153877
788.910	0.0152837
788.988	0.0153368
789.066	0.0152969
789.144	0.0152023
789.222	0.0151792
789.300	0.0152734
789.378	0.0150838
789.456	0.0150691
789.535	0.0151570
789.613	0.0149075
789.691	0.0148756
789.769	0.0148403
789.847	0.0147253
789.925	0.0146439
790.003	0.0146114
790.081	0.0145383
790.160	0.0143948
790.238	0.0143856
790.316	0.0143005
790.394	0.0141431
790.472	0.0141566
790.550	0.0139786
790.628	0.0140289
790.706	0.0140301
790.785	0.0140223
790.863	0.0140132
790.941	0.0139899
791.019	0.0138226
791.097	0.0139283
791.175	0.0140484
791.253	0.0137345
791.331	0.0137614
791.410	0.0138855
791.488	0.0136502
791.566	0.0137395
791.644	0.0138136
791.722	0.0137163
791.800	0.0134807
791.878	0.0133926
791.956	0.0133420
792.035	0.0133888
792.113	0.0132730
792.191	0.0133570
792.269	0.0133678
792.347	0.0133740
792.425	0.0134859
792.503	0.0136413
792.581	0.0135590
792.660	0.0137408
792.738	0.0137250
792.816	0.0139232
792.894	0.0139753
792.972	0.0141377
793.050	0.0140879
793.128	0.0141743
793.206	0.0143555
793.285	0.0143526
793.363	0.0143282
793.441	0.0142390
793.519	0.0144641
793.597	0.0143224
793.675	0.0142963
793.753	0.0144991
793.831	0.0145390
793.910	0.0143492
793.988	0.0144758
794.066	0.0144616
794.144	0.0144239
794.222	0.0144602
794.300	0.0145145
794.378	0.0145536
794.456	0.0146408
794.535	0.0145830
794.613	0.0147109
794.691	0.0147667
794.769	0.0146870
794.847	0.0147715
794.925	0.0148035
795.003	0.0148379
795.081	0.0149199
795.160	0.0148570
795.238	0.0148821
795.316	0.0148690
795.394	0.0151937
795.472	0.0149248
795.550	0.0151101
795.628	0.0151046
795.706	0.0151273
795.785	0.0151493
795.863	0.0151689
795.941	0.0151829
796.019	0.0154102
796.097	0.0152088
796.175	0.0149475
796.253	0.0151124
796.331	0.0151451
796.410	0.0150431
796.488	0.0150118
796.566	0.0149136
796.644	0.0148444
796.722	0.0147469
796.800	0.0146682
796.878	0.0145595
796.956	0.0144849
797.035	0.0143104
797.113	0.0143762
797.191	0.0143077
797.269	0.0141420
797.347	0.0139169
797.425	0.0140443
797.503	0.0139471
797.581	0.0140226
797.660	0.0139294
797.738	0.0139558
797.816	0.0139778
797.894	0.0139272
797.972	0.0137791
798.050	0.0136844
798.128	0.0137358
798.206	0.0137112
798.285	0.0136922
798.363	0.0135469
798.441	0.0135138
798.519	0.0135004
798.597	0.0133484
798.675	0.0132818
798.753	0.0132186
798.831	0.0132246
798.910	0.0131977
798.988	0.0132728
799.066	0.0133562
799.144	0.0133382
799.222	0.0133358
799.300	0.0134223
799.378	0.0135386
799.456	0.0136700
799.535	0.0138574
799.613	0.0139738
799.691	0.0139632
799.769	0.0139554
799.847	0.0140656
799.925	0.0141975
800.003	0.0141290
800.081	0.0142107
800.160	0.0141752
800.238	0.0141491
800.316	0.0141189
800.394	0.0142576
800.472	0.0143355
800.550	0.0141276
800.628	0.0142951
800.706	0.0142696
800.785	0.0143623
800.863	0.0142947
800.941	0.0143283
801.019	0.0143064
801.097	0.0143351
801.175	0.0144086
801.253	0.0144153
801.331	0.0145505
801.410	0.0144080
801.488	0.0144299
801.566	0.0144626
801.644	0.0146349
801.722	0.0146912
801.800	0.0145921
801.878	0.0148329
801.956	0.0147710
802.035	0.0148462
802.113	0.0149644
802.191	0.0149486
802.269	0.0150032
802.347	0.0150003
802.425	0.0148983
802.503	0.0150359
802.581	0.0150795
802.660	0.0150264
802.738	0.0149680
802.816	0.0150092
802.894	0.0148856
802.972	0.0148647
803.050	0.0148554
803.128	0.0148851
803.206	0.0148827
803.285	0.0148710
803.363	0.0147832
803.441	0.0148039
803.519	0.0146767
803.597	0.0146478
803.675	0.0146627
803.753	0.0146715
803.831	0.0145408
803.910	0.0143214
803.988	0.0143728
804.066	0.0141955
804.144	0.0141174
804.222	0.0140147
804.300	0.0139378
804.378	0.0138569
804.456	0.0137969
804.535	0.0137270
804.613	0.0136300
804.691	0.0135989
804.769	0.0135399
804.847	0.0135460
804.925	0.0135551
805.003	0.0135464
805.081	0.0134793
805.160	0.0134235
805.238	0.0134480
805.316	0.0133404
805.394	0.0134596
805.472	0.0134361
805.550	0.0134946
805.628	0.0135054
805.706	0.0134428
805.785	0.0135946
805.863	0.0136827
805.941	0.0137635
806.019	0.0137159
806.097	0.0138295
806.175	0.0139009
806.253	0.0139525
806.331	0.0140276
806.410	0.0141049
806.488	0.0140412
806.566	0.0141014
806.644	0.0141567
806.722	0.0141424
806.800	0.0142465
806.878	0.0141013
806.956	0.0139735
807.035	0.0140391
807.113	0.0142138
807.191	0.0142202
807.269	0.0141395
807.347	0.0140976
807.425	0.0142400
807.503	0.0141875
807.581	0.0143818
807.660	0.0143680
807.738	0.0143445
807.816	0.0143363
807.894	0.0143592
807.972	0.0144624
808.050	0.0143748
808.128	0.0143792
808.206	0.0145710
808.285	0.0144935
808.363	0.0145427
808.441	0.0146380
808.519	0.0146400
808.597	0.0146593
808.675	0.0147683
808.753	0.0147318
808.831	0.0147145
808.910	0.0147659
808.988	0.0150645
809.066	0.0150278
809.144	0.0150454
809.222	0.0150734
809.300	0.0149402
809.378	0.0150181
809.456	0.0150116
809.535	0.0150433
809.613	0.0151722
809.691	0.0150671
809.769	0.0149998
809.847	0.0149631
809.925	0.0150455
810.003	0.0148503
810.081	0.0147015
810.160	0.0148382
810.238	0.0147015
810.316	0.0147167
810.394	0.0146345
810.472	0.0143822
810.550	0.0145338
810.628	0.0142398
810.706	0.0143773
810.785	0.0142107
810.863	0.0141908
810.941	0.0141087
811.019	0.0140759
811.097	0.0140151
811.175	0.0139723
811.253	0.0139291
811.331	0.0139249
811.410	0.0139841
811.488	0.0139771
811.566	0.0140237
811.644	0.0140788
811.722	0.0139110
811.800	0.0139463
811.878	0.0140019
811.956	0.0140890
812.035	0.0140376
812.113	0.0138602
812.191	0.0138010
812.269	0.0138409
812.347	0.0139577
812.425	0.0138405
812.503	0.0137030
812.581	0.0137827
812.660	0.0137778
812.738	0.0137941
812.816	0.0138825
812.894	0.0137959
812.972	0.0138113
813.050	0.0139875
813.128	0.0140781
813.206	0.0141811
813.285	0.0141166
813.363	0.0139835
813.441	0.0142693
813.519	0.0141682
813.597	0.0142561
813.675	0.0141685
813.753	0.0141369
813.831	0.0140622
813.910	0.0141547
813.988	0.0140537
814.066	0.0140189
814.144	0.0140192
814.222	0.0140791
814.300	0.0140616
814.378	0.0141626
814.456	0.0140627
814.535	0.0140952
814.613	0.0140517
814.691	0.0141767
814.769	0.0141569
814.847	0.0143259
814.925	0.0143037
815.003	0.0145856
815.081	0.0144474
815.160	0.0145815
815.238	0.0146086
815.316	0.0146564
815.394	0.0148054
815.472	0.0147441
815.550	0.0147139
815.628	0.0149593
815.706	0.0148889
815.785	0.0149200
815.863	0.0149623
815.941	0.0148799
816.019	0.0150864
816.097	0.0148964
816.175	0.0149227
816.253	0.0150011
816.331	0.0150489
816.410	0.0150457
816.488	0.0149235
816.566	0.0148441
816.644	0.0150053
816.722	0.0148279
816.800	0.0148936
816.878	0.0145985
816.956	0.0147311
817.035	0.0147028
817.113	0.0145317
817.191	0.0144797
817.269	0.0144430
817.347	0.0144803
817.425	0.0144221
817.503	0.0144163
817.581	0.0141827
817.660	0.0142043
817.738	0.0144245
817.816	0.0141663
817.894	0.0141702
817.972	0.0142452
818.050	0.0141636
818.128	0.0140475
818.206	0.0139916
818.285	0.0139556
818.363	0.0140446
818.441	0.0141602
818.519	0.0141545
818.597	0.0140576
818.675	0.0140515
818.753	0.0140635
818.831	0.0140965
818.910	0.0139159
818.988	0.0139079
819.066	0.0138287
819.144	0.0139240
819.222	0.0137971
819.300	0.0137533
819.378	0.0139190
819.456	0.0137166
819.535	0.0139127
819.613	0.0138642
819.691	0.0139797
819.769	0.0138876
819.847	0.0139415
819.925	0.0139935
820.003	0.0140452
820.081	0.0139453
820.160	0.0141119
820.238	0.0141722
820.316	0.0141713
820.394	0.0139877
820.472	0.0140865
820.550	0.0141263
820.628	0.0141090
820.706	0.0141599
820.785	0.0143075
820.863	0.0140009
820.941	0.0142823
821.019	0.0141512
821.097	0.0141205
821.175	0.0141922
821.253	0.0143268
821.331	0.0142544
821.410	0.0142815
821.488	0.0142538
821.566	0.0144170
821.644	0.0143562
821.722	0.0144129
821.800	0.0145225
821.878	0.0144438
821.956	0.0146020
822.035	0.0145857
822.113	0.0144128
822.191	0.0143883
822.269	0.0144841
822.347	0.0146316
822.425	0.0144905
822.503	0.0145743
822.581	0.0146175
822.660	0.0145588
822.738	0.0147620
822.816	0.0148947
822.894	0.0148143
822.972	0.0147424
823.050	0.0147851
823.128	0.0147546
823.206	0.0147260
823.285	0.0147276
823.363	0.0145828
823.441	0.0146561
823.519	0.0146127
823.597	0.0146087
823.675	0.0145903
823.753	0.0147180
823.831	0.0146805
823.910	0.0145531
823.988	0.0143328
824.066	0.0144524
824.144	0.0145084
824.222	0.0143063
824.300	0.0141854
824.378	0.0141319
824.456	0.0141818
824.535	0.0140291
824.613	0.0140156
824.691	0.0140080
824.769	0.0138406
824.847	0.0140309
824.925	0.0141171
825.003	0.0140298
825.081	0.0137536
825.160	0.0138387
825.238	0.0138966
825.316	0.0139226
825.394	0.0139436
825.472	0.0138731
825.550	0.0139154
825.628	0.0138322
825.706	0.0137852
825.785	0.0138953
825.863	0.0137775
825.941	0.0137723
826.019	0.0138214
826.097	0.0138885
826.175	0.0138328
826.253	0.0137847
826.331	0.0138266
826.410	0.0140795
826.488	0.0140174
826.566	0.0140157
826.644	0.0139662
826.722	0.0140156
826.800	0.0140584
826.878	0.0141219
826.956	0.0141989
827.035	0.0142270
827.113	0.0140955
827.191	0.0141029
827.269	0.0141861
827.347	0.0142947
827.425	0.0143647
827.503	0.0142815
827.581	0.0142640
827.660	0.0142371
827.738	0.0143580
827.816	0.0142499
827.894	0.0143194
827.972	0.0143301
828.050	0.0143831
828.128	0.0143361
828.206	0.0143134
828.285	0.0144151
828.363	0.0143306
828.441	0.0144605
828.519	0.0143972
828.597	0.0144167
828.675	0.0145311
828.753	0.0144320
828.831	0.0144893
828.910	0.0146187
828.988	0.0143322
829.066	0.0143388
829.144	0.0143803
829.222	0.0143749
829.300	0.0144180
829.378	0.0145614
829.456	0.0144216
829.535	0.0144174
829.613	0.0145620
829.691	0.0146156
829.769	0.0146797
829.847	0.0145561
829.925	0.0146176
830.003	0.0146461
830.081	0.0145683
830.160	0.0146857
830.238	0.0147733
830.316	0.0147510
830.394	0.0146951
830.472	0.0145622
830.550	0.0146196
830.628	0.0144501
830.706	0.0145212
830.785	0.0146317
830.863	0.0146597
830.941	0.0146497
831.019	0.0144951
831.097	0.0144581
831.175	0.0145186
831.253	0.0144499
831.331	0.0144244
831.410	0.0145216
831.488	0.0145036
831.566	0.0143192
831.644	0.0143483
831.722	0.0142293
831.800	0.0142241
831.878	0.0142305
831.956	0.0140776
832.035	0.0141573
832.113	0.0139568
832.191	0.0139777
832.269	0.0141238
832.347	0.0139694
832.425	0.0140468
832.503	0.0140936
832.581	0.0140934
832.660	0.0141059
832.738	0.0139275
832.816	0.0139854
832.894	0.0140002
832.972	0.0138944
833.050	0.0139433
833.128	0.0140140
833.206	0.0140533
833.285	0.0139938
833.363	0.0140347
833.441	0.0140694
833.519	0.0140928
833.597	0.0140353
833.675	0.0141275
833.753	0.0140931
833.831	0.0142159
833.910	0.0143321
833.988	0.0143739
834.066	0.0141884
834.144	0.0142810
834.222	0.0143459
834.300	0.0142989
834.378	0.0142181
834.456	0.0141282
834.535	0.0141670
834.613	0.0141899
834.691	0.0142356
834.769	0.0143680
834.847	0.0142879
834.925	0.0141999
835.003	0.0141792
835.081	0.0142612
835.160	0.0143500
835.238	0.0141494
835.316	0.0140927
835.394	0.0143235
835.472	0.0141901
835.550	0.0143326
835.628	0.0143320
835.706	0.0142800
835.785	0.0142081
835.863	0.0142532
835.941	0.0142242
836.019	0.0141460
836.097	0.0142880
836.175	0.0142057
836.253	0.0142211
836.331	0.0143288
836.410	0.0143221
836.488	0.0142552
836.566	0.0143065
836.644	0.0144230
836.722	0.0143293
836.800	0.0143204
836.878	0.0144696
836.956	0.0144396
837.035	0.0146227
837.113	0.0146255
837.191	0.0144061
837.269	0.0143697
837.347	0.0144467
837.425	0.0144711
837.503	0.0144633
837.581	0.0145181
837.660	0.0145054
837.738	0.0144424
837.816	0.0144702
837.894	0.0142958
837.972	0.0143435
838.050	0.0143609
838.128	0.0141532
838.206	0.0142146
838.285	0.0143408
838.363	0.0141309
838.441	0.0140673
838.519	0.0139288
838.597	0.0141489
838.675	0.0141179
838.753	0.0139519
838.831	0.0139836
838.910	0.0141103
838.988	0.0140564
839.066	0.0140447
839.144	0.0142267
839.222	0.0139999
839.300	0.0140447
839.378	0.0140138
839.456	0.0141267
839.535	0.0141538
839.613	0.0140402
839.691	0.0140860
839.769	0.0139963
839.847	0.0140897
839.925	0.0140952
840.003	0.0141064
840.081	0.0139617
840.160	0.0140710
840.238	0.0140856
840.316	0.0139986
840.394	0.0140565
840.472	0.0141747
840.550	0.0141536
840.628	0.0142123
840.706	0.0142553
840.785	0.0142514
840.863	0.0142902
840.941	0.0142204
841.019	0.0142651
841.097	0.0143186
841.175	0.0143116
841.253	0.0143719
841.331	0.0143851
841.410	0.0142779
841.488	0.0143314
841.566	0.0143527
841.644	0.0143205
841.722	0.0143564
841.800	0.0143005
841.878	0.0142493
841.956	0.0142799
842.035	0.0141801
842.113	0.0142395
842.191	0.0143916
842.269	0.0142822
842.347	0.0143196
842.425	0.0144425
842.503	0.0142796
842.581	0.0141030
842.660	0.0140567
842.738	0.0142271
842.816	0.0141087
842.894	0.0142319
842.972	0.0142343
843.050	0.0142085
843.128	0.0142854
843.206	0.0141993
843.285	0.0141199
843.363	0.0142940
843.441	0.0143286
843.519	0.0143977
843.597	0.0143748
843.675	0.0143953
843.753	0.0145000
843.831	0.0146136
843.910	0.0145338
843.988	0.0145771
844.066	0.0146925
844.144	0.0146233
844.222	0.0145995
844.300	0.0146446
844.378	0.0145566
844.456	0.0145186
844.535	0.0144714
844.613	0.0145256
844.691	0.0145205
844.769	0.0145915
844.847	0.0145190
844.925	0.0143253
845.003	0.0144791
845.081	0.0143271
845.160	0.0144769
845.238	0.0146082
845.316	0.0143606
845.394	0.0142884
845.472	0.0143529
845.550	0.0143077
845.628	0.0142038
845.706	0.0143572
845.785	0.0142365
845.863	0.0142593
845.941	0.0142355
846.019	0.0143801
846.097	0.0142805
846.175	0.0142066
846.253	0.0142058
846.331	0.0142623
846.410	0.0143445
846.488	0.0141792
846.566	0.0142071
846.644	0.0142045
846.722	0.0141362
846.800	0.0140868
846.878	0.0142129
846.956	0.0142056
847.035	0.0140674
847.113	0.0141628
847.191	0.0140393
847.269	0.0141417
847.347	0.0142933
847.425	0.0142233
847.503	0.0141582
847.581	0.0141956
847.660	0.0141911
847.738	0.0142168
847.816	0.0142201
847.894	0.0142742
847.972	0.0142447
848.050	0.0143601
848.128	0.0142149
848.206	0.0142594
848.285	0.0142333
848.363	0.0141718
848.441	0.0143106
848.519	0.0142301
848.597	0.0141396
848.675	0.0141840
848.753	0.0141251
848.831	0.0141989
848.910	0.0141325
848.988	0.0140332
849.066	0.0140785
849.144	0.0142090
849.222	0.0140603
849.300	0.0140864
849.378	0.0139845
849.456	0.0140398
849.535	0.0141151
849.613	0.0140499
849.691	0.0138488
849.769	0.0139089
849.847	0.0141707
849.925	0.0140289
850.003	0.0139149
850.081	0.0139722
850.160	0.0141271
850.238	0.0140631
850.316	0.0141779
850.394	0.0140659
850.472	0.0142455
850.550	0.0143574
850.628	0.0144629
850.706	0.0143784
850.785	0.0144206
850.863	0.0144773
850.941	0.0145004
851.019	0.0145294
851.097	0.0146114
851.175	0.0145853
851.253	0.0145369
851.331	0.0144997
851.410	0.0144890
851.488	0.0144496
851.566	0.0145646
851.644	0.0145724
851.722	0.0146241
851.800	0.0145960
851.878	0.0144939
851.956	0.0146139
852.035	0.0146573
852.113	0.0143774
852.191	0.0144926
852.269	0.0144086
852.347	0.0144538
852.425	0.0144600
852.503	0.0145149
852.581	0.0143958
852.660	0.0143509
852.738	0.0143203
852.816	0.0143894
852.894	0.0144680
852.972	0.0143748
853.050	0.0142819
853.128	0.0143750
853.206	0.0143778
853.285	0.0143723
853.363	0.0144554
853.441	0.0143433
853.519	0.0142731
853.597	0.0142228
853.675	0.0142647
853.753	0.0144255
853.831	0.0142299
853.910	0.0141091
853.988	0.0141230
854.066	0.0142844
854.144	0.0141370
854.222	0.0140828
854.300	0.0141560
854.378	0.0141460
854.456	0.0141404
854.535	0.0141547
854.613	0.0140576
854.691	0.0141283
854.769	0.0143314
854.847	0.0142105
854.925	0.0141116
855.003	0.0142316
855.081	0.0141457
855.160	0.0142318
855.238	0.0141935
855.316	0.0141414
855.394	0.0140957
855.472	0.0140993
855.550	0.0141463
855.628	0.0141431
855.706	0.0141227
855.785	0.0141927
855.863	0.0139616
855.941	0.0140392
856.019	0.0140147
856.097	0.0140947
856.175	0.0140559
856.253	0.0140044
856.331	0.0140348
856.410	0.0141589
856.488	0.0142381
856.566	0.0142599
856.644	0.0140084
856.722	0.0140754
856.800	0.0141047
856.878	0.0141658
856.956	0.0141611
857.035	0.0140819
857.113	0.0139935
857.191	0.0141920
857.269	0.0140216
857.347	0.0141550
857.425	0.0143279
857.503	0.0143267
857.581	0.0143530
857.660	0.0144970
857.738	0.0144653
857.816	0.0142888
857.894	0.0146248
857.972	0.0147115
858.050	0.0145576
858.128	0.0145921
858.206	0.0145401
858.285	0.0144649
858.363	0.0146484
858.441	0.0147434
858.519	0.0146145
858.597	0.0147050
858.675	0.0147649
858.753	0.0146999
858.831	0.0145108
858.910	0.0145600
858.988	0.0146693
859.066	0.0145719
859.144	0.0145911
859.222	0.0146606
859.300	0.0145401
859.378	0.0146774
859.456	0.0145605
859.535	0.0145148
859.613	0.0145203
859.691	0.0144124
859.769	0.0142975
859.847	0.0145601
859.925	0.0144152
860.003	0.0144109
860.081	0.0143411
860.160	0.0142179
860.238	0.0143330
860.316	0.0143005
860.394	0.0143699
860.472	0.0143012
860.550	0.0143391
860.628	0.0142255
860.706	0.0142082
860.785	0.0142442
860.863	0.0141882
860.941	0.0140057
861.019	0.0139504
861.097	0.0141416
861.175	0.0140630
861.253	0.0140406
861.331	0.0140992
861.410	0.0139921
861.488	0.0138739
861.566	0.0140578
861.644	0.0139782
861.722	0.0139310
861.800	0.0139304
861.878	0.0140641
861.956	0.0141341
862.035	0.0140835
862.113	0.0140935
862.191	0.0139885
862.269	0.0139661
862.347	0.0139701
862.425	0.0141189
862.503	0.0141480
862.581	0.0139889
862.660	0.0139556
862.738	0.0140110
862.816	0.0140019
862.894	0.0138229
862.972	0.0139573
863.050	0.0140615
863.128	0.0139779
863.206	0.0138783
863.285	0.0138721
863.363	0.0139687
863.441	0.0138297
863.519	0.0138948
863.597	0.0139193
863.675	0.0138116
863.753	0.0138853
863.831	0.0139421
863.910	0.0138967
863.988	0.0140434
864.066	0.0140919
864.144	0.0140668
864.222	0.0141947
864.300	0.0141984
864.378	0.0140044
864.456	0.0142994
864.535	0.0143967
864.613	0.0143935
864.691	0.0145377
864.769	0.0145663
864.847	0.0145467
864.925	0.0147106
865.003	0.0148046
865.081	0.0145423
865.160	0.0147054
865.238	0.0147038
865.316	0.0148857
865.394	0.0147327
865.472	0.0148029
865.550	0.0147861
865.628	0.0146322
865.706	0.0148269
865.785	0.0146461
865.863	0.0146371
865.941	0.0146468
866.019	0.0145494
866.097	0.0146556
866.175	0.0145782
866.253	0.0145816
866.331	0.0146260
866.410	0.0146236
866.488	0.0145621
866.566	0.0144640
866.644	0.0146236
866.722	0.0145544
866.800	0.0144806
866.878	0.0143349
866.956	0.0144186
867.035	0.0145387
867.113	0.0144842
867.191	0.0142582
867.269	0.0142863
867.347	0.0143349
867.425	0.0143935
867.503	0.0142870
867.581	0.0143124
867.660	0.0141771
867.738	0.0140504
867.816	0.0141280
867.894	0.0140692
867.972	0.0141618
868.050	0.0140300
868.128	0.0140489
868.206	0.0140660
868.285	0.0140312
868.363	0.0141156
868.441	0.0141090
868.519	0.0140536
868.597	0.0138423
868.675	0.0139966
868.753	0.0139996
868.831	0.0139180
868.910	0.0140623
868.988	0.0140350
869.066	0.0138475
869.144	0.0139977
869.222	0.0142154
869.300	0.0138592
869.378	0.0138573
869.456	0.0140830
869.535	0.0140475
869.613	0.0139648
869.691	0.0141115
869.769	0.0140439
869.847	0.0138851
869.925	0.0139528
870.003	0.0139811
870.081	0.0141166
870.160	0.0140473
870.238	0.0140137
870.316	0.0141136
870.394	0.0140569
870.472	0.0138793
870.550	0.0141137
870.628	0.0140112
870.706	0.0140163
870.785	0.0139862
870.863	0.0140581
870.941	0.0141805
871.019	0.0141775
871.097	0.0141834
871.175	0.0142662
871.253	0.0142735
871.331	0.0142957
871.410	0.0144062
871.488	0.0143412
871.566	0.0144564
871.644	0.0145155
871.722	0.0146324
871.800	0.0146078
871.878	0.0146606
871.956	0.0146686
872.035	0.0146755
872.113	0.0147099
872.191	0.0146705
872.269	0.0146925
872.347	0.0146852
872.425	0.0147124
872.503	0.0147033
872.581	0.0147984
872.660	0.0147310
872.738	0.0146485
872.816	0.0145495
872.894	0.0145074
872.972	0.0146337
873.050	0.0144642
873.128	0.0144864
873.206	0.0142956
873.285	0.0145074
873.363	0.0143774
873.441	0.0143571
873.519	0.0143169
873.597	0.0142887
873.675	0.0141808
873.753	0.0142428
873.831	0.0142320
873.910	0.0140987
873.988	0.0141641
874.066	0.0142455
874.144	0.0141461
874.222	0.0142814
874.300	0.0141032
874.378	0.0141360
874.456	0.0141386
874.535	0.0141203
874.613	0.0140775
874.691	0.0139384
874.769	0.0139648
874.847	0.0140506
874.925	0.0139101
875.003	0.0138874
875.081	0.0140997
875.160	0.0140289
875.238	0.0138422
875.316	0.0138016
875.394	0.0138758
875.472	0.0138172
875.550	0.0139442
875.628	0.0139031
875.706	0.0138926
875.785	0.0139153
875.863	0.0139217
875.941	0.0140847
876.019	0.0140017
876.097	0.0140747
876.175	0.0140567
876.253	0.0140475
876.331	0.0141485
876.410	0.0143527
876.488	0.0142824
876.566	0.0142638
876.644	0.0141097
876.722	0.0142534
876.800	0.0142387
876.878	0.0142346
876.956	0.0140772
877.035	0.0142911
877.113	0.0142891
877.191	0.0141865
877.269	0.0141155
877.347	0.0140981
877.425	0.0140841
877.503	0.0141111
877.581	0.0141632
877.660	0.0141857
877.738	0.0141748
877.816	0.0143132
877.894	0.0142518
877.972	0.0141999
878.050	0.0141874
878.128	0.0141840
878.206	0.0143527
878.285	0.0143714
878.363	0.0143866
878.441	0.0145356
878.519	0.0144530
878.597	0.0146155
878.675	0.0145539
878.753	0.0145927
878.831	0.0147186
878.910	0.0147923
878.988	0.0146213
879.066	0.0145724
879.144	0.0147519
879.222	0.0148168
879.300	0.0147096
879.378	0.0146784
879.456	0.0146541
879.535	0.0146385
879.613	0.0145403
879.691	0.0145853
879.769	0.0146075
879.847	0.0144737
879.925	0.0147357
880.003	0.0145602
880.081	0.0145443
880.160	0.0145763
880.238	0.0143633
880.316	0.0145143
880.394	0.0144084
880.472	0.0145145
880.550	0.0143496
880.628	0.0142410
880.706	0.0142094
880.785	0.0143118
880.863	0.0142161
880.941	0.0141299
881.019	0.0143410
881.097	0.0142213
881.175	0.0142818
881.253	0.0141140
881.331	0.0140574
881.410	0.0142343
881.488	0.0141300
881.566	0.0141540
881.644	0.0140489
881.722	0.0141857
881.800	0.0140890
881.878	0.0140998
881.956	0.0141311
882.035	0.0141879
882.113	0.0141373
882.191	0.0140667
882.269	0.0140076
882.347	0.0140988
882.425	0.0142110
882.503	0.0141834
882.581	0.0140309
882.660	0.0141413
882.738	0.0140267
882.816	0.0140487
882.894	0.0141055
882.972	0.0141388
883.050	0.0140803
883.128	0.0141743
883.206	0.0142776
883.285	0.0142102
883.363	0.0142773
883.441	0.0142325
883.519	0.0140768
883.597	0.0140672
883.675	0.0142822
883.753	0.0142919
883.831	0.0143242
883.910	0.0140578
883.988	0.0141996
884.066	0.0142150
884.144	0.0140887
884.222	0.0141220
884.300	0.0140708
884.378	0.0141714
884.456	0.0141720
884.535	0.0141290
884.613	0.0140983
884.691	0.0141682
884.769	0.0142058
884.847	0.0141132
884.925	0.0142360
885.003	0.0143224
885.081	0.0142666
885.160	0.0143990
885.238	0.0143374
885.316	0.0143584
885.394	0.0144332
885.472	0.0144138
885.550	0.0144584
885.628	0.0144164
885.706	0.0145220
885.785	0.0146152
885.863	0.0145297
885.941	0.0146161
886.019	0.0146781
886.097	0.0146901
886.175	0.0147348
886.253	0.0146782
886.331	0.0146120
886.410	0.0146087
886.488	0.0145840
886.566	0.0146842
886.644	0.0146996
886.722	0.0146571
886.800	0.0145805
886.878	0.0145439
886.956	0.0145055
887.035	0.0143672
887.113	0.0144889
887.191	0.0142389
887.269	0.0143205
887.347	0.0143613
887.425	0.0143716
887.503	0.0142336
887.581	0.0142465
887.660	0.0142872
887.738	0.0141467
887.816	0.0140094
887.894	0.0140058
887.972	0.0140191
888.050	0.0141417
888.128	0.0141444
888.206	0.0140790
888.285	0.0140468
888.363	0.0139273
888.441	0.0140558
888.519	0.0140176
888.597	0.0140353
888.675	0.0141088
888.753	0.0140684
888.831	0.0140127
888.910	0.0139343
888.988	0.0138904
889.066	0.0138978
889.144	0.0140932
889.222	0.0140064
889.300	0.0139358
889.378	0.0139446
889.456	0.0139203
889.535	0.0140623
889.613	0.0140673
889.691	0.0140813
889.769	0.0140414
889.847	0.0141451
889.925	0.0141054
890.003	0.0141349
890.081	0.0140718
890.160	0.0142362
890.238	0.0140726
890.316	0.0141930
890.394	0.0142735
890.472	0.0142567
890.550	0.0143241
890.628	0.0142683
890.706	0.0142410
890.785	0.0144090
890.863	0.0143350
890.941	0.0142376
891.019	0.0143782
891.097	0.0142915
891.175	0.0143665
891.253	0.0143575
891.331	0.0142740
891.410	0.0143542
891.488	0.0143192
891.566	0.0142516
891.644	0.0142254
891.722	0.0142388
891.800	0.0143369
891.878	0.0143263
891.956	0.0142522
892.035	0.0144444
892.113	0.0144520
892.191	0.0144844
892.269	0.0145211
892.347	0.0145250
892.425	0.0146340
892.503	0.0145354
892.581	0.0147261
892.660	0.0146051
892.738	0.0146999
892.816	0.0146499
892.894	0.0147936
892.972	0.0146568
893.050	0.0146375
893.128	0.0146294
893.206	0.0146351
893.285	0.0147046
893.363	0.0146175
893.441	0.0146164
893.519	0.0147124
893.597	0.0147396
893.675	0.0145197
893.753	0.0147040
893.831	0.0145168
893.910	0.0145155
893.988	0.0143829
894.066	0.0143262
894.144	0.0145199
894.222	0.0141481
894.300	0.0143053
894.378	0.0142281
894.456	0.0142886
894.535	0.0142236
894.613	0.0142629
894.691	0.0141806
894.769	0.0140478
894.847	0.0140326
894.925	0.0140241
895.003	0.0140082
895.081	0.0139827
895.160	0.0138203
895.238	0.0139147
895.316	0.0139846
895.394	0.0140831
895.472	0.0139211
895.550	0.0138889
895.628	0.0138866
895.706	0.0137830
895.785	0.0138199
895.863	0.0139345
895.941	0.0140582
896.019	0.0141720
896.097	0.0139729
896.175	0.0139008
896.253	0.0139378
896.331	0.0140788
896.410	0.0140862
896.488	0.0140707
896.566	0.0140137
896.644	0.0140607
896.722	0.0140649
896.800	0.0142774
896.878	0.0142029
896.956	0.0141417
897.035	0.0141695
897.113	0.0141115
897.191	0.0142851
897.269	0.0141293
897.347	0.0141749
897.425	0.0142003
897.503	0.0140677
897.581	0.0141315
897.660	0.0139587
897.738	0.0139638
897.816	0.0140362
897.894	0.0142455
897.972	0.0142928
898.050	0.0140289
898.128	0.0140650
898.206	0.0142342
898.285	0.0143662
898.363	0.0142879
898.441	0.0141610
898.519	0.0142239
898.597	0.0143737
898.675	0.0143092
898.753	0.0143655
898.831	0.0143478
898.910	0.0144448
898.988	0.0145231
899.066	0.0145087
899.144	0.0144528
899.222	0.0145282
899.300	0.0144064
899.378	0.0144581
899.456	0.0144788
899.535	0.0145300
899.613	0.0143658
899.691	0.0143624
899.769	0.0144816
899.847	0.0144232
899.925	0.0144523
900.003	0.0143571
900.081	0.0145258
900.160	0.0144960
900.238	0.0143581
900.316	0.0143790
900.394	0.0142717
900.472	0.0143764
900.550	0.0143815
900.628	0.0143943
900.706	0.0144863
900.785	0.0144003
900.863	0.0144627
900.941	0.0144729
901.019	0.0145455
901.097	0.0142892
901.175	0.0143530
901.253	0.0142950
901.331	0.0142931
901.410	0.0142245
901.488	0.0142644
901.566	0.0143319
901.644	0.0142721
901.722	0.0140701
901.800	0.0141496
901.878	0.0140858
901.956	0.0139857
902.035	0.0141165
902.113	0.0140301
902.191	0.0140210
902.269	0.0140450
902.347	0.0141080
902.425	0.0142298
902.503	0.0139950
902.581	0.0140745
902.660	0.0140659
902.738	0.0140871
902.816	0.0139986
902.894	0.0140182
902.972	0.0140150
903.050	0.0140888
903.128	0.0139171
903.206	0.0139369
903.285	0.0140752
903.363	0.0140257
903.441	0.0140546
903.519	0.0141523
903.597	0.0139994
903.675	0.0141323
903.753	0.0140710
903.831	0.0141499
903.910	0.0142097
903.988	0.0141573
904.066	0.0142135
904.144	0.0142263
904.222	0.0142295
904.300	0.0142567
904.378	0.0143059
904.456	0.0142679
904.535	0.0143267
904.613	0.0141835
904.691	0.0142778
904.769	0.0144257
904.847	0.0144554
904.925	0.0144786
905.003	0.0144037
905.081	0.0144560
905.160	0.0145181
905.238	0.0144421
905.316	0.0145612
905.394	0.0144998
905.472	0.0146143
905.550	0.0146380
905.628	0.0145843
905.706	0.0145625
905.785	0.0145351
905.863	0.0144805
905.941	0.0145332
906.019	0.0146000
906.097	0.0142919
906.175	0.0144900
906.253	0.0144289
906.331	0.0143739
906.410	0.0143747
906.488	0.0144344
906.566	0.0142217
906.644	0.0145024
906.722	0.0144566
906.800	0.0144106
906.878	0.0143621
906.956	0.0144074
907.035	0.0144051
907.113	0.0143778
907.191	0.0143543
907.269	0.0144843
907.347	0.0145207
907.425	0.0144539
907.503	0.0144756
907.581	0.0145943
907.660	0.0143610
907.738	0.0143223
907.816	0.0142612
907.894	0.0141815
907.972	0.0141814
908.050	0.0142219
908.128	0.0140922
908.206	0.0142558
908.285	0.0140585
908.363	0.0141061
908.441	0.0140271
908.519	0.0141867
908.597	0.0141668
908.675	0.0141152
908.753	0.0142197
908.831	0.0141155
908.910	0.0140311
908.988	0.0140668
909.066	0.0140039
909.144	0.0141072
909.222	0.0140173
909.300	0.0139568
909.378	0.0141243
909.456	0.0140736
909.535	0.0141501
909.613	0.0141547
909.691	0.0141974
909.769	0.0140724
909.847	0.0142487
909.925	0.0142976
910.003	0.0142034
910.081	0.0143232
910.160	0.0143137
910.238	0.0143559
910.316	0.0143200
910.394	0.0142069
910.472	0.0143609
910.550	0.0144205
910.628	0.0142966
910.706	0.0142926
910.785	0.0145457
910.863	0.0142217
910.941	0.0143141
911.019	0.0142010
911.097	0.0142342
911.175	0.0143404
911.253	0.0142929
911.331	0.0143189
911.410	0.0142815
911.488	0.0143787
911.566	0.0143641
911.644	0.0143498
911.722	0.0144530
911.800	0.0143491
911.878	0.0142941
911.956	0.0143964
912.035	0.0145248
912.113	0.0143764
912.191	0.0144151
912.269	0.0145877
912.347	0.0144553
912.425	0.0144717
912.503	0.0144180
912.581	0.0145529
912.660	0.0144825
912.738	0.0144570
912.816	0.0145664
912.894	0.0145208
912.972	0.0145440
913.050	0.0145050
913.128	0.0144025
913.206	0.0144363
913.285	0.0144130
913.363	0.0143183
913.441	0.0142036
913.519	0.0143174
913.597	0.0142867
913.675	0.0142688
913.753	0.0142930
913.831	0.0142145
913.910	0.0142877
913.988	0.0143404
914.066	0.0141422
914.144	0.0140915
914.222	0.0141971
914.300	0.0143288
914.378	0.0142356
914.456	0.0142524
914.535	0.0142657
914.613	0.0143153
914.691	0.0143494
914.769	0.0143586
914.847	0.0143060
914.925	0.0142395
915.003	0.0142490
915.081	0.0143539
915.160	0.0144057
915.238	0.0142386
915.316	0.0141923
915.394	0.0144209
915.472	0.0142762
915.550	0.0142535
915.628	0.0142968
915.706	0.0142939
915.785	0.0142342
915.863	0.0141295
915.941	0.0142928
916.019	0.0142380
916.097	0.0142126
916.175	0.0140845
916.253	0.0140781
916.331	0.0142290
916.410	0.0142494
916.488	0.0142129
916.566	0.0143549
916.644	0.0144285
916.722	0.0143330
916.800	0.0141154
916.878	0.0141830
916.956	0.0142745
917.035	0.0142438
917.113	0.0144139
917.191	0.0142812
917.269	0.0142217
917.347	0.0141084
917.425	0.0142003
917.503	0.0142635
917.581	0.0141425
917.660	0.0141793
917.738	0.0141446
917.816	0.0142355
917.894	0.0143456
917.972	0.0141616
918.050	0.0142670
918.128	0.0143335
918.206	0.0141929
918.285	0.0141939
918.363	0.0142141
918.441	0.0144788
918.519	0.0145551
918.597	0.0143774
918.675	0.0144470
918.753	0.0144291
918.831	0.0142928
918.910	0.0143627
918.988	0.0144233
919.066	0.0144053
919.144	0.0142676
919.222	0.0144823
919.300	0.0145474
919.378	0.0145084
919.456	0.0144498
919.535	0.0144563
919.613	0.0145648
919.691	0.0145898
919.769	0.0145784
919.847	0.0144254
919.925	0.0145575
920.003	0.0145193
920.081	0.0144691
920.160	0.0144551
920.238	0.0141907
920.316	0.0143172
920.394	0.0144452
920.472	0.0143946
920.550	0.0143369
920.628	0.0142366
920.706	0.0142619
920.785	0.0142983
920.863	0.0142108
920.941	0.0142992
921.019	0.0143287
921.097	0.0143081
921.175	0.0142695
921.253	0.0142661
921.331	0.0142765
921.410	0.0144200
921.488	0.0143697
921.566	0.0143985
921.644	0.0144406
921.722	0.0143956
921.800	0.0144924
921.878	0.0144650
921.956	0.0144486
922.035	0.0144203
922.113	0.0144050
922.191	0.0144238
922.269	0.0145085
922.347	0.0143922
922.425	0.0144110
922.503	0.0142948
922.581	0.0142557
922.660	0.0142084
922.738	0.0143105
922.816	0.0143168
922.894	0.0141070
922.972	0.0141846
923.050	0.0141174
923.128	0.0140044
923.206	0.0140956
923.285	0.0141331
923.363	0.0140517
923.441	0.0140501
923.519	0.0140755
923.597	0.0140920
923.675	0.0141026
923.753	0.0140838
923.831	0.0140232
923.910	0.0138461
923.988	0.0138698
924.066	0.0138546
924.144	0.0139353
924.222	0.0139027
924.300	0.0138861
924.378	0.0139728
924.456	0.0139494
924.535	0.0139567
924.613	0.0139561
924.691	0.0140038
924.769	0.0139886
924.847	0.0139182
924.925	0.0139236
925.003	0.0139578
925.081	0.0140681
925.160	0.0139809
925.238	0.0138760
925.316	0.0139996
925.394	0.0140125
925.472	0.0140108
925.550	0.0140942
925.628	0.0140205
925.706	0.0138776
925.785	0.0139873
925.863	0.0140392
925.941	0.0140676
926.019	0.0139793
926.097	0.0140733
926.175	0.0140118
926.253	0.0141076
926.331	0.0140648
926.410	0.0140794
926.488	0.0142019
926.566	0.0141673
926.644	0.0143019
926.722	0.0141525
926.800	0.0142031
926.878	0.0143010
926.956	0.0143214
927.035	0.0143578
927.113	0.0144106
927.191	0.0143789
927.269	0.0142977
927.347	0.0141792
927.425	0.0143439
927.503	0.0143974
927.581	0.0142086
927.660	0.0142932
927.738	0.0142638
927.816	0.0142316
927.894	0.0142802
927.972	0.0143456
928.050	0.0142506
928.128	0.0142976
928.206	0.0143328
928.285	0.0142396
928.363	0.0142947
928.441	0.0142923
928.519	0.0142532
928.597	0.0143056
928.675	0.0144033
928.753	0.0143774
928.831	0.0143533
928.910	0.0142355
928.988	0.0143317
929.066	0.0144340
929.144	0.0144315
929.222	0.0142879
929.300	0.0144516
929.378	0.0143105
929.456	0.0142737
929.535	0.0142599
929.613	0.0142797
929.691	0.0143154
929.769	0.0142487
929.847	0.0141867
929.925	0.0142156
930.003	0.0141734
930.081	0.0141722
930.160	0.0141638
930.238	0.0141392
930.316	0.0143298
930.394	0.0143522
930.472	0.0141382
930.550	0.0142271
930.628	0.0141951
930.706	0.0142146
930.785	0.0142827
930.863	0.0143024
930.941	0.0142094
931.019	0.0141963
931.097	0.0141972
931.175	0.0140942
931.253	0.0142644
931.331	0.0142506
931.410	0.0141435
931.488	0.0142306
931.566	0.0142440
931.644	0.0142332
931.722	0.0141911
931.800	0.0143312
931.878	0.0143941
931.956	0.0141409
932.035	0.0140880
932.113	0.0141869
932.191	0.0142560
932.269	0.0141606
932.347	0.0142166
932.425	0.0141345
932.503	0.0141487
932.581	0.0142393
932.660	0.0142538
932.738	0.0140968
932.816	0.0142279
932.894	0.0142828
932.972	0.0142400
933.050	0.0142348
933.128	0.0142445
933.206	0.0143408
933.285	0.0143977
933.363	0.0143967
933.441	0.0144308
933.519	0.0143523
933.597	0.0143515
933.675	0.0144082
933.753	0.0145078
933.831	0.0143788
933.910	0.0145066
933.988	0.0143820
934.066	0.0145351
934.144	0.0144749
934.222	0.0143689
934.300	0.0143773
934.378	0.0143655
934.456	0.0143233
934.535	0.0144583
934.613	0.0142220
934.691	0.0144028
934.769	0.0143430
934.847	0.0142860
934.925	0.0142587
935.003	0.0143341
935.081	0.0144120
935.160	0.0143369
935.238	0.0143448
935.316	0.0143685
935.394	0.0143477
935.472	0.0142642
935.550	0.0143738
935.628	0.0145784
935.706	0.0144505
935.785	0.0143076
935.863	0.0144175
935.941	0.0143970
936.019	0.0145489
936.097	0.0144506
936.175	0.0144388
936.253	0.0143914
936.331	0.0143783
936.410	0.0143825
936.488	0.0144282
936.566	0.0144774
936.644	0.0143919
936.722	0.0143067
936.800	0.0143247
936.878	0.0143401
936.956	0.0144265
937.035	0.0143565
937.113	0.0141887
937.191	0.0142664
937.269	0.0142448
937.347	0.0142005
937.425	0.0140845
937.503	0.0142397
937.581	0.0141483
937.660	0.0141634
937.738	0.0143002
937.816	0.0141830
937.894	0.0140900
937.972	0.0141503
938.050	0.0141969
938.128	0.0141438
938.206	0.0142101
938.285	0.0141593
938.363	0.0142586
938.441	0.0143236
938.519	0.0142783
938.597	0.0142898
938.675	0.0142623
938.753	0.0142499
938.831	0.0143547
938.910	0.0143582
938.988	0.0143679
939.066	0.0142648
939.144	0.0142651
939.222	0.0141964
939.300	0.0143286
939.378	0.0143000
939.456	0.0141492
939.535	0.0141800
939.613	0.0142802
939.691	0.0143268
939.769	0.0142631
939.847	0.0142211
939.925	0.0141040
940.003	0.0141794
940.081	0.0142558
940.160	0.0143489
940.238	0.0143098
940.316	0.0142445
940.394	0.0140790
940.472	0.0143033
940.550	0.0144324
940.628	0.0141950
940.706	0.0142715
940.785	0.0142062
940.863	0.0143296
940.941	0.0143731
941.019	0.0143877
941.097	0.0144345
941.175	0.0143518
941.253	0.0143362
941.331	0.0143982
941.410	0.0143916
941.488	0.0143237
941.566	0.0143455
941.644	0.0142572
941.722	0.0142217
941.800	0.0141182
941.878	0.0143297
941.956	0.0140853
942.035	0.0140387
942.113	0.0142313
942.191	0.0142712
942.269	0.0141553
942.347	0.0140907
942.425	0.0141216
942.503	0.0142137
942.581	0.0143874
942.660	0.0142994
942.738	0.0142725
942.816	0.0142302
942.894	0.0143938
942.972	0.0143119
943.050	0.0143585
943.128	0.0144355
943.206	0.0144469
943.285	0.0145023
943.363	0.0143363
943.441	0.0146328
943.519	0.0143783
943.597	0.0144131
943.675	0.0145126
943.753	0.0144081
943.831	0.0144870
943.910	0.0143616
943.988	0.0143077
944.066	0.0142712
944.144	0.0142546
944.222	0.0142728
944.300	0.0143793
944.378	0.0142461
944.456	0.0142125
944.535	0.0140146
944.613	0.0142570
944.691	0.0141716
944.769	0.0141750
944.847	0.0141885
944.925	0.0141595
945.003	0.0141046
945.081	0.0142676
945.160	0.0141002
945.238	0.0140443
945.316	0.0141713
945.394	0.0141901
945.472	0.0142278
945.550	0.0142867
945.628	0.0141801
945.706	0.0141237
945.785	0.0142317
945.863	0.0140468
945.941	0.0142621
946.019	0.0141392
946.097	0.0142569
946.175	0.0141849
946.253	0.0142190
946.331	0.0141482
946.410	0.0140939
946.488	0.0141505
946.566	0.0142200
946.644	0.0142778
946.722	0.0141718
946.800	0.0141808
946.878	0.0141439
946.956	0.0141801
947.035	0.0141952
947.113	0.0142342
947.191	0.0142266
947.269	0.0142327
947.347	0.0143364
947.425	0.0143890
947.503	0.0141547
947.581	0.0143647
947.660	0.0143049
947.738	0.0143385
947.816	0.0144664
947.894	0.0144289
947.972	0.0144321
948.050	0.0143628
948.128	0.0143871
948.206	0.0143328
948.285	0.0142884
948.363	0.0143378
948.441	0.0142760
948.519	0.0142348
948.597	0.0142932
948.675	0.0141913
948.753	0.0140876
948.831	0.0141176
948.910	0.0141029
948.988	0.0141820
949.066	0.0140139
949.144	0.0141148
949.222	0.0141901
949.300	0.0142016
949.378	0.0141022
949.456	0.0142932
949.535	0.0141436
949.613	0.0141760
949.691	0.0142966
949.769	0.0144006
949.847	0.0142030
949.925	0.0143060
950.003	0.0142542
950.081	0.0142609
950.160	0.0141782
950.238	0.0141656
950.316	0.0141770
950.394	0.0142951
950.472	0.0142666
950.550	0.0141245
950.628	0.0140495
950.706	0.0141116
950.785	0.0141750
950.863	0.0141303
950.941	0.0141143
951.019	0.0141417
951.097	0.0139958
951.175	0.0141137
951.253	0.0140965
951.331	0.0141776
951.410	0.0142065
951.488	0.0140277
951.566	0.0141341
951.644	0.0141657
951.722	0.0141811
951.800	0.0141487
951.878	0.0142717
951.956	0.0143597
952.035	0.0141414
952.113	0.0140379
952.191	0.0141610
952.269	0.0142534
952.347	0.0141412
952.425	0.0141988
952.503	0.0142337
952.581	0.0143175
952.660	0.0143501
952.738	0.0141604
952.816	0.0143798
952.894	0.0142353
952.972	0.0141927
953.050	0.0143649
953.128	0.0144176
953.206	0.0144280
953.285	0.0143330
953.363	0.0144112
953.441	0.0144730
953.519	0.0144197
953.597	0.0143188
953.675	0.0143083
953.753	0.0144537
953.831	0.0143960
953.910	0.0144536
953.988	0.0143507
954.066	0.0145093
954.144	0.0144537
954.222	0.0144910
954.300	0.0144411
954.378	0.0144736
954.456	0.0143755
954.535	0.0143922
954.613	0.0144341
954.691	0.0144108
954.769	0.0144556
954.847	0.0143697
954.925	0.0144366
955.003	0.0143681
955.081	0.0144083
955.160	0.0142331
955.238	0.0142877
955.316	0.0143482
955.394	0.0144225
955.472	0.0141929
955.550	0.0141447
955.628	0.0139781
955.706	0.0142928
955.785	0.0141947
955.863	0.0142332
955.941	0.0140952
956.019	0.0140997
956.097	0.0142007
956.175	0.0140711
956.253	0.0141077
956.331	0.0142291
956.410	0.0141436
956.488	0.0140518
956.566	0.0141494
956.644	0.0141853
956.722	0.0142954
956.800	0.0141980
956.878	0.0141612
956.956	0.0141809
957.035	0.0142113
957.113	0.0142550
957.191	0.0142822
957.269	0.0142480
957.347	0.0142406
957.425	0.0142962
957.503	0.0144479
957.581	0.0141051
957.660	0.0142812
957.738	0.0143593
957.816	0.0144011
957.894	0.0143475
957.972	0.0143793
958.050	0.0143864
958.128	0.0143566
958.206	0.0143760
958.285	0.0143867
958.363	0.0145512
958.441	0.0143687
958.519	0.0144653
958.597	0.0143459
958.675	0.0143697
958.753	0.0144225
958.831	0.0143604
958.910	0.0142999
958.988	0.0144573
959.066	0.0144210
959.144	0.0144008
959.222	0.0143261
959.300	0.0144319
959.378	0.0144299
959.456	0.0142558
959.535	0.0143270
959.613	0.0144755
959.691	0.0143749
959.769	0.0143061
959.847	0.0144161
959.925	0.0143486
960.003	0.0143594
960.081	0.0144427
960.160	0.0144394
960.238	0.0143830
960.316	0.0143613
960.394	0.0142718
960.472	0.0141896
960.550	0.0142494
960.628	0.0142921
960.706	0.0141930
960.785	0.0143497
960.863	0.0141590
960.941	0.0141724
961.019	0.0143157
961.097	0.0142186
961.175	0.0141071
961.253	0.0143462
961.331	0.0141599
961.410	0.0141370
961.488	0.0140944
961.566	0.0141177
961.644	0.0141669
961.722	0.0142793
961.800	0.0141922
961.878	0.0141579
961.956	0.0140998
962.035	0.0140475
962.113	0.0142114
962.191	0.0142322
962.269	0.0140379
962.347	0.0141783
962.425	0.0141824
962.503	0.0141001
962.581	0.0141290
962.660	0.0142467
962.738	0.0142369
962.816	0.0141431
962.894	0.0142609
962.972	0.0143274
963.050	0.0142080
963.128	0.0143465
963.206	0.0142495
963.285	0.0140704
963.363	0.0142399
963.441	0.0143993
963.519	0.0143764
963.597	0.0143752
963.675	0.0143411
963.753	0.0143354
963.831	0.0143498
963.910	0.0144714
963.988	0.0143819
964.066	0.0144107
964.144	0.0144913
964.222	0.0142839
964.300	0.0144929
964.378	0.0145509
964.456	0.0144109
964.535	0.0143391
964.613	0.0144186
964.691	0.0144569
964.769	0.0144910
964.847	0.0144323
964.925	0.0143939
965.003	0.0145341
965.081	0.0144379
965.160	0.0144906
965.238	0.0144286
965.316	0.0143880
965.394	0.0143587
965.472	0.0143723
965.550	0.0143639
965.628	0.0144048
965.706	0.0142921
965.785	0.0142717
965.863	0.0143034
965.941	0.0142634
966.019	0.0143803
966.097	0.0143254
966.175	0.0143372
966.253	0.0143093
966.331	0.0142505
966.410	0.0143119
966.488	0.0142664
966.566	0.0142894
966.644	0.0143519
966.722	0.0142123
966.800	0.0143093
966.878	0.0143109
966.956	0.0142762
967.035	0.0140384
967.113	0.0140320
967.191	0.0140666
967.269	0.0140779
967.347	0.0141084
967.425	0.0141413
967.503	0.0140456
967.581	0.0141263
967.660	0.0141101
967.738	0.0140257
967.816	0.0139481
967.894	0.0139227
967.972	0.0141604
968.050	0.0141007
968.128	0.0140435
968.206	0.0140632
968.285	0.0141372
968.363	0.0140075
968.441	0.0141908
968.519	0.0142524
968.597	0.0141929
968.675	0.0142711
968.753	0.0142948
968.831	0.0142223
968.910	0.0142834
968.988	0.0143856
969.066	0.0144902
969.144	0.0143284
969.222	0.0143445
969.300	0.0143475
969.378	0.0143223
969.456	0.0144555
969.535	0.0143437
969.613	0.0144514
969.691	0.0144384
969.769	0.0144912
969.847	0.0144366
969.925	0.0144582
970.003	0.0145776
970.081	0.0145082
970.160	0.0143912
970.238	0.0144397
970.316	0.0145155
970.394	0.0144241
970.472	0.0143475
970.550	0.0143777
970.628	0.0143652
970.706	0.0144443
970.785	0.0143773
970.863	0.0144704
970.941	0.0143652
971.019	0.0142934
971.097	0.0144307
971.175	0.0143594
971.253	0.0143388
971.331	0.0142919
971.410	0.0143799
971.488	0.0144084
971.566	0.0144248
971.644	0.0144188
971.722	0.0142446
971.800	0.0143472
971.878	0.0143633
971.956	0.0144314
972.035	0.0144183
972.113	0.0143102
972.191	0.0142358
972.269	0.0143373
972.347	0.0143528
972.425	0.0143304
972.503	0.0142006
972.581	0.0143253
972.660	0.0142551
972.738	0.0140990
972.816	0.0142468
972.894	0.0142123
972.972	0.0141312
973.050	0.0141358
973.128	0.0141846
973.206	0.0139989
973.285	0.0141129
973.363	0.0141306
973.441	0.0139076
973.519	0.0139125
973.597	0.0140244
973.675	0.0140205
973.753	0.0140427
973.831	0.0141233
973.910	0.0140158
973.988	0.0139584
974.066	0.0141118
974.144	0.0139599
974.222	0.0139573
974.300	0.0139198
974.378	0.0141147
974.456	0.0138805
974.535	0.0139447
974.613	0.0140772
974.691	0.0141042
974.769	0.0139667
974.847	0.0140552
974.925	0.0141759
975.003	0.0141414
975.081	0.0142411
975.160	0.0143107
975.238	0.0142279
975.316	0.0142937
975.394	0.0143865
975.472	0.0143704
975.550	0.0143732
975.628	0.0144079
975.706	0.0144796
975.785	0.0143447
975.863	0.0145016
975.941	0.0146011
976.019	0.0144975
976.097	0.0145028
976.175	0.0144350
976.253	0.0145106
976.331	0.0145461
976.410	0.0145489
976.488	0.0145436
976.566	0.0143955
976.644	0.0144128
976.722	0.0144989
976.800	0.0145630
976.878	0.0145124
976.956	0.0144686
977.035	0.0145174
977.113	0.0146144
977.191	0.0145592
977.269	0.0145763
977.347	0.0145015
977.425	0.0145114
977.503	0.0143468
977.581	0.0145450
977.660	0.0145516
977.738	0.0144630
977.816	0.0144508
977.894	0.0144136
977.972	0.0145380
978.050	0.0144872
978.128	0.0143540
978.206	0.0145154
978.285	0.0143063
978.363	0.0143090
978.441	0.0143435
978.519	0.0142739
978.597	0.0141847
978.675	0.0141783
978.753	0.0141042
978.831	0.0141923
978.910	0.0141006
978.988	0.0140250
979.066	0.0139852
979.144	0.0141365
979.222	0.0138833
979.300	0.0138988
979.378	0.0141222
979.456	0.0140951
979.535	0.0140118
979.613	0.0140537
979.691	0.0141434
979.769	0.0140588
979.847	0.0141914
979.925	0.0141876
