05/03/2022	20:34:57	Ver.	4.1	UNKNOWN
Optical Delay	660.003261	Delta X		0.078125	Sweeps	1	Scan Rate	0/0
Coordinates	Axis 1	NaN	Axis 2	NaN	Axis 3	NaN	Axis 4	NaN	Axis 5	NaN	Axis 6	0.000000
TX Power	0.000000	RX Power	0.000000

660.003	0.0143828
660.081	0.0142475
660.160	0.0144031
660.238	0.0144183
660.316	0.0142763
660.394	0.0142212
660.472	0.0143208
660.550	0.0143057
660.628	0.0143961
660.706	0.0142865
660.785	0.0143248
660.863	0.0143297
660.941	0.0143740
661.019	0.0143868
661.097	0.0143447
661.175	0.0143403
661.253	0.0142476
661.331	0.0142986
661.410	0.0143043
661.488	0.0142868
661.566	0.0142666
661.644	0.0142654
661.722	0.0142848
661.800	0.0144899
661.878	0.0144839
661.956	0.0142525
662.035	0.0142883
662.113	0.0142428
662.191	0.0143043
662.269	0.0143345
662.347	0.0143891
662.425	0.0143056
662.503	0.0143330
662.581	0.0143272
662.660	0.0142065
662.738	0.0142233
662.816	0.0143424
662.894	0.0142902
662.972	0.0142062
663.050	0.0142719
663.128	0.0142396
663.206	0.0142477
663.285	0.0142666
663.363	0.0141625
663.441	0.0142793
663.519	0.0141769
663.597	0.0142994
663.675	0.0143255
663.753	0.0143143
663.831	0.0142739
663.910	0.0142928
663.988	0.0143626
664.066	0.0143538
664.144	0.0142416
664.222	0.0144017
664.300	0.0141948
664.378	0.0142437
664.456	0.0142309
664.535	0.0142809
664.613	0.0141944
664.691	0.0141429
664.769	0.0143212
664.847	0.0144616
664.925	0.0143525
665.003	0.0143288
665.081	0.0142770
665.160	0.0141705
665.238	0.0140895
665.316	0.0143516
665.394	0.0142503
665.472	0.0142888
665.550	0.0142646
665.628	0.0141428
665.706	0.0143356
665.785	0.0142864
665.863	0.0141358
665.941	0.0142051
666.019	0.0144476
666.097	0.0141248
666.175	0.0142341
666.253	0.0142831
666.331	0.0141899
666.410	0.0141918
666.488	0.0143244
666.566	0.0141788
666.644	0.0141187
666.722	0.0142282
666.800	0.0143760
666.878	0.0142468
666.956	0.0143148
667.035	0.0143041
667.113	0.0143634
667.191	0.0142267
667.269	0.0143491
667.347	0.0143068
667.425	0.0141970
667.503	0.0142742
667.581	0.0141422
667.660	0.0143243
667.738	0.0142484
667.816	0.0142800
667.894	0.0141871
667.972	0.0142242
668.050	0.0142260
668.128	0.0142442
668.206	0.0142857
668.285	0.0142680
668.363	0.0142516
668.441	0.0142390
668.519	0.0143107
668.597	0.0142265
668.675	0.0142183
668.753	0.0142163
668.831	0.0143256
668.910	0.0142664
668.988	0.0143024
669.066	0.0144526
669.144	0.0142284
669.222	0.0143694
669.300	0.0142750
669.378	0.0143385
669.456	0.0143520
669.535	0.0142529
669.613	0.0143781
669.691	0.0144128
669.769	0.0144747
669.847	0.0142959
669.925	0.0143955
670.003	0.0143639
670.081	0.0143207
670.160	0.0143765
670.238	0.0143459
670.316	0.0143767
670.394	0.0142797
670.472	0.0142037
670.550	0.0143739
670.628	0.0144154
670.706	0.0143184
670.785	0.0143706
670.863	0.0144400
670.941	0.0144003
671.019	0.0144386
671.097	0.0143658
671.175	0.0144071
671.253	0.0145156
671.331	0.0144788
671.410	0.0143796
671.488	0.0142429
671.566	0.0142908
671.644	0.0145107
671.722	0.0144640
671.800	0.0144054
671.878	0.0145125
671.956	0.0145184
672.035	0.0143140
672.113	0.0143163
672.191	0.0144400
672.269	0.0144370
672.347	0.0144270
672.425	0.0142396
672.503	0.0142738
672.581	0.0141931
672.660	0.0144041
672.738	0.0144688
672.816	0.0142879
672.894	0.0143429
672.972	0.0144028
673.050	0.0144914
673.128	0.0143041
673.206	0.0143159
673.285	0.0142252
673.363	0.0142275
673.441	0.0142390
673.519	0.0143128
673.597	0.0143582
673.675	0.0142225
673.753	0.0142871
673.831	0.0143563
673.910	0.0144202
673.988	0.0143337
674.066	0.0142478
674.144	0.0144398
674.222	0.0144483
674.300	0.0143545
674.378	0.0143403
674.456	0.0142809
674.535	0.0143375
674.613	0.0144165
674.691	0.0143301
674.769	0.0145064
674.847	0.0143497
674.925	0.0144059
675.003	0.0142876
675.081	0.0143533
675.160	0.0142751
675.238	0.0141683
675.316	0.0142313
675.394	0.0143473
675.472	0.0143339
675.550	0.0142938
675.628	0.0143220
675.706	0.0142860
675.785	0.0143204
675.863	0.0143853
675.941	0.0143225
676.019	0.0145248
676.097	0.0144465
676.175	0.0143996
676.253	0.0144379
676.331	0.0143658
676.410	0.0143974
676.488	0.0143274
676.566	0.0143282
676.644	0.0143509
676.722	0.0145038
676.800	0.0143542
676.878	0.0144451
676.956	0.0144471
677.035	0.0142920
677.113	0.0143076
677.191	0.0144606
677.269	0.0144349
677.347	0.0143285
677.425	0.0144423
677.503	0.0143699
677.581	0.0144962
677.660	0.0145566
677.738	0.0144578
677.816	0.0143977
677.894	0.0143931
677.972	0.0143958
678.050	0.0145249
678.128	0.0144546
678.206	0.0144794
678.285	0.0142953
678.363	0.0145628
678.441	0.0144398
678.519	0.0144819
678.597	0.0145508
678.675	0.0144638
678.753	0.0143944
678.831	0.0143989
678.910	0.0145184
678.988	0.0143922
679.066	0.0142837
679.144	0.0145684
679.222	0.0143662
679.300	0.0144949
679.378	0.0143610
679.456	0.0144022
679.535	0.0145786
679.613	0.0143289
679.691	0.0144094
679.769	0.0144572
679.847	0.0144827
679.925	0.0143822
680.003	0.0143600
680.081	0.0144522
680.160	0.0144368
680.238	0.0144205
680.316	0.0143647
680.394	0.0143998
680.472	0.0144308
680.550	0.0143958
680.628	0.0143562
680.706	0.0143356
680.785	0.0143712
680.863	0.0144238
680.941	0.0143517
681.019	0.0145386
681.097	0.0143247
681.175	0.0144485
681.253	0.0146538
681.331	0.0145498
681.410	0.0143782
681.488	0.0145095
681.566	0.0145249
681.644	0.0143363
681.722	0.0144485
681.800	0.0143516
681.878	0.0143899
681.956	0.0143777
682.035	0.0143711
682.113	0.0144057
682.191	0.0142558
682.269	0.0142605
682.347	0.0143345
682.425	0.0142712
682.503	0.0142321
682.581	0.0143682
682.660	0.0142559
682.738	0.0143265
682.816	0.0143317
682.894	0.0142953
682.972	0.0145033
683.050	0.0146505
683.128	0.0144498
683.206	0.0145269
683.285	0.0143999
683.363	0.0144219
683.441	0.0143887
683.519	0.0145287
683.597	0.0144469
683.675	0.0143494
683.753	0.0145804
683.831	0.0143340
683.910	0.0143430
683.988	0.0142938
684.066	0.0142760
684.144	0.0143461
684.222	0.0142055
684.300	0.0142846
684.378	0.0142598
684.456	0.0141738
684.535	0.0141785
684.613	0.0141769
684.691	0.0142189
684.769	0.0142583
684.847	0.0141830
684.925	0.0142390
685.003	0.0142986
685.081	0.0143361
685.160	0.0142934
685.238	0.0143773
685.316	0.0143594
685.394	0.0143141
685.472	0.0142570
685.550	0.0144400
685.628	0.0145128
685.706	0.0144099
685.785	0.0144364
685.863	0.0144805
685.941	0.0146512
686.019	0.0145761
686.097	0.0144338
686.175	0.0146446
686.253	0.0145291
686.331	0.0145090
686.410	0.0144609
686.488	0.0145124
686.566	0.0145748
686.644	0.0145155
686.722	0.0145361
686.800	0.0143739
686.878	0.0143945
686.956	0.0143476
687.035	0.0144181
687.113	0.0142139
687.191	0.0142404
687.269	0.0141862
687.347	0.0141512
687.425	0.0140823
687.503	0.0141859
687.581	0.0140948
687.660	0.0140409
687.738	0.0140439
687.816	0.0141402
687.894	0.0141973
687.972	0.0143211
688.050	0.0143072
688.128	0.0141664
688.206	0.0141237
688.285	0.0142412
688.363	0.0141430
688.441	0.0142294
688.519	0.0142580
688.597	0.0142854
688.675	0.0141657
688.753	0.0141868
688.831	0.0142581
688.910	0.0142855
688.988	0.0143179
689.066	0.0142506
689.144	0.0143030
689.222	0.0142428
689.300	0.0144049
689.378	0.0144715
689.456	0.0142203
689.535	0.0143053
689.613	0.0143792
689.691	0.0144182
689.769	0.0144914
689.847	0.0144726
689.925	0.0145770
690.003	0.0145590
690.081	0.0145765
690.160	0.0145197
690.238	0.0145213
690.316	0.0145383
690.394	0.0146314
690.472	0.0146516
690.550	0.0145804
690.628	0.0144759
690.706	0.0143877
690.785	0.0145084
690.863	0.0144958
690.941	0.0143501
691.019	0.0142704
691.097	0.0141192
691.175	0.0142386
691.253	0.0141228
691.331	0.0140569
691.410	0.0139726
691.488	0.0140823
691.566	0.0140317
691.644	0.0139666
691.722	0.0140884
691.800	0.0140727
691.878	0.0141310
691.956	0.0140375
692.035	0.0139552
692.113	0.0141445
692.191	0.0140226
692.269	0.0141048
692.347	0.0142160
692.425	0.0141310
692.503	0.0142397
692.581	0.0143298
692.660	0.0143295
692.738	0.0143068
692.816	0.0143032
692.894	0.0144197
692.972	0.0145560
693.050	0.0144530
693.128	0.0145148
693.206	0.0144853
693.285	0.0145377
693.363	0.0144760
693.441	0.0144166
693.519	0.0143932
693.597	0.0144811
693.675	0.0144086
693.753	0.0144549
693.831	0.0144574
693.910	0.0144775
693.988	0.0143939
694.066	0.0143983
694.144	0.0143445
694.222	0.0144954
694.300	0.0145183
694.378	0.0142490
694.456	0.0143826
694.535	0.0143932
694.613	0.0144622
694.691	0.0144047
694.769	0.0144946
694.847	0.0145124
694.925	0.0144534
695.003	0.0145731
695.081	0.0145753
695.160	0.0145570
695.238	0.0146281
695.316	0.0145757
695.394	0.0146092
695.472	0.0145840
695.550	0.0145041
695.628	0.0144965
695.706	0.0144142
695.785	0.0143291
695.863	0.0143291
695.941	0.0142532
696.019	0.0142038
696.097	0.0141536
696.175	0.0140051
696.253	0.0141690
696.331	0.0140594
696.410	0.0140105
696.488	0.0139266
696.566	0.0137061
696.644	0.0140579
696.722	0.0140234
696.800	0.0140384
696.878	0.0141135
696.956	0.0140446
697.035	0.0141679
697.113	0.0142520
697.191	0.0142883
697.269	0.0143568
697.347	0.0145017
697.425	0.0144033
697.503	0.0145351
697.581	0.0145144
697.660	0.0147957
697.738	0.0148179
697.816	0.0148109
697.894	0.0146948
697.972	0.0147428
698.050	0.0146059
698.128	0.0145493
698.206	0.0145483
698.285	0.0145125
698.363	0.0145221
698.441	0.0143573
698.519	0.0141317
698.597	0.0141658
698.675	0.0140591
698.753	0.0140867
698.831	0.0141108
698.910	0.0140545
698.988	0.0140311
699.066	0.0142097
699.144	0.0143446
699.222	0.0143108
699.300	0.0143458
699.378	0.0145193
699.456	0.0144896
699.535	0.0144397
699.613	0.0145204
699.691	0.0145891
699.769	0.0146424
699.847	0.0148318
699.925	0.0146968
700.003	0.0147639
700.081	0.0146421
700.160	0.0147605
700.238	0.0147234
700.316	0.0146494
700.394	0.0145318
700.472	0.0145602
700.550	0.0145028
700.628	0.0145353
700.706	0.0145161
700.785	0.0143816
700.863	0.0144624
700.941	0.0143749
701.019	0.0143388
701.097	0.0143687
701.175	0.0143778
701.253	0.0144006
701.331	0.0143661
701.410	0.0142921
701.488	0.0143008
701.566	0.0144592
701.644	0.0143628
701.722	0.0142745
701.800	0.0142540
701.878	0.0141887
701.956	0.0142477
702.035	0.0141259
702.113	0.0140788
702.191	0.0140469
702.269	0.0139595
702.347	0.0140763
702.425	0.0140016
702.503	0.0139811
702.581	0.0139661
702.660	0.0140987
702.738	0.0141993
702.816	0.0141033
702.894	0.0142522
702.972	0.0142232
703.050	0.0143010
703.128	0.0143228
703.206	0.0143276
703.285	0.0144856
703.363	0.0145949
703.441	0.0146307
703.519	0.0145264
703.597	0.0144941
703.675	0.0144811
703.753	0.0146133
703.831	0.0146287
703.910	0.0144444
703.988	0.0143335
704.066	0.0144235
704.144	0.0142838
704.222	0.0143706
704.300	0.0142416
704.378	0.0141988
704.456	0.0140907
704.535	0.0143063
704.613	0.0142133
704.691	0.0142918
704.769	0.0144329
704.847	0.0143922
704.925	0.0144546
705.003	0.0144563
705.081	0.0144204
705.160	0.0145181
705.238	0.0146131
705.316	0.0145779
705.394	0.0146704
705.472	0.0145317
705.550	0.0145579
705.628	0.0148573
705.706	0.0145738
705.785	0.0145975
705.863	0.0146246
705.941	0.0144484
706.019	0.0143809
706.097	0.0143565
706.175	0.0142667
706.253	0.0143312
706.331	0.0142594
706.410	0.0142299
706.488	0.0142048
706.566	0.0143420
706.644	0.0143427
706.722	0.0145005
706.800	0.0146044
706.878	0.0146320
706.956	0.0146444
707.035	0.0145717
707.113	0.0146954
707.191	0.0147472
707.269	0.0147088
707.347	0.0145238
707.425	0.0145777
707.503	0.0145243
707.581	0.0143484
707.660	0.0142204
707.738	0.0141035
707.816	0.0140649
707.894	0.0140915
707.972	0.0139246
708.050	0.0139104
708.128	0.0138536
708.206	0.0139528
708.285	0.0139448
708.363	0.0138465
708.441	0.0139942
708.519	0.0140607
708.597	0.0141156
708.675	0.0141909
708.753	0.0142015
708.831	0.0142058
708.910	0.0142372
708.988	0.0143412
709.066	0.0143786
709.144	0.0145081
709.222	0.0146196
709.300	0.0145335
709.378	0.0144506
709.456	0.0144812
709.535	0.0144781
709.613	0.0146198
709.691	0.0145876
709.769	0.0145245
709.847	0.0145001
709.925	0.0143954
710.003	0.0145249
710.081	0.0145637
710.160	0.0145281
710.238	0.0144134
710.316	0.0143810
710.394	0.0141913
710.472	0.0141378
710.550	0.0143587
710.628	0.0142329
710.706	0.0141869
710.785	0.0143267
710.863	0.0142468
710.941	0.0141486
711.019	0.0144411
711.097	0.0146002
711.175	0.0146149
711.253	0.0146923
711.331	0.0146600
711.410	0.0147678
711.488	0.0148756
711.566	0.0150219
711.644	0.0150407
711.722	0.0148631
711.800	0.0148981
711.878	0.0149013
711.956	0.0147001
712.035	0.0145190
712.113	0.0145285
712.191	0.0143892
712.269	0.0143358
712.347	0.0141740
712.425	0.0143196
712.503	0.0142258
712.581	0.0141347
712.660	0.0142690
712.738	0.0143391
712.816	0.0143394
712.894	0.0145605
712.972	0.0145528
713.050	0.0145515
713.128	0.0148328
713.206	0.0148809
713.285	0.0148662
713.363	0.0146986
713.441	0.0145783
713.519	0.0145660
713.597	0.0143754
713.675	0.0143556
713.753	0.0142956
713.831	0.0142847
713.910	0.0140150
713.988	0.0138931
714.066	0.0139751
714.144	0.0138359
714.222	0.0137743
714.300	0.0138837
714.378	0.0137312
714.456	0.0138539
714.535	0.0138987
714.613	0.0139210
714.691	0.0139989
714.769	0.0141484
714.847	0.0142026
714.925	0.0140157
715.003	0.0141834
715.081	0.0141624
715.160	0.0143501
715.238	0.0141505
715.316	0.0143017
715.394	0.0143494
715.472	0.0141776
715.550	0.0144302
715.628	0.0145393
715.706	0.0144830
715.785	0.0145328
715.863	0.0145052
715.941	0.0144978
716.019	0.0146758
716.097	0.0145740
716.175	0.0145102
716.253	0.0144755
716.331	0.0143981
716.410	0.0144215
716.488	0.0144036
716.566	0.0143618
716.644	0.0143916
716.722	0.0143519
716.800	0.0144360
716.878	0.0144802
716.956	0.0144284
717.035	0.0143726
717.113	0.0146075
717.191	0.0145447
717.269	0.0146418
717.347	0.0145463
717.425	0.0146643
717.503	0.0147473
717.581	0.0146442
717.660	0.0147556
717.738	0.0147417
717.816	0.0148157
717.894	0.0147198
717.972	0.0146432
718.050	0.0146540
718.128	0.0147137
718.206	0.0145370
718.285	0.0144415
718.363	0.0144936
718.441	0.0143587
718.519	0.0141268
718.597	0.0141459
718.675	0.0142668
718.753	0.0143073
718.831	0.0142701
718.910	0.0141405
718.988	0.0143593
719.066	0.0142130
719.144	0.0143612
719.222	0.0143510
719.300	0.0145099
719.378	0.0145004
719.456	0.0145229
719.535	0.0145126
719.613	0.0143907
719.691	0.0142838
719.769	0.0143684
719.847	0.0142726
719.925	0.0141054
720.003	0.0141090
720.081	0.0139898
720.160	0.0138444
720.238	0.0137824
720.316	0.0136941
720.394	0.0136225
720.472	0.0136242
720.550	0.0134904
720.628	0.0136304
720.706	0.0136848
720.785	0.0137482
720.863	0.0136578
720.941	0.0136844
721.019	0.0138412
721.097	0.0139794
721.175	0.0140598
721.253	0.0139590
721.331	0.0143008
721.410	0.0143745
721.488	0.0142963
721.566	0.0144167
721.644	0.0145344
721.722	0.0144119
721.800	0.0143919
721.878	0.0145530
721.956	0.0145289
722.035	0.0144765
722.113	0.0145787
722.191	0.0144758
722.269	0.0144666
722.347	0.0144305
722.425	0.0143848
722.503	0.0143749
722.581	0.0143391
722.660	0.0145714
722.738	0.0145448
722.816	0.0145042
722.894	0.0146082
722.972	0.0145711
723.050	0.0146844
723.128	0.0147404
723.206	0.0146856
723.285	0.0147603
723.363	0.0148734
723.441	0.0149286
723.519	0.0149400
723.597	0.0150041
723.675	0.0149738
723.753	0.0148669
723.831	0.0147704
723.910	0.0147845
723.988	0.0146741
724.066	0.0147986
724.144	0.0146666
724.222	0.0146996
724.300	0.0145946
724.378	0.0145650
724.456	0.0144069
724.535	0.0142835
724.613	0.0143356
724.691	0.0143523
724.769	0.0143909
724.847	0.0142519
724.925	0.0142860
725.003	0.0143237
725.081	0.0142940
725.160	0.0142291
725.238	0.0143453
725.316	0.0141930
725.394	0.0141811
725.472	0.0143701
725.550	0.0141613
725.628	0.0142225
725.706	0.0142516
725.785	0.0141701
725.863	0.0141450
725.941	0.0141875
726.019	0.0141875
726.097	0.0142181
726.175	0.0140447
726.253	0.0140733
726.331	0.0140291
726.410	0.0139177
726.488	0.0138124
726.566	0.0138084
726.644	0.0138295
726.722	0.0139535
726.800	0.0138908
726.878	0.0137463
726.956	0.0136535
727.035	0.0138014
727.113	0.0136683
727.191	0.0137296
727.269	0.0137241
727.347	0.0138757
727.425	0.0139995
727.503	0.0139227
727.581	0.0140316
727.660	0.0141029
727.738	0.0141845
727.816	0.0142691
727.894	0.0143599
727.972	0.0143179
728.050	0.0142280
728.128	0.0143373
728.206	0.0144096
728.285	0.0144809
728.363	0.0143492
728.441	0.0143361
728.519	0.0143292
728.597	0.0143342
728.675	0.0142907
728.753	0.0142372
728.831	0.0143119
728.910	0.0143285
728.988	0.0143127
729.066	0.0143855
729.144	0.0146021
729.222	0.0146698
729.300	0.0146350
729.378	0.0147604
729.456	0.0146950
729.535	0.0149753
729.613	0.0149105
729.691	0.0149578
729.769	0.0149643
729.847	0.0151458
729.925	0.0150401
730.003	0.0150621
730.081	0.0149900
730.160	0.0149161
730.238	0.0147938
730.316	0.0146786
730.394	0.0146874
730.472	0.0147263
730.550	0.0146207
730.628	0.0145300
730.706	0.0145385
730.785	0.0146790
730.863	0.0146219
730.941	0.0144759
731.019	0.0144577
731.097	0.0144888
731.175	0.0143948
731.253	0.0145524
731.331	0.0143810
731.410	0.0144772
731.488	0.0145396
731.566	0.0145757
731.644	0.0144559
731.722	0.0144539
731.800	0.0143360
731.878	0.0142300
731.956	0.0144061
732.035	0.0143375
732.113	0.0143321
732.191	0.0142305
732.269	0.0143203
732.347	0.0143124
732.425	0.0142389
732.503	0.0140606
732.581	0.0140019
732.660	0.0140501
732.738	0.0139849
732.816	0.0141074
732.894	0.0141534
732.972	0.0141601
733.050	0.0139597
733.128	0.0140263
733.206	0.0139574
733.285	0.0141454
733.363	0.0140841
733.441	0.0139960
733.519	0.0139589
733.597	0.0141080
733.675	0.0140701
733.753	0.0141479
733.831	0.0141586
733.910	0.0139730
733.988	0.0140815
734.066	0.0142509
734.144	0.0142696
734.222	0.0143150
734.300	0.0141763
734.378	0.0142649
734.456	0.0144424
734.535	0.0144197
734.613	0.0144272
734.691	0.0144041
734.769	0.0145260
734.847	0.0144209
734.925	0.0144518
735.003	0.0145509
735.081	0.0145200
735.160	0.0144830
735.238	0.0145470
735.316	0.0145096
735.394	0.0147178
735.472	0.0145559
735.550	0.0146686
735.628	0.0146518
735.706	0.0148190
735.785	0.0147626
735.863	0.0147800
735.941	0.0148445
736.019	0.0149650
736.097	0.0149168
736.175	0.0148984
736.253	0.0148853
736.331	0.0149544
736.410	0.0149952
736.488	0.0149416
736.566	0.0148051
736.644	0.0149481
736.722	0.0148831
736.800	0.0148369
736.878	0.0147494
736.956	0.0144676
737.035	0.0145451
737.113	0.0144984
737.191	0.0144579
737.269	0.0144263
737.347	0.0143773
737.425	0.0144576
737.503	0.0144310
737.581	0.0144621
737.660	0.0144741
737.738	0.0143681
737.816	0.0143052
737.894	0.0142920
737.972	0.0143329
738.050	0.0143108
738.128	0.0143281
738.206	0.0141881
738.285	0.0141019
738.363	0.0141871
738.441	0.0140949
738.519	0.0138652
738.597	0.0137384
738.675	0.0138970
738.753	0.0139389
738.831	0.0137663
738.910	0.0138473
738.988	0.0137354
739.066	0.0136684
739.144	0.0137970
739.222	0.0140231
739.300	0.0139547
739.378	0.0139044
739.456	0.0139047
739.535	0.0138895
739.613	0.0139656
739.691	0.0140395
739.769	0.0140487
739.847	0.0139790
739.925	0.0141243
740.003	0.0141888
740.081	0.0139925
740.160	0.0140091
740.238	0.0139118
740.316	0.0140729
740.394	0.0142120
740.472	0.0141209
740.550	0.0141960
740.628	0.0141264
740.706	0.0142652
740.785	0.0143372
740.863	0.0143438
740.941	0.0143818
741.019	0.0142026
741.097	0.0143085
741.175	0.0143722
741.253	0.0144688
741.331	0.0143723
741.410	0.0144167
741.488	0.0144019
741.566	0.0146127
741.644	0.0145782
741.722	0.0145717
741.800	0.0147547
741.878	0.0145953
741.956	0.0147198
742.035	0.0146352
742.113	0.0147294
742.191	0.0149529
742.269	0.0149158
742.347	0.0149100
742.425	0.0148030
742.503	0.0149358
742.581	0.0149870
742.660	0.0147626
742.738	0.0150003
742.816	0.0149547
742.894	0.0148144
742.972	0.0149487
743.050	0.0148388
743.128	0.0147219
743.206	0.0147951
743.285	0.0147089
743.363	0.0147085
743.441	0.0145129
743.519	0.0144857
743.597	0.0145924
743.675	0.0146819
743.753	0.0146532
743.831	0.0146750
743.910	0.0145738
743.988	0.0146555
744.066	0.0146735
744.144	0.0145934
744.222	0.0146481
744.300	0.0145178
744.378	0.0145237
744.456	0.0144219
744.535	0.0142035
744.613	0.0143272
744.691	0.0142063
744.769	0.0141858
744.847	0.0140350
744.925	0.0141096
745.003	0.0138969
745.081	0.0140194
745.160	0.0139144
745.238	0.0137452
745.316	0.0135163
745.394	0.0137576
745.472	0.0137187
745.550	0.0136658
745.628	0.0138169
745.706	0.0136838
745.785	0.0136929
745.863	0.0138213
745.941	0.0138354
746.019	0.0136785
746.097	0.0139121
746.175	0.0139227
746.253	0.0138673
746.331	0.0138145
746.410	0.0138738
746.488	0.0138977
746.566	0.0139304
746.644	0.0139915
746.722	0.0140487
746.800	0.0141092
746.878	0.0141891
746.956	0.0141797
747.035	0.0141747
747.113	0.0143096
747.191	0.0144049
747.269	0.0144153
747.347	0.0142767
747.425	0.0145483
747.503	0.0145191
747.581	0.0143980
747.660	0.0142826
747.738	0.0144203
747.816	0.0143395
747.894	0.0143777
747.972	0.0144518
748.050	0.0144589
748.128	0.0144205
748.206	0.0146128
748.285	0.0145558
748.363	0.0146343
748.441	0.0147250
748.519	0.0149386
748.597	0.0147752
748.675	0.0148202
748.753	0.0149006
748.831	0.0148229
748.910	0.0149725
748.988	0.0148226
749.066	0.0146743
749.144	0.0147482
749.222	0.0147387
749.300	0.0147252
749.378	0.0145442
749.456	0.0146149
749.535	0.0145752
749.613	0.0145087
749.691	0.0146017
749.769	0.0144787
749.847	0.0144253
749.925	0.0143581
750.003	0.0145039
750.081	0.0144302
750.160	0.0144707
750.238	0.0144891
750.316	0.0144924
750.394	0.0145097
750.472	0.0144262
750.550	0.0144486
750.628	0.0143903
750.706	0.0143642
750.785	0.0143982
750.863	0.0143279
750.941	0.0141570
751.019	0.0141417
751.097	0.0142658
751.175	0.0142120
751.253	0.0141193
751.331	0.0140717
751.410	0.0140903
751.488	0.0139758
751.566	0.0140120
751.644	0.0138898
751.722	0.0139561
751.800	0.0137691
751.878	0.0139249
751.956	0.0137919
752.035	0.0138429
752.113	0.0138150
752.191	0.0137361
752.269	0.0136861
752.347	0.0137138
752.425	0.0138534
752.503	0.0137087
752.581	0.0137668
752.660	0.0137465
752.738	0.0137605
752.816	0.0138765
752.894	0.0140075
752.972	0.0139367
753.050	0.0140322
753.128	0.0141501
753.206	0.0141492
753.285	0.0142654
753.363	0.0143634
753.441	0.0143555
753.519	0.0145058
753.597	0.0145177
753.675	0.0145112
753.753	0.0143721
753.831	0.0145542
753.910	0.0145789
753.988	0.0145417
754.066	0.0144009
754.144	0.0145871
754.222	0.0146947
754.300	0.0146018
754.378	0.0146143
754.456	0.0147662
754.535	0.0148031
754.613	0.0147180
754.691	0.0147733
754.769	0.0149873
754.847	0.0149975
754.925	0.0149393
755.003	0.0150101
755.081	0.0150389
755.160	0.0149967
755.238	0.0152129
755.316	0.0149963
755.394	0.0149554
755.472	0.0148349
755.550	0.0148901
755.628	0.0147562
755.706	0.0148609
755.785	0.0145653
755.863	0.0145152
755.941	0.0146568
756.019	0.0145063
756.097	0.0144602
756.175	0.0145345
756.253	0.0143060
756.331	0.0143938
756.410	0.0144210
756.488	0.0143157
756.566	0.0142531
756.644	0.0142797
756.722	0.0142890
756.800	0.0142195
756.878	0.0141769
756.956	0.0142107
757.035	0.0142500
757.113	0.0142437
757.191	0.0141781
757.269	0.0141994
757.347	0.0141531
757.425	0.0143413
757.503	0.0142316
757.581	0.0138824
757.660	0.0141960
757.738	0.0139174
757.816	0.0140718
757.894	0.0141802
757.972	0.0139985
758.050	0.0139102
758.128	0.0139570
758.206	0.0137858
758.285	0.0137286
758.363	0.0138746
758.441	0.0139728
758.519	0.0138765
758.597	0.0137883
758.675	0.0138238
758.753	0.0139893
758.831	0.0139292
758.910	0.0139954
758.988	0.0138189
759.066	0.0138590
759.144	0.0139657
759.222	0.0139861
759.300	0.0140053
759.378	0.0140096
759.456	0.0140769
759.535	0.0141471
759.613	0.0143715
759.691	0.0142643
759.769	0.0143774
759.847	0.0144305
759.925	0.0143463
760.003	0.0144049
760.081	0.0145137
760.160	0.0145847
760.238	0.0146560
760.316	0.0146502
760.394	0.0146412
760.472	0.0145795
760.550	0.0146500
760.628	0.0146445
760.706	0.0147627
760.785	0.0147535
760.863	0.0148440
760.941	0.0148897
761.019	0.0149061
761.097	0.0149401
761.175	0.0149342
761.253	0.0149661
761.331	0.0150757
761.410	0.0150270
761.488	0.0149690
761.566	0.0151327
761.644	0.0150034
761.722	0.0149729
761.800	0.0148892
761.878	0.0148757
761.956	0.0149149
762.035	0.0148092
762.113	0.0146635
762.191	0.0146723
762.269	0.0145155
762.347	0.0144014
762.425	0.0144179
762.503	0.0144766
762.581	0.0144009
762.660	0.0143159
762.738	0.0141885
762.816	0.0140913
762.894	0.0141277
762.972	0.0141734
763.050	0.0140642
763.128	0.0140176
763.206	0.0141516
763.285	0.0141076
763.363	0.0140280
763.441	0.0140913
763.519	0.0139828
763.597	0.0140814
763.675	0.0141219
763.753	0.0140813
763.831	0.0140311
763.910	0.0141309
763.988	0.0140159
764.066	0.0140907
764.144	0.0138553
764.222	0.0139142
764.300	0.0138795
764.378	0.0138682
764.456	0.0138419
764.535	0.0138956
764.613	0.0137473
764.691	0.0136500
764.769	0.0138141
764.847	0.0138098
764.925	0.0139447
765.003	0.0139652
765.081	0.0139471
765.160	0.0138861
765.238	0.0140407
765.316	0.0141321
765.394	0.0140025
765.472	0.0140777
765.550	0.0140607
765.628	0.0140522
765.706	0.0140922
765.785	0.0141667
765.863	0.0141577
765.941	0.0140225
766.019	0.0140996
766.097	0.0141795
766.175	0.0142278
766.253	0.0143141
766.331	0.0143182
766.410	0.0143059
766.488	0.0143277
766.566	0.0143195
766.644	0.0144386
766.722	0.0144888
766.800	0.0145129
766.878	0.0145737
766.956	0.0144009
767.035	0.0145621
767.113	0.0146115
767.191	0.0147849
767.269	0.0147181
767.347	0.0147509
767.425	0.0148576
767.503	0.0147762
767.581	0.0150558
767.660	0.0149648
767.738	0.0150554
767.816	0.0150147
767.894	0.0149523
767.972	0.0151581
768.050	0.0150951
768.128	0.0149456
768.206	0.0150143
768.285	0.0148991
768.363	0.0149320
768.441	0.0147255
768.519	0.0147618
768.597	0.0147501
768.675	0.0147090
768.753	0.0147474
768.831	0.0145584
768.910	0.0145359
768.988	0.0144752
769.066	0.0144205
769.144	0.0144763
769.222	0.0142966
769.300	0.0142045
769.378	0.0142104
769.456	0.0142137
769.535	0.0141525
769.613	0.0141521
769.691	0.0141969
769.769	0.0141124
769.847	0.0140838
769.925	0.0139672
770.003	0.0142252
770.081	0.0141395
770.160	0.0140834
770.238	0.0140395
770.316	0.0141602
770.394	0.0142507
770.472	0.0140876
770.550	0.0139797
770.628	0.0139222
770.706	0.0137698
770.785	0.0137894
770.863	0.0138896
770.941	0.0137793
771.019	0.0136802
771.097	0.0136758
771.175	0.0136842
771.253	0.0136549
771.331	0.0137630
771.410	0.0137151
771.488	0.0137317
771.566	0.0137576
771.644	0.0137781
771.722	0.0137919
771.800	0.0137952
771.878	0.0139193
771.956	0.0139503
772.035	0.0140368
772.113	0.0140153
772.191	0.0141466
772.269	0.0141944
772.347	0.0142184
772.425	0.0141565
772.503	0.0143023
772.581	0.0143448
772.660	0.0143228
772.738	0.0144115
772.816	0.0144657
772.894	0.0144331
772.972	0.0144794
773.050	0.0145621
773.128	0.0144437
773.206	0.0144491
773.285	0.0145612
773.363	0.0148241
773.441	0.0146036
773.519	0.0147155
773.597	0.0147825
773.675	0.0148139
773.753	0.0146268
773.831	0.0147397
773.910	0.0149148
773.988	0.0149604
774.066	0.0148910
774.144	0.0149594
774.222	0.0151411
774.300	0.0150333
774.378	0.0151321
774.456	0.0150721
774.535	0.0149274
774.613	0.0150922
774.691	0.0151330
774.769	0.0149232
774.847	0.0151225
774.925	0.0149453
775.003	0.0149005
775.081	0.0148051
775.160	0.0149304
775.238	0.0147598
775.316	0.0148150
775.394	0.0147459
775.472	0.0145048
775.550	0.0145422
775.628	0.0144005
775.706	0.0144173
775.785	0.0142667
775.863	0.0141880
775.941	0.0143050
776.019	0.0141566
776.097	0.0140910
776.175	0.0140031
776.253	0.0140488
776.331	0.0140461
776.410	0.0140424
776.488	0.0140681
776.566	0.0140953
776.644	0.0141045
776.722	0.0140171
776.800	0.0140633
776.878	0.0140924
776.956	0.0140341
777.035	0.0139573
777.113	0.0140541
777.191	0.0140102
777.269	0.0139597
777.347	0.0139695
777.425	0.0138833
777.503	0.0138459
777.581	0.0137511
777.660	0.0137299
777.738	0.0137924
777.816	0.0137833
777.894	0.0136371
777.972	0.0137187
778.050	0.0136305
778.128	0.0137839
778.206	0.0138505
778.285	0.0138805
778.363	0.0138830
778.441	0.0140838
778.519	0.0140818
778.597	0.0140921
778.675	0.0141805
778.753	0.0143332
778.831	0.0142841
778.910	0.0144613
778.988	0.0141682
779.066	0.0143723
779.144	0.0142909
779.222	0.0145210
779.300	0.0144354
779.378	0.0143772
779.456	0.0145630
779.535	0.0144516
779.613	0.0142907
779.691	0.0144188
779.769	0.0143919
779.847	0.0144447
779.925	0.0144849
780.003	0.0145592
780.081	0.0145210
780.160	0.0146235
780.238	0.0146666
780.316	0.0146898
780.394	0.0148113
780.472	0.0148000
780.550	0.0147823
780.628	0.0148336
780.706	0.0150019
780.785	0.0149193
780.863	0.0148381
780.941	0.0148368
781.019	0.0149920
781.097	0.0152084
781.175	0.0148925
781.253	0.0147591
781.331	0.0147729
781.410	0.0148563
781.488	0.0149018
781.566	0.0147246
781.644	0.0148647
781.722	0.0148515
781.800	0.0146651
781.878	0.0147132
781.956	0.0147366
782.035	0.0146313
782.113	0.0145295
782.191	0.0145930
782.269	0.0145489
782.347	0.0144537
782.425	0.0143919
782.503	0.0141574
782.581	0.0142475
782.660	0.0142187
782.738	0.0139767
782.816	0.0141357
782.894	0.0140273
782.972	0.0139615
783.050	0.0140595
783.128	0.0138853
783.206	0.0139103
783.285	0.0140090
783.363	0.0140016
783.441	0.0139649
783.519	0.0139611
783.597	0.0140203
783.675	0.0139346
783.753	0.0138613
783.831	0.0140273
783.910	0.0140878
783.988	0.0140405
784.066	0.0137740
784.144	0.0137613
784.222	0.0136787
784.300	0.0139179
784.378	0.0139931
784.456	0.0137753
784.535	0.0137888
784.613	0.0138894
784.691	0.0138165
784.769	0.0139118
784.847	0.0140089
784.925	0.0140268
785.003	0.0141315
785.081	0.0142170
785.160	0.0141068
785.238	0.0142199
785.316	0.0143241
785.394	0.0143877
785.472	0.0143681
785.550	0.0144433
785.628	0.0145364
785.706	0.0144080
785.785	0.0143767
785.863	0.0145373
785.941	0.0145604
786.019	0.0145878
786.097	0.0144587
786.175	0.0145621
786.253	0.0143388
786.331	0.0144039
786.410	0.0145451
786.488	0.0145105
786.566	0.0145493
786.644	0.0144713
786.722	0.0145651
786.800	0.0145229
786.878	0.0148384
786.956	0.0146560
787.035	0.0147699
787.113	0.0149229
787.191	0.0148440
787.269	0.0147953
787.347	0.0148219
787.425	0.0147331
787.503	0.0148238
787.581	0.0148218
787.660	0.0148819
787.738	0.0149845
787.816	0.0150669
787.894	0.0149335
787.972	0.0149517
788.050	0.0148948
788.128	0.0148354
788.206	0.0150125
788.285	0.0149497
788.363	0.0149599
788.441	0.0148421
788.519	0.0149023
788.597	0.0148611
788.675	0.0148696
788.753	0.0148071
788.831	0.0145922
788.910	0.0145838
788.988	0.0146402
789.066	0.0144725
789.144	0.0144844
789.222	0.0144209
789.300	0.0141345
789.378	0.0141273
789.456	0.0140783
789.535	0.0141291
789.613	0.0139952
789.691	0.0140121
789.769	0.0138492
789.847	0.0138506
789.925	0.0139929
790.003	0.0140376
790.081	0.0139149
790.160	0.0140680
790.238	0.0139958
790.316	0.0140430
790.394	0.0139906
790.472	0.0141765
790.550	0.0141064
790.628	0.0140130
790.706	0.0138877
790.785	0.0138616
790.863	0.0137006
790.941	0.0138400
791.019	0.0137544
791.097	0.0137397
791.175	0.0136358
791.253	0.0136539
791.331	0.0136971
791.410	0.0138097
791.488	0.0138219
791.566	0.0139066
791.644	0.0138548
791.722	0.0140960
791.800	0.0141887
791.878	0.0141561
791.956	0.0141830
792.035	0.0142256
792.113	0.0142561
792.191	0.0145257
792.269	0.0142391
792.347	0.0143351
792.425	0.0143598
792.503	0.0143138
792.581	0.0143308
792.660	0.0142207
792.738	0.0141916
792.816	0.0143575
792.894	0.0144511
792.972	0.0143114
793.050	0.0143580
793.128	0.0144152
793.206	0.0144521
793.285	0.0144398
793.363	0.0144768
793.441	0.0145171
793.519	0.0145955
793.597	0.0146495
793.675	0.0147356
793.753	0.0147017
793.831	0.0145882
793.910	0.0148741
793.988	0.0149550
794.066	0.0149966
794.144	0.0148599
794.222	0.0149475
794.300	0.0150228
794.378	0.0151406
794.456	0.0151574
794.535	0.0149859
794.613	0.0152616
794.691	0.0151136
794.769	0.0152242
794.847	0.0151208
794.925	0.0152444
795.003	0.0151942
795.081	0.0150069
795.160	0.0150896
795.238	0.0150583
795.316	0.0151757
795.394	0.0150829
795.472	0.0150492
795.550	0.0149130
795.628	0.0147283
795.706	0.0148260
795.785	0.0147544
795.863	0.0146507
795.941	0.0144570
796.019	0.0144968
796.097	0.0143820
796.175	0.0142862
796.253	0.0141797
796.331	0.0141364
796.410	0.0140633
796.488	0.0140243
796.566	0.0139713
796.644	0.0139055
796.722	0.0139334
796.800	0.0139003
796.878	0.0137347
796.956	0.0138552
797.035	0.0137930
797.113	0.0137313
797.191	0.0136552
797.269	0.0137910
797.347	0.0137532
797.425	0.0136813
797.503	0.0136915
797.581	0.0137074
797.660	0.0136903
797.738	0.0137914
797.816	0.0137262
797.894	0.0136063
797.972	0.0137075
798.050	0.0136724
798.128	0.0139012
798.206	0.0137782
798.285	0.0138573
798.363	0.0138784
798.441	0.0139874
798.519	0.0140143
798.597	0.0140540
798.675	0.0141350
798.753	0.0142036
798.831	0.0141679
798.910	0.0142551
798.988	0.0143166
799.066	0.0142762
799.144	0.0141352
799.222	0.0143047
799.300	0.0144187
799.378	0.0141805
799.456	0.0141764
799.535	0.0143230
799.613	0.0141779
799.691	0.0141045
799.769	0.0142414
799.847	0.0142313
799.925	0.0141372
800.003	0.0142440
800.081	0.0143069
800.160	0.0142601
800.238	0.0144128
800.316	0.0144446
800.394	0.0144214
800.472	0.0145045
800.550	0.0146095
800.628	0.0147513
800.706	0.0147547
800.785	0.0148641
800.863	0.0150133
800.941	0.0150321
801.019	0.0150689
801.097	0.0150843
801.175	0.0152374
801.253	0.0152798
801.331	0.0151272
801.410	0.0154558
801.488	0.0152724
801.566	0.0152365
801.644	0.0152997
801.722	0.0150995
801.800	0.0151409
801.878	0.0150733
801.956	0.0151234
802.035	0.0150095
802.113	0.0149635
802.191	0.0147697
802.269	0.0147598
802.347	0.0148237
802.425	0.0147232
802.503	0.0145808
802.581	0.0144708
802.660	0.0143581
802.738	0.0143076
802.816	0.0143056
802.894	0.0141566
802.972	0.0141101
803.050	0.0141338
803.128	0.0139980
803.206	0.0138396
803.285	0.0138177
803.363	0.0139333
803.441	0.0138869
803.519	0.0138915
803.597	0.0139098
803.675	0.0138258
803.753	0.0137175
803.831	0.0136897
803.910	0.0136875
803.988	0.0136279
804.066	0.0136247
804.144	0.0136479
804.222	0.0136932
804.300	0.0136861
804.378	0.0135937
804.456	0.0137295
804.535	0.0136512
804.613	0.0137165
804.691	0.0137343
804.769	0.0137304
804.847	0.0137630
804.925	0.0139124
805.003	0.0139281
805.081	0.0141028
805.160	0.0140527
805.238	0.0140265
805.316	0.0141850
805.394	0.0142815
805.472	0.0143227
805.550	0.0142208
805.628	0.0143881
805.706	0.0145441
805.785	0.0143436
805.863	0.0145010
805.941	0.0144991
806.019	0.0145151
806.097	0.0144568
806.175	0.0143773
806.253	0.0143653
806.331	0.0144049
806.410	0.0144465
806.488	0.0142725
806.566	0.0142433
806.644	0.0142875
806.722	0.0144321
806.800	0.0145599
806.878	0.0143940
806.956	0.0143742
807.035	0.0145949
807.113	0.0145716
807.191	0.0145848
807.269	0.0146855
807.347	0.0145689
807.425	0.0146700
807.503	0.0147711
807.581	0.0146529
807.660	0.0146964
807.738	0.0148520
807.816	0.0147625
807.894	0.0149310
807.972	0.0149487
808.050	0.0150060
808.128	0.0150018
808.206	0.0148980
808.285	0.0150036
808.363	0.0150795
808.441	0.0151598
808.519	0.0151427
808.597	0.0150803
808.675	0.0151675
808.753	0.0151604
808.831	0.0151214
808.910	0.0149545
808.988	0.0150111
809.066	0.0148206
809.144	0.0148947
809.222	0.0149496
809.300	0.0147746
809.378	0.0147008
809.456	0.0145396
809.535	0.0145045
809.613	0.0144284
809.691	0.0145284
809.769	0.0143450
809.847	0.0142228
809.925	0.0142074
810.003	0.0142469
810.081	0.0140776
810.160	0.0141153
810.238	0.0139845
810.316	0.0139822
810.394	0.0141499
810.472	0.0140257
810.550	0.0139854
810.628	0.0140157
810.706	0.0140509
810.785	0.0140516
810.863	0.0139755
810.941	0.0140751
811.019	0.0140056
811.097	0.0140716
811.175	0.0140186
811.253	0.0139959
811.331	0.0140041
811.410	0.0139175
811.488	0.0139935
811.566	0.0139290
811.644	0.0139073
811.722	0.0140080
811.800	0.0140070
811.878	0.0139933
811.956	0.0139407
812.035	0.0139715
812.113	0.0141585
812.191	0.0142059
812.269	0.0142285
812.347	0.0140827
812.425	0.0143246
812.503	0.0143552
812.581	0.0143574
812.660	0.0144339
812.738	0.0143763
812.816	0.0145282
812.894	0.0144778
812.972	0.0142834
813.050	0.0143030
813.128	0.0144109
813.206	0.0143555
813.285	0.0143584
813.363	0.0143046
813.441	0.0143975
813.519	0.0144193
813.597	0.0144238
813.675	0.0143919
813.753	0.0146168
813.831	0.0145965
813.910	0.0144806
813.988	0.0146033
814.066	0.0144650
814.144	0.0144691
814.222	0.0146512
814.300	0.0145606
814.378	0.0146069
814.456	0.0145599
814.535	0.0145515
814.613	0.0146561
814.691	0.0146711
814.769	0.0146264
814.847	0.0148892
814.925	0.0148590
815.003	0.0148458
815.081	0.0149352
815.160	0.0148853
815.238	0.0148647
815.316	0.0148581
815.394	0.0149499
815.472	0.0148185
815.550	0.0149463
815.628	0.0149583
815.706	0.0148691
815.785	0.0146516
815.863	0.0148128
815.941	0.0147851
816.019	0.0145951
816.097	0.0146726
816.175	0.0145886
816.253	0.0145305
816.331	0.0146185
816.410	0.0144962
816.488	0.0143482
816.566	0.0142821
816.644	0.0143089
816.722	0.0143343
816.800	0.0143249
816.878	0.0142995
816.956	0.0142268
817.035	0.0141740
817.113	0.0140715
817.191	0.0141304
817.269	0.0142133
817.347	0.0140620
817.425	0.0141554
817.503	0.0141136
817.581	0.0140406
817.660	0.0139283
817.738	0.0140224
817.816	0.0140082
817.894	0.0139362
817.972	0.0140228
818.050	0.0138354
818.128	0.0137564
818.206	0.0137531
818.285	0.0138020
818.363	0.0139827
818.441	0.0138231
818.519	0.0138230
818.597	0.0138099
818.675	0.0138139
818.753	0.0137748
818.831	0.0137708
818.910	0.0138315
818.988	0.0139373
819.066	0.0140843
819.144	0.0140674
819.222	0.0140110
819.300	0.0141331
819.378	0.0142439
819.456	0.0140937
819.535	0.0142087
819.613	0.0140900
819.691	0.0141940
819.769	0.0143568
819.847	0.0143520
819.925	0.0143676
820.003	0.0142743
820.081	0.0141389
820.160	0.0142849
820.238	0.0143125
820.316	0.0142977
820.394	0.0143630
820.472	0.0142624
820.550	0.0143977
820.628	0.0143412
820.706	0.0143258
820.785	0.0145021
820.863	0.0144016
820.941	0.0143585
821.019	0.0143692
821.097	0.0145980
821.175	0.0144563
821.253	0.0144061
821.331	0.0144659
821.410	0.0144556
821.488	0.0146134
821.566	0.0145259
821.644	0.0145644
821.722	0.0147720
821.800	0.0146828
821.878	0.0147403
821.956	0.0148720
822.035	0.0148643
822.113	0.0147974
822.191	0.0148009
822.269	0.0149234
822.347	0.0150331
822.425	0.0149723
822.503	0.0148788
822.581	0.0148184
822.660	0.0148168
822.738	0.0148391
822.816	0.0150146
822.894	0.0149664
822.972	0.0147946
823.050	0.0148174
823.128	0.0147475
823.206	0.0146943
823.285	0.0148227
823.363	0.0148033
823.441	0.0148125
823.519	0.0145732
823.597	0.0145462
823.675	0.0144067
823.753	0.0144155
823.831	0.0143724
823.910	0.0142447
823.988	0.0142125
824.066	0.0142266
824.144	0.0140022
824.222	0.0139813
824.300	0.0138927
824.378	0.0139226
824.456	0.0139308
824.535	0.0139177
824.613	0.0140464
824.691	0.0139098
824.769	0.0138662
824.847	0.0137737
824.925	0.0139153
825.003	0.0139204
825.081	0.0138838
825.160	0.0138579
825.238	0.0138159
825.316	0.0138584
825.394	0.0138360
825.472	0.0138554
825.550	0.0140878
825.628	0.0138795
825.706	0.0138590
825.785	0.0139774
825.863	0.0141149
825.941	0.0139806
826.019	0.0141117
826.097	0.0140377
826.175	0.0141615
826.253	0.0141418
826.331	0.0142812
826.410	0.0142216
826.488	0.0143364
826.566	0.0142838
826.644	0.0143540
826.722	0.0143864
826.800	0.0143353
826.878	0.0143771
826.956	0.0143211
827.035	0.0143893
827.113	0.0144093
827.191	0.0144274
827.269	0.0145445
827.347	0.0145358
827.425	0.0144159
827.503	0.0143685
827.581	0.0144052
827.660	0.0144302
827.738	0.0144363
827.816	0.0143617
827.894	0.0145151
827.972	0.0145262
828.050	0.0143729
828.128	0.0144852
828.206	0.0146056
828.285	0.0145485
828.363	0.0144682
828.441	0.0144834
828.519	0.0145078
828.597	0.0146938
828.675	0.0144734
828.753	0.0146326
828.831	0.0146861
828.910	0.0146599
828.988	0.0148415
829.066	0.0147202
829.144	0.0147105
829.222	0.0147018
829.300	0.0147807
829.378	0.0148818
829.456	0.0147347
829.535	0.0147675
829.613	0.0146445
829.691	0.0146900
829.769	0.0146379
829.847	0.0146521
829.925	0.0145095
830.003	0.0144216
830.081	0.0146400
830.160	0.0144279
830.238	0.0143613
830.316	0.0142605
830.394	0.0142437
830.472	0.0143476
830.550	0.0142693
830.628	0.0141516
830.706	0.0142692
830.785	0.0140420
830.863	0.0140395
830.941	0.0140755
831.019	0.0140842
831.097	0.0140330
831.175	0.0140051
831.253	0.0140145
831.331	0.0140163
831.410	0.0140161
831.488	0.0140154
831.566	0.0140808
831.644	0.0139056
831.722	0.0138911
831.800	0.0139697
831.878	0.0140198
831.956	0.0139946
832.035	0.0140537
832.113	0.0141995
832.191	0.0140274
832.269	0.0141415
832.347	0.0140016
832.425	0.0140900
832.503	0.0141141
832.581	0.0141036
832.660	0.0142220
832.738	0.0143414
832.816	0.0142876
832.894	0.0143031
832.972	0.0143942
833.050	0.0143094
833.128	0.0143839
833.206	0.0143279
833.285	0.0144560
833.363	0.0145933
833.441	0.0145164
833.519	0.0145423
833.597	0.0144750
833.675	0.0145013
833.753	0.0144408
833.831	0.0143388
833.910	0.0144071
833.988	0.0145693
834.066	0.0144390
834.144	0.0143613
834.222	0.0143541
834.300	0.0143851
834.378	0.0144727
834.456	0.0143411
834.535	0.0144774
834.613	0.0143733
834.691	0.0143703
834.769	0.0141844
834.847	0.0143745
834.925	0.0143125
835.003	0.0143453
835.081	0.0143999
835.160	0.0144800
835.238	0.0144696
835.316	0.0145920
835.394	0.0143158
835.472	0.0143793
835.550	0.0145956
835.628	0.0145580
835.706	0.0145090
835.785	0.0145548
835.863	0.0147163
835.941	0.0145358
836.019	0.0146939
836.097	0.0147393
836.175	0.0147133
836.253	0.0147506
836.331	0.0148586
836.410	0.0148808
836.488	0.0148692
836.566	0.0148670
836.644	0.0147565
836.722	0.0147491
836.800	0.0148995
836.878	0.0147427
836.956	0.0148022
837.035	0.0147590
837.113	0.0145638
837.191	0.0146365
837.269	0.0146962
837.347	0.0147764
837.425	0.0146737
837.503	0.0145652
837.581	0.0144885
837.660	0.0143866
837.738	0.0144091
837.816	0.0144594
837.894	0.0143488
837.972	0.0143490
838.050	0.0143916
838.128	0.0143826
838.206	0.0143933
838.285	0.0142745
838.363	0.0142445
838.441	0.0141310
838.519	0.0142669
838.597	0.0142410
838.675	0.0142741
838.753	0.0144034
838.831	0.0143464
838.910	0.0142245
838.988	0.0141464
839.066	0.0143071
839.144	0.0143304
839.222	0.0142461
839.300	0.0142696
839.378	0.0143464
839.456	0.0141893
839.535	0.0142056
839.613	0.0141792
839.691	0.0142701
839.769	0.0141822
839.847	0.0143358
839.925	0.0142563
840.003	0.0140847
840.081	0.0143063
840.160	0.0143119
840.238	0.0142236
840.316	0.0143331
840.394	0.0142437
840.472	0.0143507
840.550	0.0143626
840.628	0.0144609
840.706	0.0144736
840.785	0.0143704
840.863	0.0143004
840.941	0.0142738
841.019	0.0142842
841.097	0.0143886
841.175	0.0144400
841.253	0.0142394
841.331	0.0142656
841.410	0.0142524
841.488	0.0141870
841.566	0.0142313
841.644	0.0141740
841.722	0.0142424
841.800	0.0141052
841.878	0.0142037
841.956	0.0143495
842.035	0.0141492
842.113	0.0141534
842.191	0.0140930
842.269	0.0143047
842.347	0.0143095
842.425	0.0142661
842.503	0.0142065
842.581	0.0142963
842.660	0.0143616
842.738	0.0144749
842.816	0.0144064
842.894	0.0145274
842.972	0.0145371
843.050	0.0145670
843.128	0.0145068
843.206	0.0146415
843.285	0.0146088
843.363	0.0146173
843.441	0.0146158
843.519	0.0147589
843.597	0.0146030
843.675	0.0146785
843.753	0.0147105
843.831	0.0146970
843.910	0.0145342
843.988	0.0146403
844.066	0.0147213
844.144	0.0146825
844.222	0.0146019
844.300	0.0146217
844.378	0.0145416
844.456	0.0144775
844.535	0.0144328
844.613	0.0145448
844.691	0.0143549
844.769	0.0144321
844.847	0.0144396
844.925	0.0143028
845.003	0.0144032
845.081	0.0143069
845.160	0.0143253
845.238	0.0143106
845.316	0.0142979
845.394	0.0144337
845.472	0.0144163
845.550	0.0142892
845.628	0.0141322
845.706	0.0142709
845.785	0.0143926
845.863	0.0142664
845.941	0.0141264
846.019	0.0139850
846.097	0.0140422
846.175	0.0139015
846.253	0.0139462
846.331	0.0139552
846.410	0.0139452
846.488	0.0140859
846.566	0.0140045
846.644	0.0139912
846.722	0.0140389
846.800	0.0139797
846.878	0.0139655
846.956	0.0139054
847.035	0.0141163
847.113	0.0140250
847.191	0.0140621
847.269	0.0141369
847.347	0.0142212
847.425	0.0140501
847.503	0.0141450
847.581	0.0142300
847.660	0.0142052
847.738	0.0140981
847.816	0.0141454
847.894	0.0141580
847.972	0.0141747
848.050	0.0141950
848.128	0.0140566
848.206	0.0140977
848.285	0.0141296
848.363	0.0139621
848.441	0.0140405
848.519	0.0139207
848.597	0.0141479
848.675	0.0141022
848.753	0.0140782
848.831	0.0139722
848.910	0.0140862
848.988	0.0142377
849.066	0.0141878
849.144	0.0140428
849.222	0.0141369
849.300	0.0141251
849.378	0.0142651
849.456	0.0142881
849.535	0.0143191
849.613	0.0143157
849.691	0.0144003
849.769	0.0145329
849.847	0.0145064
849.925	0.0145353
850.003	0.0147207
850.081	0.0147594
850.160	0.0146896
850.238	0.0147460
850.316	0.0148946
850.394	0.0148521
850.472	0.0148689
850.550	0.0148750
850.628	0.0150387
850.706	0.0149084
850.785	0.0148666
850.863	0.0149243
850.941	0.0147736
851.019	0.0148686
851.097	0.0148527
851.175	0.0148190
851.253	0.0148373
851.331	0.0146933
851.410	0.0147285
851.488	0.0147051
851.566	0.0146368
851.644	0.0146460
851.722	0.0146068
851.800	0.0146488
851.878	0.0144999
851.956	0.0145567
852.035	0.0144965
852.113	0.0145554
852.191	0.0144670
852.269	0.0144476
852.347	0.0143373
852.425	0.0142580
852.503	0.0142007
852.581	0.0144331
852.660	0.0142778
852.738	0.0141808
852.816	0.0142778
852.894	0.0142796
852.972	0.0141276
853.050	0.0141291
853.128	0.0140961
853.206	0.0142018
853.285	0.0140048
853.363	0.0140077
853.441	0.0139697
853.519	0.0139692
853.597	0.0141183
853.675	0.0140582
853.753	0.0140322
853.831	0.0141293
853.910	0.0139332
853.988	0.0139445
854.066	0.0140130
854.144	0.0140533
854.222	0.0140202
854.300	0.0140493
854.378	0.0140223
854.456	0.0141552
854.535	0.0142242
854.613	0.0141763
854.691	0.0139829
854.769	0.0140218
854.847	0.0140612
854.925	0.0140853
855.003	0.0140908
855.081	0.0141283
855.160	0.0140887
855.238	0.0139996
855.316	0.0140789
855.394	0.0139806
855.472	0.0140205
855.550	0.0139114
855.628	0.0141121
855.706	0.0139287
855.785	0.0138718
855.863	0.0139265
855.941	0.0139363
856.019	0.0140139
856.097	0.0141212
856.175	0.0141444
856.253	0.0139560
856.331	0.0140865
856.410	0.0141104
856.488	0.0140507
856.566	0.0141942
856.644	0.0142432
856.722	0.0141893
856.800	0.0144443
856.878	0.0143784
856.956	0.0145866
857.035	0.0145960
857.113	0.0148384
857.191	0.0147325
857.269	0.0147733
857.347	0.0148246
857.425	0.0147868
857.503	0.0148772
857.581	0.0147121
857.660	0.0148857
857.738	0.0149026
857.816	0.0148883
857.894	0.0149245
857.972	0.0149439
858.050	0.0148643
858.128	0.0149255
858.206	0.0147638
858.285	0.0147409
858.363	0.0149046
858.441	0.0149727
858.519	0.0148771
858.597	0.0147729
858.675	0.0149090
858.753	0.0147496
858.831	0.0147217
858.910	0.0145622
858.988	0.0147395
859.066	0.0146415
859.144	0.0145481
859.222	0.0146672
859.300	0.0145340
859.378	0.0143914
859.456	0.0143491
859.535	0.0144532
859.613	0.0144478
859.691	0.0143631
859.769	0.0144093
859.847	0.0143105
859.925	0.0141698
860.003	0.0143375
860.081	0.0142270
860.160	0.0140288
860.238	0.0140192
860.316	0.0140234
860.394	0.0138663
860.472	0.0141092
860.550	0.0140679
860.628	0.0140137
860.706	0.0140318
860.785	0.0139980
860.863	0.0140307
860.941	0.0140075
861.019	0.0139059
861.097	0.0139861
861.175	0.0139421
861.253	0.0141116
861.331	0.0140378
861.410	0.0140115
861.488	0.0141380
861.566	0.0139683
861.644	0.0139798
861.722	0.0140881
861.800	0.0139897
861.878	0.0139671
861.956	0.0140108
862.035	0.0140539
862.113	0.0139981
862.191	0.0139827
862.269	0.0140700
862.347	0.0140269
862.425	0.0139909
862.503	0.0139413
862.581	0.0141815
862.660	0.0141849
862.738	0.0141255
862.816	0.0141360
862.894	0.0142038
862.972	0.0141386
863.050	0.0141965
863.128	0.0142395
863.206	0.0142754
863.285	0.0142895
863.363	0.0143201
863.441	0.0143754
863.519	0.0144887
863.597	0.0143668
863.675	0.0144463
863.753	0.0146266
863.831	0.0148046
863.910	0.0147312
863.988	0.0147864
864.066	0.0148328
864.144	0.0149265
864.222	0.0150459
864.300	0.0150707
864.378	0.0150352
864.456	0.0149500
864.535	0.0150620
864.613	0.0151688
864.691	0.0152337
864.769	0.0149529
864.847	0.0150771
864.925	0.0149853
865.003	0.0149734
865.081	0.0150982
865.160	0.0150215
865.238	0.0147930
865.316	0.0147696
865.394	0.0147641
865.472	0.0148406
865.550	0.0147540
865.628	0.0145778
865.706	0.0146516
865.785	0.0146928
865.863	0.0145790
865.941	0.0146133
866.019	0.0145439
866.097	0.0144472
866.175	0.0143862
866.253	0.0144281
866.331	0.0143643
866.410	0.0143344
866.488	0.0142256
866.566	0.0142690
866.644	0.0142971
866.722	0.0141496
866.800	0.0141715
866.878	0.0141163
866.956	0.0139809
867.035	0.0140798
867.113	0.0140175
867.191	0.0139547
867.269	0.0139145
867.347	0.0140130
867.425	0.0139304
867.503	0.0137658
867.581	0.0138390
867.660	0.0138550
867.738	0.0138271
867.816	0.0138406
867.894	0.0139162
867.972	0.0138928
868.050	0.0137218
868.128	0.0138934
868.206	0.0137609
868.285	0.0138044
868.363	0.0140515
868.441	0.0140024
868.519	0.0140565
868.597	0.0140698
868.675	0.0141714
868.753	0.0140967
868.831	0.0142641
868.910	0.0140794
868.988	0.0140893
869.066	0.0141198
869.144	0.0141305
869.222	0.0140317
869.300	0.0142181
869.378	0.0140605
869.456	0.0141138
869.535	0.0142437
869.613	0.0142239
869.691	0.0141721
869.769	0.0142104
869.847	0.0142673
869.925	0.0143026
870.003	0.0142407
870.081	0.0142488
870.160	0.0143208
870.238	0.0144336
870.316	0.0143320
870.394	0.0143307
870.472	0.0144736
870.550	0.0145905
870.628	0.0145879
870.706	0.0146629
870.785	0.0146961
870.863	0.0147115
870.941	0.0148702
871.019	0.0148164
871.097	0.0146664
871.175	0.0148669
871.253	0.0150330
871.331	0.0149833
871.410	0.0149258
871.488	0.0150079
871.566	0.0149836
871.644	0.0149540
871.722	0.0149522
871.800	0.0150122
871.878	0.0148764
871.956	0.0148058
872.035	0.0147923
872.113	0.0148933
872.191	0.0150021
872.269	0.0149920
872.347	0.0146326
872.425	0.0145823
872.503	0.0145614
872.581	0.0145971
872.660	0.0144183
872.738	0.0145638
872.816	0.0145248
872.894	0.0145050
872.972	0.0143555
873.050	0.0144182
873.128	0.0143221
873.206	0.0142897
873.285	0.0142780
873.363	0.0141725
873.441	0.0143283
873.519	0.0140830
873.597	0.0142444
873.675	0.0142793
873.753	0.0141178
873.831	0.0140162
873.910	0.0140276
873.988	0.0140736
874.066	0.0141499
874.144	0.0139626
874.222	0.0140229
874.300	0.0140366
874.378	0.0140586
874.456	0.0139406
874.535	0.0140380
874.613	0.0141532
874.691	0.0141528
874.769	0.0140792
874.847	0.0139428
874.925	0.0140016
875.003	0.0140305
875.081	0.0140749
875.160	0.0141909
875.238	0.0140813
875.316	0.0141338
875.394	0.0140539
875.472	0.0140586
875.550	0.0140607
875.628	0.0142085
875.706	0.0141871
875.785	0.0141360
875.863	0.0141409
875.941	0.0141599
876.019	0.0142303
876.097	0.0142513
876.175	0.0142353
876.253	0.0141563
876.331	0.0141679
876.410	0.0141956
876.488	0.0142991
876.566	0.0140700
876.644	0.0141969
876.722	0.0141434
876.800	0.0141933
876.878	0.0141847
876.956	0.0142007
877.035	0.0142799
877.113	0.0142567
877.191	0.0143011
877.269	0.0143225
877.347	0.0143241
877.425	0.0143186
877.503	0.0143468
877.581	0.0145155
877.660	0.0143691
877.738	0.0145818
877.816	0.0144418
877.894	0.0144008
877.972	0.0144790
878.050	0.0144458
878.128	0.0145815
878.206	0.0145193
878.285	0.0145209
878.363	0.0146938
878.441	0.0145552
878.519	0.0146474
878.597	0.0145497
878.675	0.0146807
878.753	0.0146950
878.831	0.0147307
878.910	0.0144921
878.988	0.0146349
879.066	0.0147243
879.144	0.0147266
879.222	0.0145321
879.300	0.0144810
879.378	0.0145355
879.456	0.0145866
879.535	0.0144953
879.613	0.0145223
879.691	0.0147028
879.769	0.0144884
879.847	0.0145003
879.925	0.0144016
880.003	0.0143243
880.081	0.0143060
880.160	0.0143468
880.238	0.0143774
880.316	0.0143681
880.394	0.0143020
880.472	0.0141969
880.550	0.0141573
880.628	0.0142182
880.706	0.0141727
880.785	0.0142537
880.863	0.0140923
880.941	0.0142123
881.019	0.0141174
881.097	0.0140264
881.175	0.0141058
881.253	0.0140737
881.331	0.0141271
881.410	0.0140125
881.488	0.0139475
881.566	0.0140451
881.644	0.0140213
881.722	0.0140008
881.800	0.0138927
881.878	0.0139399
881.956	0.0140513
882.035	0.0139090
882.113	0.0140019
882.191	0.0139085
882.269	0.0138714
882.347	0.0139812
882.425	0.0140773
882.503	0.0140903
882.581	0.0138880
882.660	0.0140874
882.738	0.0142297
882.816	0.0142007
882.894	0.0141191
882.972	0.0140094
883.050	0.0141630
883.128	0.0142223
883.206	0.0142064
883.285	0.0142343
883.363	0.0142071
883.441	0.0141956
883.519	0.0141892
883.597	0.0142448
883.675	0.0142862
883.753	0.0143157
883.831	0.0143217
883.910	0.0143864
883.988	0.0144519
884.066	0.0143944
884.144	0.0144017
884.222	0.0144535
884.300	0.0145736
884.378	0.0145058
884.456	0.0146225
884.535	0.0145361
884.613	0.0146577
884.691	0.0146859
884.769	0.0144956
884.847	0.0146297
884.925	0.0145987
885.003	0.0146755
885.081	0.0146368
885.160	0.0147572
885.238	0.0146659
885.316	0.0147032
885.394	0.0146923
885.472	0.0147279
885.550	0.0147392
885.628	0.0149064
885.706	0.0149140
885.785	0.0148254
885.863	0.0150277
885.941	0.0148375
886.019	0.0146257
886.097	0.0147202
886.175	0.0147621
886.253	0.0146037
886.331	0.0146091
886.410	0.0145715
886.488	0.0146450
886.566	0.0145331
886.644	0.0145303
886.722	0.0145573
886.800	0.0145669
886.878	0.0143866
886.956	0.0144827
887.035	0.0144700
887.113	0.0144714
887.191	0.0143990
887.269	0.0143066
887.347	0.0141735
887.425	0.0142361
887.503	0.0142310
887.581	0.0142451
887.660	0.0142649
887.738	0.0141253
887.816	0.0142488
887.894	0.0141750
887.972	0.0141854
888.050	0.0141084
888.128	0.0141743
888.206	0.0142051
888.285	0.0142394
888.363	0.0142034
888.441	0.0139592
888.519	0.0140546
888.597	0.0141703
888.675	0.0142247
888.753	0.0141362
888.831	0.0142654
888.910	0.0141283
888.988	0.0142604
889.066	0.0142279
889.144	0.0141894
889.222	0.0141236
889.300	0.0141748
889.378	0.0141361
889.456	0.0141393
889.535	0.0142665
889.613	0.0140501
889.691	0.0141702
889.769	0.0141876
889.847	0.0142088
889.925	0.0142412
890.003	0.0142711
890.081	0.0141188
890.160	0.0142963
890.238	0.0143111
890.316	0.0142500
890.394	0.0144534
890.472	0.0144318
890.550	0.0142954
890.628	0.0143230
890.706	0.0144560
890.785	0.0143543
890.863	0.0145524
890.941	0.0143697
891.019	0.0145612
891.097	0.0146017
891.175	0.0145611
891.253	0.0145717
891.331	0.0145185
891.410	0.0145123
891.488	0.0145676
891.566	0.0146444
891.644	0.0146276
891.722	0.0144882
891.800	0.0144128
891.878	0.0146577
891.956	0.0146166
892.035	0.0145233
892.113	0.0145743
892.191	0.0145475
892.269	0.0147601
892.347	0.0146493
892.425	0.0145641
892.503	0.0146300
892.581	0.0146578
892.660	0.0146915
892.738	0.0147284
892.816	0.0147695
892.894	0.0147358
892.972	0.0148733
893.050	0.0147749
893.128	0.0146114
893.206	0.0144254
893.285	0.0146454
893.363	0.0147400
893.441	0.0146162
893.519	0.0145918
893.597	0.0146355
893.675	0.0144550
893.753	0.0144840
893.831	0.0144608
893.910	0.0144714
893.988	0.0144684
894.066	0.0143541
894.144	0.0142906
894.222	0.0143507
894.300	0.0143253
894.378	0.0142801
894.456	0.0144376
894.535	0.0142826
894.613	0.0142367
894.691	0.0143114
894.769	0.0140844
894.847	0.0142244
894.925	0.0141552
895.003	0.0140514
895.081	0.0139825
895.160	0.0140845
895.238	0.0142381
895.316	0.0140820
895.394	0.0140096
895.472	0.0140199
895.550	0.0140659
895.628	0.0139684
895.706	0.0139826
895.785	0.0140778
895.863	0.0139387
895.941	0.0139591
896.019	0.0139841
896.097	0.0139215
896.175	0.0141850
896.253	0.0140508
896.331	0.0139835
896.410	0.0139732
896.488	0.0141485
896.566	0.0141030
896.644	0.0140603
896.722	0.0140519
896.800	0.0141269
896.878	0.0141930
896.956	0.0140791
897.035	0.0141532
897.113	0.0142023
897.191	0.0142634
897.269	0.0143888
897.347	0.0143322
897.425	0.0143327
897.503	0.0145382
897.581	0.0145039
897.660	0.0143420
897.738	0.0143126
897.816	0.0145925
897.894	0.0146256
897.972	0.0145588
898.050	0.0146272
898.128	0.0146243
898.206	0.0146209
898.285	0.0145499
898.363	0.0144261
898.441	0.0146071
898.519	0.0145647
898.597	0.0144637
898.675	0.0145975
898.753	0.0145341
898.831	0.0145555
898.910	0.0145586
898.988	0.0144144
899.066	0.0145985
899.144	0.0145786
899.222	0.0144756
899.300	0.0145860
899.378	0.0145421
899.456	0.0145595
899.535	0.0145725
899.613	0.0146126
899.691	0.0145752
899.769	0.0146025
899.847	0.0146147
899.925	0.0147613
900.003	0.0146648
900.081	0.0145561
900.160	0.0145219
900.238	0.0143611
900.316	0.0143501
900.394	0.0143364
900.472	0.0144151
900.550	0.0142137
900.628	0.0141886
900.706	0.0141109
900.785	0.0142165
900.863	0.0141710
900.941	0.0142165
901.019	0.0141096
901.097	0.0142086
901.175	0.0142719
901.253	0.0142220
901.331	0.0142725
901.410	0.0142361
901.488	0.0142755
901.566	0.0142230
901.644	0.0142237
901.722	0.0142619
901.800	0.0143060
901.878	0.0142283
901.956	0.0143255
902.035	0.0142361
902.113	0.0143102
902.191	0.0143332
902.269	0.0142648
902.347	0.0144914
902.425	0.0142585
902.503	0.0141752
902.581	0.0144235
902.660	0.0144360
902.738	0.0141645
902.816	0.0143963
902.894	0.0143987
902.972	0.0143816
903.050	0.0144231
903.128	0.0143014
903.206	0.0144100
903.285	0.0144024
903.363	0.0142691
903.441	0.0142996
903.519	0.0142699
903.597	0.0143348
903.675	0.0142857
903.753	0.0142195
903.831	0.0142084
903.910	0.0143150
903.988	0.0145150
904.066	0.0144566
904.144	0.0143186
904.222	0.0144440
904.300	0.0146069
904.378	0.0144538
904.456	0.0143830
904.535	0.0145869
904.613	0.0146378
904.691	0.0146814
904.769	0.0146320
904.847	0.0146713
904.925	0.0145828
905.003	0.0145681
905.081	0.0143496
905.160	0.0144958
905.238	0.0144015
905.316	0.0142954
905.394	0.0143692
905.472	0.0142433
905.550	0.0143590
905.628	0.0143322
905.706	0.0143749
905.785	0.0143005
905.863	0.0143618
905.941	0.0143359
906.019	0.0143488
906.097	0.0143611
906.175	0.0144109
906.253	0.0143240
906.331	0.0143600
906.410	0.0144658
906.488	0.0143533
906.566	0.0142444
906.644	0.0143297
906.722	0.0143620
906.800	0.0142772
906.878	0.0142982
906.956	0.0144146
907.035	0.0143843
907.113	0.0143512
907.191	0.0143848
907.269	0.0144529
907.347	0.0145543
907.425	0.0145131
907.503	0.0143546
907.581	0.0145471
907.660	0.0143828
907.738	0.0144064
907.816	0.0142761
907.894	0.0142637
907.972	0.0143410
908.050	0.0142673
908.128	0.0141889
908.206	0.0141399
908.285	0.0141982
908.363	0.0142963
908.441	0.0141523
908.519	0.0141420
908.597	0.0142306
908.675	0.0141171
908.753	0.0143113
908.831	0.0141830
908.910	0.0140841
908.988	0.0141696
909.066	0.0141589
909.144	0.0143365
909.222	0.0142088
909.300	0.0141532
909.378	0.0142616
909.456	0.0143369
909.535	0.0143211
909.613	0.0141978
909.691	0.0142040
909.769	0.0141463
909.847	0.0142481
909.925	0.0142500
910.003	0.0143386
910.081	0.0142535
910.160	0.0143035
910.238	0.0140734
910.316	0.0142366
910.394	0.0142622
910.472	0.0142271
910.550	0.0143124
910.628	0.0143153
910.706	0.0143044
910.785	0.0142180
910.863	0.0144135
910.941	0.0144646
911.019	0.0143402
911.097	0.0142622
911.175	0.0143195
911.253	0.0144344
911.331	0.0144703
911.410	0.0143566
911.488	0.0145079
911.566	0.0143363
911.644	0.0144207
911.722	0.0143755
911.800	0.0144134
911.878	0.0142699
911.956	0.0144846
912.035	0.0144882
912.113	0.0144812
912.191	0.0144906
912.269	0.0145655
912.347	0.0144222
912.425	0.0143762
912.503	0.0144659
912.581	0.0144698
912.660	0.0144511
912.738	0.0143163
912.816	0.0144528
912.894	0.0145062
912.972	0.0142713
913.050	0.0143140
913.128	0.0144044
913.206	0.0143093
913.285	0.0143812
913.363	0.0143580
913.441	0.0145090
913.519	0.0143550
913.597	0.0144503
913.675	0.0144128
913.753	0.0144413
913.831	0.0144650
913.910	0.0145947
913.988	0.0144314
914.066	0.0144151
914.144	0.0146171
914.222	0.0145415
914.300	0.0144933
914.378	0.0145084
914.456	0.0144223
914.535	0.0144315
914.613	0.0143809
914.691	0.0144360
914.769	0.0143636
914.847	0.0143897
914.925	0.0143968
915.003	0.0144203
915.081	0.0141946
915.160	0.0141621
915.238	0.0142060
915.316	0.0140951
915.394	0.0140267
915.472	0.0140766
915.550	0.0141365
915.628	0.0139959
915.706	0.0141053
915.785	0.0140388
915.863	0.0140087
915.941	0.0140259
916.019	0.0140054
916.097	0.0138853
916.175	0.0140089
916.253	0.0140762
916.331	0.0140565
916.410	0.0140944
916.488	0.0140868
916.566	0.0141309
916.644	0.0140727
916.722	0.0140820
916.800	0.0141957
916.878	0.0141441
916.956	0.0141032
917.035	0.0142166
917.113	0.0141975
917.191	0.0141982
917.269	0.0142960
917.347	0.0141699
917.425	0.0143137
917.503	0.0142924
917.581	0.0142542
917.660	0.0142120
917.738	0.0143970
917.816	0.0142668
917.894	0.0142294
917.972	0.0141853
918.050	0.0143214
918.128	0.0142986
918.206	0.0142175
918.285	0.0142569
918.363	0.0142183
918.441	0.0142805
918.519	0.0141091
918.597	0.0144212
918.675	0.0143271
918.753	0.0143523
918.831	0.0143456
918.910	0.0143388
918.988	0.0145289
919.066	0.0145537
919.144	0.0146646
919.222	0.0146308
919.300	0.0145547
919.378	0.0145165
919.456	0.0146149
919.535	0.0146532
919.613	0.0146568
919.691	0.0145988
919.769	0.0145956
919.847	0.0145827
919.925	0.0146344
920.003	0.0144123
920.081	0.0146394
920.160	0.0145273
920.238	0.0144823
920.316	0.0144994
920.394	0.0144859
920.472	0.0142629
920.550	0.0144247
920.628	0.0144657
920.706	0.0143572
920.785	0.0144367
920.863	0.0145393
920.941	0.0144678
921.019	0.0144233
921.097	0.0145077
921.175	0.0145218
921.253	0.0143410
921.331	0.0144692
921.410	0.0144403
921.488	0.0145240
921.566	0.0145285
921.644	0.0146162
921.722	0.0145663
921.800	0.0144933
921.878	0.0144899
921.956	0.0144207
922.035	0.0143616
922.113	0.0143929
922.191	0.0144038
922.269	0.0143517
922.347	0.0142752
922.425	0.0143830
922.503	0.0143538
922.581	0.0143385
922.660	0.0143169
922.738	0.0144222
922.816	0.0143474
922.894	0.0142557
922.972	0.0143406
923.050	0.0144382
923.128	0.0144160
923.206	0.0143095
923.285	0.0143471
923.363	0.0142926
923.441	0.0143543
923.519	0.0142474
923.597	0.0144154
923.675	0.0144422
923.753	0.0143530
923.831	0.0144630
923.910	0.0143301
923.988	0.0142950
924.066	0.0142549
924.144	0.0143990
924.222	0.0143762
924.300	0.0144507
924.378	0.0144213
924.456	0.0142664
924.535	0.0144318
924.613	0.0142309
924.691	0.0143342
924.769	0.0143322
924.847	0.0142953
924.925	0.0143287
925.003	0.0141677
925.081	0.0142354
925.160	0.0143502
925.238	0.0143154
925.316	0.0143133
925.394	0.0142900
925.472	0.0142805
925.550	0.0143719
925.628	0.0143932
925.706	0.0143536
925.785	0.0142163
925.863	0.0143934
925.941	0.0142982
926.019	0.0143796
926.097	0.0144160
926.175	0.0145136
926.253	0.0144276
926.331	0.0143360
926.410	0.0143148
926.488	0.0142560
926.566	0.0145142
926.644	0.0143018
926.722	0.0142834
926.800	0.0143088
926.878	0.0140884
926.956	0.0140329
927.035	0.0142596
927.113	0.0140863
927.191	0.0141522
927.269	0.0141289
927.347	0.0142351
927.425	0.0142726
927.503	0.0143201
927.581	0.0141587
927.660	0.0142382
927.738	0.0142264
927.816	0.0142901
927.894	0.0142086
927.972	0.0144167
928.050	0.0143825
928.128	0.0142321
928.206	0.0144086
928.285	0.0143477
928.363	0.0144579
928.441	0.0144934
928.519	0.0142484
928.597	0.0144009
928.675	0.0144112
928.753	0.0144746
928.831	0.0145824
928.910	0.0144743
928.988	0.0144984
929.066	0.0144233
929.144	0.0144213
929.222	0.0144382
929.300	0.0143671
929.378	0.0143386
929.456	0.0144019
929.535	0.0143147
929.613	0.0142297
929.691	0.0143437
929.769	0.0142200
929.847	0.0142784
929.925	0.0141708
930.003	0.0142188
930.081	0.0140597
930.160	0.0141899
930.238	0.0140158
930.316	0.0139896
930.394	0.0140845
930.472	0.0140661
930.550	0.0140742
930.628	0.0140464
930.706	0.0142412
930.785	0.0141509
930.863	0.0141112
930.941	0.0141215
931.019	0.0141096
931.097	0.0141805
931.175	0.0140911
931.253	0.0140583
931.331	0.0141681
931.410	0.0141536
931.488	0.0140978
931.566	0.0139940
931.644	0.0141298
931.722	0.0142220
931.800	0.0140449
931.878	0.0139907
931.956	0.0140148
932.035	0.0141313
932.113	0.0140127
932.191	0.0141273
932.269	0.0142789
932.347	0.0142753
932.425	0.0143523
932.503	0.0142564
932.581	0.0142602
932.660	0.0142403
932.738	0.0142067
932.816	0.0144844
932.894	0.0144121
932.972	0.0144404
933.050	0.0145463
933.128	0.0144317
933.206	0.0143980
933.285	0.0144408
933.363	0.0145537
933.441	0.0144239
933.519	0.0143460
933.597	0.0144759
933.675	0.0144198
933.753	0.0144318
933.831	0.0144757
933.910	0.0143257
933.988	0.0143852
934.066	0.0144314
934.144	0.0142259
934.222	0.0143031
934.300	0.0142915
934.378	0.0143388
934.456	0.0141554
934.535	0.0141970
934.613	0.0142763
934.691	0.0140746
934.769	0.0141271
934.847	0.0142228
934.925	0.0141991
935.003	0.0142629
935.081	0.0143353
935.160	0.0143412
935.238	0.0143304
935.316	0.0142369
935.394	0.0143353
935.472	0.0142500
935.550	0.0144439
935.628	0.0142683
935.706	0.0145471
935.785	0.0145078
935.863	0.0143758
935.941	0.0145451
936.019	0.0144926
936.097	0.0144935
936.175	0.0144858
936.253	0.0144311
936.331	0.0145213
936.410	0.0145493
936.488	0.0145085
936.566	0.0144431
936.644	0.0144350
936.722	0.0145271
936.800	0.0143555
936.878	0.0144121
936.956	0.0144125
937.035	0.0143994
937.113	0.0144283
937.191	0.0142566
937.269	0.0142448
937.347	0.0143484
937.425	0.0143946
937.503	0.0142973
937.581	0.0142764
937.660	0.0144906
937.738	0.0144800
937.816	0.0144530
937.894	0.0143295
937.972	0.0143990
938.050	0.0144418
938.128	0.0144482
938.206	0.0144527
938.285	0.0144840
938.363	0.0142998
938.441	0.0143542
938.519	0.0144617
938.597	0.0144382
938.675	0.0143736
938.753	0.0142433
938.831	0.0143549
938.910	0.0142675
938.988	0.0142693
939.066	0.0144064
939.144	0.0143897
939.222	0.0143920
939.300	0.0143484
939.378	0.0143575
939.456	0.0144246
939.535	0.0143657
939.613	0.0143317
939.691	0.0143584
939.769	0.0143805
939.847	0.0145072
939.925	0.0144360
940.003	0.0143713
940.081	0.0145007
940.160	0.0144135
940.238	0.0145451
940.316	0.0144978
940.394	0.0144582
940.472	0.0144894
940.550	0.0144602
940.628	0.0144291
940.706	0.0144119
940.785	0.0144104
940.863	0.0143255
940.941	0.0143593
941.019	0.0142743
941.097	0.0142291
941.175	0.0142101
941.253	0.0142368
941.331	0.0141695
941.410	0.0142295
941.488	0.0142841
941.566	0.0142773
941.644	0.0141931
941.722	0.0141953
941.800	0.0141499
941.878	0.0143343
941.956	0.0144731
942.035	0.0143433
942.113	0.0141836
942.191	0.0142363
942.269	0.0142545
942.347	0.0143490
942.425	0.0144491
942.503	0.0143000
942.581	0.0143481
942.660	0.0141980
942.738	0.0142307
942.816	0.0144257
942.894	0.0143344
942.972	0.0143618
943.050	0.0144118
943.128	0.0144022
943.206	0.0143224
943.285	0.0145290
943.363	0.0143362
943.441	0.0143565
943.519	0.0143584
943.597	0.0144176
943.675	0.0144167
943.753	0.0144984
943.831	0.0143868
943.910	0.0144435
943.988	0.0145560
944.066	0.0143769
944.144	0.0143471
944.222	0.0143129
944.300	0.0144518
944.378	0.0143582
944.456	0.0144402
944.535	0.0145123
944.613	0.0145138
944.691	0.0144334
944.769	0.0144279
944.847	0.0145805
944.925	0.0145602
945.003	0.0144633
945.081	0.0144867
945.160	0.0145811
945.238	0.0146337
945.316	0.0145391
945.394	0.0144894
945.472	0.0144952
945.550	0.0144732
945.628	0.0144304
945.706	0.0143723
945.785	0.0144858
945.863	0.0144630
945.941	0.0143848
946.019	0.0142624
946.097	0.0144360
946.175	0.0143044
946.253	0.0143289
946.331	0.0143604
946.410	0.0144517
946.488	0.0143276
946.566	0.0144211
946.644	0.0144500
946.722	0.0144457
946.800	0.0142296
946.878	0.0143812
946.956	0.0143947
947.035	0.0143037
947.113	0.0143221
947.191	0.0142687
947.269	0.0143010
947.347	0.0142428
947.425	0.0142661
947.503	0.0142146
947.581	0.0142651
947.660	0.0142139
947.738	0.0143024
947.816	0.0143707
947.894	0.0143634
947.972	0.0143045
948.050	0.0142776
948.128	0.0141296
948.206	0.0141505
948.285	0.0142670
948.363	0.0142215
948.441	0.0142117
948.519	0.0142161
948.597	0.0142229
948.675	0.0142671
948.753	0.0143467
948.831	0.0142105
948.910	0.0142239
948.988	0.0142445
949.066	0.0141511
949.144	0.0142429
949.222	0.0142630
949.300	0.0142761
949.378	0.0144211
949.456	0.0142406
949.535	0.0141196
949.613	0.0142557
949.691	0.0144686
949.769	0.0142896
949.847	0.0142821
949.925	0.0144418
950.003	0.0144933
950.081	0.0143887
950.160	0.0144960
950.238	0.0144347
950.316	0.0144982
950.394	0.0143998
950.472	0.0143770
950.550	0.0145373
950.628	0.0144894
950.706	0.0144737
950.785	0.0145719
950.863	0.0144274
950.941	0.0142934
951.019	0.0143050
951.097	0.0144661
951.175	0.0144780
951.253	0.0144123
951.331	0.0143307
951.410	0.0143726
951.488	0.0142552
951.566	0.0143317
951.644	0.0142945
951.722	0.0142715
951.800	0.0142601
951.878	0.0144633
951.956	0.0143613
952.035	0.0144931
952.113	0.0144049
952.191	0.0143449
952.269	0.0142156
952.347	0.0144014
952.425	0.0142586
952.503	0.0143258
952.581	0.0142230
952.660	0.0142829
952.738	0.0141714
952.816	0.0141991
952.894	0.0142484
952.972	0.0140862
953.050	0.0141098
953.128	0.0141132
953.206	0.0141123
953.285	0.0139789
953.363	0.0140857
953.441	0.0140039
953.519	0.0139946
953.597	0.0140313
953.675	0.0140888
953.753	0.0140720
953.831	0.0141904
953.910	0.0140570
953.988	0.0142062
954.066	0.0142579
954.144	0.0142120
954.222	0.0142953
954.300	0.0142657
954.378	0.0143888
954.456	0.0142270
954.535	0.0144580
954.613	0.0145309
954.691	0.0145028
954.769	0.0145347
954.847	0.0143375
954.925	0.0144505
955.003	0.0144801
955.081	0.0144072
955.160	0.0145421
955.238	0.0145678
955.316	0.0144639
955.394	0.0144518
955.472	0.0143066
955.550	0.0143399
955.628	0.0144576
955.706	0.0142548
955.785	0.0143108
955.863	0.0142244
955.941	0.0143195
956.019	0.0142752
956.097	0.0143816
956.175	0.0142889
956.253	0.0142993
956.331	0.0143212
956.410	0.0144273
956.488	0.0144232
956.566	0.0143394
956.644	0.0143326
956.722	0.0143705
956.800	0.0142924
956.878	0.0144888
956.956	0.0146496
957.035	0.0145307
957.113	0.0144237
957.191	0.0146512
957.269	0.0144833
957.347	0.0145065
957.425	0.0145246
957.503	0.0143596
957.581	0.0145159
957.660	0.0144952
957.738	0.0144695
957.816	0.0144130
957.894	0.0144167
957.972	0.0144559
958.050	0.0145345
958.128	0.0145683
958.206	0.0143488
958.285	0.0143551
958.363	0.0143955
958.441	0.0144691
958.519	0.0143501
958.597	0.0143581
958.675	0.0143715
958.753	0.0143682
958.831	0.0143763
958.910	0.0144508
958.988	0.0144229
959.066	0.0142343
959.144	0.0141901
959.222	0.0142677
959.300	0.0142702
959.378	0.0142234
959.456	0.0141534
959.535	0.0141825
959.613	0.0141914
959.691	0.0141660
959.769	0.0141373
959.847	0.0142493
959.925	0.0143547
960.003	0.0142844
960.081	0.0141150
960.160	0.0142847
960.238	0.0143401
960.316	0.0141942
960.394	0.0142469
960.472	0.0143331
960.550	0.0143296
960.628	0.0143585
960.706	0.0143063
960.785	0.0143579
960.863	0.0143554
960.941	0.0142903
961.019	0.0144014
961.097	0.0143860
961.175	0.0144846
961.253	0.0143945
961.331	0.0144919
961.410	0.0144853
961.488	0.0145947
961.566	0.0145747
961.644	0.0146793
961.722	0.0145309
961.800	0.0143842
961.878	0.0145554
961.956	0.0146211
962.035	0.0146307
962.113	0.0143402
962.191	0.0145631
962.269	0.0145164
962.347	0.0145309
962.425	0.0146279
962.503	0.0144425
962.581	0.0142151
962.660	0.0144334
962.738	0.0143104
962.816	0.0142264
962.894	0.0142172
962.972	0.0141764
963.050	0.0142659
963.128	0.0141579
963.206	0.0142303
963.285	0.0142981
963.363	0.0142519
963.441	0.0143317
963.519	0.0143338
963.597	0.0143016
963.675	0.0142524
963.753	0.0143820
963.831	0.0143172
963.910	0.0143710
963.988	0.0144081
964.066	0.0143609
964.144	0.0143537
964.222	0.0142818
964.300	0.0142885
964.378	0.0143449
964.456	0.0144919
964.535	0.0143979
964.613	0.0143780
964.691	0.0144891
964.769	0.0144145
964.847	0.0143976
964.925	0.0144360
965.003	0.0145943
965.081	0.0145447
965.160	0.0144836
965.238	0.0145010
965.316	0.0145897
965.394	0.0143125
965.472	0.0143835
965.550	0.0145850
965.628	0.0144510
965.706	0.0143609
965.785	0.0144173
965.863	0.0143423
965.941	0.0142101
966.019	0.0142444
966.097	0.0143810
966.175	0.0143587
966.253	0.0143326
966.331	0.0143144
966.410	0.0142899
966.488	0.0142315
966.566	0.0142545
966.644	0.0142403
966.722	0.0144508
966.800	0.0142243
966.878	0.0142319
966.956	0.0142297
967.035	0.0142590
967.113	0.0144683
967.191	0.0144012
967.269	0.0142835
967.347	0.0142707
967.425	0.0143452
967.503	0.0144970
967.581	0.0143742
967.660	0.0144311
967.738	0.0145443
967.816	0.0144471
967.894	0.0143624
967.972	0.0145367
968.050	0.0145268
968.128	0.0144929
968.206	0.0145861
968.285	0.0146056
968.363	0.0145039
968.441	0.0145506
968.519	0.0144846
968.597	0.0145390
968.675	0.0144263
968.753	0.0144953
968.831	0.0143643
968.910	0.0143254
968.988	0.0144156
969.066	0.0143987
969.144	0.0143329
969.222	0.0144650
969.300	0.0143162
969.378	0.0143025
969.456	0.0142667
969.535	0.0142052
969.613	0.0142150
969.691	0.0141913
969.769	0.0141639
969.847	0.0142130
969.925	0.0141380
970.003	0.0141742
970.081	0.0141460
970.160	0.0141325
970.238	0.0141497
970.316	0.0140330
970.394	0.0140252
970.472	0.0143065
970.550	0.0142202
970.628	0.0142266
970.706	0.0141172
970.785	0.0141662
970.863	0.0142592
970.941	0.0142311
971.019	0.0141328
971.097	0.0141071
971.175	0.0142480
971.253	0.0141729
971.331	0.0141406
971.410	0.0141508
971.488	0.0141892
971.566	0.0141714
971.644	0.0142725
971.722	0.0143336
971.800	0.0142528
971.878	0.0142102
971.956	0.0142670
972.035	0.0143887
972.113	0.0143790
972.191	0.0142361
972.269	0.0143965
972.347	0.0142677
972.425	0.0144260
972.503	0.0143784
972.581	0.0143134
972.660	0.0143616
972.738	0.0144624
972.816	0.0143027
972.894	0.0143270
972.972	0.0143230
973.050	0.0143232
973.128	0.0143060
973.206	0.0141046
973.285	0.0142315
973.363	0.0141656
973.441	0.0140675
973.519	0.0142233
973.597	0.0142108
973.675	0.0140982
973.753	0.0142018
973.831	0.0140824
973.910	0.0142764
973.988	0.0142890
974.066	0.0143380
974.144	0.0142524
974.222	0.0144496
974.300	0.0142768
974.378	0.0144890
974.456	0.0145339
974.535	0.0144297
974.613	0.0144134
974.691	0.0144953
974.769	0.0145168
974.847	0.0146021
974.925	0.0144758
975.003	0.0145842
975.081	0.0146613
975.160	0.0146384
975.238	0.0145786
975.316	0.0146129
975.394	0.0145272
975.472	0.0146438
975.550	0.0145759
975.628	0.0144927
975.706	0.0146296
975.785	0.0145865
975.863	0.0143509
975.941	0.0145944
976.019	0.0144910
976.097	0.0145967
976.175	0.0143707
976.253	0.0143028
976.331	0.0144994
976.410	0.0142741
976.488	0.0143417
976.566	0.0143733
976.644	0.0144184
976.722	0.0143944
976.800	0.0142928
976.878	0.0143459
976.956	0.0142860
977.035	0.0143456
977.113	0.0144436
977.191	0.0144119
977.269	0.0142989
977.347	0.0141648
977.425	0.0142405
977.503	0.0142817
977.581	0.0142044
977.660	0.0140495
977.738	0.0140846
977.816	0.0139694
977.894	0.0139796
977.972	0.0140339
978.050	0.0139251
978.128	0.0140070
978.206	0.0140012
978.285	0.0140585
978.363	0.0140399
978.441	0.0140151
978.519	0.0140814
978.597	0.0141399
978.675	0.0142132
978.753	0.0142884
978.831	0.0141984
978.910	0.0141991
978.988	0.0144060
979.066	0.0143789
979.144	0.0142824
979.222	0.0143839
979.300	0.0145905
979.378	0.0145092
979.456	0.0143736
979.535	0.0145422
979.613	0.0146286
979.691	0.0146200
979.769	0.0145020
979.847	0.0145245
979.925	0.0144930
