05/03/2022	20:36:22	Ver.	4.1	UNKNOWN
Optical Delay	660.003261	Delta X		0.078125	Sweeps	1	Scan Rate	0/0
Coordinates	Axis 1	NaN	Axis 2	NaN	Axis 3	NaN	Axis 4	NaN	Axis 5	NaN	Axis 6	0.000000
TX Power	0.000000	RX Power	0.000000

660.003	0.0141973
660.081	0.0142632
660.160	0.0143483
660.238	0.0141789
660.316	0.0142682
660.394	0.0141830
660.472	0.0141793
660.550	0.0141209
660.628	0.0141883
660.706	0.0141756
660.785	0.0142274
660.863	0.0142691
660.941	0.0142226
661.019	0.0141850
661.097	0.0142520
661.175	0.0142941
661.253	0.0141805
661.331	0.0141257
661.410	0.0143185
661.488	0.0142013
661.566	0.0141891
661.644	0.0141921
661.722	0.0142633
661.800	0.0143771
661.878	0.0141177
661.956	0.0141813
662.035	0.0142074
662.113	0.0142236
662.191	0.0141039
662.269	0.0141502
662.347	0.0142538
662.425	0.0141619
662.503	0.0141979
662.581	0.0140854
662.660	0.0141938
662.738	0.0141646
662.816	0.0141236
662.894	0.0143861
662.972	0.0141858
663.050	0.0142315
663.128	0.0141366
663.206	0.0142638
663.285	0.0141557
663.363	0.0140397
663.441	0.0140208
663.519	0.0141418
663.597	0.0141392
663.675	0.0141992
663.753	0.0141477
663.831	0.0141222
663.910	0.0140952
663.988	0.0142036
664.066	0.0142802
664.144	0.0142168
664.222	0.0141570
664.300	0.0140396
664.378	0.0141444
664.456	0.0141813
664.535	0.0142500
664.613	0.0140820
664.691	0.0139989
664.769	0.0141405
664.847	0.0142932
664.925	0.0142386
665.003	0.0142171
665.081	0.0141259
665.160	0.0141070
665.238	0.0141756
665.316	0.0142316
665.394	0.0141910
665.472	0.0141805
665.550	0.0141148
665.628	0.0142586
665.706	0.0142615
665.785	0.0143010
665.863	0.0141670
665.941	0.0141100
666.019	0.0142139
666.097	0.0142212
666.175	0.0141166
666.253	0.0142477
666.331	0.0142625
666.410	0.0141478
666.488	0.0141468
666.566	0.0143127
666.644	0.0141743
666.722	0.0142934
666.800	0.0141796
666.878	0.0143368
666.956	0.0142839
667.035	0.0142937
667.113	0.0142475
667.191	0.0142849
667.269	0.0141605
667.347	0.0143065
667.425	0.0142982
667.503	0.0142953
667.581	0.0141068
667.660	0.0141904
667.738	0.0143761
667.816	0.0143917
667.894	0.0141541
667.972	0.0141612
668.050	0.0141449
668.128	0.0141102
668.206	0.0140379
668.285	0.0142947
668.363	0.0141042
668.441	0.0142651
668.519	0.0143140
668.597	0.0142452
668.675	0.0142319
668.753	0.0142917
668.831	0.0141306
668.910	0.0142813
668.988	0.0141985
669.066	0.0142526
669.144	0.0141275
669.222	0.0141656
669.300	0.0142605
669.378	0.0143382
669.456	0.0142213
669.535	0.0142068
669.613	0.0142685
669.691	0.0141543
669.769	0.0141631
669.847	0.0142728
669.925	0.0143177
670.003	0.0142830
670.081	0.0141942
670.160	0.0142956
670.238	0.0143778
670.316	0.0142964
670.394	0.0142812
670.472	0.0142288
670.550	0.0142516
670.628	0.0142656
670.706	0.0142216
670.785	0.0142747
670.863	0.0142366
670.941	0.0142696
671.019	0.0142885
671.097	0.0142366
671.175	0.0141888
671.253	0.0142204
671.331	0.0141098
671.410	0.0142285
671.488	0.0142674
671.566	0.0143272
671.644	0.0142334
671.722	0.0142639
671.800	0.0142098
671.878	0.0141740
671.956	0.0142231
672.035	0.0142429
672.113	0.0142051
672.191	0.0141834
672.269	0.0142220
672.347	0.0142277
672.425	0.0142235
672.503	0.0142377
672.581	0.0141393
672.660	0.0141383
672.738	0.0141698
672.816	0.0142207
672.894	0.0141964
672.972	0.0141759
673.050	0.0141847
673.128	0.0140686
673.206	0.0141310
673.285	0.0142557
673.363	0.0143307
673.441	0.0141956
673.519	0.0143229
673.597	0.0141582
673.675	0.0142484
673.753	0.0141850
673.831	0.0142459
673.910	0.0143372
673.988	0.0141579
674.066	0.0141974
674.144	0.0142900
674.222	0.0142743
674.300	0.0143270
674.378	0.0144562
674.456	0.0142898
674.535	0.0143037
674.613	0.0142461
674.691	0.0141918
674.769	0.0143073
674.847	0.0143922
674.925	0.0141901
675.003	0.0141688
675.081	0.0142422
675.160	0.0143420
675.238	0.0142451
675.316	0.0143949
675.394	0.0141306
675.472	0.0142745
675.550	0.0141550
675.628	0.0142616
675.706	0.0143655
675.785	0.0143530
675.863	0.0140913
675.941	0.0142277
676.019	0.0142687
676.097	0.0141766
676.175	0.0141699
676.253	0.0141951
676.331	0.0143405
676.410	0.0142616
676.488	0.0142803
676.566	0.0142396
676.644	0.0141679
676.722	0.0142723
676.800	0.0142645
676.878	0.0143166
676.956	0.0142269
677.035	0.0143138
677.113	0.0143652
677.191	0.0143334
677.269	0.0141793
677.347	0.0143511
677.425	0.0143259
677.503	0.0143335
677.581	0.0143582
677.660	0.0142723
677.738	0.0143103
677.816	0.0143883
677.894	0.0141748
677.972	0.0143856
678.050	0.0143629
678.128	0.0141622
678.206	0.0142991
678.285	0.0143687
678.363	0.0143198
678.441	0.0142299
678.519	0.0142594
678.597	0.0143153
678.675	0.0142918
678.753	0.0143223
678.831	0.0142309
678.910	0.0141300
678.988	0.0142464
679.066	0.0142196
679.144	0.0143318
679.222	0.0142529
679.300	0.0141675
679.378	0.0142741
679.456	0.0142548
679.535	0.0142420
679.613	0.0141550
679.691	0.0141278
679.769	0.0141231
679.847	0.0139703
679.925	0.0141874
680.003	0.0141935
680.081	0.0140763
680.160	0.0141058
680.238	0.0141857
680.316	0.0140620
680.394	0.0141233
680.472	0.0140339
680.550	0.0141198
680.628	0.0141209
680.706	0.0142503
680.785	0.0141494
680.863	0.0141287
680.941	0.0141447
681.019	0.0141673
681.097	0.0141309
681.175	0.0141895
681.253	0.0140808
681.331	0.0141512
681.410	0.0140387
681.488	0.0141416
681.566	0.0141695
681.644	0.0142187
681.722	0.0141879
681.800	0.0141055
681.878	0.0141031
681.956	0.0142043
682.035	0.0141637
682.113	0.0140571
682.191	0.0141790
682.269	0.0141812
682.347	0.0141492
682.425	0.0141931
682.503	0.0142178
682.581	0.0143593
682.660	0.0143867
682.738	0.0141991
682.816	0.0143935
682.894	0.0144500
682.972	0.0143118
683.050	0.0143636
683.128	0.0144357
683.206	0.0144627
683.285	0.0143660
683.363	0.0143210
683.441	0.0143629
683.519	0.0144804
683.597	0.0143277
683.675	0.0141842
683.753	0.0141920
683.831	0.0142646
683.910	0.0141064
683.988	0.0141646
684.066	0.0141797
684.144	0.0139709
684.222	0.0141511
684.300	0.0140442
684.378	0.0141177
684.456	0.0141582
684.535	0.0142062
684.613	0.0141390
684.691	0.0142371
684.769	0.0142216
684.847	0.0141746
684.925	0.0141679
685.003	0.0142155
685.081	0.0142296
685.160	0.0143635
685.238	0.0143634
685.316	0.0143014
685.394	0.0142597
685.472	0.0143682
685.550	0.0144666
685.628	0.0142878
685.706	0.0145298
685.785	0.0143822
685.863	0.0144789
685.941	0.0145170
686.019	0.0144031
686.097	0.0144042
686.175	0.0144399
686.253	0.0143942
686.331	0.0144528
686.410	0.0144651
686.488	0.0143813
686.566	0.0143428
686.644	0.0143027
686.722	0.0143543
686.800	0.0141886
686.878	0.0141151
686.956	0.0140415
687.035	0.0141190
687.113	0.0140659
687.191	0.0141308
687.269	0.0141190
687.347	0.0140532
687.425	0.0139449
687.503	0.0141422
687.581	0.0141175
687.660	0.0142339
687.738	0.0141643
687.816	0.0142336
687.894	0.0140297
687.972	0.0141786
688.050	0.0143922
688.128	0.0141875
688.206	0.0141905
688.285	0.0141973
688.363	0.0143230
688.441	0.0142754
688.519	0.0141404
688.597	0.0142385
688.675	0.0142142
688.753	0.0141963
688.831	0.0142445
688.910	0.0142038
688.988	0.0141340
689.066	0.0140972
689.144	0.0140739
689.222	0.0141628
689.300	0.0142498
689.378	0.0142263
689.456	0.0142809
689.535	0.0142485
689.613	0.0143787
689.691	0.0143861
689.769	0.0144069
689.847	0.0144964
689.925	0.0144065
690.003	0.0145490
690.081	0.0144955
690.160	0.0146090
690.238	0.0145464
690.316	0.0143944
690.394	0.0144493
690.472	0.0144560
690.550	0.0146285
690.628	0.0144744
690.706	0.0143455
690.785	0.0142711
690.863	0.0143486
690.941	0.0143978
691.019	0.0141434
691.097	0.0140407
691.175	0.0139986
691.253	0.0139992
691.331	0.0140427
691.410	0.0139934
691.488	0.0139967
691.566	0.0139931
691.644	0.0139046
691.722	0.0139730
691.800	0.0139594
691.878	0.0138702
691.956	0.0139931
692.035	0.0139613
692.113	0.0139921
692.191	0.0139847
692.269	0.0139713
692.347	0.0141001
692.425	0.0140143
692.503	0.0141991
692.581	0.0141826
692.660	0.0143110
692.738	0.0143214
692.816	0.0144112
692.894	0.0144329
692.972	0.0143420
693.050	0.0143954
693.128	0.0144096
693.206	0.0142681
693.285	0.0143283
693.363	0.0142910
693.441	0.0143351
693.519	0.0143849
693.597	0.0143060
693.675	0.0143834
693.753	0.0142453
693.831	0.0142870
693.910	0.0143870
693.988	0.0141786
694.066	0.0141550
694.144	0.0142316
694.222	0.0142836
694.300	0.0141466
694.378	0.0141168
694.456	0.0142097
694.535	0.0143110
694.613	0.0143595
694.691	0.0143294
694.769	0.0144260
694.847	0.0144854
694.925	0.0145889
695.003	0.0144183
695.081	0.0142900
695.160	0.0142966
695.238	0.0144514
695.316	0.0143355
695.394	0.0142653
695.472	0.0142535
695.550	0.0141486
695.628	0.0141572
695.706	0.0141922
695.785	0.0141878
695.863	0.0139391
695.941	0.0140610
696.019	0.0139952
696.097	0.0139037
696.175	0.0137949
696.253	0.0138258
696.331	0.0138727
696.410	0.0139055
696.488	0.0138100
696.566	0.0139163
696.644	0.0139769
696.722	0.0139926
696.800	0.0139812
696.878	0.0140984
696.956	0.0142645
697.035	0.0140512
697.113	0.0142396
697.191	0.0141842
697.269	0.0143421
697.347	0.0144009
697.425	0.0144650
697.503	0.0144647
697.581	0.0146323
697.660	0.0145577
697.738	0.0146478
697.816	0.0145775
697.894	0.0146278
697.972	0.0145889
698.050	0.0146049
698.128	0.0144313
698.206	0.0143592
698.285	0.0143792
698.363	0.0140004
698.441	0.0140575
698.519	0.0139920
698.597	0.0138415
698.675	0.0138013
698.753	0.0137073
698.831	0.0138714
698.910	0.0139854
698.988	0.0139156
699.066	0.0138774
699.144	0.0139973
699.222	0.0142023
699.300	0.0143776
699.378	0.0144780
699.456	0.0144504
699.535	0.0143941
699.613	0.0144991
699.691	0.0146609
699.769	0.0145962
699.847	0.0144595
699.925	0.0145337
700.003	0.0146587
700.081	0.0145113
700.160	0.0142648
700.238	0.0143472
700.316	0.0143171
700.394	0.0142467
700.472	0.0143410
700.550	0.0142566
700.628	0.0142660
700.706	0.0143287
700.785	0.0141572
700.863	0.0140778
700.941	0.0141382
701.019	0.0140221
701.097	0.0141114
701.175	0.0140701
701.253	0.0141316
701.331	0.0140407
701.410	0.0140668
701.488	0.0139836
701.566	0.0141290
701.644	0.0140838
701.722	0.0141061
701.800	0.0139247
701.878	0.0140312
701.956	0.0140369
702.035	0.0140265
702.113	0.0140947
702.191	0.0140035
702.269	0.0140080
702.347	0.0140556
702.425	0.0140328
702.503	0.0140303
702.581	0.0141246
702.660	0.0139685
702.738	0.0140817
702.816	0.0143101
702.894	0.0143064
702.972	0.0142104
703.050	0.0143388
703.128	0.0142605
703.206	0.0143791
703.285	0.0144297
703.363	0.0143751
703.441	0.0145248
703.519	0.0143700
703.597	0.0143849
703.675	0.0144791
703.753	0.0143690
703.831	0.0142516
703.910	0.0141114
703.988	0.0141025
704.066	0.0141170
704.144	0.0140897
704.222	0.0140770
704.300	0.0141332
704.378	0.0141489
704.456	0.0140867
704.535	0.0141679
704.613	0.0141312
704.691	0.0144207
704.769	0.0144073
704.847	0.0142901
704.925	0.0143862
705.003	0.0145771
705.081	0.0145091
705.160	0.0145110
705.238	0.0146198
705.316	0.0147019
705.394	0.0145367
705.472	0.0146429
705.550	0.0145277
705.628	0.0144045
705.706	0.0146173
705.785	0.0144038
705.863	0.0143577
705.941	0.0142829
706.019	0.0142437
706.097	0.0141211
706.175	0.0139754
706.253	0.0139902
706.331	0.0140150
706.410	0.0141586
706.488	0.0142014
706.566	0.0143236
706.644	0.0144347
706.722	0.0145757
706.800	0.0146339
706.878	0.0146278
706.956	0.0145735
707.035	0.0147314
707.113	0.0144918
707.191	0.0145622
707.269	0.0145178
707.347	0.0143710
707.425	0.0141412
707.503	0.0143276
707.581	0.0142268
707.660	0.0141159
707.738	0.0139376
707.816	0.0139575
707.894	0.0139804
707.972	0.0138462
708.050	0.0139455
708.128	0.0139002
708.206	0.0140433
708.285	0.0139103
708.363	0.0140686
708.441	0.0139921
708.519	0.0139646
708.597	0.0141929
708.675	0.0140707
708.753	0.0140701
708.831	0.0141559
708.910	0.0143690
708.988	0.0144534
709.066	0.0144501
709.144	0.0142848
709.222	0.0144429
709.300	0.0146057
709.378	0.0145374
709.456	0.0144641
709.535	0.0144398
709.613	0.0144921
709.691	0.0144297
709.769	0.0145567
709.847	0.0144661
709.925	0.0144363
710.003	0.0143357
710.081	0.0143004
710.160	0.0142559
710.238	0.0144547
710.316	0.0142850
710.394	0.0141353
710.472	0.0143011
710.550	0.0141737
710.628	0.0140809
710.706	0.0143383
710.785	0.0142035
710.863	0.0143011
710.941	0.0143736
711.019	0.0144124
711.097	0.0144649
711.175	0.0145150
711.253	0.0145738
711.331	0.0146306
711.410	0.0148121
711.488	0.0148026
711.566	0.0146958
711.644	0.0147060
711.722	0.0146375
711.800	0.0144270
711.878	0.0144523
711.956	0.0143706
712.035	0.0142284
712.113	0.0141512
712.191	0.0141051
712.269	0.0140708
712.347	0.0140438
712.425	0.0140343
712.503	0.0141120
712.581	0.0142401
712.660	0.0142139
712.738	0.0142359
712.816	0.0145780
712.894	0.0145866
712.972	0.0145187
713.050	0.0145036
713.128	0.0145781
713.206	0.0145216
713.285	0.0145199
713.363	0.0146348
713.441	0.0143403
713.519	0.0143112
713.597	0.0142658
713.675	0.0141303
713.753	0.0140556
713.831	0.0138553
713.910	0.0135254
713.988	0.0136930
714.066	0.0137621
714.144	0.0136646
714.222	0.0135769
714.300	0.0136232
714.378	0.0137686
714.456	0.0137565
714.535	0.0138134
714.613	0.0138853
714.691	0.0139328
714.769	0.0138795
714.847	0.0139191
714.925	0.0140146
715.003	0.0139652
715.081	0.0140475
715.160	0.0140250
715.238	0.0141130
715.316	0.0142414
715.394	0.0141711
715.472	0.0142110
715.550	0.0141261
715.628	0.0143602
715.706	0.0143600
715.785	0.0142385
715.863	0.0142146
715.941	0.0142814
716.019	0.0143737
716.097	0.0143948
716.175	0.0142750
716.253	0.0141345
716.331	0.0141558
716.410	0.0141810
716.488	0.0142380
716.566	0.0140350
716.644	0.0141145
716.722	0.0140362
716.800	0.0142413
716.878	0.0143439
716.956	0.0143755
717.035	0.0144751
717.113	0.0143450
717.191	0.0142305
717.269	0.0145734
717.347	0.0144852
717.425	0.0145470
717.503	0.0145995
717.581	0.0145719
717.660	0.0145589
717.738	0.0145683
717.816	0.0145741
717.894	0.0145883
717.972	0.0144145
718.050	0.0142944
718.128	0.0143524
718.206	0.0143475
718.285	0.0143987
718.363	0.0141712
718.441	0.0142002
718.519	0.0141022
718.597	0.0141366
718.675	0.0140778
718.753	0.0142239
718.831	0.0143519
718.910	0.0142501
718.988	0.0142538
719.066	0.0143740
719.144	0.0144196
719.222	0.0143996
719.300	0.0145487
719.378	0.0144487
719.456	0.0145195
719.535	0.0143318
719.613	0.0144016
719.691	0.0143077
719.769	0.0141626
719.847	0.0140116
719.925	0.0140259
720.003	0.0138652
720.081	0.0139564
720.160	0.0137934
720.238	0.0136372
720.316	0.0135249
720.394	0.0135799
720.472	0.0135516
720.550	0.0135368
720.628	0.0135065
720.706	0.0135813
720.785	0.0137104
720.863	0.0137226
720.941	0.0137542
721.019	0.0139400
721.097	0.0139400
721.175	0.0141026
721.253	0.0139332
721.331	0.0140105
721.410	0.0142944
721.488	0.0140985
721.566	0.0142011
721.644	0.0142039
721.722	0.0142799
721.800	0.0141903
721.878	0.0143622
721.956	0.0144708
722.035	0.0141538
722.113	0.0143511
722.191	0.0143391
722.269	0.0142158
722.347	0.0142547
722.425	0.0144073
722.503	0.0143311
722.581	0.0142654
722.660	0.0142522
722.738	0.0143275
722.816	0.0143520
722.894	0.0144355
722.972	0.0144707
723.050	0.0145217
723.128	0.0145779
723.206	0.0145132
723.285	0.0145794
723.363	0.0146857
723.441	0.0146298
723.519	0.0147011
723.597	0.0147739
723.675	0.0147711
723.753	0.0147672
723.831	0.0146750
723.910	0.0145853
723.988	0.0145128
724.066	0.0144630
724.144	0.0144788
724.222	0.0142388
724.300	0.0144283
724.378	0.0142712
724.456	0.0142242
724.535	0.0141787
724.613	0.0140694
724.691	0.0140363
724.769	0.0141124
724.847	0.0141920
724.925	0.0139897
725.003	0.0140076
725.081	0.0141286
725.160	0.0142951
725.238	0.0141409
725.316	0.0141936
725.394	0.0142267
725.472	0.0142281
725.550	0.0142747
725.628	0.0142475
725.706	0.0142594
725.785	0.0141758
725.863	0.0142145
725.941	0.0141580
726.019	0.0141505
726.097	0.0140738
726.175	0.0139909
726.253	0.0139613
726.331	0.0139645
726.410	0.0138614
726.488	0.0138852
726.566	0.0137279
726.644	0.0136256
726.722	0.0137133
726.800	0.0135584
726.878	0.0135963
726.956	0.0135381
727.035	0.0136446
727.113	0.0137162
727.191	0.0138200
727.269	0.0136928
727.347	0.0138120
727.425	0.0138495
727.503	0.0140929
727.581	0.0142107
727.660	0.0141753
727.738	0.0141906
727.816	0.0142484
727.894	0.0143256
727.972	0.0142796
728.050	0.0143796
728.128	0.0143504
728.206	0.0143806
728.285	0.0143594
728.363	0.0143044
728.441	0.0143771
728.519	0.0142630
728.597	0.0143993
728.675	0.0143095
728.753	0.0142870
728.831	0.0143591
728.910	0.0143683
728.988	0.0144995
729.066	0.0145664
729.144	0.0144938
729.222	0.0145081
729.300	0.0146432
729.378	0.0147553
729.456	0.0146618
729.535	0.0148866
729.613	0.0150789
729.691	0.0149207
729.769	0.0149028
729.847	0.0149889
729.925	0.0149624
730.003	0.0147875
730.081	0.0148798
730.160	0.0149234
730.238	0.0148764
730.316	0.0146409
730.394	0.0148113
730.472	0.0147186
730.550	0.0145916
730.628	0.0145523
730.706	0.0144343
730.785	0.0144594
730.863	0.0144699
730.941	0.0144517
731.019	0.0144325
731.097	0.0144294
731.175	0.0144118
731.253	0.0145328
731.331	0.0144282
731.410	0.0144911
731.488	0.0143533
731.566	0.0143899
731.644	0.0143788
731.722	0.0142162
731.800	0.0143985
731.878	0.0143069
731.956	0.0142198
732.035	0.0142060
732.113	0.0142635
732.191	0.0143050
732.269	0.0141589
732.347	0.0139304
732.425	0.0138968
732.503	0.0140279
732.581	0.0139201
732.660	0.0138653
732.738	0.0140134
732.816	0.0138342
732.894	0.0138065
732.972	0.0139116
733.050	0.0138029
733.128	0.0137725
733.206	0.0138235
733.285	0.0137624
733.363	0.0138821
733.441	0.0139238
733.519	0.0137453
733.597	0.0137833
733.675	0.0137828
733.753	0.0138708
733.831	0.0139057
733.910	0.0139815
733.988	0.0139458
734.066	0.0139901
734.144	0.0139719
734.222	0.0140284
734.300	0.0140919
734.378	0.0140972
734.456	0.0141573
734.535	0.0141912
734.613	0.0142173
734.691	0.0142898
734.769	0.0143499
734.847	0.0141415
734.925	0.0142625
735.003	0.0142294
735.081	0.0141386
735.160	0.0142275
735.238	0.0141862
735.316	0.0143288
735.394	0.0143806
735.472	0.0143542
735.550	0.0143904
735.628	0.0142828
735.706	0.0145460
735.785	0.0145863
735.863	0.0145850
735.941	0.0146694
736.019	0.0147522
736.097	0.0146870
736.175	0.0148128
736.253	0.0148071
736.331	0.0148975
736.410	0.0148655
736.488	0.0146587
736.566	0.0148100
736.644	0.0147386
736.722	0.0147463
736.800	0.0145959
736.878	0.0145137
736.956	0.0144797
737.035	0.0144598
737.113	0.0142728
737.191	0.0143551
737.269	0.0144062
737.347	0.0143172
737.425	0.0141883
737.503	0.0143748
737.581	0.0142874
737.660	0.0141728
737.738	0.0141650
737.816	0.0141938
737.894	0.0141592
737.972	0.0141642
738.050	0.0141469
738.128	0.0142332
738.206	0.0143005
738.285	0.0142036
738.363	0.0140636
738.441	0.0139114
738.519	0.0139792
738.597	0.0140837
738.675	0.0139334
738.753	0.0139522
738.831	0.0137001
738.910	0.0136776
738.988	0.0138721
739.066	0.0138232
739.144	0.0136944
739.222	0.0138054
739.300	0.0138052
739.378	0.0138246
739.456	0.0138121
739.535	0.0140014
739.613	0.0140320
739.691	0.0138602
739.769	0.0138383
739.847	0.0138728
739.925	0.0138687
740.003	0.0139274
740.081	0.0139140
740.160	0.0139251
740.238	0.0139707
740.316	0.0139195
740.394	0.0139305
740.472	0.0138963
740.550	0.0140004
740.628	0.0140279
740.706	0.0140939
740.785	0.0140590
740.863	0.0140617
740.941	0.0141066
741.019	0.0141113
741.097	0.0142493
741.175	0.0141313
741.253	0.0141343
741.331	0.0142142
741.410	0.0141946
741.488	0.0142410
741.566	0.0144061
741.644	0.0142918
741.722	0.0143597
741.800	0.0143530
741.878	0.0145210
741.956	0.0145141
742.035	0.0144544
742.113	0.0145547
742.191	0.0146513
742.269	0.0144887
742.347	0.0147771
742.425	0.0147107
742.503	0.0148106
742.581	0.0147427
742.660	0.0147144
742.738	0.0148112
742.816	0.0147917
742.894	0.0146610
742.972	0.0148407
743.050	0.0147288
743.128	0.0145621
743.206	0.0147144
743.285	0.0146849
743.363	0.0146358
743.441	0.0145636
743.519	0.0145090
743.597	0.0144611
743.675	0.0144251
743.753	0.0143775
743.831	0.0143221
743.910	0.0143514
743.988	0.0142826
744.066	0.0143717
744.144	0.0143584
744.222	0.0143118
744.300	0.0143459
744.378	0.0141567
744.456	0.0141819
744.535	0.0142694
744.613	0.0140926
744.691	0.0141039
744.769	0.0140189
744.847	0.0138975
744.925	0.0138924
745.003	0.0138264
745.081	0.0137131
745.160	0.0137023
745.238	0.0136651
745.316	0.0136571
745.394	0.0135962
745.472	0.0136306
745.550	0.0135854
745.628	0.0136787
745.706	0.0137473
745.785	0.0137648
745.863	0.0138377
745.941	0.0137459
746.019	0.0137674
746.097	0.0138233
746.175	0.0138346
746.253	0.0138499
746.331	0.0138223
746.410	0.0138957
746.488	0.0138041
746.566	0.0139085
746.644	0.0138528
746.722	0.0138116
746.800	0.0138423
746.878	0.0139052
746.956	0.0139899
747.035	0.0140960
747.113	0.0139632
747.191	0.0141267
747.269	0.0140990
747.347	0.0141307
747.425	0.0141996
747.503	0.0142237
747.581	0.0140605
747.660	0.0142321
747.738	0.0141522
747.816	0.0143021
747.894	0.0142418
747.972	0.0143308
748.050	0.0144281
748.128	0.0144016
748.206	0.0142812
748.285	0.0142325
748.363	0.0144994
748.441	0.0144006
748.519	0.0146945
748.597	0.0146008
748.675	0.0145799
748.753	0.0147426
748.831	0.0147944
748.910	0.0148008
748.988	0.0148684
749.066	0.0147986
749.144	0.0148072
749.222	0.0146433
749.300	0.0146249
749.378	0.0146220
749.456	0.0146498
749.535	0.0144736
749.613	0.0145139
749.691	0.0143584
749.769	0.0143336
749.847	0.0143207
749.925	0.0143742
750.003	0.0143540
750.081	0.0142260
750.160	0.0141417
750.238	0.0142496
750.316	0.0141719
750.394	0.0143272
750.472	0.0141798
750.550	0.0142886
750.628	0.0143092
750.706	0.0142175
750.785	0.0142485
750.863	0.0140517
750.941	0.0140520
751.019	0.0142435
751.097	0.0140289
751.175	0.0139968
751.253	0.0139610
751.331	0.0137520
751.410	0.0138815
751.488	0.0139274
751.566	0.0137010
751.644	0.0137062
751.722	0.0137415
751.800	0.0137047
751.878	0.0137004
751.956	0.0137885
752.035	0.0136614
752.113	0.0136560
752.191	0.0136826
752.269	0.0137057
752.347	0.0135478
752.425	0.0135415
752.503	0.0136381
752.581	0.0136813
752.660	0.0135920
752.738	0.0136818
752.816	0.0137549
752.894	0.0136740
752.972	0.0136721
753.050	0.0139487
753.128	0.0139720
753.206	0.0139627
753.285	0.0139839
753.363	0.0143080
753.441	0.0143573
753.519	0.0142879
753.597	0.0143488
753.675	0.0144892
753.753	0.0144175
753.831	0.0144324
753.910	0.0144614
753.988	0.0144670
754.066	0.0145257
754.144	0.0145280
754.222	0.0143665
754.300	0.0144084
754.378	0.0144241
754.456	0.0144592
754.535	0.0147766
754.613	0.0146556
754.691	0.0146156
754.769	0.0148328
754.847	0.0147670
754.925	0.0148076
755.003	0.0148315
755.081	0.0148796
755.160	0.0149120
755.238	0.0149629
755.316	0.0148840
755.394	0.0149091
755.472	0.0148361
755.550	0.0147259
755.628	0.0145953
755.706	0.0145924
755.785	0.0148595
755.863	0.0147628
755.941	0.0146304
756.019	0.0144924
756.097	0.0144299
756.175	0.0144694
756.253	0.0144582
756.331	0.0143349
756.410	0.0144171
756.488	0.0142221
756.566	0.0142095
756.644	0.0141002
756.722	0.0142563
756.800	0.0140785
756.878	0.0142383
756.956	0.0142003
757.035	0.0141564
757.113	0.0141547
757.191	0.0140982
757.269	0.0141665
757.347	0.0140743
757.425	0.0142005
757.503	0.0139800
757.581	0.0140317
757.660	0.0139896
757.738	0.0139684
757.816	0.0139727
757.894	0.0139284
757.972	0.0138028
758.050	0.0139236
758.128	0.0138417
758.206	0.0137748
758.285	0.0136456
758.363	0.0136283
758.441	0.0137184
758.519	0.0136887
758.597	0.0136193
758.675	0.0135803
758.753	0.0136775
758.831	0.0135023
758.910	0.0136505
758.988	0.0135285
759.066	0.0134911
759.144	0.0137280
759.222	0.0135796
759.300	0.0136535
759.378	0.0138586
759.456	0.0138628
759.535	0.0137807
759.613	0.0138651
759.691	0.0138478
759.769	0.0139661
759.847	0.0138884
759.925	0.0140886
760.003	0.0141633
760.081	0.0142370
760.160	0.0143269
760.238	0.0143727
760.316	0.0142682
760.394	0.0143706
760.472	0.0143555
760.550	0.0144573
760.628	0.0144730
760.706	0.0145596
760.785	0.0144299
760.863	0.0144666
760.941	0.0144473
761.019	0.0145602
761.097	0.0146835
761.175	0.0146066
761.253	0.0146077
761.331	0.0146750
761.410	0.0147768
761.488	0.0147350
761.566	0.0147982
761.644	0.0149210
761.722	0.0147098
761.800	0.0147873
761.878	0.0146018
761.956	0.0148331
762.035	0.0146658
762.113	0.0145092
762.191	0.0145653
762.269	0.0147623
762.347	0.0144690
762.425	0.0145194
762.503	0.0143216
762.581	0.0142572
762.660	0.0143510
762.738	0.0142180
762.816	0.0141647
762.894	0.0141333
762.972	0.0140997
763.050	0.0141566
763.128	0.0142546
763.206	0.0140401
763.285	0.0140662
763.363	0.0140429
763.441	0.0141708
763.519	0.0141724
763.597	0.0140977
763.675	0.0140172
763.753	0.0140339
763.831	0.0140628
763.910	0.0141321
763.988	0.0140662
764.066	0.0140615
764.144	0.0140494
764.222	0.0140968
764.300	0.0141009
764.378	0.0139359
764.456	0.0139521
764.535	0.0140114
764.613	0.0139212
764.691	0.0140991
764.769	0.0141378
764.847	0.0138750
764.925	0.0138271
765.003	0.0138258
765.081	0.0138327
765.160	0.0138414
765.238	0.0138383
765.316	0.0139346
765.394	0.0140292
765.472	0.0138918
765.550	0.0140225
765.628	0.0139806
765.706	0.0139869
765.785	0.0140527
765.863	0.0141115
765.941	0.0139404
766.019	0.0139653
766.097	0.0141451
766.175	0.0141750
766.253	0.0142426
766.331	0.0141412
766.410	0.0142052
766.488	0.0142836
766.566	0.0143904
766.644	0.0143763
766.722	0.0143262
766.800	0.0143055
766.878	0.0145261
766.956	0.0144594
767.035	0.0145481
767.113	0.0145827
767.191	0.0144576
767.269	0.0144512
767.347	0.0146037
767.425	0.0146084
767.503	0.0147743
767.581	0.0147092
767.660	0.0148118
767.738	0.0148614
767.816	0.0148619
767.894	0.0149680
767.972	0.0148981
768.050	0.0149316
768.128	0.0148009
768.206	0.0148803
768.285	0.0148482
768.363	0.0147776
768.441	0.0147620
768.519	0.0148142
768.597	0.0148006
768.675	0.0147168
768.753	0.0147453
768.831	0.0146585
768.910	0.0147493
768.988	0.0146030
769.066	0.0144236
769.144	0.0144860
769.222	0.0143540
769.300	0.0143947
769.378	0.0142996
769.456	0.0142274
769.535	0.0141528
769.613	0.0142075
769.691	0.0140261
769.769	0.0140561
769.847	0.0140005
769.925	0.0139926
770.003	0.0139142
770.081	0.0141719
770.160	0.0141684
770.238	0.0141463
770.316	0.0139905
770.394	0.0142340
770.472	0.0141227
770.550	0.0139856
770.628	0.0141277
770.706	0.0140339
770.785	0.0138747
770.863	0.0139045
770.941	0.0139324
771.019	0.0138663
771.097	0.0139130
771.175	0.0136842
771.253	0.0137115
771.331	0.0136963
771.410	0.0136774
771.488	0.0136048
771.566	0.0136934
771.644	0.0137196
771.722	0.0137064
771.800	0.0137640
771.878	0.0138300
771.956	0.0139445
772.035	0.0139517
772.113	0.0139004
772.191	0.0138531
772.269	0.0138989
772.347	0.0141507
772.425	0.0140688
772.503	0.0141228
772.581	0.0139841
772.660	0.0140702
772.738	0.0139351
772.816	0.0141749
772.894	0.0142294
772.972	0.0141933
773.050	0.0142834
773.128	0.0141636
773.206	0.0141557
773.285	0.0142603
773.363	0.0141742
773.441	0.0143253
773.519	0.0143049
773.597	0.0143238
773.675	0.0142927
773.753	0.0142976
773.831	0.0144142
773.910	0.0145160
773.988	0.0144316
774.066	0.0146188
774.144	0.0146180
774.222	0.0147983
774.300	0.0147701
774.378	0.0147359
774.456	0.0147839
774.535	0.0149480
774.613	0.0148298
774.691	0.0148294
774.769	0.0147631
774.847	0.0148799
774.925	0.0148888
775.003	0.0147601
775.081	0.0146852
775.160	0.0146987
775.238	0.0146944
775.316	0.0146951
775.394	0.0146664
775.472	0.0144168
775.550	0.0144543
775.628	0.0145322
775.706	0.0143082
775.785	0.0142894
775.863	0.0142290
775.941	0.0142947
776.019	0.0141192
776.097	0.0140754
776.175	0.0140270
776.253	0.0140970
776.331	0.0137631
776.410	0.0139818
776.488	0.0138434
776.566	0.0138261
776.644	0.0138512
776.722	0.0138972
776.800	0.0138958
776.878	0.0138531
776.956	0.0140384
777.035	0.0139711
777.113	0.0138485
777.191	0.0138094
777.269	0.0139938
777.347	0.0138303
777.425	0.0138103
777.503	0.0138218
777.581	0.0137464
777.660	0.0137749
777.738	0.0137312
777.816	0.0137315
777.894	0.0136773
777.972	0.0137491
778.050	0.0135418
778.128	0.0133930
778.206	0.0136475
778.285	0.0136741
778.363	0.0136895
778.441	0.0136451
778.519	0.0136153
778.597	0.0139041
778.675	0.0140700
778.753	0.0139932
778.831	0.0139974
778.910	0.0140810
778.988	0.0143745
779.066	0.0143389
779.144	0.0142164
779.222	0.0141083
779.300	0.0141675
779.378	0.0143936
779.456	0.0142738
779.535	0.0141344
779.613	0.0142254
779.691	0.0144327
779.769	0.0143250
779.847	0.0142171
779.925	0.0141257
780.003	0.0142610
780.081	0.0144283
780.160	0.0143812
780.238	0.0143964
780.316	0.0143836
780.394	0.0144288
780.472	0.0144246
780.550	0.0146359
780.628	0.0147159
780.706	0.0147454
780.785	0.0147825
780.863	0.0146475
780.941	0.0149325
781.019	0.0148415
781.097	0.0148255
781.175	0.0150349
781.253	0.0148923
781.331	0.0148667
781.410	0.0148840
781.488	0.0148286
781.566	0.0149243
781.644	0.0147819
781.722	0.0149045
781.800	0.0148619
781.878	0.0147698
781.956	0.0146896
782.035	0.0147736
782.113	0.0147069
782.191	0.0146279
782.269	0.0146138
782.347	0.0144701
782.425	0.0144617
782.503	0.0143758
782.581	0.0144733
782.660	0.0143938
782.738	0.0141720
782.816	0.0140518
782.894	0.0140374
782.972	0.0141127
783.050	0.0140170
783.128	0.0139948
783.206	0.0138505
783.285	0.0138017
783.363	0.0138789
783.441	0.0139719
783.519	0.0137714
783.597	0.0137787
783.675	0.0138558
783.753	0.0138818
783.831	0.0138596
783.910	0.0138322
783.988	0.0138234
784.066	0.0139101
784.144	0.0138673
784.222	0.0137433
784.300	0.0137560
784.378	0.0137851
784.456	0.0137591
784.535	0.0137437
784.613	0.0136478
784.691	0.0136075
784.769	0.0136279
784.847	0.0136808
784.925	0.0137228
785.003	0.0138136
785.081	0.0138250
785.160	0.0139931
785.238	0.0138958
785.316	0.0140981
785.394	0.0142059
785.472	0.0142294
785.550	0.0141445
785.628	0.0142902
785.706	0.0143290
785.785	0.0144839
785.863	0.0143355
785.941	0.0142982
786.019	0.0143993
786.097	0.0144180
786.175	0.0143838
786.253	0.0142515
786.331	0.0142610
786.410	0.0142988
786.488	0.0143976
786.566	0.0144645
786.644	0.0142586
786.722	0.0142413
786.800	0.0143935
786.878	0.0144987
786.956	0.0144180
787.035	0.0144212
787.113	0.0143924
787.191	0.0144128
787.269	0.0144891
787.347	0.0144892
787.425	0.0145544
787.503	0.0146510
787.581	0.0146921
787.660	0.0148835
787.738	0.0147375
787.816	0.0146811
787.894	0.0149026
787.972	0.0147546
788.050	0.0148524
788.128	0.0148270
788.206	0.0148520
788.285	0.0148594
788.363	0.0147468
788.441	0.0147549
788.519	0.0149239
788.597	0.0149387
788.675	0.0147673
788.753	0.0148284
788.831	0.0149052
788.910	0.0146452
788.988	0.0147075
789.066	0.0146806
789.144	0.0146852
789.222	0.0145523
789.300	0.0144479
789.378	0.0144772
789.456	0.0142924
789.535	0.0141445
789.613	0.0142741
789.691	0.0141529
789.769	0.0141066
789.847	0.0140390
789.925	0.0139047
790.003	0.0139491
790.081	0.0139812
790.160	0.0140168
790.238	0.0138412
790.316	0.0139011
790.394	0.0139606
790.472	0.0138862
790.550	0.0138349
790.628	0.0138599
790.706	0.0140308
790.785	0.0138343
790.863	0.0138107
790.941	0.0138200
791.019	0.0137199
791.097	0.0137648
791.175	0.0136321
791.253	0.0136760
791.331	0.0136588
791.410	0.0136382
791.488	0.0137091
791.566	0.0136846
791.644	0.0137236
791.722	0.0136594
791.800	0.0136377
791.878	0.0138079
791.956	0.0138756
792.035	0.0138882
792.113	0.0139946
792.191	0.0140600
792.269	0.0141348
792.347	0.0140662
792.425	0.0140955
792.503	0.0140045
792.581	0.0141970
792.660	0.0141332
792.738	0.0141749
792.816	0.0141834
792.894	0.0139874
792.972	0.0140067
793.050	0.0139722
793.128	0.0140420
793.206	0.0140172
793.285	0.0141224
793.363	0.0141648
793.441	0.0139715
793.519	0.0142258
793.597	0.0142930
793.675	0.0142012
793.753	0.0142392
793.831	0.0142493
793.910	0.0141991
793.988	0.0144387
794.066	0.0145157
794.144	0.0144274
794.222	0.0145615
794.300	0.0146360
794.378	0.0146770
794.456	0.0147900
794.535	0.0147559
794.613	0.0148380
794.691	0.0148631
794.769	0.0148369
794.847	0.0149946
794.925	0.0151346
795.003	0.0151527
795.081	0.0151140
795.160	0.0149789
795.238	0.0150240
795.316	0.0149789
795.394	0.0150637
795.472	0.0149795
795.550	0.0148225
795.628	0.0147583
795.706	0.0147909
795.785	0.0147562
795.863	0.0145342
795.941	0.0143452
796.019	0.0145026
796.097	0.0143500
796.175	0.0143439
796.253	0.0141451
796.331	0.0142484
796.410	0.0141612
796.488	0.0140703
796.566	0.0139631
796.644	0.0138874
796.722	0.0139548
796.800	0.0137790
796.878	0.0137040
796.956	0.0137391
797.035	0.0137218
797.113	0.0137398
797.191	0.0137291
797.269	0.0137838
797.347	0.0136511
797.425	0.0138408
797.503	0.0136375
797.581	0.0135651
797.660	0.0136224
797.738	0.0137691
797.816	0.0136459
797.894	0.0135977
797.972	0.0136366
798.050	0.0136223
798.128	0.0135199
798.206	0.0136848
798.285	0.0135458
798.363	0.0136778
798.441	0.0136505
798.519	0.0135831
798.597	0.0137773
798.675	0.0138927
798.753	0.0139349
798.831	0.0138603
798.910	0.0139754
798.988	0.0140533
799.066	0.0141135
799.144	0.0142011
799.222	0.0142020
799.300	0.0140916
799.378	0.0142082
799.456	0.0141818
799.535	0.0142030
799.613	0.0141617
799.691	0.0141636
799.769	0.0141299
799.847	0.0141221
799.925	0.0141233
800.003	0.0141508
800.081	0.0141128
800.160	0.0142082
800.238	0.0141278
800.316	0.0140698
800.394	0.0143333
800.472	0.0142264
800.550	0.0142982
800.628	0.0144213
800.706	0.0144675
800.785	0.0145706
800.863	0.0145896
800.941	0.0144987
801.019	0.0146101
801.097	0.0147392
801.175	0.0147605
801.253	0.0149221
801.331	0.0148824
801.410	0.0148122
801.488	0.0148678
801.566	0.0148492
801.644	0.0149777
801.722	0.0150961
801.800	0.0149023
801.878	0.0149387
801.956	0.0149274
802.035	0.0147650
802.113	0.0148062
802.191	0.0148762
802.269	0.0148054
802.347	0.0148383
802.425	0.0148209
802.503	0.0145762
802.581	0.0146108
802.660	0.0146493
802.738	0.0144807
802.816	0.0144061
802.894	0.0144548
802.972	0.0143819
803.050	0.0142500
803.128	0.0141550
803.206	0.0141698
803.285	0.0140394
803.363	0.0139582
803.441	0.0139604
803.519	0.0138441
803.597	0.0138492
803.675	0.0138924
803.753	0.0138299
803.831	0.0137859
803.910	0.0136790
803.988	0.0137112
804.066	0.0136842
804.144	0.0138190
804.222	0.0137631
804.300	0.0136788
804.378	0.0137443
804.456	0.0137695
804.535	0.0138863
804.613	0.0138519
804.691	0.0138763
804.769	0.0140350
804.847	0.0139453
804.925	0.0138751
805.003	0.0136982
805.081	0.0138651
805.160	0.0139116
805.238	0.0138527
805.316	0.0140022
805.394	0.0139606
805.472	0.0140333
805.550	0.0140123
805.628	0.0141848
805.706	0.0142039
805.785	0.0140907
805.863	0.0141757
805.941	0.0141725
806.019	0.0142142
806.097	0.0142314
806.175	0.0141959
806.253	0.0142477
806.331	0.0143283
806.410	0.0142273
806.488	0.0142458
806.566	0.0142270
806.644	0.0142346
806.722	0.0142677
806.800	0.0141235
806.878	0.0143396
806.956	0.0142264
807.035	0.0142075
807.113	0.0142781
807.191	0.0142973
807.269	0.0143444
807.347	0.0144112
807.425	0.0145036
807.503	0.0144421
807.581	0.0144037
807.660	0.0145634
807.738	0.0147112
807.816	0.0144930
807.894	0.0145821
807.972	0.0146979
808.050	0.0147150
808.128	0.0147029
808.206	0.0146490
808.285	0.0148325
808.363	0.0149326
808.441	0.0149065
808.519	0.0149578
808.597	0.0149763
808.675	0.0150414
808.753	0.0150743
808.831	0.0150607
808.910	0.0149535
808.988	0.0149680
809.066	0.0151182
809.144	0.0149345
809.222	0.0149543
809.300	0.0149072
809.378	0.0148051
809.456	0.0146517
809.535	0.0148029
809.613	0.0146274
809.691	0.0145145
809.769	0.0145711
809.847	0.0144474
809.925	0.0142914
810.003	0.0142716
810.081	0.0141328
810.160	0.0142341
810.238	0.0143322
810.316	0.0140442
810.394	0.0139660
810.472	0.0140930
810.550	0.0140092
810.628	0.0139762
810.706	0.0138982
810.785	0.0139518
810.863	0.0139024
810.941	0.0139700
811.019	0.0140224
811.097	0.0140185
811.175	0.0138916
811.253	0.0138953
811.331	0.0138843
811.410	0.0137170
811.488	0.0138706
811.566	0.0139450
811.644	0.0138159
811.722	0.0135600
811.800	0.0136687
811.878	0.0136417
811.956	0.0135206
812.035	0.0136549
812.113	0.0137421
812.191	0.0136823
812.269	0.0137567
812.347	0.0138189
812.425	0.0139764
812.503	0.0138462
812.581	0.0140947
812.660	0.0140317
812.738	0.0141165
812.816	0.0141895
812.894	0.0142032
812.972	0.0142749
813.050	0.0143374
813.128	0.0143968
813.206	0.0141872
813.285	0.0142688
813.363	0.0142640
813.441	0.0143918
813.519	0.0141989
813.597	0.0142953
813.675	0.0142596
813.753	0.0141381
813.831	0.0142602
813.910	0.0143154
813.988	0.0142085
814.066	0.0143521
814.144	0.0141577
814.222	0.0141954
814.300	0.0142835
814.378	0.0144038
814.456	0.0142676
814.535	0.0141728
814.613	0.0142728
814.691	0.0144225
814.769	0.0144034
814.847	0.0143072
814.925	0.0145557
815.003	0.0145562
815.081	0.0145291
815.160	0.0147640
815.238	0.0148155
815.316	0.0145652
815.394	0.0147285
815.472	0.0147670
815.550	0.0146688
815.628	0.0147308
815.706	0.0148594
815.785	0.0148478
815.863	0.0144931
815.941	0.0146200
816.019	0.0146661
816.097	0.0147026
816.175	0.0146277
816.253	0.0147211
816.331	0.0145467
816.410	0.0144749
816.488	0.0145973
816.566	0.0145519
816.644	0.0142825
816.722	0.0142799
816.800	0.0141991
816.878	0.0141945
816.956	0.0141679
817.035	0.0141915
817.113	0.0141489
817.191	0.0140548
817.269	0.0140357
817.347	0.0140651
817.425	0.0139433
817.503	0.0138677
817.581	0.0139677
817.660	0.0138599
817.738	0.0139573
817.816	0.0139133
817.894	0.0136771
817.972	0.0139142
818.050	0.0138197
818.128	0.0137823
818.206	0.0136823
818.285	0.0137038
818.363	0.0137728
818.441	0.0136668
818.519	0.0136572
818.597	0.0137012
818.675	0.0136989
818.753	0.0137134
818.831	0.0136090
818.910	0.0136786
818.988	0.0137089
819.066	0.0138562
819.144	0.0137720
819.222	0.0137853
819.300	0.0138548
819.378	0.0139969
819.456	0.0138547
819.535	0.0140132
819.613	0.0140507
819.691	0.0141227
819.769	0.0141730
819.847	0.0141537
819.925	0.0141681
820.003	0.0141953
820.081	0.0141911
820.160	0.0142749
820.238	0.0141310
820.316	0.0141425
820.394	0.0142203
820.472	0.0143889
820.550	0.0142495
820.628	0.0140942
820.706	0.0141756
820.785	0.0142218
820.863	0.0143816
820.941	0.0142742
821.019	0.0143675
821.097	0.0142672
821.175	0.0143182
821.253	0.0143175
821.331	0.0143206
821.410	0.0143861
821.488	0.0143549
821.566	0.0144442
821.644	0.0144917
821.722	0.0143623
821.800	0.0144015
821.878	0.0145245
821.956	0.0145345
822.035	0.0146434
822.113	0.0147191
822.191	0.0147646
822.269	0.0145937
822.347	0.0147334
822.425	0.0146390
822.503	0.0148635
822.581	0.0148679
822.660	0.0148905
822.738	0.0147844
822.816	0.0148637
822.894	0.0150095
822.972	0.0148335
823.050	0.0149680
823.128	0.0149395
823.206	0.0148742
823.285	0.0148672
823.363	0.0148724
823.441	0.0147830
823.519	0.0148212
823.597	0.0147324
823.675	0.0143990
823.753	0.0145232
823.831	0.0144498
823.910	0.0144337
823.988	0.0144152
824.066	0.0143845
824.144	0.0141000
824.222	0.0139996
824.300	0.0140184
824.378	0.0139075
824.456	0.0139727
824.535	0.0139333
824.613	0.0139271
824.691	0.0137891
824.769	0.0138073
824.847	0.0138187
824.925	0.0136100
825.003	0.0135281
825.081	0.0137343
825.160	0.0136908
825.238	0.0135995
825.316	0.0136769
825.394	0.0135998
825.472	0.0135492
825.550	0.0137132
825.628	0.0134766
825.706	0.0137296
825.785	0.0136751
825.863	0.0136897
825.941	0.0138115
826.019	0.0136891
826.097	0.0137666
826.175	0.0137099
826.253	0.0137275
826.331	0.0137791
826.410	0.0138349
826.488	0.0140256
826.566	0.0141216
826.644	0.0139894
826.722	0.0139659
826.800	0.0141508
826.878	0.0142809
826.956	0.0143387
827.035	0.0143172
827.113	0.0141181
827.191	0.0142099
827.269	0.0142997
827.347	0.0142439
827.425	0.0142012
827.503	0.0142380
827.581	0.0142146
827.660	0.0142868
827.738	0.0142164
827.816	0.0142669
827.894	0.0143301
827.972	0.0143578
828.050	0.0143546
828.128	0.0142618
828.206	0.0142950
828.285	0.0142320
828.363	0.0142389
828.441	0.0144199
828.519	0.0143498
828.597	0.0143037
828.675	0.0143399
828.753	0.0145400
828.831	0.0143737
828.910	0.0143843
828.988	0.0144566
829.066	0.0144408
829.144	0.0145744
829.222	0.0147072
829.300	0.0145010
829.378	0.0146551
829.456	0.0145985
829.535	0.0146806
829.613	0.0146356
829.691	0.0147064
829.769	0.0145764
829.847	0.0145493
829.925	0.0146127
830.003	0.0145976
830.081	0.0146839
830.160	0.0146835
830.238	0.0145182
830.316	0.0146745
830.394	0.0143963
830.472	0.0145005
830.550	0.0145003
830.628	0.0143850
830.706	0.0142835
830.785	0.0141992
830.863	0.0143047
830.941	0.0140967
831.019	0.0141532
831.097	0.0142228
831.175	0.0142101
831.253	0.0139628
831.331	0.0139974
831.410	0.0141248
831.488	0.0141418
831.566	0.0141069
831.644	0.0140633
831.722	0.0139817
831.800	0.0139474
831.878	0.0138422
831.956	0.0139398
832.035	0.0139445
832.113	0.0140091
832.191	0.0140233
832.269	0.0141055
832.347	0.0140949
832.425	0.0140345
832.503	0.0140885
832.581	0.0140051
832.660	0.0140887
832.738	0.0140703
832.816	0.0141171
832.894	0.0142730
832.972	0.0141572
833.050	0.0141888
833.128	0.0142152
833.206	0.0142377
833.285	0.0143068
833.363	0.0142397
833.441	0.0143553
833.519	0.0143335
833.597	0.0143571
833.675	0.0144560
833.753	0.0143958
833.831	0.0143666
833.910	0.0144530
833.988	0.0143046
834.066	0.0145120
834.144	0.0143719
834.222	0.0143625
834.300	0.0143075
834.378	0.0143165
834.456	0.0143584
834.535	0.0143092
834.613	0.0142346
834.691	0.0141605
834.769	0.0142274
834.847	0.0141939
834.925	0.0143284
835.003	0.0142627
835.081	0.0142969
835.160	0.0142731
835.238	0.0142567
835.316	0.0141785
835.394	0.0141986
835.472	0.0142963
835.550	0.0142364
835.628	0.0143484
835.706	0.0142065
835.785	0.0141016
835.863	0.0142892
835.941	0.0143128
836.019	0.0143316
836.097	0.0144559
836.175	0.0143526
836.253	0.0145346
836.331	0.0144699
836.410	0.0145721
836.488	0.0145603
836.566	0.0147547
836.644	0.0145612
836.722	0.0146613
836.800	0.0145974
836.878	0.0146069
836.956	0.0145870
837.035	0.0146423
837.113	0.0146489
837.191	0.0144491
837.269	0.0144833
837.347	0.0144616
837.425	0.0144629
837.503	0.0143877
837.581	0.0144085
837.660	0.0143232
837.738	0.0143683
837.816	0.0142382
837.894	0.0142162
837.972	0.0142635
838.050	0.0143082
838.128	0.0143151
838.206	0.0142204
838.285	0.0141344
838.363	0.0141595
838.441	0.0142392
838.519	0.0140944
838.597	0.0142466
838.675	0.0141058
838.753	0.0142079
838.831	0.0142126
838.910	0.0141717
838.988	0.0141333
839.066	0.0140584
839.144	0.0140549
839.222	0.0139918
839.300	0.0140104
839.378	0.0140208
839.456	0.0140379
839.535	0.0139728
839.613	0.0139539
839.691	0.0141310
839.769	0.0140891
839.847	0.0139584
839.925	0.0139660
840.003	0.0139551
840.081	0.0139262
840.160	0.0139500
840.238	0.0139673
840.316	0.0139094
840.394	0.0140386
840.472	0.0138909
840.550	0.0139034
840.628	0.0140196
840.706	0.0140807
840.785	0.0141887
840.863	0.0140475
840.941	0.0141113
841.019	0.0139836
841.097	0.0140828
841.175	0.0141553
841.253	0.0141175
841.331	0.0141777
841.410	0.0139832
841.488	0.0139874
841.566	0.0141814
841.644	0.0140747
841.722	0.0138976
841.800	0.0140084
841.878	0.0140552
841.956	0.0139432
842.035	0.0138818
842.113	0.0140424
842.191	0.0138486
842.269	0.0138523
842.347	0.0139438
842.425	0.0139478
842.503	0.0140598
842.581	0.0140640
842.660	0.0140710
842.738	0.0140098
842.816	0.0139165
842.894	0.0141133
842.972	0.0140067
843.050	0.0141469
843.128	0.0141997
843.206	0.0143543
843.285	0.0143999
843.363	0.0142802
843.441	0.0143478
843.519	0.0143507
843.597	0.0144022
843.675	0.0145268
843.753	0.0144365
843.831	0.0145846
843.910	0.0146044
843.988	0.0144556
844.066	0.0146223
844.144	0.0145949
844.222	0.0144543
844.300	0.0146075
844.378	0.0146675
844.456	0.0144532
844.535	0.0145651
844.613	0.0144745
844.691	0.0145882
844.769	0.0145416
844.847	0.0144688
844.925	0.0143595
845.003	0.0145174
845.081	0.0145378
845.160	0.0145090
845.238	0.0143760
845.316	0.0143063
845.394	0.0144081
845.472	0.0143286
845.550	0.0144579
845.628	0.0143819
845.706	0.0142348
845.785	0.0143197
845.863	0.0141785
845.941	0.0142558
846.019	0.0142070
846.097	0.0142989
846.175	0.0142308
846.253	0.0139771
846.331	0.0139542
846.410	0.0141771
846.488	0.0141201
846.566	0.0140940
846.644	0.0140486
846.722	0.0139365
846.800	0.0140320
846.878	0.0139082
846.956	0.0139101
847.035	0.0139518
847.113	0.0139350
847.191	0.0139794
847.269	0.0141178
847.347	0.0139361
847.425	0.0139058
847.503	0.0142243
847.581	0.0140556
847.660	0.0140215
847.738	0.0142002
847.816	0.0141495
847.894	0.0141212
847.972	0.0141052
848.050	0.0139973
848.128	0.0140364
848.206	0.0140242
848.285	0.0139497
848.363	0.0140348
848.441	0.0140214
848.519	0.0140279
848.597	0.0139075
848.675	0.0139391
848.753	0.0139877
848.831	0.0139196
848.910	0.0139340
848.988	0.0139573
849.066	0.0141016
849.144	0.0139597
849.222	0.0138844
849.300	0.0138691
849.378	0.0138767
849.456	0.0139368
849.535	0.0139999
849.613	0.0141232
849.691	0.0139442
849.769	0.0140434
849.847	0.0140143
849.925	0.0141260
850.003	0.0140960
850.081	0.0140295
850.160	0.0141416
850.238	0.0144073
850.316	0.0142806
850.394	0.0143436
850.472	0.0144517
850.550	0.0144500
850.628	0.0146415
850.706	0.0145410
850.785	0.0144911
850.863	0.0145911
850.941	0.0146870
851.019	0.0146252
851.097	0.0146362
851.175	0.0146000
851.253	0.0147018
851.331	0.0147793
851.410	0.0148465
851.488	0.0146503
851.566	0.0147501
851.644	0.0146587
851.722	0.0146172
851.800	0.0146404
851.878	0.0146596
851.956	0.0147697
852.035	0.0146377
852.113	0.0144659
852.191	0.0143576
852.269	0.0144243
852.347	0.0143492
852.425	0.0143259
852.503	0.0142951
852.581	0.0142540
852.660	0.0143407
852.738	0.0141050
852.816	0.0141496
852.894	0.0141158
852.972	0.0141473
853.050	0.0140385
853.128	0.0141654
853.206	0.0139899
853.285	0.0139459
853.363	0.0139106
853.441	0.0139388
853.519	0.0139129
853.597	0.0139632
853.675	0.0138136
853.753	0.0139106
853.831	0.0137399
853.910	0.0138306
853.988	0.0138082
854.066	0.0138078
854.144	0.0137107
854.222	0.0138174
854.300	0.0137296
854.378	0.0136068
854.456	0.0137951
854.535	0.0139165
854.613	0.0138647
854.691	0.0137943
854.769	0.0138670
854.847	0.0139186
854.925	0.0138186
855.003	0.0138781
855.081	0.0139655
855.160	0.0138604
855.238	0.0139375
855.316	0.0139567
855.394	0.0139605
855.472	0.0139158
855.550	0.0139453
855.628	0.0138485
855.706	0.0139175
855.785	0.0139143
855.863	0.0137633
855.941	0.0139317
856.019	0.0138428
856.097	0.0137766
856.175	0.0138233
856.253	0.0139932
856.331	0.0138883
856.410	0.0138079
856.488	0.0140216
856.566	0.0138684
856.644	0.0139982
856.722	0.0140555
856.800	0.0142159
856.878	0.0142223
856.956	0.0142650
857.035	0.0143111
857.113	0.0144756
857.191	0.0143808
857.269	0.0145069
857.347	0.0146815
857.425	0.0147999
857.503	0.0147734
857.581	0.0148097
857.660	0.0147927
857.738	0.0147943
857.816	0.0149348
857.894	0.0150658
857.972	0.0150806
858.050	0.0149239
858.128	0.0149418
858.206	0.0150690
858.285	0.0149978
858.363	0.0149126
858.441	0.0150898
858.519	0.0147802
858.597	0.0150478
858.675	0.0149696
858.753	0.0148497
858.831	0.0148623
858.910	0.0147916
858.988	0.0148279
859.066	0.0147787
859.144	0.0146519
859.222	0.0146458
859.300	0.0145354
859.378	0.0145151
859.456	0.0144377
859.535	0.0145538
859.613	0.0144759
859.691	0.0144978
859.769	0.0143470
859.847	0.0142552
859.925	0.0141306
860.003	0.0142035
860.081	0.0142612
860.160	0.0142287
860.238	0.0141490
860.316	0.0140398
860.394	0.0139434
860.472	0.0140666
860.550	0.0140096
860.628	0.0138738
860.706	0.0139621
860.785	0.0138638
860.863	0.0137524
860.941	0.0137051
861.019	0.0138096
861.097	0.0138071
861.175	0.0138174
861.253	0.0137499
861.331	0.0138167
861.410	0.0139625
861.488	0.0139066
861.566	0.0138426
861.644	0.0137918
861.722	0.0138732
861.800	0.0137886
861.878	0.0138800
861.956	0.0138615
862.035	0.0139130
862.113	0.0139653
862.191	0.0139972
862.269	0.0139968
862.347	0.0140149
862.425	0.0138055
862.503	0.0139455
862.581	0.0139044
862.660	0.0137907
862.738	0.0139632
862.816	0.0140051
862.894	0.0140090
862.972	0.0139831
863.050	0.0140256
863.128	0.0140937
863.206	0.0140517
863.285	0.0140636
863.363	0.0139556
863.441	0.0140422
863.519	0.0140073
863.597	0.0140246
863.675	0.0139928
863.753	0.0142271
863.831	0.0142932
863.910	0.0143184
863.988	0.0142552
864.066	0.0143572
864.144	0.0144552
864.222	0.0145972
864.300	0.0145621
864.378	0.0145262
864.456	0.0146876
864.535	0.0148511
864.613	0.0148488
864.691	0.0148589
864.769	0.0150279
864.847	0.0149712
864.925	0.0148205
865.003	0.0149741
865.081	0.0149868
865.160	0.0148875
865.238	0.0147330
865.316	0.0147276
865.394	0.0147977
865.472	0.0147876
865.550	0.0146498
865.628	0.0146115
865.706	0.0146200
865.785	0.0146922
865.863	0.0147308
865.941	0.0145994
866.019	0.0146015
866.097	0.0143509
866.175	0.0145145
866.253	0.0143855
866.331	0.0144898
866.410	0.0143815
866.488	0.0142536
866.566	0.0141268
866.644	0.0141187
866.722	0.0141933
866.800	0.0141312
866.878	0.0140530
866.956	0.0140342
867.035	0.0138863
867.113	0.0139051
867.191	0.0138652
867.269	0.0138948
867.347	0.0139121
867.425	0.0136832
867.503	0.0137868
867.581	0.0138474
867.660	0.0136941
867.738	0.0138085
867.816	0.0136837
867.894	0.0137550
867.972	0.0137368
868.050	0.0138159
868.128	0.0136674
868.206	0.0137397
868.285	0.0138673
868.363	0.0138058
868.441	0.0138447
868.519	0.0138912
868.597	0.0139588
868.675	0.0138177
868.753	0.0137627
868.831	0.0138953
868.910	0.0140656
868.988	0.0141142
869.066	0.0140733
869.144	0.0140810
869.222	0.0140814
869.300	0.0142014
869.378	0.0141057
869.456	0.0140643
869.535	0.0142197
869.613	0.0141470
869.691	0.0141039
869.769	0.0142685
869.847	0.0140449
869.925	0.0140862
870.003	0.0142229
870.081	0.0142138
870.160	0.0142159
870.238	0.0142336
870.316	0.0141953
870.394	0.0142663
870.472	0.0142274
870.550	0.0142695
870.628	0.0142053
870.706	0.0144312
870.785	0.0142638
870.863	0.0144550
870.941	0.0145109
871.019	0.0145082
871.097	0.0143971
871.175	0.0144655
871.253	0.0146688
871.331	0.0145877
871.410	0.0145426
871.488	0.0146574
871.566	0.0147462
871.644	0.0147828
871.722	0.0147631
871.800	0.0147435
871.878	0.0147706
871.956	0.0148172
872.035	0.0148036
872.113	0.0148167
872.191	0.0146521
872.269	0.0146739
872.347	0.0146827
872.425	0.0144886
872.503	0.0146603
872.581	0.0143800
872.660	0.0146318
872.738	0.0146667
872.816	0.0144839
872.894	0.0145372
872.972	0.0144420
873.050	0.0145480
873.128	0.0144122
873.206	0.0144265
873.285	0.0143944
873.363	0.0142881
873.441	0.0142551
873.519	0.0141231
873.597	0.0142020
873.675	0.0140851
873.753	0.0141927
873.831	0.0140462
873.910	0.0141043
873.988	0.0140074
874.066	0.0139651
874.144	0.0140783
874.222	0.0141254
874.300	0.0139407
874.378	0.0137429
874.456	0.0139391
874.535	0.0139435
874.613	0.0138297
874.691	0.0138411
874.769	0.0139704
874.847	0.0137466
874.925	0.0138115
875.003	0.0138560
875.081	0.0136725
875.160	0.0137236
875.238	0.0137366
875.316	0.0137511
875.394	0.0138580
875.472	0.0138057
875.550	0.0139376
875.628	0.0137553
875.706	0.0138177
875.785	0.0139487
875.863	0.0138286
875.941	0.0139780
876.019	0.0139996
876.097	0.0141512
876.175	0.0140217
876.253	0.0139852
876.331	0.0138923
876.410	0.0141586
876.488	0.0140627
876.566	0.0140741
876.644	0.0139532
876.722	0.0141218
876.800	0.0140170
876.878	0.0139735
876.956	0.0140170
877.035	0.0139230
877.113	0.0140899
877.191	0.0140459
877.269	0.0140237
877.347	0.0140286
877.425	0.0141510
877.503	0.0141853
877.581	0.0141523
877.660	0.0141805
877.738	0.0142653
877.816	0.0142609
877.894	0.0142684
877.972	0.0143185
878.050	0.0141626
878.128	0.0142384
878.206	0.0142838
878.285	0.0143534
878.363	0.0142631
878.441	0.0142120
878.519	0.0143991
878.597	0.0145583
878.675	0.0145240
878.753	0.0143618
878.831	0.0144746
878.910	0.0145477
878.988	0.0145538
879.066	0.0146521
879.144	0.0146739
879.222	0.0146478
879.300	0.0145852
879.378	0.0145271
879.456	0.0146470
879.535	0.0146334
879.613	0.0146328
879.691	0.0146259
879.769	0.0145090
879.847	0.0145115
879.925	0.0145483
880.003	0.0145886
880.081	0.0143864
880.160	0.0143726
880.238	0.0144333
880.316	0.0143996
880.394	0.0143764
880.472	0.0143018
880.550	0.0144051
880.628	0.0144334
880.706	0.0142991
880.785	0.0142437
880.863	0.0141747
880.941	0.0142186
881.019	0.0142658
881.097	0.0141216
881.175	0.0140987
881.253	0.0142142
881.331	0.0141061
881.410	0.0141006
881.488	0.0140600
881.566	0.0140345
881.644	0.0141331
881.722	0.0141145
881.800	0.0140520
881.878	0.0139103
881.956	0.0139307
882.035	0.0141059
882.113	0.0138596
882.191	0.0139739
882.269	0.0139999
882.347	0.0141529
882.425	0.0140379
882.503	0.0139974
882.581	0.0139452
882.660	0.0140469
882.738	0.0141518
882.816	0.0140827
882.894	0.0139901
882.972	0.0140665
883.050	0.0141888
883.128	0.0141763
883.206	0.0141673
883.285	0.0141264
883.363	0.0142673
883.441	0.0142099
883.519	0.0140976
883.597	0.0141156
883.675	0.0140623
883.753	0.0143429
883.831	0.0141694
883.910	0.0142974
883.988	0.0143540
884.066	0.0142474
884.144	0.0144344
884.222	0.0143391
884.300	0.0142875
884.378	0.0143824
884.456	0.0143828
884.535	0.0144448
884.613	0.0144559
884.691	0.0143783
884.769	0.0144585
884.847	0.0143985
884.925	0.0143773
885.003	0.0143920
885.081	0.0143774
885.160	0.0144432
885.238	0.0144621
885.316	0.0143947
885.394	0.0143264
885.472	0.0144783
885.550	0.0144776
885.628	0.0145208
885.706	0.0144949
885.785	0.0145818
885.863	0.0146857
885.941	0.0147193
886.019	0.0145959
886.097	0.0145856
886.175	0.0147572
886.253	0.0145993
886.331	0.0146062
886.410	0.0146189
886.488	0.0146304
886.566	0.0146607
886.644	0.0145699
886.722	0.0145978
886.800	0.0146197
886.878	0.0145805
886.956	0.0145681
887.035	0.0144544
887.113	0.0145467
887.191	0.0144645
887.269	0.0143559
887.347	0.0143757
887.425	0.0142943
887.503	0.0143887
887.581	0.0143198
887.660	0.0142308
887.738	0.0142046
887.816	0.0141415
887.894	0.0142197
887.972	0.0140633
888.050	0.0140886
888.128	0.0141204
888.206	0.0142566
888.285	0.0139410
888.363	0.0137984
888.441	0.0140176
888.519	0.0140054
888.597	0.0140526
888.675	0.0139762
888.753	0.0139677
888.831	0.0139716
888.910	0.0139026
888.988	0.0139723
889.066	0.0138426
889.144	0.0138509
889.222	0.0139778
889.300	0.0139532
889.378	0.0139444
889.456	0.0139907
889.535	0.0139137
889.613	0.0139769
889.691	0.0141498
889.769	0.0139315
889.847	0.0141343
889.925	0.0139049
890.003	0.0141125
890.081	0.0139411
890.160	0.0139899
890.238	0.0142004
890.316	0.0141483
890.394	0.0141580
890.472	0.0142527
890.550	0.0143088
890.628	0.0141886
890.706	0.0143176
890.785	0.0142963
890.863	0.0143367
890.941	0.0143066
891.019	0.0144016
891.097	0.0142678
891.175	0.0142923
891.253	0.0143031
891.331	0.0142827
891.410	0.0143385
891.488	0.0145171
891.566	0.0143731
891.644	0.0144360
891.722	0.0143823
891.800	0.0143936
891.878	0.0143514
891.956	0.0143484
892.035	0.0142912
892.113	0.0144736
892.191	0.0143219
892.269	0.0143053
892.347	0.0144220
892.425	0.0143535
892.503	0.0143410
892.581	0.0143920
892.660	0.0143522
892.738	0.0144997
892.816	0.0144489
892.894	0.0144446
892.972	0.0145341
893.050	0.0147083
893.128	0.0146563
893.206	0.0146641
893.285	0.0147476
893.363	0.0149203
893.441	0.0147739
893.519	0.0146935
893.597	0.0146642
893.675	0.0147894
893.753	0.0146980
893.831	0.0147019
893.910	0.0147536
893.988	0.0145068
894.066	0.0145731
894.144	0.0143510
894.222	0.0143174
894.300	0.0143668
894.378	0.0140284
894.456	0.0141901
894.535	0.0142291
894.613	0.0142967
894.691	0.0141650
894.769	0.0140488
894.847	0.0139970
894.925	0.0140321
895.003	0.0139161
895.081	0.0140134
895.160	0.0140726
895.238	0.0140961
895.316	0.0140791
895.394	0.0139068
895.472	0.0139951
895.550	0.0139423
895.628	0.0139734
895.706	0.0138431
895.785	0.0138260
895.863	0.0138806
895.941	0.0139425
896.019	0.0139294
896.097	0.0138258
896.175	0.0138280
896.253	0.0138449
896.331	0.0139509
896.410	0.0138902
896.488	0.0140183
896.566	0.0140293
896.644	0.0139324
896.722	0.0138922
896.800	0.0138963
896.878	0.0139980
896.956	0.0139722
897.035	0.0140134
897.113	0.0139437
897.191	0.0139970
897.269	0.0140055
897.347	0.0141968
897.425	0.0142403
897.503	0.0142105
897.581	0.0142218
897.660	0.0142962
897.738	0.0143036
897.816	0.0144795
897.894	0.0144376
897.972	0.0144291
898.050	0.0144021
898.128	0.0146822
898.206	0.0145860
898.285	0.0145218
898.363	0.0146341
898.441	0.0145679
898.519	0.0146889
898.597	0.0145737
898.675	0.0145078
898.753	0.0145826
898.831	0.0145068
898.910	0.0144376
898.988	0.0143966
899.066	0.0144219
899.144	0.0145571
899.222	0.0144405
899.300	0.0142978
899.378	0.0144193
899.456	0.0144247
899.535	0.0144134
899.613	0.0144221
899.691	0.0144647
899.769	0.0143609
899.847	0.0143977
899.925	0.0143832
900.003	0.0145074
900.081	0.0146043
900.160	0.0144831
900.238	0.0144133
900.316	0.0144625
900.394	0.0144843
900.472	0.0144586
900.550	0.0142648
900.628	0.0144292
900.706	0.0143960
900.785	0.0141688
900.863	0.0143138
900.941	0.0143314
901.019	0.0142568
901.097	0.0143511
901.175	0.0142559
901.253	0.0142755
901.331	0.0143208
901.410	0.0142790
901.488	0.0141850
901.566	0.0142696
901.644	0.0142372
901.722	0.0141849
901.800	0.0141467
901.878	0.0141928
901.956	0.0141841
902.035	0.0142393
902.113	0.0140450
902.191	0.0141833
902.269	0.0141607
902.347	0.0141286
902.425	0.0141639
902.503	0.0140444
902.581	0.0141965
902.660	0.0141661
902.738	0.0141689
902.816	0.0142628
902.894	0.0140137
902.972	0.0141443
903.050	0.0142397
903.128	0.0141005
903.206	0.0140346
903.285	0.0139793
903.363	0.0140118
903.441	0.0140865
903.519	0.0140029
903.597	0.0140948
903.675	0.0141678
903.753	0.0139997
903.831	0.0141291
903.910	0.0139092
903.988	0.0141174
904.066	0.0141125
904.144	0.0140205
904.222	0.0141165
904.300	0.0140701
904.378	0.0141998
904.456	0.0142999
904.535	0.0141515
904.613	0.0142672
904.691	0.0142938
904.769	0.0142279
904.847	0.0142409
904.925	0.0143138
905.003	0.0143118
905.081	0.0142998
905.160	0.0143531
905.238	0.0142376
905.316	0.0141695
905.394	0.0142741
905.472	0.0143674
905.550	0.0142509
905.628	0.0141704
905.706	0.0144333
905.785	0.0143666
905.863	0.0143311
905.941	0.0141489
906.019	0.0142218
906.097	0.0141728
906.175	0.0141682
906.253	0.0140405
906.331	0.0142180
906.410	0.0141772
906.488	0.0142481
906.566	0.0141747
906.644	0.0140364
906.722	0.0142019
906.800	0.0141726
906.878	0.0141358
906.956	0.0141955
907.035	0.0143339
907.113	0.0141800
907.191	0.0142899
907.269	0.0142016
907.347	0.0144059
907.425	0.0143615
907.503	0.0142264
907.581	0.0144170
907.660	0.0144688
907.738	0.0144099
907.816	0.0143193
907.894	0.0144463
907.972	0.0144483
908.050	0.0143736
908.128	0.0143897
908.206	0.0142495
908.285	0.0143808
908.363	0.0143321
908.441	0.0143359
908.519	0.0142796
908.597	0.0143495
908.675	0.0143414
908.753	0.0142031
908.831	0.0142274
908.910	0.0141843
908.988	0.0142956
909.066	0.0143222
909.144	0.0142618
909.222	0.0141319
909.300	0.0142625
909.378	0.0141467
909.456	0.0141968
909.535	0.0142292
909.613	0.0141707
909.691	0.0142075
909.769	0.0143041
909.847	0.0143084
909.925	0.0142015
910.003	0.0142678
910.081	0.0142746
910.160	0.0143077
910.238	0.0142178
910.316	0.0142630
910.394	0.0141797
910.472	0.0142467
910.550	0.0143182
910.628	0.0141576
910.706	0.0141234
910.785	0.0141257
910.863	0.0143967
910.941	0.0141991
911.019	0.0142220
911.097	0.0142083
911.175	0.0141148
911.253	0.0141319
911.331	0.0141145
911.410	0.0141750
911.488	0.0142401
911.566	0.0142702
911.644	0.0142609
911.722	0.0142426
911.800	0.0142336
911.878	0.0142260
911.956	0.0142359
912.035	0.0142755
912.113	0.0143346
912.191	0.0143304
912.269	0.0142522
912.347	0.0143655
912.425	0.0143383
912.503	0.0143674
912.581	0.0142809
912.660	0.0143685
912.738	0.0143600
912.816	0.0143237
912.894	0.0143111
912.972	0.0143494
913.050	0.0142159
913.128	0.0142704
913.206	0.0142358
913.285	0.0141429
913.363	0.0142348
913.441	0.0142238
913.519	0.0140549
913.597	0.0142390
913.675	0.0141653
913.753	0.0140341
913.831	0.0141668
913.910	0.0140255
913.988	0.0139143
914.066	0.0142109
914.144	0.0141112
914.222	0.0140560
914.300	0.0141158
914.378	0.0141768
914.456	0.0141578
914.535	0.0140356
914.613	0.0141541
914.691	0.0141819
914.769	0.0141495
914.847	0.0142857
914.925	0.0141958
915.003	0.0141422
915.081	0.0140909
915.160	0.0141611
915.238	0.0141744
915.316	0.0141692
915.394	0.0141850
915.472	0.0141663
915.550	0.0141314
915.628	0.0140347
915.706	0.0140372
915.785	0.0140468
915.863	0.0140448
915.941	0.0140668
916.019	0.0141064
916.097	0.0140709
916.175	0.0141203
916.253	0.0142145
916.331	0.0141769
916.410	0.0140206
916.488	0.0141335
916.566	0.0142291
916.644	0.0141531
916.722	0.0142892
916.800	0.0142434
916.878	0.0142424
916.956	0.0144319
917.035	0.0143008
917.113	0.0143392
917.191	0.0145003
917.269	0.0143824
917.347	0.0141764
917.425	0.0143062
917.503	0.0144286
917.581	0.0143913
917.660	0.0143788
917.738	0.0143565
917.816	0.0143063
917.894	0.0143440
917.972	0.0142413
918.050	0.0143050
918.128	0.0143947
918.206	0.0144304
918.285	0.0143501
918.363	0.0143394
918.441	0.0143626
918.519	0.0142715
918.597	0.0143926
918.675	0.0143974
918.753	0.0142838
918.831	0.0141345
918.910	0.0142957
918.988	0.0142977
919.066	0.0144695
919.144	0.0144712
919.222	0.0145292
919.300	0.0144255
919.378	0.0144021
919.456	0.0145530
919.535	0.0145029
919.613	0.0144564
919.691	0.0144549
919.769	0.0144131
919.847	0.0144092
919.925	0.0144729
920.003	0.0143211
920.081	0.0143698
920.160	0.0142898
920.238	0.0142126
920.316	0.0142610
920.394	0.0142477
920.472	0.0139937
920.550	0.0140703
920.628	0.0140104
920.706	0.0140501
920.785	0.0141097
920.863	0.0140960
920.941	0.0140802
921.019	0.0140871
921.097	0.0139670
921.175	0.0140971
921.253	0.0141615
921.331	0.0140030
921.410	0.0141633
921.488	0.0142527
921.566	0.0142405
921.644	0.0142752
921.722	0.0141967
921.800	0.0142866
921.878	0.0142439
921.956	0.0142388
922.035	0.0143301
922.113	0.0142417
922.191	0.0142289
922.269	0.0143487
922.347	0.0142953
922.425	0.0143111
922.503	0.0142895
922.581	0.0141930
922.660	0.0141215
922.738	0.0141945
922.816	0.0143225
922.894	0.0142504
922.972	0.0141985
923.050	0.0142267
923.128	0.0141129
923.206	0.0142515
923.285	0.0141536
923.363	0.0141915
923.441	0.0142702
923.519	0.0141587
923.597	0.0142039
923.675	0.0142491
923.753	0.0141939
923.831	0.0143578
923.910	0.0143604
923.988	0.0142129
924.066	0.0142365
924.144	0.0142241
924.222	0.0142004
924.300	0.0143156
924.378	0.0143929
924.456	0.0142268
924.535	0.0141708
924.613	0.0141521
924.691	0.0142337
924.769	0.0142847
924.847	0.0140755
924.925	0.0141346
925.003	0.0140767
925.081	0.0140372
925.160	0.0140453
925.238	0.0138885
925.316	0.0140417
925.394	0.0140630
925.472	0.0139619
925.550	0.0139772
925.628	0.0139823
925.706	0.0140332
925.785	0.0140919
925.863	0.0140670
925.941	0.0140958
926.019	0.0140726
926.097	0.0140437
926.175	0.0141093
926.253	0.0141335
926.331	0.0141862
926.410	0.0140418
926.488	0.0141180
926.566	0.0142344
926.644	0.0140607
926.722	0.0140706
926.800	0.0142128
926.878	0.0139513
926.956	0.0140749
927.035	0.0139832
927.113	0.0140094
927.191	0.0138911
927.269	0.0140119
927.347	0.0139523
927.425	0.0139594
927.503	0.0139788
927.581	0.0140710
927.660	0.0140646
927.738	0.0140393
927.816	0.0140973
927.894	0.0140604
927.972	0.0139651
928.050	0.0140591
928.128	0.0141294
928.206	0.0140762
928.285	0.0141965
928.363	0.0140909
928.441	0.0141284
928.519	0.0142908
928.597	0.0143693
928.675	0.0142408
928.753	0.0142141
928.831	0.0142774
928.910	0.0143080
928.988	0.0143237
929.066	0.0144102
929.144	0.0144474
929.222	0.0143275
929.300	0.0143104
929.378	0.0143217
929.456	0.0142758
929.535	0.0144094
929.613	0.0142842
929.691	0.0142308
929.769	0.0142200
929.847	0.0141655
929.925	0.0141359
930.003	0.0139671
930.081	0.0141966
930.160	0.0141132
930.238	0.0140855
930.316	0.0138646
930.394	0.0140115
930.472	0.0141256
930.550	0.0140163
930.628	0.0140179
930.706	0.0139392
930.785	0.0141228
930.863	0.0140095
930.941	0.0140304
931.019	0.0141965
931.097	0.0141599
931.175	0.0142761
931.253	0.0141985
931.331	0.0141462
931.410	0.0141979
931.488	0.0142621
931.566	0.0142110
931.644	0.0142474
931.722	0.0143584
931.800	0.0143195
931.878	0.0142772
931.956	0.0143382
932.035	0.0141928
932.113	0.0140601
932.191	0.0141679
932.269	0.0142038
932.347	0.0141415
932.425	0.0141593
932.503	0.0141533
932.581	0.0140733
932.660	0.0142224
932.738	0.0142323
932.816	0.0141175
932.894	0.0141385
932.972	0.0142698
933.050	0.0143340
933.128	0.0143329
933.206	0.0143291
933.285	0.0143444
933.363	0.0144650
933.441	0.0144638
933.519	0.0143712
933.597	0.0144378
933.675	0.0145402
933.753	0.0143979
933.831	0.0145142
933.910	0.0144479
933.988	0.0143781
934.066	0.0143513
934.144	0.0143488
934.222	0.0143481
934.300	0.0142376
934.378	0.0143886
934.456	0.0142452
934.535	0.0140941
934.613	0.0141654
934.691	0.0140401
934.769	0.0140356
934.847	0.0141639
934.925	0.0141965
935.003	0.0142368
935.081	0.0141688
935.160	0.0141170
935.238	0.0141979
935.316	0.0140835
935.394	0.0141068
935.472	0.0142945
935.550	0.0142744
935.628	0.0142507
935.706	0.0142452
935.785	0.0143610
935.863	0.0143633
935.941	0.0143659
936.019	0.0143163
936.097	0.0143594
936.175	0.0144932
936.253	0.0144021
936.331	0.0143667
936.410	0.0142390
936.488	0.0143396
936.566	0.0142198
936.644	0.0142216
936.722	0.0144347
936.800	0.0143568
936.878	0.0143256
936.956	0.0143427
937.035	0.0142079
937.113	0.0141666
937.191	0.0143042
937.269	0.0142814
937.347	0.0142832
937.425	0.0141912
937.503	0.0142622
937.581	0.0141608
937.660	0.0140933
937.738	0.0142166
937.816	0.0143219
937.894	0.0142286
937.972	0.0142055
938.050	0.0141804
938.128	0.0142130
938.206	0.0142100
938.285	0.0142896
938.363	0.0142976
938.441	0.0141923
938.519	0.0143185
938.597	0.0142071
938.675	0.0141828
938.753	0.0142683
938.831	0.0141415
938.910	0.0142496
938.988	0.0142476
939.066	0.0141646
939.144	0.0142533
939.222	0.0141663
939.300	0.0141122
939.378	0.0141849
939.456	0.0141430
939.535	0.0141341
939.613	0.0141975
939.691	0.0142729
939.769	0.0142907
939.847	0.0141119
939.925	0.0143117
940.003	0.0142009
940.081	0.0141802
940.160	0.0143072
940.238	0.0142271
940.316	0.0141735
940.394	0.0142966
940.472	0.0143754
940.550	0.0142997
940.628	0.0143530
940.706	0.0142892
940.785	0.0141928
940.863	0.0141759
940.941	0.0142049
941.019	0.0142442
941.097	0.0142419
941.175	0.0141245
941.253	0.0141524
941.331	0.0141108
941.410	0.0140088
941.488	0.0139828
941.566	0.0140343
941.644	0.0142060
941.722	0.0141038
941.800	0.0140088
941.878	0.0141042
941.956	0.0141485
942.035	0.0139623
942.113	0.0141716
942.191	0.0141187
942.269	0.0140781
942.347	0.0141201
942.425	0.0142157
942.503	0.0141398
942.581	0.0141417
942.660	0.0142827
942.738	0.0142394
942.816	0.0141357
942.894	0.0142747
942.972	0.0143888
943.050	0.0142809
943.128	0.0142539
943.206	0.0144592
943.285	0.0143517
943.363	0.0144204
943.441	0.0143199
943.519	0.0142901
943.597	0.0143647
943.675	0.0145675
943.753	0.0144916
943.831	0.0144112
943.910	0.0143598
943.988	0.0142990
944.066	0.0144423
944.144	0.0143895
944.222	0.0144416
944.300	0.0142954
944.378	0.0143102
944.456	0.0142751
944.535	0.0143324
944.613	0.0144169
944.691	0.0143508
944.769	0.0143407
944.847	0.0143163
944.925	0.0142750
945.003	0.0142247
945.081	0.0142659
945.160	0.0144154
945.238	0.0143169
945.316	0.0143421
945.394	0.0143404
945.472	0.0143486
945.550	0.0141437
945.628	0.0143230
945.706	0.0142151
945.785	0.0142558
945.863	0.0142246
945.941	0.0142086
946.019	0.0142152
946.097	0.0141978
946.175	0.0141660
946.253	0.0141493
946.331	0.0141574
946.410	0.0142726
946.488	0.0141055
946.566	0.0141869
946.644	0.0141952
946.722	0.0140604
946.800	0.0141604
946.878	0.0141363
946.956	0.0142439
947.035	0.0141460
947.113	0.0141161
947.191	0.0142259
947.269	0.0141354
947.347	0.0140649
947.425	0.0141182
947.503	0.0141291
947.581	0.0141322
947.660	0.0141709
947.738	0.0140484
947.816	0.0141375
947.894	0.0141653
947.972	0.0139780
948.050	0.0139899
948.128	0.0141759
948.206	0.0141405
948.285	0.0141855
948.363	0.0141063
948.441	0.0140803
948.519	0.0142799
948.597	0.0141502
948.675	0.0139828
948.753	0.0142355
948.831	0.0140764
948.910	0.0142199
948.988	0.0140897
949.066	0.0140653
949.144	0.0140833
949.222	0.0141548
949.300	0.0141402
949.378	0.0140013
949.456	0.0140013
949.535	0.0140068
949.613	0.0139960
949.691	0.0140296
949.769	0.0141056
949.847	0.0142189
949.925	0.0142061
950.003	0.0141191
950.081	0.0142329
950.160	0.0142484
950.238	0.0142223
950.316	0.0142738
950.394	0.0144035
950.472	0.0145174
950.550	0.0143691
950.628	0.0144265
950.706	0.0146425
950.785	0.0144744
950.863	0.0146174
950.941	0.0144534
951.019	0.0145237
951.097	0.0144305
951.175	0.0144810
951.253	0.0144064
951.331	0.0144634
951.410	0.0142719
951.488	0.0143726
951.566	0.0144389
951.644	0.0144025
951.722	0.0143150
951.800	0.0143307
951.878	0.0144165
951.956	0.0143539
952.035	0.0144725
952.113	0.0143947
952.191	0.0142535
952.269	0.0142900
952.347	0.0142838
952.425	0.0144372
952.503	0.0142741
952.581	0.0142666
952.660	0.0142141
952.738	0.0142910
952.816	0.0142995
952.894	0.0141935
952.972	0.0141261
953.050	0.0142254
953.128	0.0141381
953.206	0.0139871
953.285	0.0139264
953.363	0.0139449
953.441	0.0140918
953.519	0.0140118
953.597	0.0140997
953.675	0.0140411
953.753	0.0141704
953.831	0.0140929
953.910	0.0140894
953.988	0.0142598
954.066	0.0141320
954.144	0.0140724
954.222	0.0141187
954.300	0.0140997
954.378	0.0142017
954.456	0.0143638
954.535	0.0143531
954.613	0.0142490
954.691	0.0142440
954.769	0.0143093
954.847	0.0140475
954.925	0.0143487
955.003	0.0143825
955.081	0.0143407
955.160	0.0144119
955.238	0.0142912
955.316	0.0142678
955.394	0.0144310
955.472	0.0144815
955.550	0.0144351
955.628	0.0143061
955.706	0.0143230
955.785	0.0144625
955.863	0.0145380
955.941	0.0143995
956.019	0.0143166
956.097	0.0142691
956.175	0.0143074
956.253	0.0142410
956.331	0.0143089
956.410	0.0142220
956.488	0.0142395
956.566	0.0142579
956.644	0.0142426
956.722	0.0142091
956.800	0.0143080
956.878	0.0142467
956.956	0.0143365
957.035	0.0141476
957.113	0.0142757
957.191	0.0144253
957.269	0.0144412
957.347	0.0143969
957.425	0.0143910
957.503	0.0143873
957.581	0.0143159
957.660	0.0143611
957.738	0.0144662
957.816	0.0142206
957.894	0.0142372
957.972	0.0144177
958.050	0.0143456
958.128	0.0144389
958.206	0.0144292
958.285	0.0142501
958.363	0.0142773
958.441	0.0143643
958.519	0.0143474
958.597	0.0141949
958.675	0.0142563
958.753	0.0142094
958.831	0.0142172
958.910	0.0141437
958.988	0.0141450
959.066	0.0142201
959.144	0.0142606
959.222	0.0141232
959.300	0.0142489
959.378	0.0142156
959.456	0.0141602
959.535	0.0141085
959.613	0.0140853
959.691	0.0141580
959.769	0.0141663
959.847	0.0142001
959.925	0.0140964
960.003	0.0140262
960.081	0.0140567
960.160	0.0141628
960.238	0.0140849
960.316	0.0141154
960.394	0.0139846
960.472	0.0140265
960.550	0.0141401
960.628	0.0141898
960.706	0.0142043
960.785	0.0141415
960.863	0.0141633
960.941	0.0142735
961.019	0.0143279
961.097	0.0141620
961.175	0.0143012
961.253	0.0143761
961.331	0.0143442
961.410	0.0143192
961.488	0.0144464
961.566	0.0143737
961.644	0.0144298
961.722	0.0144552
961.800	0.0144781
961.878	0.0144025
961.956	0.0144707
962.035	0.0144596
962.113	0.0144530
962.191	0.0144818
962.269	0.0146084
962.347	0.0143536
962.425	0.0143586
962.503	0.0144286
962.581	0.0143697
962.660	0.0142832
962.738	0.0143120
962.816	0.0142767
962.894	0.0143263
962.972	0.0142284
963.050	0.0143860
963.128	0.0142989
963.206	0.0142556
963.285	0.0141489
963.363	0.0141792
963.441	0.0140077
963.519	0.0141381
963.597	0.0141774
963.675	0.0141015
963.753	0.0140327
963.831	0.0141515
963.910	0.0141747
963.988	0.0141007
964.066	0.0140701
964.144	0.0140977
964.222	0.0140614
964.300	0.0141276
964.378	0.0140946
964.456	0.0140568
964.535	0.0140257
964.613	0.0141013
964.691	0.0142194
964.769	0.0141243
964.847	0.0141363
964.925	0.0141971
965.003	0.0140263
965.081	0.0142001
965.160	0.0142662
965.238	0.0141744
965.316	0.0141128
965.394	0.0141702
965.472	0.0143213
965.550	0.0142157
965.628	0.0139899
965.706	0.0143941
965.785	0.0142877
965.863	0.0141656
965.941	0.0141364
966.019	0.0142145
966.097	0.0140913
966.175	0.0142735
966.253	0.0141738
966.331	0.0141144
966.410	0.0140861
966.488	0.0141348
966.566	0.0140879
966.644	0.0141952
966.722	0.0142640
966.800	0.0140955
966.878	0.0141327
966.956	0.0141503
967.035	0.0142051
967.113	0.0141895
967.191	0.0140122
967.269	0.0140808
967.347	0.0142994
967.425	0.0141591
967.503	0.0141531
967.581	0.0142687
967.660	0.0143403
967.738	0.0145037
967.816	0.0143197
967.894	0.0144463
967.972	0.0144054
968.050	0.0143725
968.128	0.0144891
968.206	0.0143092
968.285	0.0144584
968.363	0.0144088
968.441	0.0144836
968.519	0.0144718
968.597	0.0144180
968.675	0.0143819
968.753	0.0144359
968.831	0.0144885
968.910	0.0143853
968.988	0.0145320
969.066	0.0143254
969.144	0.0142970
969.222	0.0143190
969.300	0.0143169
969.378	0.0143282
969.456	0.0143094
969.535	0.0142248
969.613	0.0142867
969.691	0.0142511
969.769	0.0142057
969.847	0.0142181
969.925	0.0141997
970.003	0.0142016
970.081	0.0141382
970.160	0.0140630
970.238	0.0140559
970.316	0.0141533
970.394	0.0140789
970.472	0.0140414
970.550	0.0141813
970.628	0.0141104
970.706	0.0141535
970.785	0.0140419
970.863	0.0140380
970.941	0.0140563
971.019	0.0140340
971.097	0.0140566
971.175	0.0139076
971.253	0.0139733
971.331	0.0139646
971.410	0.0138332
971.488	0.0139207
971.566	0.0139391
971.644	0.0139352
971.722	0.0140044
971.800	0.0139585
971.878	0.0139813
971.956	0.0140019
972.035	0.0141331
972.113	0.0140630
972.191	0.0140730
972.269	0.0141047
972.347	0.0140671
972.425	0.0140576
972.503	0.0141257
972.581	0.0141270
972.660	0.0143349
972.738	0.0142343
972.816	0.0143353
972.894	0.0142305
972.972	0.0143463
973.050	0.0142959
973.128	0.0142191
973.206	0.0141157
973.285	0.0142310
973.363	0.0142083
973.441	0.0142548
973.519	0.0141707
973.597	0.0142087
973.675	0.0141808
973.753	0.0140857
973.831	0.0142067
973.910	0.0141551
973.988	0.0141784
974.066	0.0141599
974.144	0.0141930
974.222	0.0142792
974.300	0.0141490
974.378	0.0142930
974.456	0.0143018
974.535	0.0143428
974.613	0.0142512
974.691	0.0143336
974.769	0.0144128
974.847	0.0144878
974.925	0.0145271
975.003	0.0145624
975.081	0.0144632
975.160	0.0143599
975.238	0.0145175
975.316	0.0145158
975.394	0.0144231
975.472	0.0144438
975.550	0.0143897
975.628	0.0143786
975.706	0.0145211
975.785	0.0143887
975.863	0.0143581
975.941	0.0144312
976.019	0.0143978
976.097	0.0142217
976.175	0.0143159
976.253	0.0142489
976.331	0.0144032
976.410	0.0142255
976.488	0.0143097
976.566	0.0143599
976.644	0.0143783
976.722	0.0143681
976.800	0.0145168
976.878	0.0143079
976.956	0.0145744
977.035	0.0145080
977.113	0.0143285
977.191	0.0143797
977.269	0.0144586
977.347	0.0143970
977.425	0.0144293
977.503	0.0145218
977.581	0.0143288
977.660	0.0144851
977.738	0.0143002
977.816	0.0143260
977.894	0.0142595
977.972	0.0142007
978.050	0.0142176
978.128	0.0141147
978.206	0.0141898
978.285	0.0142696
978.363	0.0140975
978.441	0.0140773
978.519	0.0140330
978.597	0.0142105
978.675	0.0141902
978.753	0.0142605
978.831	0.0143510
978.910	0.0141843
978.988	0.0142456
979.066	0.0142848
979.144	0.0143567
979.222	0.0142895
979.300	0.0144020
979.378	0.0143823
979.456	0.0143213
979.535	0.0143964
979.613	0.0144820
979.691	0.0145334
979.769	0.0144205
979.847	0.0145190
979.925	0.0144099
