05/03/2022	20:38:03	Ver.	4.1	UNKNOWN
Optical Delay	660.003261	Delta X		0.078125	Sweeps	1	Scan Rate	0/0
Coordinates	Axis 1	NaN	Axis 2	NaN	Axis 3	NaN	Axis 4	NaN	Axis 5	NaN	Axis 6	0.000000
TX Power	0.000000	RX Power	0.000000

660.003	0.0145170
660.081	0.0145122
660.160	0.0144752
660.238	0.0145042
660.316	0.0145613
660.394	0.0144891
660.472	0.0144359
660.550	0.0143612
660.628	0.0145914
660.706	0.0145415
660.785	0.0145106
660.863	0.0145427
660.941	0.0145154
661.019	0.0145544
661.097	0.0144952
661.175	0.0146024
661.253	0.0144900
661.331	0.0144759
661.410	0.0144870
661.488	0.0145688
661.566	0.0145870
661.644	0.0145004
661.722	0.0145287
661.800	0.0144624
661.878	0.0144208
661.956	0.0144106
662.035	0.0143830
662.113	0.0147195
662.191	0.0145818
662.269	0.0145343
662.347	0.0144659
662.425	0.0146442
662.503	0.0144749
662.581	0.0144328
662.660	0.0145008
662.738	0.0144920
662.816	0.0145354
662.894	0.0146331
662.972	0.0144633
663.050	0.0145398
663.128	0.0145190
663.206	0.0145643
663.285	0.0145370
663.363	0.0144720
663.441	0.0146786
663.519	0.0143799
663.597	0.0144522
663.675	0.0145682
663.753	0.0146660
663.831	0.0145291
663.910	0.0145056
663.988	0.0145840
664.066	0.0144555
664.144	0.0143656
664.222	0.0146680
664.300	0.0145802
664.378	0.0144501
664.456	0.0145736
664.535	0.0145457
664.613	0.0144823
664.691	0.0146127
664.769	0.0146585
664.847	0.0146169
664.925	0.0146242
665.003	0.0144660
665.081	0.0145579
665.160	0.0144514
665.238	0.0143786
665.316	0.0147074
665.394	0.0145747
665.472	0.0145313
665.550	0.0145541
665.628	0.0147580
665.706	0.0145660
665.785	0.0146076
665.863	0.0145782
665.941	0.0145472
666.019	0.0145456
666.097	0.0146331
666.175	0.0145008
666.253	0.0145065
666.331	0.0146025
666.410	0.0145172
666.488	0.0145773
666.566	0.0147169
666.644	0.0145518
666.722	0.0145811
666.800	0.0144936
666.878	0.0145451
666.956	0.0145905
667.035	0.0145569
667.113	0.0145962
667.191	0.0145811
667.269	0.0146052
667.347	0.0146149
667.425	0.0144986
667.503	0.0146744
667.581	0.0145878
667.660	0.0144982
667.738	0.0146504
667.816	0.0146382
667.894	0.0146382
667.972	0.0147208
668.050	0.0146735
668.128	0.0146450
668.206	0.0146929
668.285	0.0145596
668.363	0.0144082
668.441	0.0146021
668.519	0.0146622
668.597	0.0147071
668.675	0.0145504
668.753	0.0145883
668.831	0.0145848
668.910	0.0146345
668.988	0.0147511
669.066	0.0147755
669.144	0.0146641
669.222	0.0145863
669.300	0.0145576
669.378	0.0145866
669.456	0.0147205
669.535	0.0146416
669.613	0.0145981
669.691	0.0145509
669.769	0.0146671
669.847	0.0146967
669.925	0.0146301
670.003	0.0146413
670.081	0.0146901
670.160	0.0145145
670.238	0.0144997
670.316	0.0145351
670.394	0.0147286
670.472	0.0146672
670.550	0.0145355
670.628	0.0146581
670.706	0.0146069
670.785	0.0145883
670.863	0.0147760
670.941	0.0147060
671.019	0.0146559
671.097	0.0146165
671.175	0.0145845
671.253	0.0145535
671.331	0.0146655
671.410	0.0146675
671.488	0.0147163
671.566	0.0146050
671.644	0.0146356
671.722	0.0146507
671.800	0.0146804
671.878	0.0146546
671.956	0.0146233
672.035	0.0146460
672.113	0.0146898
672.191	0.0146074
672.269	0.0147388
672.347	0.0146473
672.425	0.0146201
672.503	0.0146561
672.581	0.0147035
672.660	0.0146894
672.738	0.0146405
672.816	0.0146751
672.894	0.0147832
672.972	0.0147440
673.050	0.0146632
673.128	0.0147194
673.206	0.0146702
673.285	0.0147491
673.363	0.0147613
673.441	0.0146205
673.519	0.0147561
673.597	0.0147697
673.675	0.0145766
673.753	0.0146563
673.831	0.0147578
673.910	0.0147128
673.988	0.0146959
674.066	0.0146696
674.144	0.0146303
674.222	0.0146117
674.300	0.0147169
674.378	0.0147429
674.456	0.0145519
674.535	0.0146249
674.613	0.0146948
674.691	0.0145541
674.769	0.0146520
674.847	0.0146586
674.925	0.0146622
675.003	0.0146986
675.081	0.0146643
675.160	0.0146964
675.238	0.0148081
675.316	0.0147474
675.394	0.0147565
675.472	0.0147935
675.550	0.0147205
675.628	0.0146502
675.706	0.0148859
675.785	0.0146259
675.863	0.0147265
675.941	0.0147771
676.019	0.0147688
676.097	0.0146571
676.175	0.0146037
676.253	0.0145683
676.331	0.0146873
676.410	0.0147594
676.488	0.0145959
676.566	0.0146145
676.644	0.0145391
676.722	0.0146012
676.800	0.0146923
676.878	0.0147009
676.956	0.0146428
677.035	0.0147871
677.113	0.0147204
677.191	0.0145927
677.269	0.0145289
677.347	0.0146442
677.425	0.0146994
677.503	0.0145387
677.581	0.0145085
677.660	0.0145488
677.738	0.0145410
677.816	0.0144540
677.894	0.0143851
677.972	0.0145617
678.050	0.0145438
678.128	0.0146265
678.206	0.0145313
678.285	0.0144890
678.363	0.0146119
678.441	0.0145847
678.519	0.0144447
678.597	0.0145304
678.675	0.0147109
678.753	0.0145241
678.831	0.0145391
678.910	0.0145724
678.988	0.0144331
679.066	0.0144801
679.144	0.0144806
679.222	0.0144896
679.300	0.0143174
679.378	0.0143904
679.456	0.0144207
679.535	0.0144398
679.613	0.0144166
679.691	0.0144527
679.769	0.0143575
679.847	0.0143618
679.925	0.0144208
680.003	0.0142780
680.081	0.0143495
680.160	0.0144643
680.238	0.0144183
680.316	0.0144468
680.394	0.0145287
680.472	0.0145895
680.550	0.0145963
680.628	0.0145683
680.706	0.0144746
680.785	0.0145210
680.863	0.0146595
680.941	0.0147060
681.019	0.0146746
681.097	0.0146458
681.175	0.0145699
681.253	0.0146240
681.331	0.0145298
681.410	0.0144787
681.488	0.0144829
681.566	0.0145013
681.644	0.0143658
681.722	0.0144603
681.800	0.0144210
681.878	0.0144887
681.956	0.0145238
682.035	0.0144286
682.113	0.0144363
682.191	0.0144578
682.269	0.0145039
682.347	0.0144098
682.425	0.0144679
682.503	0.0145335
682.581	0.0144658
682.660	0.0144373
682.738	0.0145432
682.816	0.0145956
682.894	0.0144793
682.972	0.0145564
683.050	0.0146171
683.128	0.0146492
683.206	0.0147102
683.285	0.0145517
683.363	0.0143732
683.441	0.0145926
683.519	0.0146577
683.597	0.0146924
683.675	0.0145068
683.753	0.0147070
683.831	0.0146700
683.910	0.0146375
683.988	0.0145744
684.066	0.0146352
684.144	0.0145466
684.222	0.0145061
684.300	0.0144202
684.378	0.0144668
684.456	0.0144611
684.535	0.0145650
684.613	0.0142866
684.691	0.0144341
684.769	0.0144582
684.847	0.0144655
684.925	0.0143469
685.003	0.0144646
685.081	0.0144814
685.160	0.0144170
685.238	0.0143909
685.316	0.0143995
685.394	0.0145309
685.472	0.0144841
685.550	0.0143875
685.628	0.0144680
685.706	0.0145277
685.785	0.0144425
685.863	0.0145579
685.941	0.0147552
686.019	0.0146212
686.097	0.0145939
686.175	0.0146164
686.253	0.0146632
686.331	0.0146922
686.410	0.0145804
686.488	0.0144883
686.566	0.0146426
686.644	0.0144785
686.722	0.0147089
686.800	0.0145477
686.878	0.0146043
686.956	0.0145603
687.035	0.0146042
687.113	0.0146156
687.191	0.0147004
687.269	0.0147390
687.347	0.0147717
687.425	0.0148363
687.503	0.0148067
687.581	0.0147688
687.660	0.0147199
687.738	0.0149955
687.816	0.0148917
687.894	0.0149160
687.972	0.0148150
688.050	0.0147606
688.128	0.0147364
688.206	0.0147787
688.285	0.0146558
688.363	0.0146406
688.441	0.0145940
688.519	0.0145354
688.597	0.0146076
688.675	0.0145142
688.753	0.0144888
688.831	0.0145193
688.910	0.0145719
688.988	0.0145729
689.066	0.0143918
689.144	0.0144877
689.222	0.0143932
689.300	0.0144297
689.378	0.0143172
689.456	0.0144865
689.535	0.0145727
689.613	0.0145702
689.691	0.0146010
689.769	0.0145013
689.847	0.0146358
689.925	0.0145090
690.003	0.0146752
690.081	0.0145419
690.160	0.0146059
690.238	0.0146165
690.316	0.0147048
690.394	0.0146722
690.472	0.0146751
690.550	0.0147822
690.628	0.0147961
690.706	0.0147094
690.785	0.0147572
690.863	0.0146868
690.941	0.0147971
691.019	0.0147988
691.097	0.0146543
691.175	0.0147819
691.253	0.0147775
691.331	0.0147890
691.410	0.0146944
691.488	0.0147240
691.566	0.0146168
691.644	0.0146701
691.722	0.0147708
691.800	0.0147424
691.878	0.0147620
691.956	0.0146303
692.035	0.0145879
692.113	0.0146786
692.191	0.0146909
692.269	0.0148096
692.347	0.0147540
692.425	0.0145550
692.503	0.0147723
692.581	0.0146988
692.660	0.0147349
692.738	0.0147350
692.816	0.0147009
692.894	0.0147688
692.972	0.0148048
693.050	0.0146476
693.128	0.0146530
693.206	0.0147021
693.285	0.0145892
693.363	0.0143497
693.441	0.0146245
693.519	0.0144662
693.597	0.0144228
693.675	0.0142670
693.753	0.0142268
693.831	0.0143054
693.910	0.0142307
693.988	0.0142308
694.066	0.0144370
694.144	0.0142937
694.222	0.0142654
694.300	0.0144862
694.378	0.0145560
694.456	0.0145048
694.535	0.0144592
694.613	0.0145084
694.691	0.0145461
694.769	0.0146540
694.847	0.0146842
694.925	0.0147410
695.003	0.0147841
695.081	0.0149256
695.160	0.0147319
695.238	0.0148246
695.316	0.0147585
695.394	0.0147477
695.472	0.0148714
695.550	0.0148589
695.628	0.0148567
695.706	0.0148348
695.785	0.0147546
695.863	0.0147634
695.941	0.0145945
696.019	0.0146949
696.097	0.0147585
696.175	0.0146201
696.253	0.0145399
696.331	0.0146177
696.410	0.0146073
696.488	0.0145902
696.566	0.0145668
696.644	0.0145847
696.722	0.0147417
696.800	0.0146006
696.878	0.0148466
696.956	0.0147891
697.035	0.0146861
697.113	0.0148508
697.191	0.0148992
697.269	0.0148736
697.347	0.0149233
697.425	0.0147540
697.503	0.0148149
697.581	0.0149444
697.660	0.0148761
697.738	0.0148698
697.816	0.0148187
697.894	0.0149094
697.972	0.0149394
698.050	0.0147536
698.128	0.0147434
698.206	0.0148399
698.285	0.0146713
698.363	0.0147025
698.441	0.0147691
698.519	0.0147929
698.597	0.0146070
698.675	0.0146767
698.753	0.0146643
698.831	0.0145587
698.910	0.0146452
698.988	0.0145850
699.066	0.0146028
699.144	0.0144678
699.222	0.0145446
699.300	0.0145244
699.378	0.0142593
699.456	0.0145267
699.535	0.0143514
699.613	0.0143359
699.691	0.0144403
699.769	0.0144317
699.847	0.0143307
699.925	0.0144398
700.003	0.0144641
700.081	0.0143922
700.160	0.0144659
700.238	0.0143994
700.316	0.0143816
700.394	0.0144350
700.472	0.0145442
700.550	0.0145416
700.628	0.0145499
700.706	0.0147477
700.785	0.0146980
700.863	0.0146278
700.941	0.0147205
701.019	0.0146788
701.097	0.0145871
701.175	0.0147070
701.253	0.0145959
701.331	0.0146233
701.410	0.0145677
701.488	0.0146035
701.566	0.0144839
701.644	0.0143721
701.722	0.0143171
701.800	0.0143165
701.878	0.0144330
701.956	0.0144566
702.035	0.0142896
702.113	0.0144457
702.191	0.0144729
702.269	0.0144647
702.347	0.0144914
702.425	0.0144824
702.503	0.0146716
702.581	0.0146883
702.660	0.0146834
702.738	0.0149605
702.816	0.0149923
702.894	0.0149250
702.972	0.0148643
703.050	0.0148634
703.128	0.0148439
703.206	0.0147310
703.285	0.0148310
703.363	0.0147263
703.441	0.0146304
703.519	0.0145659
703.597	0.0144225
703.675	0.0143952
703.753	0.0143193
703.831	0.0143007
703.910	0.0142979
703.988	0.0143004
704.066	0.0143382
704.144	0.0143436
704.222	0.0144724
704.300	0.0145699
704.378	0.0146138
704.456	0.0147111
704.535	0.0147302
704.613	0.0148517
704.691	0.0147401
704.769	0.0147061
704.847	0.0146897
704.925	0.0145554
705.003	0.0146868
705.081	0.0145934
705.160	0.0144612
705.238	0.0144452
705.316	0.0143497
705.394	0.0144122
705.472	0.0143354
705.550	0.0142767
705.628	0.0142300
705.706	0.0142163
705.785	0.0142505
705.863	0.0143794
705.941	0.0142594
706.019	0.0142445
706.097	0.0144014
706.175	0.0144906
706.253	0.0144595
706.331	0.0144439
706.410	0.0145158
706.488	0.0143551
706.566	0.0143597
706.644	0.0143233
706.722	0.0144366
706.800	0.0144558
706.878	0.0145810
706.956	0.0143499
707.035	0.0144676
707.113	0.0145567
707.191	0.0145705
707.269	0.0146341
707.347	0.0146532
707.425	0.0146687
707.503	0.0147052
707.581	0.0147558
707.660	0.0145674
707.738	0.0145235
707.816	0.0146275
707.894	0.0145829
707.972	0.0145761
708.050	0.0145512
708.128	0.0145694
708.206	0.0146001
708.285	0.0144858
708.363	0.0144156
708.441	0.0146048
708.519	0.0147097
708.597	0.0147310
708.675	0.0145194
708.753	0.0145905
708.831	0.0148019
708.910	0.0146859
708.988	0.0147694
709.066	0.0148083
709.144	0.0147900
709.222	0.0148943
709.300	0.0146925
709.378	0.0146588
709.456	0.0148288
709.535	0.0146596
709.613	0.0146207
709.691	0.0145560
709.769	0.0143829
709.847	0.0144479
709.925	0.0143931
710.003	0.0142623
710.081	0.0144015
710.160	0.0144337
710.238	0.0145953
710.316	0.0147569
710.394	0.0146452
710.472	0.0146718
710.550	0.0147404
710.628	0.0148660
710.706	0.0149567
710.785	0.0148257
710.863	0.0148448
710.941	0.0148270
711.019	0.0149014
711.097	0.0147076
711.175	0.0145645
711.253	0.0144559
711.331	0.0143958
711.410	0.0143052
711.488	0.0143383
711.566	0.0143672
711.644	0.0141144
711.722	0.0142529
711.800	0.0142437
711.878	0.0142318
711.956	0.0142815
712.035	0.0143285
712.113	0.0143868
712.191	0.0143068
712.269	0.0144409
712.347	0.0143626
712.425	0.0143694
712.503	0.0144123
712.581	0.0145133
712.660	0.0144733
712.738	0.0144026
712.816	0.0144993
712.894	0.0144177
712.972	0.0146217
713.050	0.0145392
713.128	0.0144913
713.206	0.0146256
713.285	0.0147465
713.363	0.0147514
713.441	0.0146371
713.519	0.0146523
713.597	0.0147370
713.675	0.0146645
713.753	0.0147018
713.831	0.0146502
713.910	0.0147731
713.988	0.0145656
714.066	0.0145971
714.144	0.0146020
714.222	0.0143947
714.300	0.0144903
714.378	0.0145332
714.456	0.0145383
714.535	0.0144791
714.613	0.0143804
714.691	0.0145031
714.769	0.0147346
714.847	0.0145634
714.925	0.0146175
715.003	0.0146613
715.081	0.0146755
715.160	0.0146548
715.238	0.0147427
715.316	0.0147915
715.394	0.0148546
715.472	0.0146555
715.550	0.0145233
715.628	0.0146693
715.706	0.0146209
715.785	0.0145142
715.863	0.0143932
715.941	0.0144310
716.019	0.0143610
716.097	0.0143422
716.175	0.0143453
716.253	0.0142746
716.331	0.0141483
716.410	0.0141476
716.488	0.0143127
716.566	0.0144291
716.644	0.0144629
716.722	0.0145387
716.800	0.0146478
716.878	0.0146993
716.956	0.0148757
717.035	0.0146474
717.113	0.0148085
717.191	0.0147286
717.269	0.0147108
717.347	0.0147770
717.425	0.0147600
717.503	0.0145923
717.581	0.0145517
717.660	0.0145175
717.738	0.0143894
717.816	0.0144479
717.894	0.0142631
717.972	0.0142009
718.050	0.0142263
718.128	0.0144964
718.206	0.0143034
718.285	0.0142651
718.363	0.0144150
718.441	0.0142534
718.519	0.0144135
718.597	0.0143362
718.675	0.0144612
718.753	0.0145647
718.831	0.0144602
718.910	0.0145351
718.988	0.0145949
719.066	0.0144633
719.144	0.0144026
719.222	0.0145580
719.300	0.0145970
719.378	0.0145346
719.456	0.0146510
719.535	0.0145290
719.613	0.0145570
719.691	0.0145495
719.769	0.0146541
719.847	0.0146792
719.925	0.0147444
720.003	0.0147814
720.081	0.0147509
720.160	0.0147086
720.238	0.0147674
720.316	0.0148480
720.394	0.0148327
720.472	0.0147666
720.550	0.0147507
720.628	0.0146904
720.706	0.0148214
720.785	0.0146748
720.863	0.0148634
720.941	0.0148665
721.019	0.0147052
721.097	0.0149221
721.175	0.0149204
721.253	0.0148377
721.331	0.0149200
721.410	0.0148955
721.488	0.0149059
721.566	0.0149150
721.644	0.0151361
721.722	0.0148219
721.800	0.0147567
721.878	0.0149220
721.956	0.0147501
722.035	0.0148000
722.113	0.0147361
722.191	0.0147295
722.269	0.0146529
722.347	0.0146307
722.425	0.0144802
722.503	0.0145472
722.581	0.0143773
722.660	0.0145610
722.738	0.0144678
722.816	0.0146192
722.894	0.0145376
722.972	0.0145609
723.050	0.0145134
723.128	0.0144448
723.206	0.0145515
723.285	0.0145307
723.363	0.0145608
723.441	0.0146701
723.519	0.0146583
723.597	0.0145931
723.675	0.0147635
723.753	0.0147041
723.831	0.0147753
723.910	0.0146625
723.988	0.0146436
724.066	0.0147342
724.144	0.0146448
724.222	0.0145482
724.300	0.0144557
724.378	0.0145517
724.456	0.0143983
724.535	0.0143167
724.613	0.0141346
724.691	0.0141835
724.769	0.0142588
724.847	0.0140034
724.925	0.0141959
725.003	0.0142033
725.081	0.0143510
725.160	0.0141457
725.238	0.0142545
725.316	0.0144092
725.394	0.0144298
725.472	0.0145380
725.550	0.0144618
725.628	0.0145711
725.706	0.0145922
725.785	0.0145070
725.863	0.0145329
725.941	0.0146503
726.019	0.0144792
726.097	0.0145820
726.175	0.0144495
726.253	0.0145547
726.331	0.0146748
726.410	0.0145823
726.488	0.0145592
726.566	0.0145956
726.644	0.0145441
726.722	0.0147148
726.800	0.0147379
726.878	0.0147253
726.956	0.0146779
727.035	0.0146136
727.113	0.0148689
727.191	0.0149869
727.269	0.0148515
727.347	0.0148188
727.425	0.0149187
727.503	0.0148598
727.581	0.0149013
727.660	0.0149619
727.738	0.0148315
727.816	0.0147522
727.894	0.0148116
727.972	0.0148260
728.050	0.0149162
728.128	0.0149912
728.206	0.0149744
728.285	0.0149763
728.363	0.0148574
728.441	0.0147806
728.519	0.0147158
728.597	0.0146947
728.675	0.0147467
728.753	0.0145495
728.831	0.0145346
728.910	0.0144904
728.988	0.0144019
729.066	0.0144971
729.144	0.0144917
729.222	0.0143649
729.300	0.0144305
729.378	0.0143272
729.456	0.0144572
729.535	0.0144019
729.613	0.0145570
729.691	0.0144904
729.769	0.0143778
729.847	0.0143033
729.925	0.0145608
730.003	0.0145895
730.081	0.0144099
730.160	0.0144199
730.238	0.0144796
730.316	0.0143796
730.394	0.0145396
730.472	0.0145425
730.550	0.0145273
730.628	0.0145703
730.706	0.0144056
730.785	0.0142770
730.863	0.0143580
730.941	0.0143060
731.019	0.0142866
731.097	0.0142241
731.175	0.0142034
731.253	0.0141515
731.331	0.0140510
731.410	0.0141396
731.488	0.0142583
731.566	0.0141601
731.644	0.0140974
731.722	0.0141764
731.800	0.0143292
731.878	0.0143044
731.956	0.0143129
732.035	0.0142763
732.113	0.0144149
732.191	0.0144113
732.269	0.0146422
732.347	0.0144390
732.425	0.0144948
732.503	0.0144662
732.581	0.0142870
732.660	0.0144501
732.738	0.0144497
732.816	0.0144723
732.894	0.0144036
732.972	0.0143750
733.050	0.0144485
733.128	0.0146584
733.206	0.0145547
733.285	0.0145867
733.363	0.0146930
733.441	0.0146103
733.519	0.0146822
733.597	0.0147749
733.675	0.0148027
733.753	0.0148984
733.831	0.0147067
733.910	0.0148455
733.988	0.0149187
734.066	0.0149196
734.144	0.0149979
734.222	0.0148927
734.300	0.0150558
734.378	0.0149707
734.456	0.0150526
734.535	0.0150475
734.613	0.0149525
734.691	0.0149772
734.769	0.0149982
734.847	0.0149126
734.925	0.0149931
735.003	0.0148609
735.081	0.0148296
735.160	0.0147533
735.238	0.0145013
735.316	0.0146286
735.394	0.0146528
735.472	0.0147311
735.550	0.0146216
735.628	0.0145086
735.706	0.0144068
735.785	0.0144739
735.863	0.0146311
735.941	0.0144391
736.019	0.0143653
736.097	0.0144707
736.175	0.0144437
736.253	0.0144614
736.331	0.0144972
736.410	0.0145018
736.488	0.0143761
736.566	0.0144622
736.644	0.0144496
736.722	0.0143668
736.800	0.0144366
736.878	0.0143130
736.956	0.0142356
737.035	0.0144149
737.113	0.0143530
737.191	0.0140763
737.269	0.0142422
737.347	0.0141816
737.425	0.0142434
737.503	0.0142045
737.581	0.0141699
737.660	0.0142466
737.738	0.0142392
737.816	0.0140556
737.894	0.0141254
737.972	0.0142672
738.050	0.0143153
738.128	0.0142789
738.206	0.0141661
738.285	0.0141570
738.363	0.0142819
738.441	0.0143014
738.519	0.0142184
738.597	0.0143281
738.675	0.0143073
738.753	0.0141502
738.831	0.0142920
738.910	0.0142579
738.988	0.0143301
739.066	0.0142994
739.144	0.0144226
739.222	0.0145092
739.300	0.0143908
739.378	0.0144809
739.456	0.0144579
739.535	0.0144269
739.613	0.0143478
739.691	0.0145240
739.769	0.0144500
739.847	0.0144318
739.925	0.0143829
740.003	0.0145200
740.081	0.0144553
740.160	0.0146954
740.238	0.0147671
740.316	0.0147832
740.394	0.0146859
740.472	0.0147423
740.550	0.0148726
740.628	0.0149541
740.706	0.0148675
740.785	0.0149346
740.863	0.0149244
740.941	0.0150315
741.019	0.0150394
741.097	0.0151620
741.175	0.0151824
741.253	0.0151172
741.331	0.0152841
741.410	0.0151492
741.488	0.0150472
741.566	0.0150412
741.644	0.0148339
741.722	0.0148330
741.800	0.0149242
741.878	0.0146301
741.956	0.0147729
742.035	0.0147636
742.113	0.0145831
742.191	0.0145648
742.269	0.0144968
742.347	0.0144032
742.425	0.0145197
742.503	0.0144978
742.581	0.0144199
742.660	0.0142946
742.738	0.0143443
742.816	0.0143387
742.894	0.0144137
742.972	0.0143390
743.050	0.0144357
743.128	0.0143187
743.206	0.0143589
743.285	0.0143594
743.363	0.0144275
743.441	0.0144587
743.519	0.0144004
743.597	0.0143675
743.675	0.0143092
743.753	0.0142562
743.831	0.0142355
743.910	0.0142102
743.988	0.0142917
744.066	0.0142915
744.144	0.0142912
744.222	0.0143414
744.300	0.0141666
744.378	0.0142779
744.456	0.0143619
744.535	0.0144901
744.613	0.0145295
744.691	0.0143816
744.769	0.0145539
744.847	0.0143882
744.925	0.0144042
745.003	0.0144260
745.081	0.0143584
745.160	0.0141711
745.238	0.0144810
745.316	0.0144091
745.394	0.0144127
745.472	0.0143982
745.550	0.0143603
745.628	0.0144066
745.706	0.0145901
745.785	0.0145460
745.863	0.0145745
745.941	0.0145940
746.019	0.0146529
746.097	0.0147240
746.175	0.0147582
746.253	0.0147846
746.331	0.0147932
746.410	0.0148601
746.488	0.0147475
746.566	0.0147734
746.644	0.0149043
746.722	0.0148005
746.800	0.0148602
746.878	0.0149609
746.956	0.0150645
747.035	0.0149486
747.113	0.0149461
747.191	0.0149942
747.269	0.0149680
747.347	0.0150563
747.425	0.0151392
747.503	0.0151022
747.581	0.0151527
747.660	0.0151958
747.738	0.0151402
747.816	0.0151720
747.894	0.0151686
747.972	0.0151743
748.050	0.0151718
748.128	0.0151110
748.206	0.0151919
748.285	0.0151544
748.363	0.0150396
748.441	0.0149252
748.519	0.0148687
748.597	0.0148818
748.675	0.0148601
748.753	0.0147634
748.831	0.0147738
748.910	0.0147873
748.988	0.0146844
749.066	0.0144961
749.144	0.0145506
749.222	0.0145132
749.300	0.0145593
749.378	0.0145602
749.456	0.0146072
749.535	0.0145210
749.613	0.0144962
749.691	0.0145065
749.769	0.0144795
749.847	0.0144485
749.925	0.0144183
750.003	0.0143989
750.081	0.0144234
750.160	0.0142879
750.238	0.0143155
750.316	0.0142680
750.394	0.0142921
750.472	0.0142777
750.550	0.0142292
750.628	0.0142803
750.706	0.0143349
750.785	0.0142643
750.863	0.0145505
750.941	0.0144825
751.019	0.0142871
751.097	0.0142546
751.175	0.0144650
751.253	0.0144537
751.331	0.0144323
751.410	0.0144501
751.488	0.0145425
751.566	0.0144811
751.644	0.0143969
751.722	0.0145719
751.800	0.0144472
751.878	0.0145744
751.956	0.0145579
752.035	0.0144849
752.113	0.0144893
752.191	0.0146365
752.269	0.0145534
752.347	0.0144438
752.425	0.0146010
752.503	0.0146292
752.581	0.0146912
752.660	0.0146615
752.738	0.0145012
752.816	0.0147742
752.894	0.0148673
752.972	0.0147113
753.050	0.0147683
753.128	0.0147343
753.206	0.0147795
753.285	0.0147002
753.363	0.0147808
753.441	0.0148119
753.519	0.0147968
753.597	0.0149017
753.675	0.0148714
753.753	0.0147652
753.831	0.0147178
753.910	0.0150252
753.988	0.0150729
754.066	0.0151340
754.144	0.0149522
754.222	0.0150215
754.300	0.0149882
754.378	0.0148878
754.456	0.0150780
754.535	0.0149733
754.613	0.0150696
754.691	0.0150271
754.769	0.0150071
754.847	0.0149024
754.925	0.0148954
755.003	0.0148080
755.081	0.0147175
755.160	0.0147202
755.238	0.0147192
755.316	0.0146510
755.394	0.0147443
755.472	0.0145062
755.550	0.0145132
755.628	0.0145345
755.706	0.0145762
755.785	0.0144535
755.863	0.0143189
755.941	0.0144366
756.019	0.0143330
756.097	0.0143984
756.175	0.0145203
756.253	0.0145000
756.331	0.0142042
756.410	0.0141170
756.488	0.0142880
756.566	0.0142431
756.644	0.0141068
756.722	0.0140780
756.800	0.0141239
756.878	0.0140072
756.956	0.0140611
757.035	0.0139443
757.113	0.0141315
757.191	0.0140187
757.269	0.0141060
757.347	0.0141952
757.425	0.0140520
757.503	0.0140072
757.581	0.0141024
757.660	0.0141732
757.738	0.0141560
757.816	0.0139631
757.894	0.0142039
757.972	0.0142710
758.050	0.0143452
758.128	0.0142606
758.206	0.0140641
758.285	0.0143183
758.363	0.0142633
758.441	0.0142991
758.519	0.0145482
758.597	0.0143102
758.675	0.0143820
758.753	0.0145551
758.831	0.0144498
758.910	0.0145461
758.988	0.0145620
759.066	0.0145747
759.144	0.0144893
759.222	0.0145056
759.300	0.0145779
759.378	0.0146920
759.456	0.0145826
759.535	0.0146411
759.613	0.0145337
759.691	0.0146829
759.769	0.0146271
759.847	0.0146278
759.925	0.0146147
760.003	0.0147177
760.081	0.0147687
760.160	0.0145815
760.238	0.0146538
760.316	0.0149135
760.394	0.0148119
760.472	0.0148562
760.550	0.0148869
760.628	0.0149347
760.706	0.0149212
760.785	0.0148761
760.863	0.0148809
760.941	0.0149926
761.019	0.0148367
761.097	0.0148010
761.175	0.0148061
761.253	0.0147975
761.331	0.0148087
761.410	0.0147614
761.488	0.0148045
761.566	0.0147622
761.644	0.0147485
761.722	0.0146326
761.800	0.0146651
761.878	0.0145994
761.956	0.0146457
762.035	0.0145956
762.113	0.0145228
762.191	0.0145043
762.269	0.0144678
762.347	0.0144434
762.425	0.0145877
762.503	0.0146516
762.581	0.0145737
762.660	0.0143935
762.738	0.0143535
762.816	0.0144461
762.894	0.0144127
762.972	0.0143965
763.050	0.0143795
763.128	0.0143551
763.206	0.0144035
763.285	0.0142683
763.363	0.0143120
763.441	0.0142731
763.519	0.0142656
763.597	0.0142527
763.675	0.0140365
763.753	0.0141516
763.831	0.0141836
763.910	0.0139913
763.988	0.0141113
764.066	0.0140774
764.144	0.0141153
764.222	0.0139988
764.300	0.0141348
764.378	0.0143475
764.456	0.0143806
764.535	0.0141817
764.613	0.0143249
764.691	0.0143507
764.769	0.0142783
764.847	0.0143675
764.925	0.0144174
765.003	0.0142799
765.081	0.0143803
765.160	0.0144052
765.238	0.0144673
765.316	0.0144601
765.394	0.0143076
765.472	0.0143676
765.550	0.0143371
765.628	0.0144888
765.706	0.0143894
765.785	0.0143527
765.863	0.0145117
765.941	0.0145164
766.019	0.0143836
766.097	0.0145455
766.175	0.0146504
766.253	0.0146365
766.331	0.0145039
766.410	0.0147473
766.488	0.0146891
766.566	0.0148009
766.644	0.0148779
766.722	0.0147324
766.800	0.0150072
766.878	0.0149313
766.956	0.0150545
767.035	0.0150973
767.113	0.0150763
767.191	0.0151312
767.269	0.0151483
767.347	0.0152441
767.425	0.0151731
767.503	0.0151485
767.581	0.0149169
767.660	0.0149902
767.738	0.0150550
767.816	0.0151611
767.894	0.0150989
767.972	0.0150925
768.050	0.0150378
768.128	0.0150173
768.206	0.0150591
768.285	0.0150770
768.363	0.0150236
768.441	0.0149986
768.519	0.0150337
768.597	0.0150070
768.675	0.0147755
768.753	0.0146617
768.831	0.0147881
768.910	0.0149755
768.988	0.0147784
769.066	0.0148362
769.144	0.0147533
769.222	0.0148579
769.300	0.0146468
769.378	0.0147219
769.456	0.0147195
769.535	0.0148153
769.613	0.0147530
769.691	0.0146621
769.769	0.0146923
769.847	0.0147794
769.925	0.0146948
770.003	0.0146075
770.081	0.0146056
770.160	0.0144986
770.238	0.0143380
770.316	0.0145831
770.394	0.0144407
770.472	0.0144469
770.550	0.0144684
770.628	0.0143633
770.706	0.0143506
770.785	0.0142712
770.863	0.0144099
770.941	0.0142882
771.019	0.0142532
771.097	0.0144669
771.175	0.0145031
771.253	0.0142801
771.331	0.0144532
771.410	0.0145049
771.488	0.0144583
771.566	0.0143773
771.644	0.0143758
771.722	0.0144833
771.800	0.0145702
771.878	0.0144435
771.956	0.0144784
772.035	0.0144942
772.113	0.0144675
772.191	0.0144376
772.269	0.0144532
772.347	0.0144433
772.425	0.0144727
772.503	0.0145588
772.581	0.0144750
772.660	0.0145435
772.738	0.0146581
772.816	0.0147650
772.894	0.0147323
772.972	0.0146958
773.050	0.0147324
773.128	0.0147783
773.206	0.0148969
773.285	0.0148450
773.363	0.0147629
773.441	0.0148854
773.519	0.0149137
773.597	0.0149574
773.675	0.0149875
773.753	0.0150746
773.831	0.0150918
773.910	0.0150063
773.988	0.0150026
774.066	0.0151353
774.144	0.0150622
774.222	0.0150269
774.300	0.0149854
774.378	0.0149812
774.456	0.0150092
774.535	0.0148477
774.613	0.0149159
774.691	0.0149141
774.769	0.0148749
774.847	0.0147955
774.925	0.0149295
775.003	0.0148714
775.081	0.0146753
775.160	0.0147890
775.238	0.0146678
775.316	0.0146263
775.394	0.0146607
775.472	0.0146991
775.550	0.0145070
775.628	0.0142786
775.706	0.0144418
775.785	0.0146696
775.863	0.0144291
775.941	0.0144606
776.019	0.0146525
776.097	0.0144441
776.175	0.0145065
776.253	0.0143763
776.331	0.0145782
776.410	0.0144900
776.488	0.0145363
776.566	0.0145650
776.644	0.0142738
776.722	0.0144775
776.800	0.0145651
776.878	0.0144296
776.956	0.0143978
777.035	0.0143487
777.113	0.0144384
777.191	0.0142081
777.269	0.0142494
777.347	0.0142441
777.425	0.0142089
777.503	0.0141203
777.581	0.0142638
777.660	0.0143966
777.738	0.0143462
777.816	0.0142979
777.894	0.0143238
777.972	0.0142845
778.050	0.0145094
778.128	0.0143900
778.206	0.0142834
778.285	0.0143046
778.363	0.0143839
778.441	0.0143821
778.519	0.0144284
778.597	0.0142349
778.675	0.0142730
778.753	0.0141700
778.831	0.0142556
778.910	0.0143134
778.988	0.0142450
779.066	0.0143022
779.144	0.0142342
779.222	0.0143649
779.300	0.0143587
779.378	0.0143619
779.456	0.0145993
779.535	0.0145650
779.613	0.0145142
779.691	0.0144579
779.769	0.0145808
779.847	0.0145506
779.925	0.0146666
780.003	0.0147619
780.081	0.0146592
780.160	0.0149136
780.238	0.0147724
780.316	0.0148670
780.394	0.0149162
780.472	0.0149295
780.550	0.0148260
780.628	0.0148869
780.706	0.0149763
780.785	0.0149230
780.863	0.0149902
780.941	0.0149491
781.019	0.0148433
781.097	0.0147897
781.175	0.0148331
781.253	0.0149315
781.331	0.0147597
781.410	0.0146708
781.488	0.0146904
781.566	0.0148218
781.644	0.0146906
781.722	0.0145180
781.800	0.0145559
781.878	0.0145279
781.956	0.0145493
782.035	0.0144373
782.113	0.0145487
782.191	0.0144879
782.269	0.0143964
782.347	0.0144260
782.425	0.0143699
782.503	0.0144362
782.581	0.0142484
782.660	0.0143195
782.738	0.0144506
782.816	0.0144117
782.894	0.0144339
782.972	0.0142682
783.050	0.0143685
783.128	0.0144317
783.206	0.0144922
783.285	0.0144801
783.363	0.0144521
783.441	0.0145036
783.519	0.0144760
783.597	0.0143447
783.675	0.0143050
783.753	0.0143068
783.831	0.0143881
783.910	0.0143734
783.988	0.0144807
784.066	0.0143235
784.144	0.0142790
784.222	0.0142917
784.300	0.0142890
784.378	0.0143345
784.456	0.0145396
784.535	0.0144464
784.613	0.0144217
784.691	0.0143427
784.769	0.0144381
784.847	0.0145663
784.925	0.0144614
785.003	0.0144733
785.081	0.0145209
785.160	0.0143240
785.238	0.0144615
785.316	0.0144485
785.394	0.0144282
785.472	0.0144270
785.550	0.0142322
785.628	0.0144350
785.706	0.0143761
785.785	0.0143359
785.863	0.0143849
785.941	0.0143458
786.019	0.0145055
786.097	0.0144223
786.175	0.0144301
786.253	0.0144678
786.331	0.0144650
786.410	0.0144382
786.488	0.0145959
786.566	0.0145750
786.644	0.0146548
786.722	0.0146629
786.800	0.0148041
786.878	0.0149180
786.956	0.0149055
787.035	0.0149226
787.113	0.0149542
787.191	0.0150060
787.269	0.0150605
787.347	0.0151218
787.425	0.0150598
787.503	0.0150809
787.581	0.0151147
787.660	0.0150652
787.738	0.0150904
787.816	0.0149336
787.894	0.0149067
787.972	0.0150905
788.050	0.0149142
788.128	0.0149516
788.206	0.0150074
788.285	0.0149791
788.363	0.0147932
788.441	0.0147773
788.519	0.0147918
788.597	0.0147498
788.675	0.0147449
788.753	0.0147271
788.831	0.0145118
788.910	0.0144831
788.988	0.0144890
789.066	0.0145712
789.144	0.0145444
789.222	0.0144822
789.300	0.0143818
789.378	0.0144957
789.456	0.0144202
789.535	0.0143121
789.613	0.0145219
789.691	0.0144463
789.769	0.0142513
789.847	0.0144950
789.925	0.0144233
790.003	0.0143765
790.081	0.0144006
790.160	0.0143440
790.238	0.0144390
790.316	0.0144038
790.394	0.0145012
790.472	0.0143496
790.550	0.0143252
790.628	0.0142977
790.706	0.0143933
790.785	0.0144033
790.863	0.0143372
790.941	0.0144530
791.019	0.0142943
791.097	0.0143783
791.175	0.0143699
791.253	0.0144090
791.331	0.0144195
791.410	0.0144183
791.488	0.0144779
791.566	0.0145402
791.644	0.0144678
791.722	0.0145792
791.800	0.0145198
791.878	0.0145712
791.956	0.0145261
792.035	0.0145465
792.113	0.0145522
792.191	0.0145461
792.269	0.0145010
792.347	0.0145203
792.425	0.0146475
792.503	0.0145502
792.581	0.0145674
792.660	0.0144765
792.738	0.0145703
792.816	0.0146925
792.894	0.0144769
792.972	0.0146437
793.050	0.0146792
793.128	0.0149245
793.206	0.0147411
793.285	0.0146858
793.363	0.0148043
793.441	0.0148905
793.519	0.0149168
793.597	0.0148511
793.675	0.0149874
793.753	0.0150250
793.831	0.0149299
793.910	0.0150510
793.988	0.0149750
794.066	0.0151347
794.144	0.0152010
794.222	0.0150937
794.300	0.0153004
794.378	0.0151572
794.456	0.0151376
794.535	0.0151080
794.613	0.0150791
794.691	0.0150713
794.769	0.0151808
794.847	0.0150160
794.925	0.0150565
795.003	0.0149310
795.081	0.0149969
795.160	0.0147762
795.238	0.0146926
795.316	0.0146145
795.394	0.0148691
795.472	0.0147258
795.550	0.0145873
795.628	0.0146603
795.706	0.0145988
795.785	0.0146490
795.863	0.0143630
795.941	0.0144276
796.019	0.0142704
796.097	0.0144590
796.175	0.0143316
796.253	0.0142970
796.331	0.0142889
796.410	0.0144069
796.488	0.0142909
796.566	0.0144320
796.644	0.0142838
796.722	0.0143719
796.800	0.0143458
796.878	0.0142943
796.956	0.0143700
797.035	0.0142541
797.113	0.0142720
797.191	0.0143387
797.269	0.0144293
797.347	0.0143221
797.425	0.0141904
797.503	0.0143271
797.581	0.0143993
797.660	0.0142529
797.738	0.0143004
797.816	0.0143421
797.894	0.0143274
797.972	0.0143169
798.050	0.0144379
798.128	0.0144339
798.206	0.0146989
798.285	0.0145834
798.363	0.0146005
798.441	0.0146036
798.519	0.0147425
798.597	0.0147449
798.675	0.0146622
798.753	0.0145984
798.831	0.0146877
798.910	0.0148222
798.988	0.0146867
799.066	0.0146113
799.144	0.0145565
799.222	0.0145740
799.300	0.0145765
799.378	0.0144916
799.456	0.0145393
799.535	0.0143814
799.613	0.0143500
799.691	0.0144666
799.769	0.0145273
799.847	0.0144199
799.925	0.0145228
800.003	0.0145422
800.081	0.0145383
800.160	0.0145531
800.238	0.0144909
800.316	0.0146113
800.394	0.0148274
800.472	0.0145129
800.550	0.0146645
800.628	0.0146940
800.706	0.0148441
800.785	0.0149088
800.863	0.0149342
800.941	0.0150278
801.019	0.0149073
801.097	0.0149974
801.175	0.0150758
801.253	0.0150393
801.331	0.0149368
801.410	0.0148899
801.488	0.0149474
801.566	0.0150043
801.644	0.0149716
801.722	0.0149402
801.800	0.0148499
801.878	0.0147902
801.956	0.0147897
802.035	0.0146980
802.113	0.0147225
802.191	0.0148567
802.269	0.0146288
802.347	0.0147700
802.425	0.0146326
802.503	0.0146556
802.581	0.0144840
802.660	0.0145982
802.738	0.0144066
802.816	0.0143290
802.894	0.0144186
802.972	0.0143490
803.050	0.0142189
803.128	0.0143092
803.206	0.0142751
803.285	0.0142740
803.363	0.0142873
803.441	0.0142331
803.519	0.0141689
803.597	0.0143050
803.675	0.0140839
803.753	0.0141395
803.831	0.0140101
803.910	0.0140931
803.988	0.0141798
804.066	0.0140654
804.144	0.0140102
804.222	0.0140299
804.300	0.0140710
804.378	0.0139812
804.456	0.0140265
804.535	0.0139079
804.613	0.0138804
804.691	0.0141089
804.769	0.0139723
804.847	0.0139214
804.925	0.0141126
805.003	0.0141505
805.081	0.0141649
805.160	0.0141033
805.238	0.0142844
805.316	0.0141850
805.394	0.0143058
805.472	0.0143501
805.550	0.0143314
805.628	0.0143491
805.706	0.0142373
805.785	0.0143542
805.863	0.0143634
805.941	0.0142889
806.019	0.0143916
806.097	0.0142985
806.175	0.0142947
806.253	0.0144435
806.331	0.0142496
806.410	0.0142350
806.488	0.0142310
806.566	0.0142512
806.644	0.0141642
806.722	0.0141930
806.800	0.0144411
806.878	0.0142332
806.956	0.0143575
807.035	0.0144374
807.113	0.0143991
807.191	0.0144382
807.269	0.0144888
807.347	0.0145496
807.425	0.0145245
807.503	0.0147108
807.581	0.0147427
807.660	0.0147101
807.738	0.0147875
807.816	0.0147731
807.894	0.0148627
807.972	0.0149211
808.050	0.0149792
808.128	0.0150913
808.206	0.0150689
808.285	0.0150430
808.363	0.0150800
808.441	0.0149281
808.519	0.0151255
808.597	0.0151066
808.675	0.0150136
808.753	0.0149955
808.831	0.0150857
808.910	0.0149076
808.988	0.0149006
809.066	0.0149363
809.144	0.0148321
809.222	0.0147141
809.300	0.0147923
809.378	0.0148505
809.456	0.0146666
809.535	0.0145142
809.613	0.0144664
809.691	0.0146792
809.769	0.0145013
809.847	0.0144225
809.925	0.0145659
810.003	0.0144222
810.081	0.0144438
810.160	0.0144416
810.238	0.0145486
810.316	0.0144309
810.394	0.0145589
810.472	0.0143501
810.550	0.0144360
810.628	0.0144629
810.706	0.0144047
810.785	0.0144331
810.863	0.0144593
810.941	0.0145013
811.019	0.0144585
811.097	0.0143861
811.175	0.0145580
811.253	0.0145219
811.331	0.0143906
811.410	0.0143634
811.488	0.0145789
811.566	0.0144414
811.644	0.0143786
811.722	0.0144202
811.800	0.0144120
811.878	0.0145488
811.956	0.0145066
812.035	0.0146262
812.113	0.0146374
812.191	0.0145947
812.269	0.0145837
812.347	0.0144256
812.425	0.0145631
812.503	0.0148201
812.581	0.0146772
812.660	0.0146335
812.738	0.0145236
812.816	0.0146050
812.894	0.0147810
812.972	0.0147225
813.050	0.0145891
813.128	0.0147266
813.206	0.0146371
813.285	0.0146140
813.363	0.0147101
813.441	0.0145860
813.519	0.0145756
813.597	0.0145665
813.675	0.0146289
813.753	0.0146398
813.831	0.0145282
813.910	0.0147100
813.988	0.0147008
814.066	0.0148913
814.144	0.0147615
814.222	0.0147195
814.300	0.0147902
814.378	0.0147940
814.456	0.0148608
814.535	0.0150030
814.613	0.0149104
814.691	0.0148074
814.769	0.0149133
814.847	0.0149623
814.925	0.0150927
815.003	0.0150956
815.081	0.0150747
815.160	0.0151596
815.238	0.0151480
815.316	0.0151147
815.394	0.0150964
815.472	0.0150895
815.550	0.0150964
815.628	0.0150212
815.706	0.0149208
815.785	0.0149551
815.863	0.0148866
815.941	0.0148372
816.019	0.0146738
816.097	0.0148016
816.175	0.0148372
816.253	0.0146618
816.331	0.0146241
816.410	0.0146004
816.488	0.0145314
816.566	0.0145022
816.644	0.0144012
816.722	0.0143971
816.800	0.0141557
816.878	0.0143477
816.956	0.0142567
817.035	0.0140585
817.113	0.0141833
817.191	0.0141180
817.269	0.0141407
817.347	0.0142015
817.425	0.0142349
817.503	0.0141240
817.581	0.0140614
817.660	0.0141718
817.738	0.0140441
817.816	0.0140440
817.894	0.0140750
817.972	0.0140657
818.050	0.0142149
818.128	0.0140397
818.206	0.0141536
818.285	0.0141127
818.363	0.0142238
818.441	0.0141362
818.519	0.0140383
818.597	0.0140955
818.675	0.0142002
818.753	0.0142120
818.831	0.0141749
818.910	0.0141605
818.988	0.0142379
819.066	0.0142836
819.144	0.0144206
819.222	0.0145062
819.300	0.0145410
819.378	0.0144365
819.456	0.0144697
819.535	0.0144639
819.613	0.0145149
819.691	0.0145060
819.769	0.0145116
819.847	0.0145303
819.925	0.0144501
820.003	0.0144475
820.081	0.0143494
820.160	0.0141819
820.238	0.0143176
820.316	0.0144028
820.394	0.0144695
820.472	0.0143022
820.550	0.0144333
820.628	0.0144954
820.706	0.0144828
820.785	0.0144776
820.863	0.0144052
820.941	0.0144790
821.019	0.0146742
821.097	0.0144899
821.175	0.0145831
821.253	0.0146478
821.331	0.0146335
821.410	0.0146245
821.488	0.0146973
821.566	0.0147620
821.644	0.0147677
821.722	0.0147243
821.800	0.0148518
821.878	0.0149065
821.956	0.0150156
822.035	0.0148469
822.113	0.0149276
822.191	0.0150522
822.269	0.0149869
822.347	0.0150027
822.425	0.0149711
822.503	0.0149947
822.581	0.0149405
822.660	0.0149705
822.738	0.0151017
822.816	0.0148354
822.894	0.0148637
822.972	0.0148742
823.050	0.0147425
823.128	0.0148096
823.206	0.0148867
823.285	0.0146703
823.363	0.0145879
823.441	0.0145812
823.519	0.0145543
823.597	0.0146489
823.675	0.0145303
823.753	0.0145413
823.831	0.0145142
823.910	0.0144173
823.988	0.0143565
824.066	0.0143149
824.144	0.0144964
824.222	0.0143523
824.300	0.0142126
824.378	0.0142400
824.456	0.0142495
824.535	0.0142294
824.613	0.0143043
824.691	0.0143744
824.769	0.0141766
824.847	0.0143548
824.925	0.0142722
825.003	0.0143369
825.081	0.0143840
825.160	0.0142350
825.238	0.0143414
825.316	0.0143920
825.394	0.0143300
825.472	0.0144173
825.550	0.0143266
825.628	0.0143950
825.706	0.0144696
825.785	0.0144409
825.863	0.0143780
825.941	0.0146250
826.019	0.0145573
826.097	0.0146710
826.175	0.0146616
826.253	0.0146173
826.331	0.0146813
826.410	0.0147205
826.488	0.0146537
826.566	0.0147599
826.644	0.0147985
826.722	0.0147072
826.800	0.0146218
826.878	0.0145001
826.956	0.0145386
827.035	0.0145676
827.113	0.0144195
827.191	0.0144289
827.269	0.0144749
827.347	0.0145583
827.425	0.0145584
827.503	0.0145623
827.581	0.0143789
827.660	0.0143448
827.738	0.0143993
827.816	0.0144469
827.894	0.0143354
827.972	0.0144563
828.050	0.0145500
828.128	0.0144659
828.206	0.0145381
828.285	0.0145155
828.363	0.0145325
828.441	0.0145302
828.519	0.0146027
828.597	0.0148066
828.675	0.0147879
828.753	0.0146763
828.831	0.0148421
828.910	0.0148665
828.988	0.0148978
829.066	0.0149264
829.144	0.0149535
829.222	0.0150718
829.300	0.0149046
829.378	0.0149196
829.456	0.0149017
829.535	0.0151167
829.613	0.0150636
829.691	0.0149901
829.769	0.0148809
829.847	0.0148319
829.925	0.0147787
830.003	0.0148164
830.081	0.0147900
830.160	0.0147966
830.238	0.0147333
830.316	0.0146977
830.394	0.0146223
830.472	0.0144765
830.550	0.0146308
830.628	0.0145636
830.706	0.0144061
830.785	0.0145042
830.863	0.0143419
830.941	0.0143061
831.019	0.0142816
831.097	0.0143053
831.175	0.0142912
831.253	0.0141981
831.331	0.0141934
831.410	0.0142851
831.488	0.0143636
831.566	0.0142197
831.644	0.0141283
831.722	0.0141388
831.800	0.0143439
831.878	0.0142153
831.956	0.0142957
832.035	0.0142785
832.113	0.0142971
832.191	0.0142085
832.269	0.0141073
832.347	0.0143600
832.425	0.0143122
832.503	0.0140979
832.581	0.0142332
832.660	0.0141971
832.738	0.0142831
832.816	0.0142951
832.894	0.0143489
832.972	0.0142712
833.050	0.0143147
833.128	0.0144599
833.206	0.0144092
833.285	0.0144143
833.363	0.0145118
833.441	0.0143952
833.519	0.0145774
833.597	0.0144707
833.675	0.0143085
833.753	0.0144961
833.831	0.0146272
833.910	0.0143775
833.988	0.0143597
834.066	0.0143559
834.144	0.0143285
834.222	0.0144558
834.300	0.0142794
834.378	0.0142048
834.456	0.0143265
834.535	0.0141292
834.613	0.0142287
834.691	0.0144506
834.769	0.0144610
834.847	0.0142174
834.925	0.0142391
835.003	0.0143225
835.081	0.0144292
835.160	0.0142825
835.238	0.0144924
835.316	0.0144099
835.394	0.0143914
835.472	0.0144311
835.550	0.0144404
835.628	0.0146318
835.706	0.0146085
835.785	0.0146563
835.863	0.0147562
835.941	0.0149033
836.019	0.0149719
836.097	0.0147109
836.175	0.0148416
836.253	0.0149267
836.331	0.0149905
836.410	0.0148753
836.488	0.0150203
836.566	0.0150256
836.644	0.0148621
836.722	0.0148703
836.800	0.0149590
836.878	0.0148327
836.956	0.0147614
837.035	0.0148754
837.113	0.0149150
837.191	0.0147558
837.269	0.0147202
837.347	0.0147260
837.425	0.0147398
837.503	0.0145940
837.581	0.0146519
837.660	0.0145798
837.738	0.0145882
837.816	0.0145808
837.894	0.0144544
837.972	0.0145345
838.050	0.0144731
838.128	0.0145678
838.206	0.0145866
838.285	0.0145039
838.363	0.0143928
838.441	0.0143650
838.519	0.0144867
838.597	0.0144821
838.675	0.0145483
838.753	0.0144125
838.831	0.0143617
838.910	0.0144321
838.988	0.0144639
839.066	0.0144289
839.144	0.0143369
839.222	0.0145200
839.300	0.0145320
839.378	0.0145015
839.456	0.0144613
839.535	0.0143761
839.613	0.0144347
839.691	0.0143159
839.769	0.0143921
839.847	0.0143726
839.925	0.0145140
840.003	0.0144320
840.081	0.0146406
840.160	0.0145481
840.238	0.0144906
840.316	0.0147089
840.394	0.0147496
840.472	0.0146382
840.550	0.0147955
840.628	0.0148674
840.706	0.0146530
840.785	0.0145765
840.863	0.0146897
840.941	0.0146425
841.019	0.0146661
841.097	0.0146332
841.175	0.0146231
841.253	0.0145364
841.331	0.0145414
841.410	0.0144659
841.488	0.0144537
841.566	0.0145502
841.644	0.0144993
841.722	0.0144702
841.800	0.0144768
841.878	0.0146251
841.956	0.0145816
842.035	0.0144777
842.113	0.0145359
842.191	0.0145646
842.269	0.0145670
842.347	0.0146111
842.425	0.0146215
842.503	0.0147453
842.581	0.0145276
842.660	0.0147247
842.738	0.0147514
842.816	0.0149377
842.894	0.0149007
842.972	0.0149770
843.050	0.0149956
843.128	0.0150885
843.206	0.0151350
843.285	0.0151119
843.363	0.0151196
843.441	0.0150245
843.519	0.0151616
843.597	0.0151844
843.675	0.0150806
843.753	0.0150111
843.831	0.0149472
843.910	0.0149274
843.988	0.0149863
844.066	0.0150661
844.144	0.0149882
844.222	0.0148452
844.300	0.0146451
844.378	0.0146550
844.456	0.0147675
844.535	0.0147391
844.613	0.0146917
844.691	0.0145921
844.769	0.0145914
844.847	0.0144955
844.925	0.0145926
845.003	0.0145090
845.081	0.0143204
845.160	0.0144730
845.238	0.0144210
845.316	0.0144279
845.394	0.0144614
845.472	0.0143399
845.550	0.0144066
845.628	0.0143607
845.706	0.0142608
845.785	0.0143634
845.863	0.0144121
845.941	0.0143106
846.019	0.0144020
846.097	0.0142408
846.175	0.0144324
846.253	0.0143319
846.331	0.0144396
846.410	0.0142950
846.488	0.0142562
846.566	0.0144273
846.644	0.0144118
846.722	0.0143222
846.800	0.0144357
846.878	0.0143169
846.956	0.0144309
847.035	0.0143502
847.113	0.0144181
847.191	0.0144865
847.269	0.0144972
847.347	0.0144305
847.425	0.0146170
847.503	0.0145470
847.581	0.0147971
847.660	0.0145406
847.738	0.0145932
847.816	0.0147645
847.894	0.0146867
847.972	0.0145802
848.050	0.0147239
848.128	0.0146192
848.206	0.0145895
848.285	0.0145610
848.363	0.0146493
848.441	0.0145910
848.519	0.0146124
848.597	0.0147131
848.675	0.0145659
848.753	0.0143504
848.831	0.0144272
848.910	0.0145986
848.988	0.0145419
849.066	0.0146198
849.144	0.0144767
849.222	0.0146418
849.300	0.0145441
849.378	0.0145683
849.456	0.0146597
849.535	0.0146046
849.613	0.0146849
849.691	0.0146930
849.769	0.0147029
849.847	0.0148419
849.925	0.0147486
850.003	0.0148617
850.081	0.0149608
850.160	0.0149388
850.238	0.0150661
850.316	0.0151049
850.394	0.0149831
850.472	0.0149677
850.550	0.0151010
850.628	0.0150796
850.706	0.0150211
850.785	0.0150500
850.863	0.0150835
850.941	0.0149992
851.019	0.0149796
851.097	0.0148822
851.175	0.0149515
851.253	0.0148816
851.331	0.0148784
851.410	0.0147277
851.488	0.0147491
851.566	0.0148349
851.644	0.0146587
851.722	0.0143851
851.800	0.0146529
851.878	0.0146526
851.956	0.0144711
852.035	0.0144275
852.113	0.0144644
852.191	0.0145087
852.269	0.0145875
852.347	0.0145177
852.425	0.0143632
852.503	0.0143450
852.581	0.0141951
852.660	0.0142963
852.738	0.0144083
852.816	0.0144161
852.894	0.0141805
852.972	0.0142344
853.050	0.0143046
853.128	0.0142925
853.206	0.0141845
853.285	0.0143012
853.363	0.0143335
853.441	0.0141277
853.519	0.0142372
853.597	0.0143485
853.675	0.0142023
853.753	0.0141002
853.831	0.0141828
853.910	0.0141463
853.988	0.0143646
854.066	0.0142364
854.144	0.0141610
854.222	0.0142297
854.300	0.0144090
854.378	0.0142904
854.456	0.0143094
854.535	0.0144810
854.613	0.0143681
854.691	0.0143645
854.769	0.0143463
854.847	0.0143273
854.925	0.0142435
855.003	0.0142915
855.081	0.0141695
855.160	0.0143288
855.238	0.0140746
855.316	0.0142245
855.394	0.0142286
855.472	0.0142187
855.550	0.0141309
855.628	0.0142419
855.706	0.0140844
855.785	0.0142735
855.863	0.0142192
855.941	0.0144025
856.019	0.0142200
856.097	0.0143598
856.175	0.0142118
856.253	0.0143456
856.331	0.0144583
856.410	0.0144318
856.488	0.0145233
856.566	0.0145605
856.644	0.0145270
856.722	0.0146797
856.800	0.0146344
856.878	0.0148005
856.956	0.0148671
857.035	0.0148106
857.113	0.0148222
857.191	0.0147694
857.269	0.0148806
857.347	0.0149135
857.425	0.0150798
857.503	0.0150132
857.581	0.0149953
857.660	0.0150694
857.738	0.0151208
857.816	0.0151610
857.894	0.0149965
857.972	0.0149718
858.050	0.0149572
858.128	0.0148316
858.206	0.0148128
858.285	0.0148294
858.363	0.0148360
858.441	0.0147121
858.519	0.0146852
858.597	0.0146822
858.675	0.0147407
858.753	0.0145813
858.831	0.0146325
858.910	0.0145178
858.988	0.0145234
859.066	0.0144572
859.144	0.0144299
859.222	0.0144102
859.300	0.0143641
859.378	0.0144724
859.456	0.0143742
859.535	0.0142943
859.613	0.0142640
859.691	0.0142403
859.769	0.0142010
859.847	0.0142673
859.925	0.0143098
860.003	0.0144180
860.081	0.0141824
860.160	0.0141780
860.238	0.0142451
860.316	0.0142738
860.394	0.0141314
860.472	0.0142085
860.550	0.0141945
860.628	0.0143398
860.706	0.0142356
860.785	0.0141708
860.863	0.0141277
860.941	0.0140881
861.019	0.0140396
861.097	0.0141776
861.175	0.0141510
861.253	0.0141635
861.331	0.0143482
861.410	0.0142586
861.488	0.0143744
861.566	0.0143158
861.644	0.0144141
861.722	0.0143034
861.800	0.0143215
861.878	0.0145473
861.956	0.0146030
862.035	0.0146757
862.113	0.0144592
862.191	0.0144765
862.269	0.0145815
862.347	0.0145209
862.425	0.0144998
862.503	0.0145124
862.581	0.0144849
862.660	0.0146136
862.738	0.0147193
862.816	0.0145728
862.894	0.0146557
862.972	0.0146011
863.050	0.0144671
863.128	0.0146618
863.206	0.0147426
863.285	0.0147207
863.363	0.0146849
863.441	0.0147505
863.519	0.0147455
863.597	0.0148005
863.675	0.0147755
863.753	0.0148468
863.831	0.0149071
863.910	0.0149850
863.988	0.0149168
864.066	0.0150320
864.144	0.0150786
864.222	0.0150112
864.300	0.0151191
864.378	0.0151402
864.456	0.0151156
864.535	0.0151920
864.613	0.0150856
864.691	0.0152235
864.769	0.0152379
864.847	0.0152225
864.925	0.0152975
865.003	0.0152611
865.081	0.0151952
865.160	0.0150564
865.238	0.0152024
865.316	0.0151013
865.394	0.0149283
865.472	0.0149515
865.550	0.0148527
865.628	0.0150241
865.706	0.0149066
865.785	0.0148999
865.863	0.0149005
865.941	0.0148219
866.019	0.0149104
866.097	0.0146983
866.175	0.0146923
866.253	0.0145068
866.331	0.0144092
866.410	0.0144742
866.488	0.0144952
866.566	0.0146134
866.644	0.0144781
866.722	0.0144350
866.800	0.0144205
866.878	0.0143628
866.956	0.0143569
867.035	0.0142876
867.113	0.0142905
867.191	0.0142358
867.269	0.0142487
867.347	0.0142599
867.425	0.0142199
867.503	0.0141506
867.581	0.0141434
867.660	0.0141762
867.738	0.0140083
867.816	0.0143446
867.894	0.0142603
867.972	0.0140341
868.050	0.0141399
868.128	0.0142513
868.206	0.0142925
868.285	0.0141613
868.363	0.0143434
868.441	0.0143401
868.519	0.0142384
868.597	0.0143480
868.675	0.0143184
868.753	0.0144131
868.831	0.0143716
868.910	0.0146841
868.988	0.0146626
869.066	0.0143857
869.144	0.0145496
869.222	0.0146076
869.300	0.0144349
869.378	0.0145174
869.456	0.0145702
869.535	0.0145810
869.613	0.0145829
869.691	0.0145037
869.769	0.0147675
869.847	0.0145799
869.925	0.0145760
870.003	0.0146529
870.081	0.0147302
870.160	0.0145665
870.238	0.0146516
870.316	0.0145443
870.394	0.0145854
870.472	0.0147275
870.550	0.0147449
870.628	0.0147663
870.706	0.0146659
870.785	0.0146421
870.863	0.0148190
870.941	0.0147715
871.019	0.0147125
871.097	0.0148570
871.175	0.0147777
871.253	0.0148531
871.331	0.0149340
871.410	0.0149596
871.488	0.0150007
871.566	0.0149814
871.644	0.0150611
871.722	0.0152728
871.800	0.0151556
871.878	0.0152343
871.956	0.0152891
872.035	0.0152103
872.113	0.0151305
872.191	0.0151259
872.269	0.0152415
872.347	0.0151841
872.425	0.0151196
872.503	0.0150783
872.581	0.0149354
872.660	0.0150059
872.738	0.0150587
872.816	0.0149056
872.894	0.0149862
872.972	0.0148882
873.050	0.0147253
873.128	0.0149814
873.206	0.0146956
873.285	0.0147560
873.363	0.0147836
873.441	0.0146133
873.519	0.0146436
873.597	0.0146787
873.675	0.0145813
873.753	0.0144643
873.831	0.0144840
873.910	0.0144165
873.988	0.0142836
874.066	0.0142374
874.144	0.0144289
874.222	0.0143562
874.300	0.0141998
874.378	0.0142641
874.456	0.0141490
874.535	0.0141721
874.613	0.0141209
874.691	0.0142130
874.769	0.0140945
874.847	0.0140984
874.925	0.0140134
875.003	0.0140295
875.081	0.0140055
875.160	0.0141434
875.238	0.0141909
875.316	0.0141792
875.394	0.0140816
875.472	0.0141216
875.550	0.0140314
875.628	0.0139890
875.706	0.0141411
875.785	0.0141835
875.863	0.0142307
875.941	0.0141842
876.019	0.0142728
876.097	0.0142224
876.175	0.0143323
876.253	0.0144456
876.331	0.0143179
876.410	0.0144839
876.488	0.0144572
876.566	0.0143320
876.644	0.0144892
876.722	0.0145424
876.800	0.0145532
876.878	0.0146339
876.956	0.0145724
877.035	0.0145092
877.113	0.0145424
877.191	0.0145926
877.269	0.0145737
877.347	0.0146180
877.425	0.0144730
877.503	0.0146030
877.581	0.0145687
877.660	0.0145437
877.738	0.0145773
877.816	0.0146833
877.894	0.0146920
877.972	0.0146230
878.050	0.0146297
878.128	0.0147780
878.206	0.0146723
878.285	0.0147117
878.363	0.0146895
878.441	0.0148258
878.519	0.0149538
878.597	0.0148362
878.675	0.0148502
878.753	0.0149027
878.831	0.0150326
878.910	0.0149441
878.988	0.0150737
879.066	0.0151015
879.144	0.0150409
879.222	0.0151154
879.300	0.0150046
879.378	0.0150338
879.456	0.0148913
879.535	0.0149885
879.613	0.0149841
879.691	0.0150593
879.769	0.0148702
879.847	0.0147884
879.925	0.0148649
880.003	0.0149229
880.081	0.0148331
880.160	0.0147261
880.238	0.0147436
880.316	0.0148204
880.394	0.0146689
880.472	0.0147054
880.550	0.0145292
880.628	0.0144485
880.706	0.0144729
880.785	0.0144074
880.863	0.0143052
880.941	0.0143774
881.019	0.0143652
881.097	0.0142279
881.175	0.0142322
881.253	0.0142924
881.331	0.0142365
881.410	0.0141835
881.488	0.0142707
881.566	0.0142630
881.644	0.0142326
881.722	0.0141712
881.800	0.0141989
881.878	0.0141574
881.956	0.0141048
882.035	0.0141318
882.113	0.0141553
882.191	0.0139288
882.269	0.0140822
882.347	0.0140146
882.425	0.0140324
882.503	0.0141185
882.581	0.0142381
882.660	0.0141122
882.738	0.0140958
882.816	0.0141864
882.894	0.0141611
882.972	0.0141991
883.050	0.0141225
883.128	0.0141845
883.206	0.0142687
883.285	0.0143081
883.363	0.0142699
883.441	0.0144039
883.519	0.0144805
883.597	0.0145580
883.675	0.0143723
883.753	0.0144292
883.831	0.0145326
883.910	0.0144682
883.988	0.0145615
884.066	0.0146844
884.144	0.0145587
884.222	0.0145969
884.300	0.0145399
884.378	0.0144871
884.456	0.0145479
884.535	0.0144946
884.613	0.0145276
884.691	0.0145748
884.769	0.0145827
884.847	0.0145437
884.925	0.0144515
885.003	0.0144753
885.081	0.0146903
885.160	0.0146941
885.238	0.0146751
885.316	0.0149130
885.394	0.0147277
885.472	0.0148188
885.550	0.0148244
885.628	0.0148313
885.706	0.0149590
885.785	0.0149775
885.863	0.0149145
885.941	0.0149987
886.019	0.0149689
886.097	0.0150851
886.175	0.0151315
886.253	0.0149582
886.331	0.0149857
886.410	0.0150790
886.488	0.0149971
886.566	0.0149289
886.644	0.0148714
886.722	0.0149393
886.800	0.0149048
886.878	0.0147740
886.956	0.0147161
887.035	0.0147058
887.113	0.0145872
887.191	0.0146474
887.269	0.0146782
887.347	0.0146589
887.425	0.0144658
887.503	0.0145749
887.581	0.0143455
887.660	0.0144912
887.738	0.0142493
887.816	0.0143230
887.894	0.0143137
887.972	0.0142830
888.050	0.0142731
888.128	0.0143969
888.206	0.0142917
888.285	0.0141982
888.363	0.0141856
888.441	0.0142365
888.519	0.0141715
888.597	0.0141367
888.675	0.0140882
888.753	0.0141958
888.831	0.0141801
888.910	0.0142744
888.988	0.0141835
889.066	0.0140444
889.144	0.0141608
889.222	0.0141214
889.300	0.0141212
889.378	0.0141325
889.456	0.0141600
889.535	0.0141547
889.613	0.0143692
889.691	0.0142059
889.769	0.0143282
889.847	0.0142868
889.925	0.0143377
890.003	0.0142833
890.081	0.0143144
890.160	0.0143639
890.238	0.0145145
890.316	0.0146035
890.394	0.0144146
890.472	0.0146548
890.550	0.0147591
890.628	0.0147296
890.706	0.0147247
890.785	0.0146487
890.863	0.0147093
890.941	0.0148307
891.019	0.0147286
891.097	0.0146898
891.175	0.0148057
891.253	0.0149268
891.331	0.0148831
891.410	0.0147484
891.488	0.0148158
891.566	0.0147723
891.644	0.0148302
891.722	0.0149671
891.800	0.0147708
891.878	0.0148830
891.956	0.0148488
892.035	0.0148627
892.113	0.0149379
892.191	0.0148683
892.269	0.0148893
892.347	0.0148739
892.425	0.0150410
892.503	0.0150725
892.581	0.0150211
892.660	0.0149125
892.738	0.0150323
892.816	0.0150957
892.894	0.0150083
892.972	0.0150886
893.050	0.0150806
893.128	0.0151918
893.206	0.0151924
893.285	0.0151886
893.363	0.0152486
893.441	0.0152013
893.519	0.0152484
893.597	0.0150787
893.675	0.0150484
893.753	0.0151019
893.831	0.0150794
893.910	0.0148331
893.988	0.0150002
894.066	0.0149833
894.144	0.0149715
894.222	0.0147461
894.300	0.0147651
894.378	0.0147773
894.456	0.0147116
894.535	0.0145883
894.613	0.0146249
894.691	0.0146684
894.769	0.0144747
894.847	0.0143970
894.925	0.0143425
895.003	0.0144872
895.081	0.0144048
895.160	0.0144321
895.238	0.0144510
895.316	0.0144430
895.394	0.0142738
895.472	0.0144257
895.550	0.0141597
895.628	0.0143023
895.706	0.0143288
895.785	0.0142486
895.863	0.0141206
895.941	0.0142327
896.019	0.0141734
896.097	0.0141122
896.175	0.0141281
896.253	0.0142122
896.331	0.0140792
896.410	0.0142374
896.488	0.0141366
896.566	0.0141306
896.644	0.0142553
896.722	0.0141874
896.800	0.0141716
896.878	0.0143318
896.956	0.0142966
897.035	0.0144319
897.113	0.0143832
897.191	0.0143418
897.269	0.0144489
897.347	0.0144003
897.425	0.0145171
897.503	0.0145808
897.581	0.0144601
897.660	0.0145961
897.738	0.0145553
897.816	0.0146078
897.894	0.0143472
897.972	0.0146198
898.050	0.0145583
898.128	0.0145997
898.206	0.0146561
898.285	0.0146427
898.363	0.0147049
898.441	0.0146606
898.519	0.0147108
898.597	0.0146410
898.675	0.0147094
898.753	0.0147591
898.831	0.0148280
898.910	0.0146647
898.988	0.0147282
899.066	0.0147443
899.144	0.0148199
899.222	0.0146816
899.300	0.0148072
899.378	0.0147437
899.456	0.0147860
899.535	0.0147512
899.613	0.0149377
899.691	0.0149249
899.769	0.0148124
899.847	0.0148642
899.925	0.0149005
900.003	0.0150169
900.081	0.0149544
900.160	0.0150270
900.238	0.0148594
900.316	0.0150022
900.394	0.0149428
900.472	0.0151007
900.550	0.0150152
900.628	0.0149541
900.706	0.0149359
900.785	0.0149500
900.863	0.0148559
900.941	0.0149461
901.019	0.0147981
901.097	0.0147542
901.175	0.0147573
901.253	0.0147258
901.331	0.0146046
901.410	0.0145362
901.488	0.0145891
901.566	0.0144936
901.644	0.0146950
901.722	0.0144152
901.800	0.0144486
901.878	0.0144147
901.956	0.0143519
902.035	0.0143835
902.113	0.0143000
902.191	0.0143941
902.269	0.0143635
902.347	0.0141439
902.425	0.0142271
902.503	0.0143201
902.581	0.0142707
902.660	0.0142815
902.738	0.0140611
902.816	0.0139930
902.894	0.0142683
902.972	0.0141869
903.050	0.0140697
903.128	0.0140469
903.206	0.0141309
903.285	0.0140395
903.363	0.0141702
903.441	0.0142389
903.519	0.0141416
903.597	0.0141283
903.675	0.0140450
903.753	0.0143337
903.831	0.0143542
903.910	0.0141237
903.988	0.0140296
904.066	0.0141667
904.144	0.0143702
904.222	0.0143288
904.300	0.0142845
904.378	0.0143196
904.456	0.0143853
904.535	0.0143151
904.613	0.0144524
904.691	0.0145110
904.769	0.0144772
904.847	0.0144746
904.925	0.0145395
905.003	0.0145049
905.081	0.0145518
905.160	0.0144375
905.238	0.0144574
905.316	0.0145158
905.394	0.0144924
905.472	0.0144965
905.550	0.0144704
905.628	0.0145929
905.706	0.0144556
905.785	0.0143725
905.863	0.0144195
905.941	0.0144043
906.019	0.0143811
906.097	0.0144876
906.175	0.0142745
906.253	0.0142488
906.331	0.0143574
906.410	0.0144491
906.488	0.0144405
906.566	0.0144654
906.644	0.0143430
906.722	0.0145650
906.800	0.0145194
906.878	0.0144479
906.956	0.0144512
907.035	0.0146737
907.113	0.0147213
907.191	0.0147571
907.269	0.0146160
907.347	0.0148107
907.425	0.0148461
907.503	0.0147694
907.581	0.0147650
907.660	0.0148164
907.738	0.0149689
907.816	0.0147681
907.894	0.0148612
907.972	0.0148618
908.050	0.0148573
908.128	0.0147411
908.206	0.0146546
908.285	0.0146986
908.363	0.0146194
908.441	0.0146827
908.519	0.0146574
908.597	0.0145891
908.675	0.0144601
908.753	0.0146284
908.831	0.0145847
908.910	0.0145248
908.988	0.0144394
909.066	0.0145723
909.144	0.0144526
909.222	0.0144792
909.300	0.0144859
909.378	0.0144681
909.456	0.0144121
909.535	0.0144351
909.613	0.0143292
909.691	0.0143871
909.769	0.0143944
909.847	0.0144733
909.925	0.0144228
910.003	0.0143639
910.081	0.0144336
910.160	0.0142867
910.238	0.0143417
910.316	0.0143180
910.394	0.0142368
910.472	0.0143386
910.550	0.0143337
910.628	0.0145133
910.706	0.0144162
910.785	0.0144150
910.863	0.0143312
910.941	0.0144319
911.019	0.0144552
911.097	0.0145805
911.175	0.0145724
911.253	0.0146375
911.331	0.0146713
911.410	0.0146500
911.488	0.0146529
911.566	0.0146825
911.644	0.0145432
911.722	0.0147928
911.800	0.0148495
911.878	0.0146265
911.956	0.0148598
912.035	0.0147765
912.113	0.0148389
912.191	0.0148057
912.269	0.0148190
912.347	0.0148721
912.425	0.0149467
912.503	0.0148951
912.581	0.0147738
912.660	0.0147705
912.738	0.0147012
912.816	0.0147336
912.894	0.0147001
912.972	0.0145700
913.050	0.0147054
913.128	0.0144598
913.206	0.0145349
913.285	0.0144771
913.363	0.0145497
913.441	0.0145318
913.519	0.0145142
913.597	0.0145184
913.675	0.0144962
913.753	0.0144503
913.831	0.0144607
913.910	0.0146162
913.988	0.0145945
914.066	0.0146111
914.144	0.0146225
914.222	0.0146156
914.300	0.0145763
914.378	0.0146662
914.456	0.0147152
914.535	0.0147932
914.613	0.0149277
914.691	0.0147769
914.769	0.0147815
914.847	0.0148214
914.925	0.0147166
915.003	0.0148699
915.081	0.0148033
915.160	0.0147791
915.238	0.0148439
915.316	0.0146048
915.394	0.0146232
915.472	0.0146501
915.550	0.0147256
915.628	0.0147217
915.706	0.0147228
915.785	0.0146909
915.863	0.0146036
915.941	0.0145260
916.019	0.0144828
916.097	0.0145721
916.175	0.0144814
916.253	0.0143741
916.331	0.0144331
916.410	0.0145519
916.488	0.0144450
916.566	0.0145392
916.644	0.0144643
916.722	0.0145577
916.800	0.0145974
916.878	0.0145045
916.956	0.0145817
917.035	0.0145934
917.113	0.0144770
917.191	0.0145291
917.269	0.0144324
917.347	0.0146208
917.425	0.0145296
917.503	0.0145389
917.581	0.0144263
917.660	0.0144347
917.738	0.0143496
917.816	0.0145029
917.894	0.0144431
917.972	0.0142746
918.050	0.0143770
918.128	0.0144247
918.206	0.0144456
918.285	0.0143424
918.363	0.0142227
918.441	0.0143343
918.519	0.0143393
918.597	0.0143217
918.675	0.0142364
918.753	0.0143554
918.831	0.0144288
918.910	0.0143844
918.988	0.0144846
919.066	0.0144617
919.144	0.0145674
919.222	0.0146107
919.300	0.0145718
919.378	0.0145837
919.456	0.0144790
919.535	0.0146130
919.613	0.0145216
919.691	0.0145599
919.769	0.0145794
919.847	0.0145229
919.925	0.0145027
920.003	0.0144011
920.081	0.0143764
920.160	0.0144137
920.238	0.0142969
920.316	0.0143150
920.394	0.0144016
920.472	0.0142999
920.550	0.0143165
920.628	0.0143155
920.706	0.0145305
920.785	0.0144105
920.863	0.0144323
920.941	0.0145203
921.019	0.0144755
921.097	0.0145820
921.175	0.0146694
921.253	0.0146346
921.331	0.0145934
921.410	0.0148101
921.488	0.0147482
921.566	0.0147864
921.644	0.0147597
921.722	0.0146252
921.800	0.0147432
921.878	0.0148259
921.956	0.0149318
922.035	0.0148109
922.113	0.0147034
922.191	0.0148347
922.269	0.0147971
922.347	0.0148560
922.425	0.0147746
922.503	0.0148104
922.581	0.0147807
922.660	0.0147963
922.738	0.0148166
922.816	0.0148101
922.894	0.0147360
922.972	0.0147159
923.050	0.0146808
923.128	0.0145875
923.206	0.0146767
923.285	0.0147582
923.363	0.0145448
923.441	0.0145729
923.519	0.0145435
923.597	0.0145650
923.675	0.0147018
923.753	0.0146246
923.831	0.0147381
923.910	0.0145633
923.988	0.0144765
924.066	0.0144459
924.144	0.0144110
924.222	0.0143829
924.300	0.0145396
924.378	0.0145525
924.456	0.0144853
924.535	0.0145571
924.613	0.0143855
924.691	0.0142704
924.769	0.0144070
924.847	0.0143263
924.925	0.0143347
925.003	0.0143021
925.081	0.0143802
925.160	0.0144198
925.238	0.0142730
925.316	0.0143504
925.394	0.0143669
925.472	0.0143507
925.550	0.0144017
925.628	0.0144660
925.706	0.0144107
925.785	0.0144321
925.863	0.0145113
925.941	0.0145020
926.019	0.0145341
926.097	0.0144719
926.175	0.0145284
926.253	0.0144851
926.331	0.0144403
926.410	0.0146532
926.488	0.0145673
926.566	0.0146439
926.644	0.0146616
926.722	0.0145766
926.800	0.0145358
926.878	0.0145727
926.956	0.0147227
927.035	0.0146503
927.113	0.0146092
927.191	0.0145057
927.269	0.0144310
927.347	0.0146323
927.425	0.0145400
927.503	0.0145403
927.581	0.0145393
927.660	0.0144399
927.738	0.0146165
927.816	0.0144964
927.894	0.0144241
927.972	0.0145435
928.050	0.0145676
928.128	0.0143973
928.206	0.0145351
928.285	0.0145905
928.363	0.0145818
928.441	0.0146500
928.519	0.0147080
928.597	0.0145496
928.675	0.0145602
928.753	0.0146639
928.831	0.0145886
928.910	0.0146417
928.988	0.0146997
929.066	0.0146911
929.144	0.0147041
929.222	0.0146687
929.300	0.0148450
929.378	0.0147048
929.456	0.0146767
929.535	0.0147809
929.613	0.0147317
929.691	0.0145931
929.769	0.0145956
929.847	0.0147350
929.925	0.0147020
930.003	0.0146003
930.081	0.0146204
930.160	0.0146966
930.238	0.0146135
930.316	0.0145799
930.394	0.0144472
930.472	0.0144077
930.550	0.0145720
930.628	0.0146374
930.706	0.0143867
930.785	0.0143158
930.863	0.0143291
930.941	0.0144426
931.019	0.0143890
931.097	0.0143260
931.175	0.0143866
931.253	0.0144306
931.331	0.0142376
931.410	0.0142714
931.488	0.0143328
931.566	0.0142743
931.644	0.0143684
931.722	0.0143044
931.800	0.0142745
931.878	0.0140848
931.956	0.0143390
932.035	0.0142316
932.113	0.0141661
932.191	0.0142975
932.269	0.0142288
932.347	0.0141930
932.425	0.0142275
932.503	0.0142466
932.581	0.0143906
932.660	0.0142287
932.738	0.0141874
932.816	0.0143987
932.894	0.0143301
932.972	0.0143143
933.050	0.0144929
933.128	0.0144286
933.206	0.0144976
933.285	0.0145578
933.363	0.0143663
933.441	0.0144814
933.519	0.0145015
933.597	0.0145519
933.675	0.0146667
933.753	0.0145354
933.831	0.0145026
933.910	0.0145361
933.988	0.0146664
934.066	0.0146475
934.144	0.0145718
934.222	0.0144939
934.300	0.0146280
934.378	0.0145872
934.456	0.0146399
934.535	0.0146683
934.613	0.0145504
934.691	0.0144353
934.769	0.0144764
934.847	0.0145081
934.925	0.0144370
935.003	0.0144395
935.081	0.0145195
935.160	0.0146497
935.238	0.0145489
935.316	0.0144241
935.394	0.0144164
935.472	0.0143430
935.550	0.0143604
935.628	0.0145013
935.706	0.0145227
935.785	0.0144767
935.863	0.0145892
935.941	0.0145205
936.019	0.0143976
936.097	0.0145583
936.175	0.0146216
936.253	0.0146902
936.331	0.0146922
936.410	0.0147850
936.488	0.0146978
936.566	0.0146633
936.644	0.0146832
936.722	0.0146961
936.800	0.0148612
936.878	0.0147514
936.956	0.0147212
937.035	0.0146834
937.113	0.0147134
937.191	0.0147354
937.269	0.0147655
937.347	0.0147417
937.425	0.0146232
937.503	0.0147051
937.581	0.0146570
937.660	0.0146499
937.738	0.0145321
937.816	0.0147289
937.894	0.0146290
937.972	0.0147177
938.050	0.0148550
938.128	0.0146511
938.206	0.0146802
938.285	0.0146459
938.363	0.0146254
938.441	0.0146577
938.519	0.0146072
938.597	0.0145476
938.675	0.0144315
938.753	0.0145973
938.831	0.0146582
938.910	0.0145154
938.988	0.0145304
939.066	0.0144711
939.144	0.0144807
939.222	0.0145129
939.300	0.0144791
939.378	0.0145170
939.456	0.0143922
939.535	0.0144768
939.613	0.0144653
939.691	0.0143804
939.769	0.0143714
939.847	0.0146441
939.925	0.0145457
940.003	0.0142784
940.081	0.0144933
940.160	0.0144993
940.238	0.0145744
940.316	0.0145968
940.394	0.0146172
940.472	0.0146586
940.550	0.0145947
940.628	0.0147450
940.706	0.0146336
940.785	0.0146978
940.863	0.0147076
940.941	0.0147990
941.019	0.0148418
941.097	0.0146756
941.175	0.0148737
941.253	0.0148370
941.331	0.0147782
941.410	0.0146633
941.488	0.0146674
941.566	0.0147057
941.644	0.0146488
941.722	0.0145467
941.800	0.0145446
941.878	0.0145664
941.956	0.0145100
942.035	0.0146346
942.113	0.0144991
942.191	0.0145434
942.269	0.0146484
942.347	0.0145326
942.425	0.0145645
942.503	0.0146639
942.581	0.0146643
942.660	0.0145225
942.738	0.0145484
942.816	0.0145557
942.894	0.0145701
942.972	0.0146234
943.050	0.0146436
943.128	0.0147502
943.206	0.0146842
943.285	0.0146432
943.363	0.0147565
943.441	0.0147292
943.519	0.0147545
943.597	0.0147218
943.675	0.0146863
943.753	0.0147923
943.831	0.0148040
943.910	0.0146764
943.988	0.0147726
944.066	0.0147571
944.144	0.0145067
944.222	0.0146470
944.300	0.0148682
944.378	0.0148828
944.456	0.0146771
944.535	0.0147019
944.613	0.0145869
944.691	0.0146552
944.769	0.0145607
944.847	0.0147185
944.925	0.0147064
945.003	0.0147439
945.081	0.0146523
945.160	0.0145930
945.238	0.0145045
945.316	0.0143740
945.394	0.0144717
945.472	0.0145064
945.550	0.0143212
945.628	0.0142461
945.706	0.0142946
945.785	0.0143764
945.863	0.0143375
945.941	0.0144311
946.019	0.0142236
946.097	0.0143168
946.175	0.0143785
946.253	0.0144551
946.331	0.0143418
946.410	0.0142838
946.488	0.0144857
946.566	0.0143922
946.644	0.0144508
946.722	0.0144543
946.800	0.0143504
946.878	0.0146075
946.956	0.0146752
947.035	0.0146481
947.113	0.0147015
947.191	0.0146521
947.269	0.0146304
947.347	0.0145757
947.425	0.0146224
947.503	0.0146853
947.581	0.0145965
947.660	0.0147025
947.738	0.0147437
947.816	0.0147608
947.894	0.0147899
947.972	0.0147804
948.050	0.0148710
948.128	0.0147855
948.206	0.0149306
948.285	0.0148409
948.363	0.0147517
948.441	0.0149052
948.519	0.0148160
948.597	0.0147614
948.675	0.0148618
948.753	0.0146815
948.831	0.0146957
948.910	0.0147569
948.988	0.0146677
949.066	0.0147159
949.144	0.0147444
949.222	0.0146423
949.300	0.0145110
949.378	0.0146442
949.456	0.0146748
949.535	0.0144991
949.613	0.0145380
949.691	0.0144416
949.769	0.0145657
949.847	0.0144832
949.925	0.0146866
950.003	0.0144921
950.081	0.0144860
950.160	0.0145127
950.238	0.0145377
950.316	0.0146706
950.394	0.0145483
950.472	0.0145541
950.550	0.0144925
950.628	0.0146381
950.706	0.0144923
950.785	0.0146293
950.863	0.0145806
950.941	0.0146774
951.019	0.0147427
951.097	0.0145827
951.175	0.0146531
951.253	0.0146969
951.331	0.0146460
951.410	0.0147001
951.488	0.0145879
951.566	0.0147350
951.644	0.0146008
951.722	0.0147510
951.800	0.0145789
951.878	0.0146004
951.956	0.0146048
952.035	0.0147133
952.113	0.0145472
952.191	0.0144881
952.269	0.0145293
952.347	0.0145753
952.425	0.0144135
952.503	0.0144341
952.581	0.0143698
952.660	0.0144345
952.738	0.0143793
952.816	0.0144354
952.894	0.0143904
952.972	0.0144244
953.050	0.0142703
953.128	0.0143610
953.206	0.0144039
953.285	0.0144833
953.363	0.0143114
953.441	0.0144642
953.519	0.0142878
953.597	0.0142911
953.675	0.0143972
953.753	0.0142847
953.831	0.0144109
953.910	0.0143417
953.988	0.0143261
954.066	0.0144168
954.144	0.0142337
954.222	0.0143138
954.300	0.0142739
954.378	0.0142362
954.456	0.0141729
954.535	0.0142843
954.613	0.0142771
954.691	0.0141151
954.769	0.0140952
954.847	0.0141706
954.925	0.0141426
955.003	0.0140939
955.081	0.0140032
955.160	0.0142020
955.238	0.0140085
955.316	0.0139733
955.394	0.0141925
955.472	0.0141478
955.550	0.0141788
955.628	0.0141798
955.706	0.0141132
955.785	0.0141166
955.863	0.0142413
955.941	0.0142731
956.019	0.0143221
956.097	0.0142060
956.175	0.0143695
956.253	0.0144551
956.331	0.0142716
956.410	0.0142957
956.488	0.0144570
956.566	0.0143713
956.644	0.0143825
956.722	0.0144091
956.800	0.0144798
956.878	0.0145217
956.956	0.0144528
957.035	0.0145351
957.113	0.0146626
957.191	0.0146564
957.269	0.0146432
957.347	0.0146103
957.425	0.0147308
957.503	0.0148306
957.581	0.0147929
957.660	0.0148504
957.738	0.0150356
957.816	0.0148759
957.894	0.0149500
957.972	0.0149702
958.050	0.0149996
958.128	0.0147603
958.206	0.0150001
958.285	0.0149261
958.363	0.0150861
958.441	0.0148701
958.519	0.0148832
958.597	0.0148703
958.675	0.0149234
958.753	0.0149259
958.831	0.0149912
958.910	0.0148412
958.988	0.0147975
959.066	0.0148097
959.144	0.0148853
959.222	0.0148764
959.300	0.0148418
959.378	0.0146009
959.456	0.0147810
959.535	0.0147561
959.613	0.0146715
959.691	0.0146700
959.769	0.0145995
959.847	0.0146778
959.925	0.0146102
960.003	0.0146373
960.081	0.0145840
960.160	0.0145816
960.238	0.0145923
960.316	0.0145977
960.394	0.0146046
960.472	0.0145117
960.550	0.0145833
960.628	0.0146532
960.706	0.0146155
960.785	0.0145876
960.863	0.0147060
960.941	0.0146485
961.019	0.0146477
961.097	0.0146416
961.175	0.0145847
961.253	0.0145561
961.331	0.0146767
961.410	0.0146796
961.488	0.0146775
961.566	0.0146634
961.644	0.0146039
961.722	0.0145975
961.800	0.0147062
961.878	0.0147300
961.956	0.0146455
962.035	0.0146519
962.113	0.0145518
962.191	0.0146037
962.269	0.0147648
962.347	0.0146310
962.425	0.0146754
962.503	0.0148051
962.581	0.0147237
962.660	0.0146726
962.738	0.0146898
962.816	0.0146688
962.894	0.0147544
962.972	0.0148089
963.050	0.0145901
963.128	0.0146252
963.206	0.0148154
963.285	0.0146748
963.363	0.0147525
963.441	0.0144825
963.519	0.0145492
963.597	0.0146919
963.675	0.0146708
963.753	0.0145631
963.831	0.0146356
963.910	0.0145628
963.988	0.0144607
964.066	0.0145390
964.144	0.0144934
964.222	0.0145235
964.300	0.0146149
964.378	0.0145503
964.456	0.0144538
964.535	0.0145506
964.613	0.0145816
964.691	0.0145816
964.769	0.0147796
964.847	0.0147015
964.925	0.0147187
965.003	0.0147510
965.081	0.0148196
965.160	0.0148318
965.238	0.0148155
965.316	0.0149152
965.394	0.0149106
965.472	0.0149883
965.550	0.0150035
965.628	0.0149060
965.706	0.0147880
965.785	0.0148576
965.863	0.0149902
965.941	0.0150989
966.019	0.0149734
966.097	0.0147888
966.175	0.0148849
966.253	0.0148669
966.331	0.0149113
966.410	0.0149279
966.488	0.0147637
966.566	0.0147140
966.644	0.0148864
966.722	0.0148219
966.800	0.0147713
966.878	0.0147943
966.956	0.0146305
967.035	0.0147263
967.113	0.0148164
967.191	0.0147646
967.269	0.0146121
967.347	0.0147331
967.425	0.0147309
967.503	0.0147169
967.581	0.0147215
967.660	0.0147355
967.738	0.0146402
967.816	0.0146098
967.894	0.0145638
967.972	0.0145716
968.050	0.0147095
968.128	0.0146107
968.206	0.0145714
968.285	0.0144585
968.363	0.0144992
968.441	0.0145252
968.519	0.0145561
968.597	0.0145007
968.675	0.0144879
968.753	0.0143828
968.831	0.0143570
968.910	0.0144909
968.988	0.0143790
969.066	0.0143140
969.144	0.0144727
969.222	0.0144933
969.300	0.0145165
969.378	0.0143394
969.456	0.0144656
969.535	0.0144854
969.613	0.0144050
969.691	0.0145149
969.769	0.0144897
969.847	0.0145432
969.925	0.0145496
970.003	0.0144387
970.081	0.0144268
970.160	0.0144727
970.238	0.0145330
970.316	0.0144768
970.394	0.0145398
970.472	0.0145916
970.550	0.0144475
970.628	0.0145439
970.706	0.0145257
970.785	0.0145293
970.863	0.0146021
970.941	0.0145087
971.019	0.0144098
971.097	0.0144378
971.175	0.0145751
971.253	0.0145453
971.331	0.0145178
971.410	0.0145732
971.488	0.0146113
971.566	0.0145298
971.644	0.0145881
971.722	0.0144277
971.800	0.0146130
971.878	0.0146316
971.956	0.0147100
972.035	0.0145515
972.113	0.0147564
972.191	0.0148115
972.269	0.0147078
972.347	0.0147713
972.425	0.0147546
972.503	0.0147009
972.581	0.0146677
972.660	0.0147814
972.738	0.0147733
972.816	0.0148434
972.894	0.0147775
972.972	0.0147071
973.050	0.0146188
973.128	0.0148232
973.206	0.0146277
973.285	0.0145998
973.363	0.0145676
973.441	0.0146775
973.519	0.0146242
973.597	0.0145414
973.675	0.0145702
973.753	0.0145267
973.831	0.0143956
973.910	0.0145604
973.988	0.0144814
974.066	0.0144410
974.144	0.0145979
974.222	0.0145022
974.300	0.0144328
974.378	0.0144836
974.456	0.0144901
974.535	0.0146978
974.613	0.0145014
974.691	0.0144934
974.769	0.0145222
974.847	0.0145859
974.925	0.0144115
975.003	0.0144392
975.081	0.0143484
975.160	0.0143778
975.238	0.0143482
975.316	0.0143539
975.394	0.0142944
975.472	0.0142041
975.550	0.0142081
975.628	0.0142223
975.706	0.0141700
975.785	0.0143347
975.863	0.0140776
975.941	0.0141465
976.019	0.0140844
976.097	0.0141921
976.175	0.0142486
976.253	0.0143097
976.331	0.0141878
976.410	0.0142899
976.488	0.0141876
976.566	0.0141976
976.644	0.0141457
976.722	0.0142116
976.800	0.0142831
976.878	0.0142352
976.956	0.0142655
977.035	0.0144373
977.113	0.0143360
977.191	0.0143385
977.269	0.0142055
977.347	0.0142596
977.425	0.0142534
977.503	0.0143064
977.581	0.0142809
977.660	0.0143497
977.738	0.0143406
977.816	0.0142130
977.894	0.0142102
977.972	0.0142603
978.050	0.0142244
978.128	0.0142246
978.206	0.0142220
978.285	0.0144401
978.363	0.0142309
978.441	0.0142849
978.519	0.0141737
978.597	0.0141248
978.675	0.0142368
978.753	0.0143042
978.831	0.0142595
978.910	0.0142585
978.988	0.0142706
979.066	0.0143706
979.144	0.0143502
979.222	0.0142719
979.300	0.0143607
979.378	0.0143967
979.456	0.0143990
979.535	0.0143216
979.613	0.0145439
979.691	0.0145664
979.769	0.0144897
979.847	0.0144984
979.925	0.0146350
