05/03/2022	20:41:33	Ver.	4.1	UNKNOWN
Optical Delay	660.003261	Delta X		0.078125	Sweeps	1	Scan Rate	0/0
Coordinates	Axis 1	NaN	Axis 2	NaN	Axis 3	NaN	Axis 4	NaN	Axis 5	NaN	Axis 6	0.000000
TX Power	0.000000	RX Power	0.000000

660.003	0.0146571
660.081	0.0146396
660.160	0.0145264
660.238	0.0144790
660.316	0.0147182
660.394	0.0146635
660.472	0.0146725
660.550	0.0145691
660.628	0.0146841
660.706	0.0146452
660.785	0.0146371
660.863	0.0145602
660.941	0.0145625
661.019	0.0146677
661.097	0.0144881
661.175	0.0146233
661.253	0.0146525
661.331	0.0145135
661.410	0.0145104
661.488	0.0144091
661.566	0.0145408
661.644	0.0145419
661.722	0.0144070
661.800	0.0145889
661.878	0.0144477
661.956	0.0144644
662.035	0.0146519
662.113	0.0144828
662.191	0.0144616
662.269	0.0145737
662.347	0.0144576
662.425	0.0145039
662.503	0.0143488
662.581	0.0144036
662.660	0.0145008
662.738	0.0143771
662.816	0.0143435
662.894	0.0143964
662.972	0.0143676
663.050	0.0145750
663.128	0.0145367
663.206	0.0144576
663.285	0.0144707
663.363	0.0144371
663.441	0.0144337
663.519	0.0144621
663.597	0.0145165
663.675	0.0145571
663.753	0.0144690
663.831	0.0143803
663.910	0.0145660
663.988	0.0144239
664.066	0.0144444
664.144	0.0144569
664.222	0.0145162
664.300	0.0144155
664.378	0.0143302
664.456	0.0143992
664.535	0.0144938
664.613	0.0144798
664.691	0.0143103
664.769	0.0144646
664.847	0.0144639
664.925	0.0144083
665.003	0.0145606
665.081	0.0145494
665.160	0.0144969
665.238	0.0145479
665.316	0.0145103
665.394	0.0143482
665.472	0.0144357
665.550	0.0145128
665.628	0.0144521
665.706	0.0144675
665.785	0.0144855
665.863	0.0144604
665.941	0.0144212
666.019	0.0143476
666.097	0.0144048
666.175	0.0144562
666.253	0.0146242
666.331	0.0144302
666.410	0.0143799
666.488	0.0144038
666.566	0.0144795
666.644	0.0144643
666.722	0.0146286
666.800	0.0145358
666.878	0.0144745
666.956	0.0145403
667.035	0.0145692
667.113	0.0144494
667.191	0.0143216
667.269	0.0144979
667.347	0.0145190
667.425	0.0145190
667.503	0.0145956
667.581	0.0145301
667.660	0.0143971
667.738	0.0144528
667.816	0.0145663
667.894	0.0146471
667.972	0.0146556
668.050	0.0145371
668.128	0.0145115
668.206	0.0146037
668.285	0.0145618
668.363	0.0144730
668.441	0.0145245
668.519	0.0145497
668.597	0.0144239
668.675	0.0144353
668.753	0.0144757
668.831	0.0144280
668.910	0.0145763
668.988	0.0145949
669.066	0.0145341
669.144	0.0144746
669.222	0.0145071
669.300	0.0146196
669.378	0.0145496
669.456	0.0146436
669.535	0.0145817
669.613	0.0145276
669.691	0.0146351
669.769	0.0145943
669.847	0.0144781
669.925	0.0146156
670.003	0.0146708
670.081	0.0146777
670.160	0.0145632
670.238	0.0146578
670.316	0.0145376
670.394	0.0146770
670.472	0.0145623
670.550	0.0144717
670.628	0.0145030
670.706	0.0146968
670.785	0.0146693
670.863	0.0145024
670.941	0.0145824
671.019	0.0145771
671.097	0.0146344
671.175	0.0145894
671.253	0.0146281
671.331	0.0146882
671.410	0.0146996
671.488	0.0146135
671.566	0.0146879
671.644	0.0145784
671.722	0.0147220
671.800	0.0145837
671.878	0.0144242
671.956	0.0145026
672.035	0.0145880
672.113	0.0147207
672.191	0.0147002
672.269	0.0145519
672.347	0.0147392
672.425	0.0147550
672.503	0.0146210
672.581	0.0145982
672.660	0.0145304
672.738	0.0146597
672.816	0.0145921
672.894	0.0146667
672.972	0.0145441
673.050	0.0145798
673.128	0.0146893
673.206	0.0147337
673.285	0.0147028
673.363	0.0146695
673.441	0.0146641
673.519	0.0146629
673.597	0.0147562
673.675	0.0147285
673.753	0.0147040
673.831	0.0146392
673.910	0.0147372
673.988	0.0145655
674.066	0.0146937
674.144	0.0147560
674.222	0.0146066
674.300	0.0146455
674.378	0.0146707
674.456	0.0147231
674.535	0.0146364
674.613	0.0146029
674.691	0.0145969
674.769	0.0146124
674.847	0.0147858
674.925	0.0147513
675.003	0.0145948
675.081	0.0147324
675.160	0.0147113
675.238	0.0146107
675.316	0.0145187
675.394	0.0147134
675.472	0.0148221
675.550	0.0145464
675.628	0.0148082
675.706	0.0148836
675.785	0.0146577
675.863	0.0148331
675.941	0.0148263
676.019	0.0147634
676.097	0.0147285
676.175	0.0147250
676.253	0.0147711
676.331	0.0146236
676.410	0.0147215
676.488	0.0147592
676.566	0.0146767
676.644	0.0145761
676.722	0.0145909
676.800	0.0146154
676.878	0.0145373
676.956	0.0146490
677.035	0.0147136
677.113	0.0146124
677.191	0.0146814
677.269	0.0146338
677.347	0.0146154
677.425	0.0145888
677.503	0.0146452
677.581	0.0146004
677.660	0.0145629
677.738	0.0146004
677.816	0.0145493
677.894	0.0145566
677.972	0.0145971
678.050	0.0146630
678.128	0.0146319
678.206	0.0146966
678.285	0.0147004
678.363	0.0148157
678.441	0.0147739
678.519	0.0147119
678.597	0.0146026
678.675	0.0146706
678.753	0.0148769
678.831	0.0147953
678.910	0.0147555
678.988	0.0146972
679.066	0.0148171
679.144	0.0148328
679.222	0.0146895
679.300	0.0147672
679.378	0.0147667
679.456	0.0146889
679.535	0.0148110
679.613	0.0146982
679.691	0.0146546
679.769	0.0148084
679.847	0.0147337
679.925	0.0147073
680.003	0.0146895
680.081	0.0146869
680.160	0.0146400
680.238	0.0146607
680.316	0.0146297
680.394	0.0146666
680.472	0.0146658
680.550	0.0146107
680.628	0.0146944
680.706	0.0146478
680.785	0.0146864
680.863	0.0147457
680.941	0.0146833
681.019	0.0147404
681.097	0.0146519
681.175	0.0147551
681.253	0.0146915
681.331	0.0147661
681.410	0.0146223
681.488	0.0147568
681.566	0.0146624
681.644	0.0148586
681.722	0.0147121
681.800	0.0147370
681.878	0.0146447
681.956	0.0146793
682.035	0.0146803
682.113	0.0146730
682.191	0.0146837
682.269	0.0146613
682.347	0.0147330
682.425	0.0146584
682.503	0.0144884
682.581	0.0146599
682.660	0.0147305
682.738	0.0146587
682.816	0.0147345
682.894	0.0146912
682.972	0.0146272
683.050	0.0145708
683.128	0.0147035
683.206	0.0148300
683.285	0.0147994
683.363	0.0145796
683.441	0.0146291
683.519	0.0146709
683.597	0.0144936
683.675	0.0146988
683.753	0.0145861
683.831	0.0144550
683.910	0.0146159
683.988	0.0145086
684.066	0.0144595
684.144	0.0144193
684.222	0.0144447
684.300	0.0143686
684.378	0.0144402
684.456	0.0143709
684.535	0.0144865
684.613	0.0143422
684.691	0.0142446
684.769	0.0144261
684.847	0.0144592
684.925	0.0144203
685.003	0.0144186
685.081	0.0144120
685.160	0.0145303
685.238	0.0144651
685.316	0.0145409
685.394	0.0145707
685.472	0.0145451
685.550	0.0145042
685.628	0.0146510
685.706	0.0145093
685.785	0.0145767
685.863	0.0145557
685.941	0.0145401
686.019	0.0145816
686.097	0.0145954
686.175	0.0145897
686.253	0.0144347
686.331	0.0146455
686.410	0.0146003
686.488	0.0146742
686.566	0.0146770
686.644	0.0147493
686.722	0.0145805
686.800	0.0145750
686.878	0.0146104
686.956	0.0146575
687.035	0.0147051
687.113	0.0145863
687.191	0.0146647
687.269	0.0147293
687.347	0.0147249
687.425	0.0146101
687.503	0.0146022
687.581	0.0146471
687.660	0.0146115
687.738	0.0146758
687.816	0.0146281
687.894	0.0145134
687.972	0.0145707
688.050	0.0145990
688.128	0.0146140
688.206	0.0145618
688.285	0.0147910
688.363	0.0145276
688.441	0.0146359
688.519	0.0146160
688.597	0.0147269
688.675	0.0145057
688.753	0.0145166
688.831	0.0145865
688.910	0.0145225
688.988	0.0144666
689.066	0.0146219
689.144	0.0145638
689.222	0.0143353
689.300	0.0144292
689.378	0.0145145
689.456	0.0143402
689.535	0.0142793
689.613	0.0144244
689.691	0.0144147
689.769	0.0143567
689.847	0.0144437
689.925	0.0144193
690.003	0.0145946
690.081	0.0145695
690.160	0.0146206
690.238	0.0145716
690.316	0.0145927
690.394	0.0146866
690.472	0.0147672
690.550	0.0146092
690.628	0.0147067
690.706	0.0147272
690.785	0.0146985
690.863	0.0146613
690.941	0.0146664
691.019	0.0146829
691.097	0.0146152
691.175	0.0146513
691.253	0.0147028
691.331	0.0145270
691.410	0.0144565
691.488	0.0145841
691.566	0.0144504
691.644	0.0145252
691.722	0.0143731
691.800	0.0144460
691.878	0.0144646
691.956	0.0143716
692.035	0.0143980
692.113	0.0144618
692.191	0.0145244
692.269	0.0144903
692.347	0.0144234
692.425	0.0144621
692.503	0.0146278
692.581	0.0145492
692.660	0.0145560
692.738	0.0147064
692.816	0.0146970
692.894	0.0146066
692.972	0.0147007
693.050	0.0146682
693.128	0.0145373
693.206	0.0145196
693.285	0.0146501
693.363	0.0145601
693.441	0.0146101
693.519	0.0147945
693.597	0.0147904
693.675	0.0145956
693.753	0.0145630
693.831	0.0146175
693.910	0.0145956
693.988	0.0146118
694.066	0.0146681
694.144	0.0146340
694.222	0.0145540
694.300	0.0146129
694.378	0.0144776
694.456	0.0144852
694.535	0.0144793
694.613	0.0145350
694.691	0.0144679
694.769	0.0145101
694.847	0.0144633
694.925	0.0145145
695.003	0.0144422
695.081	0.0143404
695.160	0.0144730
695.238	0.0144193
695.316	0.0143190
695.394	0.0143623
695.472	0.0144565
695.550	0.0144986
695.628	0.0143333
695.706	0.0145235
695.785	0.0145342
695.863	0.0145575
695.941	0.0145519
696.019	0.0145359
696.097	0.0145403
696.175	0.0145650
696.253	0.0146517
696.331	0.0145897
696.410	0.0146761
696.488	0.0145388
696.566	0.0146617
696.644	0.0147112
696.722	0.0146133
696.800	0.0145320
696.878	0.0144828
696.956	0.0145172
697.035	0.0144772
697.113	0.0145718
697.191	0.0143723
697.269	0.0142986
697.347	0.0143811
697.425	0.0144698
697.503	0.0144395
697.581	0.0145303
697.660	0.0144532
697.738	0.0145459
697.816	0.0147248
697.894	0.0146530
697.972	0.0145710
698.050	0.0145394
698.128	0.0145650
698.206	0.0146774
698.285	0.0146056
698.363	0.0146647
698.441	0.0147192
698.519	0.0145942
698.597	0.0146478
698.675	0.0146805
698.753	0.0146012
698.831	0.0145541
698.910	0.0145860
698.988	0.0143208
699.066	0.0143695
699.144	0.0143681
699.222	0.0143356
699.300	0.0142577
699.378	0.0143915
699.456	0.0144087
699.535	0.0144153
699.613	0.0144165
699.691	0.0145061
699.769	0.0144541
699.847	0.0145974
699.925	0.0144911
700.003	0.0144702
700.081	0.0146100
700.160	0.0145222
700.238	0.0145695
700.316	0.0145679
700.394	0.0145164
700.472	0.0145664
700.550	0.0144207
700.628	0.0144834
700.706	0.0144375
700.785	0.0144498
700.863	0.0144966
700.941	0.0144028
701.019	0.0142818
701.097	0.0144828
701.175	0.0143455
701.253	0.0144080
701.331	0.0145337
701.410	0.0145819
701.488	0.0145638
701.566	0.0146239
701.644	0.0146702
701.722	0.0145676
701.800	0.0146898
701.878	0.0147187
701.956	0.0147574
702.035	0.0146868
702.113	0.0144981
702.191	0.0144886
702.269	0.0147372
702.347	0.0145801
702.425	0.0144514
702.503	0.0145813
702.581	0.0147809
702.660	0.0146805
702.738	0.0145194
702.816	0.0146799
702.894	0.0146584
702.972	0.0146705
703.050	0.0147133
703.128	0.0146443
703.206	0.0145892
703.285	0.0147069
703.363	0.0147693
703.441	0.0147147
703.519	0.0146983
703.597	0.0146134
703.675	0.0146620
703.753	0.0148177
703.831	0.0147602
703.910	0.0148462
703.988	0.0148532
704.066	0.0147489
704.144	0.0148238
704.222	0.0147158
704.300	0.0148791
704.378	0.0147782
704.456	0.0147401
704.535	0.0147883
704.613	0.0147176
704.691	0.0147588
704.769	0.0147713
704.847	0.0147426
704.925	0.0146918
705.003	0.0146948
705.081	0.0146851
705.160	0.0145763
705.238	0.0146866
705.316	0.0145345
705.394	0.0146130
705.472	0.0145337
705.550	0.0145953
705.628	0.0147221
705.706	0.0146268
705.785	0.0147324
705.863	0.0146893
705.941	0.0148165
706.019	0.0148406
706.097	0.0147585
706.175	0.0147924
706.253	0.0147880
706.331	0.0148364
706.410	0.0147266
706.488	0.0144993
706.566	0.0145535
706.644	0.0146609
706.722	0.0146951
706.800	0.0144491
706.878	0.0145342
706.956	0.0145329
707.035	0.0143632
707.113	0.0144196
707.191	0.0143283
707.269	0.0143686
707.347	0.0143755
707.425	0.0143546
707.503	0.0144267
707.581	0.0144510
707.660	0.0144888
707.738	0.0145329
707.816	0.0143880
707.894	0.0144879
707.972	0.0144733
708.050	0.0144810
708.128	0.0144115
708.206	0.0143821
708.285	0.0144435
708.363	0.0144317
708.441	0.0145123
708.519	0.0144479
708.597	0.0145927
708.675	0.0145274
708.753	0.0144267
708.831	0.0145374
708.910	0.0146095
708.988	0.0146540
709.066	0.0146825
709.144	0.0146695
709.222	0.0147301
709.300	0.0147359
709.378	0.0146790
709.456	0.0146059
709.535	0.0147428
709.613	0.0147634
709.691	0.0146368
709.769	0.0147121
709.847	0.0146661
709.925	0.0146279
710.003	0.0147218
710.081	0.0146544
710.160	0.0147343
710.238	0.0146676
710.316	0.0146496
710.394	0.0147680
710.472	0.0147155
710.550	0.0146475
710.628	0.0148318
710.706	0.0147723
710.785	0.0148513
710.863	0.0148907
710.941	0.0148222
711.019	0.0149438
711.097	0.0148263
711.175	0.0149001
711.253	0.0149087
711.331	0.0149534
711.410	0.0148186
711.488	0.0147623
711.566	0.0147422
711.644	0.0147767
711.722	0.0148293
711.800	0.0146687
711.878	0.0147768
711.956	0.0148299
712.035	0.0145877
712.113	0.0147949
712.191	0.0147381
712.269	0.0147534
712.347	0.0148911
712.425	0.0147836
712.503	0.0148097
712.581	0.0147939
712.660	0.0147608
712.738	0.0148822
712.816	0.0149424
712.894	0.0147498
712.972	0.0146839
713.050	0.0148307
713.128	0.0146055
713.206	0.0145273
713.285	0.0145791
713.363	0.0145695
713.441	0.0144139
713.519	0.0143495
713.597	0.0145361
713.675	0.0144396
713.753	0.0143357
713.831	0.0143808
713.910	0.0144924
713.988	0.0144680
714.066	0.0143589
714.144	0.0145269
714.222	0.0144878
714.300	0.0145522
714.378	0.0143564
714.456	0.0144453
714.535	0.0145555
714.613	0.0144836
714.691	0.0144823
714.769	0.0144043
714.847	0.0143910
714.925	0.0144682
715.003	0.0145557
715.081	0.0143666
715.160	0.0142464
715.238	0.0141518
715.316	0.0145063
715.394	0.0143282
715.472	0.0142954
715.550	0.0144434
715.628	0.0146774
715.706	0.0145253
715.785	0.0145715
715.863	0.0145124
715.941	0.0145063
716.019	0.0145103
716.097	0.0145483
716.175	0.0146963
716.253	0.0145912
716.331	0.0145644
716.410	0.0145509
716.488	0.0144992
716.566	0.0144672
716.644	0.0145551
716.722	0.0145110
716.800	0.0145428
716.878	0.0144411
716.956	0.0145573
717.035	0.0147031
717.113	0.0146278
717.191	0.0146619
717.269	0.0145633
717.347	0.0146880
717.425	0.0146143
717.503	0.0145605
717.581	0.0144415
717.660	0.0144927
717.738	0.0143948
717.816	0.0145324
717.894	0.0146270
717.972	0.0143984
718.050	0.0145206
718.128	0.0144852
718.206	0.0143624
718.285	0.0143803
718.363	0.0143161
718.441	0.0143845
718.519	0.0143375
718.597	0.0142243
718.675	0.0143069
718.753	0.0143480
718.831	0.0144016
718.910	0.0145456
718.988	0.0145473
719.066	0.0145506
719.144	0.0144723
719.222	0.0145862
719.300	0.0145386
719.378	0.0144269
719.456	0.0144919
719.535	0.0145990
719.613	0.0145168
719.691	0.0145061
719.769	0.0145196
719.847	0.0143587
719.925	0.0144275
720.003	0.0145058
720.081	0.0143462
720.160	0.0142960
720.238	0.0142926
720.316	0.0141768
720.394	0.0143382
720.472	0.0143398
720.550	0.0143328
720.628	0.0143087
720.706	0.0143610
720.785	0.0143521
720.863	0.0144372
720.941	0.0143706
721.019	0.0143325
721.097	0.0144368
721.175	0.0144038
721.253	0.0144861
721.331	0.0145512
721.410	0.0142271
721.488	0.0143943
721.566	0.0144745
721.644	0.0143705
721.722	0.0144794
721.800	0.0144367
721.878	0.0143517
721.956	0.0143963
722.035	0.0144305
722.113	0.0144928
722.191	0.0144891
722.269	0.0145710
722.347	0.0147077
722.425	0.0145370
722.503	0.0146974
722.581	0.0145250
722.660	0.0146313
722.738	0.0146878
722.816	0.0145831
722.894	0.0146245
722.972	0.0147054
723.050	0.0146912
723.128	0.0146310
723.206	0.0147028
723.285	0.0147045
723.363	0.0148650
723.441	0.0147076
723.519	0.0146575
723.597	0.0146712
723.675	0.0147594
723.753	0.0148927
723.831	0.0146682
723.910	0.0147176
723.988	0.0147816
724.066	0.0147084
724.144	0.0147475
724.222	0.0145993
724.300	0.0145813
724.378	0.0145684
724.456	0.0146159
724.535	0.0145612
724.613	0.0145231
724.691	0.0145409
724.769	0.0144420
724.847	0.0146236
724.925	0.0145351
725.003	0.0144955
725.081	0.0144916
725.160	0.0146713
725.238	0.0146308
725.316	0.0144376
725.394	0.0144632
725.472	0.0145933
725.550	0.0146011
725.628	0.0146537
725.706	0.0145759
725.785	0.0145018
725.863	0.0147060
725.941	0.0146391
726.019	0.0146437
726.097	0.0146749
726.175	0.0145973
726.253	0.0144535
726.331	0.0146280
726.410	0.0144327
726.488	0.0146328
726.566	0.0146487
726.644	0.0145914
726.722	0.0146140
726.800	0.0144138
726.878	0.0143696
726.956	0.0143988
727.035	0.0144217
727.113	0.0143221
727.191	0.0142510
727.269	0.0143883
727.347	0.0144097
727.425	0.0144555
727.503	0.0145450
727.581	0.0146208
727.660	0.0146777
727.738	0.0145394
727.816	0.0146317
727.894	0.0145309
727.972	0.0145658
728.050	0.0145811
728.128	0.0145403
728.206	0.0144444
728.285	0.0143492
728.363	0.0144244
728.441	0.0146141
728.519	0.0144070
728.597	0.0143941
728.675	0.0144273
728.753	0.0146429
728.831	0.0145390
728.910	0.0146271
728.988	0.0145156
729.066	0.0146431
729.144	0.0148191
729.222	0.0147472
729.300	0.0146375
729.378	0.0146410
729.456	0.0147301
729.535	0.0148045
729.613	0.0149651
729.691	0.0148596
729.769	0.0149117
729.847	0.0148904
729.925	0.0149588
730.003	0.0148092
730.081	0.0148402
730.160	0.0149178
730.238	0.0149204
730.316	0.0149194
730.394	0.0147853
730.472	0.0149792
730.550	0.0148942
730.628	0.0149226
730.706	0.0148830
730.785	0.0151092
730.863	0.0148772
730.941	0.0147652
731.019	0.0147666
731.097	0.0148338
731.175	0.0147024
731.253	0.0147227
731.331	0.0148127
731.410	0.0146513
731.488	0.0147390
731.566	0.0147280
731.644	0.0147455
731.722	0.0147792
731.800	0.0148258
731.878	0.0147118
731.956	0.0148113
732.035	0.0146482
732.113	0.0149309
732.191	0.0147120
732.269	0.0146073
732.347	0.0146210
732.425	0.0145743
732.503	0.0147295
732.581	0.0147475
732.660	0.0146305
732.738	0.0147308
732.816	0.0146149
732.894	0.0146841
732.972	0.0146516
733.050	0.0147093
733.128	0.0148535
733.206	0.0147533
733.285	0.0147129
733.363	0.0146220
733.441	0.0146729
733.519	0.0145937
733.597	0.0145565
733.675	0.0145658
733.753	0.0145044
733.831	0.0143320
733.910	0.0143578
733.988	0.0143922
734.066	0.0144388
734.144	0.0143631
734.222	0.0143918
734.300	0.0145641
734.378	0.0145272
734.456	0.0144615
734.535	0.0143628
734.613	0.0144969
734.691	0.0144704
734.769	0.0146627
734.847	0.0147195
734.925	0.0145196
735.003	0.0145316
735.081	0.0144965
735.160	0.0145609
735.238	0.0144283
735.316	0.0144103
735.394	0.0145157
735.472	0.0146452
735.550	0.0143405
735.628	0.0143913
735.706	0.0145366
735.785	0.0144593
735.863	0.0146816
735.941	0.0146307
736.019	0.0147870
736.097	0.0146655
736.175	0.0147033
736.253	0.0147359
736.331	0.0148418
736.410	0.0148843
736.488	0.0149168
736.566	0.0148798
736.644	0.0148109
736.722	0.0150165
736.800	0.0148727
736.878	0.0148335
736.956	0.0150291
737.035	0.0149491
737.113	0.0150280
737.191	0.0149287
737.269	0.0149432
737.347	0.0149055
737.425	0.0149805
737.503	0.0148669
737.581	0.0148057
737.660	0.0148515
737.738	0.0148158
737.816	0.0147414
737.894	0.0147129
737.972	0.0146374
738.050	0.0146136
738.128	0.0146040
738.206	0.0146205
738.285	0.0146494
738.363	0.0145718
738.441	0.0145937
738.519	0.0144942
738.597	0.0145177
738.675	0.0144281
738.753	0.0145368
738.831	0.0146316
738.910	0.0146046
738.988	0.0144753
739.066	0.0144518
739.144	0.0145969
739.222	0.0145074
739.300	0.0145020
739.378	0.0145256
739.456	0.0143615
739.535	0.0146127
739.613	0.0145985
739.691	0.0143555
739.769	0.0145081
739.847	0.0144371
739.925	0.0144023
740.003	0.0144791
740.081	0.0143418
740.160	0.0145267
740.238	0.0145431
740.316	0.0144807
740.394	0.0145833
740.472	0.0143748
740.550	0.0143378
740.628	0.0144582
740.706	0.0143552
740.785	0.0144170
740.863	0.0143289
740.941	0.0143826
741.019	0.0143539
741.097	0.0143388
741.175	0.0144089
741.253	0.0144379
741.331	0.0144263
741.410	0.0143878
741.488	0.0144821
741.566	0.0144549
741.644	0.0144123
741.722	0.0144276
741.800	0.0145059
741.878	0.0145690
741.956	0.0146178
742.035	0.0144455
742.113	0.0145406
742.191	0.0142917
742.269	0.0142369
742.347	0.0142832
742.425	0.0143457
742.503	0.0143857
742.581	0.0143252
742.660	0.0145488
742.738	0.0144288
742.816	0.0145068
742.894	0.0144601
742.972	0.0145937
743.050	0.0145363
743.128	0.0146699
743.206	0.0146188
743.285	0.0146814
743.363	0.0146015
743.441	0.0146987
743.519	0.0147601
743.597	0.0148978
743.675	0.0146538
743.753	0.0147073
743.831	0.0147376
743.910	0.0147489
743.988	0.0147998
744.066	0.0147873
744.144	0.0148963
744.222	0.0149629
744.300	0.0148465
744.378	0.0148203
744.456	0.0149212
744.535	0.0148765
744.613	0.0147104
744.691	0.0147198
744.769	0.0145573
744.847	0.0146799
744.925	0.0147043
745.003	0.0144306
745.081	0.0144818
745.160	0.0145720
745.238	0.0144842
745.316	0.0143739
745.394	0.0144741
745.472	0.0143449
745.550	0.0144547
745.628	0.0144562
745.706	0.0144997
745.785	0.0144025
745.863	0.0144471
745.941	0.0144999
746.019	0.0145334
746.097	0.0144974
746.175	0.0143857
746.253	0.0145636
746.331	0.0144199
746.410	0.0144484
746.488	0.0144736
746.566	0.0145624
746.644	0.0144950
746.722	0.0144431
746.800	0.0143938
746.878	0.0145617
746.956	0.0144434
747.035	0.0143398
747.113	0.0145255
747.191	0.0144816
747.269	0.0144483
747.347	0.0146161
747.425	0.0144777
747.503	0.0143617
747.581	0.0143815
747.660	0.0144247
747.738	0.0144114
747.816	0.0144572
747.894	0.0144766
747.972	0.0143913
748.050	0.0143134
748.128	0.0144792
748.206	0.0142765
748.285	0.0144066
748.363	0.0144399
748.441	0.0144713
748.519	0.0145067
748.597	0.0144000
748.675	0.0145948
748.753	0.0145486
748.831	0.0143739
748.910	0.0143517
748.988	0.0144097
749.066	0.0143497
749.144	0.0142673
749.222	0.0142365
749.300	0.0144302
749.378	0.0142998
749.456	0.0142964
749.535	0.0142981
749.613	0.0144579
749.691	0.0142767
749.769	0.0144910
749.847	0.0144966
749.925	0.0145738
750.003	0.0147115
750.081	0.0146352
750.160	0.0147963
750.238	0.0147606
750.316	0.0147516
750.394	0.0148325
750.472	0.0150420
750.550	0.0149847
750.628	0.0148383
750.706	0.0148229
750.785	0.0150011
750.863	0.0148998
750.941	0.0150021
751.019	0.0148899
751.097	0.0147932
751.175	0.0150108
751.253	0.0149275
751.331	0.0147977
751.410	0.0148502
751.488	0.0148576
751.566	0.0148962
751.644	0.0148479
751.722	0.0145555
751.800	0.0147382
751.878	0.0146596
751.956	0.0146678
752.035	0.0146566
752.113	0.0144955
752.191	0.0146915
752.269	0.0147311
752.347	0.0144862
752.425	0.0144938
752.503	0.0144264
752.581	0.0146292
752.660	0.0146293
752.738	0.0144961
752.816	0.0145122
752.894	0.0145258
752.972	0.0145342
753.050	0.0145697
753.128	0.0146794
753.206	0.0144467
753.285	0.0144951
753.363	0.0147236
753.441	0.0147147
753.519	0.0146993
753.597	0.0146078
753.675	0.0145413
753.753	0.0145082
753.831	0.0146064
753.910	0.0146412
753.988	0.0146604
754.066	0.0145888
754.144	0.0145484
754.222	0.0146931
754.300	0.0145850
754.378	0.0146332
754.456	0.0146429
754.535	0.0144258
754.613	0.0144785
754.691	0.0146226
754.769	0.0144867
754.847	0.0144504
754.925	0.0145793
755.003	0.0146741
755.081	0.0146440
755.160	0.0146484
755.238	0.0145302
755.316	0.0147999
755.394	0.0146107
755.472	0.0145820
755.550	0.0145173
755.628	0.0144342
755.706	0.0145251
755.785	0.0143847
755.863	0.0145133
755.941	0.0144435
756.019	0.0143713
756.097	0.0145589
756.175	0.0145438
756.253	0.0144438
756.331	0.0145055
756.410	0.0145420
756.488	0.0144911
756.566	0.0146413
756.644	0.0146804
756.722	0.0146133
756.800	0.0146748
756.878	0.0147108
756.956	0.0148615
757.035	0.0147619
757.113	0.0147829
757.191	0.0147599
757.269	0.0148349
757.347	0.0148372
757.425	0.0149945
757.503	0.0149050
757.581	0.0150465
757.660	0.0149998
757.738	0.0149870
757.816	0.0148584
757.894	0.0149339
757.972	0.0150053
758.050	0.0149715
758.128	0.0150390
758.206	0.0150051
758.285	0.0149578
758.363	0.0147675
758.441	0.0148779
758.519	0.0148943
758.597	0.0147353
758.675	0.0147906
758.753	0.0147380
758.831	0.0146972
758.910	0.0147478
758.988	0.0146339
759.066	0.0146611
759.144	0.0145780
759.222	0.0144653
759.300	0.0146368
759.378	0.0145468
759.456	0.0143973
759.535	0.0144994
759.613	0.0145742
759.691	0.0144428
759.769	0.0144381
759.847	0.0145543
759.925	0.0144421
760.003	0.0144205
760.081	0.0145457
760.160	0.0146062
760.238	0.0146293
760.316	0.0145686
760.394	0.0145667
760.472	0.0146637
760.550	0.0144376
760.628	0.0144322
760.706	0.0145911
760.785	0.0144234
760.863	0.0144756
760.941	0.0145429
761.019	0.0144505
761.097	0.0144668
761.175	0.0144112
761.253	0.0144881
761.331	0.0144872
761.410	0.0144339
761.488	0.0145379
761.566	0.0143732
761.644	0.0145404
761.722	0.0145702
761.800	0.0144858
761.878	0.0146270
761.956	0.0146107
762.035	0.0144523
762.113	0.0144061
762.191	0.0144495
762.269	0.0145403
762.347	0.0144757
762.425	0.0143109
762.503	0.0145089
762.581	0.0144534
762.660	0.0144114
762.738	0.0142063
762.816	0.0145760
762.894	0.0144061
762.972	0.0143661
763.050	0.0143098
763.128	0.0143697
763.206	0.0144770
763.285	0.0145304
763.363	0.0144598
763.441	0.0145718
763.519	0.0145682
763.597	0.0143996
763.675	0.0144933
763.753	0.0144392
763.831	0.0145563
763.910	0.0145828
763.988	0.0145847
764.066	0.0146432
764.144	0.0147672
764.222	0.0146518
764.300	0.0147621
764.378	0.0148445
764.456	0.0148232
764.535	0.0148154
764.613	0.0149226
764.691	0.0148750
764.769	0.0150057
764.847	0.0149014
764.925	0.0149220
765.003	0.0149592
765.081	0.0149205
765.160	0.0147392
765.238	0.0148106
765.316	0.0148505
765.394	0.0147371
765.472	0.0148589
765.550	0.0147775
765.628	0.0147802
765.706	0.0148289
765.785	0.0145709
765.863	0.0145756
765.941	0.0145187
766.019	0.0144572
766.097	0.0146588
766.175	0.0144413
766.253	0.0142322
766.331	0.0143394
766.410	0.0144878
766.488	0.0143509
766.566	0.0141656
766.644	0.0142702
766.722	0.0142545
766.800	0.0142387
766.878	0.0143101
766.956	0.0143918
767.035	0.0140933
767.113	0.0141616
767.191	0.0142972
767.269	0.0143195
767.347	0.0143066
767.425	0.0142244
767.503	0.0142678
767.581	0.0142805
767.660	0.0143164
767.738	0.0144250
767.816	0.0143594
767.894	0.0144638
767.972	0.0143828
768.050	0.0141606
768.128	0.0142284
768.206	0.0143233
768.285	0.0144959
768.363	0.0142070
768.441	0.0141628
768.519	0.0143618
768.597	0.0143723
768.675	0.0143542
768.753	0.0144328
768.831	0.0143371
768.910	0.0144605
768.988	0.0143947
769.066	0.0143898
769.144	0.0143845
769.222	0.0145729
769.300	0.0143314
769.378	0.0144434
769.456	0.0144445
769.535	0.0143344
769.613	0.0142989
769.691	0.0143365
769.769	0.0144092
769.847	0.0145988
769.925	0.0144495
770.003	0.0142384
770.081	0.0144011
770.160	0.0143544
770.238	0.0144692
770.316	0.0144953
770.394	0.0144481
770.472	0.0145126
770.550	0.0144735
770.628	0.0146037
770.706	0.0146943
770.785	0.0143991
770.863	0.0147006
770.941	0.0146824
771.019	0.0145816
771.097	0.0145396
771.175	0.0148756
771.253	0.0148747
771.331	0.0146519
771.410	0.0148074
771.488	0.0149385
771.566	0.0149154
771.644	0.0149349
771.722	0.0149259
771.800	0.0148986
771.878	0.0149708
771.956	0.0149218
772.035	0.0150043
772.113	0.0148510
772.191	0.0149237
772.269	0.0149451
772.347	0.0147472
772.425	0.0147372
772.503	0.0147740
772.581	0.0148370
772.660	0.0146877
772.738	0.0147874
772.816	0.0146856
772.894	0.0145909
772.972	0.0146806
773.050	0.0146175
773.128	0.0145633
773.206	0.0145997
773.285	0.0146012
773.363	0.0144235
773.441	0.0144852
773.519	0.0144627
773.597	0.0143670
773.675	0.0144733
773.753	0.0142709
773.831	0.0143444
773.910	0.0145022
773.988	0.0143963
774.066	0.0144113
774.144	0.0144595
774.222	0.0145621
774.300	0.0143395
774.378	0.0145142
774.456	0.0144891
774.535	0.0143716
774.613	0.0144498
774.691	0.0142816
774.769	0.0142690
774.847	0.0144846
774.925	0.0145090
775.003	0.0143076
775.081	0.0141647
775.160	0.0144541
775.238	0.0145181
775.316	0.0144482
775.394	0.0144215
775.472	0.0144348
775.550	0.0144653
775.628	0.0144701
775.706	0.0144785
775.785	0.0144197
775.863	0.0145289
775.941	0.0146069
776.019	0.0146146
776.097	0.0144941
776.175	0.0145262
776.253	0.0144545
776.331	0.0144325
776.410	0.0145969
776.488	0.0144987
776.566	0.0145171
776.644	0.0144524
776.722	0.0144837
776.800	0.0144584
776.878	0.0144906
776.956	0.0144498
777.035	0.0144763
777.113	0.0144511
777.191	0.0144264
777.269	0.0145208
777.347	0.0145427
777.425	0.0144388
777.503	0.0144558
777.581	0.0146745
777.660	0.0147103
777.738	0.0147992
777.816	0.0148647
777.894	0.0147988
777.972	0.0147106
778.050	0.0147778
778.128	0.0148804
778.206	0.0150791
778.285	0.0149023
778.363	0.0148093
778.441	0.0149934
778.519	0.0149745
778.597	0.0151717
778.675	0.0149953
778.753	0.0150204
778.831	0.0150742
778.910	0.0151151
778.988	0.0150056
779.066	0.0149698
779.144	0.0150200
779.222	0.0149513
779.300	0.0149708
779.378	0.0149631
779.456	0.0148726
779.535	0.0149069
779.613	0.0148824
779.691	0.0150048
779.769	0.0148947
779.847	0.0148083
779.925	0.0147373
780.003	0.0148898
780.081	0.0146751
780.160	0.0147295
780.238	0.0146077
780.316	0.0144606
780.394	0.0145712
780.472	0.0145455
780.550	0.0146596
780.628	0.0145740
780.706	0.0143774
780.785	0.0144061
780.863	0.0145681
780.941	0.0144384
781.019	0.0143233
781.097	0.0144227
781.175	0.0145625
781.253	0.0143118
781.331	0.0143751
781.410	0.0145845
781.488	0.0144408
781.566	0.0143821
781.644	0.0144935
781.722	0.0144081
781.800	0.0144421
781.878	0.0145293
781.956	0.0145028
782.035	0.0144948
782.113	0.0143992
782.191	0.0144076
782.269	0.0143864
782.347	0.0143833
782.425	0.0144639
782.503	0.0144724
782.581	0.0145174
782.660	0.0144675
782.738	0.0145387
782.816	0.0144912
782.894	0.0144598
782.972	0.0146732
783.050	0.0145724
783.128	0.0144769
783.206	0.0144980
783.285	0.0145062
783.363	0.0145564
783.441	0.0144131
783.519	0.0143974
783.597	0.0145567
783.675	0.0144552
783.753	0.0143494
783.831	0.0144624
783.910	0.0143169
783.988	0.0145182
784.066	0.0144151
784.144	0.0142890
784.222	0.0143928
784.300	0.0143963
784.378	0.0144135
784.456	0.0144301
784.535	0.0146262
784.613	0.0145255
784.691	0.0144430
784.769	0.0146421
784.847	0.0146822
784.925	0.0146127
785.003	0.0146048
785.081	0.0148700
785.160	0.0146342
785.238	0.0146976
785.316	0.0147237
785.394	0.0148405
785.472	0.0147688
785.550	0.0147733
785.628	0.0148354
785.706	0.0148232
785.785	0.0148644
785.863	0.0149186
785.941	0.0147842
786.019	0.0147859
786.097	0.0149265
786.175	0.0147738
786.253	0.0147716
786.331	0.0147422
786.410	0.0146780
786.488	0.0147485
786.566	0.0147479
786.644	0.0146593
786.722	0.0145428
786.800	0.0145501
786.878	0.0145012
786.956	0.0144744
787.035	0.0145439
787.113	0.0146529
787.191	0.0144128
787.269	0.0145509
787.347	0.0146199
787.425	0.0145488
787.503	0.0142916
787.581	0.0144371
787.660	0.0145628
787.738	0.0143442
787.816	0.0143981
787.894	0.0144215
787.972	0.0142879
788.050	0.0143562
788.128	0.0143253
788.206	0.0143655
788.285	0.0143592
788.363	0.0143822
788.441	0.0142554
788.519	0.0142503
788.597	0.0142279
788.675	0.0144044
788.753	0.0144094
788.831	0.0143568
788.910	0.0143574
788.988	0.0143338
789.066	0.0144299
789.144	0.0143240
789.222	0.0143191
789.300	0.0143096
789.378	0.0143225
789.456	0.0144410
789.535	0.0142947
789.613	0.0143987
789.691	0.0143908
789.769	0.0144015
789.847	0.0143858
789.925	0.0143780
790.003	0.0142640
790.081	0.0143255
790.160	0.0142247
790.238	0.0143205
790.316	0.0143561
790.394	0.0143032
790.472	0.0142110
790.550	0.0141467
790.628	0.0141457
790.706	0.0142373
790.785	0.0142186
790.863	0.0142764
790.941	0.0142969
791.019	0.0142983
791.097	0.0141995
791.175	0.0143446
791.253	0.0143923
791.331	0.0143300
791.410	0.0145297
791.488	0.0143957
791.566	0.0142277
791.644	0.0143604
791.722	0.0145997
791.800	0.0145868
791.878	0.0145905
791.956	0.0145332
792.035	0.0145700
792.113	0.0145662
792.191	0.0146651
792.269	0.0147714
792.347	0.0147625
792.425	0.0147092
792.503	0.0147395
792.581	0.0147756
792.660	0.0148122
792.738	0.0148640
792.816	0.0146927
792.894	0.0147132
792.972	0.0147177
793.050	0.0147182
793.128	0.0146990
793.206	0.0147339
793.285	0.0146609
793.363	0.0146742
793.441	0.0146397
793.519	0.0145790
793.597	0.0146432
793.675	0.0146838
793.753	0.0147413
793.831	0.0146459
793.910	0.0147466
793.988	0.0146211
794.066	0.0146147
794.144	0.0147411
794.222	0.0145806
794.300	0.0145420
794.378	0.0146214
794.456	0.0145057
794.535	0.0145948
794.613	0.0146095
794.691	0.0144983
794.769	0.0143526
794.847	0.0144272
794.925	0.0145016
795.003	0.0142994
795.081	0.0143771
795.160	0.0142912
795.238	0.0143577
795.316	0.0143539
795.394	0.0143385
795.472	0.0145223
795.550	0.0142858
795.628	0.0143541
795.706	0.0144467
795.785	0.0144077
795.863	0.0143607
795.941	0.0145309
796.019	0.0144638
796.097	0.0144482
796.175	0.0144382
796.253	0.0144533
796.331	0.0144453
796.410	0.0144745
796.488	0.0143884
796.566	0.0144310
796.644	0.0145367
796.722	0.0145720
796.800	0.0145136
796.878	0.0146383
796.956	0.0146286
797.035	0.0146431
797.113	0.0145414
797.191	0.0145365
797.269	0.0146746
797.347	0.0144153
797.425	0.0144738
797.503	0.0145155
797.581	0.0143769
797.660	0.0143263
797.738	0.0143745
797.816	0.0145094
797.894	0.0143581
797.972	0.0145106
798.050	0.0144736
798.128	0.0144535
798.206	0.0144895
798.285	0.0146229
798.363	0.0145547
798.441	0.0146281
798.519	0.0145878
798.597	0.0145906
798.675	0.0146363
798.753	0.0145485
798.831	0.0145931
798.910	0.0147953
798.988	0.0148279
799.066	0.0147690
799.144	0.0148164
799.222	0.0149308
799.300	0.0147521
799.378	0.0149236
799.456	0.0148872
799.535	0.0149406
799.613	0.0148512
799.691	0.0149789
799.769	0.0148850
799.847	0.0149299
799.925	0.0149038
800.003	0.0149475
800.081	0.0148094
800.160	0.0147899
800.238	0.0148569
800.316	0.0148474
800.394	0.0147201
800.472	0.0145985
800.550	0.0147135
800.628	0.0146882
800.706	0.0146863
800.785	0.0145982
800.863	0.0146497
800.941	0.0147593
801.019	0.0145313
801.097	0.0145690
801.175	0.0146165
801.253	0.0146114
801.331	0.0146698
801.410	0.0145155
801.488	0.0143751
801.566	0.0145779
801.644	0.0146003
801.722	0.0145471
801.800	0.0144256
801.878	0.0144840
801.956	0.0144207
802.035	0.0145024
802.113	0.0144715
802.191	0.0143555
802.269	0.0143215
802.347	0.0145521
802.425	0.0143193
802.503	0.0144450
802.581	0.0144867
802.660	0.0144450
802.738	0.0142365
802.816	0.0143631
802.894	0.0143915
802.972	0.0143655
803.050	0.0142671
803.128	0.0143782
803.206	0.0142777
803.285	0.0142702
803.363	0.0144974
803.441	0.0145580
803.519	0.0145152
803.597	0.0145528
803.675	0.0145762
803.753	0.0145918
803.831	0.0145693
803.910	0.0145637
803.988	0.0145464
804.066	0.0146324
804.144	0.0146866
804.222	0.0146559
804.300	0.0145755
804.378	0.0144573
804.456	0.0145432
804.535	0.0145499
804.613	0.0145069
804.691	0.0144574
804.769	0.0144182
804.847	0.0144582
804.925	0.0145895
805.003	0.0145916
805.081	0.0145887
805.160	0.0145522
805.238	0.0145735
805.316	0.0146375
805.394	0.0145559
805.472	0.0145816
805.550	0.0148478
805.628	0.0149151
805.706	0.0147650
805.785	0.0147749
805.863	0.0146881
805.941	0.0146283
806.019	0.0148579
806.097	0.0148822
806.175	0.0149854
806.253	0.0151004
806.331	0.0150034
806.410	0.0150195
806.488	0.0149906
806.566	0.0150665
806.644	0.0149676
806.722	0.0151409
806.800	0.0149171
806.878	0.0149537
806.956	0.0150541
807.035	0.0149487
807.113	0.0149065
807.191	0.0149007
807.269	0.0148090
807.347	0.0147541
807.425	0.0148010
807.503	0.0147390
807.581	0.0147880
807.660	0.0147510
807.738	0.0148063
807.816	0.0146968
807.894	0.0147230
807.972	0.0146557
808.050	0.0145670
808.128	0.0145573
808.206	0.0145536
808.285	0.0145687
808.363	0.0146980
808.441	0.0146077
808.519	0.0145606
808.597	0.0145012
808.675	0.0145744
808.753	0.0147550
808.831	0.0145322
808.910	0.0144260
808.988	0.0144877
809.066	0.0145316
809.144	0.0142866
809.222	0.0143798
809.300	0.0145049
809.378	0.0145158
809.456	0.0144827
809.535	0.0145331
809.613	0.0143749
809.691	0.0144314
809.769	0.0143181
809.847	0.0143011
809.925	0.0144347
810.003	0.0142748
810.081	0.0141554
810.160	0.0144245
810.238	0.0144784
810.316	0.0143418
810.394	0.0144054
810.472	0.0142606
810.550	0.0144701
810.628	0.0143760
810.706	0.0145148
810.785	0.0143495
810.863	0.0144366
810.941	0.0145155
811.019	0.0144174
811.097	0.0143943
811.175	0.0143375
811.253	0.0144745
811.331	0.0144095
811.410	0.0145172
811.488	0.0144563
811.566	0.0142560
811.644	0.0143376
811.722	0.0144007
811.800	0.0145265
811.878	0.0142895
811.956	0.0143320
812.035	0.0143476
812.113	0.0144563
812.191	0.0144186
812.269	0.0145029
812.347	0.0144462
812.425	0.0145708
812.503	0.0145004
812.581	0.0145415
812.660	0.0146183
812.738	0.0146661
812.816	0.0147295
812.894	0.0147113
812.972	0.0147093
813.050	0.0146581
813.128	0.0147948
813.206	0.0149265
813.285	0.0148952
813.363	0.0149331
813.441	0.0148338
813.519	0.0149481
813.597	0.0148417
813.675	0.0149447
813.753	0.0150021
813.831	0.0149667
813.910	0.0149519
813.988	0.0148183
814.066	0.0148959
814.144	0.0147807
814.222	0.0149066
814.300	0.0148417
814.378	0.0146923
814.456	0.0147602
814.535	0.0147620
814.613	0.0145733
814.691	0.0145926
814.769	0.0147470
814.847	0.0146584
814.925	0.0146123
815.003	0.0144489
815.081	0.0144753
815.160	0.0145856
815.238	0.0145669
815.316	0.0144167
815.394	0.0145087
815.472	0.0144381
815.550	0.0144212
815.628	0.0142442
815.706	0.0144061
815.785	0.0143351
815.863	0.0142763
815.941	0.0142229
816.019	0.0141974
816.097	0.0142107
816.175	0.0143386
816.253	0.0142324
816.331	0.0142648
816.410	0.0143995
816.488	0.0143052
816.566	0.0143082
816.644	0.0143438
816.722	0.0143502
816.800	0.0141690
816.878	0.0142766
816.956	0.0143128
817.035	0.0142173
817.113	0.0142634
817.191	0.0142996
817.269	0.0142378
817.347	0.0143717
817.425	0.0143544
817.503	0.0142519
817.581	0.0142703
817.660	0.0143243
817.738	0.0143589
817.816	0.0143523
817.894	0.0143663
817.972	0.0143571
818.050	0.0144057
818.128	0.0143689
818.206	0.0143840
818.285	0.0142968
818.363	0.0144575
818.441	0.0143629
818.519	0.0144304
818.597	0.0143256
818.675	0.0142523
818.753	0.0143218
818.831	0.0143632
818.910	0.0144555
818.988	0.0143008
819.066	0.0143701
819.144	0.0143605
819.222	0.0142406
819.300	0.0141494
819.378	0.0143818
819.456	0.0144201
819.535	0.0144741
819.613	0.0144955
819.691	0.0143515
819.769	0.0143173
819.847	0.0144397
819.925	0.0146157
820.003	0.0145407
820.081	0.0146011
820.160	0.0145770
820.238	0.0145570
820.316	0.0146427
820.394	0.0146649
820.472	0.0146943
820.550	0.0147965
820.628	0.0146980
820.706	0.0149479
820.785	0.0148470
820.863	0.0148743
820.941	0.0148602
821.019	0.0148915
821.097	0.0148183
821.175	0.0148859
821.253	0.0146819
821.331	0.0145235
821.410	0.0148040
821.488	0.0147724
821.566	0.0146159
821.644	0.0145670
821.722	0.0145504
821.800	0.0146250
821.878	0.0144637
821.956	0.0144016
822.035	0.0144037
822.113	0.0144653
822.191	0.0144150
822.269	0.0143896
822.347	0.0144701
822.425	0.0144473
822.503	0.0144734
822.581	0.0143096
822.660	0.0143816
822.738	0.0143247
822.816	0.0143790
822.894	0.0143155
822.972	0.0143932
823.050	0.0144307
823.128	0.0143494
823.206	0.0144950
823.285	0.0144865
823.363	0.0143462
823.441	0.0144723
823.519	0.0145298
823.597	0.0145482
823.675	0.0145236
823.753	0.0144833
823.831	0.0144199
823.910	0.0143827
823.988	0.0145720
824.066	0.0144823
824.144	0.0144852
824.222	0.0144231
824.300	0.0145696
824.378	0.0145956
824.456	0.0145088
824.535	0.0143973
824.613	0.0145391
824.691	0.0145982
824.769	0.0146027
824.847	0.0145089
824.925	0.0145024
825.003	0.0146544
825.081	0.0146928
825.160	0.0144703
825.238	0.0145810
825.316	0.0145200
825.394	0.0145864
825.472	0.0145670
825.550	0.0146166
825.628	0.0145366
825.706	0.0147254
825.785	0.0146122
825.863	0.0144738
825.941	0.0145631
826.019	0.0144579
826.097	0.0145217
826.175	0.0144881
826.253	0.0145899
826.331	0.0147410
826.410	0.0146085
826.488	0.0146352
826.566	0.0146445
826.644	0.0147269
826.722	0.0147507
826.800	0.0147755
826.878	0.0148006
826.956	0.0148905
827.035	0.0147286
827.113	0.0148663
827.191	0.0147987
827.269	0.0149526
827.347	0.0149316
827.425	0.0148969
827.503	0.0148627
827.581	0.0150216
827.660	0.0149713
827.738	0.0149341
827.816	0.0149615
827.894	0.0150121
827.972	0.0148862
828.050	0.0150457
828.128	0.0149750
828.206	0.0148277
828.285	0.0148526
828.363	0.0148286
828.441	0.0147080
828.519	0.0146172
828.597	0.0149029
828.675	0.0148450
828.753	0.0147536
828.831	0.0145219
828.910	0.0146465
828.988	0.0145580
829.066	0.0145911
829.144	0.0146762
829.222	0.0145129
829.300	0.0145029
829.378	0.0144122
829.456	0.0146228
829.535	0.0146134
829.613	0.0144947
829.691	0.0144552
829.769	0.0144180
829.847	0.0144221
829.925	0.0145312
830.003	0.0144918
830.081	0.0143653
830.160	0.0144660
830.238	0.0144959
830.316	0.0144396
830.394	0.0145008
830.472	0.0145330
830.550	0.0144856
830.628	0.0145465
830.706	0.0145185
830.785	0.0144480
830.863	0.0144824
830.941	0.0146445
831.019	0.0146284
831.097	0.0145691
831.175	0.0144424
831.253	0.0146152
831.331	0.0144192
831.410	0.0144033
831.488	0.0145382
831.566	0.0143058
831.644	0.0145724
831.722	0.0145895
831.800	0.0146260
831.878	0.0145688
831.956	0.0146562
832.035	0.0145233
832.113	0.0147131
832.191	0.0147701
832.269	0.0146828
832.347	0.0145845
832.425	0.0147962
832.503	0.0146804
832.581	0.0146479
832.660	0.0146358
832.738	0.0146777
832.816	0.0145550
832.894	0.0145880
832.972	0.0146127
833.050	0.0146394
833.128	0.0145353
833.206	0.0146152
833.285	0.0145443
833.363	0.0145266
833.441	0.0146282
833.519	0.0145578
833.597	0.0145476
833.675	0.0146639
833.753	0.0147897
833.831	0.0146558
833.910	0.0146655
833.988	0.0148136
834.066	0.0146619
834.144	0.0147035
834.222	0.0150060
834.300	0.0147607
834.378	0.0147507
834.456	0.0148132
834.535	0.0147871
834.613	0.0147808
834.691	0.0147984
834.769	0.0149145
834.847	0.0150468
834.925	0.0149361
835.003	0.0149125
835.081	0.0149660
835.160	0.0149242
835.238	0.0147829
835.316	0.0148203
835.394	0.0147131
835.472	0.0148396
835.550	0.0146579
835.628	0.0146987
835.706	0.0147847
835.785	0.0146106
835.863	0.0144885
835.941	0.0144695
836.019	0.0144893
836.097	0.0144948
836.175	0.0144512
836.253	0.0145639
836.331	0.0145348
836.410	0.0144789
836.488	0.0145589
836.566	0.0144667
836.644	0.0143186
836.722	0.0143979
836.800	0.0143552
836.878	0.0144810
836.956	0.0144317
837.035	0.0144042
837.113	0.0143240
837.191	0.0143143
837.269	0.0143704
837.347	0.0144290
837.425	0.0145309
837.503	0.0144128
837.581	0.0143946
837.660	0.0143982
837.738	0.0143311
837.816	0.0143166
837.894	0.0144813
837.972	0.0145743
838.050	0.0144357
838.128	0.0143866
838.206	0.0143901
838.285	0.0143784
838.363	0.0144670
838.441	0.0144764
838.519	0.0144302
838.597	0.0144298
838.675	0.0144221
838.753	0.0144107
838.831	0.0144683
838.910	0.0145101
838.988	0.0145322
839.066	0.0146249
839.144	0.0146230
839.222	0.0144880
839.300	0.0144776
839.378	0.0145174
839.456	0.0146148
839.535	0.0145107
839.613	0.0144109
839.691	0.0144623
839.769	0.0145625
839.847	0.0145976
839.925	0.0144167
840.003	0.0144118
840.081	0.0143414
840.160	0.0143814
840.238	0.0144650
840.316	0.0144218
840.394	0.0144763
840.472	0.0144644
840.550	0.0145116
840.628	0.0144115
840.706	0.0143745
840.785	0.0144031
840.863	0.0144610
840.941	0.0146033
841.019	0.0144895
841.097	0.0144386
841.175	0.0145868
841.253	0.0145689
841.331	0.0145736
841.410	0.0146324
841.488	0.0145372
841.566	0.0147327
841.644	0.0147178
841.722	0.0146255
841.800	0.0145903
841.878	0.0147533
841.956	0.0146922
842.035	0.0148828
842.113	0.0146964
842.191	0.0146806
842.269	0.0148737
842.347	0.0146725
842.425	0.0147102
842.503	0.0147076
842.581	0.0146758
842.660	0.0145437
842.738	0.0146047
842.816	0.0145882
842.894	0.0146626
842.972	0.0145622
843.050	0.0145201
843.128	0.0144921
843.206	0.0144775
843.285	0.0145510
843.363	0.0145740
843.441	0.0144930
843.519	0.0144817
843.597	0.0145349
843.675	0.0145416
843.753	0.0146580
843.831	0.0145014
843.910	0.0144595
843.988	0.0144093
844.066	0.0145016
844.144	0.0144464
844.222	0.0144538
844.300	0.0146016
844.378	0.0143709
844.456	0.0144047
844.535	0.0144727
844.613	0.0144760
844.691	0.0144261
844.769	0.0144647
844.847	0.0145409
844.925	0.0146013
845.003	0.0145300
845.081	0.0144728
845.160	0.0144974
845.238	0.0145883
845.316	0.0144945
845.394	0.0144686
845.472	0.0145410
845.550	0.0145348
845.628	0.0146642
845.706	0.0146278
845.785	0.0144402
845.863	0.0144444
845.941	0.0145898
846.019	0.0146250
846.097	0.0144443
846.175	0.0145226
846.253	0.0145171
846.331	0.0147192
846.410	0.0145601
846.488	0.0145625
846.566	0.0146944
846.644	0.0145998
846.722	0.0145947
846.800	0.0147566
846.878	0.0144987
846.956	0.0146053
847.035	0.0145796
847.113	0.0144149
847.191	0.0144589
847.269	0.0144944
847.347	0.0143649
847.425	0.0144324
847.503	0.0143782
847.581	0.0143700
847.660	0.0144518
847.738	0.0141987
847.816	0.0145003
847.894	0.0145003
847.972	0.0144087
848.050	0.0143725
848.128	0.0143946
848.206	0.0143935
848.285	0.0145337
848.363	0.0144069
848.441	0.0143468
848.519	0.0146233
848.597	0.0145261
848.675	0.0145335
848.753	0.0146558
848.831	0.0145436
848.910	0.0146635
848.988	0.0146394
849.066	0.0147340
849.144	0.0148080
849.222	0.0146148
849.300	0.0145774
849.378	0.0146731
849.456	0.0147420
849.535	0.0148251
849.613	0.0146994
849.691	0.0146851
849.769	0.0147374
849.847	0.0145144
849.925	0.0146808
850.003	0.0147247
850.081	0.0146004
850.160	0.0144758
850.238	0.0145721
850.316	0.0145230
850.394	0.0145310
850.472	0.0145757
850.550	0.0145270
850.628	0.0145775
850.706	0.0145872
850.785	0.0144035
850.863	0.0144398
850.941	0.0144346
851.019	0.0145518
851.097	0.0144473
851.175	0.0144676
851.253	0.0144920
851.331	0.0145258
851.410	0.0145186
851.488	0.0145576
851.566	0.0145203
851.644	0.0146171
851.722	0.0145699
851.800	0.0145702
851.878	0.0145621
851.956	0.0144878
852.035	0.0143898
852.113	0.0144276
852.191	0.0145361
852.269	0.0146938
852.347	0.0145116
852.425	0.0145222
852.503	0.0146351
852.581	0.0146786
852.660	0.0144437
852.738	0.0146118
852.816	0.0146109
852.894	0.0145423
852.972	0.0145435
853.050	0.0146076
853.128	0.0146033
853.206	0.0146337
853.285	0.0147153
853.363	0.0146391
853.441	0.0145956
853.519	0.0145681
853.597	0.0147829
853.675	0.0148140
853.753	0.0145417
853.831	0.0146460
853.910	0.0145993
853.988	0.0146600
854.066	0.0145689
854.144	0.0145775
854.222	0.0145468
854.300	0.0144686
854.378	0.0144466
854.456	0.0144492
854.535	0.0144846
854.613	0.0144290
854.691	0.0144755
854.769	0.0145937
854.847	0.0144595
854.925	0.0145289
855.003	0.0145473
855.081	0.0144917
855.160	0.0145463
855.238	0.0146120
855.316	0.0145667
855.394	0.0146188
855.472	0.0144810
855.550	0.0148627
855.628	0.0146739
855.706	0.0147022
855.785	0.0147504
855.863	0.0148946
855.941	0.0148814
856.019	0.0148091
856.097	0.0149448
856.175	0.0148520
856.253	0.0150087
856.331	0.0150262
856.410	0.0149491
856.488	0.0148894
856.566	0.0149434
856.644	0.0149348
856.722	0.0148359
856.800	0.0149775
856.878	0.0149339
856.956	0.0147208
857.035	0.0147458
857.113	0.0147323
857.191	0.0147594
857.269	0.0147630
857.347	0.0147285
857.425	0.0147712
857.503	0.0146554
857.581	0.0147095
857.660	0.0146684
857.738	0.0145322
857.816	0.0145756
857.894	0.0146209
857.972	0.0145251
858.050	0.0143656
858.128	0.0146283
858.206	0.0146696
858.285	0.0145872
858.363	0.0144262
858.441	0.0144917
858.519	0.0145177
858.597	0.0144946
858.675	0.0145262
858.753	0.0144279
858.831	0.0144917
858.910	0.0146051
858.988	0.0144124
859.066	0.0145547
859.144	0.0145754
859.222	0.0145868
859.300	0.0145016
859.378	0.0144357
859.456	0.0145872
859.535	0.0143513
859.613	0.0145039
859.691	0.0146035
859.769	0.0143569
859.847	0.0144650
859.925	0.0143781
860.003	0.0144200
860.081	0.0145062
860.160	0.0145307
860.238	0.0145372
860.316	0.0144189
860.394	0.0145356
860.472	0.0144838
860.550	0.0144712
860.628	0.0146645
860.706	0.0145800
860.785	0.0145587
860.863	0.0145625
860.941	0.0145299
861.019	0.0146518
861.097	0.0145962
861.175	0.0144431
861.253	0.0144710
861.331	0.0145763
861.410	0.0144761
861.488	0.0144445
861.566	0.0145200
861.644	0.0145784
861.722	0.0143626
861.800	0.0143600
861.878	0.0145096
861.956	0.0144807
862.035	0.0143243
862.113	0.0144640
862.191	0.0145714
862.269	0.0144074
862.347	0.0144998
862.425	0.0145431
862.503	0.0144926
862.581	0.0145192
862.660	0.0144461
862.738	0.0145747
862.816	0.0146701
862.894	0.0147689
862.972	0.0147095
863.050	0.0146636
863.128	0.0148563
863.206	0.0149190
863.285	0.0149644
863.363	0.0149132
863.441	0.0149304
863.519	0.0149718
863.597	0.0149664
863.675	0.0149220
863.753	0.0149762
863.831	0.0149455
863.910	0.0148870
863.988	0.0148464
864.066	0.0148019
864.144	0.0149129
864.222	0.0148359
864.300	0.0148192
864.378	0.0147201
864.456	0.0146731
864.535	0.0146552
864.613	0.0146262
864.691	0.0146464
864.769	0.0145321
864.847	0.0145879
864.925	0.0145336
865.003	0.0144746
865.081	0.0144037
865.160	0.0146413
865.238	0.0145647
865.316	0.0144058
865.394	0.0144283
865.472	0.0145074
865.550	0.0145043
865.628	0.0145338
865.706	0.0145432
865.785	0.0145396
865.863	0.0144936
865.941	0.0144276
866.019	0.0145186
866.097	0.0146371
866.175	0.0143019
866.253	0.0142634
866.331	0.0142921
866.410	0.0143664
866.488	0.0143660
866.566	0.0143487
866.644	0.0142637
866.722	0.0143725
866.800	0.0142700
866.878	0.0143905
866.956	0.0143005
867.035	0.0142007
867.113	0.0143415
867.191	0.0142838
867.269	0.0143446
867.347	0.0144369
867.425	0.0144024
867.503	0.0144240
867.581	0.0143661
867.660	0.0143551
867.738	0.0145052
867.816	0.0144717
867.894	0.0143882
867.972	0.0144627
868.050	0.0145964
868.128	0.0144709
868.206	0.0145829
868.285	0.0144323
868.363	0.0144288
868.441	0.0143801
868.519	0.0144771
868.597	0.0144052
868.675	0.0145404
868.753	0.0144125
868.831	0.0143944
868.910	0.0143024
868.988	0.0144183
869.066	0.0144363
869.144	0.0145034
869.222	0.0143877
869.300	0.0144643
869.378	0.0143491
869.456	0.0144616
869.535	0.0144161
869.613	0.0145067
869.691	0.0143716
869.769	0.0144301
869.847	0.0147300
869.925	0.0145948
870.003	0.0146227
870.081	0.0145670
870.160	0.0145436
870.238	0.0147196
870.316	0.0147962
870.394	0.0147945
870.472	0.0147033
870.550	0.0148277
870.628	0.0148386
870.706	0.0148471
870.785	0.0147136
870.863	0.0146764
870.941	0.0148056
871.019	0.0147076
871.097	0.0148157
871.175	0.0147971
871.253	0.0145801
871.331	0.0146745
871.410	0.0148472
871.488	0.0146204
871.566	0.0146035
871.644	0.0145802
871.722	0.0144604
871.800	0.0145654
871.878	0.0144653
871.956	0.0145919
872.035	0.0144838
872.113	0.0144738
872.191	0.0145664
872.269	0.0144377
872.347	0.0145303
872.425	0.0143833
872.503	0.0144105
872.581	0.0144223
872.660	0.0144650
872.738	0.0143969
872.816	0.0145112
872.894	0.0144909
872.972	0.0144732
873.050	0.0143162
873.128	0.0143867
873.206	0.0143861
873.285	0.0144247
873.363	0.0144791
873.441	0.0143491
873.519	0.0141785
873.597	0.0143050
873.675	0.0142314
873.753	0.0143927
873.831	0.0142901
873.910	0.0142895
873.988	0.0144234
874.066	0.0143671
874.144	0.0143334
874.222	0.0143631
874.300	0.0144225
874.378	0.0143826
874.456	0.0144296
874.535	0.0146063
874.613	0.0145762
874.691	0.0144820
874.769	0.0144230
874.847	0.0145353
874.925	0.0146837
875.003	0.0146662
875.081	0.0146215
875.160	0.0145821
875.238	0.0146449
875.316	0.0146829
875.394	0.0147923
875.472	0.0147201
875.550	0.0146496
875.628	0.0147033
875.706	0.0145161
875.785	0.0146106
875.863	0.0145790
875.941	0.0146882
876.019	0.0145662
876.097	0.0146006
876.175	0.0144733
876.253	0.0144344
876.331	0.0144648
876.410	0.0145444
876.488	0.0145534
876.566	0.0146149
876.644	0.0145866
876.722	0.0144430
876.800	0.0145251
876.878	0.0144503
876.956	0.0146863
877.035	0.0145960
877.113	0.0146473
877.191	0.0145836
877.269	0.0147880
877.347	0.0147169
877.425	0.0147400
877.503	0.0146857
877.581	0.0146960
877.660	0.0149634
877.738	0.0148442
877.816	0.0147170
877.894	0.0146254
877.972	0.0148222
878.050	0.0149400
878.128	0.0148296
878.206	0.0149318
878.285	0.0147858
878.363	0.0147992
878.441	0.0147614
878.519	0.0147907
878.597	0.0146693
878.675	0.0145862
878.753	0.0145679
878.831	0.0147073
878.910	0.0145673
878.988	0.0146812
879.066	0.0144805
879.144	0.0144819
879.222	0.0146072
879.300	0.0144709
879.378	0.0146562
879.456	0.0146022
879.535	0.0144818
879.613	0.0145560
879.691	0.0143816
879.769	0.0143950
879.847	0.0145641
879.925	0.0144891
880.003	0.0144457
880.081	0.0146259
880.160	0.0145514
880.238	0.0145528
880.316	0.0144597
880.394	0.0145018
880.472	0.0144689
880.550	0.0143350
880.628	0.0144074
880.706	0.0143289
880.785	0.0145280
880.863	0.0144608
880.941	0.0143626
881.019	0.0144866
881.097	0.0144347
881.175	0.0145609
881.253	0.0146030
881.331	0.0142899
881.410	0.0144415
881.488	0.0144549
881.566	0.0144537
881.644	0.0144245
881.722	0.0145135
881.800	0.0147430
881.878	0.0147208
881.956	0.0144794
882.035	0.0145747
882.113	0.0146504
882.191	0.0146024
882.269	0.0145830
882.347	0.0146835
882.425	0.0147215
882.503	0.0145963
882.581	0.0145741
882.660	0.0145953
882.738	0.0147287
882.816	0.0146014
882.894	0.0145827
882.972	0.0146269
883.050	0.0145133
883.128	0.0145615
883.206	0.0145809
883.285	0.0146312
883.363	0.0145451
883.441	0.0146041
883.519	0.0146776
883.597	0.0144622
883.675	0.0144372
883.753	0.0144263
883.831	0.0146365
883.910	0.0145993
883.988	0.0145708
884.066	0.0147025
884.144	0.0145651
884.222	0.0146971
884.300	0.0145922
884.378	0.0147620
884.456	0.0147444
884.535	0.0147337
884.613	0.0148920
884.691	0.0148454
884.769	0.0149416
884.847	0.0148483
884.925	0.0148309
885.003	0.0148994
885.081	0.0149678
885.160	0.0149706
885.238	0.0148087
885.316	0.0149902
885.394	0.0149342
885.472	0.0148811
885.550	0.0149440
885.628	0.0146790
885.706	0.0147667
885.785	0.0148818
885.863	0.0147870
885.941	0.0145191
886.019	0.0146315
886.097	0.0146252
886.175	0.0145965
886.253	0.0145924
886.331	0.0145697
886.410	0.0145676
886.488	0.0144753
886.566	0.0146461
886.644	0.0144973
886.722	0.0145522
886.800	0.0145376
886.878	0.0145572
886.956	0.0144297
887.035	0.0144301
887.113	0.0144717
887.191	0.0143842
887.269	0.0144905
887.347	0.0144459
887.425	0.0143842
887.503	0.0142720
887.581	0.0144217
887.660	0.0142587
887.738	0.0143098
887.816	0.0142999
887.894	0.0142271
887.972	0.0143124
888.050	0.0141548
888.128	0.0141599
888.206	0.0142483
888.285	0.0143427
888.363	0.0143346
888.441	0.0142780
888.519	0.0144183
888.597	0.0144168
888.675	0.0142958
888.753	0.0143307
888.831	0.0142252
888.910	0.0143613
888.988	0.0143935
889.066	0.0144521
889.144	0.0144573
889.222	0.0145049
889.300	0.0143758
889.378	0.0145301
889.456	0.0145564
889.535	0.0146338
889.613	0.0145888
889.691	0.0145945
889.769	0.0144582
889.847	0.0143251
889.925	0.0145921
890.003	0.0145895
890.081	0.0145663
890.160	0.0144760
890.238	0.0144978
890.316	0.0143858
890.394	0.0144118
890.472	0.0144080
890.550	0.0144869
890.628	0.0143717
890.706	0.0146162
890.785	0.0145607
890.863	0.0144006
890.941	0.0145116
891.019	0.0143733
891.097	0.0144864
891.175	0.0145345
891.253	0.0145864
891.331	0.0146672
891.410	0.0145483
891.488	0.0146880
891.566	0.0147437
891.644	0.0147439
891.722	0.0147075
891.800	0.0146158
891.878	0.0146519
891.956	0.0147296
892.035	0.0147791
892.113	0.0147121
892.191	0.0148937
892.269	0.0148215
892.347	0.0146980
892.425	0.0145899
892.503	0.0148411
892.581	0.0146555
892.660	0.0147694
892.738	0.0147424
892.816	0.0146107
892.894	0.0145705
892.972	0.0146192
893.050	0.0144542
893.128	0.0145171
893.206	0.0144929
893.285	0.0143967
893.363	0.0145554
893.441	0.0145432
893.519	0.0143937
893.597	0.0146651
893.675	0.0143082
893.753	0.0142804
893.831	0.0142428
893.910	0.0142757
893.988	0.0143528
894.066	0.0142756
894.144	0.0143590
894.222	0.0143218
894.300	0.0142065
894.378	0.0143523
894.456	0.0143543
894.535	0.0142122
894.613	0.0142843
894.691	0.0143168
894.769	0.0143810
894.847	0.0142625
894.925	0.0142754
895.003	0.0141705
895.081	0.0141541
895.160	0.0142338
895.238	0.0142907
895.316	0.0142176
895.394	0.0142441
895.472	0.0142121
895.550	0.0142932
895.628	0.0143343
895.706	0.0143593
895.785	0.0143743
895.863	0.0143257
895.941	0.0142289
896.019	0.0143993
896.097	0.0143043
896.175	0.0144526
896.253	0.0144691
896.331	0.0144484
896.410	0.0145765
896.488	0.0146897
896.566	0.0145029
896.644	0.0146231
896.722	0.0145788
896.800	0.0145180
896.878	0.0145706
896.956	0.0145629
897.035	0.0146281
897.113	0.0145990
897.191	0.0145803
897.269	0.0144649
897.347	0.0146029
897.425	0.0144676
897.503	0.0145673
897.581	0.0145139
897.660	0.0144798
897.738	0.0145490
897.816	0.0144831
897.894	0.0144857
897.972	0.0146248
898.050	0.0146010
898.128	0.0145238
898.206	0.0144247
898.285	0.0145509
898.363	0.0146832
898.441	0.0144971
898.519	0.0145133
898.597	0.0147837
898.675	0.0146233
898.753	0.0146674
898.831	0.0146426
898.910	0.0145887
898.988	0.0146928
899.066	0.0147202
899.144	0.0148624
899.222	0.0148681
899.300	0.0147929
899.378	0.0148060
899.456	0.0149668
899.535	0.0148895
899.613	0.0148344
899.691	0.0148038
899.769	0.0148280
899.847	0.0148171
899.925	0.0149045
900.003	0.0147676
900.081	0.0148035
900.160	0.0147232
900.238	0.0148315
900.316	0.0146977
900.394	0.0147053
900.472	0.0146182
900.550	0.0145235
900.628	0.0147141
900.706	0.0146899
900.785	0.0145486
900.863	0.0146067
900.941	0.0145513
901.019	0.0144850
901.097	0.0144411
901.175	0.0143945
901.253	0.0143864
901.331	0.0145317
901.410	0.0145726
901.488	0.0143672
901.566	0.0145403
901.644	0.0144301
901.722	0.0145001
901.800	0.0143685
901.878	0.0143489
901.956	0.0142430
902.035	0.0145316
902.113	0.0145364
902.191	0.0145733
902.269	0.0145296
902.347	0.0144526
902.425	0.0145014
902.503	0.0146160
902.581	0.0146307
902.660	0.0144744
902.738	0.0144613
902.816	0.0144000
902.894	0.0145200
902.972	0.0145087
903.050	0.0145593
903.128	0.0144881
903.206	0.0144235
903.285	0.0144794
903.363	0.0144923
903.441	0.0145023
903.519	0.0145676
903.597	0.0146235
903.675	0.0146208
903.753	0.0146148
903.831	0.0146126
903.910	0.0146233
903.988	0.0144537
904.066	0.0144304
904.144	0.0144787
904.222	0.0144218
904.300	0.0144276
904.378	0.0145203
904.456	0.0144989
904.535	0.0144267
904.613	0.0144142
904.691	0.0144995
904.769	0.0143708
904.847	0.0144279
904.925	0.0142751
905.003	0.0143375
905.081	0.0143922
905.160	0.0145177
905.238	0.0144717
905.316	0.0143858
905.394	0.0144671
905.472	0.0144597
905.550	0.0145677
905.628	0.0145351
905.706	0.0144647
905.785	0.0145729
905.863	0.0144481
905.941	0.0145681
906.019	0.0146149
906.097	0.0146372
906.175	0.0146614
906.253	0.0146139
906.331	0.0146909
906.410	0.0146880
906.488	0.0147331
906.566	0.0147071
906.644	0.0147260
906.722	0.0148835
906.800	0.0148310
906.878	0.0147314
906.956	0.0148516
907.035	0.0148782
907.113	0.0148215
907.191	0.0148857
907.269	0.0146497
907.347	0.0147253
907.425	0.0147245
907.503	0.0146770
907.581	0.0147219
907.660	0.0146340
907.738	0.0145856
907.816	0.0145337
907.894	0.0146198
907.972	0.0145496
908.050	0.0144743
908.128	0.0143555
908.206	0.0145360
908.285	0.0144442
908.363	0.0143730
908.441	0.0145256
908.519	0.0144245
908.597	0.0144264
908.675	0.0145193
908.753	0.0143197
908.831	0.0143768
908.910	0.0141864
908.988	0.0144756
909.066	0.0144053
909.144	0.0144525
909.222	0.0145287
909.300	0.0142960
909.378	0.0143433
909.456	0.0143324
909.535	0.0144788
909.613	0.0143544
909.691	0.0143327
909.769	0.0143900
909.847	0.0144192
909.925	0.0144868
910.003	0.0145621
910.081	0.0145017
910.160	0.0144215
910.238	0.0145301
910.316	0.0145629
910.394	0.0145701
910.472	0.0146720
910.550	0.0146736
910.628	0.0146004
910.706	0.0145941
910.785	0.0147065
910.863	0.0146195
910.941	0.0146713
911.019	0.0145752
911.097	0.0146142
911.175	0.0146236
911.253	0.0146775
911.331	0.0147518
911.410	0.0146645
911.488	0.0147211
911.566	0.0147227
911.644	0.0146934
911.722	0.0145998
911.800	0.0147607
911.878	0.0147007
911.956	0.0146365
912.035	0.0147007
912.113	0.0146348
912.191	0.0145703
912.269	0.0146519
912.347	0.0146290
912.425	0.0146257
912.503	0.0146288
912.581	0.0146294
912.660	0.0146391
912.738	0.0145400
912.816	0.0145572
912.894	0.0146208
912.972	0.0147783
913.050	0.0146204
913.128	0.0147118
913.206	0.0146567
913.285	0.0146246
913.363	0.0146504
913.441	0.0146440
913.519	0.0147338
913.597	0.0146605
913.675	0.0146575
913.753	0.0147995
913.831	0.0146509
913.910	0.0147394
913.988	0.0147499
914.066	0.0146935
914.144	0.0145432
914.222	0.0147552
914.300	0.0146390
914.378	0.0147774
914.456	0.0145722
914.535	0.0146657
914.613	0.0145708
914.691	0.0147164
914.769	0.0145082
914.847	0.0144925
914.925	0.0145544
915.003	0.0145601
915.081	0.0144543
915.160	0.0144353
915.238	0.0144418
915.316	0.0144729
915.394	0.0144920
915.472	0.0143845
915.550	0.0143583
915.628	0.0143243
915.706	0.0143431
915.785	0.0144674
915.863	0.0143481
915.941	0.0143928
916.019	0.0144646
916.097	0.0144046
916.175	0.0145324
916.253	0.0144897
916.331	0.0144209
916.410	0.0143241
916.488	0.0143885
916.566	0.0144556
916.644	0.0145675
916.722	0.0144889
916.800	0.0144833
916.878	0.0143662
916.956	0.0144930
917.035	0.0145314
917.113	0.0145293
917.191	0.0145719
917.269	0.0145553
917.347	0.0146176
917.425	0.0144919
917.503	0.0144748
917.581	0.0145063
917.660	0.0146904
917.738	0.0146745
917.816	0.0145885
917.894	0.0145558
917.972	0.0144903
918.050	0.0145924
918.128	0.0145401
918.206	0.0143999
918.285	0.0145420
918.363	0.0143892
918.441	0.0144270
918.519	0.0144075
918.597	0.0144343
918.675	0.0146490
918.753	0.0144382
918.831	0.0143587
918.910	0.0144973
918.988	0.0145506
919.066	0.0144910
919.144	0.0145528
919.222	0.0144863
919.300	0.0144078
919.378	0.0145102
919.456	0.0143790
919.535	0.0144292
919.613	0.0142757
919.691	0.0144566
919.769	0.0143742
919.847	0.0144202
919.925	0.0144420
920.003	0.0144456
920.081	0.0143185
920.160	0.0144037
920.238	0.0146423
920.316	0.0146177
920.394	0.0145761
920.472	0.0145009
920.550	0.0145307
920.628	0.0145557
920.706	0.0146802
920.785	0.0147230
920.863	0.0144393
920.941	0.0146745
921.019	0.0146742
921.097	0.0147839
921.175	0.0148109
921.253	0.0147762
921.331	0.0147791
921.410	0.0147326
921.488	0.0147186
921.566	0.0145701
921.644	0.0147421
921.722	0.0147553
921.800	0.0146495
921.878	0.0146416
921.956	0.0146756
922.035	0.0146994
922.113	0.0145091
922.191	0.0145303
922.269	0.0145927
922.347	0.0145860
922.425	0.0145025
922.503	0.0144407
922.581	0.0143387
922.660	0.0144174
922.738	0.0143591
922.816	0.0143623
922.894	0.0144042
922.972	0.0143780
923.050	0.0142910
923.128	0.0144053
923.206	0.0143071
923.285	0.0144407
923.363	0.0144923
923.441	0.0143587
923.519	0.0144337
923.597	0.0142721
923.675	0.0141492
923.753	0.0142937
923.831	0.0144476
923.910	0.0144976
923.988	0.0143100
924.066	0.0144019
924.144	0.0144041
924.222	0.0143003
924.300	0.0143993
924.378	0.0144476
924.456	0.0145317
924.535	0.0144855
924.613	0.0145713
924.691	0.0145919
924.769	0.0144963
924.847	0.0146265
924.925	0.0145556
925.003	0.0144677
925.081	0.0145993
925.160	0.0144862
925.238	0.0145567
925.316	0.0145327
925.394	0.0146426
925.472	0.0146374
925.550	0.0147260
925.628	0.0146582
925.706	0.0145958
925.785	0.0146840
925.863	0.0148237
925.941	0.0146623
926.019	0.0146352
926.097	0.0145657
926.175	0.0147139
926.253	0.0147545
926.331	0.0146939
926.410	0.0146458
926.488	0.0147038
926.566	0.0146773
926.644	0.0146513
926.722	0.0148627
926.800	0.0147687
926.878	0.0146741
926.956	0.0147088
927.035	0.0147189
927.113	0.0145591
927.191	0.0146812
927.269	0.0147638
927.347	0.0147187
927.425	0.0146525
927.503	0.0146730
927.581	0.0149122
927.660	0.0147833
927.738	0.0146796
927.816	0.0147719
927.894	0.0148399
927.972	0.0148116
928.050	0.0147312
928.128	0.0148286
928.206	0.0149917
928.285	0.0149483
928.363	0.0150375
928.441	0.0150117
928.519	0.0148660
928.597	0.0149357
928.675	0.0150479
928.753	0.0149497
928.831	0.0149733
928.910	0.0149363
928.988	0.0149799
929.066	0.0148530
929.144	0.0149139
929.222	0.0149306
929.300	0.0147516
929.378	0.0146947
929.456	0.0146828
929.535	0.0145525
929.613	0.0145476
929.691	0.0145349
929.769	0.0146342
929.847	0.0147028
929.925	0.0145208
930.003	0.0144321
930.081	0.0145599
930.160	0.0146431
930.238	0.0144621
930.316	0.0145862
930.394	0.0144084
930.472	0.0143687
930.550	0.0145025
930.628	0.0144823
930.706	0.0145730
930.785	0.0144782
930.863	0.0145689
930.941	0.0145970
931.019	0.0144934
931.097	0.0144260
931.175	0.0145029
931.253	0.0145245
931.331	0.0145493
931.410	0.0144605
931.488	0.0145856
931.566	0.0146062
931.644	0.0146280
931.722	0.0146564
931.800	0.0146246
931.878	0.0145845
931.956	0.0145869
932.035	0.0145452
932.113	0.0145512
932.191	0.0145789
932.269	0.0145213
932.347	0.0146497
932.425	0.0144203
932.503	0.0145592
932.581	0.0145586
932.660	0.0147583
932.738	0.0146768
932.816	0.0146644
932.894	0.0147126
932.972	0.0148118
933.050	0.0147485
933.128	0.0146998
933.206	0.0148871
933.285	0.0148062
933.363	0.0147588
933.441	0.0147057
933.519	0.0147182
933.597	0.0146579
933.675	0.0147621
933.753	0.0145963
933.831	0.0146503
933.910	0.0147108
933.988	0.0145893
934.066	0.0146133
934.144	0.0144840
934.222	0.0143819
934.300	0.0145105
934.378	0.0145071
934.456	0.0144894
934.535	0.0145777
934.613	0.0143615
934.691	0.0143760
934.769	0.0144065
934.847	0.0144109
934.925	0.0144376
935.003	0.0143089
935.081	0.0144440
935.160	0.0143599
935.238	0.0144621
935.316	0.0145688
935.394	0.0145639
935.472	0.0144445
935.550	0.0145387
935.628	0.0144726
935.706	0.0144995
935.785	0.0145355
935.863	0.0146563
935.941	0.0145946
936.019	0.0146038
936.097	0.0144911
936.175	0.0146138
936.253	0.0145962
936.331	0.0144937
936.410	0.0144508
936.488	0.0144830
936.566	0.0144814
936.644	0.0146539
936.722	0.0143839
936.800	0.0145328
936.878	0.0145598
936.956	0.0145441
937.035	0.0145657
937.113	0.0144395
937.191	0.0143097
937.269	0.0144643
937.347	0.0143718
937.425	0.0144276
937.503	0.0144086
937.581	0.0146400
937.660	0.0144347
937.738	0.0143237
937.816	0.0144628
937.894	0.0144276
937.972	0.0145240
938.050	0.0145018
938.128	0.0145798
938.206	0.0144759
938.285	0.0144384
938.363	0.0145177
938.441	0.0143985
938.519	0.0142795
938.597	0.0143806
938.675	0.0144804
938.753	0.0143417
938.831	0.0142574
938.910	0.0143037
938.988	0.0142771
939.066	0.0143930
939.144	0.0143343
939.222	0.0143399
939.300	0.0144636
939.378	0.0144113
939.456	0.0144420
939.535	0.0143986
939.613	0.0142661
939.691	0.0143489
939.769	0.0142451
939.847	0.0143478
939.925	0.0144296
940.003	0.0143005
940.081	0.0142559
940.160	0.0144257
940.238	0.0144287
940.316	0.0143801
940.394	0.0143559
940.472	0.0144666
940.550	0.0145304
940.628	0.0144137
940.706	0.0143964
940.785	0.0143548
940.863	0.0145847
940.941	0.0144151
941.019	0.0142129
941.097	0.0142642
941.175	0.0143144
941.253	0.0144316
941.331	0.0142885
941.410	0.0143355
941.488	0.0142979
941.566	0.0143462
941.644	0.0142808
941.722	0.0142914
941.800	0.0143227
941.878	0.0143144
941.956	0.0142170
942.035	0.0142916
942.113	0.0143742
942.191	0.0145411
942.269	0.0143998
942.347	0.0145449
942.425	0.0145698
942.503	0.0145457
942.581	0.0146683
942.660	0.0146307
942.738	0.0147175
942.816	0.0147083
942.894	0.0147769
942.972	0.0148342
943.050	0.0147439
943.128	0.0147226
943.206	0.0147084
943.285	0.0146752
943.363	0.0147857
943.441	0.0147343
943.519	0.0147964
943.597	0.0147717
943.675	0.0145633
943.753	0.0146699
943.831	0.0146568
943.910	0.0145061
943.988	0.0144463
944.066	0.0145909
944.144	0.0145367
944.222	0.0145462
944.300	0.0145324
944.378	0.0144656
944.456	0.0144499
944.535	0.0143811
944.613	0.0145927
944.691	0.0144648
944.769	0.0145386
944.847	0.0146154
944.925	0.0143191
945.003	0.0143875
945.081	0.0143649
945.160	0.0144369
945.238	0.0144677
945.316	0.0144363
945.394	0.0144586
945.472	0.0144350
945.550	0.0143002
945.628	0.0144550
945.706	0.0144462
945.785	0.0143489
945.863	0.0144182
945.941	0.0143671
946.019	0.0143501
946.097	0.0144160
946.175	0.0144030
946.253	0.0143636
946.331	0.0144614
946.410	0.0145007
946.488	0.0145238
946.566	0.0144853
946.644	0.0145329
946.722	0.0145439
946.800	0.0145239
946.878	0.0145731
946.956	0.0147935
947.035	0.0146104
947.113	0.0144638
947.191	0.0146667
947.269	0.0145524
947.347	0.0147121
947.425	0.0147108
947.503	0.0146425
947.581	0.0146300
947.660	0.0146611
947.738	0.0146899
947.816	0.0146362
947.894	0.0146178
947.972	0.0145065
948.050	0.0144879
948.128	0.0144846
948.206	0.0144154
948.285	0.0146189
948.363	0.0145775
948.441	0.0144833
948.519	0.0143358
948.597	0.0145216
948.675	0.0145814
948.753	0.0144603
948.831	0.0145145
948.910	0.0144008
948.988	0.0143694
949.066	0.0144364
949.144	0.0143724
949.222	0.0144231
949.300	0.0144561
949.378	0.0145141
949.456	0.0144853
949.535	0.0144485
949.613	0.0146358
949.691	0.0145869
949.769	0.0146973
949.847	0.0146789
949.925	0.0146444
950.003	0.0147632
950.081	0.0149592
950.160	0.0148810
950.238	0.0148585
950.316	0.0147717
950.394	0.0151025
950.472	0.0149561
950.550	0.0149300
950.628	0.0148135
950.706	0.0148886
950.785	0.0149436
950.863	0.0149204
950.941	0.0148471
951.019	0.0150069
951.097	0.0149651
951.175	0.0149255
951.253	0.0148239
951.331	0.0148735
951.410	0.0149722
951.488	0.0147958
951.566	0.0149236
951.644	0.0148727
951.722	0.0148156
951.800	0.0147208
951.878	0.0147424
951.956	0.0147478
952.035	0.0147012
952.113	0.0147646
952.191	0.0147379
952.269	0.0147745
952.347	0.0147169
952.425	0.0147195
952.503	0.0146301
952.581	0.0146676
952.660	0.0146960
952.738	0.0145134
952.816	0.0145454
952.894	0.0146334
952.972	0.0145177
953.050	0.0145579
953.128	0.0145924
953.206	0.0144187
953.285	0.0145063
953.363	0.0145708
953.441	0.0144684
953.519	0.0144155
953.597	0.0146165
953.675	0.0145361
953.753	0.0144585
953.831	0.0143342
953.910	0.0144784
953.988	0.0145243
954.066	0.0144859
954.144	0.0143089
954.222	0.0145129
954.300	0.0144705
954.378	0.0144058
954.456	0.0145166
954.535	0.0145652
954.613	0.0143202
954.691	0.0143818
954.769	0.0144532
954.847	0.0144965
954.925	0.0146228
955.003	0.0146049
955.081	0.0144996
955.160	0.0146119
955.238	0.0145379
955.316	0.0144586
955.394	0.0145459
955.472	0.0144421
955.550	0.0143920
955.628	0.0144850
955.706	0.0144841
955.785	0.0145046
955.863	0.0144153
955.941	0.0143932
956.019	0.0143919
956.097	0.0142986
956.175	0.0143821
956.253	0.0144565
956.331	0.0143745
956.410	0.0144905
956.488	0.0144136
956.566	0.0145045
956.644	0.0146341
956.722	0.0145648
956.800	0.0144819
956.878	0.0145219
956.956	0.0146446
957.035	0.0146966
957.113	0.0147403
957.191	0.0147674
957.269	0.0147544
957.347	0.0148630
957.425	0.0148377
957.503	0.0147584
957.581	0.0148984
957.660	0.0149812
957.738	0.0148427
957.816	0.0147776
957.894	0.0149441
957.972	0.0149030
958.050	0.0148108
958.128	0.0148352
958.206	0.0146914
958.285	0.0147059
958.363	0.0147813
958.441	0.0147819
958.519	0.0147447
958.597	0.0148183
958.675	0.0146886
958.753	0.0147164
958.831	0.0146660
958.910	0.0148931
958.988	0.0146933
959.066	0.0146178
959.144	0.0146760
959.222	0.0146802
959.300	0.0146111
959.378	0.0146577
959.456	0.0146869
959.535	0.0144889
959.613	0.0145133
959.691	0.0146148
959.769	0.0146482
959.847	0.0144764
959.925	0.0145490
960.003	0.0145805
960.081	0.0145207
960.160	0.0144720
960.238	0.0142800
960.316	0.0144916
960.394	0.0143985
960.472	0.0143382
960.550	0.0144357
960.628	0.0143941
960.706	0.0144396
960.785	0.0143764
960.863	0.0144731
960.941	0.0142782
961.019	0.0143758
961.097	0.0143771
961.175	0.0143697
961.253	0.0143651
961.331	0.0144293
961.410	0.0144772
961.488	0.0145136
961.566	0.0143326
961.644	0.0144336
961.722	0.0144436
961.800	0.0143668
961.878	0.0144481
961.956	0.0143923
962.035	0.0143620
962.113	0.0145157
962.191	0.0145146
962.269	0.0144713
962.347	0.0143601
962.425	0.0143702
962.503	0.0144177
962.581	0.0144939
962.660	0.0143114
962.738	0.0144249
962.816	0.0143800
962.894	0.0145263
962.972	0.0145695
963.050	0.0145493
963.128	0.0143634
963.206	0.0143129
963.285	0.0144404
963.363	0.0144755
963.441	0.0143880
963.519	0.0143873
963.597	0.0143969
963.675	0.0143936
963.753	0.0143906
963.831	0.0145020
963.910	0.0143858
963.988	0.0145197
964.066	0.0145644
964.144	0.0145963
964.222	0.0145174
964.300	0.0146202
964.378	0.0147428
964.456	0.0146909
964.535	0.0146157
964.613	0.0147246
964.691	0.0147002
964.769	0.0146530
964.847	0.0146877
964.925	0.0148217
965.003	0.0146715
965.081	0.0147363
965.160	0.0146461
965.238	0.0146327
965.316	0.0147179
965.394	0.0148110
965.472	0.0146046
965.550	0.0146954
965.628	0.0146053
965.706	0.0145597
965.785	0.0146304
965.863	0.0145914
965.941	0.0144765
966.019	0.0144759
966.097	0.0143689
966.175	0.0145126
966.253	0.0143678
966.331	0.0144322
966.410	0.0142847
966.488	0.0143157
966.566	0.0143586
966.644	0.0142766
966.722	0.0142741
966.800	0.0141479
966.878	0.0142665
966.956	0.0141814
967.035	0.0142081
967.113	0.0142307
967.191	0.0142926
967.269	0.0143076
967.347	0.0142633
967.425	0.0140501
967.503	0.0142091
967.581	0.0143079
967.660	0.0142417
967.738	0.0142010
967.816	0.0142883
967.894	0.0141607
967.972	0.0141552
968.050	0.0141866
968.128	0.0142126
968.206	0.0142390
968.285	0.0141988
968.363	0.0144424
968.441	0.0143819
968.519	0.0143882
968.597	0.0142750
968.675	0.0142793
968.753	0.0143012
968.831	0.0143845
968.910	0.0144372
968.988	0.0145528
969.066	0.0145393
969.144	0.0146790
969.222	0.0146075
969.300	0.0144868
969.378	0.0145289
969.456	0.0145051
969.535	0.0144209
969.613	0.0146382
969.691	0.0145183
969.769	0.0145922
969.847	0.0145893
969.925	0.0144952
970.003	0.0146368
970.081	0.0145245
970.160	0.0146765
970.238	0.0144507
970.316	0.0144830
970.394	0.0144727
970.472	0.0145886
970.550	0.0145039
970.628	0.0143996
970.706	0.0145027
970.785	0.0145972
970.863	0.0145116
970.941	0.0145448
971.019	0.0144840
971.097	0.0145031
971.175	0.0145631
971.253	0.0144902
971.331	0.0145250
971.410	0.0147225
971.488	0.0144945
971.566	0.0146886
971.644	0.0146814
971.722	0.0147047
971.800	0.0146069
971.878	0.0146937
971.956	0.0147479
972.035	0.0147375
972.113	0.0146629
972.191	0.0147724
972.269	0.0147886
972.347	0.0147205
972.425	0.0148550
972.503	0.0146967
972.581	0.0147487
972.660	0.0146348
972.738	0.0146593
972.816	0.0146868
972.894	0.0145745
972.972	0.0145578
973.050	0.0146658
973.128	0.0145644
973.206	0.0144226
973.285	0.0145467
973.363	0.0147054
973.441	0.0145763
973.519	0.0146115
973.597	0.0145716
973.675	0.0145515
973.753	0.0145509
973.831	0.0144238
973.910	0.0145527
973.988	0.0145205
974.066	0.0145065
974.144	0.0146507
974.222	0.0145625
974.300	0.0145346
974.378	0.0145100
974.456	0.0147242
974.535	0.0147121
974.613	0.0145837
974.691	0.0148117
974.769	0.0145886
974.847	0.0145744
974.925	0.0147247
975.003	0.0145798
975.081	0.0146097
975.160	0.0145825
975.238	0.0145477
975.316	0.0146458
975.394	0.0145943
975.472	0.0146513
975.550	0.0148006
975.628	0.0146789
975.706	0.0145998
975.785	0.0146694
975.863	0.0148324
975.941	0.0147525
976.019	0.0146635
976.097	0.0147559
976.175	0.0146704
976.253	0.0146825
976.331	0.0145599
976.410	0.0146845
976.488	0.0147490
976.566	0.0146912
976.644	0.0147791
976.722	0.0146788
976.800	0.0146056
976.878	0.0147700
976.956	0.0146551
977.035	0.0147189
977.113	0.0147947
977.191	0.0145016
977.269	0.0145860
977.347	0.0146928
977.425	0.0146269
977.503	0.0145995
977.581	0.0144134
977.660	0.0145414
977.738	0.0144717
977.816	0.0144380
977.894	0.0143515
977.972	0.0143060
978.050	0.0144680
978.128	0.0143414
978.206	0.0143456
978.285	0.0144617
978.363	0.0144801
978.441	0.0142875
978.519	0.0143486
978.597	0.0144048
978.675	0.0144224
978.753	0.0144336
978.831	0.0145167
978.910	0.0144016
978.988	0.0144977
979.066	0.0144725
979.144	0.0145193
979.222	0.0144877
979.300	0.0144970
979.378	0.0144818
979.456	0.0146423
979.535	0.0145605
979.613	0.0145390
979.691	0.0145789
979.769	0.0145700
979.847	0.0146668
979.925	0.0147543
