05/03/2022	20:44:18	Ver.	4.1	UNKNOWN
Optical Delay	660.003261	Delta X		0.078125	Sweeps	1	Scan Rate	0/0
Coordinates	Axis 1	NaN	Axis 2	NaN	Axis 3	NaN	Axis 4	NaN	Axis 5	NaN	Axis 6	0.000000
TX Power	0.000000	RX Power	0.000000

660.003	0.0140600
660.081	0.0138491
660.160	0.0138202
660.238	0.0139098
660.316	0.0140559
660.394	0.0139898
660.472	0.0139975
660.550	0.0140649
660.628	0.0140533
660.706	0.0138796
660.785	0.0140030
660.863	0.0140803
660.941	0.0141154
661.019	0.0141013
661.097	0.0140246
661.175	0.0139901
661.253	0.0139273
661.331	0.0140663
661.410	0.0139878
661.488	0.0140548
661.566	0.0141785
661.644	0.0140488
661.722	0.0139996
661.800	0.0141035
661.878	0.0140293
661.956	0.0139795
662.035	0.0142200
662.113	0.0141492
662.191	0.0140340
662.269	0.0140655
662.347	0.0140560
662.425	0.0141387
662.503	0.0140880
662.581	0.0141124
662.660	0.0140903
662.738	0.0141541
662.816	0.0140755
662.894	0.0140151
662.972	0.0139425
663.050	0.0141605
663.128	0.0140864
663.206	0.0141608
663.285	0.0142687
663.363	0.0141513
663.441	0.0139912
663.519	0.0141176
663.597	0.0141622
663.675	0.0141491
663.753	0.0141856
663.831	0.0141412
663.910	0.0140024
663.988	0.0138187
664.066	0.0141161
664.144	0.0141621
664.222	0.0141413
664.300	0.0140060
664.378	0.0141845
664.456	0.0140820
664.535	0.0140923
664.613	0.0141195
664.691	0.0140966
664.769	0.0141421
664.847	0.0141408
664.925	0.0140015
665.003	0.0139851
665.081	0.0140391
665.160	0.0140899
665.238	0.0141109
665.316	0.0140514
665.394	0.0140788
665.472	0.0140300
665.550	0.0141176
665.628	0.0141212
665.706	0.0140474
665.785	0.0139613
665.863	0.0140446
665.941	0.0139981
666.019	0.0139574
666.097	0.0140804
666.175	0.0141120
666.253	0.0140765
666.331	0.0140325
666.410	0.0139985
666.488	0.0141698
666.566	0.0139341
666.644	0.0140604
666.722	0.0140643
666.800	0.0141245
666.878	0.0141356
666.956	0.0142415
667.035	0.0141327
667.113	0.0140515
667.191	0.0141506
667.269	0.0140768
667.347	0.0141290
667.425	0.0140295
667.503	0.0141014
667.581	0.0141278
667.660	0.0140184
667.738	0.0140099
667.816	0.0139893
667.894	0.0140845
667.972	0.0140420
668.050	0.0139359
668.128	0.0139969
668.206	0.0140190
668.285	0.0140475
668.363	0.0141179
668.441	0.0140363
668.519	0.0141591
668.597	0.0141167
668.675	0.0139729
668.753	0.0139857
668.831	0.0139759
668.910	0.0140720
668.988	0.0139438
669.066	0.0139542
669.144	0.0140464
669.222	0.0140324
669.300	0.0141088
669.378	0.0140625
669.456	0.0141418
669.535	0.0141264
669.613	0.0141777
669.691	0.0140867
669.769	0.0139894
669.847	0.0141422
669.925	0.0139802
670.003	0.0139693
670.081	0.0140696
670.160	0.0141386
670.238	0.0139923
670.316	0.0140294
670.394	0.0139889
670.472	0.0140109
670.550	0.0140652
670.628	0.0141259
670.706	0.0139709
670.785	0.0139423
670.863	0.0141266
670.941	0.0140665
671.019	0.0138982
671.097	0.0139356
671.175	0.0140857
671.253	0.0140525
671.331	0.0139957
671.410	0.0140826
671.488	0.0140485
671.566	0.0140250
671.644	0.0139996
671.722	0.0141109
671.800	0.0141818
671.878	0.0140916
671.956	0.0140437
672.035	0.0140974
672.113	0.0141098
672.191	0.0141234
672.269	0.0139779
672.347	0.0139977
672.425	0.0141201
672.503	0.0138817
672.581	0.0140166
672.660	0.0140247
672.738	0.0140611
672.816	0.0139886
672.894	0.0138835
672.972	0.0139261
673.050	0.0140127
673.128	0.0138753
673.206	0.0140287
673.285	0.0139614
673.363	0.0139648
673.441	0.0137822
673.519	0.0137485
673.597	0.0139269
673.675	0.0139104
673.753	0.0140823
673.831	0.0139696
673.910	0.0140233
673.988	0.0138435
674.066	0.0139046
674.144	0.0139471
674.222	0.0140309
674.300	0.0139735
674.378	0.0139105
674.456	0.0139568
674.535	0.0142138
674.613	0.0139453
674.691	0.0138342
674.769	0.0141190
674.847	0.0139519
674.925	0.0139620
675.003	0.0139894
675.081	0.0140778
675.160	0.0140593
675.238	0.0141792
675.316	0.0140385
675.394	0.0139932
675.472	0.0140913
675.550	0.0141155
675.628	0.0140777
675.706	0.0140438
675.785	0.0140350
675.863	0.0140100
675.941	0.0139058
676.019	0.0139996
676.097	0.0140809
676.175	0.0140028
676.253	0.0138376
676.331	0.0141463
676.410	0.0140107
676.488	0.0139985
676.566	0.0138754
676.644	0.0138525
676.722	0.0140485
676.800	0.0140373
676.878	0.0139967
676.956	0.0139788
677.035	0.0139339
677.113	0.0139299
677.191	0.0140457
677.269	0.0139745
677.347	0.0139705
677.425	0.0140079
677.503	0.0139702
677.581	0.0138828
677.660	0.0140044
677.738	0.0139887
677.816	0.0140486
677.894	0.0140886
677.972	0.0138559
678.050	0.0141261
678.128	0.0139969
678.206	0.0140909
678.285	0.0140128
678.363	0.0139040
678.441	0.0141004
678.519	0.0141634
678.597	0.0139940
678.675	0.0139348
678.753	0.0140708
678.831	0.0140247
678.910	0.0140085
678.988	0.0139024
679.066	0.0141066
679.144	0.0140264
679.222	0.0139701
679.300	0.0140575
679.378	0.0141148
679.456	0.0141219
679.535	0.0140892
679.613	0.0140653
679.691	0.0141780
679.769	0.0140250
679.847	0.0140460
679.925	0.0140279
680.003	0.0140089
680.081	0.0140562
680.160	0.0139191
680.238	0.0140568
680.316	0.0141039
680.394	0.0139803
680.472	0.0140116
680.550	0.0140887
680.628	0.0140398
680.706	0.0140186
680.785	0.0140538
680.863	0.0139651
680.941	0.0137909
681.019	0.0140032
681.097	0.0140665
681.175	0.0141451
681.253	0.0140221
681.331	0.0140189
681.410	0.0140933
681.488	0.0139426
681.566	0.0141071
681.644	0.0139703
681.722	0.0139556
681.800	0.0139462
681.878	0.0140382
681.956	0.0141209
682.035	0.0140682
682.113	0.0139848
682.191	0.0140459
682.269	0.0140519
682.347	0.0141154
682.425	0.0141353
682.503	0.0139510
682.581	0.0140702
682.660	0.0141379
682.738	0.0141403
682.816	0.0140714
682.894	0.0141034
682.972	0.0139079
683.050	0.0140582
683.128	0.0140807
683.206	0.0142328
683.285	0.0141840
683.363	0.0140604
683.441	0.0140670
683.519	0.0141658
683.597	0.0141663
683.675	0.0141333
683.753	0.0140673
683.831	0.0142109
683.910	0.0141575
683.988	0.0140614
684.066	0.0142548
684.144	0.0140705
684.222	0.0141849
684.300	0.0141566
684.378	0.0140207
684.456	0.0140292
684.535	0.0140580
684.613	0.0139244
684.691	0.0140437
684.769	0.0140633
684.847	0.0140905
684.925	0.0140849
685.003	0.0140553
685.081	0.0139439
685.160	0.0139613
685.238	0.0140361
685.316	0.0141208
685.394	0.0140248
685.472	0.0140449
685.550	0.0140662
685.628	0.0138780
685.706	0.0140635
685.785	0.0140454
685.863	0.0140005
685.941	0.0139645
686.019	0.0139998
686.097	0.0138683
686.175	0.0139134
686.253	0.0140062
686.331	0.0139843
686.410	0.0140923
686.488	0.0139552
686.566	0.0140056
686.644	0.0140598
686.722	0.0140197
686.800	0.0140401
686.878	0.0141658
686.956	0.0140311
687.035	0.0143150
687.113	0.0141749
687.191	0.0141297
687.269	0.0141741
687.347	0.0142157
687.425	0.0141434
687.503	0.0141441
687.581	0.0139542
687.660	0.0141479
687.738	0.0139994
687.816	0.0141341
687.894	0.0139625
687.972	0.0139853
688.050	0.0140003
688.128	0.0140929
688.206	0.0140604
688.285	0.0139843
688.363	0.0139901
688.441	0.0140002
688.519	0.0140525
688.597	0.0140891
688.675	0.0140928
688.753	0.0140357
688.831	0.0140480
688.910	0.0141650
688.988	0.0142390
689.066	0.0143285
689.144	0.0140886
689.222	0.0141927
689.300	0.0142138
689.378	0.0140704
689.456	0.0141034
689.535	0.0140126
689.613	0.0140852
689.691	0.0141329
689.769	0.0141026
689.847	0.0140588
689.925	0.0141137
690.003	0.0139473
690.081	0.0140327
690.160	0.0140366
690.238	0.0139651
690.316	0.0141157
690.394	0.0141417
690.472	0.0140867
690.550	0.0140070
690.628	0.0141062
690.706	0.0140134
690.785	0.0140958
690.863	0.0140141
690.941	0.0139741
691.019	0.0139466
691.097	0.0139709
691.175	0.0140388
691.253	0.0138977
691.331	0.0140513
691.410	0.0140124
691.488	0.0139741
691.566	0.0138910
691.644	0.0138708
691.722	0.0139540
691.800	0.0138618
691.878	0.0139385
691.956	0.0140420
692.035	0.0138436
692.113	0.0139997
692.191	0.0140710
692.269	0.0140521
692.347	0.0140453
692.425	0.0140962
692.503	0.0140215
692.581	0.0140674
692.660	0.0141296
692.738	0.0140519
692.816	0.0140833
692.894	0.0141693
692.972	0.0142188
693.050	0.0141272
693.128	0.0140997
693.206	0.0140508
693.285	0.0140638
693.363	0.0140005
693.441	0.0139119
693.519	0.0139870
693.597	0.0139227
693.675	0.0138821
693.753	0.0138107
693.831	0.0137683
693.910	0.0138209
693.988	0.0139374
694.066	0.0136497
694.144	0.0139394
694.222	0.0141070
694.300	0.0141432
694.378	0.0138859
694.456	0.0139845
694.535	0.0140945
694.613	0.0139075
694.691	0.0141418
694.769	0.0141866
694.847	0.0141400
694.925	0.0141022
695.003	0.0140551
695.081	0.0138846
695.160	0.0139595
695.238	0.0139795
695.316	0.0139645
695.394	0.0138504
695.472	0.0138788
695.550	0.0138737
695.628	0.0139197
695.706	0.0138499
695.785	0.0138223
695.863	0.0137941
695.941	0.0137873
696.019	0.0138214
696.097	0.0137475
696.175	0.0137454
696.253	0.0139431
696.331	0.0139214
696.410	0.0138559
696.488	0.0137992
696.566	0.0138253
696.644	0.0139506
696.722	0.0137814
696.800	0.0138033
696.878	0.0139273
696.956	0.0138985
697.035	0.0138373
697.113	0.0139600
697.191	0.0137488
697.269	0.0138607
697.347	0.0139375
697.425	0.0139192
697.503	0.0140132
697.581	0.0139546
697.660	0.0140260
697.738	0.0139364
697.816	0.0139489
697.894	0.0139425
697.972	0.0139569
698.050	0.0139326
698.128	0.0140069
698.206	0.0140524
698.285	0.0140773
698.363	0.0140094
698.441	0.0140100
698.519	0.0140715
698.597	0.0139870
698.675	0.0141953
698.753	0.0140576
698.831	0.0140987
698.910	0.0141301
698.988	0.0142393
699.066	0.0141560
699.144	0.0141384
699.222	0.0141058
699.300	0.0140949
699.378	0.0142060
699.456	0.0142933
699.535	0.0140591
699.613	0.0140651
699.691	0.0140501
699.769	0.0141360
699.847	0.0141757
699.925	0.0141240
700.003	0.0139946
700.081	0.0139835
700.160	0.0140781
700.238	0.0141366
700.316	0.0142359
700.394	0.0142873
700.472	0.0142192
700.550	0.0141032
700.628	0.0141747
700.706	0.0141657
700.785	0.0142197
700.863	0.0142593
700.941	0.0142235
701.019	0.0142692
701.097	0.0142202
701.175	0.0141745
701.253	0.0142307
701.331	0.0142442
701.410	0.0143253
701.488	0.0140835
701.566	0.0139918
701.644	0.0141020
701.722	0.0140698
701.800	0.0140073
701.878	0.0138664
701.956	0.0141161
702.035	0.0140459
702.113	0.0139691
702.191	0.0140363
702.269	0.0141296
702.347	0.0140880
702.425	0.0141356
702.503	0.0140539
702.581	0.0141370
702.660	0.0140659
702.738	0.0141547
702.816	0.0140664
702.894	0.0142269
702.972	0.0140083
703.050	0.0140299
703.128	0.0140449
703.206	0.0140681
703.285	0.0140567
703.363	0.0138821
703.441	0.0137834
703.519	0.0138335
703.597	0.0137019
703.675	0.0138259
703.753	0.0139601
703.831	0.0139938
703.910	0.0137604
703.988	0.0138622
704.066	0.0138236
704.144	0.0138960
704.222	0.0139745
704.300	0.0140440
704.378	0.0140917
704.456	0.0140501
704.535	0.0138671
704.613	0.0139091
704.691	0.0139386
704.769	0.0140046
704.847	0.0140190
704.925	0.0139282
705.003	0.0139748
705.081	0.0139743
705.160	0.0140984
705.238	0.0139915
705.316	0.0138705
705.394	0.0139377
705.472	0.0139260
705.550	0.0139445
705.628	0.0139586
705.706	0.0140078
705.785	0.0139667
705.863	0.0141225
705.941	0.0140302
706.019	0.0140831
706.097	0.0140863
706.175	0.0140679
706.253	0.0141342
706.331	0.0141097
706.410	0.0140258
706.488	0.0140397
706.566	0.0139999
706.644	0.0140973
706.722	0.0140427
706.800	0.0141354
706.878	0.0140649
706.956	0.0140502
707.035	0.0139260
707.113	0.0138911
707.191	0.0140961
707.269	0.0140435
707.347	0.0141309
707.425	0.0140094
707.503	0.0141058
707.581	0.0139738
707.660	0.0140176
707.738	0.0141011
707.816	0.0140958
707.894	0.0141798
707.972	0.0141338
708.050	0.0140688
708.128	0.0140121
708.206	0.0140218
708.285	0.0140559
708.363	0.0140500
708.441	0.0140681
708.519	0.0141162
708.597	0.0141124
708.675	0.0139729
708.753	0.0140290
708.831	0.0140333
708.910	0.0141156
708.988	0.0139781
709.066	0.0140826
709.144	0.0140099
709.222	0.0141108
709.300	0.0141757
709.378	0.0140833
709.456	0.0142055
709.535	0.0140552
709.613	0.0139710
709.691	0.0140279
709.769	0.0140624
709.847	0.0139288
709.925	0.0139816
710.003	0.0140271
710.081	0.0138946
710.160	0.0138821
710.238	0.0139414
710.316	0.0139445
710.394	0.0138940
710.472	0.0138815
710.550	0.0138641
710.628	0.0139302
710.706	0.0138299
710.785	0.0139404
710.863	0.0138334
710.941	0.0137908
711.019	0.0139967
711.097	0.0139916
711.175	0.0139577
711.253	0.0140205
711.331	0.0139475
711.410	0.0140199
711.488	0.0139778
711.566	0.0139298
711.644	0.0139922
711.722	0.0139670
711.800	0.0139774
711.878	0.0139787
711.956	0.0140050
712.035	0.0139558
712.113	0.0139382
712.191	0.0138226
712.269	0.0140253
712.347	0.0139559
712.425	0.0139450
712.503	0.0141353
712.581	0.0141080
712.660	0.0140569
712.738	0.0140369
712.816	0.0141814
712.894	0.0141164
712.972	0.0141489
713.050	0.0140089
713.128	0.0140894
713.206	0.0140723
713.285	0.0141042
713.363	0.0139715
713.441	0.0141901
713.519	0.0140614
713.597	0.0141016
713.675	0.0142211
713.753	0.0140350
713.831	0.0141451
713.910	0.0140125
713.988	0.0140249
714.066	0.0141140
714.144	0.0140948
714.222	0.0140338
714.300	0.0141424
714.378	0.0140744
714.456	0.0139051
714.535	0.0140756
714.613	0.0139478
714.691	0.0138795
714.769	0.0139826
714.847	0.0140032
714.925	0.0139609
715.003	0.0137852
715.081	0.0139069
715.160	0.0138638
715.238	0.0138466
715.316	0.0139643
715.394	0.0140198
715.472	0.0138889
715.550	0.0139378
715.628	0.0139664
715.706	0.0138798
715.785	0.0138913
715.863	0.0139934
715.941	0.0139049
716.019	0.0140667
716.097	0.0140437
716.175	0.0140232
716.253	0.0140960
716.331	0.0139839
716.410	0.0141033
716.488	0.0140411
716.566	0.0140382
716.644	0.0139488
716.722	0.0137502
716.800	0.0140607
716.878	0.0140105
716.956	0.0137872
717.035	0.0138523
717.113	0.0138290
717.191	0.0140073
717.269	0.0139400
717.347	0.0139789
717.425	0.0139189
717.503	0.0139112
717.581	0.0140583
717.660	0.0140752
717.738	0.0140775
717.816	0.0141132
717.894	0.0139684
717.972	0.0141124
718.050	0.0140916
718.128	0.0140629
718.206	0.0140092
718.285	0.0140287
718.363	0.0138609
718.441	0.0137733
718.519	0.0140395
718.597	0.0139213
718.675	0.0139930
718.753	0.0140321
718.831	0.0140534
718.910	0.0141282
718.988	0.0139110
719.066	0.0141502
719.144	0.0141768
719.222	0.0139730
719.300	0.0141373
719.378	0.0142490
719.456	0.0141288
719.535	0.0143646
719.613	0.0142905
719.691	0.0141556
719.769	0.0141793
719.847	0.0141247
719.925	0.0142107
720.003	0.0142616
720.081	0.0142333
720.160	0.0141069
720.238	0.0143370
720.316	0.0142457
720.394	0.0141772
720.472	0.0142693
720.550	0.0141539
720.628	0.0142872
720.706	0.0141744
720.785	0.0142937
720.863	0.0141509
720.941	0.0141856
721.019	0.0142358
721.097	0.0141213
721.175	0.0141353
721.253	0.0140862
721.331	0.0141535
721.410	0.0140286
721.488	0.0141176
721.566	0.0140869
721.644	0.0141550
721.722	0.0142007
721.800	0.0139828
721.878	0.0139530
721.956	0.0141275
722.035	0.0140567
722.113	0.0141337
722.191	0.0141231
722.269	0.0141155
722.347	0.0141124
722.425	0.0141035
722.503	0.0141285
722.581	0.0141048
722.660	0.0141847
722.738	0.0141438
722.816	0.0141348
722.894	0.0140032
722.972	0.0141696
723.050	0.0141344
723.128	0.0141151
723.206	0.0141386
723.285	0.0141332
723.363	0.0139838
723.441	0.0139753
723.519	0.0139731
723.597	0.0139760
723.675	0.0140765
723.753	0.0140907
723.831	0.0140498
723.910	0.0138693
723.988	0.0140532
724.066	0.0140520
724.144	0.0139843
724.222	0.0140508
724.300	0.0140297
724.378	0.0141006
724.456	0.0141003
724.535	0.0140959
724.613	0.0140557
724.691	0.0141396
724.769	0.0140495
724.847	0.0140359
724.925	0.0141290
725.003	0.0140340
725.081	0.0139911
725.160	0.0139729
725.238	0.0138685
725.316	0.0139045
725.394	0.0140121
725.472	0.0140459
725.550	0.0139931
725.628	0.0139967
725.706	0.0139318
725.785	0.0139369
725.863	0.0140034
725.941	0.0142049
726.019	0.0141282
726.097	0.0141057
726.175	0.0140554
726.253	0.0140163
726.331	0.0141132
726.410	0.0140690
726.488	0.0141326
726.566	0.0140154
726.644	0.0141196
726.722	0.0141805
726.800	0.0142522
726.878	0.0142471
726.956	0.0141782
727.035	0.0140232
727.113	0.0141921
727.191	0.0142862
727.269	0.0142367
727.347	0.0143408
727.425	0.0140133
727.503	0.0142249
727.581	0.0142086
727.660	0.0140930
727.738	0.0142052
727.816	0.0141031
727.894	0.0140485
727.972	0.0140614
728.050	0.0138557
728.128	0.0139487
728.206	0.0141084
728.285	0.0141594
728.363	0.0141245
728.441	0.0139917
728.519	0.0138696
728.597	0.0139011
728.675	0.0139468
728.753	0.0140393
728.831	0.0141022
728.910	0.0139694
728.988	0.0141450
729.066	0.0139887
729.144	0.0140179
729.222	0.0138844
729.300	0.0139761
729.378	0.0140137
729.456	0.0140457
729.535	0.0140323
729.613	0.0140919
729.691	0.0139713
729.769	0.0139040
729.847	0.0139222
729.925	0.0141168
730.003	0.0138218
730.081	0.0140305
730.160	0.0139565
730.238	0.0138973
730.316	0.0138451
730.394	0.0139099
730.472	0.0138685
730.550	0.0139123
730.628	0.0137257
730.706	0.0137870
730.785	0.0139251
730.863	0.0138109
730.941	0.0138662
731.019	0.0138441
731.097	0.0137470
731.175	0.0138226
731.253	0.0137389
731.331	0.0139059
731.410	0.0139413
731.488	0.0139473
731.566	0.0137818
731.644	0.0137744
731.722	0.0138763
731.800	0.0137819
731.878	0.0137673
731.956	0.0136716
732.035	0.0136579
732.113	0.0138815
732.191	0.0138421
732.269	0.0138145
732.347	0.0138290
732.425	0.0138737
732.503	0.0138946
732.581	0.0139022
732.660	0.0139998
732.738	0.0137417
732.816	0.0139507
732.894	0.0141012
732.972	0.0138444
733.050	0.0139803
733.128	0.0138406
733.206	0.0139453
733.285	0.0139259
733.363	0.0139947
733.441	0.0141109
733.519	0.0141250
733.597	0.0141984
733.675	0.0140289
733.753	0.0140804
733.831	0.0141637
733.910	0.0142100
733.988	0.0141077
734.066	0.0142713
734.144	0.0141614
734.222	0.0141784
734.300	0.0142542
734.378	0.0142247
734.456	0.0141272
734.535	0.0142680
734.613	0.0142603
734.691	0.0142288
734.769	0.0141930
734.847	0.0141176
734.925	0.0140906
735.003	0.0140691
735.081	0.0140937
735.160	0.0140765
735.238	0.0141140
735.316	0.0139995
735.394	0.0140027
735.472	0.0140801
735.550	0.0140873
735.628	0.0141151
735.706	0.0139749
735.785	0.0139867
735.863	0.0139879
735.941	0.0141901
736.019	0.0141010
736.097	0.0140158
736.175	0.0141920
736.253	0.0140925
736.331	0.0139891
736.410	0.0140079
736.488	0.0141511
736.566	0.0140322
736.644	0.0139417
736.722	0.0139061
736.800	0.0140180
736.878	0.0139474
736.956	0.0138886
737.035	0.0139844
737.113	0.0140761
737.191	0.0140201
737.269	0.0141429
737.347	0.0140327
737.425	0.0139042
737.503	0.0139834
737.581	0.0139566
737.660	0.0140364
737.738	0.0140412
737.816	0.0140413
737.894	0.0139887
737.972	0.0139677
738.050	0.0140332
738.128	0.0140443
738.206	0.0137814
738.285	0.0138195
738.363	0.0139918
738.441	0.0139970
738.519	0.0140672
738.597	0.0140791
738.675	0.0139194
738.753	0.0140460
738.831	0.0140471
738.910	0.0140425
738.988	0.0139147
739.066	0.0140092
739.144	0.0140228
739.222	0.0138852
739.300	0.0138860
739.378	0.0140639
739.456	0.0140451
739.535	0.0139711
739.613	0.0138574
739.691	0.0139530
739.769	0.0140408
739.847	0.0140075
739.925	0.0140735
740.003	0.0140952
740.081	0.0139701
740.160	0.0140138
740.238	0.0142680
740.316	0.0141804
740.394	0.0140774
740.472	0.0141113
740.550	0.0141439
740.628	0.0142142
740.706	0.0143216
740.785	0.0141909
740.863	0.0143662
740.941	0.0142717
741.019	0.0142925
741.097	0.0142036
741.175	0.0143418
741.253	0.0143739
741.331	0.0143588
741.410	0.0143462
741.488	0.0143203
741.566	0.0142201
741.644	0.0142493
741.722	0.0143355
741.800	0.0141743
741.878	0.0142123
741.956	0.0142484
742.035	0.0141668
742.113	0.0140803
742.191	0.0141756
742.269	0.0141847
742.347	0.0141473
742.425	0.0141475
742.503	0.0139976
742.581	0.0142667
742.660	0.0141725
742.738	0.0142268
742.816	0.0140354
742.894	0.0140382
742.972	0.0141831
743.050	0.0140327
743.128	0.0141255
743.206	0.0141840
743.285	0.0140720
743.363	0.0140443
743.441	0.0140076
743.519	0.0140050
743.597	0.0140135
743.675	0.0141901
743.753	0.0143187
743.831	0.0140878
743.910	0.0140969
743.988	0.0140684
744.066	0.0142307
744.144	0.0141119
744.222	0.0141026
744.300	0.0140942
744.378	0.0141291
744.456	0.0141640
744.535	0.0141268
744.613	0.0139675
744.691	0.0142141
744.769	0.0141437
744.847	0.0139503
744.925	0.0140745
745.003	0.0140374
745.081	0.0140330
745.160	0.0141272
745.238	0.0140323
745.316	0.0140920
745.394	0.0140516
745.472	0.0139365
745.550	0.0140742
745.628	0.0140836
745.706	0.0140859
745.785	0.0140873
745.863	0.0141003
745.941	0.0140923
746.019	0.0139522
746.097	0.0140089
746.175	0.0140556
746.253	0.0139069
746.331	0.0141029
746.410	0.0140900
746.488	0.0139805
746.566	0.0139802
746.644	0.0139523
746.722	0.0140137
746.800	0.0140364
746.878	0.0140299
746.956	0.0141654
747.035	0.0140778
747.113	0.0142304
747.191	0.0141544
747.269	0.0142215
747.347	0.0142213
747.425	0.0142812
747.503	0.0143049
747.581	0.0143136
747.660	0.0141959
747.738	0.0142009
747.816	0.0143356
747.894	0.0141343
747.972	0.0142805
748.050	0.0142991
748.128	0.0143303
748.206	0.0142644
748.285	0.0141599
748.363	0.0144372
748.441	0.0143155
748.519	0.0143286
748.597	0.0143330
748.675	0.0143831
748.753	0.0142104
748.831	0.0141605
748.910	0.0141496
748.988	0.0141857
749.066	0.0141996
749.144	0.0140675
749.222	0.0142016
749.300	0.0139254
749.378	0.0141849
749.456	0.0139745
749.535	0.0138443
749.613	0.0140636
749.691	0.0140723
749.769	0.0141903
749.847	0.0140439
749.925	0.0140777
750.003	0.0140466
750.081	0.0140798
750.160	0.0139645
750.238	0.0139112
750.316	0.0140947
750.394	0.0139314
750.472	0.0139895
750.550	0.0139555
750.628	0.0141523
750.706	0.0140067
750.785	0.0140086
750.863	0.0139131
750.941	0.0139212
751.019	0.0140292
751.097	0.0139352
751.175	0.0137942
751.253	0.0140010
751.331	0.0138681
751.410	0.0140099
751.488	0.0139277
751.566	0.0140162
751.644	0.0139610
751.722	0.0139210
751.800	0.0139324
751.878	0.0138506
751.956	0.0139376
752.035	0.0137960
752.113	0.0138397
752.191	0.0139587
752.269	0.0138785
752.347	0.0136950
752.425	0.0139524
752.503	0.0139768
752.581	0.0138624
752.660	0.0138932
752.738	0.0138389
752.816	0.0139578
752.894	0.0140011
752.972	0.0139088
753.050	0.0139269
753.128	0.0139248
753.206	0.0139035
753.285	0.0137823
753.363	0.0138309
753.441	0.0138481
753.519	0.0138663
753.597	0.0137926
753.675	0.0137589
753.753	0.0138112
753.831	0.0139240
753.910	0.0138447
753.988	0.0137984
754.066	0.0139259
754.144	0.0138884
754.222	0.0137669
754.300	0.0139450
754.378	0.0139805
754.456	0.0139199
754.535	0.0140569
754.613	0.0141374
754.691	0.0140285
754.769	0.0141654
754.847	0.0141477
754.925	0.0141427
755.003	0.0141701
755.081	0.0142423
755.160	0.0142873
755.238	0.0142259
755.316	0.0142410
755.394	0.0142632
755.472	0.0143854
755.550	0.0142890
755.628	0.0142112
755.706	0.0142126
755.785	0.0141035
755.863	0.0141610
755.941	0.0142973
756.019	0.0142123
756.097	0.0140637
756.175	0.0139920
756.253	0.0140999
756.331	0.0140510
756.410	0.0140058
756.488	0.0139855
756.566	0.0139720
756.644	0.0140501
756.722	0.0140179
756.800	0.0141250
756.878	0.0139838
756.956	0.0139759
757.035	0.0140618
757.113	0.0141132
757.191	0.0139045
757.269	0.0140935
757.347	0.0140208
757.425	0.0140736
757.503	0.0139961
757.581	0.0139785
757.660	0.0138235
757.738	0.0140070
757.816	0.0140408
757.894	0.0138947
757.972	0.0139114
758.050	0.0140874
758.128	0.0139352
758.206	0.0139417
758.285	0.0138422
758.363	0.0139982
758.441	0.0139815
758.519	0.0138421
758.597	0.0138880
758.675	0.0139084
758.753	0.0138622
758.831	0.0139085
758.910	0.0139745
758.988	0.0139497
759.066	0.0138942
759.144	0.0139358
759.222	0.0139236
759.300	0.0139651
759.378	0.0139326
759.456	0.0140252
759.535	0.0139167
759.613	0.0139519
759.691	0.0138720
759.769	0.0138658
759.847	0.0139775
759.925	0.0139748
760.003	0.0138328
760.081	0.0138956
760.160	0.0138457
760.238	0.0139349
760.316	0.0138626
760.394	0.0139299
760.472	0.0139078
760.550	0.0139066
760.628	0.0137814
760.706	0.0137415
760.785	0.0138647
760.863	0.0140013
760.941	0.0138712
761.019	0.0139184
761.097	0.0139365
761.175	0.0139893
761.253	0.0139293
761.331	0.0139182
761.410	0.0140195
761.488	0.0141657
761.566	0.0141040
761.644	0.0141715
761.722	0.0141031
761.800	0.0140821
761.878	0.0142822
761.956	0.0143621
762.035	0.0142711
762.113	0.0140816
762.191	0.0142489
762.269	0.0144356
762.347	0.0143443
762.425	0.0143214
762.503	0.0143346
762.581	0.0143421
762.660	0.0143249
762.738	0.0143999
762.816	0.0143816
762.894	0.0143207
762.972	0.0142665
763.050	0.0142536
763.128	0.0143288
763.206	0.0142055
763.285	0.0141204
763.363	0.0140552
763.441	0.0140755
763.519	0.0141142
763.597	0.0141996
763.675	0.0139957
763.753	0.0140871
763.831	0.0140517
763.910	0.0140773
763.988	0.0141128
764.066	0.0140392
764.144	0.0139671
764.222	0.0140453
764.300	0.0142409
764.378	0.0140103
764.456	0.0140135
764.535	0.0141039
764.613	0.0140845
764.691	0.0141971
764.769	0.0141912
764.847	0.0140662
764.925	0.0141749
765.003	0.0140681
765.081	0.0139399
765.160	0.0140730
765.238	0.0139607
765.316	0.0140307
765.394	0.0140003
765.472	0.0140652
765.550	0.0139451
765.628	0.0138632
765.706	0.0140029
765.785	0.0139972
765.863	0.0138145
765.941	0.0140055
766.019	0.0140741
766.097	0.0140915
766.175	0.0139362
766.253	0.0139117
766.331	0.0140462
766.410	0.0141833
766.488	0.0139571
766.566	0.0139831
766.644	0.0139242
766.722	0.0140106
766.800	0.0140052
766.878	0.0140807
766.956	0.0139528
767.035	0.0138793
767.113	0.0139346
767.191	0.0139121
767.269	0.0139117
767.347	0.0140597
767.425	0.0139922
767.503	0.0139402
767.581	0.0141430
767.660	0.0139568
767.738	0.0139651
767.816	0.0140245
767.894	0.0139793
767.972	0.0139823
768.050	0.0139851
768.128	0.0139775
768.206	0.0139790
768.285	0.0139681
768.363	0.0139191
768.441	0.0140782
768.519	0.0140521
768.597	0.0141039
768.675	0.0141185
768.753	0.0140611
768.831	0.0139717
768.910	0.0141261
768.988	0.0141614
769.066	0.0141529
769.144	0.0141410
769.222	0.0143490
769.300	0.0144185
769.378	0.0141605
769.456	0.0141373
769.535	0.0143047
769.613	0.0142736
769.691	0.0143355
769.769	0.0143398
769.847	0.0143234
769.925	0.0143999
770.003	0.0141534
770.081	0.0141805
770.160	0.0142126
770.238	0.0142316
770.316	0.0141663
770.394	0.0139968
770.472	0.0142593
770.550	0.0140098
770.628	0.0140448
770.706	0.0140436
770.785	0.0139207
770.863	0.0141091
770.941	0.0140450
771.019	0.0139538
771.097	0.0140533
771.175	0.0139757
771.253	0.0139790
771.331	0.0139046
771.410	0.0140632
771.488	0.0140383
771.566	0.0139211
771.644	0.0139147
771.722	0.0139092
771.800	0.0139803
771.878	0.0138952
771.956	0.0139243
772.035	0.0138102
772.113	0.0138744
772.191	0.0140311
772.269	0.0139394
772.347	0.0139374
772.425	0.0140165
772.503	0.0140243
772.581	0.0139401
772.660	0.0137804
772.738	0.0140285
772.816	0.0139329
772.894	0.0138874
772.972	0.0138245
773.050	0.0138120
773.128	0.0139796
773.206	0.0140430
773.285	0.0139664
773.363	0.0139892
773.441	0.0139394
773.519	0.0139319
773.597	0.0139043
773.675	0.0139868
773.753	0.0140235
773.831	0.0140264
773.910	0.0140498
773.988	0.0140129
774.066	0.0140256
774.144	0.0139323
774.222	0.0139931
774.300	0.0139362
774.378	0.0141019
774.456	0.0138993
774.535	0.0140990
774.613	0.0139506
774.691	0.0139485
774.769	0.0139887
774.847	0.0138924
774.925	0.0138329
775.003	0.0139859
775.081	0.0141230
775.160	0.0139600
775.238	0.0139533
775.316	0.0139407
775.394	0.0139838
775.472	0.0138757
775.550	0.0140091
775.628	0.0139626
775.706	0.0139742
775.785	0.0140981
775.863	0.0139818
775.941	0.0141451
776.019	0.0141534
776.097	0.0139736
776.175	0.0141039
776.253	0.0141724
776.331	0.0142248
776.410	0.0144006
776.488	0.0142505
776.566	0.0141990
776.644	0.0143255
776.722	0.0142641
776.800	0.0142371
776.878	0.0142422
776.956	0.0143597
777.035	0.0142921
777.113	0.0142298
777.191	0.0141431
777.269	0.0142100
777.347	0.0141988
777.425	0.0140350
777.503	0.0140896
777.581	0.0141190
777.660	0.0139285
777.738	0.0139040
777.816	0.0138712
777.894	0.0139904
777.972	0.0139555
778.050	0.0139446
778.128	0.0139340
778.206	0.0140085
778.285	0.0139819
778.363	0.0138915
778.441	0.0139301
778.519	0.0139587
778.597	0.0139521
778.675	0.0140549
778.753	0.0139368
778.831	0.0137972
778.910	0.0138882
778.988	0.0138652
779.066	0.0138992
779.144	0.0139702
779.222	0.0138321
779.300	0.0138417
779.378	0.0139374
779.456	0.0140499
779.535	0.0140301
779.613	0.0139460
779.691	0.0139261
779.769	0.0138500
779.847	0.0137613
779.925	0.0139378
780.003	0.0139584
780.081	0.0138306
780.160	0.0138554
780.238	0.0139586
780.316	0.0139874
780.394	0.0138412
780.472	0.0138695
780.550	0.0139310
780.628	0.0139371
780.706	0.0138888
780.785	0.0139741
780.863	0.0140128
780.941	0.0138837
781.019	0.0139536
781.097	0.0140335
781.175	0.0139834
781.253	0.0139910
781.331	0.0141442
781.410	0.0139952
781.488	0.0140601
781.566	0.0140118
781.644	0.0140709
781.722	0.0140540
781.800	0.0138746
781.878	0.0139113
781.956	0.0139596
782.035	0.0138483
782.113	0.0138438
782.191	0.0139482
782.269	0.0139203
782.347	0.0140068
782.425	0.0140948
782.503	0.0139716
782.581	0.0138996
782.660	0.0139531
782.738	0.0140363
782.816	0.0140194
782.894	0.0140382
782.972	0.0140936
783.050	0.0141912
783.128	0.0140908
783.206	0.0142766
783.285	0.0142085
783.363	0.0142322
783.441	0.0144086
783.519	0.0143640
783.597	0.0142663
783.675	0.0142770
783.753	0.0145382
783.831	0.0143871
783.910	0.0143905
783.988	0.0142696
784.066	0.0144467
784.144	0.0142854
784.222	0.0143544
784.300	0.0143313
784.378	0.0142862
784.456	0.0143306
784.535	0.0142082
784.613	0.0143618
784.691	0.0143202
784.769	0.0141912
784.847	0.0141797
784.925	0.0141814
785.003	0.0140987
785.081	0.0141222
785.160	0.0140524
785.238	0.0140469
785.316	0.0141093
785.394	0.0140800
785.472	0.0141280
785.550	0.0141104
785.628	0.0140126
785.706	0.0139314
785.785	0.0139890
785.863	0.0139409
785.941	0.0138882
786.019	0.0138985
786.097	0.0139428
786.175	0.0140038
786.253	0.0139597
786.331	0.0138068
786.410	0.0139178
786.488	0.0139526
786.566	0.0137450
786.644	0.0137666
786.722	0.0138427
786.800	0.0139193
786.878	0.0138663
786.956	0.0139393
787.035	0.0139326
787.113	0.0138898
787.191	0.0137764
787.269	0.0137909
787.347	0.0139349
787.425	0.0138663
787.503	0.0139137
787.581	0.0138720
787.660	0.0138361
787.738	0.0138829
787.816	0.0139184
787.894	0.0138044
787.972	0.0138476
788.050	0.0140888
788.128	0.0138378
788.206	0.0139498
788.285	0.0139352
788.363	0.0140539
788.441	0.0137917
788.519	0.0139638
788.597	0.0139439
788.675	0.0139211
788.753	0.0139222
788.831	0.0140093
788.910	0.0139932
788.988	0.0139503
789.066	0.0138319
789.144	0.0140429
789.222	0.0137997
789.300	0.0138869
789.378	0.0138823
789.456	0.0139578
789.535	0.0139771
789.613	0.0139711
789.691	0.0140440
789.769	0.0140752
789.847	0.0140272
789.925	0.0139777
790.003	0.0139813
790.081	0.0139764
790.160	0.0141651
790.238	0.0141396
790.316	0.0140606
790.394	0.0142499
790.472	0.0142811
790.550	0.0142901
790.628	0.0143590
790.706	0.0142774
790.785	0.0143119
790.863	0.0143232
790.941	0.0143256
791.019	0.0143788
791.097	0.0141506
791.175	0.0141622
791.253	0.0142888
791.331	0.0142873
791.410	0.0142635
791.488	0.0142217
791.566	0.0141405
791.644	0.0142778
791.722	0.0140253
791.800	0.0140080
791.878	0.0140581
791.956	0.0140258
792.035	0.0140489
792.113	0.0139987
792.191	0.0139514
792.269	0.0138676
792.347	0.0139705
792.425	0.0138741
792.503	0.0138603
792.581	0.0139211
792.660	0.0138649
792.738	0.0139319
792.816	0.0138592
792.894	0.0138348
792.972	0.0138065
793.050	0.0137669
793.128	0.0137646
793.206	0.0138177
793.285	0.0138000
793.363	0.0138214
793.441	0.0138196
793.519	0.0138564
793.597	0.0138189
793.675	0.0139260
793.753	0.0136754
793.831	0.0137395
793.910	0.0138316
793.988	0.0137136
794.066	0.0139558
794.144	0.0136562
794.222	0.0138772
794.300	0.0137965
794.378	0.0138702
794.456	0.0138467
794.535	0.0139532
794.613	0.0138770
794.691	0.0139826
794.769	0.0139446
794.847	0.0138474
794.925	0.0138162
795.003	0.0139407
795.081	0.0140376
795.160	0.0139073
795.238	0.0139809
795.316	0.0140242
795.394	0.0139622
795.472	0.0139275
795.550	0.0139756
795.628	0.0139205
795.706	0.0138676
795.785	0.0139768
795.863	0.0140416
795.941	0.0139194
796.019	0.0139103
796.097	0.0139083
796.175	0.0139192
796.253	0.0140308
796.331	0.0139494
796.410	0.0139675
796.488	0.0138725
796.566	0.0139378
796.644	0.0138916
796.722	0.0139976
796.800	0.0141019
796.878	0.0140469
796.956	0.0140011
797.035	0.0140472
797.113	0.0141200
797.191	0.0140604
797.269	0.0141664
797.347	0.0141313
797.425	0.0141361
797.503	0.0142369
797.581	0.0141269
797.660	0.0142353
797.738	0.0142592
797.816	0.0142820
797.894	0.0143736
797.972	0.0143007
798.050	0.0143409
798.128	0.0142397
798.206	0.0142603
798.285	0.0142576
798.363	0.0143444
798.441	0.0143206
798.519	0.0144054
798.597	0.0143188
798.675	0.0143072
798.753	0.0143586
798.831	0.0142978
798.910	0.0141502
798.988	0.0142181
799.066	0.0142753
799.144	0.0141330
799.222	0.0140905
799.300	0.0141232
799.378	0.0141433
799.456	0.0140953
799.535	0.0139610
799.613	0.0140961
799.691	0.0141167
799.769	0.0140118
799.847	0.0139742
799.925	0.0138635
800.003	0.0140543
800.081	0.0138693
800.160	0.0139343
800.238	0.0138739
800.316	0.0137545
800.394	0.0138934
800.472	0.0138991
800.550	0.0139819
800.628	0.0139403
800.706	0.0138467
800.785	0.0139158
800.863	0.0139857
800.941	0.0139732
801.019	0.0138441
801.097	0.0138864
801.175	0.0138593
801.253	0.0139790
801.331	0.0140781
801.410	0.0140607
801.488	0.0139603
801.566	0.0138236
801.644	0.0139487
801.722	0.0139079
801.800	0.0138760
801.878	0.0139816
801.956	0.0140140
802.035	0.0138508
802.113	0.0140024
802.191	0.0141498
802.269	0.0139529
802.347	0.0138609
802.425	0.0140089
802.503	0.0141038
802.581	0.0139743
802.660	0.0140802
802.738	0.0139825
802.816	0.0141496
802.894	0.0139961
802.972	0.0138877
803.050	0.0142075
803.128	0.0141071
803.206	0.0139503
803.285	0.0140029
803.363	0.0140927
803.441	0.0141479
803.519	0.0139446
803.597	0.0139754
803.675	0.0138937
803.753	0.0139024
803.831	0.0140599
803.910	0.0139937
803.988	0.0140168
804.066	0.0140382
804.144	0.0139680
804.222	0.0141053
804.300	0.0141573
804.378	0.0140422
804.456	0.0142873
804.535	0.0141817
804.613	0.0141726
804.691	0.0142348
804.769	0.0141954
804.847	0.0141119
804.925	0.0142851
805.003	0.0142950
805.081	0.0143277
805.160	0.0142543
805.238	0.0144007
805.316	0.0145251
805.394	0.0143533
805.472	0.0143011
805.550	0.0143494
805.628	0.0142580
805.706	0.0144753
805.785	0.0142536
805.863	0.0142162
805.941	0.0142400
806.019	0.0141933
806.097	0.0141035
806.175	0.0142036
806.253	0.0140099
806.331	0.0140421
806.410	0.0140608
806.488	0.0141228
806.566	0.0141810
806.644	0.0140060
806.722	0.0139719
806.800	0.0139936
806.878	0.0140882
806.956	0.0140634
807.035	0.0139636
807.113	0.0139317
807.191	0.0139364
807.269	0.0139470
807.347	0.0139864
807.425	0.0138286
807.503	0.0138654
807.581	0.0137766
807.660	0.0139069
807.738	0.0138475
807.816	0.0138093
807.894	0.0138822
807.972	0.0137103
808.050	0.0139030
808.128	0.0138368
808.206	0.0139822
808.285	0.0138323
808.363	0.0138376
808.441	0.0139435
808.519	0.0139068
808.597	0.0139565
808.675	0.0139651
808.753	0.0141769
808.831	0.0141201
808.910	0.0139035
808.988	0.0139793
809.066	0.0139994
809.144	0.0138916
809.222	0.0140319
809.300	0.0141199
809.378	0.0141062
809.456	0.0141249
809.535	0.0140270
809.613	0.0138682
809.691	0.0140253
809.769	0.0139152
809.847	0.0140244
809.925	0.0140324
810.003	0.0140293
810.081	0.0139148
810.160	0.0140281
810.238	0.0141546
810.316	0.0140568
810.394	0.0140588
810.472	0.0140569
810.550	0.0139908
810.628	0.0141036
810.706	0.0139272
810.785	0.0139963
810.863	0.0139693
810.941	0.0140511
811.019	0.0141085
811.097	0.0142230
811.175	0.0141509
811.253	0.0140707
811.331	0.0139270
811.410	0.0140340
811.488	0.0141383
811.566	0.0140937
811.644	0.0141813
811.722	0.0142159
811.800	0.0142711
811.878	0.0142685
811.956	0.0141958
812.035	0.0141898
812.113	0.0141154
812.191	0.0141460
812.269	0.0142158
812.347	0.0143737
812.425	0.0144448
812.503	0.0143888
812.581	0.0143102
812.660	0.0142632
812.738	0.0143349
812.816	0.0143450
812.894	0.0142406
812.972	0.0142326
813.050	0.0142579
813.128	0.0143237
813.206	0.0141537
813.285	0.0140733
813.363	0.0141216
813.441	0.0141653
813.519	0.0141396
813.597	0.0140385
813.675	0.0139579
813.753	0.0140569
813.831	0.0140032
813.910	0.0139465
813.988	0.0140290
814.066	0.0139280
814.144	0.0140287
814.222	0.0139728
814.300	0.0138700
814.378	0.0138809
814.456	0.0138252
814.535	0.0138271
814.613	0.0138519
814.691	0.0138736
814.769	0.0138017
814.847	0.0138197
814.925	0.0139073
815.003	0.0138429
815.081	0.0138764
815.160	0.0139428
815.238	0.0139133
815.316	0.0138605
815.394	0.0139115
815.472	0.0141069
815.550	0.0138490
815.628	0.0139127
815.706	0.0138619
815.785	0.0140530
815.863	0.0138878
815.941	0.0138234
816.019	0.0138058
816.097	0.0139156
816.175	0.0140327
816.253	0.0139751
816.331	0.0139896
816.410	0.0139920
816.488	0.0139723
816.566	0.0140302
816.644	0.0140498
816.722	0.0140585
816.800	0.0140630
816.878	0.0141360
816.956	0.0140310
817.035	0.0142005
817.113	0.0140692
817.191	0.0140713
817.269	0.0142342
817.347	0.0141540
817.425	0.0141521
817.503	0.0141140
817.581	0.0140205
817.660	0.0140757
817.738	0.0139693
817.816	0.0139967
817.894	0.0140723
817.972	0.0141026
818.050	0.0141542
818.128	0.0140611
818.206	0.0141349
818.285	0.0140991
818.363	0.0141242
818.441	0.0140810
818.519	0.0141769
818.597	0.0142582
818.675	0.0141218
818.753	0.0140105
818.831	0.0141319
818.910	0.0142094
818.988	0.0140540
819.066	0.0141186
819.144	0.0141600
819.222	0.0141199
819.300	0.0141937
819.378	0.0142544
819.456	0.0141393
819.535	0.0140910
819.613	0.0142828
819.691	0.0142609
819.769	0.0142610
819.847	0.0141946
819.925	0.0141855
820.003	0.0141898
820.081	0.0140886
820.160	0.0141064
820.238	0.0139931
820.316	0.0139880
820.394	0.0140786
820.472	0.0140047
820.550	0.0140773
820.628	0.0139416
820.706	0.0139360
820.785	0.0139699
820.863	0.0138618
820.941	0.0139312
821.019	0.0139317
821.097	0.0139478
821.175	0.0139362
821.253	0.0138235
821.331	0.0138451
821.410	0.0137996
821.488	0.0140017
821.566	0.0139546
821.644	0.0137502
821.722	0.0137851
821.800	0.0138342
821.878	0.0138125
821.956	0.0138816
822.035	0.0138578
822.113	0.0139445
822.191	0.0138305
822.269	0.0138252
822.347	0.0138485
822.425	0.0138239
822.503	0.0137572
822.581	0.0140592
822.660	0.0140014
822.738	0.0138385
822.816	0.0140016
822.894	0.0138812
822.972	0.0140478
823.050	0.0140976
823.128	0.0138579
823.206	0.0139509
823.285	0.0140055
823.363	0.0139827
823.441	0.0140729
823.519	0.0140299
823.597	0.0138759
823.675	0.0139195
823.753	0.0139565
823.831	0.0139996
823.910	0.0140295
823.988	0.0139310
824.066	0.0139056
824.144	0.0139775
824.222	0.0141319
824.300	0.0141357
824.378	0.0139530
824.456	0.0137344
824.535	0.0139901
824.613	0.0139769
824.691	0.0140182
824.769	0.0139757
824.847	0.0140077
824.925	0.0138828
825.003	0.0139842
825.081	0.0139447
825.160	0.0138083
825.238	0.0139175
825.316	0.0140442
825.394	0.0139290
825.472	0.0140791
825.550	0.0138490
825.628	0.0139754
825.706	0.0140051
825.785	0.0140247
825.863	0.0140742
825.941	0.0141042
826.019	0.0140590
826.097	0.0140230
826.175	0.0141048
826.253	0.0142023
826.331	0.0140029
826.410	0.0140528
826.488	0.0140677
826.566	0.0142033
826.644	0.0142213
826.722	0.0141469
826.800	0.0140280
826.878	0.0141942
826.956	0.0140321
827.035	0.0142094
827.113	0.0141148
827.191	0.0141682
827.269	0.0141037
827.347	0.0141135
827.425	0.0140597
827.503	0.0140957
827.581	0.0138665
827.660	0.0141066
827.738	0.0139033
827.816	0.0139359
827.894	0.0139605
827.972	0.0139754
828.050	0.0139867
828.128	0.0140004
828.206	0.0139365
828.285	0.0139610
828.363	0.0138428
828.441	0.0138953
828.519	0.0140405
828.597	0.0139647
828.675	0.0141206
828.753	0.0140307
828.831	0.0140759
828.910	0.0139015
828.988	0.0139301
829.066	0.0139999
829.144	0.0140135
829.222	0.0138579
829.300	0.0138898
829.378	0.0140222
829.456	0.0140074
829.535	0.0139487
829.613	0.0139552
829.691	0.0138910
829.769	0.0140885
829.847	0.0139275
829.925	0.0137832
830.003	0.0139787
830.081	0.0139587
830.160	0.0139950
830.238	0.0139063
830.316	0.0139076
830.394	0.0140057
830.472	0.0141148
830.550	0.0141118
830.628	0.0138226
830.706	0.0140810
830.785	0.0139642
830.863	0.0140682
830.941	0.0140617
831.019	0.0139882
831.097	0.0140755
831.175	0.0141489
831.253	0.0141090
831.331	0.0139375
831.410	0.0140527
831.488	0.0140378
831.566	0.0140633
831.644	0.0140559
831.722	0.0140300
831.800	0.0140425
831.878	0.0140785
831.956	0.0140345
832.035	0.0140256
832.113	0.0140422
832.191	0.0140616
832.269	0.0140358
832.347	0.0140555
832.425	0.0140630
832.503	0.0141613
832.581	0.0141240
832.660	0.0140737
832.738	0.0139935
832.816	0.0141059
832.894	0.0141003
832.972	0.0140754
833.050	0.0140210
833.128	0.0141113
833.206	0.0140280
833.285	0.0140910
833.363	0.0140572
833.441	0.0141388
833.519	0.0141873
833.597	0.0141695
833.675	0.0143204
833.753	0.0142484
833.831	0.0142875
833.910	0.0144346
833.988	0.0144034
834.066	0.0143475
834.144	0.0143559
834.222	0.0141608
834.300	0.0143114
834.378	0.0143331
834.456	0.0143736
834.535	0.0142111
834.613	0.0141566
834.691	0.0141299
834.769	0.0142136
834.847	0.0141825
834.925	0.0142097
835.003	0.0140461
835.081	0.0139999
835.160	0.0142106
835.238	0.0141549
835.316	0.0141682
835.394	0.0140742
835.472	0.0140495
835.550	0.0141908
835.628	0.0140878
835.706	0.0140563
835.785	0.0142089
835.863	0.0141420
835.941	0.0138942
836.019	0.0139622
836.097	0.0142235
836.175	0.0141144
836.253	0.0140350
836.331	0.0140251
836.410	0.0139475
836.488	0.0139658
836.566	0.0140734
836.644	0.0141561
836.722	0.0140231
836.800	0.0140125
836.878	0.0139677
836.956	0.0140503
837.035	0.0141000
837.113	0.0140809
837.191	0.0139177
837.269	0.0139680
837.347	0.0140201
837.425	0.0140933
837.503	0.0139012
837.581	0.0139324
837.660	0.0139338
837.738	0.0139920
837.816	0.0141387
837.894	0.0140049
837.972	0.0140937
838.050	0.0139826
838.128	0.0139561
838.206	0.0138887
838.285	0.0138988
838.363	0.0141039
838.441	0.0139973
838.519	0.0140092
838.597	0.0140955
838.675	0.0141089
838.753	0.0141190
838.831	0.0141611
838.910	0.0139661
838.988	0.0139934
839.066	0.0141811
839.144	0.0140492
839.222	0.0141158
839.300	0.0140620
839.378	0.0141364
839.456	0.0139194
839.535	0.0140305
839.613	0.0139928
839.691	0.0139976
839.769	0.0140224
839.847	0.0139858
839.925	0.0138950
840.003	0.0141078
840.081	0.0140630
840.160	0.0140232
840.238	0.0139412
840.316	0.0139582
840.394	0.0140833
840.472	0.0140987
840.550	0.0140279
840.628	0.0141882
840.706	0.0141825
840.785	0.0141199
840.863	0.0143797
840.941	0.0142900
841.019	0.0140267
841.097	0.0141611
841.175	0.0142671
841.253	0.0143813
841.331	0.0141959
841.410	0.0141044
841.488	0.0141779
841.566	0.0141266
841.644	0.0142960
841.722	0.0141566
841.800	0.0142285
841.878	0.0142634
841.956	0.0142991
842.035	0.0142362
842.113	0.0141019
842.191	0.0141203
842.269	0.0142258
842.347	0.0142394
842.425	0.0141560
842.503	0.0141222
842.581	0.0140916
842.660	0.0142211
842.738	0.0140925
842.816	0.0140463
842.894	0.0140961
842.972	0.0139611
843.050	0.0141254
843.128	0.0140716
843.206	0.0140727
843.285	0.0139691
843.363	0.0140082
843.441	0.0140820
843.519	0.0139873
843.597	0.0140245
843.675	0.0139897
843.753	0.0140147
843.831	0.0140183
843.910	0.0141250
843.988	0.0140231
844.066	0.0141053
844.144	0.0140717
844.222	0.0139408
844.300	0.0139416
844.378	0.0139960
844.456	0.0141639
844.535	0.0140684
844.613	0.0138735
844.691	0.0140029
844.769	0.0139688
844.847	0.0140097
844.925	0.0140577
845.003	0.0138914
845.081	0.0140813
845.160	0.0138545
845.238	0.0139290
845.316	0.0139548
845.394	0.0141571
845.472	0.0141029
845.550	0.0140564
845.628	0.0139879
845.706	0.0139558
845.785	0.0140704
845.863	0.0141049
845.941	0.0138608
846.019	0.0138857
846.097	0.0140570
846.175	0.0139614
846.253	0.0138575
846.331	0.0139441
846.410	0.0139620
846.488	0.0138765
846.566	0.0137966
846.644	0.0138345
846.722	0.0138201
846.800	0.0138210
846.878	0.0137157
846.956	0.0137796
847.035	0.0138410
847.113	0.0139114
847.191	0.0137433
847.269	0.0139012
847.347	0.0139606
847.425	0.0139902
847.503	0.0139170
847.581	0.0139890
847.660	0.0140846
847.738	0.0140172
847.816	0.0140264
847.894	0.0140414
847.972	0.0142249
848.050	0.0140569
848.128	0.0141346
848.206	0.0142015
848.285	0.0142026
848.363	0.0142361
848.441	0.0141146
848.519	0.0142431
848.597	0.0142575
848.675	0.0142597
848.753	0.0143218
848.831	0.0142198
848.910	0.0141301
848.988	0.0140295
849.066	0.0140240
849.144	0.0140543
849.222	0.0140076
849.300	0.0139912
849.378	0.0139433
849.456	0.0140128
849.535	0.0140507
849.613	0.0139880
849.691	0.0139993
849.769	0.0139882
849.847	0.0138982
849.925	0.0139466
850.003	0.0140212
850.081	0.0140237
850.160	0.0140009
850.238	0.0139681
850.316	0.0140443
850.394	0.0139146
850.472	0.0140019
850.550	0.0139366
850.628	0.0138539
850.706	0.0138411
850.785	0.0139028
850.863	0.0138110
850.941	0.0139012
851.019	0.0138245
851.097	0.0138661
851.175	0.0138383
851.253	0.0137560
851.331	0.0137997
851.410	0.0137942
851.488	0.0136997
851.566	0.0138095
851.644	0.0138717
851.722	0.0138766
851.800	0.0138277
851.878	0.0138522
851.956	0.0139350
852.035	0.0138602
852.113	0.0137447
852.191	0.0138608
852.269	0.0137793
852.347	0.0139336
852.425	0.0138406
852.503	0.0137486
852.581	0.0137966
852.660	0.0139960
852.738	0.0138609
852.816	0.0139780
852.894	0.0140492
852.972	0.0141031
853.050	0.0140579
853.128	0.0140612
853.206	0.0139756
853.285	0.0140463
853.363	0.0140771
853.441	0.0140097
853.519	0.0138930
853.597	0.0139830
853.675	0.0141068
853.753	0.0140592
853.831	0.0140594
853.910	0.0140134
853.988	0.0139951
854.066	0.0140683
854.144	0.0140571
854.222	0.0140155
854.300	0.0139035
854.378	0.0139548
854.456	0.0141023
854.535	0.0141528
854.613	0.0140637
854.691	0.0141418
854.769	0.0140692
854.847	0.0141234
854.925	0.0141767
855.003	0.0142728
855.081	0.0143865
855.160	0.0141241
855.238	0.0142911
855.316	0.0143110
855.394	0.0143085
855.472	0.0141306
855.550	0.0143803
855.628	0.0142758
855.706	0.0142239
855.785	0.0142950
855.863	0.0143840
855.941	0.0142317
856.019	0.0143198
856.097	0.0141305
856.175	0.0143022
856.253	0.0141972
856.331	0.0142986
856.410	0.0141615
856.488	0.0140813
856.566	0.0140787
856.644	0.0141900
856.722	0.0140866
856.800	0.0142063
856.878	0.0141251
856.956	0.0141544
857.035	0.0142646
857.113	0.0141480
857.191	0.0142831
857.269	0.0142167
857.347	0.0141071
857.425	0.0141078
857.503	0.0140848
857.581	0.0141283
857.660	0.0141902
857.738	0.0141242
857.816	0.0142124
857.894	0.0141202
857.972	0.0140238
858.050	0.0139848
858.128	0.0141378
858.206	0.0141040
858.285	0.0141207
858.363	0.0141198
858.441	0.0142145
858.519	0.0140604
858.597	0.0140496
858.675	0.0140102
858.753	0.0140965
858.831	0.0140327
858.910	0.0141551
858.988	0.0140189
859.066	0.0139755
859.144	0.0140694
859.222	0.0139909
859.300	0.0138791
859.378	0.0139977
859.456	0.0141444
859.535	0.0139568
859.613	0.0139191
859.691	0.0141068
859.769	0.0140981
859.847	0.0140254
859.925	0.0140138
860.003	0.0141279
860.081	0.0142028
860.160	0.0141724
860.238	0.0140777
860.316	0.0140747
860.394	0.0140390
860.472	0.0142355
860.550	0.0141093
860.628	0.0141702
860.706	0.0142429
860.785	0.0142119
860.863	0.0139162
860.941	0.0138874
861.019	0.0141727
861.097	0.0139526
861.175	0.0140208
861.253	0.0140124
861.331	0.0140391
861.410	0.0141492
861.488	0.0141673
861.566	0.0140255
861.644	0.0140892
861.722	0.0140464
861.800	0.0141673
861.878	0.0141988
861.956	0.0140945
862.035	0.0140658
862.113	0.0140741
862.191	0.0142223
862.269	0.0141786
862.347	0.0141000
862.425	0.0142802
862.503	0.0141293
862.581	0.0142696
862.660	0.0142729
862.738	0.0142203
862.816	0.0141766
862.894	0.0142064
862.972	0.0143491
863.050	0.0140763
863.128	0.0141487
863.206	0.0140114
863.285	0.0142019
863.363	0.0142526
863.441	0.0142197
863.519	0.0140698
863.597	0.0139294
863.675	0.0142883
863.753	0.0141942
863.831	0.0141076
863.910	0.0139442
863.988	0.0140646
864.066	0.0139854
864.144	0.0139635
864.222	0.0139271
864.300	0.0140150
864.378	0.0139568
864.456	0.0140807
864.535	0.0140162
864.613	0.0140199
864.691	0.0140365
864.769	0.0140144
864.847	0.0140134
864.925	0.0139006
865.003	0.0139674
865.081	0.0140500
865.160	0.0140049
865.238	0.0139906
865.316	0.0139886
865.394	0.0140482
865.472	0.0140356
865.550	0.0139657
865.628	0.0141893
865.706	0.0140514
865.785	0.0139398
865.863	0.0139280
865.941	0.0139939
866.019	0.0139429
866.097	0.0139355
866.175	0.0138576
866.253	0.0140289
866.331	0.0139678
866.410	0.0139650
866.488	0.0140279
866.566	0.0139898
866.644	0.0138900
866.722	0.0138692
866.800	0.0140307
866.878	0.0140498
866.956	0.0140008
867.035	0.0139835
867.113	0.0138995
867.191	0.0141506
867.269	0.0140131
867.347	0.0139794
867.425	0.0141140
867.503	0.0140327
867.581	0.0140996
867.660	0.0140035
867.738	0.0140312
867.816	0.0141807
867.894	0.0140466
867.972	0.0139609
868.050	0.0140739
868.128	0.0140593
868.206	0.0140290
868.285	0.0141717
868.363	0.0139557
868.441	0.0140495
868.519	0.0140803
868.597	0.0140931
868.675	0.0140893
868.753	0.0141306
868.831	0.0140326
868.910	0.0140903
868.988	0.0140852
869.066	0.0143022
869.144	0.0141273
869.222	0.0141024
869.300	0.0141678
869.378	0.0142205
869.456	0.0141981
869.535	0.0142352
869.613	0.0143414
869.691	0.0140806
869.769	0.0142037
869.847	0.0143136
869.925	0.0144138
870.003	0.0144070
870.081	0.0142484
870.160	0.0143063
870.238	0.0144167
870.316	0.0145000
870.394	0.0143449
870.472	0.0144460
870.550	0.0141797
870.628	0.0140852
870.706	0.0142240
870.785	0.0141361
870.863	0.0140306
870.941	0.0141114
871.019	0.0141275
871.097	0.0141628
871.175	0.0141078
871.253	0.0141649
871.331	0.0140154
871.410	0.0140185
871.488	0.0141567
871.566	0.0140849
871.644	0.0142072
871.722	0.0141065
871.800	0.0140896
871.878	0.0141561
871.956	0.0140459
872.035	0.0141411
872.113	0.0139990
872.191	0.0140575
872.269	0.0141148
872.347	0.0140417
872.425	0.0140473
872.503	0.0140424
872.581	0.0141103
872.660	0.0141673
872.738	0.0139982
872.816	0.0139411
872.894	0.0140535
872.972	0.0139697
873.050	0.0139230
873.128	0.0139415
873.206	0.0138794
873.285	0.0140155
873.363	0.0141100
873.441	0.0138966
873.519	0.0139328
873.597	0.0138504
873.675	0.0137970
873.753	0.0139507
873.831	0.0139462
873.910	0.0139196
873.988	0.0138862
874.066	0.0138831
874.144	0.0139085
874.222	0.0139692
874.300	0.0138622
874.378	0.0138641
874.456	0.0138019
874.535	0.0139455
874.613	0.0139741
874.691	0.0139040
874.769	0.0139819
874.847	0.0138608
874.925	0.0139670
875.003	0.0138425
875.081	0.0138804
875.160	0.0139555
875.238	0.0139025
875.316	0.0139279
875.394	0.0139406
875.472	0.0138274
875.550	0.0138230
875.628	0.0138609
875.706	0.0139111
875.785	0.0139473
875.863	0.0139568
875.941	0.0138498
876.019	0.0139574
876.097	0.0137544
876.175	0.0137971
876.253	0.0139071
876.331	0.0141077
876.410	0.0139737
876.488	0.0140851
876.566	0.0140314
876.644	0.0140046
876.722	0.0140885
876.800	0.0140428
876.878	0.0141350
876.956	0.0142869
877.035	0.0141351
877.113	0.0142091
877.191	0.0141334
877.269	0.0142515
877.347	0.0142720
877.425	0.0142061
877.503	0.0142152
877.581	0.0142284
877.660	0.0141589
877.738	0.0141605
877.816	0.0140603
877.894	0.0142588
877.972	0.0142167
878.050	0.0141039
878.128	0.0140456
878.206	0.0140740
878.285	0.0141090
878.363	0.0140694
878.441	0.0140298
878.519	0.0138901
878.597	0.0139722
878.675	0.0140524
878.753	0.0139608
878.831	0.0139813
878.910	0.0140571
878.988	0.0140160
879.066	0.0140150
879.144	0.0138642
879.222	0.0139536
879.300	0.0140064
879.378	0.0141415
879.456	0.0140581
879.535	0.0140173
879.613	0.0140819
879.691	0.0140359
879.769	0.0140391
879.847	0.0140855
879.925	0.0139654
880.003	0.0140058
880.081	0.0141375
880.160	0.0140488
880.238	0.0140376
880.316	0.0139906
880.394	0.0138003
880.472	0.0139613
880.550	0.0140047
880.628	0.0139363
880.706	0.0138398
880.785	0.0138374
880.863	0.0140108
880.941	0.0140255
881.019	0.0138593
881.097	0.0138371
881.175	0.0137557
881.253	0.0139443
881.331	0.0138686
881.410	0.0139081
881.488	0.0138483
881.566	0.0139302
881.644	0.0138928
881.722	0.0138497
881.800	0.0138438
881.878	0.0138506
881.956	0.0139664
882.035	0.0139399
882.113	0.0138676
882.191	0.0138747
882.269	0.0139001
882.347	0.0138863
882.425	0.0139210
882.503	0.0140340
882.581	0.0139227
882.660	0.0138666
882.738	0.0138585
882.816	0.0139041
882.894	0.0140289
882.972	0.0139060
883.050	0.0139429
883.128	0.0140306
883.206	0.0139793
883.285	0.0140479
883.363	0.0139806
883.441	0.0139658
883.519	0.0142017
883.597	0.0141161
883.675	0.0141235
883.753	0.0141346
883.831	0.0141625
883.910	0.0141170
883.988	0.0141635
884.066	0.0142918
884.144	0.0141665
884.222	0.0142200
884.300	0.0143453
884.378	0.0143378
884.456	0.0142725
884.535	0.0142503
884.613	0.0143229
884.691	0.0143116
884.769	0.0143014
884.847	0.0143224
884.925	0.0143015
885.003	0.0142953
885.081	0.0143227
885.160	0.0142582
885.238	0.0142222
885.316	0.0141981
885.394	0.0142212
885.472	0.0142816
885.550	0.0142259
885.628	0.0141881
885.706	0.0141783
885.785	0.0143449
885.863	0.0141692
885.941	0.0140922
886.019	0.0140966
886.097	0.0142742
886.175	0.0141219
886.253	0.0140737
886.331	0.0141901
886.410	0.0142712
886.488	0.0140628
886.566	0.0139736
886.644	0.0140253
886.722	0.0140639
886.800	0.0140912
886.878	0.0140226
886.956	0.0140904
887.035	0.0140273
887.113	0.0140521
887.191	0.0139881
887.269	0.0139506
887.347	0.0140492
887.425	0.0140392
887.503	0.0138928
887.581	0.0139280
887.660	0.0140132
887.738	0.0139901
887.816	0.0140542
887.894	0.0141321
887.972	0.0140450
888.050	0.0140103
888.128	0.0140388
888.206	0.0140253
888.285	0.0140217
888.363	0.0139888
888.441	0.0140890
888.519	0.0140670
888.597	0.0141195
888.675	0.0139774
888.753	0.0141018
888.831	0.0142240
888.910	0.0140446
888.988	0.0140851
889.066	0.0141161
889.144	0.0140820
889.222	0.0142014
889.300	0.0141795
889.378	0.0142429
889.456	0.0141415
889.535	0.0141563
889.613	0.0139788
889.691	0.0139352
889.769	0.0139318
889.847	0.0140141
889.925	0.0140517
890.003	0.0139499
890.081	0.0140199
890.160	0.0139430
890.238	0.0139816
890.316	0.0140205
890.394	0.0138832
890.472	0.0140072
890.550	0.0139184
890.628	0.0140482
890.706	0.0140225
890.785	0.0139880
890.863	0.0141341
890.941	0.0141717
891.019	0.0141495
891.097	0.0141953
891.175	0.0141799
891.253	0.0141690
891.331	0.0141437
891.410	0.0142122
891.488	0.0143866
891.566	0.0142577
891.644	0.0142535
891.722	0.0142535
891.800	0.0142522
891.878	0.0143850
891.956	0.0144374
892.035	0.0143411
892.113	0.0141786
892.191	0.0142130
892.269	0.0142597
892.347	0.0143710
892.425	0.0142704
892.503	0.0141649
892.581	0.0141515
892.660	0.0141457
892.738	0.0141180
892.816	0.0141159
892.894	0.0141723
892.972	0.0140957
893.050	0.0139959
893.128	0.0140440
893.206	0.0140858
893.285	0.0140979
893.363	0.0139841
893.441	0.0140231
893.519	0.0140026
893.597	0.0140611
893.675	0.0141323
893.753	0.0139375
893.831	0.0139645
893.910	0.0138832
893.988	0.0139414
894.066	0.0138885
894.144	0.0138033
894.222	0.0138272
894.300	0.0139272
894.378	0.0138304
894.456	0.0139250
894.535	0.0140053
894.613	0.0138147
894.691	0.0137705
894.769	0.0138490
894.847	0.0139266
894.925	0.0138650
895.003	0.0136959
895.081	0.0138232
895.160	0.0137688
895.238	0.0137894
895.316	0.0139635
895.394	0.0138750
895.472	0.0138751
895.550	0.0138467
895.628	0.0138982
895.706	0.0139576
895.785	0.0138255
895.863	0.0138610
895.941	0.0138890
896.019	0.0139504
896.097	0.0139035
896.175	0.0138435
896.253	0.0138663
896.331	0.0139256
896.410	0.0139629
896.488	0.0139889
896.566	0.0140639
896.644	0.0139391
896.722	0.0140144
896.800	0.0140747
896.878	0.0140106
896.956	0.0139682
897.035	0.0139306
897.113	0.0138457
897.191	0.0140184
897.269	0.0139879
897.347	0.0140756
897.425	0.0140841
897.503	0.0139455
897.581	0.0140686
897.660	0.0139167
897.738	0.0140752
897.816	0.0139514
897.894	0.0140373
897.972	0.0140818
898.050	0.0140579
898.128	0.0140350
898.206	0.0140259
898.285	0.0140851
898.363	0.0140884
898.441	0.0141591
898.519	0.0141687
898.597	0.0143418
898.675	0.0141962
898.753	0.0142247
898.831	0.0140851
898.910	0.0143302
898.988	0.0143037
899.066	0.0142697
899.144	0.0142843
899.222	0.0142794
899.300	0.0143117
899.378	0.0142345
899.456	0.0145100
899.535	0.0141853
899.613	0.0141269
899.691	0.0141231
899.769	0.0141264
899.847	0.0142216
899.925	0.0141064
900.003	0.0139757
900.081	0.0141154
900.160	0.0140549
900.238	0.0139649
900.316	0.0140694
900.394	0.0140766
900.472	0.0139880
900.550	0.0140523
900.628	0.0141644
900.706	0.0140716
900.785	0.0141759
900.863	0.0141621
900.941	0.0139867
901.019	0.0141033
901.097	0.0139537
901.175	0.0141113
901.253	0.0139635
901.331	0.0140105
901.410	0.0139831
901.488	0.0140006
901.566	0.0139819
901.644	0.0140334
901.722	0.0140578
901.800	0.0139384
901.878	0.0139952
901.956	0.0140755
902.035	0.0139065
902.113	0.0139210
902.191	0.0140816
902.269	0.0139832
902.347	0.0139728
902.425	0.0139762
902.503	0.0140911
902.581	0.0140409
902.660	0.0140365
902.738	0.0140913
902.816	0.0140587
902.894	0.0140875
902.972	0.0141547
903.050	0.0141069
903.128	0.0139609
903.206	0.0139240
903.285	0.0139357
903.363	0.0139522
903.441	0.0140809
903.519	0.0140704
903.597	0.0140720
903.675	0.0139333
903.753	0.0139096
903.831	0.0140584
903.910	0.0140135
903.988	0.0140129
904.066	0.0139767
904.144	0.0139684
904.222	0.0140375
904.300	0.0139565
904.378	0.0140152
904.456	0.0139292
904.535	0.0139835
904.613	0.0139359
904.691	0.0139755
904.769	0.0139545
904.847	0.0141083
904.925	0.0140255
905.003	0.0140228
905.081	0.0139855
905.160	0.0138656
905.238	0.0140195
905.316	0.0140730
905.394	0.0141261
905.472	0.0141067
905.550	0.0140697
905.628	0.0140640
905.706	0.0139922
905.785	0.0141647
905.863	0.0141796
905.941	0.0141475
906.019	0.0143361
906.097	0.0143095
906.175	0.0142859
906.253	0.0142949
906.331	0.0142640
906.410	0.0141726
906.488	0.0143860
906.566	0.0142860
906.644	0.0142673
906.722	0.0142488
906.800	0.0141484
906.878	0.0141316
906.956	0.0142145
907.035	0.0141486
907.113	0.0142477
907.191	0.0142143
907.269	0.0141043
907.347	0.0140507
907.425	0.0141633
907.503	0.0139841
907.581	0.0139610
907.660	0.0141317
907.738	0.0140421
907.816	0.0138975
907.894	0.0139919
907.972	0.0141682
908.050	0.0140799
908.128	0.0139113
908.206	0.0139650
908.285	0.0140157
908.363	0.0141309
908.441	0.0140292
908.519	0.0139406
908.597	0.0139027
908.675	0.0140013
908.753	0.0140813
908.831	0.0140205
908.910	0.0139472
908.988	0.0139374
909.066	0.0140571
909.144	0.0139529
909.222	0.0140055
909.300	0.0139327
909.378	0.0139357
909.456	0.0140108
909.535	0.0139978
909.613	0.0139516
909.691	0.0140004
909.769	0.0141022
909.847	0.0139809
909.925	0.0139192
910.003	0.0138893
910.081	0.0138284
910.160	0.0139933
910.238	0.0140350
910.316	0.0138281
910.394	0.0138993
910.472	0.0140227
910.550	0.0137947
910.628	0.0139215
910.706	0.0139707
910.785	0.0138873
910.863	0.0138314
910.941	0.0139977
911.019	0.0138318
911.097	0.0139022
911.175	0.0138831
911.253	0.0139944
911.331	0.0139340
911.410	0.0140316
911.488	0.0139989
911.566	0.0139662
911.644	0.0140291
911.722	0.0139358
911.800	0.0139675
911.878	0.0139134
911.956	0.0140044
912.035	0.0139957
912.113	0.0138201
912.191	0.0139832
912.269	0.0140273
912.347	0.0140023
912.425	0.0139281
912.503	0.0138678
912.581	0.0140115
912.660	0.0139878
912.738	0.0139648
912.816	0.0140257
912.894	0.0140363
912.972	0.0139679
913.050	0.0140356
913.128	0.0140885
913.206	0.0140286
913.285	0.0141505
913.363	0.0140598
913.441	0.0139999
913.519	0.0141333
913.597	0.0141333
913.675	0.0140688
913.753	0.0142252
913.831	0.0143041
913.910	0.0142995
913.988	0.0140776
914.066	0.0141756
914.144	0.0141245
914.222	0.0141314
914.300	0.0142111
914.378	0.0140964
914.456	0.0140495
914.535	0.0139788
914.613	0.0140703
914.691	0.0140056
914.769	0.0139760
914.847	0.0140110
914.925	0.0141441
915.003	0.0138564
915.081	0.0139410
915.160	0.0139664
915.238	0.0140434
915.316	0.0141180
915.394	0.0139752
915.472	0.0140345
915.550	0.0140823
915.628	0.0141048
915.706	0.0140292
915.785	0.0141029
915.863	0.0141077
915.941	0.0141418
916.019	0.0141438
916.097	0.0141041
916.175	0.0141168
916.253	0.0141187
916.331	0.0141853
916.410	0.0141602
916.488	0.0140672
916.566	0.0141471
916.644	0.0141846
916.722	0.0140926
916.800	0.0142433
916.878	0.0140860
916.956	0.0139742
917.035	0.0141500
917.113	0.0141966
917.191	0.0142024
917.269	0.0142143
917.347	0.0140303
917.425	0.0141039
917.503	0.0141933
917.581	0.0141892
917.660	0.0141844
917.738	0.0142010
917.816	0.0140714
917.894	0.0141455
917.972	0.0141119
918.050	0.0141410
918.128	0.0141793
918.206	0.0140089
918.285	0.0140692
918.363	0.0140542
918.441	0.0141192
918.519	0.0140031
918.597	0.0140271
918.675	0.0140216
918.753	0.0139447
918.831	0.0140836
918.910	0.0137669
918.988	0.0138538
919.066	0.0139948
919.144	0.0138869
919.222	0.0137386
919.300	0.0138541
919.378	0.0138907
919.456	0.0138467
919.535	0.0138145
919.613	0.0137789
919.691	0.0138589
919.769	0.0138171
919.847	0.0138763
919.925	0.0138747
920.003	0.0138546
920.081	0.0139370
920.160	0.0139575
920.238	0.0140241
920.316	0.0138980
920.394	0.0138967
920.472	0.0138945
920.550	0.0139955
920.628	0.0140052
920.706	0.0139877
920.785	0.0142570
920.863	0.0142209
920.941	0.0140887
921.019	0.0140279
921.097	0.0140958
921.175	0.0140874
921.253	0.0141669
921.331	0.0141898
921.410	0.0141205
921.488	0.0139876
921.566	0.0142644
921.644	0.0141555
921.722	0.0140038
921.800	0.0141183
921.878	0.0139959
921.956	0.0140482
922.035	0.0141323
922.113	0.0139783
922.191	0.0139827
922.269	0.0140305
922.347	0.0140923
922.425	0.0139833
922.503	0.0139018
922.581	0.0139918
922.660	0.0141245
922.738	0.0140888
922.816	0.0140974
922.894	0.0139142
922.972	0.0140516
923.050	0.0140974
923.128	0.0141261
923.206	0.0140557
923.285	0.0142178
923.363	0.0141027
923.441	0.0140794
923.519	0.0140154
923.597	0.0140508
923.675	0.0139745
923.753	0.0140459
923.831	0.0141147
923.910	0.0139948
923.988	0.0139760
924.066	0.0139164
924.144	0.0138263
924.222	0.0139353
924.300	0.0139268
924.378	0.0139606
924.456	0.0138766
924.535	0.0139771
924.613	0.0140386
924.691	0.0139462
924.769	0.0139844
924.847	0.0140474
924.925	0.0139983
925.003	0.0139652
925.081	0.0138205
925.160	0.0140097
925.238	0.0139731
925.316	0.0141392
925.394	0.0140504
925.472	0.0139130
925.550	0.0140562
925.628	0.0140853
925.706	0.0139437
925.785	0.0140362
925.863	0.0140810
925.941	0.0140913
926.019	0.0140977
926.097	0.0139587
926.175	0.0140771
926.253	0.0140339
926.331	0.0140211
926.410	0.0141227
926.488	0.0139699
926.566	0.0140268
926.644	0.0140929
926.722	0.0140120
926.800	0.0141153
926.878	0.0140692
926.956	0.0140935
927.035	0.0142827
927.113	0.0141024
927.191	0.0141431
927.269	0.0141650
927.347	0.0141153
927.425	0.0140657
927.503	0.0142071
927.581	0.0141484
927.660	0.0141846
927.738	0.0142646
927.816	0.0143041
927.894	0.0144534
927.972	0.0142393
928.050	0.0144135
928.128	0.0144102
928.206	0.0142005
928.285	0.0142436
928.363	0.0142392
928.441	0.0144314
928.519	0.0142530
928.597	0.0142335
928.675	0.0141544
928.753	0.0141267
928.831	0.0141502
928.910	0.0141178
928.988	0.0140337
929.066	0.0141451
929.144	0.0140694
929.222	0.0140742
929.300	0.0138213
929.378	0.0139005
929.456	0.0140806
929.535	0.0141161
929.613	0.0139863
929.691	0.0140440
929.769	0.0140701
929.847	0.0139719
929.925	0.0140173
930.003	0.0140820
930.081	0.0141156
930.160	0.0139809
930.238	0.0140460
930.316	0.0139835
930.394	0.0140564
930.472	0.0139686
930.550	0.0139577
930.628	0.0141249
930.706	0.0140582
930.785	0.0141427
930.863	0.0140597
930.941	0.0140202
931.019	0.0139589
931.097	0.0139931
931.175	0.0139942
931.253	0.0139040
931.331	0.0138396
931.410	0.0140175
931.488	0.0139487
931.566	0.0139883
931.644	0.0140622
931.722	0.0139949
931.800	0.0140036
931.878	0.0139742
931.956	0.0139591
932.035	0.0141637
932.113	0.0139188
932.191	0.0140530
932.269	0.0139563
932.347	0.0140232
932.425	0.0139082
932.503	0.0138966
932.581	0.0139436
932.660	0.0139445
932.738	0.0140630
932.816	0.0139764
932.894	0.0141705
932.972	0.0140363
933.050	0.0140894
933.128	0.0141075
933.206	0.0139864
933.285	0.0139672
933.363	0.0140385
933.441	0.0140576
933.519	0.0140150
933.597	0.0139425
933.675	0.0139834
933.753	0.0141434
933.831	0.0142527
933.910	0.0140701
933.988	0.0138972
934.066	0.0139719
934.144	0.0141058
934.222	0.0140508
934.300	0.0140540
934.378	0.0141330
934.456	0.0142255
934.535	0.0139989
934.613	0.0139564
934.691	0.0142083
934.769	0.0140765
934.847	0.0140595
934.925	0.0141132
935.003	0.0141438
935.081	0.0142274
935.160	0.0142123
935.238	0.0141229
935.316	0.0141951
935.394	0.0141601
935.472	0.0142068
935.550	0.0141759
935.628	0.0141555
935.706	0.0142050
935.785	0.0141656
935.863	0.0141116
935.941	0.0141099
936.019	0.0140294
936.097	0.0140245
936.175	0.0140711
936.253	0.0141335
936.331	0.0140765
936.410	0.0140180
936.488	0.0140284
936.566	0.0138974
936.644	0.0139980
936.722	0.0140597
936.800	0.0140797
936.878	0.0140332
936.956	0.0139710
937.035	0.0140022
937.113	0.0140922
937.191	0.0140538
937.269	0.0139913
937.347	0.0140014
937.425	0.0139606
937.503	0.0140382
937.581	0.0142120
937.660	0.0141077
937.738	0.0139351
937.816	0.0140106
937.894	0.0140663
937.972	0.0141155
938.050	0.0142584
938.128	0.0139591
938.206	0.0138983
938.285	0.0140273
938.363	0.0140032
938.441	0.0140718
938.519	0.0139362
938.597	0.0138660
938.675	0.0139043
938.753	0.0139462
938.831	0.0138467
938.910	0.0139720
938.988	0.0139365
939.066	0.0139423
939.144	0.0140029
939.222	0.0139034
939.300	0.0139171
939.378	0.0140211
939.456	0.0140921
939.535	0.0139039
939.613	0.0138002
939.691	0.0138840
939.769	0.0139285
939.847	0.0139870
939.925	0.0138567
940.003	0.0139993
940.081	0.0140548
940.160	0.0139683
940.238	0.0140442
940.316	0.0138885
940.394	0.0139370
940.472	0.0140548
940.550	0.0140378
940.628	0.0140063
940.706	0.0141387
940.785	0.0140187
940.863	0.0141852
940.941	0.0141173
941.019	0.0140845
941.097	0.0139963
941.175	0.0139186
941.253	0.0138940
941.331	0.0138988
941.410	0.0139844
941.488	0.0140626
941.566	0.0139401
941.644	0.0138709
941.722	0.0140780
941.800	0.0139231
941.878	0.0139468
941.956	0.0140115
942.035	0.0140627
942.113	0.0139394
942.191	0.0139466
942.269	0.0141966
942.347	0.0141054
942.425	0.0139200
942.503	0.0140147
942.581	0.0140978
942.660	0.0140620
942.738	0.0141075
942.816	0.0141740
942.894	0.0141581
942.972	0.0141636
943.050	0.0140545
943.128	0.0140640
943.206	0.0140574
943.285	0.0140974
943.363	0.0139902
943.441	0.0140432
943.519	0.0140809
943.597	0.0141178
943.675	0.0140984
943.753	0.0139587
943.831	0.0139476
943.910	0.0140188
943.988	0.0138510
944.066	0.0139577
944.144	0.0139292
944.222	0.0140556
944.300	0.0140730
944.378	0.0141594
944.456	0.0140696
944.535	0.0140697
944.613	0.0139891
944.691	0.0141106
944.769	0.0141728
944.847	0.0140263
944.925	0.0139555
945.003	0.0139940
945.081	0.0139880
945.160	0.0140064
945.238	0.0140264
945.316	0.0140730
945.394	0.0141182
945.472	0.0140487
945.550	0.0139546
945.628	0.0140096
945.706	0.0139990
945.785	0.0141135
945.863	0.0140771
945.941	0.0138896
946.019	0.0139706
946.097	0.0141626
946.175	0.0139401
946.253	0.0140347
946.331	0.0141228
946.410	0.0140099
946.488	0.0139539
946.566	0.0140677
946.644	0.0140446
946.722	0.0139806
946.800	0.0139712
946.878	0.0141248
946.956	0.0141051
947.035	0.0141204
947.113	0.0141295
947.191	0.0141963
947.269	0.0140246
947.347	0.0140707
947.425	0.0141692
947.503	0.0140260
947.581	0.0139429
947.660	0.0140202
947.738	0.0141026
947.816	0.0140331
947.894	0.0141001
947.972	0.0140612
948.050	0.0142085
948.128	0.0140324
948.206	0.0140102
948.285	0.0139563
948.363	0.0139950
948.441	0.0139274
948.519	0.0138291
948.597	0.0138867
948.675	0.0139417
948.753	0.0138792
948.831	0.0138824
948.910	0.0140011
948.988	0.0139686
949.066	0.0140542
949.144	0.0140457
949.222	0.0139060
949.300	0.0140494
949.378	0.0140661
949.456	0.0140581
949.535	0.0140967
949.613	0.0140420
949.691	0.0140981
949.769	0.0141787
949.847	0.0141940
949.925	0.0141411
950.003	0.0141048
950.081	0.0142146
950.160	0.0142131
950.238	0.0141374
950.316	0.0141825
950.394	0.0141825
950.472	0.0140272
950.550	0.0140631
950.628	0.0141029
950.706	0.0140962
950.785	0.0139253
950.863	0.0139300
950.941	0.0141286
951.019	0.0139780
951.097	0.0140783
951.175	0.0140624
951.253	0.0140402
951.331	0.0140108
951.410	0.0141369
951.488	0.0141940
951.566	0.0140541
951.644	0.0140079
951.722	0.0141186
951.800	0.0140913
951.878	0.0143259
951.956	0.0141899
952.035	0.0141115
952.113	0.0141445
952.191	0.0142035
952.269	0.0139912
952.347	0.0140708
952.425	0.0141088
952.503	0.0139992
952.581	0.0140589
952.660	0.0140590
952.738	0.0140866
952.816	0.0139571
952.894	0.0139940
952.972	0.0140437
953.050	0.0140714
953.128	0.0139416
953.206	0.0139312
953.285	0.0139948
953.363	0.0139127
953.441	0.0139028
953.519	0.0140005
953.597	0.0139783
953.675	0.0140208
953.753	0.0139868
953.831	0.0139345
953.910	0.0139165
953.988	0.0138773
954.066	0.0139368
954.144	0.0137856
954.222	0.0139584
954.300	0.0140294
954.378	0.0138139
954.456	0.0138068
954.535	0.0139677
954.613	0.0139307
954.691	0.0139312
954.769	0.0139585
954.847	0.0138451
954.925	0.0138322
955.003	0.0139414
955.081	0.0140011
955.160	0.0140041
955.238	0.0138109
955.316	0.0138167
955.394	0.0139358
955.472	0.0140356
955.550	0.0139289
955.628	0.0139706
955.706	0.0139912
955.785	0.0140585
955.863	0.0138757
955.941	0.0138467
956.019	0.0139137
956.097	0.0139991
956.175	0.0137946
956.253	0.0139488
956.331	0.0138980
956.410	0.0139017
956.488	0.0140149
956.566	0.0140670
956.644	0.0139001
956.722	0.0139885
956.800	0.0140347
956.878	0.0139984
956.956	0.0140489
957.035	0.0140871
957.113	0.0140573
957.191	0.0141372
957.269	0.0142521
957.347	0.0141998
957.425	0.0140569
957.503	0.0141224
957.581	0.0141504
957.660	0.0142488
957.738	0.0142080
957.816	0.0141721
957.894	0.0141507
957.972	0.0139986
958.050	0.0141166
958.128	0.0140656
958.206	0.0140583
958.285	0.0141315
958.363	0.0141959
958.441	0.0142010
958.519	0.0141842
958.597	0.0140645
958.675	0.0142870
958.753	0.0141314
958.831	0.0141708
958.910	0.0140675
958.988	0.0142577
959.066	0.0142710
959.144	0.0143428
959.222	0.0141807
959.300	0.0141379
959.378	0.0143211
959.456	0.0143007
959.535	0.0141594
959.613	0.0141969
959.691	0.0141341
959.769	0.0140944
959.847	0.0139970
959.925	0.0140757
960.003	0.0140517
960.081	0.0141145
960.160	0.0140962
960.238	0.0140567
960.316	0.0139066
960.394	0.0138901
960.472	0.0138866
960.550	0.0137839
960.628	0.0138768
960.706	0.0138402
960.785	0.0139148
960.863	0.0139372
960.941	0.0139815
961.019	0.0136467
961.097	0.0138137
961.175	0.0138755
961.253	0.0138866
961.331	0.0139093
961.410	0.0138966
961.488	0.0139695
961.566	0.0138880
961.644	0.0139672
961.722	0.0139643
961.800	0.0139517
961.878	0.0139612
961.956	0.0140182
962.035	0.0140611
962.113	0.0139528
962.191	0.0139399
962.269	0.0140691
962.347	0.0139423
962.425	0.0139694
962.503	0.0140362
962.581	0.0139183
962.660	0.0140066
962.738	0.0139223
962.816	0.0138531
962.894	0.0139268
962.972	0.0139792
963.050	0.0140829
963.128	0.0140833
963.206	0.0140502
963.285	0.0139108
963.363	0.0141732
963.441	0.0142046
963.519	0.0140187
963.597	0.0141077
963.675	0.0140181
963.753	0.0140866
963.831	0.0141230
963.910	0.0140139
963.988	0.0140819
964.066	0.0139712
964.144	0.0141180
964.222	0.0141393
964.300	0.0140981
964.378	0.0140604
964.456	0.0141540
964.535	0.0140710
964.613	0.0142468
964.691	0.0141599
964.769	0.0142303
964.847	0.0142115
964.925	0.0142374
965.003	0.0140111
965.081	0.0141889
965.160	0.0141113
965.238	0.0141755
965.316	0.0140266
965.394	0.0141438
965.472	0.0141208
965.550	0.0139653
965.628	0.0140343
965.706	0.0141327
965.785	0.0140096
965.863	0.0141169
965.941	0.0139622
966.019	0.0138746
966.097	0.0140864
966.175	0.0141547
966.253	0.0139286
966.331	0.0138691
966.410	0.0138503
966.488	0.0140568
966.566	0.0139094
966.644	0.0137989
966.722	0.0139310
966.800	0.0140073
966.878	0.0138866
966.956	0.0138560
967.035	0.0140639
967.113	0.0140315
967.191	0.0138921
967.269	0.0139238
967.347	0.0139681
967.425	0.0139174
967.503	0.0138967
967.581	0.0139777
967.660	0.0138574
967.738	0.0138142
967.816	0.0138878
967.894	0.0137338
967.972	0.0138314
968.050	0.0138907
968.128	0.0139880
968.206	0.0139297
968.285	0.0139257
968.363	0.0139238
968.441	0.0140150
968.519	0.0138267
968.597	0.0139917
968.675	0.0140367
968.753	0.0140413
968.831	0.0140190
968.910	0.0139659
968.988	0.0139738
969.066	0.0140845
969.144	0.0141727
969.222	0.0141725
969.300	0.0141056
969.378	0.0140464
969.456	0.0140024
969.535	0.0140467
969.613	0.0142137
969.691	0.0141428
969.769	0.0141322
969.847	0.0140989
969.925	0.0141975
970.003	0.0141590
970.081	0.0141599
970.160	0.0141259
970.238	0.0141862
970.316	0.0141042
970.394	0.0140657
970.472	0.0141269
970.550	0.0141677
970.628	0.0143226
970.706	0.0140681
970.785	0.0139561
970.863	0.0140392
970.941	0.0142464
971.019	0.0141762
971.097	0.0140681
971.175	0.0140569
971.253	0.0141137
971.331	0.0141270
971.410	0.0140123
971.488	0.0141486
971.566	0.0142030
971.644	0.0141275
971.722	0.0140876
971.800	0.0141677
971.878	0.0142724
971.956	0.0141892
972.035	0.0142398
972.113	0.0142480
972.191	0.0142577
972.269	0.0142831
972.347	0.0142847
972.425	0.0141598
972.503	0.0141029
972.581	0.0142425
972.660	0.0142020
972.738	0.0142667
972.816	0.0139881
972.894	0.0142110
972.972	0.0141139
973.050	0.0141654
973.128	0.0140394
973.206	0.0141364
973.285	0.0141465
973.363	0.0140858
973.441	0.0139633
973.519	0.0141666
973.597	0.0142303
973.675	0.0140504
973.753	0.0141003
973.831	0.0140506
973.910	0.0140912
973.988	0.0141081
974.066	0.0141970
974.144	0.0140229
974.222	0.0140672
974.300	0.0141389
974.378	0.0141302
974.456	0.0140627
974.535	0.0140479
974.613	0.0139896
974.691	0.0140516
974.769	0.0140107
974.847	0.0139695
974.925	0.0139453
975.003	0.0141307
975.081	0.0141145
975.160	0.0140396
975.238	0.0139943
975.316	0.0139762
975.394	0.0139145
975.472	0.0139738
975.550	0.0139545
975.628	0.0141776
975.706	0.0141545
975.785	0.0140314
975.863	0.0140909
975.941	0.0140174
976.019	0.0140732
976.097	0.0139647
976.175	0.0139417
976.253	0.0140171
976.331	0.0140041
976.410	0.0140833
976.488	0.0140154
976.566	0.0138951
976.644	0.0139731
976.722	0.0140546
976.800	0.0139687
976.878	0.0140067
976.956	0.0140431
977.035	0.0139338
977.113	0.0139146
977.191	0.0140158
977.269	0.0139452
977.347	0.0139023
977.425	0.0140796
977.503	0.0139304
977.581	0.0139030
977.660	0.0140731
977.738	0.0139367
977.816	0.0138918
977.894	0.0140068
977.972	0.0139552
978.050	0.0140420
978.128	0.0138453
978.206	0.0138169
978.285	0.0139317
978.363	0.0139201
978.441	0.0138830
978.519	0.0138775
978.597	0.0139301
978.675	0.0139754
978.753	0.0139693
978.831	0.0140264
978.910	0.0140485
978.988	0.0140104
979.066	0.0140272
979.144	0.0140052
979.222	0.0140371
979.300	0.0140811
979.378	0.0141183
979.456	0.0140986
979.535	0.0141373
979.613	0.0141392
979.691	0.0141222
979.769	0.0140008
979.847	0.0140452
979.925	0.0141455
