05/03/2022	20:45:18	Ver.	4.1	UNKNOWN
Optical Delay	660.003261	Delta X		0.078125	Sweeps	1	Scan Rate	0/0
Coordinates	Axis 1	NaN	Axis 2	NaN	Axis 3	NaN	Axis 4	NaN	Axis 5	NaN	Axis 6	0.000000
TX Power	0.000000	RX Power	0.000000

660.003	0.0146082
660.081	0.0147441
660.160	0.0147649
660.238	0.0147298
660.316	0.0146743
660.394	0.0146458
660.472	0.0145473
660.550	0.0146175
660.628	0.0145536
660.706	0.0145659
660.785	0.0146672
660.863	0.0144756
660.941	0.0144164
661.019	0.0146149
661.097	0.0146966
661.175	0.0145891
661.253	0.0144288
661.331	0.0146500
661.410	0.0145952
661.488	0.0147156
661.566	0.0146722
661.644	0.0145954
661.722	0.0146723
661.800	0.0145100
661.878	0.0146989
661.956	0.0146495
662.035	0.0147054
662.113	0.0146172
662.191	0.0145411
662.269	0.0146397
662.347	0.0145473
662.425	0.0146626
662.503	0.0147457
662.581	0.0146317
662.660	0.0145751
662.738	0.0146312
662.816	0.0146140
662.894	0.0146741
662.972	0.0146878
663.050	0.0145982
663.128	0.0146351
663.206	0.0147563
663.285	0.0146019
663.363	0.0146687
663.441	0.0146278
663.519	0.0145274
663.597	0.0145746
663.675	0.0146447
663.753	0.0145983
663.831	0.0146455
663.910	0.0145811
663.988	0.0146474
664.066	0.0145058
664.144	0.0146094
664.222	0.0146863
664.300	0.0145061
664.378	0.0146570
664.456	0.0146355
664.535	0.0145486
664.613	0.0146149
664.691	0.0145991
664.769	0.0147803
664.847	0.0146960
664.925	0.0147394
665.003	0.0145930
665.081	0.0146684
665.160	0.0146852
665.238	0.0146806
665.316	0.0146158
665.394	0.0146407
665.472	0.0147118
665.550	0.0147883
665.628	0.0147762
665.706	0.0145891
665.785	0.0146806
665.863	0.0147742
665.941	0.0146422
666.019	0.0146144
666.097	0.0146552
666.175	0.0147182
666.253	0.0146007
666.331	0.0147319
666.410	0.0145795
666.488	0.0147003
666.566	0.0147637
666.644	0.0146819
666.722	0.0146899
666.800	0.0146531
666.878	0.0146967
666.956	0.0146248
667.035	0.0147025
667.113	0.0147345
667.191	0.0147742
667.269	0.0147325
667.347	0.0145857
667.425	0.0146985
667.503	0.0147429
667.581	0.0147910
667.660	0.0147683
667.738	0.0146839
667.816	0.0146935
667.894	0.0148663
667.972	0.0146096
668.050	0.0146172
668.128	0.0146726
668.206	0.0146559
668.285	0.0146972
668.363	0.0147337
668.441	0.0148151
668.519	0.0147213
668.597	0.0147517
668.675	0.0146494
668.753	0.0146513
668.831	0.0147806
668.910	0.0147261
668.988	0.0146747
669.066	0.0149468
669.144	0.0147736
669.222	0.0146554
669.300	0.0147001
669.378	0.0147067
669.456	0.0146907
669.535	0.0147536
669.613	0.0147038
669.691	0.0147659
669.769	0.0148191
669.847	0.0146584
669.925	0.0148039
670.003	0.0146804
670.081	0.0145817
670.160	0.0146975
670.238	0.0146904
670.316	0.0147846
670.394	0.0148115
670.472	0.0146654
670.550	0.0146139
670.628	0.0146081
670.706	0.0147748
670.785	0.0147861
670.863	0.0146760
670.941	0.0147236
671.019	0.0148896
671.097	0.0147418
671.175	0.0145535
671.253	0.0148149
671.331	0.0147020
671.410	0.0146434
671.488	0.0147294
671.566	0.0148925
671.644	0.0146978
671.722	0.0146596
671.800	0.0145908
671.878	0.0147410
671.956	0.0147607
672.035	0.0146581
672.113	0.0147375
672.191	0.0147939
672.269	0.0146497
672.347	0.0146952
672.425	0.0147350
672.503	0.0146558
672.581	0.0146670
672.660	0.0147242
672.738	0.0146283
672.816	0.0146597
672.894	0.0146429
672.972	0.0147005
673.050	0.0146835
673.128	0.0147904
673.206	0.0146282
673.285	0.0147514
673.363	0.0146788
673.441	0.0147356
673.519	0.0147318
673.597	0.0147572
673.675	0.0147626
673.753	0.0147285
673.831	0.0146449
673.910	0.0147104
673.988	0.0146863
674.066	0.0146347
674.144	0.0147561
674.222	0.0146784
674.300	0.0146243
674.378	0.0148466
674.456	0.0147946
674.535	0.0147168
674.613	0.0147767
674.691	0.0146913
674.769	0.0148003
674.847	0.0147345
674.925	0.0146706
675.003	0.0146928
675.081	0.0145500
675.160	0.0146313
675.238	0.0145612
675.316	0.0145938
675.394	0.0146156
675.472	0.0146181
675.550	0.0147277
675.628	0.0146370
675.706	0.0146972
675.785	0.0146289
675.863	0.0145865
675.941	0.0145892
676.019	0.0144855
676.097	0.0144653
676.175	0.0146732
676.253	0.0146523
676.331	0.0145532
676.410	0.0146376
676.488	0.0146017
676.566	0.0147218
676.644	0.0148006
676.722	0.0147313
676.800	0.0146427
676.878	0.0146783
676.956	0.0146111
677.035	0.0145570
677.113	0.0145676
677.191	0.0146979
677.269	0.0147552
677.347	0.0146313
677.425	0.0147209
677.503	0.0147996
677.581	0.0146249
677.660	0.0146066
677.738	0.0146563
677.816	0.0146893
677.894	0.0145973
677.972	0.0145692
678.050	0.0146358
678.128	0.0147093
678.206	0.0145908
678.285	0.0147202
678.363	0.0145241
678.441	0.0145494
678.519	0.0146705
678.597	0.0146275
678.675	0.0146937
678.753	0.0146899
678.831	0.0147229
678.910	0.0147696
678.988	0.0145912
679.066	0.0147045
679.144	0.0146188
679.222	0.0145818
679.300	0.0144769
679.378	0.0145493
679.456	0.0145113
679.535	0.0144699
679.613	0.0146105
679.691	0.0146653
679.769	0.0144939
679.847	0.0145414
679.925	0.0143900
680.003	0.0145206
680.081	0.0145548
680.160	0.0146045
680.238	0.0145212
680.316	0.0144947
680.394	0.0144788
680.472	0.0145344
680.550	0.0143695
680.628	0.0145851
680.706	0.0144956
680.785	0.0143996
680.863	0.0146586
680.941	0.0145613
681.019	0.0145481
681.097	0.0144754
681.175	0.0144543
681.253	0.0145449
681.331	0.0146671
681.410	0.0145594
681.488	0.0144856
681.566	0.0144888
681.644	0.0145105
681.722	0.0146086
681.800	0.0145824
681.878	0.0146543
681.956	0.0145779
682.035	0.0146523
682.113	0.0146320
682.191	0.0145941
682.269	0.0146223
682.347	0.0146259
682.425	0.0146230
682.503	0.0147203
682.581	0.0147215
682.660	0.0147370
682.738	0.0146265
682.816	0.0146645
682.894	0.0145720
682.972	0.0146854
683.050	0.0146989
683.128	0.0145411
683.206	0.0146960
683.285	0.0147053
683.363	0.0145636
683.441	0.0146136
683.519	0.0145806
683.597	0.0146767
683.675	0.0147202
683.753	0.0145398
683.831	0.0145567
683.910	0.0144897
683.988	0.0145880
684.066	0.0147007
684.144	0.0145546
684.222	0.0145583
684.300	0.0146184
684.378	0.0145556
684.456	0.0146497
684.535	0.0145087
684.613	0.0146313
684.691	0.0146067
684.769	0.0144604
684.847	0.0147134
684.925	0.0144585
685.003	0.0144966
685.081	0.0145448
685.160	0.0145521
685.238	0.0145175
685.316	0.0145692
685.394	0.0146813
685.472	0.0146189
685.550	0.0146716
685.628	0.0145103
685.706	0.0145536
685.785	0.0146963
685.863	0.0147214
685.941	0.0147782
686.019	0.0147200
686.097	0.0146879
686.175	0.0147355
686.253	0.0147868
686.331	0.0147383
686.410	0.0147926
686.488	0.0147703
686.566	0.0146309
686.644	0.0146832
686.722	0.0147958
686.800	0.0147397
686.878	0.0148194
686.956	0.0148434
687.035	0.0149052
687.113	0.0147363
687.191	0.0147575
687.269	0.0147437
687.347	0.0146593
687.425	0.0146889
687.503	0.0146822
687.581	0.0146618
687.660	0.0146932
687.738	0.0147699
687.816	0.0147823
687.894	0.0147141
687.972	0.0145876
688.050	0.0146857
688.128	0.0148267
688.206	0.0147796
688.285	0.0146432
688.363	0.0148196
688.441	0.0147916
688.519	0.0147354
688.597	0.0146995
688.675	0.0147329
688.753	0.0148631
688.831	0.0146735
688.910	0.0146368
688.988	0.0147198
689.066	0.0148118
689.144	0.0147038
689.222	0.0146937
689.300	0.0147518
689.378	0.0147309
689.456	0.0145849
689.535	0.0146532
689.613	0.0145861
689.691	0.0145666
689.769	0.0146613
689.847	0.0146379
689.925	0.0145757
690.003	0.0146027
690.081	0.0145865
690.160	0.0144450
690.238	0.0145777
690.316	0.0145290
690.394	0.0146391
690.472	0.0146002
690.550	0.0144520
690.628	0.0145811
690.706	0.0144782
690.785	0.0144906
690.863	0.0144872
690.941	0.0143913
691.019	0.0145764
691.097	0.0146474
691.175	0.0146298
691.253	0.0145647
691.331	0.0145191
691.410	0.0146751
691.488	0.0146861
691.566	0.0145876
691.644	0.0147675
691.722	0.0146266
691.800	0.0146293
691.878	0.0146674
691.956	0.0145927
692.035	0.0147013
692.113	0.0147331
692.191	0.0147211
692.269	0.0147859
692.347	0.0148028
692.425	0.0148010
692.503	0.0148518
692.581	0.0148434
692.660	0.0148108
692.738	0.0147067
692.816	0.0144532
692.894	0.0146839
692.972	0.0146418
693.050	0.0146601
693.128	0.0147075
693.206	0.0145971
693.285	0.0146344
693.363	0.0149117
693.441	0.0147167
693.519	0.0149042
693.597	0.0149384
693.675	0.0149920
693.753	0.0148583
693.831	0.0148376
693.910	0.0149273
693.988	0.0149657
694.066	0.0149413
694.144	0.0148523
694.222	0.0148597
694.300	0.0150851
694.378	0.0148283
694.456	0.0147880
694.535	0.0147599
694.613	0.0147376
694.691	0.0148130
694.769	0.0148654
694.847	0.0148047
694.925	0.0146362
695.003	0.0146616
695.081	0.0147661
695.160	0.0147764
695.238	0.0148685
695.316	0.0147383
695.394	0.0147858
695.472	0.0148083
695.550	0.0147870
695.628	0.0145822
695.706	0.0146228
695.785	0.0147813
695.863	0.0148402
695.941	0.0145959
696.019	0.0147511
696.097	0.0146950
696.175	0.0147272
696.253	0.0146628
696.331	0.0146983
696.410	0.0146333
696.488	0.0146879
696.566	0.0147746
696.644	0.0145866
696.722	0.0147231
696.800	0.0145330
696.878	0.0145771
696.956	0.0146631
697.035	0.0145672
697.113	0.0145547
697.191	0.0147086
697.269	0.0144680
697.347	0.0146835
697.425	0.0147402
697.503	0.0146372
697.581	0.0147000
697.660	0.0146838
697.738	0.0147025
697.816	0.0147249
697.894	0.0145649
697.972	0.0147000
698.050	0.0146715
698.128	0.0147158
698.206	0.0146912
698.285	0.0146873
698.363	0.0146121
698.441	0.0146921
698.519	0.0145852
698.597	0.0145707
698.675	0.0145768
698.753	0.0145586
698.831	0.0145634
698.910	0.0145376
698.988	0.0146249
699.066	0.0145681
699.144	0.0145448
699.222	0.0145808
699.300	0.0146145
699.378	0.0145702
699.456	0.0146985
699.535	0.0145393
699.613	0.0145000
699.691	0.0146407
699.769	0.0146664
699.847	0.0147723
699.925	0.0147449
700.003	0.0148497
700.081	0.0146935
700.160	0.0146825
700.238	0.0146461
700.316	0.0146859
700.394	0.0146535
700.472	0.0147765
700.550	0.0146498
700.628	0.0147068
700.706	0.0146106
700.785	0.0145683
700.863	0.0144926
700.941	0.0145444
701.019	0.0145087
701.097	0.0145347
701.175	0.0146351
701.253	0.0146164
701.331	0.0144232
701.410	0.0146925
701.488	0.0146422
701.566	0.0145448
701.644	0.0146242
701.722	0.0148087
701.800	0.0145782
701.878	0.0146008
701.956	0.0146080
702.035	0.0146952
702.113	0.0145742
702.191	0.0145625
702.269	0.0146446
702.347	0.0145287
702.425	0.0144433
702.503	0.0145454
702.581	0.0145195
702.660	0.0144964
702.738	0.0145801
702.816	0.0145157
702.894	0.0144397
702.972	0.0143550
703.050	0.0145388
703.128	0.0145750
703.206	0.0145446
703.285	0.0145798
703.363	0.0145823
703.441	0.0146608
703.519	0.0145106
703.597	0.0145181
703.675	0.0146043
703.753	0.0146318
703.831	0.0145078
703.910	0.0146699
703.988	0.0148550
704.066	0.0146837
704.144	0.0144571
704.222	0.0145229
704.300	0.0144968
704.378	0.0145654
704.456	0.0146645
704.535	0.0145287
704.613	0.0146235
704.691	0.0145922
704.769	0.0144471
704.847	0.0145873
704.925	0.0146913
705.003	0.0145073
705.081	0.0146509
705.160	0.0147832
705.238	0.0148265
705.316	0.0147863
705.394	0.0148555
705.472	0.0147225
705.550	0.0146906
705.628	0.0147594
705.706	0.0147318
705.785	0.0146989
705.863	0.0148632
705.941	0.0147526
706.019	0.0146348
706.097	0.0147733
706.175	0.0146727
706.253	0.0146688
706.331	0.0146592
706.410	0.0146202
706.488	0.0146805
706.566	0.0147466
706.644	0.0147683
706.722	0.0147298
706.800	0.0147369
706.878	0.0147607
706.956	0.0145959
707.035	0.0145477
707.113	0.0146355
707.191	0.0146180
707.269	0.0146420
707.347	0.0145448
707.425	0.0146685
707.503	0.0147920
707.581	0.0146741
707.660	0.0147675
707.738	0.0147308
707.816	0.0146745
707.894	0.0148035
707.972	0.0147286
708.050	0.0146733
708.128	0.0146043
708.206	0.0146248
708.285	0.0147331
708.363	0.0147925
708.441	0.0148139
708.519	0.0147342
708.597	0.0146371
708.675	0.0147934
708.753	0.0146721
708.831	0.0148317
708.910	0.0146301
708.988	0.0146171
709.066	0.0145313
709.144	0.0145219
709.222	0.0146698
709.300	0.0146374
709.378	0.0146190
709.456	0.0146377
709.535	0.0146607
709.613	0.0146577
709.691	0.0146933
709.769	0.0146876
709.847	0.0147758
709.925	0.0146805
710.003	0.0145766
710.081	0.0146292
710.160	0.0147522
710.238	0.0147255
710.316	0.0147000
710.394	0.0146426
710.472	0.0145382
710.550	0.0146617
710.628	0.0145515
710.706	0.0145877
710.785	0.0146761
710.863	0.0147282
710.941	0.0147781
711.019	0.0145292
711.097	0.0145038
711.175	0.0147247
711.253	0.0148903
711.331	0.0148659
711.410	0.0146755
711.488	0.0147843
711.566	0.0148214
711.644	0.0148456
711.722	0.0148022
711.800	0.0147533
711.878	0.0147569
711.956	0.0147003
712.035	0.0149202
712.113	0.0148450
712.191	0.0147960
712.269	0.0147322
712.347	0.0146314
712.425	0.0147858
712.503	0.0148509
712.581	0.0148262
712.660	0.0146294
712.738	0.0146896
712.816	0.0149427
712.894	0.0148469
712.972	0.0147718
713.050	0.0148343
713.128	0.0147068
713.206	0.0148328
713.285	0.0148669
713.363	0.0147281
713.441	0.0147566
713.519	0.0146977
713.597	0.0147543
713.675	0.0147977
713.753	0.0147134
713.831	0.0146468
713.910	0.0147957
713.988	0.0145825
714.066	0.0145612
714.144	0.0146890
714.222	0.0146868
714.300	0.0147359
714.378	0.0146561
714.456	0.0147065
714.535	0.0146104
714.613	0.0145458
714.691	0.0148310
714.769	0.0147057
714.847	0.0145919
714.925	0.0146754
715.003	0.0147849
715.081	0.0146446
715.160	0.0148184
715.238	0.0146468
715.316	0.0147753
715.394	0.0148051
715.472	0.0146423
715.550	0.0147822
715.628	0.0148424
715.706	0.0145416
715.785	0.0145432
715.863	0.0146724
715.941	0.0146699
716.019	0.0146346
716.097	0.0145909
716.175	0.0146938
716.253	0.0146074
716.331	0.0146366
716.410	0.0146423
716.488	0.0145340
716.566	0.0146421
716.644	0.0146062
716.722	0.0146361
716.800	0.0146972
716.878	0.0146432
716.956	0.0145998
717.035	0.0147664
717.113	0.0147009
717.191	0.0146301
717.269	0.0146950
717.347	0.0146041
717.425	0.0145920
717.503	0.0147254
717.581	0.0147373
717.660	0.0146775
717.738	0.0146735
717.816	0.0146667
717.894	0.0145976
717.972	0.0147845
718.050	0.0147646
718.128	0.0146958
718.206	0.0146999
718.285	0.0147129
718.363	0.0147713
718.441	0.0145872
718.519	0.0147682
718.597	0.0146867
718.675	0.0148228
718.753	0.0148378
718.831	0.0146494
718.910	0.0148938
718.988	0.0148462
719.066	0.0148515
719.144	0.0148125
719.222	0.0146223
719.300	0.0147519
719.378	0.0147845
719.456	0.0146994
719.535	0.0148187
719.613	0.0148080
719.691	0.0146638
719.769	0.0148112
719.847	0.0147835
719.925	0.0146787
720.003	0.0147156
720.081	0.0146622
720.160	0.0146696
720.238	0.0147356
720.316	0.0148092
720.394	0.0149038
720.472	0.0146361
720.550	0.0147520
720.628	0.0146426
720.706	0.0147443
720.785	0.0149094
720.863	0.0148764
720.941	0.0147375
721.019	0.0146576
721.097	0.0146696
721.175	0.0146915
721.253	0.0147086
721.331	0.0148997
721.410	0.0146340
721.488	0.0146745
721.566	0.0147013
721.644	0.0147143
721.722	0.0147041
721.800	0.0147983
721.878	0.0147452
721.956	0.0145647
722.035	0.0145961
722.113	0.0146266
722.191	0.0145490
722.269	0.0145963
722.347	0.0146562
722.425	0.0146159
722.503	0.0146069
722.581	0.0144808
722.660	0.0145354
722.738	0.0145756
722.816	0.0144394
722.894	0.0144038
722.972	0.0145362
723.050	0.0144224
723.128	0.0145510
723.206	0.0145088
723.285	0.0145731
723.363	0.0146734
723.441	0.0146263
723.519	0.0145550
723.597	0.0145177
723.675	0.0144938
723.753	0.0146301
723.831	0.0146583
723.910	0.0145358
723.988	0.0144228
724.066	0.0144963
724.144	0.0143767
724.222	0.0143229
724.300	0.0143256
724.378	0.0144483
724.456	0.0143855
724.535	0.0144189
724.613	0.0144160
724.691	0.0145525
724.769	0.0144541
724.847	0.0143831
724.925	0.0144867
725.003	0.0144880
725.081	0.0145554
725.160	0.0146620
725.238	0.0146280
725.316	0.0144953
725.394	0.0146058
725.472	0.0146872
725.550	0.0146334
725.628	0.0147844
725.706	0.0147319
725.785	0.0147128
725.863	0.0145704
725.941	0.0145863
726.019	0.0147271
726.097	0.0149340
726.175	0.0147960
726.253	0.0148720
726.331	0.0146677
726.410	0.0146612
726.488	0.0147615
726.566	0.0147260
726.644	0.0148746
726.722	0.0146903
726.800	0.0146767
726.878	0.0148253
726.956	0.0147756
727.035	0.0145654
727.113	0.0147572
727.191	0.0146431
727.269	0.0146703
727.347	0.0147514
727.425	0.0145132
727.503	0.0145525
727.581	0.0146883
727.660	0.0146399
727.738	0.0147890
727.816	0.0146923
727.894	0.0146909
727.972	0.0146812
728.050	0.0146741
728.128	0.0146123
728.206	0.0146910
728.285	0.0148326
728.363	0.0146788
728.441	0.0146614
728.519	0.0148177
728.597	0.0146178
728.675	0.0146936
728.753	0.0147290
728.831	0.0146673
728.910	0.0146940
728.988	0.0147189
729.066	0.0146341
729.144	0.0147351
729.222	0.0147226
729.300	0.0146712
729.378	0.0146108
729.456	0.0145217
729.535	0.0146663
729.613	0.0145209
729.691	0.0145791
729.769	0.0145486
729.847	0.0146718
729.925	0.0146696
730.003	0.0146057
730.081	0.0145528
730.160	0.0145601
730.238	0.0145920
730.316	0.0146190
730.394	0.0145701
730.472	0.0145694
730.550	0.0147673
730.628	0.0146491
730.706	0.0145937
730.785	0.0146483
730.863	0.0145872
730.941	0.0146241
731.019	0.0147829
731.097	0.0146333
731.175	0.0146138
731.253	0.0146516
731.331	0.0145843
731.410	0.0146347
731.488	0.0146252
731.566	0.0146748
731.644	0.0145486
731.722	0.0145048
731.800	0.0147456
731.878	0.0147188
731.956	0.0147017
732.035	0.0146776
732.113	0.0148110
732.191	0.0147759
732.269	0.0146720
732.347	0.0148405
732.425	0.0147622
732.503	0.0147175
732.581	0.0149079
732.660	0.0146920
732.738	0.0149712
732.816	0.0148760
732.894	0.0148742
732.972	0.0149544
733.050	0.0148860
733.128	0.0148607
733.206	0.0147906
733.285	0.0149391
733.363	0.0149334
733.441	0.0149442
733.519	0.0148442
733.597	0.0149101
733.675	0.0149757
733.753	0.0148483
733.831	0.0147454
733.910	0.0148512
733.988	0.0148473
734.066	0.0147762
734.144	0.0147417
734.222	0.0147710
734.300	0.0148780
734.378	0.0147067
734.456	0.0148103
734.535	0.0146371
734.613	0.0147371
734.691	0.0147348
734.769	0.0147730
734.847	0.0148154
734.925	0.0147987
735.003	0.0146986
735.081	0.0148898
735.160	0.0148342
735.238	0.0147184
735.316	0.0147112
735.394	0.0147299
735.472	0.0147018
735.550	0.0145920
735.628	0.0146186
735.706	0.0146953
735.785	0.0146626
735.863	0.0147044
735.941	0.0148193
736.019	0.0147744
736.097	0.0145947
736.175	0.0146103
736.253	0.0146924
736.331	0.0145669
736.410	0.0144572
736.488	0.0147022
736.566	0.0146384
736.644	0.0148586
736.722	0.0147484
736.800	0.0147469
736.878	0.0145779
736.956	0.0145760
737.035	0.0146896
737.113	0.0146952
737.191	0.0146487
737.269	0.0146650
737.347	0.0146439
737.425	0.0147269
737.503	0.0148091
737.581	0.0145603
737.660	0.0147703
737.738	0.0147461
737.816	0.0147624
737.894	0.0146275
737.972	0.0146048
738.050	0.0146811
738.128	0.0146673
738.206	0.0146977
738.285	0.0147318
738.363	0.0146300
738.441	0.0145702
738.519	0.0146683
738.597	0.0147446
738.675	0.0146216
738.753	0.0146348
738.831	0.0148241
738.910	0.0146065
738.988	0.0146514
739.066	0.0147086
739.144	0.0148090
739.222	0.0147108
739.300	0.0147408
739.378	0.0147256
739.456	0.0147292
739.535	0.0148127
739.613	0.0146774
739.691	0.0147340
739.769	0.0148869
739.847	0.0148940
739.925	0.0148366
740.003	0.0148824
740.081	0.0149047
740.160	0.0148631
740.238	0.0148552
740.316	0.0146835
740.394	0.0149542
740.472	0.0148681
740.550	0.0147783
740.628	0.0149100
740.706	0.0149587
740.785	0.0148193
740.863	0.0149194
740.941	0.0148677
741.019	0.0147050
741.097	0.0147643
741.175	0.0146717
741.253	0.0146745
741.331	0.0146338
741.410	0.0145834
741.488	0.0147914
741.566	0.0147543
741.644	0.0147223
741.722	0.0147350
741.800	0.0147559
741.878	0.0147314
741.956	0.0147071
742.035	0.0147729
742.113	0.0145637
742.191	0.0147761
742.269	0.0148085
742.347	0.0146684
742.425	0.0146659
742.503	0.0147552
742.581	0.0146699
742.660	0.0145317
742.738	0.0146181
742.816	0.0146465
742.894	0.0146918
742.972	0.0146799
743.050	0.0146222
743.128	0.0146306
743.206	0.0145614
743.285	0.0145987
743.363	0.0145868
743.441	0.0145084
743.519	0.0146574
743.597	0.0145082
743.675	0.0145168
743.753	0.0145613
743.831	0.0145161
743.910	0.0146385
743.988	0.0144629
744.066	0.0146055
744.144	0.0144850
744.222	0.0146635
744.300	0.0145585
744.378	0.0145523
744.456	0.0144511
744.535	0.0144897
744.613	0.0144823
744.691	0.0146858
744.769	0.0144732
744.847	0.0144876
744.925	0.0146431
745.003	0.0144473
745.081	0.0144456
745.160	0.0145447
745.238	0.0145287
745.316	0.0145156
745.394	0.0143912
745.472	0.0143325
745.550	0.0146256
745.628	0.0144425
745.706	0.0144785
745.785	0.0145488
745.863	0.0143835
745.941	0.0143917
746.019	0.0145592
746.097	0.0145618
746.175	0.0146253
746.253	0.0146454
746.331	0.0146788
746.410	0.0146974
746.488	0.0146897
746.566	0.0148202
746.644	0.0147475
746.722	0.0147036
746.800	0.0148398
746.878	0.0146180
746.956	0.0148539
747.035	0.0148050
747.113	0.0147054
747.191	0.0148112
747.269	0.0146568
747.347	0.0147924
747.425	0.0148740
747.503	0.0148129
747.581	0.0147656
747.660	0.0146940
747.738	0.0147712
747.816	0.0149056
747.894	0.0147398
747.972	0.0148587
748.050	0.0147431
748.128	0.0146956
748.206	0.0147023
748.285	0.0147493
748.363	0.0146323
748.441	0.0145838
748.519	0.0145115
748.597	0.0146432
748.675	0.0147684
748.753	0.0146633
748.831	0.0146139
748.910	0.0148067
748.988	0.0145721
749.066	0.0146848
749.144	0.0147262
749.222	0.0146542
749.300	0.0147277
749.378	0.0147345
749.456	0.0147418
749.535	0.0145704
749.613	0.0147301
749.691	0.0147541
749.769	0.0147908
749.847	0.0147362
749.925	0.0146779
750.003	0.0146314
750.081	0.0147280
750.160	0.0147630
750.238	0.0147221
750.316	0.0146960
750.394	0.0147003
750.472	0.0147076
750.550	0.0146673
750.628	0.0145547
750.706	0.0144984
750.785	0.0145580
750.863	0.0145766
750.941	0.0146133
751.019	0.0146678
751.097	0.0146448
751.175	0.0147406
751.253	0.0146862
751.331	0.0145424
751.410	0.0147192
751.488	0.0147568
751.566	0.0146156
751.644	0.0146988
751.722	0.0146476
751.800	0.0146791
751.878	0.0147278
751.956	0.0147012
752.035	0.0148463
752.113	0.0146663
752.191	0.0145166
752.269	0.0146620
752.347	0.0147137
752.425	0.0146257
752.503	0.0146763
752.581	0.0147482
752.660	0.0146707
752.738	0.0146310
752.816	0.0145567
752.894	0.0145901
752.972	0.0144563
753.050	0.0145232
753.128	0.0146462
753.206	0.0145381
753.285	0.0146638
753.363	0.0147251
753.441	0.0147310
753.519	0.0146290
753.597	0.0146871
753.675	0.0145757
753.753	0.0147694
753.831	0.0147766
753.910	0.0147578
753.988	0.0147072
754.066	0.0146823
754.144	0.0147346
754.222	0.0148019
754.300	0.0147410
754.378	0.0147579
754.456	0.0148298
754.535	0.0148574
754.613	0.0148398
754.691	0.0149014
754.769	0.0147594
754.847	0.0147177
754.925	0.0148885
755.003	0.0147868
755.081	0.0148068
755.160	0.0148136
755.238	0.0147713
755.316	0.0147369
755.394	0.0148446
755.472	0.0147196
755.550	0.0146658
755.628	0.0146868
755.706	0.0145389
755.785	0.0146201
755.863	0.0147321
755.941	0.0146613
756.019	0.0146432
756.097	0.0146638
756.175	0.0146964
756.253	0.0147121
756.331	0.0146548
756.410	0.0147156
756.488	0.0147652
756.566	0.0147940
756.644	0.0147903
756.722	0.0147695
756.800	0.0146568
756.878	0.0145224
756.956	0.0146677
757.035	0.0146753
757.113	0.0146165
757.191	0.0145090
757.269	0.0145741
757.347	0.0146539
757.425	0.0146028
757.503	0.0147094
757.581	0.0145483
757.660	0.0147756
757.738	0.0146844
757.816	0.0145633
757.894	0.0146008
757.972	0.0146151
758.050	0.0146049
758.128	0.0145937
758.206	0.0146181
758.285	0.0146732
758.363	0.0144595
758.441	0.0147225
758.519	0.0146626
758.597	0.0146831
758.675	0.0148103
758.753	0.0146521
758.831	0.0147378
758.910	0.0146001
758.988	0.0147334
759.066	0.0146184
759.144	0.0146815
759.222	0.0147286
759.300	0.0147126
759.378	0.0147730
759.456	0.0146978
759.535	0.0148782
759.613	0.0146252
759.691	0.0147312
759.769	0.0147191
759.847	0.0146328
759.925	0.0148186
760.003	0.0147014
760.081	0.0147210
760.160	0.0147433
760.238	0.0146881
760.316	0.0146650
760.394	0.0145950
760.472	0.0146480
760.550	0.0147025
760.628	0.0146925
760.706	0.0147045
760.785	0.0148016
760.863	0.0147569
760.941	0.0147230
761.019	0.0148798
761.097	0.0149110
761.175	0.0148791
761.253	0.0150185
761.331	0.0149816
761.410	0.0149237
761.488	0.0149732
761.566	0.0147842
761.644	0.0149329
761.722	0.0148597
761.800	0.0149228
761.878	0.0150200
761.956	0.0149495
762.035	0.0150275
762.113	0.0149673
762.191	0.0148541
762.269	0.0148885
762.347	0.0147171
762.425	0.0147276
762.503	0.0148493
762.581	0.0147966
762.660	0.0147123
762.738	0.0147085
762.816	0.0147618
762.894	0.0145965
762.972	0.0147582
763.050	0.0146590
763.128	0.0147021
763.206	0.0146776
763.285	0.0147031
763.363	0.0147633
763.441	0.0146983
763.519	0.0145959
763.597	0.0146145
763.675	0.0147321
763.753	0.0148292
763.831	0.0146264
763.910	0.0146013
763.988	0.0147133
764.066	0.0147196
764.144	0.0146212
764.222	0.0145303
764.300	0.0146844
764.378	0.0146753
764.456	0.0145804
764.535	0.0145879
764.613	0.0146732
764.691	0.0145181
764.769	0.0144105
764.847	0.0146068
764.925	0.0146262
765.003	0.0145856
765.081	0.0145262
765.160	0.0144688
765.238	0.0145592
765.316	0.0145814
765.394	0.0146136
765.472	0.0145537
765.550	0.0146075
765.628	0.0145428
765.706	0.0146277
765.785	0.0146214
765.863	0.0145911
765.941	0.0145919
766.019	0.0146661
766.097	0.0146651
766.175	0.0145655
766.253	0.0146153
766.331	0.0145228
766.410	0.0145612
766.488	0.0146303
766.566	0.0147404
766.644	0.0146123
766.722	0.0145176
766.800	0.0145914
766.878	0.0145498
766.956	0.0146265
767.035	0.0144543
767.113	0.0144359
767.191	0.0145500
767.269	0.0146255
767.347	0.0144769
767.425	0.0145422
767.503	0.0146133
767.581	0.0145095
767.660	0.0145251
767.738	0.0145457
767.816	0.0147184
767.894	0.0146282
767.972	0.0147528
768.050	0.0147120
768.128	0.0147829
768.206	0.0147222
768.285	0.0149419
768.363	0.0148364
768.441	0.0147819
768.519	0.0148377
768.597	0.0148609
768.675	0.0149154
768.753	0.0148019
768.831	0.0149300
768.910	0.0149786
768.988	0.0149587
769.066	0.0148739
769.144	0.0149409
769.222	0.0149368
769.300	0.0148023
769.378	0.0148803
769.456	0.0147890
769.535	0.0147018
769.613	0.0147717
769.691	0.0146904
769.769	0.0146764
769.847	0.0146627
769.925	0.0146869
770.003	0.0144922
770.081	0.0145637
770.160	0.0146239
770.238	0.0146900
770.316	0.0146590
770.394	0.0145159
770.472	0.0145065
770.550	0.0146140
770.628	0.0144859
770.706	0.0145229
770.785	0.0147344
770.863	0.0145632
770.941	0.0146049
771.019	0.0145403
771.097	0.0145584
771.175	0.0145667
771.253	0.0146734
771.331	0.0145107
771.410	0.0146232
771.488	0.0147419
771.566	0.0146703
771.644	0.0145834
771.722	0.0146277
771.800	0.0145749
771.878	0.0146108
771.956	0.0145143
772.035	0.0144523
772.113	0.0145343
772.191	0.0147162
772.269	0.0146023
772.347	0.0145669
772.425	0.0146652
772.503	0.0145245
772.581	0.0145246
772.660	0.0145827
772.738	0.0146497
772.816	0.0145603
772.894	0.0145686
772.972	0.0146388
773.050	0.0146924
773.128	0.0145758
773.206	0.0145010
773.285	0.0145130
773.363	0.0145152
773.441	0.0145985
773.519	0.0146721
773.597	0.0145176
773.675	0.0145812
773.753	0.0145887
773.831	0.0144851
773.910	0.0146576
773.988	0.0146456
774.066	0.0144405
774.144	0.0146236
774.222	0.0147361
774.300	0.0145706
774.378	0.0146236
774.456	0.0145734
774.535	0.0147071
774.613	0.0146190
774.691	0.0145962
774.769	0.0145204
774.847	0.0146094
774.925	0.0146612
775.003	0.0147571
775.081	0.0146674
775.160	0.0147552
775.238	0.0146751
775.316	0.0146963
775.394	0.0148770
775.472	0.0149035
775.550	0.0148831
775.628	0.0150107
775.706	0.0149428
775.785	0.0147720
775.863	0.0147668
775.941	0.0147984
776.019	0.0150713
776.097	0.0149207
776.175	0.0148977
776.253	0.0149396
776.331	0.0148919
776.410	0.0149079
776.488	0.0147444
776.566	0.0148830
776.644	0.0148125
776.722	0.0148126
776.800	0.0147315
776.878	0.0147053
776.956	0.0146685
777.035	0.0146651
777.113	0.0146870
777.191	0.0144843
777.269	0.0145891
777.347	0.0147512
777.425	0.0147403
777.503	0.0146599
777.581	0.0145383
777.660	0.0146688
777.738	0.0145943
777.816	0.0145894
777.894	0.0146711
777.972	0.0146185
778.050	0.0145287
778.128	0.0146445
778.206	0.0147153
778.285	0.0146815
778.363	0.0145545
778.441	0.0146535
778.519	0.0145953
778.597	0.0145522
778.675	0.0144968
778.753	0.0145649
778.831	0.0145352
778.910	0.0145090
778.988	0.0145385
779.066	0.0145995
779.144	0.0145184
779.222	0.0145049
779.300	0.0147021
779.378	0.0144995
779.456	0.0145383
779.535	0.0145104
779.613	0.0144615
779.691	0.0146088
779.769	0.0144764
779.847	0.0145216
779.925	0.0143177
780.003	0.0144545
780.081	0.0144396
780.160	0.0145373
780.238	0.0145110
780.316	0.0144598
780.394	0.0145875
780.472	0.0145461
780.550	0.0145637
780.628	0.0146490
780.706	0.0145824
780.785	0.0145610
780.863	0.0144522
780.941	0.0144119
781.019	0.0145282
781.097	0.0145197
781.175	0.0145698
781.253	0.0144962
781.331	0.0143491
781.410	0.0145137
781.488	0.0145819
781.566	0.0145258
781.644	0.0144257
781.722	0.0143837
781.800	0.0145345
781.878	0.0145568
781.956	0.0145592
782.035	0.0145484
782.113	0.0145869
782.191	0.0145949
782.269	0.0146279
782.347	0.0146828
782.425	0.0147366
782.503	0.0147205
782.581	0.0147489
782.660	0.0147545
782.738	0.0147463
782.816	0.0148643
782.894	0.0149417
782.972	0.0148432
783.050	0.0148197
783.128	0.0148260
783.206	0.0149461
783.285	0.0148334
783.363	0.0149072
783.441	0.0149870
783.519	0.0149257
783.597	0.0149085
783.675	0.0148280
783.753	0.0148693
783.831	0.0148479
783.910	0.0148713
783.988	0.0149153
784.066	0.0148222
784.144	0.0146780
784.222	0.0148177
784.300	0.0145927
784.378	0.0146330
784.456	0.0148039
784.535	0.0148007
784.613	0.0146805
784.691	0.0146429
784.769	0.0145193
784.847	0.0146880
784.925	0.0147343
785.003	0.0146606
785.081	0.0145340
785.160	0.0146208
785.238	0.0147401
785.316	0.0147773
785.394	0.0147327
785.472	0.0147462
785.550	0.0147654
785.628	0.0147899
785.706	0.0146896
785.785	0.0145919
785.863	0.0146249
785.941	0.0147247
786.019	0.0146311
786.097	0.0146587
786.175	0.0146375
786.253	0.0146111
786.331	0.0146320
786.410	0.0147157
786.488	0.0147132
786.566	0.0146951
786.644	0.0146127
786.722	0.0145581
786.800	0.0145330
786.878	0.0146328
786.956	0.0147358
787.035	0.0145602
787.113	0.0145672
787.191	0.0147018
787.269	0.0146168
787.347	0.0145993
787.425	0.0146112
787.503	0.0147069
787.581	0.0146023
787.660	0.0145591
787.738	0.0147543
787.816	0.0148409
787.894	0.0147755
787.972	0.0147900
788.050	0.0146616
788.128	0.0147439
788.206	0.0147198
788.285	0.0147342
788.363	0.0147088
788.441	0.0147867
788.519	0.0146465
788.597	0.0147260
788.675	0.0147091
788.753	0.0147282
788.831	0.0146843
788.910	0.0145257
788.988	0.0147072
789.066	0.0147382
789.144	0.0145816
789.222	0.0147025
789.300	0.0148627
789.378	0.0147903
789.456	0.0147640
789.535	0.0147520
789.613	0.0147421
789.691	0.0148761
789.769	0.0148392
789.847	0.0149205
789.925	0.0148380
790.003	0.0149758
790.081	0.0149706
790.160	0.0148624
790.238	0.0149069
790.316	0.0150018
790.394	0.0150783
790.472	0.0150693
790.550	0.0150863
790.628	0.0149716
790.706	0.0148687
790.785	0.0147486
790.863	0.0148826
790.941	0.0149289
791.019	0.0148432
791.097	0.0146896
791.175	0.0147746
791.253	0.0147877
791.331	0.0147593
791.410	0.0147620
791.488	0.0147355
791.566	0.0147311
791.644	0.0147305
791.722	0.0147394
791.800	0.0145146
791.878	0.0145605
791.956	0.0146560
792.035	0.0147831
792.113	0.0146391
792.191	0.0146022
792.269	0.0146563
792.347	0.0144458
792.425	0.0146613
792.503	0.0145108
792.581	0.0145423
792.660	0.0145576
792.738	0.0145059
792.816	0.0146458
792.894	0.0144875
792.972	0.0145760
793.050	0.0145327
793.128	0.0144778
793.206	0.0145853
793.285	0.0145311
793.363	0.0146491
793.441	0.0145782
793.519	0.0144695
793.597	0.0145179
793.675	0.0145377
793.753	0.0145183
793.831	0.0145376
793.910	0.0145901
793.988	0.0145523
794.066	0.0145679
794.144	0.0145576
794.222	0.0145285
794.300	0.0146297
794.378	0.0148003
794.456	0.0146930
794.535	0.0145895
794.613	0.0146135
794.691	0.0147887
794.769	0.0147368
794.847	0.0146853
794.925	0.0146942
795.003	0.0145456
795.081	0.0145537
795.160	0.0145674
795.238	0.0147739
795.316	0.0145859
795.394	0.0146474
795.472	0.0146137
795.550	0.0146526
795.628	0.0146121
795.706	0.0145319
795.785	0.0146072
795.863	0.0147003
795.941	0.0145852
796.019	0.0146261
796.097	0.0145969
796.175	0.0146172
796.253	0.0145335
796.331	0.0145876
796.410	0.0145559
796.488	0.0145939
796.566	0.0145570
796.644	0.0145268
796.722	0.0146822
796.800	0.0148344
796.878	0.0147321
796.956	0.0146223
797.035	0.0146970
797.113	0.0147263
797.191	0.0148175
797.269	0.0147724
797.347	0.0148573
797.425	0.0148228
797.503	0.0148539
797.581	0.0149614
797.660	0.0148968
797.738	0.0149295
797.816	0.0148229
797.894	0.0148914
797.972	0.0148019
798.050	0.0148161
798.128	0.0147440
798.206	0.0149151
798.285	0.0147381
798.363	0.0147341
798.441	0.0147025
798.519	0.0147253
798.597	0.0147355
798.675	0.0147935
798.753	0.0146665
798.831	0.0146275
798.910	0.0146208
798.988	0.0146452
799.066	0.0146983
799.144	0.0145609
799.222	0.0145882
799.300	0.0146015
799.378	0.0145460
799.456	0.0145124
799.535	0.0146772
799.613	0.0146367
799.691	0.0145148
799.769	0.0145754
799.847	0.0145134
799.925	0.0145260
800.003	0.0146202
800.081	0.0145421
800.160	0.0145142
800.238	0.0144448
800.316	0.0146088
800.394	0.0144726
800.472	0.0144944
800.550	0.0144849
800.628	0.0144738
800.706	0.0146584
800.785	0.0145415
800.863	0.0144747
800.941	0.0145275
801.019	0.0144981
801.097	0.0145467
801.175	0.0146513
801.253	0.0145506
801.331	0.0146042
801.410	0.0146304
801.488	0.0145992
801.566	0.0145877
801.644	0.0145689
801.722	0.0145656
801.800	0.0145584
801.878	0.0145224
801.956	0.0146171
802.035	0.0147326
802.113	0.0147176
802.191	0.0147588
802.269	0.0145198
802.347	0.0145355
802.425	0.0146516
802.503	0.0146059
802.581	0.0145280
802.660	0.0146503
802.738	0.0146075
802.816	0.0146439
802.894	0.0146665
802.972	0.0146227
803.050	0.0145368
803.128	0.0145560
803.206	0.0145679
803.285	0.0146302
803.363	0.0146243
803.441	0.0146962
803.519	0.0146107
803.597	0.0145480
803.675	0.0145289
803.753	0.0147782
803.831	0.0147520
803.910	0.0147680
803.988	0.0147549
804.066	0.0147884
804.144	0.0148513
804.222	0.0148092
804.300	0.0147316
804.378	0.0148474
804.456	0.0148379
804.535	0.0147463
804.613	0.0147893
804.691	0.0149076
804.769	0.0148714
804.847	0.0148780
804.925	0.0150292
805.003	0.0148688
805.081	0.0148781
805.160	0.0149199
805.238	0.0148991
805.316	0.0149104
805.394	0.0148228
805.472	0.0147297
805.550	0.0148714
805.628	0.0148028
805.706	0.0148446
805.785	0.0147857
805.863	0.0146493
805.941	0.0146900
806.019	0.0147194
806.097	0.0147465
806.175	0.0145962
806.253	0.0145268
806.331	0.0145783
806.410	0.0145116
806.488	0.0145412
806.566	0.0145051
806.644	0.0145246
806.722	0.0145288
806.800	0.0145499
806.878	0.0145683
806.956	0.0143905
807.035	0.0146156
807.113	0.0146661
807.191	0.0145879
807.269	0.0144945
807.347	0.0145405
807.425	0.0144485
807.503	0.0144794
807.581	0.0145156
807.660	0.0144979
807.738	0.0144755
807.816	0.0144659
807.894	0.0145314
807.972	0.0143530
808.050	0.0143596
808.128	0.0144324
808.206	0.0144314
808.285	0.0145274
808.363	0.0145490
808.441	0.0145677
808.519	0.0143802
808.597	0.0145046
808.675	0.0144621
808.753	0.0144878
808.831	0.0145728
808.910	0.0144265
808.988	0.0144105
809.066	0.0146227
809.144	0.0147195
809.222	0.0145800
809.300	0.0145985
809.378	0.0146191
809.456	0.0147509
809.535	0.0146459
809.613	0.0145871
809.691	0.0147469
809.769	0.0146780
809.847	0.0147384
809.925	0.0145927
810.003	0.0147520
810.081	0.0147243
810.160	0.0145789
810.238	0.0146401
810.316	0.0146180
810.394	0.0146151
810.472	0.0147003
810.550	0.0146819
810.628	0.0146486
810.706	0.0146767
810.785	0.0147269
810.863	0.0146768
810.941	0.0147983
811.019	0.0148923
811.097	0.0150063
811.175	0.0149149
811.253	0.0149163
811.331	0.0149896
811.410	0.0148716
811.488	0.0149184
811.566	0.0150409
811.644	0.0150320
811.722	0.0150866
811.800	0.0150571
811.878	0.0150727
811.956	0.0150339
812.035	0.0149387
812.113	0.0148579
812.191	0.0150446
812.269	0.0150950
812.347	0.0150758
812.425	0.0150238
812.503	0.0150751
812.581	0.0150491
812.660	0.0151096
812.738	0.0148674
812.816	0.0147572
812.894	0.0148379
812.972	0.0147456
813.050	0.0148186
813.128	0.0147396
813.206	0.0148090
813.285	0.0147322
813.363	0.0147146
813.441	0.0146368
813.519	0.0146497
813.597	0.0145956
813.675	0.0146650
813.753	0.0145861
813.831	0.0146577
813.910	0.0145746
813.988	0.0146281
814.066	0.0146136
814.144	0.0146769
814.222	0.0146516
814.300	0.0146331
814.378	0.0146063
814.456	0.0145471
814.535	0.0145757
814.613	0.0146410
814.691	0.0147062
814.769	0.0145860
814.847	0.0146864
814.925	0.0146486
815.003	0.0146008
815.081	0.0145230
815.160	0.0145652
815.238	0.0146535
815.316	0.0147482
815.394	0.0147764
815.472	0.0147662
815.550	0.0146301
815.628	0.0146414
815.706	0.0146969
815.785	0.0145852
815.863	0.0145124
815.941	0.0146547
816.019	0.0147092
816.097	0.0147543
816.175	0.0146535
816.253	0.0146457
816.331	0.0149505
816.410	0.0146641
816.488	0.0146059
816.566	0.0148419
816.644	0.0148379
816.722	0.0147417
816.800	0.0146542
816.878	0.0147132
816.956	0.0146299
817.035	0.0147311
817.113	0.0146775
817.191	0.0146906
817.269	0.0145927
817.347	0.0146558
817.425	0.0146095
817.503	0.0147163
817.581	0.0146333
817.660	0.0145219
817.738	0.0146149
817.816	0.0146166
817.894	0.0146899
817.972	0.0145290
818.050	0.0148001
818.128	0.0145804
818.206	0.0144986
818.285	0.0147328
818.363	0.0146336
818.441	0.0146355
818.519	0.0147892
818.597	0.0147428
818.675	0.0145828
818.753	0.0148473
818.831	0.0147586
818.910	0.0147021
818.988	0.0147644
819.066	0.0147811
819.144	0.0148616
819.222	0.0146991
819.300	0.0147180
819.378	0.0146774
819.456	0.0147918
819.535	0.0148302
819.613	0.0148978
819.691	0.0148466
819.769	0.0147672
819.847	0.0148204
819.925	0.0147901
820.003	0.0146629
820.081	0.0147160
820.160	0.0145521
820.238	0.0146649
820.316	0.0145064
820.394	0.0145364
820.472	0.0146363
820.550	0.0145703
820.628	0.0145269
820.706	0.0146323
820.785	0.0146279
820.863	0.0144579
820.941	0.0143948
821.019	0.0145031
821.097	0.0144515
821.175	0.0144939
821.253	0.0146530
821.331	0.0143153
821.410	0.0144550
821.488	0.0144820
821.566	0.0143474
821.644	0.0143027
821.722	0.0144047
821.800	0.0143842
821.878	0.0144269
821.956	0.0145899
822.035	0.0144163
822.113	0.0145109
822.191	0.0146696
822.269	0.0145245
822.347	0.0144899
822.425	0.0144379
822.503	0.0145255
822.581	0.0144761
822.660	0.0143640
822.738	0.0144737
822.816	0.0144095
822.894	0.0146171
822.972	0.0144913
823.050	0.0145450
823.128	0.0145973
823.206	0.0145541
823.285	0.0145871
823.363	0.0145837
823.441	0.0145954
823.519	0.0145444
823.597	0.0146539
823.675	0.0146294
823.753	0.0146684
823.831	0.0145518
823.910	0.0144979
823.988	0.0145517
824.066	0.0146238
824.144	0.0147803
824.222	0.0146730
824.300	0.0146255
824.378	0.0145939
824.456	0.0146492
824.535	0.0145636
824.613	0.0146493
824.691	0.0145225
824.769	0.0146655
824.847	0.0146377
824.925	0.0145471
825.003	0.0144810
825.081	0.0144055
825.160	0.0144811
825.238	0.0146185
825.316	0.0146832
825.394	0.0145764
825.472	0.0147099
825.550	0.0147642
825.628	0.0148690
825.706	0.0147186
825.785	0.0146066
825.863	0.0147060
825.941	0.0146755
826.019	0.0148186
826.097	0.0146861
826.175	0.0149204
826.253	0.0147603
826.331	0.0148279
826.410	0.0149378
826.488	0.0149463
826.566	0.0148187
826.644	0.0149054
826.722	0.0149338
826.800	0.0150647
826.878	0.0148895
826.956	0.0148857
827.035	0.0148738
827.113	0.0148650
827.191	0.0149131
827.269	0.0148097
827.347	0.0148476
827.425	0.0148165
827.503	0.0148179
827.581	0.0147111
827.660	0.0147022
827.738	0.0148378
827.816	0.0146500
827.894	0.0146353
827.972	0.0147003
828.050	0.0146204
828.128	0.0146945
828.206	0.0146670
828.285	0.0144501
828.363	0.0146563
828.441	0.0145650
828.519	0.0147642
828.597	0.0146841
828.675	0.0145717
828.753	0.0145527
828.831	0.0145028
828.910	0.0145830
828.988	0.0146817
829.066	0.0146443
829.144	0.0145301
829.222	0.0145483
829.300	0.0146690
829.378	0.0147076
829.456	0.0146189
829.535	0.0145887
829.613	0.0146595
829.691	0.0146673
829.769	0.0145918
829.847	0.0146000
829.925	0.0146613
830.003	0.0146976
830.081	0.0147514
830.160	0.0146783
830.238	0.0146252
830.316	0.0146685
830.394	0.0146602
830.472	0.0146204
830.550	0.0146900
830.628	0.0145958
830.706	0.0146626
830.785	0.0146205
830.863	0.0146201
830.941	0.0146939
831.019	0.0147780
831.097	0.0146969
831.175	0.0147050
831.253	0.0145835
831.331	0.0146263
831.410	0.0146979
831.488	0.0146156
831.566	0.0145856
831.644	0.0145786
831.722	0.0147112
831.800	0.0146515
831.878	0.0146219
831.956	0.0145036
832.035	0.0146623
832.113	0.0146416
832.191	0.0147715
832.269	0.0146651
832.347	0.0147240
832.425	0.0148452
832.503	0.0146595
832.581	0.0147375
832.660	0.0146476
832.738	0.0146402
832.816	0.0147163
832.894	0.0148454
832.972	0.0148537
833.050	0.0147778
833.128	0.0147671
833.206	0.0149932
833.285	0.0148618
833.363	0.0147978
833.441	0.0148725
833.519	0.0148934
833.597	0.0150144
833.675	0.0149626
833.753	0.0149588
833.831	0.0149280
833.910	0.0149066
833.988	0.0148829
834.066	0.0149219
834.144	0.0148553
834.222	0.0148697
834.300	0.0148972
834.378	0.0149058
834.456	0.0147752
834.535	0.0148656
834.613	0.0148531
834.691	0.0147620
834.769	0.0149224
834.847	0.0148458
834.925	0.0148049
835.003	0.0146426
835.081	0.0147944
835.160	0.0146677
835.238	0.0148207
835.316	0.0146889
835.394	0.0147294
835.472	0.0147427
835.550	0.0146861
835.628	0.0146856
835.706	0.0147517
835.785	0.0146494
835.863	0.0146288
835.941	0.0148695
836.019	0.0147004
836.097	0.0145567
836.175	0.0146918
836.253	0.0146918
836.331	0.0145803
836.410	0.0145098
836.488	0.0147121
836.566	0.0148135
836.644	0.0147307
836.722	0.0145972
836.800	0.0146437
836.878	0.0146754
836.956	0.0145805
837.035	0.0146624
837.113	0.0147665
837.191	0.0146113
837.269	0.0147249
837.347	0.0145945
837.425	0.0146439
837.503	0.0146078
837.581	0.0146687
837.660	0.0146344
837.738	0.0147111
837.816	0.0147942
837.894	0.0145540
837.972	0.0145123
838.050	0.0146716
838.128	0.0146680
838.206	0.0145387
838.285	0.0145744
838.363	0.0145837
838.441	0.0147005
838.519	0.0146810
838.597	0.0146830
838.675	0.0145526
838.753	0.0145985
838.831	0.0146124
838.910	0.0146417
838.988	0.0144478
839.066	0.0146485
839.144	0.0147046
839.222	0.0146931
839.300	0.0146518
839.378	0.0144651
839.456	0.0145743
839.535	0.0146543
839.613	0.0146024
839.691	0.0147102
839.769	0.0144748
839.847	0.0147456
839.925	0.0145881
840.003	0.0146582
840.081	0.0146686
840.160	0.0146444
840.238	0.0146143
840.316	0.0145513
840.394	0.0146687
840.472	0.0149274
840.550	0.0147678
840.628	0.0147817
840.706	0.0147421
840.785	0.0146777
840.863	0.0146982
840.941	0.0148937
841.019	0.0148975
841.097	0.0148447
841.175	0.0146755
841.253	0.0147517
841.331	0.0148000
841.410	0.0149126
841.488	0.0147995
841.566	0.0146627
841.644	0.0146279
841.722	0.0147249
841.800	0.0147948
841.878	0.0148074
841.956	0.0147086
842.035	0.0146212
842.113	0.0147408
842.191	0.0147546
842.269	0.0146664
842.347	0.0147250
842.425	0.0146389
842.503	0.0146713
842.581	0.0146988
842.660	0.0146534
842.738	0.0146509
842.816	0.0147733
842.894	0.0146358
842.972	0.0147377
843.050	0.0146284
843.128	0.0146250
843.206	0.0146872
843.285	0.0146655
843.363	0.0147318
843.441	0.0145418
843.519	0.0145336
843.597	0.0147044
843.675	0.0145874
843.753	0.0145639
843.831	0.0145909
843.910	0.0145471
843.988	0.0145347
844.066	0.0145299
844.144	0.0145224
844.222	0.0145158
844.300	0.0144824
844.378	0.0145399
844.456	0.0145308
844.535	0.0145699
844.613	0.0146889
844.691	0.0146246
844.769	0.0144813
844.847	0.0146155
844.925	0.0145779
845.003	0.0146223
845.081	0.0147016
845.160	0.0147141
845.238	0.0145437
845.316	0.0145122
845.394	0.0145960
845.472	0.0146857
845.550	0.0145780
845.628	0.0145039
845.706	0.0145811
845.785	0.0147445
845.863	0.0145623
845.941	0.0145982
846.019	0.0145535
846.097	0.0144990
846.175	0.0146223
846.253	0.0145575
846.331	0.0145564
846.410	0.0144373
846.488	0.0144595
846.566	0.0144905
846.644	0.0144558
846.722	0.0144471
846.800	0.0145334
846.878	0.0144543
846.956	0.0145116
847.035	0.0144501
847.113	0.0146581
847.191	0.0145638
847.269	0.0144100
847.347	0.0146380
847.425	0.0147453
847.503	0.0146824
847.581	0.0146943
847.660	0.0146257
847.738	0.0146724
847.816	0.0147346
847.894	0.0147070
847.972	0.0146130
848.050	0.0147748
848.128	0.0148143
848.206	0.0147976
848.285	0.0147597
848.363	0.0148550
848.441	0.0147968
848.519	0.0147281
848.597	0.0145854
848.675	0.0147339
848.753	0.0148113
848.831	0.0147499
848.910	0.0147237
848.988	0.0148069
849.066	0.0147232
849.144	0.0147234
849.222	0.0147022
849.300	0.0145667
849.378	0.0146309
849.456	0.0147082
849.535	0.0146409
849.613	0.0147334
849.691	0.0146913
849.769	0.0148206
849.847	0.0148723
849.925	0.0147482
850.003	0.0145018
850.081	0.0147132
850.160	0.0147549
850.238	0.0147273
850.316	0.0147311
850.394	0.0147160
850.472	0.0148566
850.550	0.0147235
850.628	0.0148183
850.706	0.0145847
850.785	0.0147261
850.863	0.0148115
850.941	0.0147359
851.019	0.0146648
851.097	0.0147630
851.175	0.0146220
851.253	0.0145895
851.331	0.0147045
851.410	0.0147379
851.488	0.0145917
851.566	0.0147206
851.644	0.0147375
851.722	0.0148531
851.800	0.0148576
851.878	0.0145734
851.956	0.0146092
852.035	0.0147324
852.113	0.0147639
852.191	0.0146798
852.269	0.0146937
852.347	0.0146777
852.425	0.0147878
852.503	0.0147012
852.581	0.0146810
852.660	0.0146919
852.738	0.0147490
852.816	0.0146775
852.894	0.0147112
852.972	0.0148566
853.050	0.0146524
853.128	0.0145943
853.206	0.0146933
853.285	0.0147328
853.363	0.0147711
853.441	0.0146345
853.519	0.0146840
853.597	0.0146896
853.675	0.0146210
853.753	0.0146086
853.831	0.0147286
853.910	0.0146970
853.988	0.0146770
854.066	0.0147429
854.144	0.0147511
854.222	0.0148154
854.300	0.0147640
854.378	0.0147054
854.456	0.0146860
854.535	0.0149706
854.613	0.0147308
854.691	0.0148455
854.769	0.0147517
854.847	0.0147610
854.925	0.0148475
855.003	0.0148979
855.081	0.0148667
855.160	0.0149506
855.238	0.0149509
855.316	0.0149257
855.394	0.0149275
855.472	0.0147987
855.550	0.0150778
855.628	0.0149930
855.706	0.0148994
855.785	0.0147668
855.863	0.0150054
855.941	0.0150740
856.019	0.0148568
856.097	0.0149298
856.175	0.0148800
856.253	0.0148808
856.331	0.0148170
856.410	0.0148734
856.488	0.0149397
856.566	0.0147242
856.644	0.0149043
856.722	0.0147698
856.800	0.0147622
856.878	0.0146604
856.956	0.0148441
857.035	0.0147369
857.113	0.0148304
857.191	0.0148750
857.269	0.0147688
857.347	0.0148863
857.425	0.0147858
857.503	0.0147662
857.581	0.0147646
857.660	0.0147247
857.738	0.0148241
857.816	0.0146767
857.894	0.0148499
857.972	0.0146954
858.050	0.0146952
858.128	0.0147469
858.206	0.0146595
858.285	0.0147156
858.363	0.0147411
858.441	0.0146676
858.519	0.0145639
858.597	0.0146838
858.675	0.0145928
858.753	0.0147134
858.831	0.0146583
858.910	0.0146802
858.988	0.0146839
859.066	0.0147438
859.144	0.0148016
859.222	0.0147060
859.300	0.0144596
859.378	0.0146007
859.456	0.0147260
859.535	0.0146997
859.613	0.0146651
859.691	0.0146333
859.769	0.0145560
859.847	0.0148238
859.925	0.0147548
860.003	0.0145914
860.081	0.0146874
860.160	0.0147185
860.238	0.0147935
860.316	0.0147111
860.394	0.0147392
860.472	0.0146858
860.550	0.0145127
860.628	0.0146008
860.706	0.0146325
860.785	0.0146632
860.863	0.0147088
860.941	0.0146433
861.019	0.0145968
861.097	0.0145483
861.175	0.0145450
861.253	0.0146790
861.331	0.0146008
861.410	0.0147037
861.488	0.0147789
861.566	0.0146453
861.644	0.0147062
861.722	0.0146906
861.800	0.0146577
861.878	0.0145808
861.956	0.0148316
862.035	0.0147046
862.113	0.0148582
862.191	0.0148076
862.269	0.0147459
862.347	0.0147516
862.425	0.0148108
862.503	0.0149029
862.581	0.0149083
862.660	0.0147971
862.738	0.0147755
862.816	0.0148854
862.894	0.0150262
862.972	0.0149230
863.050	0.0146761
863.128	0.0146841
863.206	0.0148209
863.285	0.0147511
863.363	0.0148098
863.441	0.0148145
863.519	0.0147418
863.597	0.0147979
863.675	0.0147420
863.753	0.0147167
863.831	0.0146018
863.910	0.0147896
863.988	0.0147841
864.066	0.0146508
864.144	0.0146500
864.222	0.0146231
864.300	0.0146767
864.378	0.0146230
864.456	0.0146466
864.535	0.0147164
864.613	0.0144635
864.691	0.0146758
864.769	0.0146970
864.847	0.0145918
864.925	0.0146581
865.003	0.0144649
865.081	0.0145667
865.160	0.0145671
865.238	0.0145111
865.316	0.0145440
865.394	0.0146713
865.472	0.0144707
865.550	0.0146162
865.628	0.0146095
865.706	0.0145293
865.785	0.0145174
865.863	0.0147123
865.941	0.0144521
866.019	0.0144493
866.097	0.0146682
866.175	0.0145938
866.253	0.0144593
866.331	0.0146072
866.410	0.0146875
866.488	0.0147081
866.566	0.0144617
866.644	0.0145808
866.722	0.0146132
866.800	0.0146344
866.878	0.0145660
866.956	0.0145782
867.035	0.0145397
867.113	0.0146482
867.191	0.0145594
867.269	0.0144748
867.347	0.0147561
867.425	0.0146616
867.503	0.0146445
867.581	0.0145564
867.660	0.0146000
867.738	0.0146432
867.816	0.0145382
867.894	0.0144443
867.972	0.0146319
868.050	0.0146963
868.128	0.0145318
868.206	0.0145685
868.285	0.0145271
868.363	0.0146051
868.441	0.0146147
868.519	0.0147479
868.597	0.0146543
868.675	0.0146401
868.753	0.0145973
868.831	0.0145379
868.910	0.0146024
868.988	0.0145079
869.066	0.0145879
869.144	0.0145642
869.222	0.0146958
869.300	0.0146802
869.378	0.0147063
869.456	0.0145880
869.535	0.0146278
869.613	0.0147934
869.691	0.0147935
869.769	0.0147750
869.847	0.0146487
869.925	0.0147414
870.003	0.0147645
870.081	0.0146161
870.160	0.0147019
870.238	0.0148550
870.316	0.0146760
870.394	0.0149135
870.472	0.0149326
870.550	0.0147570
870.628	0.0147127
870.706	0.0146353
870.785	0.0146935
870.863	0.0147573
870.941	0.0146097
871.019	0.0147507
871.097	0.0147755
871.175	0.0147041
871.253	0.0146729
871.331	0.0147343
871.410	0.0146767
871.488	0.0146793
871.566	0.0146760
871.644	0.0145966
871.722	0.0145926
871.800	0.0146012
871.878	0.0146649
871.956	0.0146152
872.035	0.0145955
872.113	0.0146176
872.191	0.0146393
872.269	0.0146239
872.347	0.0147299
872.425	0.0146330
872.503	0.0145602
872.581	0.0145564
872.660	0.0146236
872.738	0.0146788
872.816	0.0146327
872.894	0.0146620
872.972	0.0144959
873.050	0.0145682
873.128	0.0147570
873.206	0.0144421
873.285	0.0144872
873.363	0.0145733
873.441	0.0145322
873.519	0.0145996
873.597	0.0146925
873.675	0.0146462
873.753	0.0145564
873.831	0.0145199
873.910	0.0146066
873.988	0.0146869
874.066	0.0145190
874.144	0.0145175
874.222	0.0146868
874.300	0.0146536
874.378	0.0146169
874.456	0.0147645
874.535	0.0146387
874.613	0.0147018
874.691	0.0146841
874.769	0.0147420
874.847	0.0146388
874.925	0.0145655
875.003	0.0147385
875.081	0.0147370
875.160	0.0147131
875.238	0.0145748
875.316	0.0146644
875.394	0.0147083
875.472	0.0147292
875.550	0.0146680
875.628	0.0147584
875.706	0.0147520
875.785	0.0146583
875.863	0.0147649
875.941	0.0147003
876.019	0.0146732
876.097	0.0148753
876.175	0.0148882
876.253	0.0148177
876.331	0.0147717
876.410	0.0148506
876.488	0.0148385
876.566	0.0147205
876.644	0.0148792
876.722	0.0149014
876.800	0.0148737
876.878	0.0149002
876.956	0.0147856
877.035	0.0148553
877.113	0.0149129
877.191	0.0149260
877.269	0.0150726
877.347	0.0150500
877.425	0.0149368
877.503	0.0148098
877.581	0.0150031
877.660	0.0150955
877.738	0.0148877
877.816	0.0148809
877.894	0.0148072
877.972	0.0149143
878.050	0.0148291
878.128	0.0148882
878.206	0.0148197
878.285	0.0148665
878.363	0.0147586
878.441	0.0147724
878.519	0.0147731
878.597	0.0147459
878.675	0.0146458
878.753	0.0148784
878.831	0.0147263
878.910	0.0148103
878.988	0.0147429
879.066	0.0147202
879.144	0.0147280
879.222	0.0147935
879.300	0.0145927
879.378	0.0146519
879.456	0.0146806
879.535	0.0146619
879.613	0.0147025
879.691	0.0147485
879.769	0.0145268
879.847	0.0146700
879.925	0.0146753
880.003	0.0146816
880.081	0.0146006
880.160	0.0146691
880.238	0.0145126
880.316	0.0145089
880.394	0.0145361
880.472	0.0145399
880.550	0.0145473
880.628	0.0145392
880.706	0.0144512
880.785	0.0144850
880.863	0.0146457
880.941	0.0145294
881.019	0.0144186
881.097	0.0143701
881.175	0.0144826
881.253	0.0145084
881.331	0.0145260
881.410	0.0145506
881.488	0.0146787
881.566	0.0146786
881.644	0.0144778
881.722	0.0146104
881.800	0.0148296
881.878	0.0145586
881.956	0.0145147
882.035	0.0146848
882.113	0.0145972
882.191	0.0146150
882.269	0.0146368
882.347	0.0145818
882.425	0.0146211
882.503	0.0144662
882.581	0.0146812
882.660	0.0146795
882.738	0.0146169
882.816	0.0144694
882.894	0.0145672
882.972	0.0145716
883.050	0.0146120
883.128	0.0146901
883.206	0.0146780
883.285	0.0145081
883.363	0.0144563
883.441	0.0146842
883.519	0.0146777
883.597	0.0146436
883.675	0.0146223
883.753	0.0146954
883.831	0.0147755
883.910	0.0148158
883.988	0.0147607
884.066	0.0148695
884.144	0.0147337
884.222	0.0147808
884.300	0.0148242
884.378	0.0147404
884.456	0.0148602
884.535	0.0150114
884.613	0.0149113
884.691	0.0149026
884.769	0.0149317
884.847	0.0149830
884.925	0.0148761
885.003	0.0149084
885.081	0.0148472
885.160	0.0147498
885.238	0.0147713
885.316	0.0148370
885.394	0.0148601
885.472	0.0147839
885.550	0.0147736
885.628	0.0147330
885.706	0.0146230
885.785	0.0147883
885.863	0.0147935
885.941	0.0146877
886.019	0.0147364
886.097	0.0145847
886.175	0.0146999
886.253	0.0147506
886.331	0.0145721
886.410	0.0145274
886.488	0.0146974
886.566	0.0146643
886.644	0.0145302
886.722	0.0145200
886.800	0.0146457
886.878	0.0146062
886.956	0.0146108
887.035	0.0145335
887.113	0.0147385
887.191	0.0144829
887.269	0.0146842
887.347	0.0144695
887.425	0.0145464
887.503	0.0145765
887.581	0.0147151
887.660	0.0144551
887.738	0.0144129
887.816	0.0146258
887.894	0.0144578
887.972	0.0145290
888.050	0.0145502
888.128	0.0146197
888.206	0.0146114
888.285	0.0145386
888.363	0.0144407
888.441	0.0144923
888.519	0.0145527
888.597	0.0146494
888.675	0.0145490
888.753	0.0145603
888.831	0.0146159
888.910	0.0145738
888.988	0.0145932
889.066	0.0146532
889.144	0.0146128
889.222	0.0146268
889.300	0.0145760
889.378	0.0146598
889.456	0.0145419
889.535	0.0146500
889.613	0.0145335
889.691	0.0145718
889.769	0.0144816
889.847	0.0146035
889.925	0.0146613
890.003	0.0146268
890.081	0.0145306
890.160	0.0144781
890.238	0.0144816
890.316	0.0144488
890.394	0.0145647
890.472	0.0145273
890.550	0.0146535
890.628	0.0147047
890.706	0.0146587
890.785	0.0145866
890.863	0.0147781
890.941	0.0147964
891.019	0.0146982
891.097	0.0147001
891.175	0.0148064
891.253	0.0147852
891.331	0.0148963
891.410	0.0147710
891.488	0.0149255
891.566	0.0149834
891.644	0.0148705
891.722	0.0148050
891.800	0.0149714
891.878	0.0150984
891.956	0.0148933
892.035	0.0148888
892.113	0.0150123
892.191	0.0150197
892.269	0.0150192
892.347	0.0148830
892.425	0.0148430
892.503	0.0147959
892.581	0.0147948
892.660	0.0146979
892.738	0.0147637
892.816	0.0149737
892.894	0.0149828
892.972	0.0148747
893.050	0.0147476
893.128	0.0148678
893.206	0.0147646
893.285	0.0145198
893.363	0.0147843
893.441	0.0147427
893.519	0.0147898
893.597	0.0147556
893.675	0.0146764
893.753	0.0147340
893.831	0.0146975
893.910	0.0147725
893.988	0.0147531
894.066	0.0147162
894.144	0.0146566
894.222	0.0145175
894.300	0.0146284
894.378	0.0146506
894.456	0.0146569
894.535	0.0147094
894.613	0.0145966
894.691	0.0146043
894.769	0.0145755
894.847	0.0145872
894.925	0.0145455
895.003	0.0145980
895.081	0.0144827
895.160	0.0145938
895.238	0.0146136
895.316	0.0144930
895.394	0.0145825
895.472	0.0145470
895.550	0.0146811
895.628	0.0146036
895.706	0.0144415
895.785	0.0146176
895.863	0.0146095
895.941	0.0145812
896.019	0.0144993
896.097	0.0145880
896.175	0.0145440
896.253	0.0144902
896.331	0.0144678
896.410	0.0145968
896.488	0.0146693
896.566	0.0147244
896.644	0.0144723
896.722	0.0144915
896.800	0.0145180
896.878	0.0144865
896.956	0.0145168
897.035	0.0144212
897.113	0.0144580
897.191	0.0145158
897.269	0.0144617
897.347	0.0144711
897.425	0.0144456
897.503	0.0145448
897.581	0.0147173
897.660	0.0145588
897.738	0.0145111
897.816	0.0145178
897.894	0.0143853
897.972	0.0144571
898.050	0.0146102
898.128	0.0145667
898.206	0.0144382
898.285	0.0146526
898.363	0.0147870
898.441	0.0146283
898.519	0.0146526
898.597	0.0146526
898.675	0.0147240
898.753	0.0146507
898.831	0.0147572
898.910	0.0147734
898.988	0.0146152
899.066	0.0145861
899.144	0.0146046
899.222	0.0147813
899.300	0.0147209
899.378	0.0147252
899.456	0.0146871
899.535	0.0146393
899.613	0.0145712
899.691	0.0145459
899.769	0.0145612
899.847	0.0146515
899.925	0.0147041
900.003	0.0145946
900.081	0.0144692
900.160	0.0146276
900.238	0.0145902
900.316	0.0145702
900.394	0.0145800
900.472	0.0146417
900.550	0.0144969
900.628	0.0145098
900.706	0.0145642
900.785	0.0145588
900.863	0.0145653
900.941	0.0145953
901.019	0.0145438
901.097	0.0146945
901.175	0.0147046
901.253	0.0146176
901.331	0.0145471
901.410	0.0146806
901.488	0.0145899
901.566	0.0147729
901.644	0.0145615
901.722	0.0145895
901.800	0.0147429
901.878	0.0147023
901.956	0.0146165
902.035	0.0145450
902.113	0.0146139
902.191	0.0146431
902.269	0.0145407
902.347	0.0146037
902.425	0.0145885
902.503	0.0145837
902.581	0.0147006
902.660	0.0147443
902.738	0.0146661
902.816	0.0146642
902.894	0.0146892
902.972	0.0146926
903.050	0.0145968
903.128	0.0147924
903.206	0.0147144
903.285	0.0145886
903.363	0.0146937
903.441	0.0146062
903.519	0.0145666
903.597	0.0147698
903.675	0.0145232
903.753	0.0147304
903.831	0.0145944
903.910	0.0146052
903.988	0.0145040
904.066	0.0146064
904.144	0.0145957
904.222	0.0148087
904.300	0.0146418
904.378	0.0146465
904.456	0.0145950
904.535	0.0145747
904.613	0.0145652
904.691	0.0144046
904.769	0.0146095
904.847	0.0144557
904.925	0.0145016
905.003	0.0145737
905.081	0.0147150
905.160	0.0147041
905.238	0.0147894
905.316	0.0146300
905.394	0.0145584
905.472	0.0146003
905.550	0.0148103
905.628	0.0147611
905.706	0.0148576
905.785	0.0148254
905.863	0.0147927
905.941	0.0148460
906.019	0.0148821
906.097	0.0148713
906.175	0.0148167
906.253	0.0148911
906.331	0.0148796
906.410	0.0148777
906.488	0.0149079
906.566	0.0149668
906.644	0.0148885
906.722	0.0149099
906.800	0.0149580
906.878	0.0150260
906.956	0.0147687
907.035	0.0147360
907.113	0.0148352
907.191	0.0147861
907.269	0.0148586
907.347	0.0146861
907.425	0.0146877
907.503	0.0146668
907.581	0.0147228
907.660	0.0146809
907.738	0.0148721
907.816	0.0147985
907.894	0.0147445
907.972	0.0146715
908.050	0.0147176
908.128	0.0147128
908.206	0.0146386
908.285	0.0147627
908.363	0.0147438
908.441	0.0146302
908.519	0.0147012
908.597	0.0146813
908.675	0.0147433
908.753	0.0146165
908.831	0.0147484
908.910	0.0146135
908.988	0.0146378
909.066	0.0146779
909.144	0.0147115
909.222	0.0146886
909.300	0.0147140
909.378	0.0145773
909.456	0.0145837
909.535	0.0145984
909.613	0.0147150
909.691	0.0147393
909.769	0.0146405
909.847	0.0148611
909.925	0.0146774
910.003	0.0145918
910.081	0.0148421
910.160	0.0146689
910.238	0.0147839
910.316	0.0147545
910.394	0.0146513
910.472	0.0146569
910.550	0.0147923
910.628	0.0147787
910.706	0.0147758
910.785	0.0147658
910.863	0.0145976
910.941	0.0147012
911.019	0.0149090
911.097	0.0146391
911.175	0.0146225
911.253	0.0146930
911.331	0.0146564
911.410	0.0147655
911.488	0.0147239
911.566	0.0146198
911.644	0.0146697
911.722	0.0147431
911.800	0.0147037
911.878	0.0146703
911.956	0.0146654
912.035	0.0147878
912.113	0.0146098
912.191	0.0146245
912.269	0.0146461
912.347	0.0147561
912.425	0.0146894
912.503	0.0147344
912.581	0.0147279
912.660	0.0147175
912.738	0.0146690
912.816	0.0145156
912.894	0.0146114
912.972	0.0147655
913.050	0.0147079
913.128	0.0147515
913.206	0.0147279
913.285	0.0146901
913.363	0.0147923
913.441	0.0146873
913.519	0.0148038
913.597	0.0147089
913.675	0.0148453
913.753	0.0146614
913.831	0.0145997
913.910	0.0146927
913.988	0.0146935
914.066	0.0147746
914.144	0.0147026
914.222	0.0146490
914.300	0.0147655
914.378	0.0147353
914.456	0.0145605
914.535	0.0146318
914.613	0.0145142
914.691	0.0145805
914.769	0.0146114
914.847	0.0145737
914.925	0.0145969
915.003	0.0145488
915.081	0.0146300
915.160	0.0146091
915.238	0.0147021
915.316	0.0147485
915.394	0.0144580
915.472	0.0145432
915.550	0.0146776
915.628	0.0146194
915.706	0.0147342
915.785	0.0146840
915.863	0.0146455
915.941	0.0146807
916.019	0.0145499
916.097	0.0146404
916.175	0.0146179
916.253	0.0147206
916.331	0.0147952
916.410	0.0147177
916.488	0.0147064
916.566	0.0147112
916.644	0.0147289
916.722	0.0146336
916.800	0.0146963
916.878	0.0146591
916.956	0.0145961
917.035	0.0147932
917.113	0.0147179
917.191	0.0146669
917.269	0.0148126
917.347	0.0147315
917.425	0.0146973
917.503	0.0147836
917.581	0.0147009
917.660	0.0147517
917.738	0.0145815
917.816	0.0146993
917.894	0.0147463
917.972	0.0146814
918.050	0.0146468
918.128	0.0146208
918.206	0.0146754
918.285	0.0145988
918.363	0.0145615
918.441	0.0146719
918.519	0.0146783
918.597	0.0145428
918.675	0.0145950
918.753	0.0145141
918.831	0.0145200
918.910	0.0145016
918.988	0.0145496
919.066	0.0144112
919.144	0.0145291
919.222	0.0145791
919.300	0.0145004
919.378	0.0144185
919.456	0.0145917
919.535	0.0145285
919.613	0.0145504
919.691	0.0146285
919.769	0.0144308
919.847	0.0146461
919.925	0.0145522
920.003	0.0145773
920.081	0.0146609
920.160	0.0146272
920.238	0.0145837
920.316	0.0147292
920.394	0.0146800
920.472	0.0146012
920.550	0.0145731
920.628	0.0146517
920.706	0.0148524
920.785	0.0147942
920.863	0.0147080
920.941	0.0146403
921.019	0.0146529
921.097	0.0147342
921.175	0.0148598
921.253	0.0147112
921.331	0.0145909
921.410	0.0148223
921.488	0.0147128
921.566	0.0147111
921.644	0.0146214
921.722	0.0145313
921.800	0.0146375
921.878	0.0145321
921.956	0.0146681
922.035	0.0146751
922.113	0.0147403
922.191	0.0145520
922.269	0.0146674
922.347	0.0147231
922.425	0.0146796
922.503	0.0146699
922.581	0.0145881
922.660	0.0146052
922.738	0.0145641
922.816	0.0147225
922.894	0.0146667
922.972	0.0145697
923.050	0.0146379
923.128	0.0146384
923.206	0.0147527
923.285	0.0145788
923.363	0.0145557
923.441	0.0147168
923.519	0.0145758
923.597	0.0145592
923.675	0.0146278
923.753	0.0145870
923.831	0.0145712
923.910	0.0145382
923.988	0.0145340
924.066	0.0145274
924.144	0.0145743
924.222	0.0145821
924.300	0.0145814
924.378	0.0146577
924.456	0.0145349
924.535	0.0145305
924.613	0.0147512
924.691	0.0146885
924.769	0.0146005
924.847	0.0146608
924.925	0.0145936
925.003	0.0147055
925.081	0.0145027
925.160	0.0145353
925.238	0.0147975
925.316	0.0144555
925.394	0.0144576
925.472	0.0144531
925.550	0.0146233
925.628	0.0145451
925.706	0.0145996
925.785	0.0145427
925.863	0.0146003
925.941	0.0145401
926.019	0.0146478
926.097	0.0146494
926.175	0.0146516
926.253	0.0146120
926.331	0.0146228
926.410	0.0145410
926.488	0.0146120
926.566	0.0147021
926.644	0.0146678
926.722	0.0146807
926.800	0.0148251
926.878	0.0146654
926.956	0.0146498
927.035	0.0146883
927.113	0.0146743
927.191	0.0149177
927.269	0.0147622
927.347	0.0146490
927.425	0.0148150
927.503	0.0147530
927.581	0.0147630
927.660	0.0147498
927.738	0.0147158
927.816	0.0147814
927.894	0.0148563
927.972	0.0148811
928.050	0.0148571
928.128	0.0149248
928.206	0.0149401
928.285	0.0149250
928.363	0.0149017
928.441	0.0150259
928.519	0.0150414
928.597	0.0148627
928.675	0.0149199
928.753	0.0149790
928.831	0.0148795
928.910	0.0148053
928.988	0.0147311
929.066	0.0149020
929.144	0.0148293
929.222	0.0146935
929.300	0.0148060
929.378	0.0147392
929.456	0.0147550
929.535	0.0146950
929.613	0.0146237
929.691	0.0147381
929.769	0.0148218
929.847	0.0147532
929.925	0.0145077
930.003	0.0146289
930.081	0.0147150
930.160	0.0146292
930.238	0.0146519
930.316	0.0148396
930.394	0.0148306
930.472	0.0147011
930.550	0.0145119
930.628	0.0146104
930.706	0.0144900
930.785	0.0145959
930.863	0.0145969
930.941	0.0146955
931.019	0.0147842
931.097	0.0147244
931.175	0.0146796
931.253	0.0145020
931.331	0.0145929
931.410	0.0145022
931.488	0.0145077
931.566	0.0146175
931.644	0.0145187
931.722	0.0146019
931.800	0.0144944
931.878	0.0145482
931.956	0.0146595
932.035	0.0145412
932.113	0.0145573
932.191	0.0146622
932.269	0.0144585
932.347	0.0145788
932.425	0.0145731
932.503	0.0144999
932.581	0.0145910
932.660	0.0145560
932.738	0.0146980
932.816	0.0145078
932.894	0.0144714
932.972	0.0145572
933.050	0.0145619
933.128	0.0145963
933.206	0.0146201
933.285	0.0146863
933.363	0.0146164
933.441	0.0147049
933.519	0.0148327
933.597	0.0146055
933.675	0.0145404
933.753	0.0146522
933.831	0.0145868
933.910	0.0146346
933.988	0.0146196
934.066	0.0146072
934.144	0.0148056
934.222	0.0147514
934.300	0.0146437
934.378	0.0146779
934.456	0.0146704
934.535	0.0148555
934.613	0.0146426
934.691	0.0146191
934.769	0.0147741
934.847	0.0148469
934.925	0.0147912
935.003	0.0147735
935.081	0.0147937
935.160	0.0147993
935.238	0.0148729
935.316	0.0149066
935.394	0.0147980
935.472	0.0148566
935.550	0.0149429
935.628	0.0148502
935.706	0.0148367
935.785	0.0147774
935.863	0.0148373
935.941	0.0148551
936.019	0.0148129
936.097	0.0148298
936.175	0.0147713
936.253	0.0146915
936.331	0.0148026
936.410	0.0147572
936.488	0.0148633
936.566	0.0146305
936.644	0.0145651
936.722	0.0147173
936.800	0.0146539
936.878	0.0147013
936.956	0.0146725
937.035	0.0147368
937.113	0.0148209
937.191	0.0147363
937.269	0.0146986
937.347	0.0148109
937.425	0.0146524
937.503	0.0147166
937.581	0.0147840
937.660	0.0147179
937.738	0.0148669
937.816	0.0147356
937.894	0.0147439
937.972	0.0147496
938.050	0.0148238
938.128	0.0148371
938.206	0.0147507
938.285	0.0145766
938.363	0.0146866
938.441	0.0146447
938.519	0.0147082
938.597	0.0146393
938.675	0.0147148
938.753	0.0146503
938.831	0.0146134
938.910	0.0146289
938.988	0.0146053
939.066	0.0145538
939.144	0.0145747
939.222	0.0146565
939.300	0.0145410
939.378	0.0145337
939.456	0.0146519
939.535	0.0147805
939.613	0.0145941
939.691	0.0147008
939.769	0.0147077
939.847	0.0146104
939.925	0.0147856
940.003	0.0146804
940.081	0.0146115
940.160	0.0146306
940.238	0.0146855
940.316	0.0147798
940.394	0.0147475
940.472	0.0147611
940.550	0.0147496
940.628	0.0147827
940.706	0.0145947
940.785	0.0147301
940.863	0.0147415
940.941	0.0146961
941.019	0.0146614
941.097	0.0145564
941.175	0.0146338
941.253	0.0146370
941.331	0.0146519
941.410	0.0145918
941.488	0.0145345
941.566	0.0147454
941.644	0.0146321
941.722	0.0147643
941.800	0.0145713
941.878	0.0146130
941.956	0.0145669
942.035	0.0144768
942.113	0.0146301
942.191	0.0147153
942.269	0.0145496
942.347	0.0146082
942.425	0.0147171
942.503	0.0145975
942.581	0.0147439
942.660	0.0146775
942.738	0.0145871
942.816	0.0147089
942.894	0.0146592
942.972	0.0146889
943.050	0.0147362
943.128	0.0145604
943.206	0.0146093
943.285	0.0147151
943.363	0.0147464
943.441	0.0147330
943.519	0.0145217
943.597	0.0145072
943.675	0.0146114
943.753	0.0145705
943.831	0.0145798
943.910	0.0145391
943.988	0.0146107
944.066	0.0147267
944.144	0.0145755
944.222	0.0145393
944.300	0.0145464
944.378	0.0146794
944.456	0.0146160
944.535	0.0144987
944.613	0.0145765
944.691	0.0146110
944.769	0.0146230
944.847	0.0147358
944.925	0.0146344
945.003	0.0146707
945.081	0.0145723
945.160	0.0145695
945.238	0.0146746
945.316	0.0146989
945.394	0.0146574
945.472	0.0146046
945.550	0.0147692
945.628	0.0147339
945.706	0.0146875
945.785	0.0146842
945.863	0.0145326
945.941	0.0147358
946.019	0.0146870
946.097	0.0146507
946.175	0.0146468
946.253	0.0147178
946.331	0.0147630
946.410	0.0145591
946.488	0.0147386
946.566	0.0147448
946.644	0.0146738
946.722	0.0147319
946.800	0.0146989
946.878	0.0146609
946.956	0.0146292
947.035	0.0146987
947.113	0.0147440
947.191	0.0147038
947.269	0.0147713
947.347	0.0146716
947.425	0.0147147
947.503	0.0147031
947.581	0.0146244
947.660	0.0145343
947.738	0.0147655
947.816	0.0148237
947.894	0.0147327
947.972	0.0147133
948.050	0.0148429
948.128	0.0147226
948.206	0.0146377
948.285	0.0146536
948.363	0.0146828
948.441	0.0146537
948.519	0.0144958
948.597	0.0146499
948.675	0.0146297
948.753	0.0145314
948.831	0.0145705
948.910	0.0145872
948.988	0.0146350
949.066	0.0146751
949.144	0.0145683
949.222	0.0144343
949.300	0.0144879
949.378	0.0146562
949.456	0.0145752
949.535	0.0145701
949.613	0.0145211
949.691	0.0145070
949.769	0.0147447
949.847	0.0147847
949.925	0.0147582
950.003	0.0146801
950.081	0.0147417
950.160	0.0146344
950.238	0.0147436
950.316	0.0147837
950.394	0.0147226
950.472	0.0147835
950.550	0.0148225
950.628	0.0147397
950.706	0.0147849
950.785	0.0148097
950.863	0.0147138
950.941	0.0146909
951.019	0.0147118
951.097	0.0147210
951.175	0.0148357
951.253	0.0147559
951.331	0.0148447
951.410	0.0146659
951.488	0.0146269
951.566	0.0148222
951.644	0.0147886
951.722	0.0146761
951.800	0.0147056
951.878	0.0146826
951.956	0.0148791
952.035	0.0147986
952.113	0.0147155
952.191	0.0147596
952.269	0.0147442
952.347	0.0147997
952.425	0.0149779
952.503	0.0147694
952.581	0.0147232
952.660	0.0146742
952.738	0.0148383
952.816	0.0148173
952.894	0.0147844
952.972	0.0146903
953.050	0.0148240
953.128	0.0147576
953.206	0.0147150
953.285	0.0146877
953.363	0.0147377
953.441	0.0146729
953.519	0.0147143
953.597	0.0145538
953.675	0.0147131
953.753	0.0144206
953.831	0.0145947
953.910	0.0147367
953.988	0.0146797
954.066	0.0146779
954.144	0.0146334
954.222	0.0145865
954.300	0.0147598
954.378	0.0147330
954.456	0.0146733
954.535	0.0148162
954.613	0.0146395
954.691	0.0146535
954.769	0.0146106
954.847	0.0145835
954.925	0.0147230
955.003	0.0145864
955.081	0.0146054
955.160	0.0146362
955.238	0.0145890
955.316	0.0146891
955.394	0.0147561
955.472	0.0146069
955.550	0.0146616
955.628	0.0145531
955.706	0.0146783
955.785	0.0146679
955.863	0.0145882
955.941	0.0145654
956.019	0.0144839
956.097	0.0145791
956.175	0.0145699
956.253	0.0145304
956.331	0.0146428
956.410	0.0146175
956.488	0.0147619
956.566	0.0146338
956.644	0.0145200
956.722	0.0146752
956.800	0.0146603
956.878	0.0147097
956.956	0.0146073
957.035	0.0147478
957.113	0.0147449
957.191	0.0147762
957.269	0.0146992
957.347	0.0146780
957.425	0.0147449
957.503	0.0148294
957.581	0.0147878
957.660	0.0146983
957.738	0.0146838
957.816	0.0146671
957.894	0.0148790
957.972	0.0150092
958.050	0.0148892
958.128	0.0147150
958.206	0.0148734
958.285	0.0148524
958.363	0.0147065
958.441	0.0147057
958.519	0.0148071
958.597	0.0148264
958.675	0.0147533
958.753	0.0148087
958.831	0.0146625
958.910	0.0145885
958.988	0.0146799
959.066	0.0147841
959.144	0.0146918
959.222	0.0146643
959.300	0.0146577
959.378	0.0146082
959.456	0.0145270
959.535	0.0146433
959.613	0.0145863
959.691	0.0147259
959.769	0.0145428
959.847	0.0145152
959.925	0.0144910
960.003	0.0145157
960.081	0.0146220
960.160	0.0145286
960.238	0.0144108
960.316	0.0144792
960.394	0.0143880
960.472	0.0144305
960.550	0.0145554
960.628	0.0143603
960.706	0.0144736
960.785	0.0145158
960.863	0.0144276
960.941	0.0143141
961.019	0.0143752
961.097	0.0143642
961.175	0.0143330
961.253	0.0143801
961.331	0.0144183
961.410	0.0142735
961.488	0.0142954
961.566	0.0143904
961.644	0.0144894
961.722	0.0144532
961.800	0.0144918
961.878	0.0144143
961.956	0.0145370
962.035	0.0145155
962.113	0.0146517
962.191	0.0145461
962.269	0.0144991
962.347	0.0145705
962.425	0.0146023
962.503	0.0145980
962.581	0.0146067
962.660	0.0146217
962.738	0.0146857
962.816	0.0146828
962.894	0.0145946
962.972	0.0146490
963.050	0.0146831
963.128	0.0147195
963.206	0.0146122
963.285	0.0146738
963.363	0.0145872
963.441	0.0147556
963.519	0.0148077
963.597	0.0145953
963.675	0.0145672
963.753	0.0147961
963.831	0.0146312
963.910	0.0146544
963.988	0.0147158
964.066	0.0147649
964.144	0.0148277
964.222	0.0147373
964.300	0.0146875
964.378	0.0146543
964.456	0.0147953
964.535	0.0147743
964.613	0.0147605
964.691	0.0149582
964.769	0.0148459
964.847	0.0148262
964.925	0.0148161
965.003	0.0149601
965.081	0.0148775
965.160	0.0149566
965.238	0.0150667
965.316	0.0149202
965.394	0.0148855
965.472	0.0147592
965.550	0.0148365
965.628	0.0148291
965.706	0.0148173
965.785	0.0148170
965.863	0.0146503
965.941	0.0146221
966.019	0.0148154
966.097	0.0147117
966.175	0.0146042
966.253	0.0147146
966.331	0.0147695
966.410	0.0145763
966.488	0.0145973
966.566	0.0145659
966.644	0.0146853
966.722	0.0148078
966.800	0.0146332
966.878	0.0146651
966.956	0.0147061
967.035	0.0146928
967.113	0.0147353
967.191	0.0146280
967.269	0.0149036
967.347	0.0147303
967.425	0.0146825
967.503	0.0146227
967.581	0.0145889
967.660	0.0146607
967.738	0.0146561
967.816	0.0145318
967.894	0.0145403
967.972	0.0144842
968.050	0.0144559
968.128	0.0146325
968.206	0.0146227
968.285	0.0147337
968.363	0.0145833
968.441	0.0145517
968.519	0.0146011
968.597	0.0145887
968.675	0.0146790
968.753	0.0146223
968.831	0.0147008
968.910	0.0147031
968.988	0.0145950
969.066	0.0146416
969.144	0.0146247
969.222	0.0147441
969.300	0.0146596
969.378	0.0148292
969.456	0.0146539
969.535	0.0147938
969.613	0.0147620
969.691	0.0147232
969.769	0.0146948
969.847	0.0147697
969.925	0.0146968
970.003	0.0146592
970.081	0.0146941
970.160	0.0146385
970.238	0.0147801
970.316	0.0148207
970.394	0.0149010
970.472	0.0147108
970.550	0.0148196
970.628	0.0146054
970.706	0.0145760
970.785	0.0147504
970.863	0.0146963
970.941	0.0145210
971.019	0.0146638
971.097	0.0147118
971.175	0.0147141
971.253	0.0147654
971.331	0.0147375
971.410	0.0146654
971.488	0.0146525
971.566	0.0148444
971.644	0.0148784
971.722	0.0148795
971.800	0.0148108
971.878	0.0148953
971.956	0.0148098
972.035	0.0148769
972.113	0.0147694
972.191	0.0148581
972.269	0.0148371
972.347	0.0148270
972.425	0.0147945
972.503	0.0148062
972.581	0.0148280
972.660	0.0148914
972.738	0.0146774
972.816	0.0146282
972.894	0.0148369
972.972	0.0149536
973.050	0.0146449
973.128	0.0148217
973.206	0.0146874
973.285	0.0147323
973.363	0.0146162
973.441	0.0147012
973.519	0.0147160
973.597	0.0145583
973.675	0.0146230
973.753	0.0147201
973.831	0.0146937
973.910	0.0147621
973.988	0.0147533
974.066	0.0146253
974.144	0.0145717
974.222	0.0146344
974.300	0.0145555
974.378	0.0145939
974.456	0.0145803
974.535	0.0145933
974.613	0.0146768
974.691	0.0147360
974.769	0.0146650
974.847	0.0146147
974.925	0.0147774
975.003	0.0147066
975.081	0.0146276
975.160	0.0145631
975.238	0.0145610
975.316	0.0145473
975.394	0.0146619
975.472	0.0145957
975.550	0.0146283
975.628	0.0145333
975.706	0.0145615
975.785	0.0147218
975.863	0.0145544
975.941	0.0145119
976.019	0.0145802
976.097	0.0147574
976.175	0.0146451
976.253	0.0146162
976.331	0.0147934
976.410	0.0147364
976.488	0.0146514
976.566	0.0146589
976.644	0.0147427
976.722	0.0147543
976.800	0.0147176
976.878	0.0148003
976.956	0.0146844
977.035	0.0145531
977.113	0.0146343
977.191	0.0148100
977.269	0.0148285
977.347	0.0146299
977.425	0.0147352
977.503	0.0148015
977.581	0.0146989
977.660	0.0147778
977.738	0.0145461
977.816	0.0145345
977.894	0.0147124
977.972	0.0146218
978.050	0.0145236
978.128	0.0145182
978.206	0.0145807
978.285	0.0146487
978.363	0.0146472
978.441	0.0145723
978.519	0.0145283
978.597	0.0145783
978.675	0.0146908
978.753	0.0145760
978.831	0.0145605
978.910	0.0146976
978.988	0.0146403
979.066	0.0145124
979.144	0.0145408
979.222	0.0146609
979.300	0.0147281
979.378	0.0146221
979.456	0.0145926
979.535	0.0148235
979.613	0.0147057
979.691	0.0148103
979.769	0.0147586
979.847	0.0146126
979.925	0.0147725
