05/03/2022	20:46:38	Ver.	4.1	UNKNOWN
Optical Delay	660.003261	Delta X		0.078125	Sweeps	1	Scan Rate	0/0
Coordinates	Axis 1	NaN	Axis 2	NaN	Axis 3	NaN	Axis 4	NaN	Axis 5	NaN	Axis 6	0.000000
TX Power	0.000000	RX Power	0.000000

660.003	0.0141265
660.081	0.0140676
660.160	0.0140890
660.238	0.0140971
660.316	0.0141325
660.394	0.0142085
660.472	0.0142141
660.550	0.0142182
660.628	0.0140398
660.706	0.0139570
660.785	0.0141406
660.863	0.0140885
660.941	0.0140849
661.019	0.0140749
661.097	0.0140395
661.175	0.0140561
661.253	0.0140112
661.331	0.0141187
661.410	0.0140053
661.488	0.0141320
661.566	0.0140010
661.644	0.0140501
661.722	0.0140426
661.800	0.0139737
661.878	0.0140524
661.956	0.0139302
662.035	0.0139938
662.113	0.0141950
662.191	0.0141734
662.269	0.0141405
662.347	0.0140434
662.425	0.0140776
662.503	0.0140731
662.581	0.0140470
662.660	0.0141244
662.738	0.0139906
662.816	0.0141518
662.894	0.0141579
662.972	0.0142069
663.050	0.0140032
663.128	0.0140406
663.206	0.0141828
663.285	0.0141798
663.363	0.0140090
663.441	0.0138095
663.519	0.0140901
663.597	0.0141016
663.675	0.0139731
663.753	0.0140211
663.831	0.0141590
663.910	0.0139610
663.988	0.0139481
664.066	0.0140774
664.144	0.0140979
664.222	0.0140416
664.300	0.0141225
664.378	0.0139902
664.456	0.0140648
664.535	0.0140948
664.613	0.0140109
664.691	0.0140588
664.769	0.0138728
664.847	0.0141013
664.925	0.0140324
665.003	0.0140041
665.081	0.0140149
665.160	0.0140577
665.238	0.0140102
665.316	0.0139658
665.394	0.0140237
665.472	0.0140580
665.550	0.0139026
665.628	0.0140231
665.706	0.0141029
665.785	0.0141461
665.863	0.0139490
665.941	0.0138855
666.019	0.0140582
666.097	0.0140134
666.175	0.0140073
666.253	0.0141357
666.331	0.0139379
666.410	0.0140330
666.488	0.0139307
666.566	0.0140402
666.644	0.0141206
666.722	0.0140310
666.800	0.0141431
666.878	0.0139934
666.956	0.0140642
667.035	0.0140400
667.113	0.0140954
667.191	0.0141815
667.269	0.0139886
667.347	0.0140415
667.425	0.0141435
667.503	0.0140562
667.581	0.0140139
667.660	0.0140055
667.738	0.0141106
667.816	0.0140556
667.894	0.0140833
667.972	0.0140067
668.050	0.0140140
668.128	0.0140243
668.206	0.0140240
668.285	0.0141218
668.363	0.0141636
668.441	0.0141933
668.519	0.0139505
668.597	0.0140436
668.675	0.0143108
668.753	0.0141474
668.831	0.0141382
668.910	0.0141032
668.988	0.0139783
669.066	0.0142157
669.144	0.0140883
669.222	0.0138547
669.300	0.0141598
669.378	0.0140363
669.456	0.0139857
669.535	0.0140701
669.613	0.0140070
669.691	0.0140741
669.769	0.0140350
669.847	0.0140602
669.925	0.0141232
670.003	0.0141464
670.081	0.0140880
670.160	0.0139299
670.238	0.0140463
670.316	0.0140594
670.394	0.0140630
670.472	0.0141606
670.550	0.0139938
670.628	0.0140259
670.706	0.0141865
670.785	0.0141425
670.863	0.0138942
670.941	0.0140343
671.019	0.0141373
671.097	0.0141389
671.175	0.0141098
671.253	0.0140163
671.331	0.0140146
671.410	0.0140981
671.488	0.0141404
671.566	0.0141553
671.644	0.0141692
671.722	0.0140505
671.800	0.0140427
671.878	0.0139319
671.956	0.0139933
672.035	0.0141005
672.113	0.0140843
672.191	0.0139997
672.269	0.0140344
672.347	0.0141021
672.425	0.0139244
672.503	0.0139757
672.581	0.0139331
672.660	0.0139294
672.738	0.0139899
672.816	0.0140491
672.894	0.0139301
672.972	0.0140009
673.050	0.0139959
673.128	0.0138958
673.206	0.0140472
673.285	0.0138048
673.363	0.0139383
673.441	0.0140507
673.519	0.0139242
673.597	0.0139799
673.675	0.0139413
673.753	0.0137820
673.831	0.0139402
673.910	0.0141557
673.988	0.0139484
674.066	0.0140265
674.144	0.0140551
674.222	0.0140685
674.300	0.0139743
674.378	0.0140275
674.456	0.0141557
674.535	0.0140793
674.613	0.0140061
674.691	0.0140408
674.769	0.0141272
674.847	0.0141140
674.925	0.0140656
675.003	0.0141528
675.081	0.0142640
675.160	0.0141785
675.238	0.0140282
675.316	0.0140253
675.394	0.0140433
675.472	0.0141480
675.550	0.0141995
675.628	0.0142081
675.706	0.0142254
675.785	0.0142020
675.863	0.0141122
675.941	0.0142455
676.019	0.0141720
676.097	0.0141463
676.175	0.0141348
676.253	0.0141801
676.331	0.0139890
676.410	0.0140644
676.488	0.0140910
676.566	0.0141240
676.644	0.0142456
676.722	0.0141045
676.800	0.0140833
676.878	0.0140828
676.956	0.0141392
677.035	0.0141436
677.113	0.0141716
677.191	0.0140963
677.269	0.0141109
677.347	0.0142382
677.425	0.0139213
677.503	0.0140586
677.581	0.0140539
677.660	0.0139300
677.738	0.0142140
677.816	0.0139799
677.894	0.0141486
677.972	0.0139858
678.050	0.0140060
678.128	0.0140770
678.206	0.0139903
678.285	0.0140349
678.363	0.0141364
678.441	0.0142155
678.519	0.0141287
678.597	0.0140198
678.675	0.0141880
678.753	0.0140993
678.831	0.0139150
678.910	0.0140166
678.988	0.0140421
679.066	0.0140274
679.144	0.0140879
679.222	0.0140912
679.300	0.0141257
679.378	0.0140992
679.456	0.0140541
679.535	0.0141100
679.613	0.0140359
679.691	0.0140487
679.769	0.0141598
679.847	0.0140646
679.925	0.0140386
680.003	0.0140778
680.081	0.0140946
680.160	0.0140791
680.238	0.0141765
680.316	0.0140292
680.394	0.0140635
680.472	0.0139817
680.550	0.0140188
680.628	0.0140044
680.706	0.0140260
680.785	0.0142067
680.863	0.0142189
680.941	0.0140418
681.019	0.0141409
681.097	0.0140073
681.175	0.0141175
681.253	0.0140819
681.331	0.0141357
681.410	0.0141495
681.488	0.0140906
681.566	0.0139609
681.644	0.0140235
681.722	0.0140213
681.800	0.0141747
681.878	0.0140501
681.956	0.0138727
682.035	0.0138758
682.113	0.0139875
682.191	0.0138982
682.269	0.0139299
682.347	0.0138986
682.425	0.0140392
682.503	0.0139722
682.581	0.0138549
682.660	0.0137461
682.738	0.0139832
682.816	0.0139825
682.894	0.0139435
682.972	0.0140343
683.050	0.0140305
683.128	0.0139974
683.206	0.0141117
683.285	0.0140563
683.363	0.0142062
683.441	0.0142313
683.519	0.0142142
683.597	0.0140691
683.675	0.0141793
683.753	0.0141378
683.831	0.0140722
683.910	0.0140798
683.988	0.0142398
684.066	0.0141879
684.144	0.0141548
684.222	0.0140543
684.300	0.0141053
684.378	0.0141714
684.456	0.0141850
684.535	0.0140285
684.613	0.0141064
684.691	0.0140903
684.769	0.0142661
684.847	0.0140721
684.925	0.0141649
685.003	0.0140974
685.081	0.0141125
685.160	0.0141825
685.238	0.0141084
685.316	0.0142870
685.394	0.0142594
685.472	0.0140317
685.550	0.0141331
685.628	0.0142032
685.706	0.0141839
685.785	0.0143031
685.863	0.0143316
685.941	0.0142295
686.019	0.0142612
686.097	0.0141869
686.175	0.0143420
686.253	0.0141987
686.331	0.0142065
686.410	0.0142708
686.488	0.0141643
686.566	0.0141563
686.644	0.0142208
686.722	0.0141419
686.800	0.0141796
686.878	0.0142574
686.956	0.0142941
687.035	0.0140919
687.113	0.0141150
687.191	0.0142390
687.269	0.0142810
687.347	0.0142966
687.425	0.0142617
687.503	0.0142181
687.581	0.0142934
687.660	0.0141062
687.738	0.0142318
687.816	0.0140479
687.894	0.0141992
687.972	0.0141169
688.050	0.0141644
688.128	0.0140664
688.206	0.0139876
688.285	0.0141998
688.363	0.0139928
688.441	0.0139246
688.519	0.0139948
688.597	0.0139462
688.675	0.0141001
688.753	0.0141983
688.831	0.0141348
688.910	0.0141522
688.988	0.0141119
689.066	0.0141739
689.144	0.0141648
689.222	0.0142117
689.300	0.0141825
689.378	0.0140476
689.456	0.0140257
689.535	0.0141199
689.613	0.0140157
689.691	0.0140430
689.769	0.0139594
689.847	0.0140149
689.925	0.0140842
690.003	0.0139411
690.081	0.0140854
690.160	0.0141022
690.238	0.0140400
690.316	0.0140550
690.394	0.0140157
690.472	0.0140213
690.550	0.0139478
690.628	0.0139452
690.706	0.0141172
690.785	0.0140464
690.863	0.0139902
690.941	0.0141128
691.019	0.0140167
691.097	0.0140372
691.175	0.0141954
691.253	0.0140905
691.331	0.0142017
691.410	0.0141824
691.488	0.0141744
691.566	0.0141557
691.644	0.0141748
691.722	0.0140753
691.800	0.0140948
691.878	0.0141114
691.956	0.0141918
692.035	0.0139875
692.113	0.0137894
692.191	0.0140357
692.269	0.0140015
692.347	0.0140076
692.425	0.0140749
692.503	0.0141399
692.581	0.0139555
692.660	0.0142324
692.738	0.0142072
692.816	0.0140267
692.894	0.0139846
692.972	0.0139419
693.050	0.0140882
693.128	0.0140649
693.206	0.0140031
693.285	0.0140457
693.363	0.0139247
693.441	0.0139153
693.519	0.0139878
693.597	0.0139779
693.675	0.0140146
693.753	0.0140134
693.831	0.0140652
693.910	0.0140940
693.988	0.0139261
694.066	0.0138904
694.144	0.0139199
694.222	0.0141473
694.300	0.0140740
694.378	0.0141871
694.456	0.0141770
694.535	0.0140373
694.613	0.0140617
694.691	0.0140838
694.769	0.0141299
694.847	0.0140574
694.925	0.0140627
695.003	0.0141081
695.081	0.0140403
695.160	0.0141019
695.238	0.0139230
695.316	0.0139074
695.394	0.0140431
695.472	0.0141190
695.550	0.0141589
695.628	0.0140849
695.706	0.0140456
695.785	0.0141025
695.863	0.0141322
695.941	0.0140738
696.019	0.0141748
696.097	0.0140041
696.175	0.0141074
696.253	0.0140461
696.331	0.0140466
696.410	0.0141232
696.488	0.0141743
696.566	0.0141908
696.644	0.0140833
696.722	0.0140026
696.800	0.0139973
696.878	0.0140974
696.956	0.0141717
697.035	0.0140238
697.113	0.0140405
697.191	0.0142101
697.269	0.0142137
697.347	0.0140835
697.425	0.0141813
697.503	0.0142178
697.581	0.0142368
697.660	0.0142907
697.738	0.0140733
697.816	0.0142265
697.894	0.0142228
697.972	0.0140891
698.050	0.0141710
698.128	0.0141933
698.206	0.0141130
698.285	0.0140892
698.363	0.0140864
698.441	0.0141576
698.519	0.0140456
698.597	0.0140212
698.675	0.0142015
698.753	0.0140652
698.831	0.0140881
698.910	0.0142162
698.988	0.0141071
699.066	0.0141904
699.144	0.0141300
699.222	0.0141840
699.300	0.0140813
699.378	0.0141403
699.456	0.0141712
699.535	0.0140605
699.613	0.0140250
699.691	0.0140790
699.769	0.0142224
699.847	0.0141227
699.925	0.0139346
700.003	0.0140795
700.081	0.0140571
700.160	0.0138818
700.238	0.0139827
700.316	0.0139091
700.394	0.0137373
700.472	0.0138718
700.550	0.0139484
700.628	0.0140089
700.706	0.0139424
700.785	0.0139983
700.863	0.0140266
700.941	0.0139220
701.019	0.0140331
701.097	0.0140563
701.175	0.0139834
701.253	0.0141104
701.331	0.0139902
701.410	0.0139184
701.488	0.0139972
701.566	0.0141209
701.644	0.0138683
701.722	0.0139349
701.800	0.0139373
701.878	0.0139176
701.956	0.0140985
702.035	0.0139845
702.113	0.0139107
702.191	0.0139939
702.269	0.0138786
702.347	0.0139469
702.425	0.0139099
702.503	0.0142115
702.581	0.0141563
702.660	0.0139283
702.738	0.0139732
702.816	0.0139954
702.894	0.0139542
702.972	0.0140757
703.050	0.0142063
703.128	0.0140282
703.206	0.0138342
703.285	0.0141296
703.363	0.0140929
703.441	0.0140416
703.519	0.0140330
703.597	0.0142107
703.675	0.0140752
703.753	0.0140333
703.831	0.0141621
703.910	0.0140344
703.988	0.0141231
704.066	0.0140622
704.144	0.0140928
704.222	0.0142236
704.300	0.0141056
704.378	0.0141391
704.456	0.0142762
704.535	0.0141230
704.613	0.0141436
704.691	0.0141068
704.769	0.0141417
704.847	0.0141940
704.925	0.0141631
705.003	0.0140677
705.081	0.0139535
705.160	0.0140490
705.238	0.0140659
705.316	0.0140958
705.394	0.0141114
705.472	0.0140730
705.550	0.0141758
705.628	0.0141608
705.706	0.0140576
705.785	0.0141475
705.863	0.0142107
705.941	0.0141233
706.019	0.0141967
706.097	0.0142761
706.175	0.0140208
706.253	0.0140990
706.331	0.0140961
706.410	0.0140546
706.488	0.0139020
706.566	0.0140798
706.644	0.0139803
706.722	0.0140429
706.800	0.0141688
706.878	0.0139722
706.956	0.0139743
707.035	0.0140286
707.113	0.0139783
707.191	0.0142052
707.269	0.0140694
707.347	0.0140349
707.425	0.0141181
707.503	0.0140224
707.581	0.0139788
707.660	0.0140605
707.738	0.0139850
707.816	0.0140199
707.894	0.0140321
707.972	0.0140200
708.050	0.0141527
708.128	0.0139896
708.206	0.0139350
708.285	0.0138514
708.363	0.0140379
708.441	0.0140543
708.519	0.0139644
708.597	0.0139757
708.675	0.0140713
708.753	0.0141051
708.831	0.0139931
708.910	0.0141119
708.988	0.0140089
709.066	0.0140148
709.144	0.0141362
709.222	0.0141504
709.300	0.0141855
709.378	0.0142133
709.456	0.0141334
709.535	0.0141174
709.613	0.0141728
709.691	0.0141766
709.769	0.0142715
709.847	0.0140107
709.925	0.0141082
710.003	0.0140139
710.081	0.0142166
710.160	0.0141991
710.238	0.0141815
710.316	0.0141838
710.394	0.0141468
710.472	0.0140685
710.550	0.0140671
710.628	0.0141824
710.706	0.0143666
710.785	0.0141611
710.863	0.0142683
710.941	0.0143292
711.019	0.0142611
711.097	0.0141539
711.175	0.0141733
711.253	0.0143100
711.331	0.0142812
711.410	0.0140491
711.488	0.0142323
711.566	0.0142085
711.644	0.0141758
711.722	0.0141285
711.800	0.0141499
711.878	0.0140480
711.956	0.0140816
712.035	0.0141191
712.113	0.0141286
712.191	0.0141507
712.269	0.0141053
712.347	0.0142959
712.425	0.0143056
712.503	0.0141402
712.581	0.0142466
712.660	0.0143295
712.738	0.0142599
712.816	0.0141621
712.894	0.0142377
712.972	0.0141740
713.050	0.0141611
713.128	0.0141602
713.206	0.0141980
713.285	0.0142139
713.363	0.0141207
713.441	0.0142244
713.519	0.0141427
713.597	0.0140087
713.675	0.0140346
713.753	0.0141046
713.831	0.0142822
713.910	0.0142690
713.988	0.0141339
714.066	0.0141546
714.144	0.0141842
714.222	0.0140926
714.300	0.0142089
714.378	0.0140986
714.456	0.0141483
714.535	0.0142271
714.613	0.0142365
714.691	0.0141546
714.769	0.0140022
714.847	0.0142606
714.925	0.0142844
715.003	0.0141655
715.081	0.0141608
715.160	0.0140385
715.238	0.0141186
715.316	0.0142784
715.394	0.0142839
715.472	0.0142840
715.550	0.0142569
715.628	0.0142358
715.706	0.0140913
715.785	0.0141985
715.863	0.0143444
715.941	0.0142467
716.019	0.0142610
716.097	0.0142796
716.175	0.0143189
716.253	0.0142211
716.331	0.0142321
716.410	0.0142747
716.488	0.0142603
716.566	0.0143356
716.644	0.0143304
716.722	0.0142366
716.800	0.0141041
716.878	0.0143147
716.956	0.0143932
717.035	0.0143073
717.113	0.0141759
717.191	0.0142492
717.269	0.0142908
717.347	0.0142042
717.425	0.0141523
717.503	0.0142368
717.581	0.0141766
717.660	0.0142709
717.738	0.0141749
717.816	0.0140097
717.894	0.0141218
717.972	0.0141544
718.050	0.0141843
718.128	0.0141359
718.206	0.0140253
718.285	0.0142423
718.363	0.0141496
718.441	0.0140796
718.519	0.0140696
718.597	0.0140002
718.675	0.0140570
718.753	0.0141288
718.831	0.0142017
718.910	0.0139943
718.988	0.0142030
719.066	0.0141182
719.144	0.0139964
719.222	0.0140958
719.300	0.0141624
719.378	0.0140054
719.456	0.0140707
719.535	0.0140694
719.613	0.0140568
719.691	0.0139196
719.769	0.0140562
719.847	0.0138849
719.925	0.0138809
720.003	0.0139053
720.081	0.0140279
720.160	0.0139720
720.238	0.0140207
720.316	0.0139645
720.394	0.0140147
720.472	0.0140354
720.550	0.0139169
720.628	0.0140453
720.706	0.0141265
720.785	0.0140128
720.863	0.0141006
720.941	0.0140836
721.019	0.0141813
721.097	0.0139267
721.175	0.0142422
721.253	0.0141843
721.331	0.0139583
721.410	0.0140184
721.488	0.0141234
721.566	0.0141755
721.644	0.0140093
721.722	0.0139743
721.800	0.0139549
721.878	0.0138633
721.956	0.0139838
722.035	0.0139830
722.113	0.0141342
722.191	0.0139844
722.269	0.0140223
722.347	0.0140872
722.425	0.0140439
722.503	0.0139533
722.581	0.0140958
722.660	0.0141486
722.738	0.0140466
722.816	0.0140672
722.894	0.0141419
722.972	0.0140408
723.050	0.0142833
723.128	0.0141674
723.206	0.0142477
723.285	0.0141857
723.363	0.0141880
723.441	0.0141864
723.519	0.0141862
723.597	0.0141863
723.675	0.0141223
723.753	0.0141604
723.831	0.0142533
723.910	0.0142546
723.988	0.0140678
724.066	0.0142769
724.144	0.0142500
724.222	0.0141955
724.300	0.0142601
724.378	0.0141860
724.456	0.0141527
724.535	0.0142630
724.613	0.0140950
724.691	0.0141230
724.769	0.0140450
724.847	0.0143271
724.925	0.0143800
725.003	0.0143040
725.081	0.0141635
725.160	0.0142337
725.238	0.0141578
725.316	0.0140945
725.394	0.0141696
725.472	0.0141324
725.550	0.0142657
725.628	0.0141438
725.706	0.0141858
725.785	0.0142730
725.863	0.0141843
725.941	0.0142609
726.019	0.0142645
726.097	0.0141745
726.175	0.0142600
726.253	0.0141911
726.331	0.0141023
726.410	0.0141384
726.488	0.0142714
726.566	0.0141757
726.644	0.0142891
726.722	0.0140827
726.800	0.0140988
726.878	0.0141386
726.956	0.0140693
727.035	0.0141389
727.113	0.0141599
727.191	0.0139735
727.269	0.0141386
727.347	0.0142393
727.425	0.0140311
727.503	0.0140763
727.581	0.0141529
727.660	0.0140998
727.738	0.0140862
727.816	0.0140579
727.894	0.0140352
727.972	0.0141258
728.050	0.0141048
728.128	0.0139723
728.206	0.0140154
728.285	0.0139310
728.363	0.0140342
728.441	0.0140611
728.519	0.0141041
728.597	0.0139662
728.675	0.0138779
728.753	0.0140019
728.831	0.0139297
728.910	0.0140338
728.988	0.0140069
729.066	0.0139658
729.144	0.0140318
729.222	0.0139857
729.300	0.0140586
729.378	0.0140233
729.456	0.0138898
729.535	0.0139810
729.613	0.0140166
729.691	0.0141954
729.769	0.0140192
729.847	0.0138465
729.925	0.0140652
730.003	0.0140488
730.081	0.0140936
730.160	0.0140960
730.238	0.0140753
730.316	0.0140143
730.394	0.0140971
730.472	0.0141869
730.550	0.0141388
730.628	0.0140854
730.706	0.0141839
730.785	0.0141036
730.863	0.0141566
730.941	0.0141322
731.019	0.0140065
731.097	0.0142255
731.175	0.0141803
731.253	0.0141074
731.331	0.0141041
731.410	0.0140050
731.488	0.0141020
731.566	0.0141172
731.644	0.0139745
731.722	0.0140980
731.800	0.0140401
731.878	0.0138395
731.956	0.0140949
732.035	0.0139956
732.113	0.0139351
732.191	0.0140191
732.269	0.0140746
732.347	0.0141727
732.425	0.0139838
732.503	0.0139826
732.581	0.0138928
732.660	0.0141357
732.738	0.0141380
732.816	0.0138995
732.894	0.0141269
732.972	0.0141458
733.050	0.0141930
733.128	0.0141573
733.206	0.0139968
733.285	0.0141598
733.363	0.0142641
733.441	0.0142655
733.519	0.0139800
733.597	0.0140638
733.675	0.0139230
733.753	0.0140346
733.831	0.0141209
733.910	0.0141528
733.988	0.0139674
734.066	0.0139958
734.144	0.0139838
734.222	0.0141145
734.300	0.0142870
734.378	0.0141221
734.456	0.0139925
734.535	0.0140987
734.613	0.0141236
734.691	0.0140635
734.769	0.0140623
734.847	0.0141368
734.925	0.0140950
735.003	0.0140891
735.081	0.0139397
735.160	0.0141129
735.238	0.0141197
735.316	0.0140000
735.394	0.0141586
735.472	0.0141389
735.550	0.0138947
735.628	0.0140033
735.706	0.0141001
735.785	0.0139599
735.863	0.0140809
735.941	0.0139944
736.019	0.0140376
736.097	0.0140666
736.175	0.0140654
736.253	0.0139809
736.331	0.0140135
736.410	0.0139399
736.488	0.0140002
736.566	0.0140160
736.644	0.0139799
736.722	0.0140438
736.800	0.0141255
736.878	0.0141941
736.956	0.0140341
737.035	0.0140519
737.113	0.0141224
737.191	0.0140728
737.269	0.0141076
737.347	0.0140781
737.425	0.0141569
737.503	0.0142384
737.581	0.0142316
737.660	0.0141511
737.738	0.0142144
737.816	0.0141255
737.894	0.0143774
737.972	0.0144019
738.050	0.0142821
738.128	0.0142001
738.206	0.0141916
738.285	0.0142700
738.363	0.0142490
738.441	0.0142791
738.519	0.0141707
738.597	0.0141669
738.675	0.0141342
738.753	0.0142130
738.831	0.0142213
738.910	0.0142023
738.988	0.0142307
739.066	0.0140493
739.144	0.0139870
739.222	0.0142076
739.300	0.0141302
739.378	0.0141645
739.456	0.0141688
739.535	0.0141518
739.613	0.0141508
739.691	0.0142963
739.769	0.0141664
739.847	0.0142710
739.925	0.0140891
740.003	0.0140643
740.081	0.0141726
740.160	0.0142384
740.238	0.0140942
740.316	0.0141404
740.394	0.0141064
740.472	0.0141383
740.550	0.0140787
740.628	0.0140615
740.706	0.0140907
740.785	0.0140969
740.863	0.0140845
740.941	0.0139153
741.019	0.0140595
741.097	0.0142222
741.175	0.0141245
741.253	0.0139309
741.331	0.0141170
741.410	0.0140114
741.488	0.0140972
741.566	0.0140547
741.644	0.0140956
741.722	0.0139376
741.800	0.0140193
741.878	0.0140491
741.956	0.0140157
742.035	0.0139889
742.113	0.0141254
742.191	0.0141325
742.269	0.0140960
742.347	0.0141048
742.425	0.0142278
742.503	0.0140834
742.581	0.0140618
742.660	0.0141716
742.738	0.0142300
742.816	0.0140022
742.894	0.0139673
742.972	0.0141079
743.050	0.0142099
743.128	0.0140745
743.206	0.0141243
743.285	0.0140811
743.363	0.0139603
743.441	0.0139483
743.519	0.0141216
743.597	0.0140778
743.675	0.0140761
743.753	0.0140943
743.831	0.0142319
743.910	0.0142148
743.988	0.0141695
744.066	0.0142136
744.144	0.0143363
744.222	0.0142909
744.300	0.0142145
744.378	0.0142332
744.456	0.0143198
744.535	0.0141747
744.613	0.0142470
744.691	0.0143467
744.769	0.0143451
744.847	0.0142932
744.925	0.0141969
745.003	0.0142278
745.081	0.0143407
745.160	0.0141924
745.238	0.0142953
745.316	0.0142974
745.394	0.0143093
745.472	0.0142297
745.550	0.0143375
745.628	0.0143739
745.706	0.0142133
745.785	0.0142835
745.863	0.0143229
745.941	0.0142148
746.019	0.0142274
746.097	0.0142881
746.175	0.0142119
746.253	0.0140820
746.331	0.0141497
746.410	0.0142336
746.488	0.0142168
746.566	0.0141972
746.644	0.0141727
746.722	0.0141214
746.800	0.0142239
746.878	0.0142005
746.956	0.0142226
747.035	0.0141988
747.113	0.0140978
747.191	0.0140980
747.269	0.0140318
747.347	0.0140261
747.425	0.0141850
747.503	0.0141037
747.581	0.0140363
747.660	0.0141330
747.738	0.0141603
747.816	0.0140565
747.894	0.0140825
747.972	0.0140408
748.050	0.0139977
748.128	0.0140331
748.206	0.0139842
748.285	0.0142027
748.363	0.0140723
748.441	0.0140163
748.519	0.0140138
748.597	0.0141496
748.675	0.0141610
748.753	0.0139531
748.831	0.0139790
748.910	0.0140662
748.988	0.0141123
749.066	0.0141201
749.144	0.0141757
749.222	0.0140354
749.300	0.0139352
749.378	0.0140804
749.456	0.0141792
749.535	0.0140161
749.613	0.0140312
749.691	0.0140017
749.769	0.0139965
749.847	0.0142163
749.925	0.0141341
750.003	0.0139944
750.081	0.0141557
750.160	0.0138850
750.238	0.0138548
750.316	0.0142202
750.394	0.0140691
750.472	0.0140604
750.550	0.0139609
750.628	0.0139886
750.706	0.0139548
750.785	0.0141109
750.863	0.0140833
750.941	0.0141896
751.019	0.0140837
751.097	0.0141148
751.175	0.0140012
751.253	0.0141216
751.331	0.0141177
751.410	0.0142023
751.488	0.0142621
751.566	0.0142054
751.644	0.0141341
751.722	0.0140799
751.800	0.0141623
751.878	0.0142947
751.956	0.0142516
752.035	0.0142997
752.113	0.0142010
752.191	0.0142001
752.269	0.0141937
752.347	0.0141380
752.425	0.0141975
752.503	0.0141643
752.581	0.0142658
752.660	0.0143005
752.738	0.0141389
752.816	0.0141177
752.894	0.0142956
752.972	0.0141756
753.050	0.0140920
753.128	0.0141246
753.206	0.0140759
753.285	0.0142291
753.363	0.0140665
753.441	0.0142767
753.519	0.0142123
753.597	0.0141171
753.675	0.0140804
753.753	0.0141130
753.831	0.0141749
753.910	0.0141551
753.988	0.0141087
754.066	0.0141770
754.144	0.0141939
754.222	0.0142069
754.300	0.0141758
754.378	0.0142786
754.456	0.0142254
754.535	0.0141448
754.613	0.0140149
754.691	0.0140580
754.769	0.0141706
754.847	0.0141232
754.925	0.0140655
755.003	0.0141541
755.081	0.0140139
755.160	0.0140593
755.238	0.0139443
755.316	0.0140795
755.394	0.0141557
755.472	0.0140195
755.550	0.0139825
755.628	0.0140856
755.706	0.0140366
755.785	0.0139964
755.863	0.0139911
755.941	0.0141327
756.019	0.0140331
756.097	0.0139915
756.175	0.0141909
756.253	0.0140262
756.331	0.0138991
756.410	0.0139954
756.488	0.0141106
756.566	0.0140439
756.644	0.0139071
756.722	0.0139245
756.800	0.0140233
756.878	0.0141497
756.956	0.0139949
757.035	0.0140354
757.113	0.0140142
757.191	0.0139091
757.269	0.0139877
757.347	0.0139336
757.425	0.0139217
757.503	0.0139703
757.581	0.0139630
757.660	0.0138801
757.738	0.0139878
757.816	0.0139311
757.894	0.0141095
757.972	0.0138927
758.050	0.0139652
758.128	0.0140005
758.206	0.0138996
758.285	0.0140318
758.363	0.0140452
758.441	0.0139138
758.519	0.0140073
758.597	0.0140030
758.675	0.0139634
758.753	0.0140839
758.831	0.0140350
758.910	0.0140612
758.988	0.0142154
759.066	0.0141193
759.144	0.0140187
759.222	0.0140428
759.300	0.0141647
759.378	0.0142620
759.456	0.0141140
759.535	0.0140862
759.613	0.0141332
759.691	0.0140446
759.769	0.0140164
759.847	0.0140599
759.925	0.0141321
760.003	0.0139941
760.081	0.0140437
760.160	0.0141148
760.238	0.0140204
760.316	0.0139960
760.394	0.0140626
760.472	0.0139742
760.550	0.0139479
760.628	0.0140099
760.706	0.0139826
760.785	0.0140002
760.863	0.0139433
760.941	0.0141315
761.019	0.0140350
761.097	0.0139230
761.175	0.0140047
761.253	0.0140506
761.331	0.0139988
761.410	0.0140264
761.488	0.0140057
761.566	0.0140165
761.644	0.0137994
761.722	0.0140101
761.800	0.0139772
761.878	0.0139566
761.956	0.0140688
762.035	0.0139571
762.113	0.0139751
762.191	0.0141338
762.269	0.0139471
762.347	0.0139717
762.425	0.0139787
762.503	0.0140561
762.581	0.0138271
762.660	0.0138658
762.738	0.0139532
762.816	0.0140256
762.894	0.0139285
762.972	0.0139668
763.050	0.0140768
763.128	0.0139566
763.206	0.0140298
763.285	0.0139639
763.363	0.0138849
763.441	0.0139640
763.519	0.0141339
763.597	0.0141267
763.675	0.0139976
763.753	0.0139127
763.831	0.0139557
763.910	0.0139085
763.988	0.0139648
764.066	0.0139117
764.144	0.0141551
764.222	0.0140160
764.300	0.0140286
764.378	0.0140438
764.456	0.0140125
764.535	0.0140622
764.613	0.0139784
764.691	0.0140850
764.769	0.0138569
764.847	0.0140985
764.925	0.0139971
765.003	0.0140445
765.081	0.0141704
765.160	0.0140247
765.238	0.0139995
765.316	0.0141356
765.394	0.0141557
765.472	0.0141935
765.550	0.0140546
765.628	0.0141029
765.706	0.0142166
765.785	0.0141257
765.863	0.0140989
765.941	0.0142944
766.019	0.0142112
766.097	0.0143193
766.175	0.0141814
766.253	0.0142606
766.331	0.0143041
766.410	0.0143066
766.488	0.0143088
766.566	0.0142936
766.644	0.0142184
766.722	0.0143054
766.800	0.0143067
766.878	0.0142513
766.956	0.0142252
767.035	0.0142991
767.113	0.0142682
767.191	0.0142833
767.269	0.0141930
767.347	0.0141747
767.425	0.0142809
767.503	0.0142483
767.581	0.0141446
767.660	0.0140559
767.738	0.0142461
767.816	0.0142236
767.894	0.0141418
767.972	0.0142082
768.050	0.0141121
768.128	0.0141446
768.206	0.0143121
768.285	0.0141920
768.363	0.0140456
768.441	0.0140788
768.519	0.0142245
768.597	0.0141692
768.675	0.0141381
768.753	0.0142516
768.831	0.0143063
768.910	0.0142212
768.988	0.0141679
769.066	0.0140793
769.144	0.0141791
769.222	0.0142818
769.300	0.0139714
769.378	0.0140946
769.456	0.0141727
769.535	0.0140100
769.613	0.0141084
769.691	0.0141734
769.769	0.0141452
769.847	0.0141526
769.925	0.0141482
770.003	0.0141251
770.081	0.0142963
770.160	0.0140939
770.238	0.0140945
770.316	0.0141339
770.394	0.0141830
770.472	0.0141505
770.550	0.0141925
770.628	0.0140697
770.706	0.0140968
770.785	0.0142149
770.863	0.0141464
770.941	0.0141537
771.019	0.0141010
771.097	0.0141103
771.175	0.0140688
771.253	0.0141405
771.331	0.0141388
771.410	0.0141883
771.488	0.0141240
771.566	0.0141918
771.644	0.0142438
771.722	0.0141139
771.800	0.0140030
771.878	0.0140509
771.956	0.0141516
772.035	0.0139719
772.113	0.0140840
772.191	0.0140618
772.269	0.0140797
772.347	0.0142081
772.425	0.0142339
772.503	0.0140588
772.581	0.0141429
772.660	0.0139815
772.738	0.0141268
772.816	0.0141315
772.894	0.0141591
772.972	0.0142143
773.050	0.0141039
773.128	0.0142231
773.206	0.0141845
773.285	0.0140630
773.363	0.0141333
773.441	0.0141541
773.519	0.0141434
773.597	0.0141856
773.675	0.0142142
773.753	0.0141225
773.831	0.0140726
773.910	0.0141875
773.988	0.0140975
774.066	0.0142603
774.144	0.0142677
774.222	0.0142222
774.300	0.0141896
774.378	0.0141828
774.456	0.0141325
774.535	0.0142224
774.613	0.0140466
774.691	0.0140537
774.769	0.0141682
774.847	0.0140154
774.925	0.0139198
775.003	0.0139095
775.081	0.0141496
775.160	0.0140583
775.238	0.0140120
775.316	0.0140626
775.394	0.0140530
775.472	0.0140447
775.550	0.0140594
775.628	0.0140256
775.706	0.0139462
775.785	0.0139996
775.863	0.0140854
775.941	0.0141324
776.019	0.0141616
776.097	0.0141547
776.175	0.0141983
776.253	0.0141737
776.331	0.0140590
776.410	0.0141677
776.488	0.0141857
776.566	0.0140849
776.644	0.0141094
776.722	0.0140940
776.800	0.0141619
776.878	0.0141393
776.956	0.0140856
777.035	0.0140795
777.113	0.0141640
777.191	0.0140493
777.269	0.0140027
777.347	0.0141230
777.425	0.0140009
777.503	0.0140264
777.581	0.0140437
777.660	0.0141052
777.738	0.0139352
777.816	0.0141795
777.894	0.0141012
777.972	0.0141058
778.050	0.0141384
778.128	0.0141196
778.206	0.0141184
778.285	0.0141294
778.363	0.0139824
778.441	0.0140022
778.519	0.0140801
778.597	0.0141182
778.675	0.0140444
778.753	0.0140134
778.831	0.0140209
778.910	0.0139747
778.988	0.0141209
779.066	0.0141302
779.144	0.0138819
779.222	0.0141138
779.300	0.0139819
779.378	0.0139071
779.456	0.0141302
779.535	0.0140966
779.613	0.0139647
779.691	0.0138814
779.769	0.0140979
779.847	0.0141448
779.925	0.0140560
780.003	0.0140953
780.081	0.0142609
780.160	0.0140843
780.238	0.0141375
780.316	0.0141816
780.394	0.0142074
780.472	0.0141269
780.550	0.0142750
780.628	0.0142157
780.706	0.0142543
780.785	0.0142346
780.863	0.0141172
780.941	0.0142767
781.019	0.0142697
781.097	0.0142282
781.175	0.0142544
781.253	0.0141928
781.331	0.0142251
781.410	0.0142950
781.488	0.0140899
781.566	0.0142033
781.644	0.0142133
781.722	0.0141814
781.800	0.0141374
781.878	0.0142049
781.956	0.0141101
782.035	0.0142023
782.113	0.0140656
782.191	0.0139668
782.269	0.0140646
782.347	0.0139574
782.425	0.0140223
782.503	0.0139610
782.581	0.0140871
782.660	0.0139864
782.738	0.0139139
782.816	0.0139505
782.894	0.0139652
782.972	0.0140517
783.050	0.0140563
783.128	0.0138879
783.206	0.0139980
783.285	0.0141785
783.363	0.0139915
783.441	0.0139266
783.519	0.0140269
783.597	0.0140667
783.675	0.0139050
783.753	0.0139208
783.831	0.0139920
783.910	0.0140799
783.988	0.0140195
784.066	0.0139483
784.144	0.0140695
784.222	0.0139192
784.300	0.0139795
784.378	0.0139173
784.456	0.0139494
784.535	0.0140016
784.613	0.0140075
784.691	0.0139872
784.769	0.0139690
784.847	0.0140408
784.925	0.0140666
785.003	0.0139831
785.081	0.0140541
785.160	0.0139752
785.238	0.0141261
785.316	0.0141487
785.394	0.0139707
785.472	0.0140530
785.550	0.0139614
785.628	0.0142130
785.706	0.0140944
785.785	0.0139874
785.863	0.0139199
785.941	0.0140556
786.019	0.0139371
786.097	0.0140060
786.175	0.0140278
786.253	0.0139395
786.331	0.0140279
786.410	0.0142304
786.488	0.0140818
786.566	0.0140437
786.644	0.0140731
786.722	0.0141514
786.800	0.0141808
786.878	0.0140540
786.956	0.0140640
787.035	0.0139922
787.113	0.0140840
787.191	0.0141223
787.269	0.0140981
787.347	0.0140331
787.425	0.0141128
787.503	0.0141914
787.581	0.0141146
787.660	0.0140949
787.738	0.0141640
787.816	0.0141637
787.894	0.0141333
787.972	0.0139452
788.050	0.0141415
788.128	0.0141556
788.206	0.0142085
788.285	0.0142776
788.363	0.0140073
788.441	0.0142442
788.519	0.0142141
788.597	0.0141737
788.675	0.0142030
788.753	0.0139615
788.831	0.0141974
788.910	0.0142128
788.988	0.0141185
789.066	0.0140820
789.144	0.0141992
789.222	0.0140662
789.300	0.0140340
789.378	0.0140110
789.456	0.0139462
789.535	0.0138574
789.613	0.0139598
789.691	0.0140348
789.769	0.0140255
789.847	0.0138740
789.925	0.0138647
790.003	0.0139503
790.081	0.0140447
790.160	0.0139509
790.238	0.0137564
790.316	0.0138629
790.394	0.0138643
790.472	0.0138738
790.550	0.0138459
790.628	0.0140559
790.706	0.0138724
790.785	0.0138500
790.863	0.0139245
790.941	0.0138377
791.019	0.0138586
791.097	0.0139761
791.175	0.0139472
791.253	0.0137922
791.331	0.0139543
791.410	0.0137632
791.488	0.0138377
791.566	0.0137950
791.644	0.0139264
791.722	0.0138409
791.800	0.0138540
791.878	0.0138654
791.956	0.0139626
792.035	0.0138905
792.113	0.0138380
792.191	0.0140347
792.269	0.0140441
792.347	0.0140939
792.425	0.0138043
792.503	0.0141052
792.581	0.0140422
792.660	0.0139391
792.738	0.0140952
792.816	0.0140266
792.894	0.0139624
792.972	0.0139352
793.050	0.0139368
793.128	0.0140532
793.206	0.0139515
793.285	0.0141153
793.363	0.0141521
793.441	0.0141345
793.519	0.0139832
793.597	0.0140151
793.675	0.0139274
793.753	0.0140349
793.831	0.0141206
793.910	0.0140688
793.988	0.0139709
794.066	0.0140205
794.144	0.0140279
794.222	0.0138785
794.300	0.0140514
794.378	0.0141464
794.456	0.0142717
794.535	0.0141748
794.613	0.0142844
794.691	0.0141263
794.769	0.0143112
794.847	0.0142262
794.925	0.0142503
795.003	0.0142789
795.081	0.0142260
795.160	0.0143616
795.238	0.0143037
795.316	0.0143011
795.394	0.0141209
795.472	0.0142445
795.550	0.0143176
795.628	0.0144101
795.706	0.0143259
795.785	0.0141969
795.863	0.0143414
795.941	0.0145294
796.019	0.0142572
796.097	0.0142384
796.175	0.0144122
796.253	0.0142843
796.331	0.0142017
796.410	0.0142226
796.488	0.0140407
796.566	0.0141689
796.644	0.0141797
796.722	0.0140875
796.800	0.0140827
796.878	0.0141872
796.956	0.0141371
797.035	0.0140359
797.113	0.0141821
797.191	0.0140726
797.269	0.0140995
797.347	0.0141256
797.425	0.0140739
797.503	0.0141090
797.581	0.0140948
797.660	0.0140524
797.738	0.0139207
797.816	0.0140848
797.894	0.0140770
797.972	0.0140173
798.050	0.0141303
798.128	0.0140935
798.206	0.0140848
798.285	0.0139703
798.363	0.0138919
798.441	0.0140077
798.519	0.0140133
798.597	0.0140189
798.675	0.0138369
798.753	0.0139487
798.831	0.0140266
798.910	0.0139547
798.988	0.0139868
799.066	0.0138235
799.144	0.0139484
799.222	0.0139571
799.300	0.0140517
799.378	0.0138848
799.456	0.0140316
799.535	0.0140247
799.613	0.0140064
799.691	0.0140405
799.769	0.0141456
799.847	0.0141547
799.925	0.0140947
800.003	0.0139808
800.081	0.0139545
800.160	0.0140007
800.238	0.0139835
800.316	0.0140784
800.394	0.0140007
800.472	0.0139405
800.550	0.0141313
800.628	0.0139751
800.706	0.0139599
800.785	0.0140103
800.863	0.0139239
800.941	0.0139084
801.019	0.0140108
801.097	0.0140517
801.175	0.0139604
801.253	0.0140509
801.331	0.0140592
801.410	0.0140701
801.488	0.0140791
801.566	0.0141228
801.644	0.0141129
801.722	0.0140339
801.800	0.0141302
801.878	0.0142154
801.956	0.0141624
802.035	0.0141315
802.113	0.0141959
802.191	0.0141531
802.269	0.0143404
802.347	0.0143144
802.425	0.0142257
802.503	0.0143223
802.581	0.0144143
802.660	0.0142410
802.738	0.0142830
802.816	0.0143337
802.894	0.0145428
802.972	0.0142693
803.050	0.0142894
803.128	0.0144204
803.206	0.0142725
803.285	0.0144398
803.363	0.0143420
803.441	0.0142475
803.519	0.0143338
803.597	0.0142976
803.675	0.0142960
803.753	0.0142827
803.831	0.0141888
803.910	0.0143697
803.988	0.0141023
804.066	0.0142361
804.144	0.0140826
804.222	0.0142606
804.300	0.0141810
804.378	0.0141608
804.456	0.0141840
804.535	0.0140018
804.613	0.0141148
804.691	0.0141119
804.769	0.0141342
804.847	0.0141801
804.925	0.0140504
805.003	0.0142432
805.081	0.0141856
805.160	0.0142064
805.238	0.0141038
805.316	0.0141821
805.394	0.0140772
805.472	0.0140645
805.550	0.0140637
805.628	0.0140187
805.706	0.0140869
805.785	0.0142525
805.863	0.0140511
805.941	0.0138938
806.019	0.0140218
806.097	0.0140845
806.175	0.0139373
806.253	0.0140911
806.331	0.0139482
806.410	0.0140772
806.488	0.0140362
806.566	0.0140303
806.644	0.0139849
806.722	0.0140038
806.800	0.0139852
806.878	0.0139725
806.956	0.0140030
807.035	0.0140465
807.113	0.0140002
807.191	0.0139874
807.269	0.0140966
807.347	0.0140304
807.425	0.0140349
807.503	0.0141528
807.581	0.0141049
807.660	0.0140747
807.738	0.0140807
807.816	0.0140668
807.894	0.0139898
807.972	0.0140195
808.050	0.0140237
808.128	0.0140204
808.206	0.0139906
808.285	0.0140318
808.363	0.0139721
808.441	0.0140730
808.519	0.0140933
808.597	0.0141200
808.675	0.0140364
808.753	0.0139696
808.831	0.0141376
808.910	0.0141695
808.988	0.0140098
809.066	0.0140285
809.144	0.0141427
809.222	0.0141868
809.300	0.0142179
809.378	0.0142258
809.456	0.0142454
809.535	0.0141122
809.613	0.0141733
809.691	0.0141761
809.769	0.0142082
809.847	0.0142685
809.925	0.0142725
810.003	0.0140135
810.081	0.0141564
810.160	0.0142812
810.238	0.0144098
810.316	0.0142165
810.394	0.0142183
810.472	0.0140705
810.550	0.0140501
810.628	0.0142491
810.706	0.0142350
810.785	0.0140725
810.863	0.0142820
810.941	0.0140745
811.019	0.0139941
811.097	0.0139287
811.175	0.0139766
811.253	0.0139426
811.331	0.0139079
811.410	0.0139426
811.488	0.0139146
811.566	0.0138806
811.644	0.0138313
811.722	0.0140212
811.800	0.0139955
811.878	0.0139703
811.956	0.0138466
812.035	0.0138225
812.113	0.0139535
812.191	0.0140179
812.269	0.0139936
812.347	0.0139136
812.425	0.0140567
812.503	0.0140888
812.581	0.0139160
812.660	0.0139997
812.738	0.0138062
812.816	0.0139761
812.894	0.0139667
812.972	0.0139301
813.050	0.0138927
813.128	0.0139562
813.206	0.0138172
813.285	0.0139239
813.363	0.0138864
813.441	0.0139391
813.519	0.0140752
813.597	0.0140586
813.675	0.0139474
813.753	0.0140214
813.831	0.0139603
813.910	0.0140090
813.988	0.0139288
814.066	0.0139914
814.144	0.0140033
814.222	0.0139420
814.300	0.0139275
814.378	0.0139347
814.456	0.0139902
814.535	0.0139341
814.613	0.0141385
814.691	0.0140316
814.769	0.0139326
814.847	0.0140051
814.925	0.0139859
815.003	0.0140971
815.081	0.0140017
815.160	0.0140875
815.238	0.0140894
815.316	0.0139802
815.394	0.0140092
815.472	0.0140083
815.550	0.0138976
815.628	0.0141451
815.706	0.0140557
815.785	0.0140476
815.863	0.0139703
815.941	0.0140361
816.019	0.0141660
816.097	0.0140678
816.175	0.0141108
816.253	0.0140527
816.331	0.0141330
816.410	0.0142305
816.488	0.0141521
816.566	0.0142281
816.644	0.0141190
816.722	0.0140862
816.800	0.0141934
816.878	0.0142540
816.956	0.0141738
817.035	0.0142064
817.113	0.0140929
817.191	0.0141523
817.269	0.0142270
817.347	0.0143087
817.425	0.0142332
817.503	0.0142442
817.581	0.0141875
817.660	0.0142503
817.738	0.0141908
817.816	0.0140615
817.894	0.0141792
817.972	0.0141585
818.050	0.0140164
818.128	0.0142384
818.206	0.0142170
818.285	0.0140346
818.363	0.0140606
818.441	0.0139391
818.519	0.0139845
818.597	0.0139622
818.675	0.0138823
818.753	0.0140981
818.831	0.0139782
818.910	0.0141662
818.988	0.0139536
819.066	0.0139194
819.144	0.0139980
819.222	0.0141927
819.300	0.0140284
819.378	0.0141138
819.456	0.0140652
819.535	0.0140755
819.613	0.0140811
819.691	0.0140907
819.769	0.0141832
819.847	0.0139834
819.925	0.0140720
820.003	0.0141135
820.081	0.0141838
820.160	0.0139911
820.238	0.0139896
820.316	0.0140130
820.394	0.0140266
820.472	0.0139593
820.550	0.0140775
820.628	0.0139914
820.706	0.0140350
820.785	0.0140417
820.863	0.0140469
820.941	0.0139069
821.019	0.0140514
821.097	0.0140828
821.175	0.0139986
821.253	0.0139935
821.331	0.0139264
821.410	0.0140561
821.488	0.0140365
821.566	0.0141193
821.644	0.0141046
821.722	0.0141701
821.800	0.0142356
821.878	0.0140369
821.956	0.0140211
822.035	0.0139093
822.113	0.0142536
822.191	0.0141085
822.269	0.0141572
822.347	0.0140317
822.425	0.0140902
822.503	0.0142133
822.581	0.0140179
822.660	0.0139800
822.738	0.0140555
822.816	0.0139574
822.894	0.0140661
822.972	0.0141264
823.050	0.0140610
823.128	0.0140706
823.206	0.0141239
823.285	0.0140067
823.363	0.0140558
823.441	0.0141006
823.519	0.0140884
823.597	0.0141169
823.675	0.0142056
823.753	0.0141337
823.831	0.0142182
823.910	0.0142049
823.988	0.0142249
824.066	0.0143384
824.144	0.0142836
824.222	0.0141286
824.300	0.0144282
824.378	0.0143373
824.456	0.0142449
824.535	0.0141807
824.613	0.0143072
824.691	0.0144110
824.769	0.0143348
824.847	0.0143288
824.925	0.0143548
825.003	0.0144015
825.081	0.0143017
825.160	0.0142668
825.238	0.0143356
825.316	0.0143526
825.394	0.0143616
825.472	0.0142866
825.550	0.0143639
825.628	0.0142294
825.706	0.0142831
825.785	0.0142473
825.863	0.0143115
825.941	0.0142330
826.019	0.0141542
826.097	0.0141371
826.175	0.0142359
826.253	0.0142196
826.331	0.0142216
826.410	0.0141989
826.488	0.0142974
826.566	0.0141524
826.644	0.0141698
826.722	0.0141990
826.800	0.0141502
826.878	0.0142021
826.956	0.0142417
827.035	0.0142412
827.113	0.0141591
827.191	0.0140378
827.269	0.0141711
827.347	0.0141355
827.425	0.0143186
827.503	0.0142381
827.581	0.0142759
827.660	0.0141927
827.738	0.0142589
827.816	0.0142035
827.894	0.0141277
827.972	0.0141798
828.050	0.0141527
828.128	0.0142287
828.206	0.0141585
828.285	0.0140704
828.363	0.0141147
828.441	0.0142283
828.519	0.0142010
828.597	0.0141411
828.675	0.0141403
828.753	0.0140794
828.831	0.0141586
828.910	0.0141986
828.988	0.0140204
829.066	0.0139687
829.144	0.0139030
829.222	0.0140157
829.300	0.0138560
829.378	0.0140070
829.456	0.0140261
829.535	0.0139984
829.613	0.0140744
829.691	0.0139433
829.769	0.0139838
829.847	0.0139526
829.925	0.0140575
830.003	0.0139205
830.081	0.0139565
830.160	0.0140202
830.238	0.0141176
830.316	0.0139518
830.394	0.0141710
830.472	0.0140562
830.550	0.0138720
830.628	0.0141424
830.706	0.0140186
830.785	0.0140545
830.863	0.0139796
830.941	0.0140485
831.019	0.0141020
831.097	0.0140353
831.175	0.0142036
831.253	0.0140572
831.331	0.0140781
831.410	0.0140562
831.488	0.0141364
831.566	0.0142510
831.644	0.0141355
831.722	0.0141200
831.800	0.0141828
831.878	0.0141734
831.956	0.0141609
832.035	0.0142825
832.113	0.0142363
832.191	0.0142308
832.269	0.0141850
832.347	0.0141621
832.425	0.0141663
832.503	0.0142845
832.581	0.0141930
832.660	0.0142069
832.738	0.0142509
832.816	0.0142460
832.894	0.0141056
832.972	0.0142155
833.050	0.0141751
833.128	0.0140504
833.206	0.0141043
833.285	0.0141767
833.363	0.0140764
833.441	0.0140053
833.519	0.0142072
833.597	0.0142271
833.675	0.0142194
833.753	0.0140953
833.831	0.0140992
833.910	0.0142783
833.988	0.0141553
834.066	0.0142143
834.144	0.0142042
834.222	0.0140790
834.300	0.0141283
834.378	0.0141705
834.456	0.0141423
834.535	0.0142950
834.613	0.0141776
834.691	0.0140778
834.769	0.0141239
834.847	0.0140939
834.925	0.0141518
835.003	0.0141798
835.081	0.0140566
835.160	0.0141660
835.238	0.0141512
835.316	0.0139791
835.394	0.0140382
835.472	0.0141039
835.550	0.0140017
835.628	0.0140202
835.706	0.0141740
835.785	0.0140894
835.863	0.0140504
835.941	0.0139809
836.019	0.0140621
836.097	0.0140203
836.175	0.0140071
836.253	0.0139395
836.331	0.0141087
836.410	0.0140314
836.488	0.0140154
836.566	0.0140910
836.644	0.0139654
836.722	0.0139600
836.800	0.0138994
836.878	0.0139589
836.956	0.0139909
837.035	0.0139954
837.113	0.0140580
837.191	0.0140365
837.269	0.0141637
837.347	0.0139523
837.425	0.0141377
837.503	0.0138406
837.581	0.0138706
837.660	0.0138973
837.738	0.0140784
837.816	0.0139088
837.894	0.0140475
837.972	0.0140453
838.050	0.0140260
838.128	0.0140509
838.206	0.0141596
838.285	0.0140380
838.363	0.0139832
838.441	0.0139457
838.519	0.0139590
838.597	0.0139939
838.675	0.0140520
838.753	0.0141357
838.831	0.0140460
838.910	0.0140690
838.988	0.0141623
839.066	0.0140771
839.144	0.0140448
839.222	0.0141917
839.300	0.0141827
839.378	0.0141352
839.456	0.0141759
839.535	0.0142976
839.613	0.0141586
839.691	0.0141345
839.769	0.0141237
839.847	0.0141285
839.925	0.0140776
840.003	0.0141189
840.081	0.0140465
840.160	0.0141999
840.238	0.0141270
840.316	0.0140482
840.394	0.0140147
840.472	0.0139914
840.550	0.0141717
840.628	0.0140710
840.706	0.0140766
840.785	0.0140259
840.863	0.0140520
840.941	0.0141370
841.019	0.0141681
841.097	0.0139300
841.175	0.0140498
841.253	0.0142325
841.331	0.0141824
841.410	0.0142554
841.488	0.0140441
841.566	0.0141727
841.644	0.0141191
841.722	0.0141070
841.800	0.0140074
841.878	0.0141770
841.956	0.0142772
842.035	0.0140816
842.113	0.0141076
842.191	0.0140006
842.269	0.0140153
842.347	0.0140833
842.425	0.0142159
842.503	0.0140633
842.581	0.0139583
842.660	0.0140208
842.738	0.0142058
842.816	0.0142113
842.894	0.0141567
842.972	0.0139159
843.050	0.0141901
843.128	0.0141979
843.206	0.0140636
843.285	0.0141703
843.363	0.0140790
843.441	0.0141566
843.519	0.0140389
843.597	0.0141913
843.675	0.0141430
843.753	0.0142365
843.831	0.0140970
843.910	0.0142187
843.988	0.0140260
844.066	0.0141261
844.144	0.0142496
844.222	0.0141292
844.300	0.0140051
844.378	0.0142175
844.456	0.0141814
844.535	0.0141042
844.613	0.0141844
844.691	0.0142087
844.769	0.0141203
844.847	0.0140757
844.925	0.0141965
845.003	0.0140952
845.081	0.0141166
845.160	0.0140354
845.238	0.0140816
845.316	0.0141084
845.394	0.0141979
845.472	0.0142126
845.550	0.0141615
845.628	0.0141843
845.706	0.0141003
845.785	0.0141834
845.863	0.0141448
845.941	0.0141218
846.019	0.0142392
846.097	0.0141869
846.175	0.0142770
846.253	0.0143012
846.331	0.0142927
846.410	0.0143402
846.488	0.0142268
846.566	0.0143521
846.644	0.0142910
846.722	0.0143494
846.800	0.0142585
846.878	0.0143673
846.956	0.0144132
847.035	0.0144115
847.113	0.0143524
847.191	0.0144221
847.269	0.0143379
847.347	0.0142226
847.425	0.0143079
847.503	0.0144116
847.581	0.0142611
847.660	0.0142084
847.738	0.0142770
847.816	0.0141821
847.894	0.0142184
847.972	0.0141990
848.050	0.0141649
848.128	0.0141208
848.206	0.0141433
848.285	0.0141626
848.363	0.0141882
848.441	0.0141251
848.519	0.0141220
848.597	0.0141641
848.675	0.0140126
848.753	0.0140357
848.831	0.0142332
848.910	0.0141856
848.988	0.0141604
849.066	0.0141869
849.144	0.0140829
849.222	0.0141819
849.300	0.0140999
849.378	0.0139789
849.456	0.0141644
849.535	0.0140526
849.613	0.0141508
849.691	0.0141788
849.769	0.0141947
849.847	0.0142766
849.925	0.0140842
850.003	0.0140343
850.081	0.0140395
850.160	0.0140437
850.238	0.0141969
850.316	0.0140235
850.394	0.0140025
850.472	0.0139822
850.550	0.0139984
850.628	0.0141003
850.706	0.0142493
850.785	0.0141160
850.863	0.0139899
850.941	0.0139981
851.019	0.0140089
851.097	0.0140628
851.175	0.0140207
851.253	0.0140218
851.331	0.0140855
851.410	0.0140329
851.488	0.0139006
851.566	0.0140349
851.644	0.0140552
851.722	0.0141499
851.800	0.0140645
851.878	0.0140295
851.956	0.0139722
852.035	0.0139597
852.113	0.0140582
852.191	0.0139418
852.269	0.0139073
852.347	0.0141638
852.425	0.0140746
852.503	0.0139668
852.581	0.0139936
852.660	0.0140376
852.738	0.0140775
852.816	0.0139442
852.894	0.0140893
852.972	0.0140443
853.050	0.0140647
853.128	0.0141886
853.206	0.0141718
853.285	0.0140468
853.363	0.0141056
853.441	0.0141998
853.519	0.0142036
853.597	0.0142191
853.675	0.0141644
853.753	0.0143293
853.831	0.0141326
853.910	0.0143049
853.988	0.0141299
854.066	0.0141010
854.144	0.0142361
854.222	0.0143484
854.300	0.0141976
854.378	0.0141750
854.456	0.0140213
854.535	0.0141482
854.613	0.0140750
854.691	0.0141905
854.769	0.0141422
854.847	0.0141599
854.925	0.0141285
855.003	0.0142192
855.081	0.0141267
855.160	0.0140903
855.238	0.0142787
855.316	0.0141846
855.394	0.0141248
855.472	0.0142271
855.550	0.0141714
855.628	0.0140247
855.706	0.0140719
855.785	0.0142527
855.863	0.0141613
855.941	0.0141058
856.019	0.0141364
856.097	0.0141997
856.175	0.0140784
856.253	0.0141811
856.331	0.0140722
856.410	0.0140575
856.488	0.0140606
856.566	0.0141782
856.644	0.0142329
856.722	0.0139458
856.800	0.0140147
856.878	0.0141153
856.956	0.0140423
857.035	0.0141257
857.113	0.0141065
857.191	0.0140389
857.269	0.0141264
857.347	0.0140191
857.425	0.0141065
857.503	0.0140210
857.581	0.0140282
857.660	0.0140305
857.738	0.0141119
857.816	0.0139985
857.894	0.0139887
857.972	0.0139954
858.050	0.0140176
858.128	0.0139996
858.206	0.0138870
858.285	0.0140321
858.363	0.0140334
858.441	0.0140826
858.519	0.0141169
858.597	0.0140812
858.675	0.0140205
858.753	0.0139587
858.831	0.0140209
858.910	0.0139727
858.988	0.0139919
859.066	0.0139838
859.144	0.0140002
859.222	0.0141190
859.300	0.0140507
859.378	0.0139336
859.456	0.0139084
859.535	0.0139740
859.613	0.0138000
859.691	0.0138451
859.769	0.0139806
859.847	0.0140646
859.925	0.0140145
860.003	0.0139364
860.081	0.0141389
860.160	0.0140198
860.238	0.0139874
860.316	0.0141003
860.394	0.0141185
860.472	0.0140990
860.550	0.0141153
860.628	0.0141830
860.706	0.0141102
860.785	0.0140948
860.863	0.0141578
860.941	0.0142618
861.019	0.0142104
861.097	0.0142050
861.175	0.0140524
861.253	0.0141982
861.331	0.0141893
861.410	0.0142422
861.488	0.0141369
861.566	0.0141184
861.644	0.0142529
861.722	0.0141910
861.800	0.0141660
861.878	0.0141266
861.956	0.0141967
862.035	0.0141929
862.113	0.0142969
862.191	0.0142220
862.269	0.0141319
862.347	0.0141309
862.425	0.0140707
862.503	0.0140852
862.581	0.0140079
862.660	0.0141325
862.738	0.0140523
862.816	0.0140775
862.894	0.0141013
862.972	0.0138799
863.050	0.0141875
863.128	0.0142316
863.206	0.0139722
863.285	0.0140794
863.363	0.0140060
863.441	0.0140094
863.519	0.0138797
863.597	0.0140385
863.675	0.0139671
863.753	0.0140153
863.831	0.0141042
863.910	0.0141349
863.988	0.0142039
864.066	0.0138402
864.144	0.0138880
864.222	0.0140370
864.300	0.0139311
864.378	0.0139919
864.456	0.0140870
864.535	0.0140904
864.613	0.0141788
864.691	0.0140041
864.769	0.0140691
864.847	0.0139215
864.925	0.0139326
865.003	0.0139882
865.081	0.0142597
865.160	0.0140520
865.238	0.0141219
865.316	0.0141344
865.394	0.0140155
865.472	0.0140637
865.550	0.0140295
865.628	0.0142072
865.706	0.0141372
865.785	0.0140842
865.863	0.0141051
865.941	0.0141348
866.019	0.0140945
866.097	0.0142353
866.175	0.0141739
866.253	0.0141965
866.331	0.0141782
866.410	0.0142097
866.488	0.0141943
866.566	0.0141634
866.644	0.0141381
866.722	0.0141962
866.800	0.0142872
866.878	0.0141219
866.956	0.0141316
867.035	0.0143454
867.113	0.0141205
867.191	0.0142193
867.269	0.0140937
867.347	0.0141763
867.425	0.0140249
867.503	0.0141919
867.581	0.0142097
867.660	0.0141589
867.738	0.0140608
867.816	0.0142004
867.894	0.0143513
867.972	0.0141600
868.050	0.0143308
868.128	0.0142186
868.206	0.0142654
868.285	0.0142141
868.363	0.0142554
868.441	0.0142542
868.519	0.0142141
868.597	0.0142401
868.675	0.0142712
868.753	0.0144087
868.831	0.0143360
868.910	0.0141248
868.988	0.0142487
869.066	0.0142774
869.144	0.0142734
869.222	0.0141869
869.300	0.0141739
869.378	0.0143894
869.456	0.0143066
869.535	0.0141712
869.613	0.0141145
869.691	0.0141293
869.769	0.0141714
869.847	0.0141193
869.925	0.0142530
870.003	0.0140362
870.081	0.0141649
870.160	0.0140845
870.238	0.0141937
870.316	0.0141101
870.394	0.0140218
870.472	0.0141161
870.550	0.0140375
870.628	0.0141616
870.706	0.0140715
870.785	0.0140297
870.863	0.0140352
870.941	0.0141748
871.019	0.0141220
871.097	0.0140710
871.175	0.0141166
871.253	0.0140775
871.331	0.0140598
871.410	0.0139537
871.488	0.0139716
871.566	0.0139973
871.644	0.0138940
871.722	0.0139738
871.800	0.0139746
871.878	0.0139851
871.956	0.0140540
872.035	0.0138421
872.113	0.0140323
872.191	0.0141154
872.269	0.0139378
872.347	0.0139809
872.425	0.0139559
872.503	0.0139642
872.581	0.0140048
872.660	0.0141431
872.738	0.0140034
872.816	0.0137859
872.894	0.0140669
872.972	0.0140423
873.050	0.0139304
873.128	0.0140422
873.206	0.0139283
873.285	0.0139951
873.363	0.0139719
873.441	0.0141084
873.519	0.0139615
873.597	0.0140742
873.675	0.0140266
873.753	0.0140357
873.831	0.0139801
873.910	0.0140599
873.988	0.0140788
874.066	0.0139280
874.144	0.0141476
874.222	0.0141490
874.300	0.0141644
874.378	0.0142197
874.456	0.0141653
874.535	0.0141669
874.613	0.0140823
874.691	0.0140531
874.769	0.0142450
874.847	0.0141418
874.925	0.0140248
875.003	0.0141737
875.081	0.0142469
875.160	0.0141807
875.238	0.0141474
875.316	0.0141309
875.394	0.0141552
875.472	0.0142894
875.550	0.0142861
875.628	0.0141801
875.706	0.0141803
875.785	0.0142884
875.863	0.0143288
875.941	0.0143705
876.019	0.0140857
876.097	0.0142783
876.175	0.0144325
876.253	0.0143031
876.331	0.0143216
876.410	0.0143530
876.488	0.0141280
876.566	0.0141003
876.644	0.0143045
876.722	0.0141977
876.800	0.0142000
876.878	0.0141816
876.956	0.0141698
877.035	0.0141535
877.113	0.0141367
877.191	0.0141129
877.269	0.0139741
877.347	0.0139817
877.425	0.0140593
877.503	0.0140271
877.581	0.0140048
877.660	0.0141567
877.738	0.0140354
877.816	0.0139355
877.894	0.0140043
877.972	0.0139024
878.050	0.0138596
878.128	0.0140515
878.206	0.0139487
878.285	0.0138270
878.363	0.0139149
878.441	0.0138263
878.519	0.0138271
878.597	0.0138840
878.675	0.0137467
878.753	0.0137999
878.831	0.0138864
878.910	0.0139948
878.988	0.0138531
879.066	0.0138459
879.144	0.0138829
879.222	0.0138092
879.300	0.0139124
879.378	0.0140035
879.456	0.0139083
879.535	0.0138622
879.613	0.0138674
879.691	0.0138358
879.769	0.0139188
879.847	0.0138580
879.925	0.0138467
880.003	0.0139514
880.081	0.0138800
880.160	0.0139400
880.238	0.0139742
880.316	0.0140965
880.394	0.0138877
880.472	0.0138681
880.550	0.0139702
880.628	0.0140322
880.706	0.0140441
880.785	0.0139288
880.863	0.0141465
880.941	0.0140125
881.019	0.0140177
881.097	0.0138857
881.175	0.0138995
881.253	0.0138747
881.331	0.0140070
881.410	0.0139320
881.488	0.0138163
881.566	0.0138164
881.644	0.0139518
881.722	0.0139614
881.800	0.0139753
881.878	0.0141367
881.956	0.0138808
882.035	0.0140621
882.113	0.0140818
882.191	0.0140550
882.269	0.0139861
882.347	0.0142336
882.425	0.0142575
882.503	0.0140781
882.581	0.0141688
882.660	0.0140478
882.738	0.0142744
882.816	0.0143892
882.894	0.0143295
882.972	0.0142410
883.050	0.0142992
883.128	0.0142534
883.206	0.0141490
883.285	0.0142570
883.363	0.0143783
883.441	0.0141661
883.519	0.0142255
883.597	0.0142409
883.675	0.0143697
883.753	0.0140938
883.831	0.0142359
883.910	0.0142672
883.988	0.0139812
884.066	0.0141348
884.144	0.0141676
884.222	0.0141119
884.300	0.0140098
884.378	0.0141659
884.456	0.0141515
884.535	0.0140386
884.613	0.0140759
884.691	0.0141336
884.769	0.0141445
884.847	0.0139910
884.925	0.0140533
885.003	0.0140557
885.081	0.0140604
885.160	0.0139651
885.238	0.0140452
885.316	0.0140173
885.394	0.0140705
885.472	0.0140603
885.550	0.0139645
885.628	0.0139826
885.706	0.0139323
885.785	0.0140160
885.863	0.0139797
885.941	0.0139846
886.019	0.0139720
886.097	0.0139288
886.175	0.0139259
886.253	0.0138417
886.331	0.0139911
886.410	0.0140197
886.488	0.0139469
886.566	0.0139153
886.644	0.0139525
886.722	0.0140397
886.800	0.0139249
886.878	0.0139462
886.956	0.0140900
887.035	0.0140610
887.113	0.0139906
887.191	0.0140883
887.269	0.0140993
887.347	0.0142094
887.425	0.0141476
887.503	0.0139642
887.581	0.0140666
887.660	0.0141101
887.738	0.0142040
887.816	0.0140703
887.894	0.0141177
887.972	0.0141370
888.050	0.0140603
888.128	0.0141962
888.206	0.0141975
888.285	0.0142426
888.363	0.0141785
888.441	0.0143008
888.519	0.0141425
888.597	0.0141779
888.675	0.0141777
888.753	0.0141273
888.831	0.0141365
888.910	0.0142988
888.988	0.0141613
889.066	0.0141467
889.144	0.0142102
889.222	0.0141756
889.300	0.0142101
889.378	0.0143135
889.456	0.0142057
889.535	0.0142979
889.613	0.0143883
889.691	0.0142715
889.769	0.0143217
889.847	0.0143440
889.925	0.0144558
890.003	0.0143526
890.081	0.0143568
890.160	0.0143370
890.238	0.0143439
890.316	0.0143474
890.394	0.0143276
890.472	0.0143179
890.550	0.0143138
890.628	0.0143423
890.706	0.0143594
890.785	0.0142815
890.863	0.0142213
890.941	0.0141226
891.019	0.0142229
891.097	0.0142590
891.175	0.0143249
891.253	0.0140836
891.331	0.0140976
891.410	0.0143268
891.488	0.0140906
891.566	0.0140792
891.644	0.0140186
891.722	0.0139794
891.800	0.0139783
891.878	0.0138988
891.956	0.0138975
892.035	0.0140528
892.113	0.0139291
892.191	0.0139373
892.269	0.0141356
892.347	0.0141460
892.425	0.0140055
892.503	0.0140221
892.581	0.0140742
892.660	0.0138785
892.738	0.0138701
892.816	0.0141251
892.894	0.0138975
892.972	0.0139994
893.050	0.0140113
893.128	0.0140073
893.206	0.0140197
893.285	0.0139268
893.363	0.0140283
893.441	0.0140479
893.519	0.0139488
893.597	0.0139946
893.675	0.0140133
893.753	0.0138253
893.831	0.0140198
893.910	0.0139722
893.988	0.0140453
894.066	0.0140900
894.144	0.0141065
894.222	0.0140172
894.300	0.0140390
894.378	0.0140768
894.456	0.0141513
894.535	0.0139407
894.613	0.0140439
894.691	0.0141010
894.769	0.0139314
894.847	0.0139951
894.925	0.0141227
895.003	0.0141933
895.081	0.0141113
895.160	0.0140990
895.238	0.0140647
895.316	0.0140782
895.394	0.0141342
895.472	0.0140201
895.550	0.0140399
895.628	0.0141228
895.706	0.0140415
895.785	0.0140512
895.863	0.0141426
895.941	0.0141413
896.019	0.0140533
896.097	0.0141961
896.175	0.0139545
896.253	0.0140473
896.331	0.0141161
896.410	0.0141553
896.488	0.0140848
896.566	0.0141410
896.644	0.0141295
896.722	0.0142526
896.800	0.0142828
896.878	0.0140968
896.956	0.0142050
897.035	0.0142332
897.113	0.0142520
897.191	0.0141570
897.269	0.0141705
897.347	0.0143364
897.425	0.0141794
897.503	0.0141302
897.581	0.0141322
897.660	0.0142858
897.738	0.0142684
897.816	0.0141155
897.894	0.0142059
897.972	0.0143479
898.050	0.0142004
898.128	0.0142146
898.206	0.0141834
898.285	0.0141823
898.363	0.0141645
898.441	0.0142417
898.519	0.0142458
898.597	0.0143054
898.675	0.0141248
898.753	0.0141675
898.831	0.0141649
898.910	0.0141143
898.988	0.0141462
899.066	0.0139672
899.144	0.0141061
899.222	0.0141335
899.300	0.0140717
899.378	0.0143146
899.456	0.0143102
899.535	0.0142235
899.613	0.0138718
899.691	0.0140739
899.769	0.0141019
899.847	0.0141261
899.925	0.0141814
900.003	0.0141635
900.081	0.0141136
900.160	0.0141241
900.238	0.0140105
900.316	0.0141283
900.394	0.0142330
900.472	0.0141101
900.550	0.0139938
900.628	0.0142163
900.706	0.0141042
900.785	0.0140450
900.863	0.0140749
900.941	0.0141784
901.019	0.0141775
901.097	0.0140710
901.175	0.0142240
901.253	0.0140426
901.331	0.0141905
901.410	0.0142226
901.488	0.0141483
901.566	0.0142998
901.644	0.0142535
901.722	0.0141772
901.800	0.0141249
901.878	0.0141653
901.956	0.0142088
902.035	0.0142725
902.113	0.0143185
902.191	0.0141713
902.269	0.0143185
902.347	0.0140358
902.425	0.0141706
902.503	0.0143774
902.581	0.0141338
902.660	0.0141582
902.738	0.0141063
902.816	0.0140392
902.894	0.0140811
902.972	0.0142314
903.050	0.0142162
903.128	0.0140131
903.206	0.0141710
903.285	0.0140952
903.363	0.0140858
903.441	0.0143158
903.519	0.0141805
903.597	0.0141531
903.675	0.0139932
903.753	0.0140424
903.831	0.0141302
903.910	0.0141206
903.988	0.0141567
904.066	0.0141928
904.144	0.0141981
904.222	0.0143015
904.300	0.0140079
904.378	0.0141470
904.456	0.0140877
904.535	0.0141668
904.613	0.0140878
904.691	0.0140632
904.769	0.0140642
904.847	0.0140554
904.925	0.0141418
905.003	0.0141239
905.081	0.0140861
905.160	0.0141644
905.238	0.0142050
905.316	0.0141043
905.394	0.0142062
905.472	0.0140722
905.550	0.0142018
905.628	0.0140788
905.706	0.0142390
905.785	0.0141166
905.863	0.0140800
905.941	0.0141420
906.019	0.0139933
906.097	0.0139587
906.175	0.0139501
906.253	0.0140965
906.331	0.0140321
906.410	0.0141257
906.488	0.0141307
906.566	0.0140321
906.644	0.0139651
906.722	0.0141195
906.800	0.0141132
906.878	0.0139758
906.956	0.0139793
907.035	0.0140617
907.113	0.0140235
907.191	0.0139142
907.269	0.0140533
907.347	0.0140558
907.425	0.0139272
907.503	0.0138074
907.581	0.0139345
907.660	0.0139078
907.738	0.0140025
907.816	0.0139693
907.894	0.0139458
907.972	0.0139601
908.050	0.0138532
908.128	0.0138082
908.206	0.0139584
908.285	0.0138497
908.363	0.0139597
908.441	0.0137997
908.519	0.0139261
908.597	0.0139799
908.675	0.0141392
908.753	0.0140072
908.831	0.0139423
908.910	0.0140977
908.988	0.0140366
909.066	0.0140595
909.144	0.0140916
909.222	0.0139352
909.300	0.0138662
909.378	0.0139677
909.456	0.0140584
909.535	0.0140762
909.613	0.0140963
909.691	0.0141200
909.769	0.0140730
909.847	0.0141730
909.925	0.0140605
910.003	0.0140878
910.081	0.0140762
910.160	0.0142523
910.238	0.0143019
910.316	0.0142358
910.394	0.0142202
910.472	0.0141708
910.550	0.0140861
910.628	0.0142874
910.706	0.0141324
910.785	0.0140931
910.863	0.0140488
910.941	0.0140641
911.019	0.0141693
911.097	0.0141701
911.175	0.0141140
911.253	0.0141985
911.331	0.0141106
911.410	0.0141398
911.488	0.0141023
911.566	0.0140771
911.644	0.0141602
911.722	0.0141967
911.800	0.0141706
911.878	0.0143111
911.956	0.0140499
912.035	0.0142952
912.113	0.0141690
912.191	0.0142504
912.269	0.0143347
912.347	0.0141727
912.425	0.0142519
912.503	0.0142441
912.581	0.0142847
912.660	0.0142395
912.738	0.0143610
912.816	0.0141828
912.894	0.0141542
912.972	0.0142764
913.050	0.0142677
913.128	0.0143174
913.206	0.0143535
913.285	0.0142187
913.363	0.0140872
913.441	0.0141724
913.519	0.0142257
913.597	0.0141267
913.675	0.0140738
913.753	0.0139801
913.831	0.0140563
913.910	0.0141300
913.988	0.0141888
914.066	0.0141795
914.144	0.0142303
914.222	0.0141158
914.300	0.0141346
914.378	0.0142612
914.456	0.0141313
914.535	0.0140873
914.613	0.0140927
914.691	0.0141723
914.769	0.0141061
914.847	0.0141938
914.925	0.0141660
915.003	0.0141353
915.081	0.0141924
915.160	0.0141156
915.238	0.0140867
915.316	0.0141485
915.394	0.0142420
915.472	0.0141795
915.550	0.0141389
915.628	0.0139674
915.706	0.0141948
915.785	0.0141011
915.863	0.0139750
915.941	0.0140511
916.019	0.0141222
916.097	0.0140244
916.175	0.0140707
916.253	0.0140885
916.331	0.0141859
916.410	0.0140942
916.488	0.0141718
916.566	0.0141761
916.644	0.0141328
916.722	0.0141954
916.800	0.0140651
916.878	0.0140874
916.956	0.0141205
917.035	0.0139872
917.113	0.0139642
917.191	0.0141906
917.269	0.0141454
917.347	0.0139475
917.425	0.0142268
917.503	0.0140226
917.581	0.0140032
917.660	0.0140627
917.738	0.0140838
917.816	0.0141385
917.894	0.0140428
917.972	0.0141005
918.050	0.0140797
918.128	0.0140441
918.206	0.0140368
918.285	0.0140144
918.363	0.0140404
918.441	0.0141469
918.519	0.0140725
918.597	0.0140019
918.675	0.0140989
918.753	0.0141639
918.831	0.0141132
918.910	0.0140250
918.988	0.0140623
919.066	0.0141441
919.144	0.0140581
919.222	0.0141612
919.300	0.0141750
919.378	0.0141142
919.456	0.0142075
919.535	0.0142637
919.613	0.0142590
919.691	0.0143306
919.769	0.0143584
919.847	0.0143078
919.925	0.0142223
920.003	0.0141489
920.081	0.0142130
920.160	0.0142732
920.238	0.0142339
920.316	0.0144099
920.394	0.0142410
920.472	0.0141688
920.550	0.0143230
920.628	0.0142621
920.706	0.0141222
920.785	0.0143291
920.863	0.0141017
920.941	0.0140652
921.019	0.0141694
921.097	0.0141895
921.175	0.0141030
921.253	0.0141281
921.331	0.0142611
921.410	0.0142741
921.488	0.0142486
921.566	0.0141173
921.644	0.0140379
921.722	0.0141398
921.800	0.0142590
921.878	0.0141681
921.956	0.0140423
922.035	0.0141872
922.113	0.0141415
922.191	0.0140934
922.269	0.0142656
922.347	0.0142320
922.425	0.0141788
922.503	0.0142169
922.581	0.0142056
922.660	0.0142042
922.738	0.0142047
922.816	0.0141591
922.894	0.0141405
922.972	0.0140730
923.050	0.0140553
923.128	0.0140609
923.206	0.0139709
923.285	0.0140873
923.363	0.0141631
923.441	0.0141601
923.519	0.0142946
923.597	0.0140157
923.675	0.0140910
923.753	0.0142300
923.831	0.0139578
923.910	0.0140888
923.988	0.0143298
924.066	0.0140298
924.144	0.0140643
924.222	0.0140548
924.300	0.0142041
924.378	0.0141862
924.456	0.0140778
924.535	0.0141700
924.613	0.0140794
924.691	0.0141891
924.769	0.0141612
924.847	0.0141308
924.925	0.0140800
925.003	0.0141443
925.081	0.0140510
925.160	0.0141212
925.238	0.0140930
925.316	0.0140668
925.394	0.0140869
925.472	0.0141412
925.550	0.0140964
925.628	0.0141785
925.706	0.0141975
925.785	0.0141097
925.863	0.0141559
925.941	0.0141808
926.019	0.0142107
926.097	0.0141641
926.175	0.0141968
926.253	0.0141035
926.331	0.0142098
926.410	0.0141826
926.488	0.0140664
926.566	0.0142306
926.644	0.0143353
926.722	0.0142019
926.800	0.0142122
926.878	0.0143237
926.956	0.0143957
927.035	0.0142624
927.113	0.0141882
927.191	0.0142457
927.269	0.0142775
927.347	0.0144299
927.425	0.0142886
927.503	0.0142503
927.581	0.0142609
927.660	0.0142816
927.738	0.0141995
927.816	0.0142104
927.894	0.0142844
927.972	0.0141700
928.050	0.0141261
928.128	0.0143375
928.206	0.0142673
928.285	0.0140856
928.363	0.0141048
928.441	0.0141678
928.519	0.0141454
928.597	0.0140134
928.675	0.0141817
928.753	0.0141760
928.831	0.0139320
928.910	0.0140978
928.988	0.0141526
929.066	0.0141217
929.144	0.0140536
929.222	0.0140537
929.300	0.0141688
929.378	0.0139732
929.456	0.0139935
929.535	0.0141678
929.613	0.0140201
929.691	0.0140044
929.769	0.0140355
929.847	0.0140237
929.925	0.0139563
930.003	0.0139799
930.081	0.0140272
930.160	0.0140463
930.238	0.0140041
930.316	0.0140054
930.394	0.0139656
930.472	0.0138543
930.550	0.0139909
930.628	0.0139356
930.706	0.0140388
930.785	0.0140112
930.863	0.0140675
930.941	0.0141237
931.019	0.0140678
931.097	0.0140974
931.175	0.0141174
931.253	0.0140567
931.331	0.0141364
931.410	0.0141474
931.488	0.0141193
931.566	0.0140598
931.644	0.0139837
931.722	0.0140420
931.800	0.0141912
931.878	0.0142157
931.956	0.0140748
932.035	0.0141061
932.113	0.0140565
932.191	0.0139896
932.269	0.0139941
932.347	0.0140888
932.425	0.0141576
932.503	0.0141772
932.581	0.0140640
932.660	0.0140214
932.738	0.0140990
932.816	0.0141042
932.894	0.0141212
932.972	0.0142223
933.050	0.0139967
933.128	0.0141654
933.206	0.0139426
933.285	0.0140710
933.363	0.0142641
933.441	0.0142480
933.519	0.0141122
933.597	0.0140742
933.675	0.0143162
933.753	0.0143262
933.831	0.0141376
933.910	0.0142183
933.988	0.0141251
934.066	0.0142769
934.144	0.0141939
934.222	0.0142379
934.300	0.0143569
934.378	0.0142032
934.456	0.0143027
934.535	0.0141978
934.613	0.0141322
934.691	0.0142781
934.769	0.0140884
934.847	0.0141153
934.925	0.0143015
935.003	0.0143546
935.081	0.0141985
935.160	0.0140549
935.238	0.0142423
935.316	0.0141370
935.394	0.0141495
935.472	0.0142306
935.550	0.0142541
935.628	0.0142347
935.706	0.0142541
935.785	0.0140965
935.863	0.0141489
935.941	0.0141315
936.019	0.0141418
936.097	0.0141115
936.175	0.0142456
936.253	0.0141959
936.331	0.0141804
936.410	0.0142426
936.488	0.0141527
936.566	0.0141283
936.644	0.0140642
936.722	0.0141622
936.800	0.0141897
936.878	0.0141679
936.956	0.0141232
937.035	0.0141037
937.113	0.0141796
937.191	0.0140196
937.269	0.0141111
937.347	0.0141552
937.425	0.0141183
937.503	0.0141122
937.581	0.0140240
937.660	0.0140851
937.738	0.0140279
937.816	0.0142430
937.894	0.0140228
937.972	0.0141024
938.050	0.0139998
938.128	0.0141673
938.206	0.0142292
938.285	0.0142593
938.363	0.0141412
938.441	0.0140063
938.519	0.0140460
938.597	0.0140606
938.675	0.0142037
938.753	0.0140425
938.831	0.0140672
938.910	0.0141428
938.988	0.0140122
939.066	0.0140296
939.144	0.0140491
939.222	0.0141266
939.300	0.0143262
939.378	0.0142232
939.456	0.0141530
939.535	0.0141299
939.613	0.0141447
939.691	0.0143177
939.769	0.0141743
939.847	0.0141898
939.925	0.0141120
940.003	0.0141504
940.081	0.0141341
940.160	0.0139676
940.238	0.0140844
940.316	0.0140905
940.394	0.0140998
940.472	0.0140160
940.550	0.0141147
940.628	0.0141691
940.706	0.0141788
940.785	0.0142323
940.863	0.0142329
940.941	0.0141766
941.019	0.0141476
941.097	0.0142816
941.175	0.0142065
941.253	0.0142801
941.331	0.0142625
941.410	0.0141383
941.488	0.0141549
941.566	0.0142175
941.644	0.0141677
941.722	0.0142155
941.800	0.0142900
941.878	0.0142023
941.956	0.0141013
942.035	0.0141833
942.113	0.0142104
942.191	0.0141849
942.269	0.0141229
942.347	0.0141820
942.425	0.0141750
942.503	0.0140586
942.581	0.0139982
942.660	0.0140434
942.738	0.0140688
942.816	0.0138889
942.894	0.0141687
942.972	0.0141212
943.050	0.0140783
943.128	0.0140237
943.206	0.0140785
943.285	0.0141544
943.363	0.0140664
943.441	0.0140435
943.519	0.0140881
943.597	0.0141669
943.675	0.0142110
943.753	0.0140823
943.831	0.0142515
943.910	0.0141725
943.988	0.0139536
944.066	0.0138993
944.144	0.0141083
944.222	0.0140306
944.300	0.0140205
944.378	0.0140132
944.456	0.0140549
944.535	0.0140643
944.613	0.0140923
944.691	0.0139897
944.769	0.0140257
944.847	0.0140031
944.925	0.0139506
945.003	0.0140668
945.081	0.0140294
945.160	0.0139344
945.238	0.0140410
945.316	0.0140203
945.394	0.0140187
945.472	0.0140453
945.550	0.0139072
945.628	0.0140673
945.706	0.0140672
945.785	0.0140245
945.863	0.0140513
945.941	0.0140704
946.019	0.0139222
946.097	0.0140131
946.175	0.0140721
946.253	0.0140268
946.331	0.0139684
946.410	0.0140115
946.488	0.0140008
946.566	0.0138084
946.644	0.0140102
946.722	0.0139774
946.800	0.0140730
946.878	0.0139851
946.956	0.0140022
947.035	0.0138916
947.113	0.0139138
947.191	0.0139521
947.269	0.0139075
947.347	0.0138602
947.425	0.0139848
947.503	0.0139472
947.581	0.0140044
947.660	0.0140741
947.738	0.0139928
947.816	0.0138743
947.894	0.0138935
947.972	0.0140529
948.050	0.0139244
948.128	0.0140266
948.206	0.0138904
948.285	0.0140723
948.363	0.0141102
948.441	0.0141170
948.519	0.0141718
948.597	0.0141254
948.675	0.0141173
948.753	0.0140814
948.831	0.0140746
948.910	0.0141157
948.988	0.0142105
949.066	0.0142461
949.144	0.0140864
949.222	0.0141671
949.300	0.0141584
949.378	0.0142256
949.456	0.0141489
949.535	0.0141172
949.613	0.0141434
949.691	0.0140705
949.769	0.0140382
949.847	0.0142584
949.925	0.0141508
950.003	0.0140344
950.081	0.0139851
950.160	0.0141052
950.238	0.0141226
950.316	0.0139985
950.394	0.0140214
950.472	0.0140813
950.550	0.0140035
950.628	0.0139830
950.706	0.0140442
950.785	0.0140916
950.863	0.0140491
950.941	0.0140326
951.019	0.0142182
951.097	0.0141087
951.175	0.0140186
951.253	0.0140636
951.331	0.0140227
951.410	0.0139820
951.488	0.0139510
951.566	0.0141508
951.644	0.0141180
951.722	0.0139951
951.800	0.0141550
951.878	0.0141220
951.956	0.0139446
952.035	0.0140668
952.113	0.0139781
952.191	0.0140530
952.269	0.0139987
952.347	0.0141144
952.425	0.0140379
952.503	0.0140068
952.581	0.0140237
952.660	0.0141181
952.738	0.0140463
952.816	0.0141038
952.894	0.0142435
952.972	0.0140675
953.050	0.0141187
953.128	0.0140248
953.206	0.0141677
953.285	0.0141086
953.363	0.0140005
953.441	0.0141283
953.519	0.0141195
953.597	0.0141296
953.675	0.0141342
953.753	0.0140957
953.831	0.0140889
953.910	0.0141399
953.988	0.0140464
954.066	0.0141214
954.144	0.0142947
954.222	0.0141954
954.300	0.0141269
954.378	0.0141001
954.456	0.0139169
954.535	0.0141183
954.613	0.0141793
954.691	0.0139370
954.769	0.0140334
954.847	0.0140673
954.925	0.0140495
955.003	0.0141168
955.081	0.0140793
955.160	0.0141746
955.238	0.0141109
955.316	0.0140737
955.394	0.0140938
955.472	0.0142175
955.550	0.0140150
955.628	0.0141834
955.706	0.0140995
955.785	0.0142477
955.863	0.0143537
955.941	0.0143214
956.019	0.0141305
956.097	0.0142336
956.175	0.0144424
956.253	0.0143472
956.331	0.0142524
956.410	0.0143832
956.488	0.0143076
956.566	0.0143152
956.644	0.0143996
956.722	0.0142740
956.800	0.0141723
956.878	0.0143820
956.956	0.0143111
957.035	0.0142603
957.113	0.0142720
957.191	0.0143111
957.269	0.0142883
957.347	0.0142935
957.425	0.0143133
957.503	0.0144036
957.581	0.0142615
957.660	0.0141840
957.738	0.0142319
957.816	0.0143488
957.894	0.0142784
957.972	0.0143086
958.050	0.0143127
958.128	0.0142817
958.206	0.0144277
958.285	0.0143054
958.363	0.0142825
958.441	0.0142483
958.519	0.0143020
958.597	0.0143179
958.675	0.0141989
958.753	0.0141829
958.831	0.0142149
958.910	0.0143622
958.988	0.0143247
959.066	0.0141156
959.144	0.0140630
959.222	0.0141458
959.300	0.0141835
959.378	0.0141022
959.456	0.0140112
959.535	0.0138997
959.613	0.0142101
959.691	0.0140961
959.769	0.0139085
959.847	0.0140540
959.925	0.0140386
960.003	0.0140471
960.081	0.0139610
960.160	0.0140334
960.238	0.0139908
960.316	0.0140695
960.394	0.0140911
960.472	0.0140636
960.550	0.0140391
960.628	0.0140769
960.706	0.0139756
960.785	0.0140749
960.863	0.0141342
960.941	0.0140000
961.019	0.0139931
961.097	0.0139252
961.175	0.0139285
961.253	0.0139433
961.331	0.0139903
961.410	0.0140083
961.488	0.0140228
961.566	0.0141756
961.644	0.0140715
961.722	0.0139688
961.800	0.0140250
961.878	0.0140024
961.956	0.0139649
962.035	0.0139848
962.113	0.0141598
962.191	0.0140850
962.269	0.0141261
962.347	0.0140034
962.425	0.0140218
962.503	0.0140555
962.581	0.0141119
962.660	0.0140722
962.738	0.0141576
962.816	0.0142325
962.894	0.0140591
962.972	0.0140556
963.050	0.0140292
963.128	0.0141570
963.206	0.0142023
963.285	0.0142313
963.363	0.0140897
963.441	0.0141599
963.519	0.0142790
963.597	0.0141467
963.675	0.0142138
963.753	0.0142168
963.831	0.0142413
963.910	0.0140398
963.988	0.0140912
964.066	0.0141623
964.144	0.0143195
964.222	0.0143011
964.300	0.0141512
964.378	0.0141603
964.456	0.0141910
964.535	0.0143712
964.613	0.0143819
964.691	0.0142370
964.769	0.0142298
964.847	0.0142133
964.925	0.0142770
965.003	0.0142664
965.081	0.0141125
965.160	0.0142078
965.238	0.0142584
965.316	0.0141757
965.394	0.0141505
965.472	0.0140937
965.550	0.0142189
965.628	0.0140973
965.706	0.0141524
965.785	0.0142633
965.863	0.0140137
965.941	0.0141805
966.019	0.0142137
966.097	0.0141056
966.175	0.0140625
966.253	0.0140492
966.331	0.0141347
966.410	0.0140489
966.488	0.0139912
966.566	0.0140475
966.644	0.0139087
966.722	0.0141216
966.800	0.0139394
966.878	0.0139202
966.956	0.0140587
967.035	0.0141297
967.113	0.0140077
967.191	0.0141501
967.269	0.0140842
967.347	0.0141317
967.425	0.0140707
967.503	0.0140823
967.581	0.0140971
967.660	0.0141582
967.738	0.0141363
967.816	0.0140419
967.894	0.0140977
967.972	0.0141382
968.050	0.0141818
968.128	0.0140302
968.206	0.0140611
968.285	0.0141300
968.363	0.0141418
968.441	0.0140623
968.519	0.0140619
968.597	0.0142865
968.675	0.0142271
968.753	0.0140204
968.831	0.0141164
968.910	0.0141270
968.988	0.0141499
969.066	0.0142181
969.144	0.0141465
969.222	0.0140809
969.300	0.0141621
969.378	0.0141011
969.456	0.0139706
969.535	0.0141321
969.613	0.0142570
969.691	0.0141225
969.769	0.0140102
969.847	0.0140522
969.925	0.0141829
970.003	0.0141505
970.081	0.0141472
970.160	0.0139349
970.238	0.0142305
970.316	0.0141911
970.394	0.0140538
970.472	0.0140775
970.550	0.0140981
970.628	0.0140618
970.706	0.0142114
970.785	0.0141476
970.863	0.0141258
970.941	0.0141192
971.019	0.0140325
971.097	0.0142281
971.175	0.0141289
971.253	0.0141444
971.331	0.0141111
971.410	0.0140151
971.488	0.0141325
971.566	0.0141064
971.644	0.0141150
971.722	0.0140481
971.800	0.0141066
971.878	0.0140752
971.956	0.0141504
972.035	0.0141682
972.113	0.0140064
972.191	0.0139161
972.269	0.0139294
972.347	0.0141244
972.425	0.0140901
972.503	0.0140561
972.581	0.0141350
972.660	0.0141036
972.738	0.0139877
972.816	0.0140589
972.894	0.0141568
972.972	0.0140585
973.050	0.0140531
973.128	0.0140003
973.206	0.0139584
973.285	0.0141201
973.363	0.0140852
973.441	0.0139565
973.519	0.0140592
973.597	0.0140412
973.675	0.0138866
973.753	0.0140749
973.831	0.0140649
973.910	0.0139865
973.988	0.0139488
974.066	0.0139589
974.144	0.0138512
974.222	0.0138790
974.300	0.0140403
974.378	0.0140128
974.456	0.0140147
974.535	0.0140193
974.613	0.0139741
974.691	0.0139840
974.769	0.0139800
974.847	0.0140902
974.925	0.0140771
975.003	0.0139886
975.081	0.0142618
975.160	0.0142178
975.238	0.0141369
975.316	0.0141714
975.394	0.0141584
975.472	0.0140418
975.550	0.0141210
975.628	0.0141341
975.706	0.0142155
975.785	0.0141362
975.863	0.0141525
975.941	0.0141682
976.019	0.0140301
976.097	0.0141698
976.175	0.0141465
976.253	0.0141748
976.331	0.0140739
976.410	0.0141296
976.488	0.0141615
976.566	0.0142815
976.644	0.0141285
976.722	0.0139977
976.800	0.0139983
976.878	0.0140511
976.956	0.0139941
977.035	0.0139853
977.113	0.0141110
977.191	0.0141384
977.269	0.0140094
977.347	0.0142381
977.425	0.0142065
977.503	0.0141336
977.581	0.0141378
977.660	0.0142182
977.738	0.0141322
977.816	0.0140601
977.894	0.0140765
977.972	0.0141911
978.050	0.0142622
978.128	0.0142245
978.206	0.0141802
978.285	0.0142201
978.363	0.0141674
978.441	0.0143860
978.519	0.0143703
978.597	0.0141375
978.675	0.0142790
978.753	0.0143964
978.831	0.0143304
978.910	0.0142620
978.988	0.0142043
979.066	0.0142299
979.144	0.0142209
979.222	0.0142267
979.300	0.0141650
979.378	0.0141844
979.456	0.0141684
979.535	0.0142594
979.613	0.0141102
979.691	0.0142471
979.769	0.0141109
979.847	0.0142022
979.925	0.0140296
