05/03/2022	20:47:13	Ver.	4.1	UNKNOWN
Optical Delay	660.003261	Delta X		0.078125	Sweeps	1	Scan Rate	0/0
Coordinates	Axis 1	NaN	Axis 2	NaN	Axis 3	NaN	Axis 4	NaN	Axis 5	NaN	Axis 6	0.000000
TX Power	0.000000	RX Power	0.000000

660.003	0.0142573
660.081	0.0142844
660.160	0.0143019
660.238	0.0143551
660.316	0.0142283
660.394	0.0143308
660.472	0.0142886
660.550	0.0143571
660.628	0.0142444
660.706	0.0144015
660.785	0.0144415
660.863	0.0143249
660.941	0.0143615
661.019	0.0143861
661.097	0.0142201
661.175	0.0143665
661.253	0.0143384
661.331	0.0142103
661.410	0.0143139
661.488	0.0143176
661.566	0.0143449
661.644	0.0144013
661.722	0.0145195
661.800	0.0145356
661.878	0.0142921
661.956	0.0142792
662.035	0.0143102
662.113	0.0142810
662.191	0.0143266
662.269	0.0144143
662.347	0.0144090
662.425	0.0143472
662.503	0.0144234
662.581	0.0143757
662.660	0.0144763
662.738	0.0145156
662.816	0.0142742
662.894	0.0144222
662.972	0.0143965
663.050	0.0144507
663.128	0.0144231
663.206	0.0143921
663.285	0.0143794
663.363	0.0142105
663.441	0.0143985
663.519	0.0144843
663.597	0.0145039
663.675	0.0143935
663.753	0.0142868
663.831	0.0144479
663.910	0.0143939
663.988	0.0143050
664.066	0.0144144
664.144	0.0144380
664.222	0.0144781
664.300	0.0143407
664.378	0.0143394
664.456	0.0143208
664.535	0.0142980
664.613	0.0143674
664.691	0.0143196
664.769	0.0143156
664.847	0.0144102
664.925	0.0142764
665.003	0.0142323
665.081	0.0143330
665.160	0.0144071
665.238	0.0142902
665.316	0.0142418
665.394	0.0143315
665.472	0.0143788
665.550	0.0143390
665.628	0.0142245
665.706	0.0143264
665.785	0.0143296
665.863	0.0141856
665.941	0.0143678
666.019	0.0143803
666.097	0.0142126
666.175	0.0143093
666.253	0.0142419
666.331	0.0141749
666.410	0.0142451
666.488	0.0143700
666.566	0.0144092
666.644	0.0143054
666.722	0.0142533
666.800	0.0142151
666.878	0.0143222
666.956	0.0143009
667.035	0.0142765
667.113	0.0143294
667.191	0.0142790
667.269	0.0142904
667.347	0.0143207
667.425	0.0144008
667.503	0.0141652
667.581	0.0142702
667.660	0.0142338
667.738	0.0143752
667.816	0.0143030
667.894	0.0143311
667.972	0.0143144
668.050	0.0143544
668.128	0.0142517
668.206	0.0142233
668.285	0.0142377
668.363	0.0143516
668.441	0.0143186
668.519	0.0142889
668.597	0.0142789
668.675	0.0142131
668.753	0.0141651
668.831	0.0144094
668.910	0.0143604
668.988	0.0142950
669.066	0.0142909
669.144	0.0143614
669.222	0.0142525
669.300	0.0142647
669.378	0.0142952
669.456	0.0142268
669.535	0.0143054
669.613	0.0141917
669.691	0.0142836
669.769	0.0142871
669.847	0.0143438
669.925	0.0142672
670.003	0.0142277
670.081	0.0141261
670.160	0.0143668
670.238	0.0143354
670.316	0.0143706
670.394	0.0142951
670.472	0.0142663
670.550	0.0143199
670.628	0.0143629
670.706	0.0143383
670.785	0.0143391
670.863	0.0142389
670.941	0.0144209
671.019	0.0144503
671.097	0.0144337
671.175	0.0143541
671.253	0.0143075
671.331	0.0142182
671.410	0.0144977
671.488	0.0143600
671.566	0.0143103
671.644	0.0142950
671.722	0.0143015
671.800	0.0143711
671.878	0.0144318
671.956	0.0142979
672.035	0.0143887
672.113	0.0142306
672.191	0.0141766
672.269	0.0144485
672.347	0.0142143
672.425	0.0142338
672.503	0.0143147
672.581	0.0142715
672.660	0.0143491
672.738	0.0140282
672.816	0.0141177
672.894	0.0141805
672.972	0.0142359
673.050	0.0142201
673.128	0.0142385
673.206	0.0142912
673.285	0.0142139
673.363	0.0143587
673.441	0.0142953
673.519	0.0142506
673.597	0.0143223
673.675	0.0143557
673.753	0.0143552
673.831	0.0143781
673.910	0.0144072
673.988	0.0144118
674.066	0.0142844
674.144	0.0143295
674.222	0.0142041
674.300	0.0142406
674.378	0.0142770
674.456	0.0143336
674.535	0.0140508
674.613	0.0142915
674.691	0.0143941
674.769	0.0142706
674.847	0.0142622
674.925	0.0142731
675.003	0.0143506
675.081	0.0143607
675.160	0.0142276
675.238	0.0142722
675.316	0.0142692
675.394	0.0142848
675.472	0.0141637
675.550	0.0141760
675.628	0.0142376
675.706	0.0141642
675.785	0.0142168
675.863	0.0142461
675.941	0.0143253
676.019	0.0141638
676.097	0.0141821
676.175	0.0142420
676.253	0.0142303
676.331	0.0140750
676.410	0.0141464
676.488	0.0142755
676.566	0.0142347
676.644	0.0143234
676.722	0.0141645
676.800	0.0142359
676.878	0.0141188
676.956	0.0141518
677.035	0.0142088
677.113	0.0141135
677.191	0.0140583
677.269	0.0142406
677.347	0.0142783
677.425	0.0143439
677.503	0.0140660
677.581	0.0142492
677.660	0.0142376
677.738	0.0142114
677.816	0.0141274
677.894	0.0142508
677.972	0.0142352
678.050	0.0140904
678.128	0.0141669
678.206	0.0141468
678.285	0.0143109
678.363	0.0142613
678.441	0.0143590
678.519	0.0143829
678.597	0.0142821
678.675	0.0142963
678.753	0.0143963
678.831	0.0142923
678.910	0.0142883
678.988	0.0143208
679.066	0.0142799
679.144	0.0142516
679.222	0.0141390
679.300	0.0143986
679.378	0.0143623
679.456	0.0141925
679.535	0.0143048
679.613	0.0142606
679.691	0.0142834
679.769	0.0142418
679.847	0.0143557
679.925	0.0143171
680.003	0.0142541
680.081	0.0142093
680.160	0.0141022
680.238	0.0142661
680.316	0.0142127
680.394	0.0142624
680.472	0.0143592
680.550	0.0141801
680.628	0.0141591
680.706	0.0143227
680.785	0.0140421
680.863	0.0142267
680.941	0.0142825
681.019	0.0142441
681.097	0.0142630
681.175	0.0140961
681.253	0.0141540
681.331	0.0143018
681.410	0.0142384
681.488	0.0141486
681.566	0.0141024
681.644	0.0140844
681.722	0.0141792
681.800	0.0141774
681.878	0.0141173
681.956	0.0142028
682.035	0.0143263
682.113	0.0142764
682.191	0.0142401
682.269	0.0143790
682.347	0.0143828
682.425	0.0145617
682.503	0.0144305
682.581	0.0145951
682.660	0.0145158
682.738	0.0144467
682.816	0.0143622
682.894	0.0145058
682.972	0.0145332
683.050	0.0145785
683.128	0.0144907
683.206	0.0143256
683.285	0.0144046
683.363	0.0145276
683.441	0.0143811
683.519	0.0145942
683.597	0.0144093
683.675	0.0144669
683.753	0.0144183
683.831	0.0143582
683.910	0.0142538
683.988	0.0142960
684.066	0.0143810
684.144	0.0143850
684.222	0.0143633
684.300	0.0143740
684.378	0.0143632
684.456	0.0143867
684.535	0.0144725
684.613	0.0144109
684.691	0.0143546
684.769	0.0143558
684.847	0.0143990
684.925	0.0143665
685.003	0.0143810
685.081	0.0144316
685.160	0.0144395
685.238	0.0143107
685.316	0.0144163
685.394	0.0144648
685.472	0.0143449
685.550	0.0141822
685.628	0.0143890
685.706	0.0140807
685.785	0.0142146
685.863	0.0142858
685.941	0.0143855
686.019	0.0143777
686.097	0.0142895
686.175	0.0143416
686.253	0.0142376
686.331	0.0141991
686.410	0.0143376
686.488	0.0142609
686.566	0.0142832
686.644	0.0141992
686.722	0.0142513
686.800	0.0142394
686.878	0.0143520
686.956	0.0141187
687.035	0.0142887
687.113	0.0142223
687.191	0.0141634
687.269	0.0142594
687.347	0.0142000
687.425	0.0141374
687.503	0.0141991
687.581	0.0141600
687.660	0.0143019
687.738	0.0141595
687.816	0.0140992
687.894	0.0141612
687.972	0.0143693
688.050	0.0140765
688.128	0.0141634
688.206	0.0142922
688.285	0.0142981
688.363	0.0142582
688.441	0.0143600
688.519	0.0142345
688.597	0.0142921
688.675	0.0143475
688.753	0.0142246
688.831	0.0142226
688.910	0.0142390
688.988	0.0143740
689.066	0.0142425
689.144	0.0141160
689.222	0.0142303
689.300	0.0143208
689.378	0.0142313
689.456	0.0142052
689.535	0.0141045
689.613	0.0142976
689.691	0.0142729
689.769	0.0142625
689.847	0.0144314
689.925	0.0143303
690.003	0.0143571
690.081	0.0144250
690.160	0.0144540
690.238	0.0144142
690.316	0.0143493
690.394	0.0144608
690.472	0.0145247
690.550	0.0144196
690.628	0.0143536
690.706	0.0143625
690.785	0.0142496
690.863	0.0143028
690.941	0.0144643
691.019	0.0144131
691.097	0.0144209
691.175	0.0143306
691.253	0.0144471
691.331	0.0143848
691.410	0.0142991
691.488	0.0143240
691.566	0.0141518
691.644	0.0143011
691.722	0.0142409
691.800	0.0142730
691.878	0.0142054
691.956	0.0143926
692.035	0.0142780
692.113	0.0144204
692.191	0.0142401
692.269	0.0143153
692.347	0.0143067
692.425	0.0143707
692.503	0.0143019
692.581	0.0143387
692.660	0.0141689
692.738	0.0143829
692.816	0.0144285
692.894	0.0141996
692.972	0.0141967
693.050	0.0141344
693.128	0.0141281
693.206	0.0142184
693.285	0.0141501
693.363	0.0143181
693.441	0.0142308
693.519	0.0142500
693.597	0.0142300
693.675	0.0141851
693.753	0.0142218
693.831	0.0141028
693.910	0.0143433
693.988	0.0142700
694.066	0.0142817
694.144	0.0142991
694.222	0.0143177
694.300	0.0142295
694.378	0.0143161
694.456	0.0141693
694.535	0.0142356
694.613	0.0142316
694.691	0.0141519
694.769	0.0141808
694.847	0.0141877
694.925	0.0142889
695.003	0.0142307
695.081	0.0141068
695.160	0.0142889
695.238	0.0141695
695.316	0.0141364
695.394	0.0141576
695.472	0.0140781
695.550	0.0140405
695.628	0.0142155
695.706	0.0142537
695.785	0.0141309
695.863	0.0142488
695.941	0.0140640
696.019	0.0141273
696.097	0.0142633
696.175	0.0142751
696.253	0.0141451
696.331	0.0143258
696.410	0.0144011
696.488	0.0143020
696.566	0.0142752
696.644	0.0142576
696.722	0.0142416
696.800	0.0141994
696.878	0.0141213
696.956	0.0142932
697.035	0.0141866
697.113	0.0140794
697.191	0.0141537
697.269	0.0143295
697.347	0.0142762
697.425	0.0142392
697.503	0.0141175
697.581	0.0142933
697.660	0.0142103
697.738	0.0142918
697.816	0.0142279
697.894	0.0143131
697.972	0.0141278
698.050	0.0141415
698.128	0.0141491
698.206	0.0141776
698.285	0.0143437
698.363	0.0143036
698.441	0.0142271
698.519	0.0142741
698.597	0.0142889
698.675	0.0143635
698.753	0.0143362
698.831	0.0143217
698.910	0.0143217
698.988	0.0142538
699.066	0.0142716
699.144	0.0141489
699.222	0.0141668
699.300	0.0143025
699.378	0.0140619
699.456	0.0141881
699.535	0.0143748
699.613	0.0140976
699.691	0.0142537
699.769	0.0141821
699.847	0.0142269
699.925	0.0142776
700.003	0.0142352
700.081	0.0141046
700.160	0.0140694
700.238	0.0141896
700.316	0.0142278
700.394	0.0142241
700.472	0.0141568
700.550	0.0142036
700.628	0.0141769
700.706	0.0142781
700.785	0.0142271
700.863	0.0141743
700.941	0.0141367
701.019	0.0142800
701.097	0.0141948
701.175	0.0142056
701.253	0.0142069
701.331	0.0141584
701.410	0.0140470
701.488	0.0143397
701.566	0.0141554
701.644	0.0143032
701.722	0.0142622
701.800	0.0141950
701.878	0.0142242
701.956	0.0142297
702.035	0.0143854
702.113	0.0142893
702.191	0.0143484
702.269	0.0143966
702.347	0.0144397
702.425	0.0143089
702.503	0.0143504
702.581	0.0144057
702.660	0.0143162
702.738	0.0143427
702.816	0.0143417
702.894	0.0143178
702.972	0.0143389
703.050	0.0143676
703.128	0.0143329
703.206	0.0142667
703.285	0.0142200
703.363	0.0142795
703.441	0.0142245
703.519	0.0143690
703.597	0.0143133
703.675	0.0143513
703.753	0.0144713
703.831	0.0143575
703.910	0.0143468
703.988	0.0143089
704.066	0.0143348
704.144	0.0143953
704.222	0.0143941
704.300	0.0143327
704.378	0.0145166
704.456	0.0144492
704.535	0.0145390
704.613	0.0144176
704.691	0.0144330
704.769	0.0142596
704.847	0.0143907
704.925	0.0143534
705.003	0.0144241
705.081	0.0144353
705.160	0.0144332
705.238	0.0143736
705.316	0.0143349
705.394	0.0144063
705.472	0.0144032
705.550	0.0143922
705.628	0.0144985
705.706	0.0142664
705.785	0.0142542
705.863	0.0141892
705.941	0.0144092
706.019	0.0144495
706.097	0.0142376
706.175	0.0141392
706.253	0.0142155
706.331	0.0142622
706.410	0.0144157
706.488	0.0142564
706.566	0.0142731
706.644	0.0143238
706.722	0.0145480
706.800	0.0143202
706.878	0.0140981
706.956	0.0142540
707.035	0.0141631
707.113	0.0143185
707.191	0.0143496
707.269	0.0143492
707.347	0.0143240
707.425	0.0142722
707.503	0.0142297
707.581	0.0141341
707.660	0.0143316
707.738	0.0144541
707.816	0.0143507
707.894	0.0142255
707.972	0.0142852
708.050	0.0143996
708.128	0.0143139
708.206	0.0143047
708.285	0.0144034
708.363	0.0143108
708.441	0.0145341
708.519	0.0144555
708.597	0.0144867
708.675	0.0145389
708.753	0.0145486
708.831	0.0145346
708.910	0.0145254
708.988	0.0144608
709.066	0.0145856
709.144	0.0145017
709.222	0.0146744
709.300	0.0145743
709.378	0.0146785
709.456	0.0145924
709.535	0.0144107
709.613	0.0144656
709.691	0.0144399
709.769	0.0143859
709.847	0.0145266
709.925	0.0144727
710.003	0.0144828
710.081	0.0144810
710.160	0.0145428
710.238	0.0144447
710.316	0.0144671
710.394	0.0144279
710.472	0.0145047
710.550	0.0144821
710.628	0.0145025
710.706	0.0146236
710.785	0.0145364
710.863	0.0144789
710.941	0.0144793
711.019	0.0144621
711.097	0.0144768
711.175	0.0144820
711.253	0.0143752
711.331	0.0144237
711.410	0.0144511
711.488	0.0144086
711.566	0.0143844
711.644	0.0144153
711.722	0.0144730
711.800	0.0145498
711.878	0.0144634
711.956	0.0144216
712.035	0.0144077
712.113	0.0145237
712.191	0.0143976
712.269	0.0145417
712.347	0.0144946
712.425	0.0143035
712.503	0.0142290
712.581	0.0143427
712.660	0.0143659
712.738	0.0141646
712.816	0.0141898
712.894	0.0142851
712.972	0.0142692
713.050	0.0142429
713.128	0.0142767
713.206	0.0142899
713.285	0.0143391
713.363	0.0142878
713.441	0.0143565
713.519	0.0142841
713.597	0.0142622
713.675	0.0142227
713.753	0.0142883
713.831	0.0141981
713.910	0.0144112
713.988	0.0144348
714.066	0.0142523
714.144	0.0141558
714.222	0.0143295
714.300	0.0143347
714.378	0.0141239
714.456	0.0143008
714.535	0.0142245
714.613	0.0142618
714.691	0.0143658
714.769	0.0142780
714.847	0.0142051
714.925	0.0142229
715.003	0.0142977
715.081	0.0142755
715.160	0.0143242
715.238	0.0142802
715.316	0.0143361
715.394	0.0143620
715.472	0.0144406
715.550	0.0142825
715.628	0.0142635
715.706	0.0142955
715.785	0.0143274
715.863	0.0143108
715.941	0.0143153
716.019	0.0143213
716.097	0.0143174
716.175	0.0143584
716.253	0.0142535
716.331	0.0141989
716.410	0.0143108
716.488	0.0143202
716.566	0.0143809
716.644	0.0142348
716.722	0.0143050
716.800	0.0142809
716.878	0.0142633
716.956	0.0142139
717.035	0.0141796
717.113	0.0143436
717.191	0.0142815
717.269	0.0141882
717.347	0.0143712
717.425	0.0143264
717.503	0.0141994
717.581	0.0141833
717.660	0.0142277
717.738	0.0143491
717.816	0.0142657
717.894	0.0142937
717.972	0.0142255
718.050	0.0142239
718.128	0.0144554
718.206	0.0141837
718.285	0.0142858
718.363	0.0143083
718.441	0.0143754
718.519	0.0142758
718.597	0.0142021
718.675	0.0144800
718.753	0.0142300
718.831	0.0143572
718.910	0.0142917
718.988	0.0143140
719.066	0.0143608
719.144	0.0141289
719.222	0.0143044
719.300	0.0143507
719.378	0.0143499
719.456	0.0143640
719.535	0.0141584
719.613	0.0141001
719.691	0.0142632
719.769	0.0141692
719.847	0.0142913
719.925	0.0142715
720.003	0.0142565
720.081	0.0143028
720.160	0.0143978
720.238	0.0143359
720.316	0.0143318
720.394	0.0143684
720.472	0.0143121
720.550	0.0141947
720.628	0.0144273
720.706	0.0144852
720.785	0.0142859
720.863	0.0141286
720.941	0.0143935
721.019	0.0142884
721.097	0.0141122
721.175	0.0143496
721.253	0.0143729
721.331	0.0142811
721.410	0.0142622
721.488	0.0142013
721.566	0.0141901
721.644	0.0142100
721.722	0.0142653
721.800	0.0143361
721.878	0.0143958
721.956	0.0144506
722.035	0.0144090
722.113	0.0143146
722.191	0.0144582
722.269	0.0143208
722.347	0.0142539
722.425	0.0143642
722.503	0.0144451
722.581	0.0143968
722.660	0.0144510
722.738	0.0145427
722.816	0.0145302
722.894	0.0143618
722.972	0.0142487
723.050	0.0143600
723.128	0.0144183
723.206	0.0143647
723.285	0.0142876
723.363	0.0143549
723.441	0.0143761
723.519	0.0143374
723.597	0.0142844
723.675	0.0143092
723.753	0.0142706
723.831	0.0143287
723.910	0.0142175
723.988	0.0142910
724.066	0.0143666
724.144	0.0143375
724.222	0.0142941
724.300	0.0143586
724.378	0.0144153
724.456	0.0143390
724.535	0.0141421
724.613	0.0141416
724.691	0.0142708
724.769	0.0143937
724.847	0.0144342
724.925	0.0142685
725.003	0.0142834
725.081	0.0141804
725.160	0.0143064
725.238	0.0142899
725.316	0.0141663
725.394	0.0140977
725.472	0.0142606
725.550	0.0143996
725.628	0.0142600
725.706	0.0142970
725.785	0.0144200
725.863	0.0142249
725.941	0.0143045
726.019	0.0143369
726.097	0.0143666
726.175	0.0141920
726.253	0.0143159
726.331	0.0143176
726.410	0.0143223
726.488	0.0143246
726.566	0.0142944
726.644	0.0143009
726.722	0.0142268
726.800	0.0143086
726.878	0.0142984
726.956	0.0141953
727.035	0.0143102
727.113	0.0142801
727.191	0.0142901
727.269	0.0142603
727.347	0.0141934
727.425	0.0143962
727.503	0.0145585
727.581	0.0143305
727.660	0.0142517
727.738	0.0142603
727.816	0.0143542
727.894	0.0142494
727.972	0.0142205
728.050	0.0142458
728.128	0.0143359
728.206	0.0142854
728.285	0.0142956
728.363	0.0143183
728.441	0.0142533
728.519	0.0142542
728.597	0.0144606
728.675	0.0142677
728.753	0.0142551
728.831	0.0143600
728.910	0.0143185
728.988	0.0143018
729.066	0.0144429
729.144	0.0143328
729.222	0.0142262
729.300	0.0143969
729.378	0.0144170
729.456	0.0143279
729.535	0.0143732
729.613	0.0144812
729.691	0.0143594
729.769	0.0143304
729.847	0.0144035
729.925	0.0143281
730.003	0.0143219
730.081	0.0144965
730.160	0.0143629
730.238	0.0144713
730.316	0.0145084
730.394	0.0143873
730.472	0.0144379
730.550	0.0143253
730.628	0.0142346
730.706	0.0143570
730.785	0.0143624
730.863	0.0142490
730.941	0.0142712
731.019	0.0143671
731.097	0.0143347
731.175	0.0143674
731.253	0.0143382
731.331	0.0142967
731.410	0.0142995
731.488	0.0144243
731.566	0.0143044
731.644	0.0142400
731.722	0.0145007
731.800	0.0143659
731.878	0.0143225
731.956	0.0143246
732.035	0.0142137
732.113	0.0143420
732.191	0.0142294
732.269	0.0143156
732.347	0.0143445
732.425	0.0143045
732.503	0.0143951
732.581	0.0143005
732.660	0.0143107
732.738	0.0143902
732.816	0.0142971
732.894	0.0144449
732.972	0.0142957
733.050	0.0143066
733.128	0.0142532
733.206	0.0142739
733.285	0.0142391
733.363	0.0142571
733.441	0.0143611
733.519	0.0142667
733.597	0.0143430
733.675	0.0143665
733.753	0.0143719
733.831	0.0143154
733.910	0.0141421
733.988	0.0143323
734.066	0.0141792
734.144	0.0142554
734.222	0.0144930
734.300	0.0144607
734.378	0.0142374
734.456	0.0142488
734.535	0.0142503
734.613	0.0142915
734.691	0.0142177
734.769	0.0143153
734.847	0.0143330
734.925	0.0143378
735.003	0.0144518
735.081	0.0143969
735.160	0.0142521
735.238	0.0142823
735.316	0.0143398
735.394	0.0142542
735.472	0.0142639
735.550	0.0143592
735.628	0.0143241
735.706	0.0144792
735.785	0.0143958
735.863	0.0143906
735.941	0.0144341
736.019	0.0143410
736.097	0.0143247
736.175	0.0144785
736.253	0.0145480
736.331	0.0142459
736.410	0.0145355
736.488	0.0144949
736.566	0.0145338
736.644	0.0143231
736.722	0.0145174
736.800	0.0144865
736.878	0.0145515
736.956	0.0144204
737.035	0.0143731
737.113	0.0144249
737.191	0.0144408
737.269	0.0143548
737.347	0.0144730
737.425	0.0144103
737.503	0.0143089
737.581	0.0143449
737.660	0.0144163
737.738	0.0143315
737.816	0.0144600
737.894	0.0145306
737.972	0.0145560
738.050	0.0144264
738.128	0.0143353
738.206	0.0144925
738.285	0.0144144
738.363	0.0143598
738.441	0.0143881
738.519	0.0145055
738.597	0.0144040
738.675	0.0143681
738.753	0.0144137
738.831	0.0145069
738.910	0.0143462
738.988	0.0142915
739.066	0.0143670
739.144	0.0143583
739.222	0.0143741
739.300	0.0144286
739.378	0.0144632
739.456	0.0143926
739.535	0.0145244
739.613	0.0144500
739.691	0.0145412
739.769	0.0143761
739.847	0.0144438
739.925	0.0144506
740.003	0.0144661
740.081	0.0145604
740.160	0.0143695
740.238	0.0142930
740.316	0.0143070
740.394	0.0144735
740.472	0.0144768
740.550	0.0145043
740.628	0.0144521
740.706	0.0143868
740.785	0.0143500
740.863	0.0143122
740.941	0.0144095
741.019	0.0143925
741.097	0.0143182
741.175	0.0142737
741.253	0.0143532
741.331	0.0143813
741.410	0.0143353
741.488	0.0144126
741.566	0.0144379
741.644	0.0143719
741.722	0.0143128
741.800	0.0143049
741.878	0.0143223
741.956	0.0143499
742.035	0.0143092
742.113	0.0143887
742.191	0.0143090
742.269	0.0142133
742.347	0.0142979
742.425	0.0143584
742.503	0.0143007
742.581	0.0141705
742.660	0.0143140
742.738	0.0143650
742.816	0.0143833
742.894	0.0142365
742.972	0.0143202
743.050	0.0143739
743.128	0.0142684
743.206	0.0144046
743.285	0.0143092
743.363	0.0144125
743.441	0.0143991
743.519	0.0144169
743.597	0.0143625
743.675	0.0142698
743.753	0.0144746
743.831	0.0144916
743.910	0.0143861
743.988	0.0142995
744.066	0.0144190
744.144	0.0143508
744.222	0.0144376
744.300	0.0145418
744.378	0.0143215
744.456	0.0144186
744.535	0.0144311
744.613	0.0144560
744.691	0.0144566
744.769	0.0144292
744.847	0.0143571
744.925	0.0143310
745.003	0.0142835
745.081	0.0144414
745.160	0.0144041
745.238	0.0143372
745.316	0.0142950
745.394	0.0142950
745.472	0.0142915
745.550	0.0143146
745.628	0.0142139
745.706	0.0142561
745.785	0.0142996
745.863	0.0143242
745.941	0.0143375
746.019	0.0143373
746.097	0.0143057
746.175	0.0142630
746.253	0.0143024
746.331	0.0142981
746.410	0.0142139
746.488	0.0144476
746.566	0.0144537
746.644	0.0142778
746.722	0.0143163
746.800	0.0143417
746.878	0.0143151
746.956	0.0142924
747.035	0.0141927
747.113	0.0142181
747.191	0.0142689
747.269	0.0141659
747.347	0.0143045
747.425	0.0142675
747.503	0.0143065
747.581	0.0143782
747.660	0.0142779
747.738	0.0143547
747.816	0.0142197
747.894	0.0142692
747.972	0.0142426
748.050	0.0142169
748.128	0.0142699
748.206	0.0143415
748.285	0.0142936
748.363	0.0142009
748.441	0.0143566
748.519	0.0142891
748.597	0.0141239
748.675	0.0142258
748.753	0.0142839
748.831	0.0143781
748.910	0.0142818
748.988	0.0141617
749.066	0.0141486
749.144	0.0141687
749.222	0.0142418
749.300	0.0142085
749.378	0.0141322
749.456	0.0141634
749.535	0.0142776
749.613	0.0142271
749.691	0.0141611
749.769	0.0143095
749.847	0.0142158
749.925	0.0142705
750.003	0.0142783
750.081	0.0142587
750.160	0.0142792
750.238	0.0142773
750.316	0.0142667
750.394	0.0144056
750.472	0.0143352
750.550	0.0142098
750.628	0.0143394
750.706	0.0143553
750.785	0.0143697
750.863	0.0143271
750.941	0.0143303
751.019	0.0143951
751.097	0.0145651
751.175	0.0144573
751.253	0.0145491
751.331	0.0143686
751.410	0.0142582
751.488	0.0142868
751.566	0.0144617
751.644	0.0144898
751.722	0.0144198
751.800	0.0143970
751.878	0.0143359
751.956	0.0143679
752.035	0.0142906
752.113	0.0141966
752.191	0.0143478
752.269	0.0142600
752.347	0.0142054
752.425	0.0141721
752.503	0.0143423
752.581	0.0143085
752.660	0.0142231
752.738	0.0140632
752.816	0.0142507
752.894	0.0141993
752.972	0.0142631
753.050	0.0143024
753.128	0.0142137
753.206	0.0140534
753.285	0.0142889
753.363	0.0142049
753.441	0.0141991
753.519	0.0141985
753.597	0.0143559
753.675	0.0143390
753.753	0.0142480
753.831	0.0141739
753.910	0.0142123
753.988	0.0142001
754.066	0.0141888
754.144	0.0141689
754.222	0.0141052
754.300	0.0141087
754.378	0.0142410
754.456	0.0142528
754.535	0.0142550
754.613	0.0140546
754.691	0.0140425
754.769	0.0141306
754.847	0.0142603
754.925	0.0141939
755.003	0.0140676
755.081	0.0140450
755.160	0.0140891
755.238	0.0141582
755.316	0.0142091
755.394	0.0140063
755.472	0.0141139
755.550	0.0142123
755.628	0.0140044
755.706	0.0140530
755.785	0.0140520
755.863	0.0140994
755.941	0.0141630
756.019	0.0141070
756.097	0.0140865
756.175	0.0141325
756.253	0.0141294
756.331	0.0140314
756.410	0.0140380
756.488	0.0141087
756.566	0.0142243
756.644	0.0140541
756.722	0.0141171
756.800	0.0141341
756.878	0.0141141
756.956	0.0141931
757.035	0.0142262
757.113	0.0140905
757.191	0.0141827
757.269	0.0141954
757.347	0.0141548
757.425	0.0143103
757.503	0.0141768
757.581	0.0142553
757.660	0.0143024
757.738	0.0143627
757.816	0.0143578
757.894	0.0143330
757.972	0.0143787
758.050	0.0143150
758.128	0.0142327
758.206	0.0143784
758.285	0.0143333
758.363	0.0144154
758.441	0.0143015
758.519	0.0143521
758.597	0.0144740
758.675	0.0144231
758.753	0.0144141
758.831	0.0144540
758.910	0.0145052
758.988	0.0144825
759.066	0.0144046
759.144	0.0144763
759.222	0.0143063
759.300	0.0143354
759.378	0.0143545
759.456	0.0144089
759.535	0.0142960
759.613	0.0143162
759.691	0.0142887
759.769	0.0142104
759.847	0.0143903
759.925	0.0142932
760.003	0.0142609
760.081	0.0142591
760.160	0.0142016
760.238	0.0142462
760.316	0.0143277
760.394	0.0143037
760.472	0.0143497
760.550	0.0143382
760.628	0.0143347
760.706	0.0142320
760.785	0.0143581
760.863	0.0143077
760.941	0.0144205
761.019	0.0142780
761.097	0.0142358
761.175	0.0141778
761.253	0.0142189
761.331	0.0141927
761.410	0.0144296
761.488	0.0142944
761.566	0.0142918
761.644	0.0143681
761.722	0.0144241
761.800	0.0142748
761.878	0.0141728
761.956	0.0141920
762.035	0.0143681
762.113	0.0142277
762.191	0.0142124
762.269	0.0143865
762.347	0.0143990
762.425	0.0142847
762.503	0.0143294
762.581	0.0142825
762.660	0.0141875
762.738	0.0142635
762.816	0.0144035
762.894	0.0144041
762.972	0.0143137
763.050	0.0143144
763.128	0.0143258
763.206	0.0142783
763.285	0.0142872
763.363	0.0142972
763.441	0.0143217
763.519	0.0143970
763.597	0.0143908
763.675	0.0143388
763.753	0.0144191
763.831	0.0144042
763.910	0.0142180
763.988	0.0142984
764.066	0.0142319
764.144	0.0144390
764.222	0.0143243
764.300	0.0143043
764.378	0.0143517
764.456	0.0143256
764.535	0.0143455
764.613	0.0144857
764.691	0.0143971
764.769	0.0143443
764.847	0.0143075
764.925	0.0144038
765.003	0.0144459
765.081	0.0144348
765.160	0.0145580
765.238	0.0146071
765.316	0.0146256
765.394	0.0144973
765.472	0.0146688
765.550	0.0146706
765.628	0.0147586
765.706	0.0144285
765.785	0.0145900
765.863	0.0146082
765.941	0.0144835
766.019	0.0144366
766.097	0.0144386
766.175	0.0144923
766.253	0.0145018
766.331	0.0144494
766.410	0.0145456
766.488	0.0144778
766.566	0.0144777
766.644	0.0145213
766.722	0.0144871
766.800	0.0144508
766.878	0.0143873
766.956	0.0142962
767.035	0.0144411
767.113	0.0144237
767.191	0.0144561
767.269	0.0143336
767.347	0.0143967
767.425	0.0143577
767.503	0.0143275
767.581	0.0144166
767.660	0.0144015
767.738	0.0143233
767.816	0.0142571
767.894	0.0143511
767.972	0.0144873
768.050	0.0144055
768.128	0.0142673
768.206	0.0143658
768.285	0.0143956
768.363	0.0143798
768.441	0.0142352
768.519	0.0142300
768.597	0.0141627
768.675	0.0141445
768.753	0.0140856
768.831	0.0141344
768.910	0.0140309
768.988	0.0141560
769.066	0.0141136
769.144	0.0140048
769.222	0.0140804
769.300	0.0142695
769.378	0.0141372
769.456	0.0140596
769.535	0.0140005
769.613	0.0141155
769.691	0.0142094
769.769	0.0142330
769.847	0.0142536
769.925	0.0140796
770.003	0.0140919
770.081	0.0141500
770.160	0.0142562
770.238	0.0142144
770.316	0.0142147
770.394	0.0140411
770.472	0.0141008
770.550	0.0142367
770.628	0.0141044
770.706	0.0142062
770.785	0.0141012
770.863	0.0142867
770.941	0.0140638
771.019	0.0140851
771.097	0.0140924
771.175	0.0140951
771.253	0.0141538
771.331	0.0142755
771.410	0.0141872
771.488	0.0141031
771.566	0.0143091
771.644	0.0142100
771.722	0.0141214
771.800	0.0141346
771.878	0.0144354
771.956	0.0142802
772.035	0.0142180
772.113	0.0144221
772.191	0.0141803
772.269	0.0142883
772.347	0.0143856
772.425	0.0142104
772.503	0.0143964
772.581	0.0143445
772.660	0.0142907
772.738	0.0143807
772.816	0.0141900
772.894	0.0143813
772.972	0.0144039
773.050	0.0143382
773.128	0.0143707
773.206	0.0145019
773.285	0.0144185
773.363	0.0144499
773.441	0.0144032
773.519	0.0143781
773.597	0.0143407
773.675	0.0142747
773.753	0.0142040
773.831	0.0143600
773.910	0.0144099
773.988	0.0143440
774.066	0.0144146
774.144	0.0142499
774.222	0.0142938
774.300	0.0141898
774.378	0.0142414
774.456	0.0143231
774.535	0.0143034
774.613	0.0143037
774.691	0.0143104
774.769	0.0143141
774.847	0.0142151
774.925	0.0142994
775.003	0.0143843
775.081	0.0143191
775.160	0.0142714
775.238	0.0143178
775.316	0.0143480
775.394	0.0143667
775.472	0.0142302
775.550	0.0142368
775.628	0.0143849
775.706	0.0143233
775.785	0.0142397
775.863	0.0141679
775.941	0.0141921
776.019	0.0144007
776.097	0.0143157
776.175	0.0142805
776.253	0.0140974
776.331	0.0140997
776.410	0.0141283
776.488	0.0143256
776.566	0.0142662
776.644	0.0140536
776.722	0.0142674
776.800	0.0143094
776.878	0.0141903
776.956	0.0143209
777.035	0.0142858
777.113	0.0142863
777.191	0.0142361
777.269	0.0141063
777.347	0.0141829
777.425	0.0142348
777.503	0.0141883
777.581	0.0141628
777.660	0.0142384
777.738	0.0142207
777.816	0.0142135
777.894	0.0141078
777.972	0.0141397
778.050	0.0142514
778.128	0.0142699
778.206	0.0141856
778.285	0.0142580
778.363	0.0142850
778.441	0.0141101
778.519	0.0141185
778.597	0.0142477
778.675	0.0142755
778.753	0.0140808
778.831	0.0142667
778.910	0.0142433
778.988	0.0142171
779.066	0.0143299
779.144	0.0143715
779.222	0.0143171
779.300	0.0142543
779.378	0.0142713
779.456	0.0143473
779.535	0.0143100
779.613	0.0142389
779.691	0.0142687
779.769	0.0145189
779.847	0.0144054
779.925	0.0143640
780.003	0.0144460
780.081	0.0143447
780.160	0.0145644
780.238	0.0144289
780.316	0.0144042
780.394	0.0144073
780.472	0.0143627
780.550	0.0144183
780.628	0.0143842
780.706	0.0144740
780.785	0.0143513
780.863	0.0144128
780.941	0.0143452
781.019	0.0142442
781.097	0.0143292
781.175	0.0144418
781.253	0.0143835
781.331	0.0143110
781.410	0.0142663
781.488	0.0143086
781.566	0.0142762
781.644	0.0143777
781.722	0.0142399
781.800	0.0143586
781.878	0.0142849
781.956	0.0142288
782.035	0.0143130
782.113	0.0143037
782.191	0.0141832
782.269	0.0143221
782.347	0.0143109
782.425	0.0142706
782.503	0.0142761
782.581	0.0141933
782.660	0.0142100
782.738	0.0142564
782.816	0.0142118
782.894	0.0142664
782.972	0.0142477
783.050	0.0142342
783.128	0.0141772
783.206	0.0142395
783.285	0.0140606
783.363	0.0141315
783.441	0.0141092
783.519	0.0140638
783.597	0.0141898
783.675	0.0141601
783.753	0.0141627
783.831	0.0141635
783.910	0.0141444
783.988	0.0142317
784.066	0.0140772
784.144	0.0141147
784.222	0.0141633
784.300	0.0140578
784.378	0.0142338
784.456	0.0140894
784.535	0.0140625
784.613	0.0141467
784.691	0.0140625
784.769	0.0141094
784.847	0.0140742
784.925	0.0140671
785.003	0.0140678
785.081	0.0140279
785.160	0.0141740
785.238	0.0141400
785.316	0.0142577
785.394	0.0140812
785.472	0.0140279
785.550	0.0141525
785.628	0.0141719
785.706	0.0142674
785.785	0.0141167
785.863	0.0141280
785.941	0.0141071
786.019	0.0141438
786.097	0.0141265
786.175	0.0142587
786.253	0.0141009
786.331	0.0141300
786.410	0.0143208
786.488	0.0142883
786.566	0.0143722
786.644	0.0143665
786.722	0.0143227
786.800	0.0143469
786.878	0.0142338
786.956	0.0143214
787.035	0.0143047
787.113	0.0143131
787.191	0.0144092
787.269	0.0144492
787.347	0.0144671
787.425	0.0143700
787.503	0.0143201
787.581	0.0144302
787.660	0.0144626
787.738	0.0144797
787.816	0.0143163
787.894	0.0143661
787.972	0.0143779
788.050	0.0145147
788.128	0.0144444
788.206	0.0143940
788.285	0.0143359
788.363	0.0142934
788.441	0.0143760
788.519	0.0143185
788.597	0.0144415
788.675	0.0143340
788.753	0.0141434
788.831	0.0142839
788.910	0.0141871
788.988	0.0143108
789.066	0.0143232
789.144	0.0142875
789.222	0.0142907
789.300	0.0141940
789.378	0.0142834
789.456	0.0142222
789.535	0.0142612
789.613	0.0142288
789.691	0.0143343
789.769	0.0142717
789.847	0.0141906
789.925	0.0142638
790.003	0.0142640
790.081	0.0142425
790.160	0.0141367
790.238	0.0141640
790.316	0.0141942
790.394	0.0142123
790.472	0.0141894
790.550	0.0141546
790.628	0.0141558
790.706	0.0142611
790.785	0.0142007
790.863	0.0141591
790.941	0.0141528
791.019	0.0142680
791.097	0.0143340
791.175	0.0142967
791.253	0.0141958
791.331	0.0141889
791.410	0.0141744
791.488	0.0143357
791.566	0.0142445
791.644	0.0142226
791.722	0.0141319
791.800	0.0143074
791.878	0.0142406
791.956	0.0142052
792.035	0.0143505
792.113	0.0142126
792.191	0.0142806
792.269	0.0142210
792.347	0.0143089
792.425	0.0143500
792.503	0.0142724
792.581	0.0144004
792.660	0.0141949
792.738	0.0142131
792.816	0.0143099
792.894	0.0142159
792.972	0.0143070
793.050	0.0142474
793.128	0.0142404
793.206	0.0144114
793.285	0.0143015
793.363	0.0143705
793.441	0.0142812
793.519	0.0142515
793.597	0.0141961
793.675	0.0143240
793.753	0.0143574
793.831	0.0142873
793.910	0.0142080
793.988	0.0145132
794.066	0.0144909
794.144	0.0144831
794.222	0.0144421
794.300	0.0145047
794.378	0.0144965
794.456	0.0144691
794.535	0.0143446
794.613	0.0145966
794.691	0.0144985
794.769	0.0144123
794.847	0.0142893
794.925	0.0144759
795.003	0.0145663
795.081	0.0144225
795.160	0.0142393
795.238	0.0144085
795.316	0.0144450
795.394	0.0143243
795.472	0.0144456
795.550	0.0144330
795.628	0.0143471
795.706	0.0143410
795.785	0.0143292
795.863	0.0141727
795.941	0.0143259
796.019	0.0143031
796.097	0.0142323
796.175	0.0141321
796.253	0.0142918
796.331	0.0142403
796.410	0.0142508
796.488	0.0143282
796.566	0.0142063
796.644	0.0140564
796.722	0.0143032
796.800	0.0143869
796.878	0.0141684
796.956	0.0141227
797.035	0.0140527
797.113	0.0141987
797.191	0.0142530
797.269	0.0141456
797.347	0.0143250
797.425	0.0142170
797.503	0.0142516
797.581	0.0142928
797.660	0.0143100
797.738	0.0142269
797.816	0.0141982
797.894	0.0142262
797.972	0.0142989
798.050	0.0142392
798.128	0.0141634
798.206	0.0142605
798.285	0.0141967
798.363	0.0142880
798.441	0.0143501
798.519	0.0143929
798.597	0.0142422
798.675	0.0142417
798.753	0.0141431
798.831	0.0143034
798.910	0.0144189
798.988	0.0143780
799.066	0.0144115
799.144	0.0142184
799.222	0.0142749
799.300	0.0144089
799.378	0.0143860
799.456	0.0143991
799.535	0.0142216
799.613	0.0143400
799.691	0.0143734
799.769	0.0143252
799.847	0.0143074
799.925	0.0143364
800.003	0.0142952
800.081	0.0143687
800.160	0.0143504
800.238	0.0144635
800.316	0.0143493
800.394	0.0143419
800.472	0.0142860
800.550	0.0143833
800.628	0.0144382
800.706	0.0145153
800.785	0.0145271
800.863	0.0144440
800.941	0.0143713
801.019	0.0144221
801.097	0.0143211
801.175	0.0143889
801.253	0.0145235
801.331	0.0144845
801.410	0.0145229
801.488	0.0144920
801.566	0.0144434
801.644	0.0144107
801.722	0.0144661
801.800	0.0145087
801.878	0.0145162
801.956	0.0144917
802.035	0.0143721
802.113	0.0144748
802.191	0.0144006
802.269	0.0145133
802.347	0.0146001
802.425	0.0145239
802.503	0.0144827
802.581	0.0144597
802.660	0.0144987
802.738	0.0144578
802.816	0.0144377
802.894	0.0144343
802.972	0.0142813
803.050	0.0143855
803.128	0.0143253
803.206	0.0141703
803.285	0.0143185
803.363	0.0143445
803.441	0.0142732
803.519	0.0141136
803.597	0.0141711
803.675	0.0143103
803.753	0.0144010
803.831	0.0142591
803.910	0.0142625
803.988	0.0142648
804.066	0.0142663
804.144	0.0144713
804.222	0.0143363
804.300	0.0142920
804.378	0.0143248
804.456	0.0142579
804.535	0.0141147
804.613	0.0142303
804.691	0.0142378
804.769	0.0142638
804.847	0.0143150
804.925	0.0141666
805.003	0.0142464
805.081	0.0141577
805.160	0.0142505
805.238	0.0140754
805.316	0.0141158
805.394	0.0142759
805.472	0.0142602
805.550	0.0142485
805.628	0.0141053
805.706	0.0142663
805.785	0.0143456
805.863	0.0141418
805.941	0.0141446
806.019	0.0142136
806.097	0.0142288
806.175	0.0142122
806.253	0.0142168
806.331	0.0141630
806.410	0.0142514
806.488	0.0141821
806.566	0.0142386
806.644	0.0141061
806.722	0.0142860
806.800	0.0142833
806.878	0.0143153
806.956	0.0140803
807.035	0.0142645
807.113	0.0143085
807.191	0.0140398
807.269	0.0142435
807.347	0.0142164
807.425	0.0142896
807.503	0.0141830
807.581	0.0141920
807.660	0.0141148
807.738	0.0140588
807.816	0.0141899
807.894	0.0142509
807.972	0.0141956
808.050	0.0142148
808.128	0.0143084
808.206	0.0143660
808.285	0.0142278
808.363	0.0142351
808.441	0.0141625
808.519	0.0142901
808.597	0.0143044
808.675	0.0141699
808.753	0.0143107
808.831	0.0143214
808.910	0.0141822
808.988	0.0143964
809.066	0.0142361
809.144	0.0142822
809.222	0.0142005
809.300	0.0142474
809.378	0.0143514
809.456	0.0143816
809.535	0.0142807
809.613	0.0142762
809.691	0.0142386
809.769	0.0141604
809.847	0.0143185
809.925	0.0142572
810.003	0.0142622
810.081	0.0142233
810.160	0.0143207
810.238	0.0141286
810.316	0.0141295
810.394	0.0141571
810.472	0.0143382
810.550	0.0141267
810.628	0.0141372
810.706	0.0141243
810.785	0.0141129
810.863	0.0140942
810.941	0.0141545
811.019	0.0141837
811.097	0.0140708
811.175	0.0140219
811.253	0.0141415
811.331	0.0139738
811.410	0.0139826
811.488	0.0141463
811.566	0.0141462
811.644	0.0140976
811.722	0.0140555
811.800	0.0140192
811.878	0.0140362
811.956	0.0141735
812.035	0.0139654
812.113	0.0140575
812.191	0.0140101
812.269	0.0141667
812.347	0.0142508
812.425	0.0142355
812.503	0.0141947
812.581	0.0141888
812.660	0.0143117
812.738	0.0141109
812.816	0.0139954
812.894	0.0142223
812.972	0.0142034
813.050	0.0141879
813.128	0.0142548
813.206	0.0142413
813.285	0.0143034
813.363	0.0143152
813.441	0.0141752
813.519	0.0142752
813.597	0.0141346
813.675	0.0142394
813.753	0.0142034
813.831	0.0143375
813.910	0.0141856
813.988	0.0143185
814.066	0.0143954
814.144	0.0141956
814.222	0.0141839
814.300	0.0144089
814.378	0.0144429
814.456	0.0142089
814.535	0.0142464
814.613	0.0143089
814.691	0.0143978
814.769	0.0143884
814.847	0.0141920
814.925	0.0142617
815.003	0.0143902
815.081	0.0143566
815.160	0.0143783
815.238	0.0143356
815.316	0.0142698
815.394	0.0143361
815.472	0.0143128
815.550	0.0143607
815.628	0.0143150
815.706	0.0144523
815.785	0.0142741
815.863	0.0143045
815.941	0.0144741
816.019	0.0142963
816.097	0.0143504
816.175	0.0144076
816.253	0.0144386
816.331	0.0144531
816.410	0.0143406
816.488	0.0144638
816.566	0.0144789
816.644	0.0143975
816.722	0.0143335
816.800	0.0145795
816.878	0.0143736
816.956	0.0145837
817.035	0.0144398
817.113	0.0144147
817.191	0.0142549
817.269	0.0144112
817.347	0.0144608
817.425	0.0145643
817.503	0.0144305
817.581	0.0142808
817.660	0.0144395
817.738	0.0143085
817.816	0.0144511
817.894	0.0142821
817.972	0.0143818
818.050	0.0143260
818.128	0.0142879
818.206	0.0143623
818.285	0.0143130
818.363	0.0142732
818.441	0.0142620
818.519	0.0142849
818.597	0.0143349
818.675	0.0143397
818.753	0.0143844
818.831	0.0143782
818.910	0.0142587
818.988	0.0144285
819.066	0.0142310
819.144	0.0143343
819.222	0.0143113
819.300	0.0141566
819.378	0.0142752
819.456	0.0143137
819.535	0.0143754
819.613	0.0142793
819.691	0.0142957
819.769	0.0143242
819.847	0.0144125
819.925	0.0143389
820.003	0.0142152
820.081	0.0142214
820.160	0.0144692
820.238	0.0145535
820.316	0.0143828
820.394	0.0143954
820.472	0.0144325
820.550	0.0143859
820.628	0.0143984
820.706	0.0145057
820.785	0.0144336
820.863	0.0144568
820.941	0.0144118
821.019	0.0143055
821.097	0.0143001
821.175	0.0144139
821.253	0.0144807
821.331	0.0143536
821.410	0.0143404
821.488	0.0143603
821.566	0.0143243
821.644	0.0144351
821.722	0.0144632
821.800	0.0145006
821.878	0.0143216
821.956	0.0143247
822.035	0.0145055
822.113	0.0144157
822.191	0.0143433
822.269	0.0143147
822.347	0.0144126
822.425	0.0144392
822.503	0.0142780
822.581	0.0144811
822.660	0.0143826
822.738	0.0143857
822.816	0.0145464
822.894	0.0144420
822.972	0.0143665
823.050	0.0143132
823.128	0.0144391
823.206	0.0143739
823.285	0.0144350
823.363	0.0145313
823.441	0.0145391
823.519	0.0145133
823.597	0.0145883
823.675	0.0145802
823.753	0.0146383
823.831	0.0143753
823.910	0.0143896
823.988	0.0144833
824.066	0.0145399
824.144	0.0145172
824.222	0.0146114
824.300	0.0144897
824.378	0.0145085
824.456	0.0144514
824.535	0.0144147
824.613	0.0144548
824.691	0.0145125
824.769	0.0145259
824.847	0.0144885
824.925	0.0143172
825.003	0.0144952
825.081	0.0143161
825.160	0.0142310
825.238	0.0144173
825.316	0.0144050
825.394	0.0144276
825.472	0.0143502
825.550	0.0144238
825.628	0.0143092
825.706	0.0142588
825.785	0.0142631
825.863	0.0142242
825.941	0.0143826
826.019	0.0142192
826.097	0.0142820
826.175	0.0144228
826.253	0.0142746
826.331	0.0141725
826.410	0.0143958
826.488	0.0142953
826.566	0.0143051
826.644	0.0142169
826.722	0.0142904
826.800	0.0142869
826.878	0.0142421
826.956	0.0142600
827.035	0.0141815
827.113	0.0141988
827.191	0.0141973
827.269	0.0143194
827.347	0.0142744
827.425	0.0142372
827.503	0.0142162
827.581	0.0142958
827.660	0.0140964
827.738	0.0142777
827.816	0.0143772
827.894	0.0142909
827.972	0.0143439
828.050	0.0142982
828.128	0.0141852
828.206	0.0142242
828.285	0.0143048
828.363	0.0143510
828.441	0.0140221
828.519	0.0141573
828.597	0.0143177
828.675	0.0141978
828.753	0.0140775
828.831	0.0141704
828.910	0.0143480
828.988	0.0143487
829.066	0.0143570
829.144	0.0141362
829.222	0.0142096
829.300	0.0142308
829.378	0.0143747
829.456	0.0143365
829.535	0.0142886
829.613	0.0143180
829.691	0.0143213
829.769	0.0143560
829.847	0.0142679
829.925	0.0142020
830.003	0.0142056
830.081	0.0143594
830.160	0.0143336
830.238	0.0143866
830.316	0.0143803
830.394	0.0143987
830.472	0.0142812
830.550	0.0142820
830.628	0.0143900
830.706	0.0143405
830.785	0.0142999
830.863	0.0143619
830.941	0.0143691
831.019	0.0144192
831.097	0.0144563
831.175	0.0145056
831.253	0.0145581
831.331	0.0143246
831.410	0.0143927
831.488	0.0145162
831.566	0.0145088
831.644	0.0144788
831.722	0.0145422
831.800	0.0144825
831.878	0.0145380
831.956	0.0144016
832.035	0.0143338
832.113	0.0145210
832.191	0.0144526
832.269	0.0143945
832.347	0.0144936
832.425	0.0142995
832.503	0.0143900
832.581	0.0144313
832.660	0.0143091
832.738	0.0143166
832.816	0.0142641
832.894	0.0144650
832.972	0.0143773
833.050	0.0143057
833.128	0.0143975
833.206	0.0142904
833.285	0.0143546
833.363	0.0143802
833.441	0.0142915
833.519	0.0143067
833.597	0.0143740
833.675	0.0142790
833.753	0.0143751
833.831	0.0143895
833.910	0.0142958
833.988	0.0143484
834.066	0.0143126
834.144	0.0142788
834.222	0.0142197
834.300	0.0143417
834.378	0.0143047
834.456	0.0142909
834.535	0.0142952
834.613	0.0142950
834.691	0.0143463
834.769	0.0141433
834.847	0.0142531
834.925	0.0143313
835.003	0.0142359
835.081	0.0143114
835.160	0.0143993
835.238	0.0142311
835.316	0.0142871
835.394	0.0142750
835.472	0.0143581
835.550	0.0144517
835.628	0.0141962
835.706	0.0142453
835.785	0.0143159
835.863	0.0143459
835.941	0.0142879
836.019	0.0143782
836.097	0.0143101
836.175	0.0144252
836.253	0.0143856
836.331	0.0143642
836.410	0.0143205
836.488	0.0143366
836.566	0.0141215
836.644	0.0142532
836.722	0.0142768
836.800	0.0142923
836.878	0.0142820
836.956	0.0142445
837.035	0.0142677
837.113	0.0142666
837.191	0.0142707
837.269	0.0142802
837.347	0.0143707
837.425	0.0143667
837.503	0.0142868
837.581	0.0143240
837.660	0.0142583
837.738	0.0143676
837.816	0.0142221
837.894	0.0143780
837.972	0.0145077
838.050	0.0144159
838.128	0.0143956
838.206	0.0144632
838.285	0.0143614
838.363	0.0143710
838.441	0.0144155
838.519	0.0145834
838.597	0.0144673
838.675	0.0145477
838.753	0.0145324
838.831	0.0144179
838.910	0.0144837
838.988	0.0144521
839.066	0.0145034
839.144	0.0143699
839.222	0.0144409
839.300	0.0143535
839.378	0.0143835
839.456	0.0144345
839.535	0.0144309
839.613	0.0143931
839.691	0.0143613
839.769	0.0142577
839.847	0.0142508
839.925	0.0143268
840.003	0.0143356
840.081	0.0142359
840.160	0.0144540
840.238	0.0143796
840.316	0.0145126
840.394	0.0142713
840.472	0.0142285
840.550	0.0142937
840.628	0.0141723
840.706	0.0141916
840.785	0.0142139
840.863	0.0143035
840.941	0.0143536
841.019	0.0143615
841.097	0.0143170
841.175	0.0143211
841.253	0.0144183
841.331	0.0144209
841.410	0.0143748
841.488	0.0144025
841.566	0.0144135
841.644	0.0144586
841.722	0.0143879
841.800	0.0143684
841.878	0.0144051
841.956	0.0143341
842.035	0.0144798
842.113	0.0145493
842.191	0.0143832
842.269	0.0143687
842.347	0.0143916
842.425	0.0144124
842.503	0.0143781
842.581	0.0144688
842.660	0.0144010
842.738	0.0143257
842.816	0.0144446
842.894	0.0143716
842.972	0.0142892
843.050	0.0143960
843.128	0.0144960
843.206	0.0143719
843.285	0.0143924
843.363	0.0143999
843.441	0.0144039
843.519	0.0141776
843.597	0.0143139
843.675	0.0143300
843.753	0.0143835
843.831	0.0143722
843.910	0.0142837
843.988	0.0143096
844.066	0.0142936
844.144	0.0143456
844.222	0.0142299
844.300	0.0144158
844.378	0.0143974
844.456	0.0142023
844.535	0.0142884
844.613	0.0143488
844.691	0.0143227
844.769	0.0144598
844.847	0.0144563
844.925	0.0143768
845.003	0.0143356
845.081	0.0144134
845.160	0.0143133
845.238	0.0143317
845.316	0.0143012
845.394	0.0144299
845.472	0.0145607
845.550	0.0142850
845.628	0.0143336
845.706	0.0145624
845.785	0.0145054
845.863	0.0144706
845.941	0.0144980
846.019	0.0144913
846.097	0.0143356
846.175	0.0143795
846.253	0.0145590
846.331	0.0145453
846.410	0.0146021
846.488	0.0143821
846.566	0.0144364
846.644	0.0143931
846.722	0.0143057
846.800	0.0144248
846.878	0.0142383
846.956	0.0141573
847.035	0.0143197
847.113	0.0143089
847.191	0.0142854
847.269	0.0141788
847.347	0.0141692
847.425	0.0141943
847.503	0.0142414
847.581	0.0141830
847.660	0.0141180
847.738	0.0142345
847.816	0.0142213
847.894	0.0141305
847.972	0.0141783
848.050	0.0142767
848.128	0.0143443
848.206	0.0141106
848.285	0.0143183
848.363	0.0143214
848.441	0.0141737
848.519	0.0142523
848.597	0.0143393
848.675	0.0142844
848.753	0.0143040
848.831	0.0143227
848.910	0.0143682
848.988	0.0141959
849.066	0.0142713
849.144	0.0143809
849.222	0.0142397
849.300	0.0142117
849.378	0.0142851
849.456	0.0142598
849.535	0.0142511
849.613	0.0141684
849.691	0.0143037
849.769	0.0142748
849.847	0.0143958
849.925	0.0142435
850.003	0.0143151
850.081	0.0143307
850.160	0.0142691
850.238	0.0142697
850.316	0.0143647
850.394	0.0143804
850.472	0.0142445
850.550	0.0143909
850.628	0.0143131
850.706	0.0142082
850.785	0.0141861
850.863	0.0143558
850.941	0.0144250
851.019	0.0143860
851.097	0.0142616
851.175	0.0144106
851.253	0.0143485
851.331	0.0144749
851.410	0.0141777
851.488	0.0142828
851.566	0.0142824
851.644	0.0143202
851.722	0.0143294
851.800	0.0144586
851.878	0.0143460
851.956	0.0144238
852.035	0.0143898
852.113	0.0143745
852.191	0.0144018
852.269	0.0143808
852.347	0.0143877
852.425	0.0144999
852.503	0.0144064
852.581	0.0143623
852.660	0.0144265
852.738	0.0144804
852.816	0.0144765
852.894	0.0144605
852.972	0.0143349
853.050	0.0144267
853.128	0.0144830
853.206	0.0145287
853.285	0.0145098
853.363	0.0145227
853.441	0.0144470
853.519	0.0145239
853.597	0.0144077
853.675	0.0143671
853.753	0.0144194
853.831	0.0145626
853.910	0.0144320
853.988	0.0144796
854.066	0.0142212
854.144	0.0142640
854.222	0.0143427
854.300	0.0142755
854.378	0.0142969
854.456	0.0144719
854.535	0.0143904
854.613	0.0143060
854.691	0.0144025
854.769	0.0142636
854.847	0.0143207
854.925	0.0143031
855.003	0.0142182
855.081	0.0143943
855.160	0.0142492
855.238	0.0144090
855.316	0.0144011
855.394	0.0143739
855.472	0.0143049
855.550	0.0143292
855.628	0.0143896
855.706	0.0144352
855.785	0.0143150
855.863	0.0143547
855.941	0.0143139
856.019	0.0142194
856.097	0.0143523
856.175	0.0142507
856.253	0.0143907
856.331	0.0142693
856.410	0.0142276
856.488	0.0141911
856.566	0.0142458
856.644	0.0142162
856.722	0.0141784
856.800	0.0142399
856.878	0.0141140
856.956	0.0141781
857.035	0.0143394
857.113	0.0142203
857.191	0.0141083
857.269	0.0141309
857.347	0.0140511
857.425	0.0142854
857.503	0.0142771
857.581	0.0143410
857.660	0.0141671
857.738	0.0141894
857.816	0.0142641
857.894	0.0142013
857.972	0.0143523
858.050	0.0142474
858.128	0.0142192
858.206	0.0141998
858.285	0.0142253
858.363	0.0143112
858.441	0.0142242
858.519	0.0141953
858.597	0.0142360
858.675	0.0140980
858.753	0.0142518
858.831	0.0141996
858.910	0.0143443
858.988	0.0143282
859.066	0.0143469
859.144	0.0143237
859.222	0.0142647
859.300	0.0141890
859.378	0.0143118
859.456	0.0143956
859.535	0.0143520
859.613	0.0143584
859.691	0.0142896
859.769	0.0143317
859.847	0.0143946
859.925	0.0144208
860.003	0.0144806
860.081	0.0145298
860.160	0.0144836
860.238	0.0145043
860.316	0.0145074
860.394	0.0144598
860.472	0.0145553
860.550	0.0145470
860.628	0.0144289
860.706	0.0143856
860.785	0.0145281
860.863	0.0145298
860.941	0.0146168
861.019	0.0145500
861.097	0.0145009
861.175	0.0144838
861.253	0.0146272
861.331	0.0145580
861.410	0.0145125
861.488	0.0144048
861.566	0.0144041
861.644	0.0145667
861.722	0.0144996
861.800	0.0144734
861.878	0.0145143
861.956	0.0143976
862.035	0.0142381
862.113	0.0144625
862.191	0.0145349
862.269	0.0144440
862.347	0.0143642
862.425	0.0144402
862.503	0.0144162
862.581	0.0143316
862.660	0.0142824
862.738	0.0143254
862.816	0.0144337
862.894	0.0144275
862.972	0.0143119
863.050	0.0143196
863.128	0.0143069
863.206	0.0142432
863.285	0.0143805
863.363	0.0142150
863.441	0.0144070
863.519	0.0143127
863.597	0.0143583
863.675	0.0143326
863.753	0.0143320
863.831	0.0143423
863.910	0.0142129
863.988	0.0143884
864.066	0.0143206
864.144	0.0143512
864.222	0.0142693
864.300	0.0142667
864.378	0.0143415
864.456	0.0141855
864.535	0.0142916
864.613	0.0142065
864.691	0.0141456
864.769	0.0141464
864.847	0.0142352
864.925	0.0143229
865.003	0.0142465
865.081	0.0141953
865.160	0.0143424
865.238	0.0142779
865.316	0.0142182
865.394	0.0142266
865.472	0.0142753
865.550	0.0142005
865.628	0.0142075
865.706	0.0142213
865.785	0.0141851
865.863	0.0141203
865.941	0.0142342
866.019	0.0142260
866.097	0.0142245
866.175	0.0142559
866.253	0.0141718
866.331	0.0142965
866.410	0.0140480
866.488	0.0142098
866.566	0.0142565
866.644	0.0141845
866.722	0.0142805
866.800	0.0141632
866.878	0.0142198
866.956	0.0142558
867.035	0.0143225
867.113	0.0143601
867.191	0.0143604
867.269	0.0142355
867.347	0.0143831
867.425	0.0143327
867.503	0.0143617
867.581	0.0144873
867.660	0.0145094
867.738	0.0145897
867.816	0.0145771
867.894	0.0144783
867.972	0.0145361
868.050	0.0144616
868.128	0.0144874
868.206	0.0145248
868.285	0.0145303
868.363	0.0144991
868.441	0.0145316
868.519	0.0145947
868.597	0.0146037
868.675	0.0144631
868.753	0.0143890
868.831	0.0144228
868.910	0.0145871
868.988	0.0145243
869.066	0.0144616
869.144	0.0145287
869.222	0.0143947
869.300	0.0145561
869.378	0.0144305
869.456	0.0144945
869.535	0.0143702
869.613	0.0144604
869.691	0.0144976
869.769	0.0144127
869.847	0.0145079
869.925	0.0143801
870.003	0.0143591
870.081	0.0143180
870.160	0.0143033
870.238	0.0142296
870.316	0.0142756
870.394	0.0142894
870.472	0.0142755
870.550	0.0142808
870.628	0.0142393
870.706	0.0143607
870.785	0.0141566
870.863	0.0141596
870.941	0.0143090
871.019	0.0142029
871.097	0.0141743
871.175	0.0142210
871.253	0.0142779
871.331	0.0140877
871.410	0.0141700
871.488	0.0141538
871.566	0.0142886
871.644	0.0141585
871.722	0.0141618
871.800	0.0139980
871.878	0.0142542
871.956	0.0143229
872.035	0.0141513
872.113	0.0142104
872.191	0.0142313
872.269	0.0141041
872.347	0.0141170
872.425	0.0142320
872.503	0.0142883
872.581	0.0141808
872.660	0.0141597
872.738	0.0142027
872.816	0.0141777
872.894	0.0141449
872.972	0.0141531
873.050	0.0142223
873.128	0.0140799
873.206	0.0141570
873.285	0.0142772
873.363	0.0141367
873.441	0.0141099
873.519	0.0142286
873.597	0.0141673
873.675	0.0141509
873.753	0.0141503
873.831	0.0141463
873.910	0.0140397
873.988	0.0140752
874.066	0.0141104
874.144	0.0142311
874.222	0.0141390
874.300	0.0140125
874.378	0.0139523
874.456	0.0142132
874.535	0.0141200
874.613	0.0143433
874.691	0.0143341
874.769	0.0142131
874.847	0.0142046
874.925	0.0141990
875.003	0.0141905
875.081	0.0143902
875.160	0.0143100
875.238	0.0143321
875.316	0.0142950
875.394	0.0142270
875.472	0.0143127
875.550	0.0141734
875.628	0.0141785
875.706	0.0143461
875.785	0.0142397
875.863	0.0143691
875.941	0.0141447
876.019	0.0141689
876.097	0.0142126
876.175	0.0143021
876.253	0.0142864
876.331	0.0142651
876.410	0.0142548
876.488	0.0142283
876.566	0.0143696
876.644	0.0142127
876.722	0.0141752
876.800	0.0143340
876.878	0.0141816
876.956	0.0142528
877.035	0.0142194
877.113	0.0142036
877.191	0.0140916
877.269	0.0141643
877.347	0.0141572
877.425	0.0142183
877.503	0.0143489
877.581	0.0139907
877.660	0.0141632
877.738	0.0142130
877.816	0.0141378
877.894	0.0142020
877.972	0.0141673
878.050	0.0140429
878.128	0.0143266
878.206	0.0141976
878.285	0.0141807
878.363	0.0142959
878.441	0.0141735
878.519	0.0140613
878.597	0.0141248
878.675	0.0142770
878.753	0.0141768
878.831	0.0141514
878.910	0.0141958
878.988	0.0141315
879.066	0.0141954
879.144	0.0141568
879.222	0.0143253
879.300	0.0143343
879.378	0.0143068
879.456	0.0142671
879.535	0.0143302
879.613	0.0142244
879.691	0.0142687
879.769	0.0143262
879.847	0.0142787
879.925	0.0143726
880.003	0.0142138
880.081	0.0142120
880.160	0.0143774
880.238	0.0142873
880.316	0.0144394
880.394	0.0143736
880.472	0.0143340
880.550	0.0143777
880.628	0.0142676
880.706	0.0142960
880.785	0.0142959
880.863	0.0143437
880.941	0.0144181
881.019	0.0143401
881.097	0.0142489
881.175	0.0144056
881.253	0.0144128
881.331	0.0144052
881.410	0.0143803
881.488	0.0143421
881.566	0.0144237
881.644	0.0143768
881.722	0.0145023
881.800	0.0144183
881.878	0.0143981
881.956	0.0143340
882.035	0.0145376
882.113	0.0144015
882.191	0.0143188
882.269	0.0145000
882.347	0.0143858
882.425	0.0145020
882.503	0.0145844
882.581	0.0145299
882.660	0.0144233
882.738	0.0144994
882.816	0.0144872
882.894	0.0144205
882.972	0.0144684
883.050	0.0144680
883.128	0.0144151
883.206	0.0143357
883.285	0.0144025
883.363	0.0143366
883.441	0.0144443
883.519	0.0145078
883.597	0.0144083
883.675	0.0144021
883.753	0.0143021
883.831	0.0143353
883.910	0.0143362
883.988	0.0143616
884.066	0.0144352
884.144	0.0143167
884.222	0.0144402
884.300	0.0143877
884.378	0.0141384
884.456	0.0142475
884.535	0.0143179
884.613	0.0143188
884.691	0.0144024
884.769	0.0143182
884.847	0.0143168
884.925	0.0141875
885.003	0.0142548
885.081	0.0142245
885.160	0.0142175
885.238	0.0142374
885.316	0.0141776
885.394	0.0141393
885.472	0.0141555
885.550	0.0143344
885.628	0.0142025
885.706	0.0141180
885.785	0.0141069
885.863	0.0141199
885.941	0.0141031
886.019	0.0141241
886.097	0.0141311
886.175	0.0141570
886.253	0.0141113
886.331	0.0141252
886.410	0.0142223
886.488	0.0140909
886.566	0.0142058
886.644	0.0142435
886.722	0.0142769
886.800	0.0140788
886.878	0.0142132
886.956	0.0142178
887.035	0.0142023
887.113	0.0143080
887.191	0.0142317
887.269	0.0143165
887.347	0.0142158
887.425	0.0143282
887.503	0.0143667
887.581	0.0142406
887.660	0.0143040
887.738	0.0144472
887.816	0.0142745
887.894	0.0142998
887.972	0.0143107
888.050	0.0143028
888.128	0.0143447
888.206	0.0142566
888.285	0.0142633
888.363	0.0144442
888.441	0.0142428
888.519	0.0142796
888.597	0.0142799
888.675	0.0142342
888.753	0.0142863
888.831	0.0142060
888.910	0.0143837
888.988	0.0143145
889.066	0.0144038
889.144	0.0142583
889.222	0.0143682
889.300	0.0142837
889.378	0.0143833
889.456	0.0144602
889.535	0.0142377
889.613	0.0144383
889.691	0.0144560
889.769	0.0143813
889.847	0.0143570
889.925	0.0144276
890.003	0.0142328
890.081	0.0143504
890.160	0.0143336
890.238	0.0142989
890.316	0.0142349
890.394	0.0140977
890.472	0.0142582
890.550	0.0142667
890.628	0.0142194
890.706	0.0141665
890.785	0.0142729
890.863	0.0142587
890.941	0.0142308
891.019	0.0141841
891.097	0.0142851
891.175	0.0141589
891.253	0.0141272
891.331	0.0142938
891.410	0.0141240
891.488	0.0141595
891.566	0.0143386
891.644	0.0140372
891.722	0.0141440
891.800	0.0141907
891.878	0.0142274
891.956	0.0142954
892.035	0.0141950
892.113	0.0142470
892.191	0.0141828
892.269	0.0143321
892.347	0.0141261
892.425	0.0142900
892.503	0.0142446
892.581	0.0141961
892.660	0.0142549
892.738	0.0142525
892.816	0.0142753
892.894	0.0141619
892.972	0.0142872
893.050	0.0143014
893.128	0.0143734
893.206	0.0142683
893.285	0.0142499
893.363	0.0143393
893.441	0.0143285
893.519	0.0143867
893.597	0.0143824
893.675	0.0143855
893.753	0.0143748
893.831	0.0142852
893.910	0.0142934
893.988	0.0144899
894.066	0.0143813
894.144	0.0142970
894.222	0.0145247
894.300	0.0145251
894.378	0.0143577
894.456	0.0143552
894.535	0.0143710
894.613	0.0143108
894.691	0.0144157
894.769	0.0143652
894.847	0.0143388
894.925	0.0143633
895.003	0.0144466
895.081	0.0145280
895.160	0.0143515
895.238	0.0143062
895.316	0.0143853
895.394	0.0143877
895.472	0.0144471
895.550	0.0143871
895.628	0.0144675
895.706	0.0144790
895.785	0.0144232
895.863	0.0141431
895.941	0.0143887
896.019	0.0142946
896.097	0.0144231
896.175	0.0143880
896.253	0.0143970
896.331	0.0143790
896.410	0.0143437
896.488	0.0142890
896.566	0.0142303
896.644	0.0142755
896.722	0.0143655
896.800	0.0143671
896.878	0.0143354
896.956	0.0142709
897.035	0.0143978
897.113	0.0144032
897.191	0.0143330
897.269	0.0143690
897.347	0.0145240
897.425	0.0144431
897.503	0.0143066
897.581	0.0143168
897.660	0.0143843
897.738	0.0143564
897.816	0.0144624
897.894	0.0142980
897.972	0.0142689
898.050	0.0143787
898.128	0.0142816
898.206	0.0143167
898.285	0.0144254
898.363	0.0142005
898.441	0.0143468
898.519	0.0145184
898.597	0.0144269
898.675	0.0142566
898.753	0.0144426
898.831	0.0144819
898.910	0.0145530
898.988	0.0144400
899.066	0.0143240
899.144	0.0143755
899.222	0.0144197
899.300	0.0142532
899.378	0.0143169
899.456	0.0143121
899.535	0.0144083
899.613	0.0143910
899.691	0.0143509
899.769	0.0143497
899.847	0.0143631
899.925	0.0143571
900.003	0.0142643
900.081	0.0141177
900.160	0.0142348
900.238	0.0142281
900.316	0.0142685
900.394	0.0140672
900.472	0.0142611
900.550	0.0141072
900.628	0.0141039
900.706	0.0142141
900.785	0.0141699
900.863	0.0142020
900.941	0.0141531
901.019	0.0141206
901.097	0.0141451
901.175	0.0142715
901.253	0.0141344
901.331	0.0141261
901.410	0.0141061
901.488	0.0141135
901.566	0.0141276
901.644	0.0141573
901.722	0.0142582
901.800	0.0141592
901.878	0.0142523
901.956	0.0141110
902.035	0.0142262
902.113	0.0141158
902.191	0.0142500
902.269	0.0142828
902.347	0.0141297
902.425	0.0141568
902.503	0.0141348
902.581	0.0141100
902.660	0.0141483
902.738	0.0141866
902.816	0.0142452
902.894	0.0141289
902.972	0.0142738
903.050	0.0140925
903.128	0.0141364
903.206	0.0143056
903.285	0.0141987
903.363	0.0142146
903.441	0.0141656
903.519	0.0140609
903.597	0.0142512
903.675	0.0142280
903.753	0.0141483
903.831	0.0141443
903.910	0.0142834
903.988	0.0141571
904.066	0.0142800
904.144	0.0142361
904.222	0.0143677
904.300	0.0143705
904.378	0.0142633
904.456	0.0143931
904.535	0.0144000
904.613	0.0143951
904.691	0.0144391
904.769	0.0143025
904.847	0.0144086
904.925	0.0143271
905.003	0.0143929
905.081	0.0143566
905.160	0.0143634
905.238	0.0143110
905.316	0.0141619
905.394	0.0142005
905.472	0.0142983
905.550	0.0144077
905.628	0.0144895
905.706	0.0142568
905.785	0.0142863
905.863	0.0143355
905.941	0.0143020
906.019	0.0142392
906.097	0.0141846
906.175	0.0143211
906.253	0.0141538
906.331	0.0144083
906.410	0.0142427
906.488	0.0142174
906.566	0.0143898
906.644	0.0143163
906.722	0.0141924
906.800	0.0143477
906.878	0.0142557
906.956	0.0143018
907.035	0.0142023
907.113	0.0141280
907.191	0.0141947
907.269	0.0141125
907.347	0.0142480
907.425	0.0143343
907.503	0.0142422
907.581	0.0143586
907.660	0.0141470
907.738	0.0141637
907.816	0.0143191
907.894	0.0142181
907.972	0.0144146
908.050	0.0142065
908.128	0.0142973
908.206	0.0143676
908.285	0.0143527
908.363	0.0144326
908.441	0.0145187
908.519	0.0142599
908.597	0.0143634
908.675	0.0144094
908.753	0.0143004
908.831	0.0144558
908.910	0.0143639
908.988	0.0143451
909.066	0.0144056
909.144	0.0145296
909.222	0.0143359
909.300	0.0142725
909.378	0.0143475
909.456	0.0144322
909.535	0.0143684
909.613	0.0144695
909.691	0.0143938
909.769	0.0144212
909.847	0.0143658
909.925	0.0143909
910.003	0.0142949
910.081	0.0143131
910.160	0.0143313
910.238	0.0143025
910.316	0.0144503
910.394	0.0143100
910.472	0.0143578
910.550	0.0142947
910.628	0.0143278
910.706	0.0143681
910.785	0.0142951
910.863	0.0142590
910.941	0.0142975
911.019	0.0142908
911.097	0.0145089
911.175	0.0144250
911.253	0.0143411
911.331	0.0144007
911.410	0.0142818
911.488	0.0144080
911.566	0.0142870
911.644	0.0143608
911.722	0.0143951
911.800	0.0143061
911.878	0.0143159
911.956	0.0143562
912.035	0.0142356
912.113	0.0143257
912.191	0.0144083
912.269	0.0144082
912.347	0.0144160
912.425	0.0143089
912.503	0.0142560
912.581	0.0142072
912.660	0.0143257
912.738	0.0142473
912.816	0.0143467
912.894	0.0142060
912.972	0.0142446
913.050	0.0141650
913.128	0.0143501
913.206	0.0143816
913.285	0.0142293
913.363	0.0142020
913.441	0.0143081
913.519	0.0142459
913.597	0.0142488
913.675	0.0144154
913.753	0.0142395
913.831	0.0142582
913.910	0.0141963
913.988	0.0143193
914.066	0.0142751
914.144	0.0142510
914.222	0.0142256
914.300	0.0142271
914.378	0.0142798
914.456	0.0142352
914.535	0.0141891
914.613	0.0141466
914.691	0.0141772
914.769	0.0142777
914.847	0.0142456
914.925	0.0140598
915.003	0.0141549
915.081	0.0142297
915.160	0.0142707
915.238	0.0142786
915.316	0.0142815
915.394	0.0142115
915.472	0.0141454
915.550	0.0143499
915.628	0.0142942
915.706	0.0142950
915.785	0.0144093
915.863	0.0143349
915.941	0.0143135
916.019	0.0144726
916.097	0.0144365
916.175	0.0142948
916.253	0.0142051
916.331	0.0142316
916.410	0.0142743
916.488	0.0142936
916.566	0.0143937
916.644	0.0144324
916.722	0.0145391
916.800	0.0144697
916.878	0.0144608
916.956	0.0145013
917.035	0.0143568
917.113	0.0144770
917.191	0.0144816
917.269	0.0143270
917.347	0.0144534
917.425	0.0144532
917.503	0.0144422
917.581	0.0144196
917.660	0.0143581
917.738	0.0144450
917.816	0.0143584
917.894	0.0143353
917.972	0.0144299
918.050	0.0143801
918.128	0.0145199
918.206	0.0144215
918.285	0.0144125
918.363	0.0144360
918.441	0.0145412
918.519	0.0143621
918.597	0.0143937
918.675	0.0145181
918.753	0.0144548
918.831	0.0145360
918.910	0.0144959
918.988	0.0145078
919.066	0.0144876
919.144	0.0144318
919.222	0.0144297
919.300	0.0145761
919.378	0.0145080
919.456	0.0145496
919.535	0.0143599
919.613	0.0143989
919.691	0.0143877
919.769	0.0142443
919.847	0.0143209
919.925	0.0144250
920.003	0.0144357
920.081	0.0144424
920.160	0.0144217
920.238	0.0143215
920.316	0.0143095
920.394	0.0142885
920.472	0.0143095
920.550	0.0141475
920.628	0.0144274
920.706	0.0142013
920.785	0.0144681
920.863	0.0143932
920.941	0.0144492
921.019	0.0145142
921.097	0.0143687
921.175	0.0142919
921.253	0.0143629
921.331	0.0144511
921.410	0.0144061
921.488	0.0142756
921.566	0.0145200
921.644	0.0145055
921.722	0.0143977
921.800	0.0144237
921.878	0.0143346
921.956	0.0142997
922.035	0.0142787
922.113	0.0142990
922.191	0.0142556
922.269	0.0143729
922.347	0.0143428
922.425	0.0144054
922.503	0.0142323
922.581	0.0142782
922.660	0.0143946
922.738	0.0143266
922.816	0.0142928
922.894	0.0144247
922.972	0.0144037
923.050	0.0145296
923.128	0.0144075
923.206	0.0141761
923.285	0.0143411
923.363	0.0143574
923.441	0.0143843
923.519	0.0144611
923.597	0.0143883
923.675	0.0143259
923.753	0.0143928
923.831	0.0142204
923.910	0.0143429
923.988	0.0142931
924.066	0.0143276
924.144	0.0142382
924.222	0.0141945
924.300	0.0142646
924.378	0.0143085
924.456	0.0143307
924.535	0.0142781
924.613	0.0141827
924.691	0.0141983
924.769	0.0143145
924.847	0.0143182
924.925	0.0142871
925.003	0.0143196
925.081	0.0142767
925.160	0.0142309
925.238	0.0142360
925.316	0.0142471
925.394	0.0142936
925.472	0.0142908
925.550	0.0143036
925.628	0.0145224
925.706	0.0141621
925.785	0.0141256
925.863	0.0141167
925.941	0.0142142
926.019	0.0142387
926.097	0.0142786
926.175	0.0142474
926.253	0.0143048
926.331	0.0141984
926.410	0.0142294
926.488	0.0142632
926.566	0.0143953
926.644	0.0143480
926.722	0.0142335
926.800	0.0143066
926.878	0.0143342
926.956	0.0142905
927.035	0.0142326
927.113	0.0144663
927.191	0.0142411
927.269	0.0143427
927.347	0.0143505
927.425	0.0142450
927.503	0.0141587
927.581	0.0142426
927.660	0.0143404
927.738	0.0142662
927.816	0.0142924
927.894	0.0142811
927.972	0.0142641
928.050	0.0143954
928.128	0.0142375
928.206	0.0142539
928.285	0.0142451
928.363	0.0142879
928.441	0.0143897
928.519	0.0142495
928.597	0.0142517
928.675	0.0142389
928.753	0.0142921
928.831	0.0143763
928.910	0.0142538
928.988	0.0144282
929.066	0.0142888
929.144	0.0143289
929.222	0.0142499
929.300	0.0143422
929.378	0.0143227
929.456	0.0143136
929.535	0.0143409
929.613	0.0144035
929.691	0.0143322
929.769	0.0143195
929.847	0.0142429
929.925	0.0142532
930.003	0.0143745
930.081	0.0143192
930.160	0.0143385
930.238	0.0143913
930.316	0.0142563
930.394	0.0143648
930.472	0.0142240
930.550	0.0143739
930.628	0.0143158
930.706	0.0143764
930.785	0.0143024
930.863	0.0142681
930.941	0.0143551
931.019	0.0145158
931.097	0.0143745
931.175	0.0142840
931.253	0.0144650
931.331	0.0143352
931.410	0.0142863
931.488	0.0143732
931.566	0.0143977
931.644	0.0143484
931.722	0.0143877
931.800	0.0142718
931.878	0.0141676
931.956	0.0143058
932.035	0.0143919
932.113	0.0143981
932.191	0.0143736
932.269	0.0142401
932.347	0.0142943
932.425	0.0143445
932.503	0.0143382
932.581	0.0142487
932.660	0.0143916
932.738	0.0144429
932.816	0.0142696
932.894	0.0143391
932.972	0.0143189
933.050	0.0144493
933.128	0.0144128
933.206	0.0143086
933.285	0.0144193
933.363	0.0144958
933.441	0.0144894
933.519	0.0144415
933.597	0.0144608
933.675	0.0143719
933.753	0.0145120
933.831	0.0144583
933.910	0.0144774
933.988	0.0144858
934.066	0.0144621
934.144	0.0142686
934.222	0.0143826
934.300	0.0144389
934.378	0.0143999
934.456	0.0143940
934.535	0.0144122
934.613	0.0143927
934.691	0.0144366
934.769	0.0143401
934.847	0.0142998
934.925	0.0142250
935.003	0.0144120
935.081	0.0141975
935.160	0.0141731
935.238	0.0142676
935.316	0.0143718
935.394	0.0143279
935.472	0.0141957
935.550	0.0144171
935.628	0.0142861
935.706	0.0141815
935.785	0.0143984
935.863	0.0143369
935.941	0.0144500
936.019	0.0142577
936.097	0.0143418
936.175	0.0144198
936.253	0.0142551
936.331	0.0142857
936.410	0.0144077
936.488	0.0143334
936.566	0.0142923
936.644	0.0143622
936.722	0.0143532
936.800	0.0143438
936.878	0.0142547
936.956	0.0141177
937.035	0.0142799
937.113	0.0141924
937.191	0.0140704
937.269	0.0142165
937.347	0.0142942
937.425	0.0142770
937.503	0.0141946
937.581	0.0142900
937.660	0.0142144
937.738	0.0142076
937.816	0.0142932
937.894	0.0144486
937.972	0.0142250
938.050	0.0143454
938.128	0.0141869
938.206	0.0143250
938.285	0.0142908
938.363	0.0142381
938.441	0.0142428
938.519	0.0144512
938.597	0.0142505
938.675	0.0142381
938.753	0.0141205
938.831	0.0142876
938.910	0.0143299
938.988	0.0142327
939.066	0.0141897
939.144	0.0142695
939.222	0.0141401
939.300	0.0143200
939.378	0.0143548
939.456	0.0142679
939.535	0.0142297
939.613	0.0143237
939.691	0.0143600
939.769	0.0143475
939.847	0.0141343
939.925	0.0142480
940.003	0.0142848
940.081	0.0141891
940.160	0.0143135
940.238	0.0143616
940.316	0.0142892
940.394	0.0143943
940.472	0.0141910
940.550	0.0142853
940.628	0.0142765
940.706	0.0142355
940.785	0.0143068
940.863	0.0143356
940.941	0.0142854
941.019	0.0142577
941.097	0.0144337
941.175	0.0143855
941.253	0.0144056
941.331	0.0143218
941.410	0.0141414
941.488	0.0143145
941.566	0.0143295
941.644	0.0142030
941.722	0.0142774
941.800	0.0143355
941.878	0.0143392
941.956	0.0141773
942.035	0.0142020
942.113	0.0141276
942.191	0.0140752
942.269	0.0143512
942.347	0.0143081
942.425	0.0141355
942.503	0.0141611
942.581	0.0142070
942.660	0.0142773
942.738	0.0142554
942.816	0.0141738
942.894	0.0142761
942.972	0.0142760
943.050	0.0142734
943.128	0.0142476
943.206	0.0140503
943.285	0.0142802
943.363	0.0141861
943.441	0.0143520
943.519	0.0142397
943.597	0.0142262
943.675	0.0143625
943.753	0.0141635
943.831	0.0140901
943.910	0.0141698
943.988	0.0142411
944.066	0.0143071
944.144	0.0141248
944.222	0.0141631
944.300	0.0141663
944.378	0.0142268
944.456	0.0141167
944.535	0.0142106
944.613	0.0140954
944.691	0.0140879
944.769	0.0141362
944.847	0.0142109
944.925	0.0142110
945.003	0.0141095
945.081	0.0140918
945.160	0.0141109
945.238	0.0142464
945.316	0.0142041
945.394	0.0141802
945.472	0.0141718
945.550	0.0141868
945.628	0.0142240
945.706	0.0143026
945.785	0.0143625
945.863	0.0141752
945.941	0.0142207
946.019	0.0143948
946.097	0.0142712
946.175	0.0141692
946.253	0.0142262
946.331	0.0143558
946.410	0.0143326
946.488	0.0143627
946.566	0.0142919
946.644	0.0142194
946.722	0.0142654
946.800	0.0143270
946.878	0.0143848
946.956	0.0141534
947.035	0.0141655
947.113	0.0142402
947.191	0.0142829
947.269	0.0142570
947.347	0.0142998
947.425	0.0143333
947.503	0.0142992
947.581	0.0143621
947.660	0.0144268
947.738	0.0143234
947.816	0.0142857
947.894	0.0143514
947.972	0.0144859
948.050	0.0144322
948.128	0.0143324
948.206	0.0142958
948.285	0.0143601
948.363	0.0143259
948.441	0.0144569
948.519	0.0144200
948.597	0.0143888
948.675	0.0144536
948.753	0.0144215
948.831	0.0144685
948.910	0.0143715
948.988	0.0144088
949.066	0.0144592
949.144	0.0143373
949.222	0.0143695
949.300	0.0143579
949.378	0.0143993
949.456	0.0142370
949.535	0.0144434
949.613	0.0143758
949.691	0.0143211
949.769	0.0143842
949.847	0.0144266
949.925	0.0144016
950.003	0.0145534
950.081	0.0142091
950.160	0.0143588
950.238	0.0143229
950.316	0.0144841
950.394	0.0145103
950.472	0.0145409
950.550	0.0145799
950.628	0.0144222
950.706	0.0143497
950.785	0.0144601
950.863	0.0143929
950.941	0.0145908
951.019	0.0143977
951.097	0.0142162
951.175	0.0143460
951.253	0.0145370
951.331	0.0143993
951.410	0.0141685
951.488	0.0143230
951.566	0.0143606
951.644	0.0143301
951.722	0.0142290
951.800	0.0142754
951.878	0.0143253
951.956	0.0143451
952.035	0.0143664
952.113	0.0143190
952.191	0.0143254
952.269	0.0143935
952.347	0.0144530
952.425	0.0144516
952.503	0.0145154
952.581	0.0145647
952.660	0.0144802
952.738	0.0144413
952.816	0.0143430
952.894	0.0143788
952.972	0.0143324
953.050	0.0143661
953.128	0.0145175
953.206	0.0144084
953.285	0.0142842
953.363	0.0142888
953.441	0.0144258
953.519	0.0144410
953.597	0.0143383
953.675	0.0142749
953.753	0.0144682
953.831	0.0143095
953.910	0.0143984
953.988	0.0143901
954.066	0.0144292
954.144	0.0144403
954.222	0.0144239
954.300	0.0143571
954.378	0.0144681
954.456	0.0143248
954.535	0.0143334
954.613	0.0145447
954.691	0.0143829
954.769	0.0144720
954.847	0.0143977
954.925	0.0143568
955.003	0.0145477
955.081	0.0146169
955.160	0.0144685
955.238	0.0144925
955.316	0.0144530
955.394	0.0144911
955.472	0.0144140
955.550	0.0145753
955.628	0.0145620
955.706	0.0146152
955.785	0.0146122
955.863	0.0145818
955.941	0.0145390
956.019	0.0145601
956.097	0.0145755
956.175	0.0145138
956.253	0.0144254
956.331	0.0145720
956.410	0.0145609
956.488	0.0145649
956.566	0.0146329
956.644	0.0145100
956.722	0.0144769
956.800	0.0144166
956.878	0.0144029
956.956	0.0143916
957.035	0.0145137
957.113	0.0144305
957.191	0.0145032
957.269	0.0144057
957.347	0.0143161
957.425	0.0144107
957.503	0.0144715
957.581	0.0142898
957.660	0.0143889
957.738	0.0143835
957.816	0.0142103
957.894	0.0142631
957.972	0.0143619
958.050	0.0144829
958.128	0.0142004
958.206	0.0142350
958.285	0.0143176
958.363	0.0142130
958.441	0.0142786
958.519	0.0142648
958.597	0.0140851
958.675	0.0142099
958.753	0.0142676
958.831	0.0142650
958.910	0.0141430
958.988	0.0141407
959.066	0.0142443
959.144	0.0139885
959.222	0.0140508
959.300	0.0142114
959.378	0.0141791
959.456	0.0141689
959.535	0.0141099
959.613	0.0140943
959.691	0.0141355
959.769	0.0142441
959.847	0.0143413
959.925	0.0141959
960.003	0.0140542
960.081	0.0141247
960.160	0.0141584
960.238	0.0141961
960.316	0.0141922
960.394	0.0142998
960.472	0.0142120
960.550	0.0141562
960.628	0.0142601
960.706	0.0143798
960.785	0.0142979
960.863	0.0143745
960.941	0.0143651
961.019	0.0143552
961.097	0.0142995
961.175	0.0142079
961.253	0.0143086
961.331	0.0143180
961.410	0.0143201
961.488	0.0142580
961.566	0.0143677
961.644	0.0142982
961.722	0.0143380
961.800	0.0144263
961.878	0.0144643
961.956	0.0143095
962.035	0.0143366
962.113	0.0142482
962.191	0.0143663
962.269	0.0143943
962.347	0.0144090
962.425	0.0143695
962.503	0.0144997
962.581	0.0144770
962.660	0.0144004
962.738	0.0144192
962.816	0.0146327
962.894	0.0145306
962.972	0.0146255
963.050	0.0145184
963.128	0.0146078
963.206	0.0143497
963.285	0.0144369
963.363	0.0146030
963.441	0.0145233
963.519	0.0144424
963.597	0.0144447
963.675	0.0145068
963.753	0.0144518
963.831	0.0144500
963.910	0.0145237
963.988	0.0145232
964.066	0.0145638
964.144	0.0143183
964.222	0.0143380
964.300	0.0145118
964.378	0.0144473
964.456	0.0145291
964.535	0.0143403
964.613	0.0143661
964.691	0.0142970
964.769	0.0143356
964.847	0.0144009
964.925	0.0142921
965.003	0.0142872
965.081	0.0143462
965.160	0.0143087
965.238	0.0143127
965.316	0.0144182
965.394	0.0142449
965.472	0.0142102
965.550	0.0143951
965.628	0.0143159
965.706	0.0143484
965.785	0.0142514
965.863	0.0141965
965.941	0.0142549
966.019	0.0142883
966.097	0.0142728
966.175	0.0141299
966.253	0.0142277
966.331	0.0142739
966.410	0.0142304
966.488	0.0141128
966.566	0.0141756
966.644	0.0142764
966.722	0.0141423
966.800	0.0140623
966.878	0.0143825
966.956	0.0142343
967.035	0.0141032
967.113	0.0142454
967.191	0.0142089
967.269	0.0142270
967.347	0.0140263
967.425	0.0141483
967.503	0.0141908
967.581	0.0141660
967.660	0.0143973
967.738	0.0142136
967.816	0.0143328
967.894	0.0144316
967.972	0.0142442
968.050	0.0143021
968.128	0.0142079
968.206	0.0142201
968.285	0.0142606
968.363	0.0142752
968.441	0.0143072
968.519	0.0142670
968.597	0.0142885
968.675	0.0142817
968.753	0.0143135
968.831	0.0142411
968.910	0.0142910
968.988	0.0143250
969.066	0.0141796
969.144	0.0143164
969.222	0.0143205
969.300	0.0142893
969.378	0.0144231
969.456	0.0143328
969.535	0.0143673
969.613	0.0144411
969.691	0.0143540
969.769	0.0142726
969.847	0.0143858
969.925	0.0143166
970.003	0.0144471
970.081	0.0143960
970.160	0.0144106
970.238	0.0144764
970.316	0.0144381
970.394	0.0143324
970.472	0.0144279
970.550	0.0145221
970.628	0.0143999
970.706	0.0143766
970.785	0.0143808
970.863	0.0144602
970.941	0.0144628
971.019	0.0144409
971.097	0.0145360
971.175	0.0142841
971.253	0.0143919
971.331	0.0144357
971.410	0.0143285
971.488	0.0144162
971.566	0.0142325
971.644	0.0142258
971.722	0.0143108
971.800	0.0142875
971.878	0.0142968
971.956	0.0142968
972.035	0.0142440
972.113	0.0142835
972.191	0.0143121
972.269	0.0143473
972.347	0.0143250
972.425	0.0141774
972.503	0.0143606
972.581	0.0143317
972.660	0.0142995
972.738	0.0143519
972.816	0.0142330
972.894	0.0143988
972.972	0.0144016
973.050	0.0142616
973.128	0.0142815
973.206	0.0144357
973.285	0.0142760
973.363	0.0143174
973.441	0.0142168
973.519	0.0143069
973.597	0.0144950
973.675	0.0143070
973.753	0.0144386
973.831	0.0144466
973.910	0.0143860
973.988	0.0143701
974.066	0.0144653
974.144	0.0145502
974.222	0.0145985
974.300	0.0144200
974.378	0.0145207
974.456	0.0145320
974.535	0.0144176
974.613	0.0145575
974.691	0.0144311
974.769	0.0144150
974.847	0.0144536
974.925	0.0145581
975.003	0.0145050
975.081	0.0145013
975.160	0.0145253
975.238	0.0144511
975.316	0.0143661
975.394	0.0143293
975.472	0.0142574
975.550	0.0143731
975.628	0.0143658
975.706	0.0143215
975.785	0.0142525
975.863	0.0143607
975.941	0.0143960
976.019	0.0142651
976.097	0.0144435
976.175	0.0144057
976.253	0.0144055
976.331	0.0143378
976.410	0.0143793
976.488	0.0143320
976.566	0.0142627
976.644	0.0144857
976.722	0.0143230
976.800	0.0143687
976.878	0.0143805
976.956	0.0144283
977.035	0.0143140
977.113	0.0144266
977.191	0.0144207
977.269	0.0144249
977.347	0.0144332
977.425	0.0144139
977.503	0.0144884
977.581	0.0144267
977.660	0.0144537
977.738	0.0144377
977.816	0.0145147
977.894	0.0144486
977.972	0.0145219
978.050	0.0146618
978.128	0.0145882
978.206	0.0145280
978.285	0.0145782
978.363	0.0144186
978.441	0.0145403
978.519	0.0145805
978.597	0.0144741
978.675	0.0145309
978.753	0.0145697
978.831	0.0144495
978.910	0.0145284
978.988	0.0145097
979.066	0.0145011
979.144	0.0145215
979.222	0.0143932
979.300	0.0143808
979.378	0.0144073
979.456	0.0145352
979.535	0.0144988
979.613	0.0144273
979.691	0.0144141
979.769	0.0145572
979.847	0.0144514
979.925	0.0144596
