05/06/2022	18:37:23	Ver.	4.1	UNKNOWN
Optical Delay	600.021766	Delta X		0.078125	Sweeps	1	Scan Rate	0/0
Coordinates	Axis 1	NaN	Axis 2	NaN	Axis 3	NaN	Axis 4	NaN	Axis 5	NaN	Axis 6	0.000000
TX Power	0.000000	RX Power	0.000000

600.022	0.0130659
600.100	0.0129342
600.178	0.0130855
600.256	0.0132063
600.334	0.0130144
600.412	0.0129805
600.491	0.0130537
600.569	0.0130696
600.647	0.0130026
600.725	0.0129667
600.803	0.0130906
600.881	0.0130224
600.959	0.0129309
601.037	0.0130183
601.116	0.0129559
601.194	0.0131023
601.272	0.0130713
601.350	0.0130317
601.428	0.0131819
601.506	0.0129578
601.584	0.0131197
601.662	0.0131032
601.741	0.0131800
601.819	0.0129587
601.897	0.0129726
601.975	0.0131191
602.053	0.0130763
602.131	0.0130987
602.209	0.0129905
602.287	0.0131017
602.366	0.0131469
602.444	0.0130253
602.522	0.0129279
602.600	0.0132131
602.678	0.0132626
602.756	0.0131313
602.834	0.0129668
602.912	0.0129731
602.991	0.0130771
603.069	0.0130468
603.147	0.0129691
603.225	0.0130341
603.303	0.0131087
603.381	0.0130052
603.459	0.0131341
603.537	0.0130659
603.616	0.0130960
603.694	0.0130595
603.772	0.0130439
603.850	0.0130537
603.928	0.0130498
604.006	0.0130093
604.084	0.0130521
604.162	0.0129903
604.241	0.0130825
604.319	0.0130622
604.397	0.0131026
604.475	0.0130116
604.553	0.0131245
604.631	0.0131218
604.709	0.0131586
604.787	0.0130999
604.866	0.0132413
604.944	0.0130650
605.022	0.0131074
605.100	0.0129620
605.178	0.0130035
605.256	0.0130859
605.334	0.0131905
605.412	0.0130773
605.491	0.0131035
605.569	0.0130116
605.647	0.0130106
605.725	0.0130346
605.803	0.0132384
605.881	0.0130919
605.959	0.0130903
606.037	0.0130283
606.116	0.0130724
606.194	0.0130563
606.272	0.0129619
606.350	0.0130937
606.428	0.0130452
606.506	0.0130260
606.584	0.0130490
606.662	0.0130153
606.741	0.0130492
606.819	0.0130640
606.897	0.0130325
606.975	0.0132020
607.053	0.0131052
607.131	0.0129383
607.209	0.0130616
607.287	0.0130502
607.366	0.0130581
607.444	0.0128784
607.522	0.0131200
607.600	0.0131410
607.678	0.0129987
607.756	0.0131567
607.834	0.0132273
607.912	0.0129649
607.991	0.0130422
608.069	0.0130935
608.147	0.0130851
608.225	0.0131098
608.303	0.0131239
608.381	0.0130302
608.459	0.0131644
608.537	0.0130305
608.616	0.0130304
608.694	0.0129565
608.772	0.0130215
608.850	0.0129372
608.928	0.0130927
609.006	0.0129518
609.084	0.0131860
609.162	0.0129598
609.241	0.0129491
609.319	0.0131108
609.397	0.0130300
609.475	0.0131071
609.553	0.0130209
609.631	0.0130727
609.709	0.0130952
609.787	0.0131524
609.866	0.0130090
609.944	0.0129417
610.022	0.0130759
610.100	0.0129494
610.178	0.0130038
610.256	0.0129339
610.334	0.0130370
610.412	0.0129565
610.491	0.0130525
610.569	0.0130264
610.647	0.0129699
610.725	0.0130373
610.803	0.0131200
610.881	0.0130407
610.959	0.0128925
611.037	0.0130896
611.116	0.0130739
611.194	0.0130956
611.272	0.0131278
611.350	0.0129781
611.428	0.0130104
611.506	0.0130927
611.584	0.0131240
611.662	0.0129415
611.741	0.0131005
611.819	0.0130434
611.897	0.0130033
611.975	0.0130463
612.053	0.0131025
612.131	0.0130590
612.209	0.0129652
612.287	0.0130584
612.366	0.0129510
612.444	0.0131519
612.522	0.0132047
612.600	0.0130772
612.678	0.0130462
612.756	0.0130784
612.834	0.0131560
612.912	0.0132369
612.991	0.0129134
613.069	0.0129849
613.147	0.0130266
613.225	0.0131252
613.303	0.0130897
613.381	0.0130087
613.459	0.0130965
613.537	0.0130711
613.616	0.0129315
613.694	0.0129786
613.772	0.0130344
613.850	0.0130515
613.928	0.0129375
614.006	0.0130853
614.084	0.0129139
614.162	0.0129047
614.241	0.0130637
614.319	0.0130259
614.397	0.0129982
614.475	0.0129869
614.553	0.0130566
614.631	0.0131276
614.709	0.0130384
614.787	0.0131148
614.866	0.0130737
614.944	0.0130830
615.022	0.0129552
615.100	0.0129437
615.178	0.0129771
615.256	0.0130498
615.334	0.0131033
615.412	0.0130432
615.491	0.0131231
615.569	0.0130716
615.647	0.0129137
615.725	0.0131154
615.803	0.0131084
615.881	0.0128874
615.959	0.0129788
616.037	0.0129716
616.116	0.0130101
616.194	0.0130447
616.272	0.0129965
616.350	0.0129848
616.428	0.0130226
616.506	0.0130212
616.584	0.0129810
616.662	0.0131320
616.741	0.0131397
616.819	0.0130558
616.897	0.0129976
616.975	0.0129767
617.053	0.0130199
617.131	0.0130565
617.209	0.0130635
617.287	0.0129569
617.366	0.0129962
617.444	0.0129343
617.522	0.0130201
617.600	0.0129206
617.678	0.0130344
617.756	0.0131074
617.834	0.0130886
617.912	0.0130692
617.991	0.0130739
618.069	0.0130274
618.147	0.0130083
618.225	0.0130186
618.303	0.0131757
618.381	0.0131113
618.459	0.0129761
618.537	0.0131209
618.616	0.0130156
618.694	0.0130685
618.772	0.0130011
618.850	0.0129868
618.928	0.0131071
619.006	0.0130224
619.084	0.0130013
619.162	0.0130559
619.241	0.0130473
619.319	0.0130396
619.397	0.0130470
619.475	0.0130574
619.553	0.0130844
619.631	0.0131204
619.709	0.0130157
619.787	0.0130167
619.866	0.0129231
619.944	0.0129439
620.022	0.0130491
620.100	0.0129695
620.178	0.0132458
620.256	0.0130491
620.334	0.0131457
620.412	0.0130492
620.491	0.0129409
620.569	0.0130602
620.647	0.0129469
620.725	0.0129950
620.803	0.0130457
620.881	0.0129694
620.959	0.0130807
621.037	0.0130145
621.116	0.0129839
621.194	0.0129472
621.272	0.0130869
621.350	0.0129980
621.428	0.0130228
621.506	0.0130173
621.584	0.0129675
621.662	0.0128995
621.741	0.0130711
621.819	0.0131461
621.897	0.0130459
621.975	0.0130292
622.053	0.0130375
622.131	0.0130518
622.209	0.0131040
622.287	0.0130886
622.366	0.0130668
622.444	0.0129367
622.522	0.0129573
622.600	0.0129877
622.678	0.0130128
622.756	0.0130302
622.834	0.0130869
622.912	0.0131401
622.991	0.0130424
623.069	0.0130123
623.147	0.0129377
623.225	0.0130344
623.303	0.0130593
623.381	0.0129619
623.459	0.0129181
623.537	0.0130825
623.616	0.0130668
623.694	0.0131438
623.772	0.0130468
623.850	0.0131483
623.928	0.0130107
624.006	0.0130460
624.084	0.0131199
624.162	0.0130704
624.241	0.0130167
624.319	0.0129894
624.397	0.0130539
624.475	0.0129625
624.553	0.0129252
624.631	0.0129959
624.709	0.0131461
624.787	0.0130641
624.866	0.0130482
624.944	0.0129955
625.022	0.0129382
625.100	0.0130667
625.178	0.0131229
625.256	0.0129600
625.334	0.0130407
625.412	0.0130402
625.491	0.0130386
625.569	0.0130041
625.647	0.0130707
625.725	0.0130683
625.803	0.0130740
625.881	0.0129562
625.959	0.0129671
626.037	0.0129761
626.116	0.0129475
626.194	0.0131251
626.272	0.0130185
626.350	0.0130441
626.428	0.0129516
626.506	0.0130000
626.584	0.0130306
626.662	0.0130573
626.741	0.0130741
626.819	0.0130982
626.897	0.0129527
626.975	0.0129887
627.053	0.0131079
627.131	0.0131955
627.209	0.0131248
627.287	0.0130167
627.366	0.0130614
627.444	0.0130179
627.522	0.0129755
627.600	0.0130574
627.678	0.0130904
627.756	0.0131467
627.834	0.0130329
627.912	0.0129821
627.991	0.0129324
628.069	0.0130516
628.147	0.0130903
628.225	0.0131514
628.303	0.0130661
628.381	0.0130055
628.459	0.0131727
628.537	0.0131777
628.616	0.0130010
628.694	0.0131078
628.772	0.0130837
628.850	0.0129990
628.928	0.0131471
629.006	0.0131257
629.084	0.0131159
629.162	0.0130161
629.241	0.0129383
629.319	0.0128829
629.397	0.0130267
629.475	0.0130024
629.553	0.0130354
629.631	0.0130347
629.709	0.0130810
629.787	0.0129815
629.866	0.0130666
629.944	0.0130587
630.022	0.0130144
630.100	0.0128783
630.178	0.0130966
630.256	0.0130751
630.334	0.0131231
630.412	0.0130836
630.491	0.0130733
630.569	0.0129607
630.647	0.0130472
630.725	0.0130028
630.803	0.0130448
630.881	0.0130968
630.959	0.0130560
631.037	0.0129890
631.116	0.0129872
631.194	0.0129744
631.272	0.0130338
631.350	0.0130540
631.428	0.0130975
631.506	0.0131891
631.584	0.0130531
631.662	0.0130080
631.741	0.0129153
631.819	0.0130675
631.897	0.0131036
631.975	0.0129403
632.053	0.0130087
632.131	0.0129302
632.209	0.0129330
632.287	0.0131212
632.366	0.0130178
632.444	0.0130183
632.522	0.0129396
632.600	0.0130557
632.678	0.0131296
632.756	0.0129097
632.834	0.0129494
632.912	0.0129356
632.991	0.0131551
633.069	0.0129924
633.147	0.0130668
633.225	0.0131109
633.303	0.0129731
633.381	0.0130336
633.459	0.0129467
633.537	0.0130058
633.616	0.0129745
633.694	0.0130374
633.772	0.0130521
633.850	0.0129875
633.928	0.0129760
634.006	0.0129961
634.084	0.0130839
634.162	0.0131394
634.241	0.0129852
634.319	0.0130354
634.397	0.0130844
634.475	0.0130447
634.553	0.0132144
634.631	0.0132024
634.709	0.0131131
634.787	0.0129874
634.866	0.0131120
634.944	0.0130247
635.022	0.0130939
635.100	0.0130822
635.178	0.0130540
635.256	0.0129798
635.334	0.0132330
635.412	0.0131299
635.491	0.0131660
635.569	0.0131380
635.647	0.0130577
635.725	0.0131022
635.803	0.0131624
635.881	0.0130648
635.959	0.0130923
636.037	0.0130685
636.116	0.0130669
636.194	0.0131159
636.272	0.0130701
636.350	0.0130816
636.428	0.0130612
636.506	0.0130965
636.584	0.0129842
636.662	0.0130594
636.741	0.0130997
636.819	0.0130140
636.897	0.0131554
636.975	0.0131302
637.053	0.0130800
637.131	0.0129595
637.209	0.0130221
637.287	0.0131467
637.366	0.0131504
637.444	0.0131107
637.522	0.0130556
637.600	0.0131268
637.678	0.0130084
637.756	0.0130565
637.834	0.0131657
637.912	0.0130727
637.991	0.0130787
638.069	0.0129882
638.147	0.0132065
638.225	0.0130225
638.303	0.0129727
638.381	0.0129965
638.459	0.0131551
638.537	0.0131493
638.616	0.0131273
638.694	0.0130769
638.772	0.0130773
638.850	0.0130045
638.928	0.0130412
639.006	0.0130065
639.084	0.0130683
639.162	0.0129988
639.241	0.0129312
639.319	0.0130603
639.397	0.0130943
639.475	0.0130669
639.553	0.0129308
639.631	0.0131542
639.709	0.0130575
639.787	0.0130627
639.866	0.0130082
639.944	0.0131544
640.022	0.0130296
640.100	0.0131155
640.178	0.0129755
640.256	0.0129881
640.334	0.0131271
640.412	0.0131017
640.491	0.0130184
640.569	0.0130727
640.647	0.0130907
640.725	0.0130169
640.803	0.0131865
640.881	0.0130500
640.959	0.0130441
641.037	0.0130602
641.116	0.0131075
641.194	0.0130564
641.272	0.0131490
641.350	0.0130917
641.428	0.0130270
641.506	0.0129967
641.584	0.0129736
641.662	0.0132771
641.741	0.0130263
641.819	0.0130137
641.897	0.0130297
641.975	0.0132021
642.053	0.0130524
642.131	0.0130357
642.209	0.0131235
642.287	0.0130709
642.366	0.0131310
642.444	0.0129588
642.522	0.0130037
642.600	0.0130553
642.678	0.0130769
642.756	0.0131300
642.834	0.0129853
642.912	0.0130042
642.991	0.0130751
643.069	0.0130289
643.147	0.0129970
643.225	0.0129446
643.303	0.0129917
643.381	0.0130787
643.459	0.0130260
643.537	0.0130951
643.616	0.0131285
643.694	0.0129770
643.772	0.0129182
643.850	0.0129895
643.928	0.0130624
644.006	0.0129041
644.084	0.0128865
644.162	0.0130412
644.241	0.0128187
644.319	0.0129678
644.397	0.0130032
644.475	0.0130074
644.553	0.0129224
644.631	0.0131085
644.709	0.0130025
644.787	0.0130395
644.866	0.0130858
644.944	0.0129700
645.022	0.0129623
645.100	0.0130692
645.178	0.0130492
645.256	0.0130578
645.334	0.0129675
645.412	0.0129941
645.491	0.0130364
645.569	0.0129456
645.647	0.0131750
645.725	0.0132072
645.803	0.0130114
645.881	0.0129499
645.959	0.0130255
646.037	0.0130389
646.116	0.0130151
646.194	0.0130875
646.272	0.0130750
646.350	0.0131129
646.428	0.0130533
646.506	0.0129778
646.584	0.0129578
646.662	0.0131853
646.741	0.0131687
646.819	0.0129749
646.897	0.0130130
646.975	0.0130543
647.053	0.0129879
647.131	0.0130543
647.209	0.0131845
647.287	0.0131780
647.366	0.0130090
647.444	0.0129617
647.522	0.0130135
647.600	0.0130478
647.678	0.0129467
647.756	0.0129208
647.834	0.0129359
647.912	0.0130322
647.991	0.0131021
648.069	0.0132314
648.147	0.0130267
648.225	0.0131040
648.303	0.0129980
648.381	0.0129840
648.459	0.0128683
648.537	0.0130361
648.616	0.0131503
648.694	0.0130232
648.772	0.0130377
648.850	0.0131296
648.928	0.0130472
649.006	0.0129749
649.084	0.0130679
649.162	0.0131044
649.241	0.0130510
649.319	0.0130706
649.397	0.0130619
649.475	0.0130764
649.553	0.0129288
649.631	0.0129087
649.709	0.0129394
649.787	0.0131197
649.866	0.0131036
649.944	0.0130573
650.022	0.0129979
650.100	0.0130054
650.178	0.0129989
650.256	0.0129861
650.334	0.0131480
650.412	0.0131117
650.491	0.0130457
650.569	0.0129794
650.647	0.0130367
650.725	0.0130343
650.803	0.0129874
650.881	0.0130339
650.959	0.0130617
651.037	0.0130240
651.116	0.0130895
651.194	0.0129963
651.272	0.0130878
651.350	0.0130219
651.428	0.0129967
651.506	0.0130321
651.584	0.0131436
651.662	0.0130091
651.741	0.0131276
651.819	0.0131293
651.897	0.0129340
651.975	0.0130463
652.053	0.0130237
652.131	0.0129067
652.209	0.0129655
652.287	0.0130749
652.366	0.0130861
652.444	0.0130534
652.522	0.0130354
652.600	0.0129205
652.678	0.0129773
652.756	0.0130421
652.834	0.0129009
652.912	0.0130912
652.991	0.0131282
653.069	0.0130121
653.147	0.0130483
653.225	0.0129115
653.303	0.0129604
653.381	0.0132185
653.459	0.0131123
653.537	0.0130598
653.616	0.0130051
653.694	0.0130022
653.772	0.0130099
653.850	0.0129549
653.928	0.0129726
654.006	0.0131243
654.084	0.0129941
654.162	0.0129504
654.241	0.0130038
654.319	0.0129543
654.397	0.0131326
654.475	0.0130206
654.553	0.0130953
654.631	0.0129922
654.709	0.0129827
654.787	0.0129270
654.866	0.0130731
654.944	0.0130611
655.022	0.0130874
655.100	0.0130074
655.178	0.0130739
655.256	0.0130774
655.334	0.0130665
655.412	0.0132037
655.491	0.0131629
655.569	0.0130011
655.647	0.0131797
655.725	0.0129974
655.803	0.0130724
655.881	0.0131552
655.959	0.0131451
656.037	0.0129710
656.116	0.0129890
656.194	0.0131435
656.272	0.0131137
656.350	0.0130170
656.428	0.0130585
656.506	0.0130099
656.584	0.0128945
656.662	0.0130848
656.741	0.0129282
656.819	0.0131441
656.897	0.0129878
656.975	0.0129756
657.053	0.0131831
657.131	0.0130889
657.209	0.0130456
657.287	0.0130068
657.366	0.0130969
657.444	0.0130578
657.522	0.0129745
657.600	0.0130924
657.678	0.0129942
657.756	0.0130338
657.834	0.0130232
657.912	0.0129372
657.991	0.0132253
658.069	0.0128661
658.147	0.0130168
658.225	0.0130880
658.303	0.0130726
658.381	0.0131071
658.459	0.0130907
658.537	0.0131059
658.616	0.0130492
658.694	0.0131985
658.772	0.0131971
658.850	0.0130543
658.928	0.0130901
659.006	0.0130073
659.084	0.0129888
659.162	0.0131595
659.241	0.0131140
659.319	0.0131142
659.397	0.0129752
659.475	0.0130640
659.553	0.0131112
659.631	0.0129254
659.709	0.0130735
659.787	0.0130453
659.866	0.0131120
659.944	0.0129312
660.022	0.0129330
660.100	0.0130541
660.178	0.0130160
660.256	0.0131039
660.334	0.0130378
660.412	0.0129893
660.491	0.0130817
660.569	0.0130682
660.647	0.0129200
660.725	0.0130870
660.803	0.0130110
660.881	0.0128492
660.959	0.0131309
661.037	0.0131351
661.116	0.0130807
661.194	0.0129651
661.272	0.0130475
661.350	0.0130156
661.428	0.0132330
661.506	0.0130310
661.584	0.0130202
661.662	0.0131350
661.741	0.0129346
661.819	0.0129052
661.897	0.0130271
661.975	0.0131509
662.053	0.0131478
662.131	0.0130769
662.209	0.0130194
662.287	0.0131218
662.366	0.0130565
662.444	0.0129465
662.522	0.0130336
662.600	0.0129408
662.678	0.0131244
662.756	0.0130276
662.834	0.0130136
662.912	0.0129691
662.991	0.0129410
663.069	0.0131429
663.147	0.0131818
663.225	0.0130167
663.303	0.0130152
663.381	0.0130537
663.459	0.0130104
663.537	0.0131469
663.616	0.0130301
663.694	0.0130295
663.772	0.0130499
663.850	0.0129598
663.928	0.0130570
664.006	0.0130739
664.084	0.0130312
664.162	0.0130905
664.241	0.0129910
664.319	0.0130663
664.397	0.0130800
664.475	0.0131678
664.553	0.0130200
664.631	0.0130912
664.709	0.0131258
664.787	0.0131362
664.866	0.0130520
664.944	0.0131196
665.022	0.0130623
665.100	0.0130412
665.178	0.0131128
665.256	0.0130398
665.334	0.0131465
665.412	0.0131683
665.491	0.0129990
665.569	0.0130415
665.647	0.0131647
665.725	0.0130798
665.803	0.0129267
665.881	0.0129730
665.959	0.0130819
666.037	0.0131188
666.116	0.0130705
666.194	0.0130576
666.272	0.0129475
666.350	0.0131953
666.428	0.0130499
666.506	0.0130569
666.584	0.0130334
666.662	0.0129217
666.741	0.0130279
666.819	0.0131161
666.897	0.0130515
666.975	0.0131278
667.053	0.0131295
667.131	0.0131905
667.209	0.0131085
667.287	0.0130087
667.366	0.0131445
667.444	0.0131377
667.522	0.0129161
667.600	0.0130441
667.678	0.0132486
667.756	0.0131915
667.834	0.0130062
667.912	0.0129388
667.991	0.0129031
668.069	0.0130561
668.147	0.0132610
668.225	0.0131083
668.303	0.0131075
668.381	0.0130131
668.459	0.0129874
668.537	0.0130659
668.616	0.0130547
668.694	0.0131899
668.772	0.0129142
668.850	0.0130553
668.928	0.0131017
669.006	0.0130138
669.084	0.0130760
669.162	0.0129984
669.241	0.0130966
669.319	0.0131326
669.397	0.0130666
669.475	0.0129111
669.553	0.0129986
669.631	0.0129320
669.709	0.0128770
669.787	0.0130202
669.866	0.0129905
669.944	0.0129434
670.022	0.0129698
670.100	0.0129535
670.178	0.0128747
670.256	0.0128815
670.334	0.0129119
670.412	0.0129169
670.491	0.0130212
670.569	0.0128490
670.647	0.0129103
670.725	0.0130058
670.803	0.0129105
670.881	0.0130051
670.959	0.0129509
671.037	0.0129823
671.116	0.0129312
671.194	0.0129269
671.272	0.0128676
671.350	0.0129774
671.428	0.0127512
671.506	0.0127866
671.584	0.0129762
671.662	0.0128429
671.741	0.0129144
671.819	0.0128017
671.897	0.0128563
671.975	0.0128959
672.053	0.0128566
672.131	0.0128967
672.209	0.0128769
672.287	0.0129018
672.366	0.0128919
672.444	0.0128249
672.522	0.0127615
672.600	0.0128546
672.678	0.0128531
672.756	0.0128812
672.834	0.0128428
672.912	0.0128059
672.991	0.0127605
673.069	0.0127172
673.147	0.0128223
673.225	0.0128174
673.303	0.0128287
673.381	0.0127068
673.459	0.0127935
673.537	0.0128836
673.616	0.0129994
673.694	0.0127497
673.772	0.0127087
673.850	0.0127151
673.928	0.0127857
674.006	0.0128915
674.084	0.0127938
674.162	0.0129327
674.241	0.0128221
674.319	0.0128381
674.397	0.0129225
674.475	0.0129491
674.553	0.0128410
674.631	0.0128466
674.709	0.0130714
674.787	0.0129068
674.866	0.0129431
674.944	0.0130241
675.022	0.0128624
675.100	0.0128499
675.178	0.0129999
675.256	0.0129502
675.334	0.0130926
675.412	0.0130004
675.491	0.0129049
675.569	0.0131083
675.647	0.0131366
675.725	0.0130463
675.803	0.0130730
675.881	0.0131539
675.959	0.0130732
676.037	0.0130520
676.116	0.0130882
676.194	0.0130924
676.272	0.0130522
676.350	0.0131593
676.428	0.0129891
676.506	0.0131553
676.584	0.0131640
676.662	0.0131554
676.741	0.0131128
676.819	0.0131944
676.897	0.0132281
676.975	0.0130984
677.053	0.0132342
677.131	0.0132355
677.209	0.0131138
677.287	0.0131012
677.366	0.0132161
677.444	0.0133282
677.522	0.0133024
677.600	0.0132621
677.678	0.0130984
677.756	0.0132184
677.834	0.0133412
677.912	0.0132596
677.991	0.0132172
678.069	0.0132040
678.147	0.0132208
678.225	0.0132494
678.303	0.0133263
678.381	0.0132871
678.459	0.0131827
678.537	0.0131937
678.616	0.0131748
678.694	0.0133408
678.772	0.0132456
678.850	0.0132426
678.928	0.0131656
679.006	0.0133662
679.084	0.0130865
679.162	0.0131264
679.241	0.0132904
679.319	0.0132409
679.397	0.0131258
679.475	0.0131618
679.553	0.0133926
679.631	0.0132338
679.709	0.0132151
679.787	0.0131879
679.866	0.0131113
679.944	0.0132563
680.022	0.0132258
680.100	0.0131322
680.178	0.0130902
680.256	0.0131859
680.334	0.0132391
680.412	0.0130848
680.491	0.0130296
680.569	0.0131160
680.647	0.0131300
680.725	0.0132071
680.803	0.0131549
680.881	0.0132008
680.959	0.0130576
681.037	0.0130551
681.116	0.0130698
681.194	0.0130950
681.272	0.0130267
681.350	0.0129683
681.428	0.0130712
681.506	0.0131811
681.584	0.0130804
681.662	0.0130273
681.741	0.0129799
681.819	0.0131431
681.897	0.0130168
681.975	0.0130135
682.053	0.0129341
682.131	0.0129608
682.209	0.0130894
682.287	0.0129408
682.366	0.0129932
682.444	0.0130917
682.522	0.0130547
682.600	0.0130775
682.678	0.0129418
682.756	0.0130445
682.834	0.0129224
682.912	0.0130421
682.991	0.0130542
683.069	0.0130866
683.147	0.0130790
683.225	0.0130787
683.303	0.0131532
683.381	0.0130682
683.459	0.0129570
683.537	0.0130740
683.616	0.0130941
683.694	0.0129497
683.772	0.0131676
683.850	0.0130576
683.928	0.0129594
684.006	0.0130003
684.084	0.0130529
684.162	0.0129667
684.241	0.0129707
684.319	0.0130722
684.397	0.0131232
684.475	0.0130731
684.553	0.0128667
684.631	0.0128641
684.709	0.0130306
684.787	0.0131020
684.866	0.0130384
684.944	0.0130366
685.022	0.0130964
685.100	0.0129504
685.178	0.0131088
685.256	0.0131266
685.334	0.0131271
685.412	0.0130453
685.491	0.0128791
685.569	0.0130416
685.647	0.0130664
685.725	0.0131175
685.803	0.0130548
685.881	0.0131214
685.959	0.0130898
686.037	0.0129684
686.116	0.0130280
686.194	0.0130142
686.272	0.0129464
686.350	0.0131346
686.428	0.0129253
686.506	0.0131451
686.584	0.0131372
686.662	0.0130385
686.741	0.0131808
686.819	0.0131091
686.897	0.0130598
686.975	0.0130711
687.053	0.0130783
687.131	0.0130523
687.209	0.0130891
687.287	0.0131033
687.366	0.0130829
687.444	0.0131095
687.522	0.0130434
687.600	0.0131778
687.678	0.0131474
687.756	0.0130317
687.834	0.0129731
687.912	0.0130618
687.991	0.0129605
688.069	0.0131290
688.147	0.0130890
688.225	0.0130745
688.303	0.0130718
688.381	0.0130312
688.459	0.0129864
688.537	0.0129752
688.616	0.0129439
688.694	0.0129031
688.772	0.0130630
688.850	0.0130656
688.928	0.0130285
689.006	0.0130451
689.084	0.0131316
689.162	0.0129639
689.241	0.0129908
689.319	0.0130226
689.397	0.0130574
689.475	0.0130331
689.553	0.0129225
689.631	0.0130432
689.709	0.0130013
689.787	0.0130535
689.866	0.0129894
689.944	0.0130455
690.022	0.0129729
690.100	0.0130603
690.178	0.0131479
690.256	0.0130189
690.334	0.0129574
690.412	0.0130524
690.491	0.0132406
690.569	0.0131130
690.647	0.0130882
690.725	0.0130750
690.803	0.0130496
690.881	0.0130460
690.959	0.0131331
691.037	0.0131085
691.116	0.0131821
691.194	0.0131263
691.272	0.0130492
691.350	0.0130505
691.428	0.0130586
691.506	0.0131354
691.584	0.0130505
691.662	0.0130113
691.741	0.0131638
691.819	0.0131138
691.897	0.0130241
691.975	0.0129691
692.053	0.0131216
692.131	0.0130405
692.209	0.0129974
692.287	0.0128985
692.366	0.0131108
692.444	0.0131339
692.522	0.0131007
692.600	0.0131361
692.678	0.0131381
692.756	0.0131104
692.834	0.0129077
692.912	0.0129708
692.991	0.0130996
693.069	0.0129579
693.147	0.0131075
693.225	0.0131326
693.303	0.0128644
693.381	0.0129551
693.459	0.0129939
693.537	0.0129605
693.616	0.0129993
693.694	0.0129671
693.772	0.0129469
693.850	0.0129089
693.928	0.0130016
694.006	0.0128724
694.084	0.0128609
694.162	0.0128967
694.241	0.0129243
694.319	0.0130296
694.397	0.0129573
694.475	0.0130891
694.553	0.0130103
694.631	0.0130183
694.709	0.0130907
694.787	0.0131693
694.866	0.0131284
694.944	0.0131217
695.022	0.0130647
695.100	0.0131824
695.178	0.0131019
695.256	0.0131438
695.334	0.0130809
695.412	0.0131101
695.491	0.0129745
695.569	0.0130241
695.647	0.0130753
695.725	0.0128172
695.803	0.0127946
695.881	0.0129541
695.959	0.0127798
696.037	0.0128512
696.116	0.0127980
696.194	0.0128443
696.272	0.0129209
696.350	0.0129696
696.428	0.0129783
696.506	0.0130161
696.584	0.0129459
696.662	0.0130492
696.741	0.0129073
696.819	0.0130260
696.897	0.0129776
696.975	0.0129621
697.053	0.0128484
697.131	0.0129570
697.209	0.0128522
697.287	0.0127943
697.366	0.0127007
697.444	0.0127142
697.522	0.0126005
697.600	0.0126774
697.678	0.0126749
697.756	0.0127599
697.834	0.0128052
697.912	0.0128523
697.991	0.0128326
698.069	0.0128514
698.147	0.0130712
698.225	0.0130660
698.303	0.0129718
698.381	0.0130345
698.459	0.0131416
698.537	0.0131375
698.616	0.0131210
698.694	0.0130722
698.772	0.0131590
698.850	0.0130237
698.928	0.0130876
699.006	0.0130894
699.084	0.0130128
699.162	0.0129657
699.241	0.0130462
699.319	0.0131049
699.397	0.0130387
699.475	0.0129599
699.553	0.0128112
699.631	0.0129512
699.709	0.0129972
699.787	0.0129900
699.866	0.0128503
699.944	0.0128555
700.022	0.0129449
700.100	0.0128629
700.178	0.0127895
700.256	0.0127766
700.334	0.0128055
700.412	0.0128194
700.491	0.0129179
700.569	0.0129884
700.647	0.0128665
700.725	0.0128487
700.803	0.0129179
700.881	0.0129222
700.959	0.0127376
701.037	0.0130251
701.116	0.0129633
701.194	0.0129282
701.272	0.0130241
701.350	0.0128516
701.428	0.0127120
701.506	0.0130287
701.584	0.0131165
701.662	0.0130960
701.741	0.0130456
701.819	0.0130579
701.897	0.0130762
701.975	0.0129546
702.053	0.0131348
702.131	0.0131787
702.209	0.0131115
702.287	0.0132293
702.366	0.0130866
702.444	0.0131427
702.522	0.0131245
702.600	0.0131317
702.678	0.0132081
702.756	0.0132056
702.834	0.0130785
702.912	0.0131445
702.991	0.0131930
703.069	0.0132076
703.147	0.0131128
703.225	0.0131351
703.303	0.0132711
703.381	0.0130742
703.459	0.0130556
703.537	0.0131764
703.616	0.0131547
703.694	0.0129699
703.772	0.0129951
703.850	0.0128873
703.928	0.0127762
704.006	0.0128530
704.084	0.0128056
704.162	0.0127737
704.241	0.0128603
704.319	0.0128285
704.397	0.0128953
704.475	0.0130106
704.553	0.0129108
704.631	0.0129581
704.709	0.0131440
704.787	0.0129705
704.866	0.0130817
704.944	0.0131077
705.022	0.0130769
705.100	0.0130899
705.178	0.0131204
705.256	0.0131973
705.334	0.0132694
705.412	0.0133096
705.491	0.0131770
705.569	0.0132166
705.647	0.0132265
705.725	0.0131312
705.803	0.0133254
705.881	0.0131901
705.959	0.0129839
706.037	0.0131367
706.116	0.0132018
706.194	0.0130352
706.272	0.0130962
706.350	0.0131743
706.428	0.0130251
706.506	0.0131785
706.584	0.0130949
706.662	0.0131490
706.741	0.0131101
706.819	0.0132182
706.897	0.0131463
706.975	0.0131714
707.053	0.0131020
707.131	0.0131489
707.209	0.0130758
707.287	0.0131361
707.366	0.0130967
707.444	0.0130689
707.522	0.0130923
707.600	0.0130965
707.678	0.0131904
707.756	0.0130936
707.834	0.0131396
707.912	0.0131057
707.991	0.0131797
708.069	0.0131167
708.147	0.0130254
708.225	0.0132243
708.303	0.0130186
708.381	0.0132150
708.459	0.0132142
708.537	0.0131962
708.616	0.0131760
708.694	0.0133395
708.772	0.0132311
708.850	0.0131651
708.928	0.0131500
709.006	0.0132286
709.084	0.0131465
709.162	0.0130662
709.241	0.0132008
709.319	0.0131249
709.397	0.0131871
709.475	0.0132478
709.553	0.0131621
709.631	0.0129686
709.709	0.0130802
709.787	0.0130646
709.866	0.0131841
709.944	0.0131105
710.022	0.0131388
710.100	0.0130579
710.178	0.0131911
710.256	0.0131557
710.334	0.0131011
710.412	0.0130080
710.491	0.0130397
710.569	0.0129644
710.647	0.0130370
710.725	0.0131687
710.803	0.0129781
710.881	0.0130002
710.959	0.0130048
711.037	0.0129715
711.116	0.0130025
711.194	0.0129749
711.272	0.0130231
711.350	0.0130398
711.428	0.0127345
711.506	0.0127652
711.584	0.0128335
711.662	0.0129456
711.741	0.0130639
711.819	0.0129890
711.897	0.0129745
711.975	0.0128928
712.053	0.0128858
712.131	0.0129099
712.209	0.0129703
712.287	0.0130179
712.366	0.0130963
712.444	0.0129507
712.522	0.0130109
712.600	0.0131311
712.678	0.0131535
712.756	0.0131432
712.834	0.0131193
712.912	0.0130956
712.991	0.0131134
713.069	0.0131171
713.147	0.0131420
713.225	0.0130866
713.303	0.0131446
713.381	0.0131638
713.459	0.0129563
713.537	0.0130408
713.616	0.0131404
713.694	0.0131446
713.772	0.0130337
713.850	0.0129751
713.928	0.0130560
714.006	0.0130174
714.084	0.0131307
714.162	0.0130566
714.241	0.0129665
714.319	0.0130578
714.397	0.0130701
714.475	0.0130057
714.553	0.0130536
714.631	0.0129245
714.709	0.0131430
714.787	0.0130785
714.866	0.0131544
714.944	0.0129411
715.022	0.0131371
715.100	0.0129325
715.178	0.0130074
715.256	0.0130144
715.334	0.0130416
715.412	0.0129602
715.491	0.0129636
715.569	0.0129765
715.647	0.0128902
715.725	0.0129482
715.803	0.0129810
715.881	0.0128889
715.959	0.0130769
716.037	0.0130349
716.116	0.0129952
716.194	0.0130402
716.272	0.0130555
716.350	0.0130693
716.428	0.0130157
716.506	0.0130523
716.584	0.0129985
716.662	0.0130075
716.741	0.0130383
716.819	0.0131449
716.897	0.0131030
716.975	0.0130408
717.053	0.0130531
717.131	0.0131612
717.209	0.0130895
717.287	0.0132085
717.366	0.0131226
717.444	0.0130760
717.522	0.0130866
717.600	0.0130148
717.678	0.0130504
717.756	0.0129636
717.834	0.0131818
717.912	0.0131155
717.991	0.0130172
718.069	0.0130783
718.147	0.0130836
718.225	0.0130572
718.303	0.0131527
718.381	0.0132142
718.459	0.0130820
718.537	0.0132669
718.616	0.0132371
718.694	0.0132753
718.772	0.0131871
718.850	0.0131868
718.928	0.0132024
719.006	0.0132920
719.084	0.0131901
719.162	0.0131458
719.241	0.0132066
719.319	0.0132662
719.397	0.0132620
719.475	0.0131319
719.553	0.0131542
719.631	0.0129276
719.709	0.0130515
719.787	0.0131814
719.866	0.0130254
719.944	0.0129388
720.022	0.0131998
720.100	0.0131277
720.178	0.0130623
720.256	0.0130364
720.334	0.0131055
720.412	0.0131649
720.491	0.0130942
720.569	0.0129591
720.647	0.0131251
720.725	0.0130559
720.803	0.0131329
720.881	0.0130057
720.959	0.0130271
721.037	0.0131339
721.116	0.0131538
721.194	0.0130708
721.272	0.0130299
721.350	0.0130685
721.428	0.0130841
721.506	0.0130628
721.584	0.0129783
721.662	0.0129912
721.741	0.0130043
721.819	0.0129501
721.897	0.0129450
721.975	0.0129388
722.053	0.0130602
722.131	0.0129633
722.209	0.0129546
722.287	0.0129629
722.366	0.0130079
722.444	0.0130935
722.522	0.0130116
722.600	0.0130697
722.678	0.0129433
722.756	0.0129771
722.834	0.0129891
722.912	0.0129650
722.991	0.0129427
723.069	0.0129050
723.147	0.0130382
723.225	0.0129165
723.303	0.0129366
723.381	0.0128844
723.459	0.0129666
723.537	0.0129006
723.616	0.0129040
723.694	0.0131335
723.772	0.0129918
723.850	0.0129046
723.928	0.0129063
724.006	0.0129063
724.084	0.0129093
724.162	0.0129433
724.241	0.0128156
724.319	0.0129877
724.397	0.0129076
724.475	0.0130147
724.553	0.0129150
724.631	0.0127858
724.709	0.0129975
724.787	0.0129984
724.866	0.0129973
724.944	0.0129137
725.022	0.0129170
725.100	0.0130350
725.178	0.0129372
725.256	0.0129519
725.334	0.0129730
725.412	0.0129118
725.491	0.0129472
725.569	0.0129275
725.647	0.0130012
725.725	0.0129517
725.803	0.0128884
725.881	0.0128579
725.959	0.0129445
726.037	0.0127972
726.116	0.0130941
726.194	0.0129297
726.272	0.0127986
726.350	0.0128673
726.428	0.0127321
726.506	0.0128246
726.584	0.0130233
726.662	0.0129908
726.741	0.0128002
726.819	0.0128044
726.897	0.0129479
726.975	0.0129658
727.053	0.0128777
727.131	0.0130809
727.209	0.0130923
727.287	0.0129562
727.366	0.0131110
727.444	0.0129137
727.522	0.0131309
727.600	0.0130588
727.678	0.0132516
727.756	0.0129971
727.834	0.0131213
727.912	0.0130968
727.991	0.0131430
728.069	0.0131605
728.147	0.0131889
728.225	0.0131442
728.303	0.0130894
728.381	0.0131040
728.459	0.0131842
728.537	0.0131068
728.616	0.0131599
728.694	0.0130464
728.772	0.0129295
728.850	0.0131264
728.928	0.0129790
729.006	0.0129356
729.084	0.0129517
729.162	0.0129149
729.241	0.0128532
729.319	0.0131385
729.397	0.0129386
729.475	0.0129522
729.553	0.0130489
729.631	0.0129628
729.709	0.0127931
729.787	0.0130132
729.866	0.0129501
729.944	0.0130650
730.022	0.0129214
730.100	0.0128912
730.178	0.0129480
730.256	0.0129086
730.334	0.0130145
730.412	0.0128844
730.491	0.0129333
730.569	0.0128130
730.647	0.0129712
730.725	0.0130656
730.803	0.0129362
730.881	0.0129025
730.959	0.0130457
731.037	0.0129562
731.116	0.0130432
731.194	0.0129635
731.272	0.0130200
731.350	0.0130448
731.428	0.0131421
731.506	0.0130742
731.584	0.0128918
731.662	0.0129802
731.741	0.0130662
731.819	0.0130330
731.897	0.0130928
731.975	0.0130674
732.053	0.0132021
732.131	0.0131391
732.209	0.0129286
732.287	0.0130130
732.366	0.0131015
732.444	0.0130270
732.522	0.0132847
732.600	0.0131355
732.678	0.0130136
732.756	0.0130670
732.834	0.0130266
732.912	0.0130238
732.991	0.0131682
733.069	0.0130894
733.147	0.0130949
733.225	0.0131325
733.303	0.0130302
733.381	0.0130957
733.459	0.0130596
733.537	0.0132314
733.616	0.0130756
733.694	0.0130513
733.772	0.0131019
733.850	0.0130421
733.928	0.0130222
734.006	0.0131396
734.084	0.0132099
734.162	0.0131772
734.241	0.0131208
734.319	0.0132526
734.397	0.0131029
734.475	0.0132000
734.553	0.0132195
734.631	0.0131344
734.709	0.0131084
734.787	0.0131017
734.866	0.0130693
734.944	0.0131422
735.022	0.0131417
735.100	0.0130711
735.178	0.0130814
735.256	0.0130147
735.334	0.0130636
735.412	0.0129860
735.491	0.0129644
735.569	0.0129493
735.647	0.0128979
735.725	0.0129938
735.803	0.0130036
735.881	0.0130289
735.959	0.0129124
736.037	0.0129900
736.116	0.0130418
736.194	0.0129321
736.272	0.0130250
736.350	0.0130920
736.428	0.0129167
736.506	0.0128649
736.584	0.0128980
736.662	0.0130167
736.741	0.0130148
736.819	0.0130309
736.897	0.0129939
736.975	0.0128565
737.053	0.0129657
737.131	0.0129515
737.209	0.0130527
737.287	0.0130009
737.366	0.0129595
737.444	0.0128649
737.522	0.0129265
737.600	0.0130125
737.678	0.0129823
737.756	0.0129906
737.834	0.0130374
737.912	0.0130312
737.991	0.0128497
738.069	0.0130795
738.147	0.0131086
738.225	0.0129832
738.303	0.0131042
738.381	0.0130537
738.459	0.0130388
738.537	0.0130508
738.616	0.0128564
738.694	0.0129356
738.772	0.0129712
738.850	0.0130908
738.928	0.0130656
739.006	0.0129778
739.084	0.0129691
739.162	0.0130240
739.241	0.0129351
739.319	0.0129958
739.397	0.0128727
739.475	0.0129493
739.553	0.0130157
739.631	0.0131084
739.709	0.0130966
739.787	0.0131597
739.866	0.0130068
739.944	0.0130812
740.022	0.0132555
740.100	0.0130206
740.178	0.0130112
740.256	0.0130846
740.334	0.0130713
740.412	0.0132114
740.491	0.0131509
740.569	0.0130382
740.647	0.0130016
740.725	0.0131454
740.803	0.0131086
740.881	0.0129590
740.959	0.0131998
741.037	0.0130466
741.116	0.0131074
741.194	0.0130877
741.272	0.0131968
741.350	0.0130222
741.428	0.0130974
741.506	0.0130150
741.584	0.0130622
741.662	0.0129601
741.741	0.0130239
741.819	0.0130936
741.897	0.0130122
741.975	0.0130445
742.053	0.0130186
742.131	0.0130496
742.209	0.0130615
742.287	0.0129623
742.366	0.0130334
742.444	0.0132150
742.522	0.0131464
742.600	0.0130443
742.678	0.0131445
742.756	0.0130730
742.834	0.0130501
742.912	0.0131555
742.991	0.0131204
743.069	0.0130939
743.147	0.0130324
743.225	0.0131379
743.303	0.0130776
743.381	0.0130772
743.459	0.0129581
743.537	0.0130561
743.616	0.0131742
743.694	0.0131615
743.772	0.0131116
743.850	0.0130545
743.928	0.0130138
744.006	0.0130668
744.084	0.0130022
744.162	0.0130771
744.241	0.0131160
744.319	0.0131807
744.397	0.0131116
744.475	0.0131371
744.553	0.0129443
744.631	0.0130526
744.709	0.0131242
744.787	0.0130977
744.866	0.0129706
744.944	0.0131235
745.022	0.0130903
745.100	0.0130457
745.178	0.0129622
745.256	0.0130668
745.334	0.0130073
745.412	0.0129733
745.491	0.0130399
745.569	0.0129420
745.647	0.0129893
745.725	0.0130150
745.803	0.0131298
745.881	0.0129741
745.959	0.0128843
746.037	0.0130312
746.116	0.0131496
746.194	0.0130519
746.272	0.0129292
746.350	0.0130767
746.428	0.0130227
746.506	0.0129543
746.584	0.0130410
746.662	0.0129431
746.741	0.0130227
746.819	0.0130573
746.897	0.0130860
746.975	0.0131677
747.053	0.0129941
747.131	0.0130762
747.209	0.0130717
747.287	0.0130696
747.366	0.0129816
747.444	0.0130793
747.522	0.0131203
747.600	0.0130576
747.678	0.0131724
747.756	0.0130630
747.834	0.0131290
747.912	0.0130459
747.991	0.0130912
748.069	0.0130332
748.147	0.0130344
748.225	0.0131293
748.303	0.0132275
748.381	0.0128473
748.459	0.0129141
748.537	0.0130099
748.616	0.0131991
748.694	0.0130856
748.772	0.0129925
748.850	0.0130974
748.928	0.0131120
749.006	0.0131526
749.084	0.0132364
749.162	0.0131285
749.241	0.0131606
749.319	0.0133189
749.397	0.0130675
749.475	0.0130943
749.553	0.0132285
749.631	0.0132024
749.709	0.0132478
749.787	0.0131763
749.866	0.0132343
749.944	0.0131284
750.022	0.0131644
750.100	0.0133391
750.178	0.0130970
750.256	0.0130434
750.334	0.0131332
750.412	0.0131764
750.491	0.0130637
750.569	0.0131138
750.647	0.0131882
750.725	0.0131526
750.803	0.0130236
750.881	0.0130720
750.959	0.0131898
751.037	0.0130222
751.116	0.0130929
751.194	0.0132239
751.272	0.0131522
751.350	0.0130565
751.428	0.0130500
751.506	0.0131334
751.584	0.0130930
751.662	0.0130870
751.741	0.0130753
751.819	0.0130949
751.897	0.0131065
751.975	0.0131493
752.053	0.0129684
752.131	0.0130554
752.209	0.0130336
752.287	0.0129469
752.366	0.0130630
752.444	0.0130453
752.522	0.0129153
752.600	0.0129263
752.678	0.0128917
752.756	0.0129421
752.834	0.0129688
752.912	0.0131259
752.991	0.0129440
753.069	0.0130485
753.147	0.0130688
753.225	0.0129212
753.303	0.0129736
753.381	0.0130805
753.459	0.0131207
753.537	0.0129360
753.616	0.0129233
753.694	0.0130608
753.772	0.0131243
753.850	0.0130011
753.928	0.0129559
754.006	0.0130251
754.084	0.0128693
754.162	0.0129506
754.241	0.0131063
754.319	0.0130562
754.397	0.0129535
754.475	0.0129733
754.553	0.0130420
754.631	0.0130416
754.709	0.0129906
754.787	0.0130901
754.866	0.0130113
754.944	0.0129776
755.022	0.0131622
755.100	0.0130009
755.178	0.0130109
755.256	0.0130009
755.334	0.0128587
755.412	0.0130928
755.491	0.0130415
755.569	0.0130694
755.647	0.0130981
755.725	0.0130717
755.803	0.0130889
755.881	0.0130004
755.959	0.0132128
756.037	0.0130278
756.116	0.0130428
756.194	0.0130737
756.272	0.0129937
756.350	0.0130936
756.428	0.0130767
756.506	0.0130143
756.584	0.0129448
756.662	0.0129627
756.741	0.0131563
756.819	0.0130877
756.897	0.0130318
756.975	0.0130583
757.053	0.0130264
757.131	0.0132365
757.209	0.0131564
757.287	0.0131287
757.366	0.0130882
757.444	0.0132200
757.522	0.0131410
757.600	0.0131353
757.678	0.0129961
757.756	0.0130584
757.834	0.0130678
757.912	0.0130244
757.991	0.0131721
758.069	0.0131779
758.147	0.0128429
758.225	0.0129965
758.303	0.0130861
758.381	0.0130148
758.459	0.0131027
758.537	0.0130288
758.616	0.0131788
758.694	0.0131698
758.772	0.0130119
758.850	0.0130582
758.928	0.0131064
759.006	0.0130220
759.084	0.0131144
759.162	0.0130852
759.241	0.0131528
759.319	0.0130689
759.397	0.0131416
759.475	0.0130341
759.553	0.0130770
759.631	0.0131067
759.709	0.0130435
759.787	0.0131544
759.866	0.0130495
759.944	0.0130313
760.022	0.0131960
760.100	0.0130636
760.178	0.0130642
760.256	0.0130401
760.334	0.0131413
760.412	0.0131506
760.491	0.0131505
760.569	0.0130239
760.647	0.0130729
760.725	0.0131118
760.803	0.0129889
760.881	0.0130281
760.959	0.0130362
761.037	0.0130032
761.116	0.0128181
761.194	0.0129002
761.272	0.0131895
761.350	0.0130061
761.428	0.0129631
761.506	0.0131278
761.584	0.0128519
761.662	0.0129245
761.741	0.0130059
761.819	0.0130463
761.897	0.0130721
761.975	0.0130124
762.053	0.0131478
762.131	0.0128988
762.209	0.0130457
762.287	0.0130033
762.366	0.0130248
762.444	0.0132095
762.522	0.0131318
762.600	0.0130999
762.678	0.0130128
762.756	0.0131783
762.834	0.0130173
762.912	0.0129923
762.991	0.0131615
763.069	0.0130995
763.147	0.0131181
763.225	0.0129592
763.303	0.0129734
763.381	0.0129861
763.459	0.0130328
763.537	0.0131541
763.616	0.0130400
763.694	0.0130325
763.772	0.0129261
763.850	0.0129523
763.928	0.0131637
764.006	0.0130811
764.084	0.0130078
764.162	0.0130036
764.241	0.0130306
764.319	0.0130238
764.397	0.0130659
764.475	0.0130811
764.553	0.0130042
764.631	0.0131463
764.709	0.0130836
764.787	0.0129466
764.866	0.0130424
764.944	0.0131445
765.022	0.0130980
765.100	0.0131096
765.178	0.0129272
765.256	0.0129827
765.334	0.0131120
765.412	0.0130578
765.491	0.0129500
765.569	0.0128949
765.647	0.0130258
765.725	0.0129764
765.803	0.0130038
765.881	0.0130235
765.959	0.0131658
766.037	0.0130438
766.116	0.0130746
766.194	0.0130250
766.272	0.0130462
766.350	0.0129187
766.428	0.0131625
766.506	0.0130457
766.584	0.0129076
766.662	0.0130070
766.741	0.0130340
766.819	0.0131252
766.897	0.0129984
766.975	0.0129308
767.053	0.0130591
767.131	0.0129386
767.209	0.0130015
767.287	0.0131793
767.366	0.0130446
767.444	0.0129739
767.522	0.0130038
767.600	0.0131324
767.678	0.0129307
767.756	0.0128731
767.834	0.0131475
767.912	0.0129797
767.991	0.0130585
768.069	0.0129942
768.147	0.0130345
768.225	0.0131308
768.303	0.0130566
768.381	0.0129784
768.459	0.0130701
768.537	0.0130216
768.616	0.0131243
768.694	0.0132109
768.772	0.0130309
768.850	0.0130595
768.928	0.0131411
769.006	0.0130396
769.084	0.0129961
769.162	0.0130740
769.241	0.0130878
769.319	0.0130698
769.397	0.0132095
769.475	0.0131881
769.553	0.0130696
769.631	0.0130807
769.709	0.0131110
769.787	0.0130699
769.866	0.0130830
769.944	0.0130441
770.022	0.0131463
770.100	0.0129988
770.178	0.0131916
770.256	0.0132598
770.334	0.0132825
770.412	0.0131085
770.491	0.0130727
770.569	0.0130439
770.647	0.0130553
770.725	0.0131689
770.803	0.0130853
770.881	0.0130380
770.959	0.0130852
771.037	0.0130716
771.116	0.0131117
771.194	0.0130698
771.272	0.0130751
771.350	0.0131546
771.428	0.0129852
771.506	0.0130186
771.584	0.0131566
771.662	0.0131184
771.741	0.0131523
771.819	0.0130928
771.897	0.0130520
771.975	0.0129741
772.053	0.0131733
772.131	0.0130880
772.209	0.0130433
772.287	0.0131563
772.366	0.0130448
772.444	0.0130449
772.522	0.0131656
772.600	0.0130804
772.678	0.0131510
772.756	0.0131096
772.834	0.0131882
772.912	0.0131483
772.991	0.0129588
773.069	0.0132027
773.147	0.0131329
773.225	0.0129385
773.303	0.0130867
773.381	0.0130846
773.459	0.0130330
773.537	0.0130347
773.616	0.0130460
773.694	0.0130637
773.772	0.0131129
773.850	0.0131161
773.928	0.0131070
774.006	0.0131105
774.084	0.0130827
774.162	0.0131660
774.241	0.0131913
774.319	0.0132249
774.397	0.0130759
774.475	0.0132712
774.553	0.0132629
774.631	0.0130973
774.709	0.0131226
774.787	0.0130732
774.866	0.0130846
774.944	0.0130907
775.022	0.0131408
775.100	0.0130698
775.178	0.0131640
775.256	0.0129809
775.334	0.0131092
775.412	0.0130904
775.491	0.0131525
775.569	0.0130617
775.647	0.0130763
775.725	0.0131111
775.803	0.0130766
775.881	0.0130185
775.959	0.0130693
776.037	0.0132590
776.116	0.0130331
776.194	0.0130990
776.272	0.0131376
776.350	0.0130750
776.428	0.0129948
776.506	0.0130679
776.584	0.0131433
776.662	0.0131689
776.741	0.0131244
776.819	0.0130810
776.897	0.0131715
776.975	0.0131967
777.053	0.0131532
777.131	0.0129841
777.209	0.0130915
777.287	0.0131858
777.366	0.0131606
777.444	0.0131767
777.522	0.0131265
777.600	0.0131615
777.678	0.0132511
777.756	0.0130831
777.834	0.0131227
777.912	0.0130618
777.991	0.0132340
778.069	0.0130789
778.147	0.0131565
778.225	0.0130809
778.303	0.0131730
778.381	0.0130965
778.459	0.0130762
778.537	0.0130347
778.616	0.0131486
778.694	0.0129816
778.772	0.0131153
778.850	0.0132622
778.928	0.0132461
779.006	0.0131111
779.084	0.0131800
779.162	0.0132465
779.241	0.0131419
779.319	0.0133018
779.397	0.0132583
779.475	0.0132199
779.553	0.0132271
779.631	0.0130539
779.709	0.0132710
779.787	0.0133856
779.866	0.0132048
779.944	0.0131331
780.022	0.0130472
780.100	0.0131973
780.178	0.0132239
780.256	0.0132257
780.334	0.0130949
780.412	0.0130237
780.491	0.0131984
780.569	0.0131839
780.647	0.0131905
780.725	0.0130785
780.803	0.0131683
780.881	0.0132887
780.959	0.0131007
781.037	0.0129909
781.116	0.0129846
781.194	0.0132218
781.272	0.0131153
781.350	0.0131486
781.428	0.0130805
781.506	0.0129652
781.584	0.0131616
781.662	0.0130498
781.741	0.0130719
781.819	0.0129440
781.897	0.0130083
781.975	0.0131426
782.053	0.0130501
782.131	0.0131018
782.209	0.0129150
782.287	0.0130231
782.366	0.0131538
782.444	0.0129221
782.522	0.0130991
782.600	0.0130438
782.678	0.0131287
782.756	0.0131046
782.834	0.0130729
782.912	0.0131841
782.991	0.0131357
783.069	0.0131722
783.147	0.0130818
783.225	0.0129813
783.303	0.0130128
783.381	0.0130088
783.459	0.0129684
783.537	0.0130188
783.616	0.0129263
783.694	0.0130214
783.772	0.0131771
783.850	0.0131294
783.928	0.0130968
784.006	0.0131470
784.084	0.0129795
784.162	0.0130463
784.241	0.0131554
784.319	0.0129150
784.397	0.0132514
784.475	0.0131167
784.553	0.0131285
784.631	0.0132626
784.709	0.0131663
784.787	0.0130140
784.866	0.0130292
784.944	0.0131959
785.022	0.0131415
785.100	0.0131065
785.178	0.0130518
785.256	0.0130618
785.334	0.0131383
785.412	0.0130907
785.491	0.0129595
785.569	0.0130545
785.647	0.0130031
785.725	0.0130017
785.803	0.0131115
785.881	0.0130513
785.959	0.0129946
786.037	0.0131732
786.116	0.0131406
786.194	0.0129868
786.272	0.0130778
786.350	0.0130502
786.428	0.0131398
786.506	0.0130978
786.584	0.0129841
786.662	0.0130536
786.741	0.0131426
786.819	0.0130310
786.897	0.0131031
786.975	0.0129780
787.053	0.0131124
787.131	0.0130737
787.209	0.0130824
787.287	0.0130634
787.366	0.0130725
787.444	0.0133083
787.522	0.0131750
787.600	0.0130315
787.678	0.0132014
787.756	0.0132117
787.834	0.0131505
787.912	0.0130844
787.991	0.0130837
788.069	0.0131401
788.147	0.0131536
788.225	0.0129407
788.303	0.0129949
788.381	0.0130822
788.459	0.0130728
788.537	0.0129584
788.616	0.0129914
788.694	0.0130855
788.772	0.0132222
788.850	0.0130053
788.928	0.0130366
789.006	0.0131345
789.084	0.0130136
789.162	0.0129359
789.241	0.0131387
789.319	0.0131244
789.397	0.0129634
789.475	0.0129851
789.553	0.0130379
789.631	0.0130822
789.709	0.0130569
789.787	0.0129777
789.866	0.0129655
789.944	0.0130376
790.022	0.0130033
790.100	0.0129341
790.178	0.0129684
790.256	0.0130221
790.334	0.0129595
790.412	0.0130701
790.491	0.0130388
790.569	0.0129567
790.647	0.0130196
790.725	0.0130729
790.803	0.0130089
790.881	0.0131492
790.959	0.0130617
791.037	0.0130805
791.116	0.0131039
791.194	0.0131266
791.272	0.0130798
791.350	0.0129907
791.428	0.0130806
791.506	0.0130136
791.584	0.0130212
791.662	0.0131291
791.741	0.0130226
791.819	0.0131293
791.897	0.0130766
791.975	0.0131299
792.053	0.0129909
792.131	0.0128319
792.209	0.0129166
792.287	0.0131452
792.366	0.0129703
792.444	0.0129908
792.522	0.0130174
792.600	0.0130965
792.678	0.0128209
792.756	0.0128475
792.834	0.0130487
792.912	0.0129646
792.991	0.0129082
793.069	0.0130300
793.147	0.0129305
793.225	0.0129914
793.303	0.0130665
793.381	0.0129920
793.459	0.0129546
793.537	0.0129308
793.616	0.0131119
793.694	0.0128816
793.772	0.0129306
793.850	0.0129939
793.928	0.0131783
794.006	0.0131871
794.084	0.0130062
794.162	0.0131021
794.241	0.0130654
794.319	0.0130624
794.397	0.0130045
794.475	0.0128674
794.553	0.0130648
794.631	0.0130731
794.709	0.0131242
794.787	0.0130896
794.866	0.0131787
794.944	0.0131828
795.022	0.0131277
795.100	0.0131505
795.178	0.0131562
795.256	0.0130528
795.334	0.0131194
795.412	0.0131759
795.491	0.0131149
795.569	0.0131062
795.647	0.0130649
795.725	0.0131570
795.803	0.0130464
795.881	0.0132143
795.959	0.0131583
796.037	0.0130942
796.116	0.0130354
796.194	0.0132312
796.272	0.0130984
796.350	0.0131880
796.428	0.0131297
796.506	0.0129785
796.584	0.0130125
796.662	0.0131522
796.741	0.0129807
796.819	0.0131654
796.897	0.0131350
796.975	0.0129927
797.053	0.0129637
797.131	0.0130660
797.209	0.0131422
797.287	0.0130743
797.366	0.0129994
797.444	0.0129767
797.522	0.0131532
797.600	0.0131871
797.678	0.0129980
797.756	0.0130513
797.834	0.0130560
797.912	0.0129926
797.991	0.0130199
798.069	0.0129881
798.147	0.0130062
798.225	0.0130672
798.303	0.0130679
798.381	0.0129640
798.459	0.0131449
798.537	0.0130299
798.616	0.0129923
798.694	0.0131316
798.772	0.0130247
798.850	0.0130474
798.928	0.0130334
799.006	0.0130138
799.084	0.0130629
799.162	0.0131413
799.241	0.0130767
799.319	0.0130990
799.397	0.0131680
799.475	0.0130730
799.553	0.0132013
799.631	0.0133051
799.709	0.0131245
799.787	0.0131298
799.866	0.0131223
799.944	0.0131714
800.022	0.0130218
800.100	0.0129282
800.178	0.0130634
800.256	0.0131561
800.334	0.0130540
800.412	0.0130548
800.491	0.0131316
800.569	0.0130709
800.647	0.0130843
800.725	0.0130454
800.803	0.0131770
800.881	0.0130591
800.959	0.0130973
801.037	0.0131669
801.116	0.0133114
801.194	0.0131914
801.272	0.0132427
801.350	0.0131016
801.428	0.0131239
801.506	0.0129282
801.584	0.0131081
801.662	0.0132506
801.741	0.0132590
801.819	0.0132191
801.897	0.0130868
801.975	0.0131339
802.053	0.0131155
802.131	0.0131962
802.209	0.0130173
802.287	0.0130710
802.366	0.0131138
802.444	0.0129578
802.522	0.0129483
802.600	0.0130620
802.678	0.0130148
802.756	0.0130853
802.834	0.0130994
802.912	0.0130222
802.991	0.0130555
803.069	0.0130008
803.147	0.0130693
803.225	0.0130952
803.303	0.0129770
803.381	0.0131046
803.459	0.0130784
803.537	0.0128693
803.616	0.0129068
803.694	0.0130060
803.772	0.0131061
803.850	0.0129530
803.928	0.0129536
804.006	0.0130582
804.084	0.0130911
804.162	0.0128998
804.241	0.0130002
804.319	0.0129395
804.397	0.0129198
804.475	0.0128056
804.553	0.0129948
804.631	0.0130320
804.709	0.0130209
804.787	0.0129958
804.866	0.0130048
804.944	0.0129523
805.022	0.0130450
805.100	0.0131305
805.178	0.0129867
805.256	0.0129974
805.334	0.0129928
805.412	0.0129867
805.491	0.0129898
805.569	0.0131582
805.647	0.0131338
805.725	0.0131430
805.803	0.0129930
805.881	0.0130158
805.959	0.0129986
806.037	0.0129578
806.116	0.0130106
806.194	0.0131068
806.272	0.0129483
806.350	0.0130521
806.428	0.0130923
806.506	0.0130366
806.584	0.0129773
806.662	0.0130994
806.741	0.0132068
806.819	0.0130970
806.897	0.0130817
806.975	0.0131738
807.053	0.0129614
807.131	0.0129395
807.209	0.0131793
807.287	0.0130695
807.366	0.0131033
807.444	0.0132302
807.522	0.0131003
807.600	0.0129589
807.678	0.0131503
807.756	0.0130339
807.834	0.0131693
807.912	0.0132277
807.991	0.0131318
808.069	0.0130899
808.147	0.0130050
808.225	0.0130238
808.303	0.0130232
808.381	0.0129445
808.459	0.0130540
808.537	0.0131058
808.616	0.0131612
808.694	0.0130891
808.772	0.0129681
808.850	0.0130694
808.928	0.0130389
809.006	0.0129625
809.084	0.0130624
809.162	0.0130720
809.241	0.0130729
809.319	0.0131329
809.397	0.0131265
809.475	0.0130225
809.553	0.0131212
809.631	0.0132456
809.709	0.0131479
809.787	0.0130988
809.866	0.0130730
809.944	0.0131094
810.022	0.0131223
810.100	0.0130965
810.178	0.0130954
810.256	0.0129908
810.334	0.0129683
810.412	0.0130516
810.491	0.0130946
810.569	0.0131660
810.647	0.0130488
810.725	0.0130608
810.803	0.0130244
810.881	0.0129431
810.959	0.0131236
811.037	0.0132011
811.116	0.0130042
811.194	0.0131749
811.272	0.0130655
811.350	0.0129845
811.428	0.0130031
811.506	0.0130746
811.584	0.0131249
811.662	0.0131293
811.741	0.0130913
811.819	0.0131039
811.897	0.0130318
811.975	0.0131657
812.053	0.0130095
812.131	0.0130251
812.209	0.0131750
812.287	0.0131963
812.366	0.0129970
812.444	0.0131423
812.522	0.0132458
812.600	0.0131689
812.678	0.0130426
812.756	0.0129346
812.834	0.0131915
812.912	0.0130257
812.991	0.0130219
813.069	0.0129736
813.147	0.0131292
813.225	0.0130653
813.303	0.0130195
813.381	0.0130379
813.459	0.0130016
813.537	0.0130394
813.616	0.0130221
813.694	0.0131503
813.772	0.0130628
813.850	0.0130894
813.928	0.0130502
814.006	0.0130340
814.084	0.0131116
814.162	0.0130708
814.241	0.0130173
814.319	0.0129739
814.397	0.0129914
814.475	0.0130676
814.553	0.0131197
814.631	0.0130093
814.709	0.0130236
814.787	0.0131063
814.866	0.0130776
814.944	0.0129647
815.022	0.0130028
815.100	0.0131465
815.178	0.0130540
815.256	0.0130563
815.334	0.0130164
815.412	0.0130922
815.491	0.0130370
815.569	0.0130721
815.647	0.0130907
815.725	0.0129729
815.803	0.0130441
815.881	0.0131621
815.959	0.0129862
816.037	0.0131022
816.116	0.0129214
816.194	0.0128360
816.272	0.0130447
816.350	0.0130457
816.428	0.0129004
816.506	0.0129665
816.584	0.0129925
816.662	0.0130301
816.741	0.0130155
816.819	0.0129951
816.897	0.0129671
816.975	0.0129578
817.053	0.0130228
817.131	0.0128521
817.209	0.0129047
817.287	0.0129590
817.366	0.0129951
817.444	0.0130788
817.522	0.0128407
817.600	0.0129010
817.678	0.0131955
817.756	0.0127876
817.834	0.0130275
817.912	0.0129967
817.991	0.0129816
818.069	0.0129977
818.147	0.0129941
818.225	0.0131831
818.303	0.0130646
818.381	0.0130215
818.459	0.0129961
818.537	0.0130505
818.616	0.0129655
818.694	0.0130387
818.772	0.0130323
818.850	0.0128632
818.928	0.0128570
819.006	0.0129971
819.084	0.0130280
819.162	0.0129847
819.241	0.0130277
819.319	0.0128674
819.397	0.0128564
819.475	0.0129661
819.553	0.0129207
819.631	0.0130981
819.709	0.0130168
819.787	0.0129642
819.866	0.0128949
819.944	0.0128647
820.022	0.0130154
820.100	0.0130695
820.178	0.0128343
820.256	0.0129687
820.334	0.0130992
820.412	0.0131518
820.491	0.0131003
820.569	0.0129762
820.647	0.0129825
820.725	0.0130357
820.803	0.0130046
820.881	0.0130707
820.959	0.0130338
821.037	0.0129756
821.116	0.0130315
821.194	0.0131260
821.272	0.0131480
821.350	0.0131335
821.428	0.0131823
821.506	0.0129289
821.584	0.0130621
821.662	0.0132133
821.741	0.0129634
821.819	0.0129322
821.897	0.0131227
821.975	0.0130677
822.053	0.0130090
822.131	0.0131767
822.209	0.0130453
822.287	0.0129179
822.366	0.0129170
822.444	0.0129647
822.522	0.0131562
822.600	0.0131292
822.678	0.0130809
822.756	0.0131168
822.834	0.0129554
822.912	0.0130903
822.991	0.0131364
823.069	0.0130466
823.147	0.0130127
823.225	0.0128833
823.303	0.0129676
823.381	0.0130750
823.459	0.0131326
823.537	0.0129513
823.616	0.0130282
823.694	0.0129801
823.772	0.0131039
823.850	0.0131326
823.928	0.0132118
824.006	0.0128672
824.084	0.0130083
824.162	0.0131352
824.241	0.0131487
824.319	0.0130527
824.397	0.0129959
824.475	0.0129549
824.553	0.0129525
824.631	0.0129945
824.709	0.0129077
824.787	0.0129771
824.866	0.0129129
824.944	0.0130669
825.022	0.0129178
825.100	0.0128770
825.178	0.0130579
825.256	0.0130562
825.334	0.0129461
825.412	0.0129285
825.491	0.0129788
825.569	0.0129716
825.647	0.0129491
825.725	0.0131061
825.803	0.0130688
825.881	0.0130213
825.959	0.0129965
826.037	0.0131306
826.116	0.0130153
826.194	0.0128973
826.272	0.0130127
826.350	0.0130362
826.428	0.0129377
826.506	0.0130712
826.584	0.0130880
826.662	0.0131863
826.741	0.0130265
826.819	0.0130559
826.897	0.0131692
826.975	0.0130724
827.053	0.0130367
827.131	0.0130575
827.209	0.0129642
827.287	0.0131396
827.366	0.0129453
827.444	0.0129943
827.522	0.0129577
827.600	0.0130832
827.678	0.0131328
827.756	0.0130649
827.834	0.0129456
827.912	0.0130743
827.991	0.0131406
828.069	0.0128671
828.147	0.0129723
828.225	0.0130235
828.303	0.0130222
828.381	0.0129447
828.459	0.0131377
828.537	0.0130813
828.616	0.0130573
828.694	0.0131307
828.772	0.0130854
828.850	0.0130456
828.928	0.0131873
829.006	0.0131001
829.084	0.0130605
829.162	0.0131268
829.241	0.0131284
829.319	0.0131530
829.397	0.0129955
829.475	0.0130451
829.553	0.0131954
829.631	0.0131329
829.709	0.0130922
829.787	0.0131662
829.866	0.0130123
829.944	0.0131116
830.022	0.0131324
830.100	0.0131455
830.178	0.0130869
830.256	0.0130005
830.334	0.0131487
830.412	0.0130410
830.491	0.0131034
830.569	0.0131258
830.647	0.0130366
830.725	0.0130168
830.803	0.0130288
830.881	0.0130869
830.959	0.0130382
831.037	0.0129847
831.116	0.0129858
831.194	0.0131802
831.272	0.0130264
831.350	0.0129791
831.428	0.0129402
831.506	0.0129303
831.584	0.0130384
831.662	0.0129858
831.741	0.0130410
831.819	0.0129581
831.897	0.0130835
831.975	0.0131497
832.053	0.0130428
832.131	0.0129890
832.209	0.0130056
832.287	0.0129445
832.366	0.0130588
832.444	0.0130817
832.522	0.0130341
832.600	0.0129939
832.678	0.0130453
832.756	0.0130250
832.834	0.0130407
832.912	0.0130585
832.991	0.0130370
833.069	0.0130229
833.147	0.0130885
833.225	0.0130556
833.303	0.0130326
833.381	0.0131898
833.459	0.0130913
833.537	0.0130679
833.616	0.0131910
833.694	0.0129342
833.772	0.0130522
833.850	0.0130744
833.928	0.0130872
834.006	0.0130944
834.084	0.0130709
834.162	0.0129469
834.241	0.0130621
834.319	0.0130667
834.397	0.0130320
834.475	0.0131664
834.553	0.0131709
834.631	0.0130499
834.709	0.0131111
834.787	0.0131008
834.866	0.0130702
834.944	0.0131754
835.022	0.0131122
835.100	0.0131726
835.178	0.0131975
835.256	0.0131120
835.334	0.0131827
835.412	0.0131576
835.491	0.0131184
835.569	0.0131719
835.647	0.0132374
835.725	0.0130913
835.803	0.0130579
835.881	0.0131282
835.959	0.0131914
836.037	0.0132063
836.116	0.0130824
836.194	0.0131836
836.272	0.0131161
836.350	0.0130811
836.428	0.0130840
836.506	0.0131146
836.584	0.0131454
836.662	0.0129820
836.741	0.0131273
836.819	0.0131074
836.897	0.0131407
836.975	0.0129593
837.053	0.0131418
837.131	0.0131571
837.209	0.0131448
837.287	0.0131068
837.366	0.0131916
837.444	0.0130821
837.522	0.0132533
837.600	0.0132413
837.678	0.0131277
837.756	0.0132613
837.834	0.0132003
837.912	0.0131764
837.991	0.0132256
838.069	0.0130627
838.147	0.0131886
838.225	0.0132052
838.303	0.0131161
838.381	0.0129639
838.459	0.0131848
838.537	0.0132466
838.616	0.0131868
838.694	0.0132031
838.772	0.0131284
838.850	0.0131406
838.928	0.0130975
839.006	0.0131612
839.084	0.0130759
839.162	0.0131390
839.241	0.0131384
839.319	0.0130428
839.397	0.0131867
839.475	0.0131763
839.553	0.0130676
839.631	0.0130047
839.709	0.0132171
839.787	0.0130238
839.866	0.0129935
839.944	0.0131284
840.022	0.0131267
840.100	0.0132442
840.178	0.0131331
840.256	0.0132158
840.334	0.0131361
840.412	0.0129896
840.491	0.0130443
840.569	0.0130571
840.647	0.0131019
840.725	0.0129298
840.803	0.0131172
840.881	0.0130125
840.959	0.0129916
841.037	0.0132656
841.116	0.0132349
841.194	0.0130985
841.272	0.0132098
841.350	0.0131413
841.428	0.0131976
841.506	0.0130991
841.584	0.0129533
841.662	0.0131905
841.741	0.0131365
841.819	0.0131402
841.897	0.0131330
841.975	0.0132241
842.053	0.0131675
842.131	0.0132000
842.209	0.0130954
842.287	0.0131657
842.366	0.0131046
842.444	0.0131956
842.522	0.0130564
842.600	0.0132097
842.678	0.0131188
842.756	0.0130439
842.834	0.0129133
842.912	0.0131058
842.991	0.0131731
843.069	0.0131715
843.147	0.0132832
843.225	0.0132245
843.303	0.0131377
843.381	0.0131853
843.459	0.0131469
843.537	0.0131229
843.616	0.0132565
843.694	0.0131832
843.772	0.0131801
843.850	0.0132108
843.928	0.0132394
844.006	0.0131086
844.084	0.0131794
844.162	0.0132130
844.241	0.0131421
844.319	0.0131860
844.397	0.0131744
844.475	0.0131921
844.553	0.0132076
844.631	0.0130892
844.709	0.0131551
844.787	0.0131290
844.866	0.0132404
844.944	0.0132471
845.022	0.0131726
845.100	0.0131501
845.178	0.0130186
845.256	0.0131059
845.334	0.0131906
845.412	0.0131857
845.491	0.0130988
845.569	0.0131885
845.647	0.0130776
845.725	0.0130246
845.803	0.0130362
845.881	0.0131681
845.959	0.0132565
846.037	0.0131734
846.116	0.0131573
846.194	0.0131942
846.272	0.0130518
846.350	0.0130222
846.428	0.0132277
846.506	0.0131163
846.584	0.0131015
846.662	0.0131478
846.741	0.0130675
846.819	0.0131316
846.897	0.0131054
846.975	0.0131248
847.053	0.0130386
847.131	0.0130328
847.209	0.0130515
847.287	0.0132347
847.366	0.0131704
847.444	0.0131066
847.522	0.0131335
847.600	0.0132317
847.678	0.0130123
847.756	0.0130660
847.834	0.0131274
847.912	0.0130366
847.991	0.0130822
848.069	0.0129948
848.147	0.0131049
848.225	0.0130725
848.303	0.0130466
848.381	0.0130507
848.459	0.0130476
848.537	0.0131296
848.616	0.0130291
848.694	0.0129964
848.772	0.0131177
848.850	0.0131340
848.928	0.0129741
849.006	0.0129600
849.084	0.0129488
849.162	0.0131042
849.241	0.0130987
849.319	0.0130650
849.397	0.0130447
849.475	0.0131270
849.553	0.0131368
849.631	0.0130603
849.709	0.0130074
849.787	0.0131766
849.866	0.0131684
849.944	0.0130563
850.022	0.0130779
850.100	0.0130365
850.178	0.0131516
850.256	0.0131253
850.334	0.0131210
850.412	0.0130460
850.491	0.0131147
850.569	0.0130437
850.647	0.0130624
850.725	0.0130467
850.803	0.0131313
850.881	0.0131718
850.959	0.0131382
851.037	0.0130853
851.116	0.0130058
851.194	0.0131898
851.272	0.0129408
851.350	0.0131499
851.428	0.0131348
851.506	0.0131519
851.584	0.0132128
851.662	0.0131094
851.741	0.0131135
851.819	0.0130347
851.897	0.0131242
851.975	0.0132755
852.053	0.0132690
852.131	0.0130550
852.209	0.0131274
852.287	0.0131308
852.366	0.0131784
852.444	0.0132283
852.522	0.0130813
852.600	0.0131707
852.678	0.0131476
852.756	0.0130951
852.834	0.0131519
852.912	0.0131018
852.991	0.0132500
853.069	0.0131564
853.147	0.0130944
853.225	0.0130124
853.303	0.0130675
853.381	0.0130590
853.459	0.0131498
853.537	0.0131136
853.616	0.0132229
853.694	0.0131354
853.772	0.0131060
853.850	0.0131633
853.928	0.0130997
854.006	0.0131524
854.084	0.0131698
854.162	0.0131205
854.241	0.0131543
854.319	0.0133477
854.397	0.0131080
854.475	0.0130639
854.553	0.0131820
854.631	0.0131380
854.709	0.0130988
854.787	0.0130899
854.866	0.0131288
854.944	0.0131234
855.022	0.0131489
855.100	0.0132294
855.178	0.0129340
855.256	0.0131696
855.334	0.0131078
855.412	0.0130371
855.491	0.0131281
855.569	0.0130093
855.647	0.0133271
855.725	0.0131786
855.803	0.0131963
855.881	0.0131042
855.959	0.0131197
856.037	0.0131140
856.116	0.0131839
856.194	0.0130043
856.272	0.0130585
856.350	0.0130560
856.428	0.0131661
856.506	0.0131700
856.584	0.0130414
856.662	0.0130096
856.741	0.0130323
856.819	0.0131454
856.897	0.0130534
856.975	0.0130954
857.053	0.0130293
857.131	0.0130436
857.209	0.0131098
857.287	0.0130274
857.366	0.0130059
857.444	0.0131730
857.522	0.0131282
857.600	0.0131655
857.678	0.0129584
857.756	0.0130483
857.834	0.0130823
857.912	0.0131291
857.991	0.0131155
858.069	0.0130797
858.147	0.0131346
858.225	0.0131144
858.303	0.0131557
858.381	0.0130781
858.459	0.0130247
858.537	0.0130695
858.616	0.0130527
858.694	0.0129940
858.772	0.0130392
858.850	0.0131670
858.928	0.0130927
859.006	0.0130972
859.084	0.0131352
859.162	0.0129205
859.241	0.0130164
859.319	0.0131587
859.397	0.0131136
859.475	0.0131089
859.553	0.0130256
859.631	0.0128593
859.709	0.0129234
859.787	0.0129536
859.866	0.0130017
859.944	0.0130627
860.022	0.0130386
860.100	0.0130285
860.178	0.0129510
860.256	0.0129109
860.334	0.0130361
860.412	0.0130433
860.491	0.0129533
860.569	0.0128995
860.647	0.0128897
860.725	0.0129434
860.803	0.0130245
860.881	0.0130381
860.959	0.0129711
861.037	0.0130841
861.116	0.0130263
861.194	0.0129699
861.272	0.0130394
861.350	0.0129912
861.428	0.0130743
861.506	0.0129176
861.584	0.0130502
861.662	0.0130656
861.741	0.0131155
861.819	0.0130512
861.897	0.0131518
861.975	0.0129430
862.053	0.0130455
862.131	0.0131818
862.209	0.0131412
862.287	0.0131713
862.366	0.0130952
862.444	0.0131249
862.522	0.0131658
862.600	0.0130037
862.678	0.0129671
862.756	0.0131252
862.834	0.0131544
862.912	0.0131031
862.991	0.0132092
863.069	0.0131544
863.147	0.0131543
863.225	0.0131389
863.303	0.0131108
863.381	0.0130830
863.459	0.0131102
863.537	0.0130663
863.616	0.0130637
863.694	0.0131293
863.772	0.0132938
863.850	0.0130356
863.928	0.0130688
864.006	0.0130170
864.084	0.0131248
864.162	0.0131718
864.241	0.0131461
864.319	0.0131397
864.397	0.0131669
864.475	0.0131164
864.553	0.0130196
864.631	0.0130640
864.709	0.0130979
864.787	0.0131075
864.866	0.0131287
864.944	0.0131651
865.022	0.0130592
865.100	0.0130294
865.178	0.0131758
865.256	0.0130039
865.334	0.0131441
865.412	0.0132025
865.491	0.0131461
865.569	0.0130150
865.647	0.0131989
865.725	0.0130563
865.803	0.0132241
865.881	0.0131885
865.959	0.0131032
866.037	0.0132286
866.116	0.0130987
866.194	0.0132100
866.272	0.0130473
866.350	0.0129768
866.428	0.0131322
866.506	0.0132584
866.584	0.0132285
866.662	0.0130797
866.741	0.0129993
866.819	0.0131111
866.897	0.0131168
866.975	0.0130591
867.053	0.0130203
867.131	0.0130698
867.209	0.0131365
867.287	0.0130286
867.366	0.0130598
867.444	0.0130954
867.522	0.0130998
867.600	0.0131150
867.678	0.0131194
867.756	0.0132478
867.834	0.0130443
867.912	0.0129728
867.991	0.0130354
868.069	0.0131232
868.147	0.0129914
868.225	0.0130833
868.303	0.0132085
868.381	0.0130367
868.459	0.0131683
868.537	0.0130415
868.616	0.0130290
868.694	0.0129078
868.772	0.0130178
868.850	0.0131378
868.928	0.0130339
869.006	0.0131058
869.084	0.0131790
869.162	0.0130495
869.241	0.0130405
869.319	0.0131310
869.397	0.0129754
869.475	0.0130736
869.553	0.0132634
869.631	0.0130560
869.709	0.0131100
869.787	0.0130006
869.866	0.0131515
869.944	0.0131488
870.022	0.0131888
870.100	0.0130058
870.178	0.0131491
870.256	0.0130392
870.334	0.0130927
870.412	0.0131396
870.491	0.0130508
870.569	0.0130116
870.647	0.0130756
870.725	0.0131316
870.803	0.0130140
870.881	0.0131228
870.959	0.0131300
871.037	0.0131223
871.116	0.0130984
871.194	0.0129767
871.272	0.0130858
871.350	0.0129536
871.428	0.0131142
871.506	0.0131425
871.584	0.0129247
871.662	0.0129046
871.741	0.0131694
871.819	0.0131019
871.897	0.0130961
871.975	0.0130265
872.053	0.0130879
872.131	0.0129949
872.209	0.0129633
872.287	0.0129788
872.366	0.0130549
872.444	0.0130834
872.522	0.0131384
872.600	0.0131539
872.678	0.0129387
872.756	0.0130029
872.834	0.0128759
872.912	0.0131326
872.991	0.0131065
873.069	0.0129949
873.147	0.0131267
873.225	0.0130478
873.303	0.0131597
873.381	0.0131329
873.459	0.0131409
873.537	0.0131372
873.616	0.0130724
873.694	0.0130494
873.772	0.0130392
873.850	0.0130411
873.928	0.0129492
874.006	0.0130896
874.084	0.0131904
874.162	0.0131461
874.241	0.0131816
874.319	0.0130480
874.397	0.0130978
874.475	0.0131973
874.553	0.0132384
874.631	0.0130241
874.709	0.0130222
874.787	0.0131407
874.866	0.0131463
874.944	0.0130772
875.022	0.0130489
875.100	0.0129562
875.178	0.0130470
875.256	0.0131264
875.334	0.0131680
875.412	0.0130032
875.491	0.0131470
875.569	0.0131390
875.647	0.0131532
875.725	0.0130421
875.803	0.0132429
875.881	0.0130877
875.959	0.0131023
876.037	0.0130605
876.116	0.0131272
876.194	0.0130331
876.272	0.0131950
876.350	0.0131495
876.428	0.0130367
876.506	0.0130290
876.584	0.0129764
876.662	0.0132034
876.741	0.0130421
876.819	0.0130389
876.897	0.0129916
876.975	0.0131173
877.053	0.0131619
877.131	0.0129499
877.209	0.0130246
877.287	0.0129860
877.366	0.0131181
877.444	0.0131286
877.522	0.0130954
877.600	0.0130005
877.678	0.0129930
877.756	0.0130997
877.834	0.0131345
877.912	0.0131211
877.991	0.0131272
878.069	0.0131680
878.147	0.0131721
878.225	0.0131812
878.303	0.0130518
878.381	0.0129836
878.459	0.0129970
878.537	0.0130860
878.616	0.0130089
878.694	0.0131026
878.772	0.0129723
878.850	0.0130331
878.928	0.0130755
879.006	0.0130450
879.084	0.0130303
879.162	0.0130968
879.241	0.0129694
879.319	0.0131256
879.397	0.0130422
879.475	0.0128931
879.553	0.0129965
879.631	0.0130686
879.709	0.0130256
879.787	0.0128579
879.866	0.0129617
879.944	0.0130211
880.022	0.0129554
880.100	0.0128967
880.178	0.0130771
880.256	0.0130236
880.334	0.0129333
880.412	0.0129751
880.491	0.0129494
880.569	0.0128757
880.647	0.0130251
880.725	0.0129816
880.803	0.0129271
880.881	0.0130109
880.959	0.0128748
881.037	0.0129425
881.116	0.0129739
881.194	0.0129628
881.272	0.0128368
881.350	0.0128276
881.428	0.0129306
881.506	0.0130685
881.584	0.0131291
881.662	0.0129983
881.741	0.0130785
881.819	0.0129962
881.897	0.0130025
881.975	0.0130618
882.053	0.0130457
882.131	0.0130149
882.209	0.0128417
882.287	0.0128835
882.366	0.0128618
882.444	0.0128893
882.522	0.0129739
882.600	0.0130028
882.678	0.0130713
882.756	0.0130106
882.834	0.0128046
882.912	0.0128531
882.991	0.0130199
883.069	0.0128900
883.147	0.0128957
883.225	0.0128338
883.303	0.0129287
883.381	0.0129267
883.459	0.0130453
883.537	0.0128876
883.616	0.0129291
883.694	0.0130123
883.772	0.0129285
883.850	0.0129784
883.928	0.0128247
884.006	0.0128622
884.084	0.0130218
884.162	0.0129406
884.241	0.0127480
884.319	0.0128094
884.397	0.0130282
884.475	0.0129142
884.553	0.0129522
884.631	0.0127995
884.709	0.0129292
884.787	0.0128044
884.866	0.0128120
884.944	0.0129041
885.022	0.0129320
885.100	0.0130152
885.178	0.0127959
885.256	0.0130182
885.334	0.0131506
885.412	0.0130968
885.491	0.0129934
885.569	0.0130307
885.647	0.0130705
885.725	0.0130057
885.803	0.0130029
885.881	0.0131801
885.959	0.0130505
886.037	0.0130470
886.116	0.0129992
886.194	0.0131646
886.272	0.0131255
886.350	0.0130050
886.428	0.0130820
886.506	0.0129851
886.584	0.0129415
886.662	0.0130408
886.741	0.0130940
886.819	0.0130933
886.897	0.0129761
886.975	0.0129477
887.053	0.0130298
887.131	0.0131631
887.209	0.0129088
887.287	0.0130657
887.366	0.0130969
887.444	0.0132031
887.522	0.0129826
887.600	0.0130488
887.678	0.0131498
887.756	0.0131864
887.834	0.0131330
887.912	0.0131287
887.991	0.0130693
888.069	0.0130548
888.147	0.0130025
888.225	0.0131870
888.303	0.0129057
888.381	0.0131187
888.459	0.0131355
888.537	0.0131219
888.616	0.0131758
888.694	0.0131871
888.772	0.0131308
888.850	0.0130614
888.928	0.0130276
889.006	0.0132027
889.084	0.0132565
889.162	0.0130333
889.241	0.0130763
889.319	0.0130436
889.397	0.0130814
889.475	0.0130567
889.553	0.0129319
889.631	0.0131087
889.709	0.0131225
889.787	0.0131413
889.866	0.0131783
889.944	0.0130521
890.022	0.0132298
890.100	0.0131743
890.178	0.0129393
890.256	0.0130219
890.334	0.0130449
890.412	0.0129241
890.491	0.0129738
890.569	0.0130184
890.647	0.0130851
890.725	0.0131734
890.803	0.0129166
890.881	0.0131023
890.959	0.0129095
891.037	0.0130444
891.116	0.0130718
891.194	0.0129570
891.272	0.0128757
891.350	0.0129072
891.428	0.0130270
891.506	0.0130402
891.584	0.0129951
891.662	0.0128992
891.741	0.0130012
891.819	0.0130553
891.897	0.0130370
891.975	0.0130670
892.053	0.0130481
892.131	0.0129699
892.209	0.0129517
892.287	0.0129335
892.366	0.0130585
892.444	0.0128914
892.522	0.0129238
892.600	0.0130112
892.678	0.0130679
892.756	0.0131786
892.834	0.0129738
892.912	0.0130420
892.991	0.0130581
893.069	0.0131111
893.147	0.0128959
893.225	0.0131731
893.303	0.0131278
893.381	0.0131197
893.459	0.0130422
893.537	0.0130499
893.616	0.0130625
893.694	0.0129846
893.772	0.0130668
893.850	0.0131174
893.928	0.0128712
894.006	0.0129853
894.084	0.0130359
894.162	0.0131273
894.241	0.0131049
894.319	0.0130841
894.397	0.0131534
894.475	0.0130676
894.553	0.0130010
894.631	0.0131554
894.709	0.0129536
894.787	0.0129897
894.866	0.0131776
894.944	0.0131738
895.022	0.0131312
895.100	0.0131214
895.178	0.0131613
895.256	0.0131411
895.334	0.0130169
895.412	0.0129906
895.491	0.0130683
895.569	0.0129685
895.647	0.0130785
895.725	0.0130302
895.803	0.0129572
895.881	0.0130276
895.959	0.0130618
896.037	0.0129801
896.116	0.0128291
896.194	0.0130479
896.272	0.0129791
896.350	0.0131458
896.428	0.0130942
896.506	0.0131386
896.584	0.0130338
896.662	0.0130431
896.741	0.0130688
896.819	0.0130262
896.897	0.0130136
896.975	0.0130910
897.053	0.0130814
897.131	0.0129388
897.209	0.0129531
897.287	0.0129786
897.366	0.0128722
897.444	0.0130956
897.522	0.0129681
897.600	0.0129089
897.678	0.0129623
897.756	0.0129578
897.834	0.0129697
897.912	0.0129224
897.991	0.0128432
898.069	0.0130791
898.147	0.0130181
898.225	0.0128864
898.303	0.0129099
898.381	0.0130463
898.459	0.0130748
898.537	0.0129610
898.616	0.0130343
898.694	0.0129947
898.772	0.0130135
898.850	0.0130141
898.928	0.0129977
899.006	0.0129469
899.084	0.0129145
899.162	0.0130234
899.241	0.0130241
899.319	0.0129884
899.397	0.0130454
899.475	0.0128422
899.553	0.0129889
899.631	0.0129238
899.709	0.0128797
899.787	0.0130148
899.866	0.0131347
899.944	0.0129202
900.022	0.0128458
900.100	0.0129236
900.178	0.0128715
900.256	0.0129769
900.334	0.0129929
900.412	0.0129877
900.491	0.0129955
900.569	0.0129836
900.647	0.0131979
900.725	0.0130214
900.803	0.0130421
900.881	0.0131024
900.959	0.0131131
901.037	0.0131408
901.116	0.0128886
901.194	0.0130736
901.272	0.0130251
901.350	0.0129812
901.428	0.0129331
901.506	0.0128950
901.584	0.0128294
901.662	0.0129133
901.741	0.0130472
901.819	0.0129749
901.897	0.0129732
901.975	0.0129086
902.053	0.0129725
902.131	0.0128694
902.209	0.0129962
902.287	0.0131116
902.366	0.0130319
902.444	0.0130709
902.522	0.0130778
902.600	0.0129078
902.678	0.0129655
902.756	0.0130000
902.834	0.0130504
902.912	0.0129333
902.991	0.0129253
903.069	0.0130608
903.147	0.0129954
903.225	0.0129548
903.303	0.0128274
903.381	0.0130018
903.459	0.0129964
903.537	0.0128768
903.616	0.0129401
903.694	0.0130179
903.772	0.0130659
903.850	0.0130838
903.928	0.0129025
904.006	0.0129179
904.084	0.0129707
904.162	0.0129859
904.241	0.0129909
904.319	0.0130028
904.397	0.0129425
904.475	0.0129533
904.553	0.0130953
904.631	0.0130874
904.709	0.0131300
904.787	0.0130527
904.866	0.0131011
904.944	0.0130512
905.022	0.0130995
905.100	0.0130859
905.178	0.0131216
905.256	0.0130113
905.334	0.0129913
905.412	0.0129589
905.491	0.0129897
905.569	0.0130035
905.647	0.0130200
905.725	0.0130028
905.803	0.0128224
905.881	0.0129761
905.959	0.0129547
906.037	0.0130053
906.116	0.0130933
906.194	0.0129395
906.272	0.0129028
906.350	0.0129236
906.428	0.0130481
906.506	0.0129122
906.584	0.0129352
906.662	0.0130213
906.741	0.0129626
906.819	0.0130999
906.897	0.0130087
906.975	0.0129231
907.053	0.0131285
907.131	0.0130383
907.209	0.0128262
907.287	0.0130656
907.366	0.0130750
907.444	0.0130524
907.522	0.0130201
907.600	0.0130367
907.678	0.0129469
907.756	0.0129957
907.834	0.0129173
907.912	0.0129078
907.991	0.0128756
908.069	0.0129735
908.147	0.0130163
908.225	0.0130182
908.303	0.0129647
908.381	0.0130213
908.459	0.0130292
908.537	0.0128782
908.616	0.0129630
908.694	0.0130280
908.772	0.0129575
908.850	0.0130387
908.928	0.0129977
909.006	0.0130478
909.084	0.0130258
909.162	0.0129603
909.241	0.0129559
909.319	0.0129052
909.397	0.0128204
909.475	0.0129407
909.553	0.0130632
909.631	0.0129857
909.709	0.0129485
909.787	0.0128978
909.866	0.0130022
909.944	0.0129978
910.022	0.0128725
910.100	0.0129221
910.178	0.0128870
910.256	0.0128172
910.334	0.0130050
910.412	0.0129175
910.491	0.0129993
910.569	0.0130122
910.647	0.0130977
910.725	0.0129684
910.803	0.0129698
910.881	0.0129433
910.959	0.0130595
911.037	0.0130811
911.116	0.0130276
911.194	0.0129770
911.272	0.0131207
911.350	0.0129166
911.428	0.0131168
911.506	0.0130900
911.584	0.0129595
911.662	0.0130041
911.741	0.0130283
911.819	0.0130885
911.897	0.0129838
911.975	0.0129044
912.053	0.0128701
912.131	0.0128686
912.209	0.0130398
912.287	0.0130465
912.366	0.0130350
912.444	0.0128700
912.522	0.0129340
912.600	0.0131311
912.678	0.0131641
912.756	0.0132620
912.834	0.0130917
912.912	0.0130163
912.991	0.0130513
913.069	0.0130720
913.147	0.0131680
913.225	0.0132304
913.303	0.0131029
913.381	0.0132291
913.459	0.0132595
913.537	0.0131860
913.616	0.0130240
913.694	0.0129372
913.772	0.0129797
913.850	0.0132764
913.928	0.0133277
914.006	0.0131668
914.084	0.0129909
914.162	0.0132139
914.241	0.0132848
914.319	0.0132230
914.397	0.0132320
914.475	0.0129892
914.553	0.0131133
914.631	0.0131709
914.709	0.0132027
914.787	0.0131593
914.866	0.0131150
914.944	0.0131134
915.022	0.0131863
915.100	0.0131989
915.178	0.0131933
915.256	0.0133007
915.334	0.0130647
915.412	0.0131215
915.491	0.0130383
915.569	0.0130601
915.647	0.0131602
915.725	0.0131499
915.803	0.0130314
915.881	0.0130151
915.959	0.0130421
916.037	0.0131308
916.116	0.0130903
916.194	0.0130291
916.272	0.0130409
916.350	0.0131339
916.428	0.0131140
916.506	0.0130945
916.584	0.0131225
916.662	0.0131109
916.741	0.0131685
916.819	0.0130817
916.897	0.0131223
916.975	0.0131650
917.053	0.0132191
917.131	0.0131181
917.209	0.0130618
917.287	0.0131560
917.366	0.0131183
917.444	0.0130946
917.522	0.0131468
917.600	0.0130579
917.678	0.0130181
917.756	0.0130627
917.834	0.0131498
917.912	0.0129331
917.991	0.0131075
918.069	0.0130835
918.147	0.0131717
918.225	0.0130547
918.303	0.0131284
918.381	0.0129739
918.459	0.0130673
918.537	0.0131306
918.616	0.0130632
918.694	0.0130678
918.772	0.0129589
918.850	0.0129919
918.928	0.0130394
919.006	0.0132339
919.084	0.0131908
919.162	0.0130875
919.241	0.0130660
919.319	0.0130996
919.397	0.0130585
919.475	0.0131291
919.553	0.0132015
919.631	0.0131300
919.709	0.0131703
919.787	0.0131753
919.866	0.0130721
919.944	0.0130922
