05/06/2022	18:42:08	Ver.	4.1	UNKNOWN
Optical Delay	600.021766	Delta X		0.078125	Sweeps	1	Scan Rate	0/0
Coordinates	Axis 1	NaN	Axis 2	NaN	Axis 3	NaN	Axis 4	NaN	Axis 5	NaN	Axis 6	0.000000
TX Power	0.000000	RX Power	0.000000

600.022	0.0130124
600.100	0.0130738
600.178	0.0129996
600.256	0.0129638
600.334	0.0130502
600.412	0.0131070
600.491	0.0131327
600.569	0.0130720
600.647	0.0129392
600.725	0.0130853
600.803	0.0129742
600.881	0.0131024
600.959	0.0127876
601.037	0.0129904
601.116	0.0130739
601.194	0.0130217
601.272	0.0129829
601.350	0.0130121
601.428	0.0130713
601.506	0.0129313
601.584	0.0130229
601.662	0.0131862
601.741	0.0129347
601.819	0.0129372
601.897	0.0130070
601.975	0.0130953
602.053	0.0128775
602.131	0.0129668
602.209	0.0130569
602.287	0.0130588
602.366	0.0130592
602.444	0.0130117
602.522	0.0131487
602.600	0.0130135
602.678	0.0130125
602.756	0.0129824
602.834	0.0129742
602.912	0.0131592
602.991	0.0130734
603.069	0.0131687
603.147	0.0131326
603.225	0.0130389
603.303	0.0130129
603.381	0.0131670
603.459	0.0131496
603.537	0.0130978
603.616	0.0130981
603.694	0.0130984
603.772	0.0130531
603.850	0.0130494
603.928	0.0130424
604.006	0.0129809
604.084	0.0131866
604.162	0.0131844
604.241	0.0129833
604.319	0.0129926
604.397	0.0130638
604.475	0.0130821
604.553	0.0129298
604.631	0.0129115
604.709	0.0128956
604.787	0.0130450
604.866	0.0130776
604.944	0.0130402
605.022	0.0130104
605.100	0.0130544
605.178	0.0129505
605.256	0.0131300
605.334	0.0130029
605.412	0.0130049
605.491	0.0130717
605.569	0.0129686
605.647	0.0130287
605.725	0.0130520
605.803	0.0130766
605.881	0.0130392
605.959	0.0130184
606.037	0.0130793
606.116	0.0131389
606.194	0.0131126
606.272	0.0130576
606.350	0.0130250
606.428	0.0131124
606.506	0.0131037
606.584	0.0131487
606.662	0.0131137
606.741	0.0130346
606.819	0.0130819
606.897	0.0130971
606.975	0.0131175
607.053	0.0130663
607.131	0.0130986
607.209	0.0131240
607.287	0.0131241
607.366	0.0129782
607.444	0.0130202
607.522	0.0129329
607.600	0.0129595
607.678	0.0130277
607.756	0.0130436
607.834	0.0130054
607.912	0.0131214
607.991	0.0132872
608.069	0.0129788
608.147	0.0129563
608.225	0.0130452
608.303	0.0128275
608.381	0.0129490
608.459	0.0130494
608.537	0.0130980
608.616	0.0129420
608.694	0.0129892
608.772	0.0130058
608.850	0.0131078
608.928	0.0130215
609.006	0.0129614
609.084	0.0129847
609.162	0.0129929
609.241	0.0130743
609.319	0.0130437
609.397	0.0131344
609.475	0.0129379
609.553	0.0129838
609.631	0.0129361
609.709	0.0130251
609.787	0.0129565
609.866	0.0129012
609.944	0.0130676
610.022	0.0130731
610.100	0.0129937
610.178	0.0129968
610.256	0.0129249
610.334	0.0129690
610.412	0.0130019
610.491	0.0130238
610.569	0.0130938
610.647	0.0130259
610.725	0.0131314
610.803	0.0130165
610.881	0.0128986
610.959	0.0130093
611.037	0.0129891
611.116	0.0130467
611.194	0.0130299
611.272	0.0130613
611.350	0.0129324
611.428	0.0130441
611.506	0.0129952
611.584	0.0130106
611.662	0.0131270
611.741	0.0130712
611.819	0.0130237
611.897	0.0130051
611.975	0.0130015
612.053	0.0129697
612.131	0.0129964
612.209	0.0130004
612.287	0.0130038
612.366	0.0128577
612.444	0.0129543
612.522	0.0130251
612.600	0.0129087
612.678	0.0129870
612.756	0.0130220
612.834	0.0130838
612.912	0.0129704
612.991	0.0130282
613.069	0.0129906
613.147	0.0130599
613.225	0.0130579
613.303	0.0131100
613.381	0.0130626
613.459	0.0129427
613.537	0.0129890
613.616	0.0129691
613.694	0.0130209
613.772	0.0129897
613.850	0.0129519
613.928	0.0130048
614.006	0.0130285
614.084	0.0131348
614.162	0.0129926
614.241	0.0130508
614.319	0.0130640
614.397	0.0129606
614.475	0.0130558
614.553	0.0129789
614.631	0.0130875
614.709	0.0130757
614.787	0.0129474
614.866	0.0130313
614.944	0.0130666
615.022	0.0129503
615.100	0.0129842
615.178	0.0129659
615.256	0.0131512
615.334	0.0130379
615.412	0.0130122
615.491	0.0130317
615.569	0.0129035
615.647	0.0129981
615.725	0.0130485
615.803	0.0130407
615.881	0.0129725
615.959	0.0129684
616.037	0.0130754
616.116	0.0129694
616.194	0.0131440
616.272	0.0131123
616.350	0.0128468
616.428	0.0129565
616.506	0.0130193
616.584	0.0129806
616.662	0.0129792
616.741	0.0129764
616.819	0.0131345
616.897	0.0130392
616.975	0.0129959
617.053	0.0129740
617.131	0.0131110
617.209	0.0129955
617.287	0.0129737
617.366	0.0129816
617.444	0.0129643
617.522	0.0130018
617.600	0.0130826
617.678	0.0130718
617.756	0.0131193
617.834	0.0131864
617.912	0.0130761
617.991	0.0130190
618.069	0.0130081
618.147	0.0129849
618.225	0.0130552
618.303	0.0129265
618.381	0.0130140
618.459	0.0129951
618.537	0.0130585
618.616	0.0130788
618.694	0.0131216
618.772	0.0128906
618.850	0.0130225
618.928	0.0130697
619.006	0.0130475
619.084	0.0129837
619.162	0.0129880
619.241	0.0130072
619.319	0.0131028
619.397	0.0131030
619.475	0.0131615
619.553	0.0131062
619.631	0.0130056
619.709	0.0128745
619.787	0.0131006
619.866	0.0130311
619.944	0.0129970
620.022	0.0130775
620.100	0.0131702
620.178	0.0129977
620.256	0.0129669
620.334	0.0130018
620.412	0.0130076
620.491	0.0130579
620.569	0.0130502
620.647	0.0132001
620.725	0.0131469
620.803	0.0130556
620.881	0.0130686
620.959	0.0129681
621.037	0.0129446
621.116	0.0128267
621.194	0.0130521
621.272	0.0130894
621.350	0.0131070
621.428	0.0129921
621.506	0.0130235
621.584	0.0130096
621.662	0.0130854
621.741	0.0131352
621.819	0.0129367
621.897	0.0129783
621.975	0.0130150
622.053	0.0130757
622.131	0.0129695
622.209	0.0129187
622.287	0.0130104
622.366	0.0130824
622.444	0.0130365
622.522	0.0130456
622.600	0.0129269
622.678	0.0130778
622.756	0.0130219
622.834	0.0129598
622.912	0.0129021
622.991	0.0129781
623.069	0.0129784
623.147	0.0130531
623.225	0.0130759
623.303	0.0131750
623.381	0.0130350
623.459	0.0130591
623.537	0.0129820
623.616	0.0129841
623.694	0.0130742
623.772	0.0130464
623.850	0.0131384
623.928	0.0129610
624.006	0.0129136
624.084	0.0130647
624.162	0.0130120
624.241	0.0130264
624.319	0.0131631
624.397	0.0130903
624.475	0.0130665
624.553	0.0129555
624.631	0.0130739
624.709	0.0130403
624.787	0.0130984
624.866	0.0130996
624.944	0.0130977
625.022	0.0130447
625.100	0.0131593
625.178	0.0131828
625.256	0.0130179
625.334	0.0130413
625.412	0.0129834
625.491	0.0129845
625.569	0.0130504
625.647	0.0129888
625.725	0.0130550
625.803	0.0131297
625.881	0.0130602
625.959	0.0129960
626.037	0.0130246
626.116	0.0129241
626.194	0.0130432
626.272	0.0130390
626.350	0.0131312
626.428	0.0131393
626.506	0.0128577
626.584	0.0129193
626.662	0.0129491
626.741	0.0130991
626.819	0.0130870
626.897	0.0130195
626.975	0.0131069
627.053	0.0130928
627.131	0.0130609
627.209	0.0131118
627.287	0.0130526
627.366	0.0130320
627.444	0.0130439
627.522	0.0129998
627.600	0.0130595
627.678	0.0130927
627.756	0.0130093
627.834	0.0131155
627.912	0.0129556
627.991	0.0130429
628.069	0.0130630
628.147	0.0129417
628.225	0.0130041
628.303	0.0129588
628.381	0.0131215
628.459	0.0130730
628.537	0.0131411
628.616	0.0129795
628.694	0.0130946
628.772	0.0131293
628.850	0.0130585
628.928	0.0130653
629.006	0.0130069
629.084	0.0130682
629.162	0.0130093
629.241	0.0128993
629.319	0.0130173
629.397	0.0131819
629.475	0.0130714
629.553	0.0130298
629.631	0.0130721
629.709	0.0131001
629.787	0.0130093
629.866	0.0129985
629.944	0.0130770
630.022	0.0129958
630.100	0.0130592
630.178	0.0132205
630.256	0.0130413
630.334	0.0130654
630.412	0.0131419
630.491	0.0131065
630.569	0.0129993
630.647	0.0131143
630.725	0.0130163
630.803	0.0130331
630.881	0.0130657
630.959	0.0131235
631.037	0.0130385
631.116	0.0130502
631.194	0.0129520
631.272	0.0129005
631.350	0.0130178
631.428	0.0130291
631.506	0.0131325
631.584	0.0131333
631.662	0.0130584
631.741	0.0130231
631.819	0.0130467
631.897	0.0131440
631.975	0.0130701
632.053	0.0130476
632.131	0.0130257
632.209	0.0131019
632.287	0.0131084
632.366	0.0130289
632.444	0.0131632
632.522	0.0131157
632.600	0.0129559
632.678	0.0130033
632.756	0.0130141
632.834	0.0129874
632.912	0.0130811
632.991	0.0129108
633.069	0.0130106
633.147	0.0130017
633.225	0.0132072
633.303	0.0131322
633.381	0.0130070
633.459	0.0130125
633.537	0.0131998
633.616	0.0130415
633.694	0.0130104
633.772	0.0130524
633.850	0.0129929
633.928	0.0130425
634.006	0.0129961
634.084	0.0130783
634.162	0.0130871
634.241	0.0129343
634.319	0.0129941
634.397	0.0128898
634.475	0.0130051
634.553	0.0131651
634.631	0.0130412
634.709	0.0130148
634.787	0.0129647
634.866	0.0129683
634.944	0.0131055
635.022	0.0129843
635.100	0.0130278
635.178	0.0129535
635.256	0.0131233
635.334	0.0130184
635.412	0.0130349
635.491	0.0130621
635.569	0.0130333
635.647	0.0130056
635.725	0.0130427
635.803	0.0129666
635.881	0.0130249
635.959	0.0130701
636.037	0.0131519
636.116	0.0131355
636.194	0.0130766
636.272	0.0131791
636.350	0.0130072
636.428	0.0129690
636.506	0.0129916
636.584	0.0130711
636.662	0.0129265
636.741	0.0129853
636.819	0.0131230
636.897	0.0130898
636.975	0.0129354
637.053	0.0129072
637.131	0.0130651
637.209	0.0129601
637.287	0.0132221
637.366	0.0130663
637.444	0.0129980
637.522	0.0130442
637.600	0.0129134
637.678	0.0130507
637.756	0.0130647
637.834	0.0130479
637.912	0.0129823
637.991	0.0131254
638.069	0.0130454
638.147	0.0129328
638.225	0.0131273
638.303	0.0129676
638.381	0.0130490
638.459	0.0131186
638.537	0.0131774
638.616	0.0131970
638.694	0.0131207
638.772	0.0129578
638.850	0.0131059
638.928	0.0129945
639.006	0.0129477
639.084	0.0129280
639.162	0.0131052
639.241	0.0131106
639.319	0.0130238
639.397	0.0130157
639.475	0.0130378
639.553	0.0129601
639.631	0.0130711
639.709	0.0129626
639.787	0.0128786
639.866	0.0129917
639.944	0.0130463
640.022	0.0130739
640.100	0.0130140
640.178	0.0131728
640.256	0.0129761
640.334	0.0130708
640.412	0.0131467
640.491	0.0129891
640.569	0.0130064
640.647	0.0129520
640.725	0.0130445
640.803	0.0129859
640.881	0.0129714
640.959	0.0129549
641.037	0.0131226
641.116	0.0131775
641.194	0.0130360
641.272	0.0131033
641.350	0.0131749
641.428	0.0130406
641.506	0.0129211
641.584	0.0129899
641.662	0.0128470
641.741	0.0129665
641.819	0.0131049
641.897	0.0130392
641.975	0.0130592
642.053	0.0130462
642.131	0.0130301
642.209	0.0130233
642.287	0.0130233
642.366	0.0130318
642.444	0.0130265
642.522	0.0131715
642.600	0.0130670
642.678	0.0130358
642.756	0.0130399
642.834	0.0129993
642.912	0.0130087
642.991	0.0130018
643.069	0.0130422
643.147	0.0130260
643.225	0.0130144
643.303	0.0130283
643.381	0.0129719
643.459	0.0129987
643.537	0.0129862
643.616	0.0131895
643.694	0.0129961
643.772	0.0130106
643.850	0.0129874
643.928	0.0129520
644.006	0.0129926
644.084	0.0129955
644.162	0.0131106
644.241	0.0129446
644.319	0.0128669
644.397	0.0129498
644.475	0.0130453
644.553	0.0131290
644.631	0.0130148
644.709	0.0130150
644.787	0.0131940
644.866	0.0129927
644.944	0.0131086
645.022	0.0129256
645.100	0.0128574
645.178	0.0130392
645.256	0.0130685
645.334	0.0129411
645.412	0.0129314
645.491	0.0130427
645.569	0.0130492
645.647	0.0129326
645.725	0.0131342
645.803	0.0130027
645.881	0.0130575
645.959	0.0130682
646.037	0.0131399
646.116	0.0129906
646.194	0.0131461
646.272	0.0130701
646.350	0.0129896
646.428	0.0130339
646.506	0.0129990
646.584	0.0129627
646.662	0.0131601
646.741	0.0129836
646.819	0.0129876
646.897	0.0131303
646.975	0.0130054
647.053	0.0129415
647.131	0.0130617
647.209	0.0129774
647.287	0.0130666
647.366	0.0130563
647.444	0.0130115
647.522	0.0129842
647.600	0.0128936
647.678	0.0129132
647.756	0.0130589
647.834	0.0130038
647.912	0.0129656
647.991	0.0130136
648.069	0.0130119
648.147	0.0129865
648.225	0.0130260
648.303	0.0130426
648.381	0.0129959
648.459	0.0129507
648.537	0.0130338
648.616	0.0130378
648.694	0.0130206
648.772	0.0128901
648.850	0.0131168
648.928	0.0130390
649.006	0.0130255
649.084	0.0130373
649.162	0.0130214
649.241	0.0129424
649.319	0.0130035
649.397	0.0131508
649.475	0.0131074
649.553	0.0130719
649.631	0.0130563
649.709	0.0129478
649.787	0.0129748
649.866	0.0130789
649.944	0.0130507
650.022	0.0130062
650.100	0.0128995
650.178	0.0129462
650.256	0.0131387
650.334	0.0131379
650.412	0.0129926
650.491	0.0129774
650.569	0.0130117
650.647	0.0132350
650.725	0.0130045
650.803	0.0131451
650.881	0.0130141
650.959	0.0129848
651.037	0.0130499
651.116	0.0130642
651.194	0.0131413
651.272	0.0131190
651.350	0.0130630
651.428	0.0130257
651.506	0.0131798
651.584	0.0131534
651.662	0.0129779
651.741	0.0130221
651.819	0.0130872
651.897	0.0130482
651.975	0.0129387
652.053	0.0128967
652.131	0.0130843
652.209	0.0131402
652.287	0.0130386
652.366	0.0130440
652.444	0.0130042
652.522	0.0130212
652.600	0.0131094
652.678	0.0130649
652.756	0.0130026
652.834	0.0131165
652.912	0.0131823
652.991	0.0130418
653.069	0.0129414
653.147	0.0129939
653.225	0.0130161
653.303	0.0129843
653.381	0.0129648
653.459	0.0129736
653.537	0.0131085
653.616	0.0130101
653.694	0.0130527
653.772	0.0131274
653.850	0.0130103
653.928	0.0131263
654.006	0.0131720
654.084	0.0130615
654.162	0.0130524
654.241	0.0130157
654.319	0.0132347
654.397	0.0128989
654.475	0.0129652
654.553	0.0130267
654.631	0.0130272
654.709	0.0132019
654.787	0.0131656
654.866	0.0130543
654.944	0.0130625
655.022	0.0131630
655.100	0.0129588
655.178	0.0130669
655.256	0.0130734
655.334	0.0130408
655.412	0.0129881
655.491	0.0130858
655.569	0.0131467
655.647	0.0130970
655.725	0.0131438
655.803	0.0131747
655.881	0.0132230
655.959	0.0130155
656.037	0.0130217
656.116	0.0130771
656.194	0.0131385
656.272	0.0131295
656.350	0.0129723
656.428	0.0131406
656.506	0.0131883
656.584	0.0130509
656.662	0.0130753
656.741	0.0129975
656.819	0.0131858
656.897	0.0131103
656.975	0.0132061
657.053	0.0131024
657.131	0.0131335
657.209	0.0130412
657.287	0.0130785
657.366	0.0129864
657.444	0.0129546
657.522	0.0130232
657.600	0.0130913
657.678	0.0131447
657.756	0.0130259
657.834	0.0131299
657.912	0.0129905
657.991	0.0130452
658.069	0.0131371
658.147	0.0130814
658.225	0.0129922
658.303	0.0128901
658.381	0.0131234
658.459	0.0129987
658.537	0.0129929
658.616	0.0129441
658.694	0.0130286
658.772	0.0130439
658.850	0.0130608
658.928	0.0129785
659.006	0.0129735
659.084	0.0129946
659.162	0.0130637
659.241	0.0131174
659.319	0.0130145
659.397	0.0129266
659.475	0.0130045
659.553	0.0130650
659.631	0.0130962
659.709	0.0130404
659.787	0.0129378
659.866	0.0129800
659.944	0.0129303
660.022	0.0131456
660.100	0.0130602
660.178	0.0130579
660.256	0.0131388
660.334	0.0130954
660.412	0.0129626
660.491	0.0129797
660.569	0.0130303
660.647	0.0130712
660.725	0.0130186
660.803	0.0129268
660.881	0.0130662
660.959	0.0129877
661.037	0.0130981
661.116	0.0130533
661.194	0.0129102
661.272	0.0130674
661.350	0.0130686
661.428	0.0130996
661.506	0.0131390
661.584	0.0129809
661.662	0.0130347
661.741	0.0129831
661.819	0.0129094
661.897	0.0129316
661.975	0.0129041
662.053	0.0129988
662.131	0.0130983
662.209	0.0130087
662.287	0.0129758
662.366	0.0130902
662.444	0.0131213
662.522	0.0129003
662.600	0.0129285
662.678	0.0130585
662.756	0.0130846
662.834	0.0129815
662.912	0.0129094
662.991	0.0130473
663.069	0.0128698
663.147	0.0129254
663.225	0.0130814
663.303	0.0130756
663.381	0.0130107
663.459	0.0129791
663.537	0.0130785
663.616	0.0130312
663.694	0.0129885
663.772	0.0130921
663.850	0.0130409
663.928	0.0127647
664.006	0.0129937
664.084	0.0130035
664.162	0.0130031
664.241	0.0128785
664.319	0.0129720
664.397	0.0128875
664.475	0.0129517
664.553	0.0129495
664.631	0.0129836
664.709	0.0129705
664.787	0.0128951
664.866	0.0129398
664.944	0.0129996
665.022	0.0129623
665.100	0.0129183
665.178	0.0128584
665.256	0.0130376
665.334	0.0129383
665.412	0.0129428
665.491	0.0131426
665.569	0.0128854
665.647	0.0129949
665.725	0.0129946
665.803	0.0130251
665.881	0.0129485
665.959	0.0129534
666.037	0.0128995
666.116	0.0130260
666.194	0.0129677
666.272	0.0130866
666.350	0.0130650
666.428	0.0130132
666.506	0.0130061
666.584	0.0128346
666.662	0.0129523
666.741	0.0130668
666.819	0.0129581
666.897	0.0130965
666.975	0.0130550
667.053	0.0129174
667.131	0.0130062
667.209	0.0129336
667.287	0.0130242
667.366	0.0129517
667.444	0.0128729
667.522	0.0129131
667.600	0.0128741
667.678	0.0128846
667.756	0.0130737
667.834	0.0130308
667.912	0.0129584
667.991	0.0130536
668.069	0.0130370
668.147	0.0129800
668.225	0.0131135
668.303	0.0130275
668.381	0.0128824
668.459	0.0129017
668.537	0.0129511
668.616	0.0130406
668.694	0.0128747
668.772	0.0129136
668.850	0.0130753
668.928	0.0130677
669.006	0.0129401
669.084	0.0130245
669.162	0.0129519
669.241	0.0129882
669.319	0.0130231
669.397	0.0130311
669.475	0.0130415
669.553	0.0130618
669.631	0.0130301
669.709	0.0129706
669.787	0.0128659
669.866	0.0128707
669.944	0.0131181
670.022	0.0131089
670.100	0.0130198
670.178	0.0129437
670.256	0.0129440
670.334	0.0129322
670.412	0.0129391
670.491	0.0129079
670.569	0.0129778
670.647	0.0129999
670.725	0.0131012
670.803	0.0130671
670.881	0.0130671
670.959	0.0130875
671.037	0.0130766
671.116	0.0129138
671.194	0.0129807
671.272	0.0130534
671.350	0.0131038
671.428	0.0131061
671.506	0.0130074
671.584	0.0131066
671.662	0.0130007
671.741	0.0130350
671.819	0.0130922
671.897	0.0130748
671.975	0.0130856
672.053	0.0130378
672.131	0.0130096
672.209	0.0130809
672.287	0.0132995
672.366	0.0130453
672.444	0.0131026
672.522	0.0129935
672.600	0.0131557
672.678	0.0131101
672.756	0.0130777
672.834	0.0130314
672.912	0.0130909
672.991	0.0130437
673.069	0.0131080
673.147	0.0132201
673.225	0.0130650
673.303	0.0131736
673.381	0.0131533
673.459	0.0130723
673.537	0.0131116
673.616	0.0132302
673.694	0.0131101
673.772	0.0131510
673.850	0.0131815
673.928	0.0129836
674.006	0.0130563
674.084	0.0132258
674.162	0.0130856
674.241	0.0129874
674.319	0.0130798
674.397	0.0131475
674.475	0.0131688
674.553	0.0131281
674.631	0.0130454
674.709	0.0129997
674.787	0.0130365
674.866	0.0131100
674.944	0.0132152
675.022	0.0131190
675.100	0.0130782
675.178	0.0130483
675.256	0.0130816
675.334	0.0130434
675.412	0.0130717
675.491	0.0130273
675.569	0.0132494
675.647	0.0131856
675.725	0.0129994
675.803	0.0130694
675.881	0.0130724
675.959	0.0132024
676.037	0.0132117
676.116	0.0131203
676.194	0.0130576
676.272	0.0132201
676.350	0.0131224
676.428	0.0131226
676.506	0.0130724
676.584	0.0128573
676.662	0.0130730
676.741	0.0131126
676.819	0.0131546
676.897	0.0131454
676.975	0.0130797
677.053	0.0131050
677.131	0.0131374
677.209	0.0130413
677.287	0.0131242
677.366	0.0131825
677.444	0.0131392
677.522	0.0131310
677.600	0.0130209
677.678	0.0129787
677.756	0.0129932
677.834	0.0130967
677.912	0.0131396
677.991	0.0131075
678.069	0.0130386
678.147	0.0130590
678.225	0.0130468
678.303	0.0131909
678.381	0.0132501
678.459	0.0131157
678.537	0.0128909
678.616	0.0128926
678.694	0.0130366
678.772	0.0129195
678.850	0.0131499
678.928	0.0130485
679.006	0.0129822
679.084	0.0128631
679.162	0.0130833
679.241	0.0129923
679.319	0.0129741
679.397	0.0129900
679.475	0.0129219
679.553	0.0129028
679.631	0.0130479
679.709	0.0129620
679.787	0.0130090
679.866	0.0129283
679.944	0.0130286
680.022	0.0129130
680.100	0.0130186
680.178	0.0130028
680.256	0.0130589
680.334	0.0128632
680.412	0.0129207
680.491	0.0130151
680.569	0.0129426
680.647	0.0129598
680.725	0.0130007
680.803	0.0129521
680.881	0.0129997
680.959	0.0129552
681.037	0.0129358
681.116	0.0131133
681.194	0.0130782
681.272	0.0130956
681.350	0.0130240
681.428	0.0130762
681.506	0.0131054
681.584	0.0129663
681.662	0.0129455
681.741	0.0130377
681.819	0.0130444
681.897	0.0129623
681.975	0.0130407
682.053	0.0128940
682.131	0.0129031
682.209	0.0128889
682.287	0.0130715
682.366	0.0129987
682.444	0.0130660
682.522	0.0130059
682.600	0.0129142
682.678	0.0129926
682.756	0.0130454
682.834	0.0130070
682.912	0.0129073
682.991	0.0130631
683.069	0.0130475
683.147	0.0129787
683.225	0.0130638
683.303	0.0130633
683.381	0.0130046
683.459	0.0129840
683.537	0.0131841
683.616	0.0129881
683.694	0.0129964
683.772	0.0130862
683.850	0.0130647
683.928	0.0130803
684.006	0.0129609
684.084	0.0130743
684.162	0.0130447
684.241	0.0130594
684.319	0.0130062
684.397	0.0129859
684.475	0.0130552
684.553	0.0130505
684.631	0.0130096
684.709	0.0130599
684.787	0.0130504
684.866	0.0130901
684.944	0.0130810
685.022	0.0130950
685.100	0.0130000
685.178	0.0129119
685.256	0.0128687
685.334	0.0129782
685.412	0.0130943
685.491	0.0129754
685.569	0.0129825
685.647	0.0130309
685.725	0.0130553
685.803	0.0131128
685.881	0.0131374
685.959	0.0133199
686.037	0.0132451
686.116	0.0132941
686.194	0.0131796
686.272	0.0131622
686.350	0.0131385
686.428	0.0129797
686.506	0.0128608
686.584	0.0127108
686.662	0.0123740
686.741	0.0122516
686.819	0.0121951
686.897	0.0123560
686.975	0.0122159
687.053	0.0123756
687.131	0.0126329
687.209	0.0128666
687.287	0.0131396
687.366	0.0134684
687.444	0.0136855
687.522	0.0138003
687.600	0.0140459
687.678	0.0141329
687.756	0.0140051
687.834	0.0140051
687.912	0.0136988
687.991	0.0134837
688.069	0.0131268
688.147	0.0128953
688.225	0.0125946
688.303	0.0123681
688.381	0.0121284
688.459	0.0118961
688.537	0.0119157
688.616	0.0120225
688.694	0.0120455
688.772	0.0122453
688.850	0.0123475
688.928	0.0127351
689.006	0.0130611
689.084	0.0133002
689.162	0.0135113
689.241	0.0136344
689.319	0.0138472
689.397	0.0139864
689.475	0.0138419
689.553	0.0140018
689.631	0.0138525
689.709	0.0137022
689.787	0.0136562
689.866	0.0134469
689.944	0.0132642
690.022	0.0131219
690.100	0.0128722
690.178	0.0127521
690.256	0.0125122
690.334	0.0125501
690.412	0.0126416
690.491	0.0125240
690.569	0.0125945
690.647	0.0126635
690.725	0.0125949
690.803	0.0126784
690.881	0.0128352
690.959	0.0128055
691.037	0.0129653
691.116	0.0129130
691.194	0.0128827
691.272	0.0128361
691.350	0.0128261
691.428	0.0129539
691.506	0.0127866
691.584	0.0126843
691.662	0.0127505
691.741	0.0127232
691.819	0.0128159
691.897	0.0129164
691.975	0.0128020
692.053	0.0128116
692.131	0.0130348
692.209	0.0130084
692.287	0.0130511
692.366	0.0131026
692.444	0.0129960
692.522	0.0130745
692.600	0.0130508
692.678	0.0130630
692.756	0.0130270
692.834	0.0131005
692.912	0.0129662
692.991	0.0130305
693.069	0.0130627
693.147	0.0130789
693.225	0.0130933
693.303	0.0132294
693.381	0.0132359
693.459	0.0132056
693.537	0.0132993
693.616	0.0133344
693.694	0.0133983
693.772	0.0131662
693.850	0.0131699
693.928	0.0130864
694.006	0.0130847
694.084	0.0128051
694.162	0.0126952
694.241	0.0127095
694.319	0.0125490
694.397	0.0125397
694.475	0.0125130
694.553	0.0125145
694.631	0.0127159
694.709	0.0128414
694.787	0.0129943
694.866	0.0129317
694.944	0.0130930
695.022	0.0130991
695.100	0.0133175
695.178	0.0133014
695.256	0.0132230
695.334	0.0133759
695.412	0.0134345
695.491	0.0133710
695.569	0.0133604
695.647	0.0132124
695.725	0.0132827
695.803	0.0132018
695.881	0.0130339
695.959	0.0130804
696.037	0.0130807
696.116	0.0130180
696.194	0.0128068
696.272	0.0128009
696.350	0.0126305
696.428	0.0128838
696.506	0.0127464
696.584	0.0126697
696.662	0.0125607
696.741	0.0125539
696.819	0.0125745
696.897	0.0124827
696.975	0.0125048
697.053	0.0127350
697.131	0.0128194
697.209	0.0128916
697.287	0.0128033
697.366	0.0131085
697.444	0.0132130
697.522	0.0133553
697.600	0.0132505
697.678	0.0134583
697.756	0.0135150
697.834	0.0134113
697.912	0.0135931
697.991	0.0135695
698.069	0.0136014
698.147	0.0135996
698.225	0.0133446
698.303	0.0132906
698.381	0.0131441
698.459	0.0130746
698.537	0.0129812
698.616	0.0130029
698.694	0.0129695
698.772	0.0128770
698.850	0.0129436
698.928	0.0129250
699.006	0.0129935
699.084	0.0129111
699.162	0.0129334
699.241	0.0129050
699.319	0.0128757
699.397	0.0130213
699.475	0.0128444
699.553	0.0128215
699.631	0.0129159
699.709	0.0129279
699.787	0.0128233
699.866	0.0129046
699.944	0.0129641
700.022	0.0129642
700.100	0.0128853
700.178	0.0129551
700.256	0.0129807
700.334	0.0129601
700.412	0.0129214
700.491	0.0129229
700.569	0.0129726
700.647	0.0129549
700.725	0.0128490
700.803	0.0129040
700.881	0.0129858
700.959	0.0129863
701.037	0.0130825
701.116	0.0132078
701.194	0.0131640
701.272	0.0131118
701.350	0.0130164
701.428	0.0132355
701.506	0.0132015
701.584	0.0131617
701.662	0.0130322
701.741	0.0130624
701.819	0.0132200
701.897	0.0131085
701.975	0.0130299
702.053	0.0132549
702.131	0.0129905
702.209	0.0130667
702.287	0.0130490
702.366	0.0130106
702.444	0.0132430
702.522	0.0130090
702.600	0.0129775
702.678	0.0129182
702.756	0.0130698
702.834	0.0131797
702.912	0.0130714
702.991	0.0132262
703.069	0.0131268
703.147	0.0132307
703.225	0.0132158
703.303	0.0131644
703.381	0.0131709
703.459	0.0130866
703.537	0.0129739
703.616	0.0130676
703.694	0.0131174
703.772	0.0131243
703.850	0.0131132
703.928	0.0130984
704.006	0.0131546
704.084	0.0132272
704.162	0.0131081
704.241	0.0130724
704.319	0.0130566
704.397	0.0132085
704.475	0.0131848
704.553	0.0130249
704.631	0.0130622
704.709	0.0132622
704.787	0.0131999
704.866	0.0129491
704.944	0.0130244
705.022	0.0129060
705.100	0.0128540
705.178	0.0128889
705.256	0.0127955
705.334	0.0127609
705.412	0.0127868
705.491	0.0127171
705.569	0.0127388
705.647	0.0128574
705.725	0.0127345
705.803	0.0127107
705.881	0.0127441
705.959	0.0128899
706.037	0.0129672
706.116	0.0129871
706.194	0.0130843
706.272	0.0132777
706.350	0.0132833
706.428	0.0133772
706.506	0.0133990
706.584	0.0136628
706.662	0.0136275
706.741	0.0136594
706.819	0.0136849
706.897	0.0137537
706.975	0.0136151
707.053	0.0136453
707.131	0.0135755
707.209	0.0132673
707.287	0.0132787
707.366	0.0132948
707.444	0.0130430
707.522	0.0131458
707.600	0.0128841
707.678	0.0127757
707.756	0.0128023
707.834	0.0126583
707.912	0.0126367
707.991	0.0127390
708.069	0.0126579
708.147	0.0125278
708.225	0.0125681
708.303	0.0126529
708.381	0.0126265
708.459	0.0127805
708.537	0.0127103
708.616	0.0125983
708.694	0.0125307
708.772	0.0126182
708.850	0.0128782
708.928	0.0125597
709.006	0.0127148
709.084	0.0128181
709.162	0.0128205
709.241	0.0128584
709.319	0.0128658
709.397	0.0128725
709.475	0.0130888
709.553	0.0129980
709.631	0.0131660
709.709	0.0131609
709.787	0.0133049
709.866	0.0133378
709.944	0.0132784
710.022	0.0133739
710.100	0.0133510
710.178	0.0131804
710.256	0.0132647
710.334	0.0132471
710.412	0.0131020
710.491	0.0131631
710.569	0.0130862
710.647	0.0129501
710.725	0.0129243
710.803	0.0129326
710.881	0.0128317
710.959	0.0130411
711.037	0.0130702
711.116	0.0131019
711.194	0.0132249
711.272	0.0132212
711.350	0.0131702
711.428	0.0133565
711.506	0.0134277
711.584	0.0134670
711.662	0.0134962
711.741	0.0136488
711.819	0.0133900
711.897	0.0134573
711.975	0.0134036
712.053	0.0134012
712.131	0.0133417
712.209	0.0134553
712.287	0.0133667
712.366	0.0131165
712.444	0.0131010
712.522	0.0132196
712.600	0.0130814
712.678	0.0129886
712.756	0.0128265
712.834	0.0129399
712.912	0.0129864
712.991	0.0126936
713.069	0.0127639
713.147	0.0127216
713.225	0.0129142
713.303	0.0128110
713.381	0.0127908
713.459	0.0128349
713.537	0.0129221
713.616	0.0130137
713.694	0.0129647
713.772	0.0129628
713.850	0.0129818
713.928	0.0130470
714.006	0.0130963
714.084	0.0130096
714.162	0.0131950
714.241	0.0129272
714.319	0.0130530
714.397	0.0130758
714.475	0.0128614
714.553	0.0127354
714.631	0.0128688
714.709	0.0127306
714.787	0.0127401
714.866	0.0128625
714.944	0.0127953
715.022	0.0128315
715.100	0.0127281
715.178	0.0129405
715.256	0.0130378
715.334	0.0130067
715.412	0.0129684
715.491	0.0132246
715.569	0.0131803
715.647	0.0133584
715.725	0.0132991
715.803	0.0131737
715.881	0.0133186
715.959	0.0132555
716.037	0.0132668
716.116	0.0132731
716.194	0.0132661
716.272	0.0132571
716.350	0.0131474
716.428	0.0131133
716.506	0.0131003
716.584	0.0130247
716.662	0.0131121
716.741	0.0128921
716.819	0.0129214
716.897	0.0128201
716.975	0.0129045
717.053	0.0128867
717.131	0.0130141
717.209	0.0128580
717.287	0.0128934
717.366	0.0130355
717.444	0.0130579
717.522	0.0130421
717.600	0.0130353
717.678	0.0130394
717.756	0.0130569
717.834	0.0129446
717.912	0.0130540
717.991	0.0130183
718.069	0.0128971
718.147	0.0129630
718.225	0.0130453
718.303	0.0129952
718.381	0.0129434
718.459	0.0128206
718.537	0.0128864
718.616	0.0129823
718.694	0.0127663
718.772	0.0128127
718.850	0.0128546
718.928	0.0129594
719.006	0.0127082
719.084	0.0128632
719.162	0.0128265
719.241	0.0128158
719.319	0.0130025
719.397	0.0129519
719.475	0.0128235
719.553	0.0129788
719.631	0.0129967
719.709	0.0129738
719.787	0.0129816
719.866	0.0129555
719.944	0.0131845
720.022	0.0130613
720.100	0.0129008
720.178	0.0130710
720.256	0.0129177
720.334	0.0130169
720.412	0.0130197
720.491	0.0129418
720.569	0.0129727
720.647	0.0130651
720.725	0.0130129
720.803	0.0129027
720.881	0.0129193
720.959	0.0131190
721.037	0.0130984
721.116	0.0130274
721.194	0.0130972
721.272	0.0130489
721.350	0.0132002
721.428	0.0131709
721.506	0.0131476
721.584	0.0131500
721.662	0.0129766
721.741	0.0129071
721.819	0.0130621
721.897	0.0130437
721.975	0.0128691
722.053	0.0128547
722.131	0.0129909
722.209	0.0128911
722.287	0.0129755
722.366	0.0129440
722.444	0.0130533
722.522	0.0129259
722.600	0.0128330
722.678	0.0129846
722.756	0.0131051
722.834	0.0129931
722.912	0.0130537
722.991	0.0128741
723.069	0.0129323
723.147	0.0128586
723.225	0.0127929
723.303	0.0128675
723.381	0.0129176
723.459	0.0127927
723.537	0.0127866
723.616	0.0126651
723.694	0.0128487
723.772	0.0127431
723.850	0.0128657
723.928	0.0127684
724.006	0.0128146
724.084	0.0129549
724.162	0.0129850
724.241	0.0128906
724.319	0.0129848
724.397	0.0130881
724.475	0.0130626
724.553	0.0131427
724.631	0.0131929
724.709	0.0131088
724.787	0.0132195
724.866	0.0132901
724.944	0.0133451
725.022	0.0131740
725.100	0.0130215
725.178	0.0131576
725.256	0.0131445
725.334	0.0131471
725.412	0.0130148
725.491	0.0129359
725.569	0.0129339
725.647	0.0129978
725.725	0.0128719
725.803	0.0128896
725.881	0.0129609
725.959	0.0129081
726.037	0.0130588
726.116	0.0130507
726.194	0.0131257
726.272	0.0130614
726.350	0.0130952
726.428	0.0131802
726.506	0.0131893
726.584	0.0131456
726.662	0.0130921
726.741	0.0131617
726.819	0.0130674
726.897	0.0131309
726.975	0.0131471
727.053	0.0130543
727.131	0.0130258
727.209	0.0129157
727.287	0.0129191
727.366	0.0128497
727.444	0.0130742
727.522	0.0129463
727.600	0.0130322
727.678	0.0129915
727.756	0.0128783
727.834	0.0130362
727.912	0.0129404
727.991	0.0128737
728.069	0.0127525
728.147	0.0129320
728.225	0.0130193
728.303	0.0129671
728.381	0.0129921
728.459	0.0131039
728.537	0.0131075
728.616	0.0130166
728.694	0.0129710
728.772	0.0130785
728.850	0.0131384
728.928	0.0129932
729.006	0.0129940
729.084	0.0128973
729.162	0.0128695
729.241	0.0129670
729.319	0.0128855
729.397	0.0128683
729.475	0.0127840
729.553	0.0129877
729.631	0.0129595
729.709	0.0127266
729.787	0.0128239
729.866	0.0129684
729.944	0.0127605
730.022	0.0129375
730.100	0.0128702
730.178	0.0128468
730.256	0.0128700
730.334	0.0129002
730.412	0.0129842
730.491	0.0130137
730.569	0.0128765
730.647	0.0131540
730.725	0.0130276
730.803	0.0130540
730.881	0.0128991
730.959	0.0130233
731.037	0.0130627
731.116	0.0130053
731.194	0.0129922
731.272	0.0129261
731.350	0.0129570
731.428	0.0129349
731.506	0.0129128
731.584	0.0128132
731.662	0.0128906
731.741	0.0128223
731.819	0.0127821
731.897	0.0129373
731.975	0.0128729
732.053	0.0128759
732.131	0.0129105
732.209	0.0129938
732.287	0.0130445
732.366	0.0130146
732.444	0.0130379
732.522	0.0129818
732.600	0.0130815
732.678	0.0131359
732.756	0.0132385
732.834	0.0130920
732.912	0.0131298
732.991	0.0129128
733.069	0.0130911
733.147	0.0129794
733.225	0.0131050
733.303	0.0130535
733.381	0.0128595
733.459	0.0128580
733.537	0.0130315
733.616	0.0128938
733.694	0.0128114
733.772	0.0129408
733.850	0.0129288
733.928	0.0129324
734.006	0.0128600
734.084	0.0129966
734.162	0.0130353
734.241	0.0129320
734.319	0.0130447
734.397	0.0132043
734.475	0.0130562
734.553	0.0130324
734.631	0.0129914
734.709	0.0131091
734.787	0.0131248
734.866	0.0131752
734.944	0.0130274
735.022	0.0130852
735.100	0.0131767
735.178	0.0131707
735.256	0.0131876
735.334	0.0131423
735.412	0.0128605
735.491	0.0129624
735.569	0.0129074
735.647	0.0128793
735.725	0.0128716
735.803	0.0128295
735.881	0.0130407
735.959	0.0129644
736.037	0.0128545
736.116	0.0129754
736.194	0.0129386
736.272	0.0130369
736.350	0.0130598
736.428	0.0129619
736.506	0.0130569
736.584	0.0130850
736.662	0.0130475
736.741	0.0129864
736.819	0.0130137
736.897	0.0132704
736.975	0.0131215
737.053	0.0131406
737.131	0.0130889
737.209	0.0130900
737.287	0.0130855
737.366	0.0130852
737.444	0.0132110
737.522	0.0131254
737.600	0.0131960
737.678	0.0129955
737.756	0.0131071
737.834	0.0132272
737.912	0.0130553
737.991	0.0131480
738.069	0.0131297
738.147	0.0129895
738.225	0.0130982
738.303	0.0130283
738.381	0.0130325
738.459	0.0129730
738.537	0.0129974
738.616	0.0130833
738.694	0.0129345
738.772	0.0128931
738.850	0.0129472
738.928	0.0130549
739.006	0.0129963
739.084	0.0129559
739.162	0.0129327
739.241	0.0130718
739.319	0.0129857
739.397	0.0131062
739.475	0.0131148
739.553	0.0131020
739.631	0.0131023
739.709	0.0129755
739.787	0.0131842
739.866	0.0132800
739.944	0.0133131
740.022	0.0133756
740.100	0.0131994
740.178	0.0132127
740.256	0.0131813
740.334	0.0131872
740.412	0.0130297
740.491	0.0130745
740.569	0.0131386
740.647	0.0130247
740.725	0.0130967
740.803	0.0130791
740.881	0.0129192
740.959	0.0129506
741.037	0.0129942
741.116	0.0128546
741.194	0.0128484
741.272	0.0127905
741.350	0.0128964
741.428	0.0129911
741.506	0.0129653
741.584	0.0129407
741.662	0.0130663
741.741	0.0130491
741.819	0.0131502
741.897	0.0132510
741.975	0.0131043
742.053	0.0129845
742.131	0.0132455
742.209	0.0131998
742.287	0.0131465
742.366	0.0132111
742.444	0.0131059
742.522	0.0130116
742.600	0.0131103
742.678	0.0129943
742.756	0.0131053
742.834	0.0129961
742.912	0.0128773
742.991	0.0130891
743.069	0.0130917
743.147	0.0129216
743.225	0.0130866
743.303	0.0129089
743.381	0.0130754
743.459	0.0129986
743.537	0.0131644
743.616	0.0132148
743.694	0.0132294
743.772	0.0130546
743.850	0.0131780
743.928	0.0130930
744.006	0.0130163
744.084	0.0131357
744.162	0.0130589
744.241	0.0131607
744.319	0.0129688
744.397	0.0129469
744.475	0.0130462
744.553	0.0129086
744.631	0.0127990
744.709	0.0129190
744.787	0.0129352
744.866	0.0129816
744.944	0.0130240
745.022	0.0128098
745.100	0.0129779
745.178	0.0130439
745.256	0.0127386
745.334	0.0127999
745.412	0.0130240
745.491	0.0130269
745.569	0.0128975
745.647	0.0130582
745.725	0.0131264
745.803	0.0130137
745.881	0.0129636
745.959	0.0132104
746.037	0.0131532
746.116	0.0130238
746.194	0.0132457
746.272	0.0131187
746.350	0.0131204
746.428	0.0130924
746.506	0.0129448
746.584	0.0130485
746.662	0.0131179
746.741	0.0129998
746.819	0.0129481
746.897	0.0131149
746.975	0.0129979
747.053	0.0129971
747.131	0.0130725
747.209	0.0129657
747.287	0.0129462
747.366	0.0131079
747.444	0.0130943
747.522	0.0129684
747.600	0.0131516
747.678	0.0132464
747.756	0.0131119
747.834	0.0131613
747.912	0.0131478
747.991	0.0133429
748.069	0.0132106
748.147	0.0128782
748.225	0.0130792
748.303	0.0132209
748.381	0.0133110
748.459	0.0130136
748.537	0.0129282
748.616	0.0130090
748.694	0.0131300
748.772	0.0129733
748.850	0.0128636
748.928	0.0128865
749.006	0.0129327
749.084	0.0128320
749.162	0.0129713
749.241	0.0129842
749.319	0.0131034
749.397	0.0130549
749.475	0.0130068
749.553	0.0128748
749.631	0.0129412
749.709	0.0131245
749.787	0.0130397
749.866	0.0130156
749.944	0.0130597
750.022	0.0129738
750.100	0.0130685
750.178	0.0129235
750.256	0.0130096
750.334	0.0131090
750.412	0.0130779
750.491	0.0129826
750.569	0.0129317
750.647	0.0129969
750.725	0.0130486
750.803	0.0128842
750.881	0.0130045
750.959	0.0131335
751.037	0.0131784
751.116	0.0131392
751.194	0.0130057
751.272	0.0130517
751.350	0.0130255
751.428	0.0131262
751.506	0.0130087
751.584	0.0129762
751.662	0.0130170
751.741	0.0129578
751.819	0.0131102
751.897	0.0130143
751.975	0.0130336
752.053	0.0130834
752.131	0.0131221
752.209	0.0132262
752.287	0.0130874
752.366	0.0130442
752.444	0.0130933
752.522	0.0131002
752.600	0.0131808
752.678	0.0131927
752.756	0.0130145
752.834	0.0131171
752.912	0.0130277
752.991	0.0128724
753.069	0.0129189
753.147	0.0130149
753.225	0.0129079
753.303	0.0129326
753.381	0.0127753
753.459	0.0127597
753.537	0.0128619
753.616	0.0128651
753.694	0.0128417
753.772	0.0130064
753.850	0.0128387
753.928	0.0130560
754.006	0.0129052
754.084	0.0129380
754.162	0.0129467
754.241	0.0129795
754.319	0.0129385
754.397	0.0130170
754.475	0.0129700
754.553	0.0130139
754.631	0.0130953
754.709	0.0131016
754.787	0.0129977
754.866	0.0130545
754.944	0.0130354
755.022	0.0129530
755.100	0.0130811
755.178	0.0130698
755.256	0.0130434
755.334	0.0130788
755.412	0.0129987
755.491	0.0129955
755.569	0.0130182
755.647	0.0129882
755.725	0.0130979
755.803	0.0130125
755.881	0.0130003
755.959	0.0130590
756.037	0.0131613
756.116	0.0132319
756.194	0.0130547
756.272	0.0131168
756.350	0.0130144
756.428	0.0130612
756.506	0.0130383
756.584	0.0129618
756.662	0.0132163
756.741	0.0130235
756.819	0.0131758
756.897	0.0131199
756.975	0.0131235
757.053	0.0131161
757.131	0.0130567
757.209	0.0132204
757.287	0.0131790
757.366	0.0128375
757.444	0.0128268
757.522	0.0130324
757.600	0.0129620
757.678	0.0129467
757.756	0.0128609
757.834	0.0128701
757.912	0.0128596
757.991	0.0127663
758.069	0.0128409
758.147	0.0127959
758.225	0.0128767
758.303	0.0128474
758.381	0.0128421
758.459	0.0128413
758.537	0.0129929
758.616	0.0129337
758.694	0.0130269
758.772	0.0130277
758.850	0.0131374
758.928	0.0130991
759.006	0.0131792
759.084	0.0131879
759.162	0.0130708
759.241	0.0131810
759.319	0.0131210
759.397	0.0131029
759.475	0.0131367
759.553	0.0131956
759.631	0.0131314
759.709	0.0131316
759.787	0.0129667
759.866	0.0130816
759.944	0.0130899
760.022	0.0130675
760.100	0.0131211
760.178	0.0130029
760.256	0.0130598
760.334	0.0130210
760.412	0.0131087
760.491	0.0131079
760.569	0.0130279
760.647	0.0131010
760.725	0.0132658
760.803	0.0130665
760.881	0.0129115
760.959	0.0130916
761.037	0.0130638
761.116	0.0129496
761.194	0.0130830
761.272	0.0129450
761.350	0.0129082
761.428	0.0129694
761.506	0.0131018
761.584	0.0130641
761.662	0.0130253
761.741	0.0131688
761.819	0.0130621
761.897	0.0131356
761.975	0.0131733
762.053	0.0132257
762.131	0.0132679
762.209	0.0133470
762.287	0.0132931
762.366	0.0132529
762.444	0.0132337
762.522	0.0131075
762.600	0.0131693
762.678	0.0131126
762.756	0.0130346
762.834	0.0131382
762.912	0.0130724
762.991	0.0131082
763.069	0.0131319
763.147	0.0129826
763.225	0.0130194
763.303	0.0129405
763.381	0.0130370
763.459	0.0129882
763.537	0.0130885
763.616	0.0130726
763.694	0.0130109
763.772	0.0130592
763.850	0.0130148
763.928	0.0131483
764.006	0.0131322
764.084	0.0130185
764.162	0.0130313
764.241	0.0131833
764.319	0.0128922
764.397	0.0129104
764.475	0.0129124
764.553	0.0129640
764.631	0.0129743
764.709	0.0130221
764.787	0.0131761
764.866	0.0132269
764.944	0.0131699
765.022	0.0130746
765.100	0.0131864
765.178	0.0131246
765.256	0.0130763
765.334	0.0132099
765.412	0.0131320
765.491	0.0130530
765.569	0.0132978
765.647	0.0130764
765.725	0.0131020
765.803	0.0130281
765.881	0.0129605
765.959	0.0129689
766.037	0.0129295
766.116	0.0130119
766.194	0.0129395
766.272	0.0129161
766.350	0.0129361
766.428	0.0129792
766.506	0.0129992
766.584	0.0130269
766.662	0.0130154
766.741	0.0129425
766.819	0.0131371
766.897	0.0130428
766.975	0.0130691
767.053	0.0130196
767.131	0.0130281
767.209	0.0130605
767.287	0.0130188
767.366	0.0130724
767.444	0.0129723
767.522	0.0129655
767.600	0.0129467
767.678	0.0129472
767.756	0.0128917
767.834	0.0129416
767.912	0.0128992
767.991	0.0129300
768.069	0.0128578
768.147	0.0128471
768.225	0.0130097
768.303	0.0129993
768.381	0.0130418
768.459	0.0130271
768.537	0.0129494
768.616	0.0130103
768.694	0.0129586
768.772	0.0131375
768.850	0.0130621
768.928	0.0130867
769.006	0.0130717
769.084	0.0130746
769.162	0.0130647
769.241	0.0131872
769.319	0.0131713
769.397	0.0131734
769.475	0.0131504
769.553	0.0131834
769.631	0.0131531
769.709	0.0131202
769.787	0.0130772
769.866	0.0130835
769.944	0.0131027
770.022	0.0131245
770.100	0.0130231
770.178	0.0129684
770.256	0.0130267
770.334	0.0130103
770.412	0.0129816
770.491	0.0128970
770.569	0.0131107
770.647	0.0129837
770.725	0.0129243
770.803	0.0129443
770.881	0.0129600
770.959	0.0129015
771.037	0.0131298
771.116	0.0130769
771.194	0.0129908
771.272	0.0130019
771.350	0.0130371
771.428	0.0130608
771.506	0.0132262
771.584	0.0130556
771.662	0.0131126
771.741	0.0131748
771.819	0.0131028
771.897	0.0131318
771.975	0.0128996
772.053	0.0129868
772.131	0.0129218
772.209	0.0130187
772.287	0.0130969
772.366	0.0131201
772.444	0.0129461
772.522	0.0131290
772.600	0.0131162
772.678	0.0130228
772.756	0.0130386
772.834	0.0132367
772.912	0.0131570
772.991	0.0132700
773.069	0.0132321
773.147	0.0132191
773.225	0.0131205
773.303	0.0130577
773.381	0.0131371
773.459	0.0130985
773.537	0.0131823
773.616	0.0130768
773.694	0.0131956
773.772	0.0131393
773.850	0.0131491
773.928	0.0130901
774.006	0.0130893
774.084	0.0130154
774.162	0.0131302
774.241	0.0130430
774.319	0.0131022
774.397	0.0130639
774.475	0.0130388
774.553	0.0131068
774.631	0.0129999
774.709	0.0130121
774.787	0.0129304
774.866	0.0130779
774.944	0.0130904
775.022	0.0129152
775.100	0.0129453
775.178	0.0130799
775.256	0.0131821
775.334	0.0131211
775.412	0.0130113
775.491	0.0131471
775.569	0.0129581
775.647	0.0130744
775.725	0.0130856
775.803	0.0131322
775.881	0.0131035
775.959	0.0131097
776.037	0.0130819
776.116	0.0130334
776.194	0.0131348
776.272	0.0131604
776.350	0.0130942
776.428	0.0131982
776.506	0.0129884
776.584	0.0130741
776.662	0.0130717
776.741	0.0130669
776.819	0.0131338
776.897	0.0131087
776.975	0.0129774
777.053	0.0130333
777.131	0.0129111
777.209	0.0131216
777.287	0.0131498
777.366	0.0130473
777.444	0.0130494
777.522	0.0130978
777.600	0.0131319
777.678	0.0131290
777.756	0.0131055
777.834	0.0131770
777.912	0.0131458
777.991	0.0129918
778.069	0.0130376
778.147	0.0131667
778.225	0.0132489
778.303	0.0130505
778.381	0.0131582
778.459	0.0132141
778.537	0.0131635
778.616	0.0132212
778.694	0.0130970
778.772	0.0131739
778.850	0.0130721
778.928	0.0132317
779.006	0.0131448
779.084	0.0129914
779.162	0.0130757
779.241	0.0131271
779.319	0.0131590
779.397	0.0131841
779.475	0.0131295
779.553	0.0130074
779.631	0.0129962
779.709	0.0130795
779.787	0.0129787
779.866	0.0129440
779.944	0.0130598
780.022	0.0128975
780.100	0.0130280
780.178	0.0128770
780.256	0.0129727
780.334	0.0129433
780.412	0.0129330
780.491	0.0130410
780.569	0.0130788
780.647	0.0130470
780.725	0.0130135
780.803	0.0130277
780.881	0.0131321
780.959	0.0131538
781.037	0.0130666
781.116	0.0129795
781.194	0.0130827
781.272	0.0129411
781.350	0.0130006
781.428	0.0129204
781.506	0.0129677
781.584	0.0130600
781.662	0.0131080
781.741	0.0131001
781.819	0.0130922
781.897	0.0129549
781.975	0.0130093
782.053	0.0132345
782.131	0.0131413
782.209	0.0130970
782.287	0.0132607
782.366	0.0131694
782.444	0.0131251
782.522	0.0130748
782.600	0.0130312
782.678	0.0130879
782.756	0.0130664
782.834	0.0131455
782.912	0.0130302
782.991	0.0131712
783.069	0.0128351
783.147	0.0130760
783.225	0.0130078
783.303	0.0129579
783.381	0.0129852
783.459	0.0130605
783.537	0.0130770
783.616	0.0130723
783.694	0.0130532
783.772	0.0129668
783.850	0.0130820
783.928	0.0130382
784.006	0.0131885
784.084	0.0130820
784.162	0.0132730
784.241	0.0131493
784.319	0.0131986
784.397	0.0132399
784.475	0.0131829
784.553	0.0130935
784.631	0.0130583
784.709	0.0131213
784.787	0.0129407
784.866	0.0130125
784.944	0.0131442
785.022	0.0129554
785.100	0.0129511
785.178	0.0129542
785.256	0.0129852
785.334	0.0128756
785.412	0.0127473
785.491	0.0127586
785.569	0.0128683
785.647	0.0129990
785.725	0.0129713
785.803	0.0129424
785.881	0.0130276
785.959	0.0129921
786.037	0.0130457
786.116	0.0130607
786.194	0.0131165
786.272	0.0129237
786.350	0.0130894
786.428	0.0130965
786.506	0.0130457
786.584	0.0129244
786.662	0.0132342
786.741	0.0130385
786.819	0.0130344
786.897	0.0130979
786.975	0.0129488
787.053	0.0128827
787.131	0.0129379
787.209	0.0130093
787.287	0.0129009
787.366	0.0128284
787.444	0.0129243
787.522	0.0128293
787.600	0.0128420
787.678	0.0129089
787.756	0.0129739
787.834	0.0129702
787.912	0.0130144
787.991	0.0130264
788.069	0.0130266
788.147	0.0130000
788.225	0.0130306
788.303	0.0130353
788.381	0.0130153
788.459	0.0129719
788.537	0.0129526
788.616	0.0129730
788.694	0.0130808
788.772	0.0130733
788.850	0.0131480
788.928	0.0130870
789.006	0.0131657
789.084	0.0130521
789.162	0.0130054
789.241	0.0131104
789.319	0.0131076
789.397	0.0131719
789.475	0.0130605
789.553	0.0129594
789.631	0.0129793
789.709	0.0131516
789.787	0.0129839
789.866	0.0129794
789.944	0.0130958
790.022	0.0129907
790.100	0.0129787
790.178	0.0130817
790.256	0.0130842
790.334	0.0131133
790.412	0.0128461
790.491	0.0129895
790.569	0.0130313
790.647	0.0130588
790.725	0.0130138
790.803	0.0129076
790.881	0.0130878
790.959	0.0131535
791.037	0.0129948
791.116	0.0129873
791.194	0.0128919
791.272	0.0130232
791.350	0.0131874
791.428	0.0130331
791.506	0.0130458
791.584	0.0130939
791.662	0.0131010
791.741	0.0131603
791.819	0.0130519
791.897	0.0129964
791.975	0.0129951
792.053	0.0130952
792.131	0.0131424
792.209	0.0130060
792.287	0.0130626
792.366	0.0131918
792.444	0.0131133
792.522	0.0130267
792.600	0.0131570
792.678	0.0132115
792.756	0.0132219
792.834	0.0130972
792.912	0.0131871
792.991	0.0132749
793.069	0.0131103
793.147	0.0131355
793.225	0.0131503
793.303	0.0129996
793.381	0.0130215
793.459	0.0128934
793.537	0.0130252
793.616	0.0130811
793.694	0.0130045
793.772	0.0129844
793.850	0.0130094
793.928	0.0128175
794.006	0.0130708
794.084	0.0131670
794.162	0.0131101
794.241	0.0129356
794.319	0.0130938
794.397	0.0131081
794.475	0.0131187
794.553	0.0131518
794.631	0.0131883
794.709	0.0131831
794.787	0.0131480
794.866	0.0131392
794.944	0.0129903
795.022	0.0130169
795.100	0.0128281
795.178	0.0129777
795.256	0.0130549
795.334	0.0129797
795.412	0.0130083
795.491	0.0129137
795.569	0.0128702
795.647	0.0128928
795.725	0.0130325
795.803	0.0128958
795.881	0.0129661
795.959	0.0130080
796.037	0.0129511
796.116	0.0129604
796.194	0.0130219
796.272	0.0130342
796.350	0.0129585
796.428	0.0130304
796.506	0.0130039
796.584	0.0129713
796.662	0.0129621
796.741	0.0130296
796.819	0.0129896
796.897	0.0129575
796.975	0.0130467
797.053	0.0128756
797.131	0.0128936
797.209	0.0127575
797.287	0.0129333
797.366	0.0129533
797.444	0.0129089
797.522	0.0128156
797.600	0.0129604
797.678	0.0128681
797.756	0.0128330
797.834	0.0127978
797.912	0.0128314
797.991	0.0128696
798.069	0.0126669
798.147	0.0130160
798.225	0.0127429
798.303	0.0129123
798.381	0.0127399
798.459	0.0128368
798.537	0.0129449
798.616	0.0129812
798.694	0.0129558
798.772	0.0130747
798.850	0.0130003
798.928	0.0131584
799.006	0.0130865
799.084	0.0131152
799.162	0.0131480
799.241	0.0132458
799.319	0.0131438
799.397	0.0132471
799.475	0.0132442
799.553	0.0131055
799.631	0.0131174
799.709	0.0132735
799.787	0.0133607
799.866	0.0131010
799.944	0.0130896
800.022	0.0131022
800.100	0.0132204
800.178	0.0131283
800.256	0.0130497
800.334	0.0132601
800.412	0.0133680
800.491	0.0131410
800.569	0.0131406
800.647	0.0133512
800.725	0.0132274
800.803	0.0133109
800.881	0.0132387
800.959	0.0133691
801.037	0.0133108
801.116	0.0133862
801.194	0.0132652
801.272	0.0132723
801.350	0.0133224
801.428	0.0133060
801.506	0.0131670
801.584	0.0130935
801.662	0.0131191
801.741	0.0130509
801.819	0.0128702
801.897	0.0130524
801.975	0.0129603
802.053	0.0129633
802.131	0.0129005
802.209	0.0130054
802.287	0.0129450
802.366	0.0127561
802.444	0.0129838
802.522	0.0129631
802.600	0.0128691
802.678	0.0128094
802.756	0.0127988
802.834	0.0128108
802.912	0.0129584
802.991	0.0128176
803.069	0.0129169
803.147	0.0129747
803.225	0.0129648
803.303	0.0129359
803.381	0.0129974
803.459	0.0129099
803.537	0.0130349
803.616	0.0130193
803.694	0.0129997
803.772	0.0129848
803.850	0.0129405
803.928	0.0129607
804.006	0.0130231
804.084	0.0129767
804.162	0.0130056
804.241	0.0128223
804.319	0.0131165
804.397	0.0130003
804.475	0.0128632
804.553	0.0131688
804.631	0.0131377
804.709	0.0131067
804.787	0.0130845
804.866	0.0131219
804.944	0.0130043
805.022	0.0130881
805.100	0.0129889
805.178	0.0130736
805.256	0.0130796
805.334	0.0131224
805.412	0.0130099
805.491	0.0129865
805.569	0.0131468
805.647	0.0130228
805.725	0.0130678
805.803	0.0131326
805.881	0.0130355
805.959	0.0130154
806.037	0.0130621
806.116	0.0131870
806.194	0.0131416
806.272	0.0130431
806.350	0.0130209
806.428	0.0129823
806.506	0.0130202
806.584	0.0130383
806.662	0.0130626
806.741	0.0130104
806.819	0.0128862
806.897	0.0130021
806.975	0.0131280
807.053	0.0131237
807.131	0.0130449
807.209	0.0129693
807.287	0.0129867
807.366	0.0130852
807.444	0.0129536
807.522	0.0128562
807.600	0.0129704
807.678	0.0130712
807.756	0.0130859
807.834	0.0130495
807.912	0.0129945
807.991	0.0131108
808.069	0.0130719
808.147	0.0130765
808.225	0.0131450
808.303	0.0132430
808.381	0.0131840
808.459	0.0130831
808.537	0.0129710
808.616	0.0130212
808.694	0.0130334
808.772	0.0129842
808.850	0.0130900
808.928	0.0128901
809.006	0.0130656
809.084	0.0128982
809.162	0.0129318
809.241	0.0128987
809.319	0.0130196
809.397	0.0129139
809.475	0.0129350
809.553	0.0130255
809.631	0.0130930
809.709	0.0130621
809.787	0.0130412
809.866	0.0130460
809.944	0.0131297
810.022	0.0129539
810.100	0.0130685
810.178	0.0131197
810.256	0.0129709
810.334	0.0131396
810.412	0.0130331
810.491	0.0129928
810.569	0.0130587
810.647	0.0130830
810.725	0.0129492
810.803	0.0130474
810.881	0.0130323
810.959	0.0130294
811.037	0.0129895
811.116	0.0129312
811.194	0.0129226
811.272	0.0130627
811.350	0.0131712
811.428	0.0130520
811.506	0.0129394
811.584	0.0130161
811.662	0.0130401
811.741	0.0130588
811.819	0.0130495
811.897	0.0131120
811.975	0.0129940
812.053	0.0130900
812.131	0.0132272
812.209	0.0131413
812.287	0.0131544
812.366	0.0130236
812.444	0.0129094
812.522	0.0130184
812.600	0.0131448
812.678	0.0131126
812.756	0.0131676
812.834	0.0129618
812.912	0.0130684
812.991	0.0130058
813.069	0.0129471
813.147	0.0129389
813.225	0.0129484
813.303	0.0130108
813.381	0.0128891
813.459	0.0129874
813.537	0.0130370
813.616	0.0131447
813.694	0.0130567
813.772	0.0130753
813.850	0.0129916
813.928	0.0129952
814.006	0.0129610
814.084	0.0129570
814.162	0.0129803
814.241	0.0129532
814.319	0.0128558
814.397	0.0129295
814.475	0.0128609
814.553	0.0127558
814.631	0.0130559
814.709	0.0129886
814.787	0.0128895
814.866	0.0129241
814.944	0.0129222
815.022	0.0128888
815.100	0.0128991
815.178	0.0130184
815.256	0.0128814
815.334	0.0129397
815.412	0.0130902
815.491	0.0129234
815.569	0.0130186
815.647	0.0130293
815.725	0.0132283
815.803	0.0129661
815.881	0.0130576
815.959	0.0130981
816.037	0.0129900
816.116	0.0130983
816.194	0.0131937
816.272	0.0130296
816.350	0.0130282
816.428	0.0130331
816.506	0.0131084
816.584	0.0131145
816.662	0.0129926
816.741	0.0131467
816.819	0.0131188
816.897	0.0131030
816.975	0.0130419
817.053	0.0130702
817.131	0.0130100
817.209	0.0130321
817.287	0.0130090
817.366	0.0130373
817.444	0.0130558
817.522	0.0130395
817.600	0.0129678
817.678	0.0130328
817.756	0.0129777
817.834	0.0130880
817.912	0.0129774
817.991	0.0129214
818.069	0.0128757
818.147	0.0129624
818.225	0.0128737
818.303	0.0129146
818.381	0.0128635
818.459	0.0129733
818.537	0.0130007
818.616	0.0129725
818.694	0.0130269
818.772	0.0129157
818.850	0.0129353
818.928	0.0130123
819.006	0.0129837
819.084	0.0129688
819.162	0.0130821
819.241	0.0129774
819.319	0.0130054
819.397	0.0130973
819.475	0.0129587
819.553	0.0128648
819.631	0.0129929
819.709	0.0129979
819.787	0.0129213
819.866	0.0130009
819.944	0.0128627
820.022	0.0128619
820.100	0.0129192
820.178	0.0129173
820.256	0.0128908
820.334	0.0130350
820.412	0.0129569
820.491	0.0129417
820.569	0.0129561
820.647	0.0130273
820.725	0.0130340
820.803	0.0129313
820.881	0.0130502
820.959	0.0129212
821.037	0.0128622
821.116	0.0131269
821.194	0.0131205
821.272	0.0130399
821.350	0.0129785
821.428	0.0131279
821.506	0.0130062
821.584	0.0129262
821.662	0.0129980
821.741	0.0130185
821.819	0.0130072
821.897	0.0129670
821.975	0.0129832
822.053	0.0130484
822.131	0.0130511
822.209	0.0130029
822.287	0.0130228
822.366	0.0129510
822.444	0.0129747
822.522	0.0130030
822.600	0.0130306
822.678	0.0130867
822.756	0.0130286
822.834	0.0129223
822.912	0.0129939
822.991	0.0130968
823.069	0.0131523
823.147	0.0131149
823.225	0.0130758
823.303	0.0130375
823.381	0.0132076
823.459	0.0132213
823.537	0.0131931
823.616	0.0130544
823.694	0.0130472
823.772	0.0130168
823.850	0.0131121
823.928	0.0130286
824.006	0.0129461
824.084	0.0131124
824.162	0.0130328
824.241	0.0130702
824.319	0.0129039
824.397	0.0128796
824.475	0.0129539
824.553	0.0129124
824.631	0.0129433
824.709	0.0130386
824.787	0.0131340
824.866	0.0129414
824.944	0.0128461
825.022	0.0129346
825.100	0.0128842
825.178	0.0130199
825.256	0.0129636
825.334	0.0129906
825.412	0.0129645
825.491	0.0130209
825.569	0.0129917
825.647	0.0129703
825.725	0.0128397
825.803	0.0129989
825.881	0.0129836
825.959	0.0129296
826.037	0.0129240
826.116	0.0128783
826.194	0.0129240
826.272	0.0129199
826.350	0.0128825
826.428	0.0128270
826.506	0.0128770
826.584	0.0129283
826.662	0.0130215
826.741	0.0129700
826.819	0.0129041
826.897	0.0130030
826.975	0.0130756
827.053	0.0129285
827.131	0.0130499
827.209	0.0129433
827.287	0.0129815
827.366	0.0129582
827.444	0.0129462
827.522	0.0129030
827.600	0.0129714
827.678	0.0130447
827.756	0.0129468
827.834	0.0129820
827.912	0.0129861
827.991	0.0129640
828.069	0.0129659
828.147	0.0129804
828.225	0.0129584
828.303	0.0129462
828.381	0.0130237
828.459	0.0129779
828.537	0.0129076
828.616	0.0129810
828.694	0.0131577
828.772	0.0130785
828.850	0.0129501
828.928	0.0131593
829.006	0.0130183
829.084	0.0129507
829.162	0.0129826
829.241	0.0131613
829.319	0.0129970
829.397	0.0129389
829.475	0.0129983
829.553	0.0129572
829.631	0.0131145
829.709	0.0131216
829.787	0.0130300
829.866	0.0129932
829.944	0.0129346
830.022	0.0129858
830.100	0.0130421
830.178	0.0130882
830.256	0.0129382
830.334	0.0129768
830.412	0.0129980
830.491	0.0131774
830.569	0.0131016
830.647	0.0131123
830.725	0.0130615
830.803	0.0130230
830.881	0.0130241
830.959	0.0130653
831.037	0.0130662
831.116	0.0130952
831.194	0.0131912
831.272	0.0129982
831.350	0.0130049
831.428	0.0130845
831.506	0.0130729
831.584	0.0130965
831.662	0.0130975
831.741	0.0130566
831.819	0.0131591
831.897	0.0131889
831.975	0.0130351
832.053	0.0130988
832.131	0.0131195
832.209	0.0130575
832.287	0.0131413
832.366	0.0130947
832.444	0.0130070
832.522	0.0132119
832.600	0.0130694
832.678	0.0129952
832.756	0.0130276
832.834	0.0130230
832.912	0.0130627
832.991	0.0130866
833.069	0.0130598
833.147	0.0130672
833.225	0.0130309
833.303	0.0131085
833.381	0.0131654
833.459	0.0129524
833.537	0.0131027
833.616	0.0132021
833.694	0.0131806
833.772	0.0130824
833.850	0.0131593
833.928	0.0131029
834.006	0.0131635
834.084	0.0131258
834.162	0.0130246
834.241	0.0130495
834.319	0.0131136
834.397	0.0130247
834.475	0.0130937
834.553	0.0130928
834.631	0.0131198
834.709	0.0130103
834.787	0.0130603
834.866	0.0130211
834.944	0.0131998
835.022	0.0130562
835.100	0.0131512
835.178	0.0131779
835.256	0.0130590
835.334	0.0131716
835.412	0.0130612
835.491	0.0130109
835.569	0.0129296
835.647	0.0130626
835.725	0.0130163
835.803	0.0131058
835.881	0.0130221
835.959	0.0130049
836.037	0.0129691
836.116	0.0130761
836.194	0.0131477
836.272	0.0130861
836.350	0.0130550
836.428	0.0131121
836.506	0.0131300
836.584	0.0130054
836.662	0.0131134
836.741	0.0131911
836.819	0.0132764
836.897	0.0131819
836.975	0.0130923
837.053	0.0130693
837.131	0.0131941
837.209	0.0130753
837.287	0.0129372
837.366	0.0130429
837.444	0.0130782
837.522	0.0130554
837.600	0.0130589
837.678	0.0129945
837.756	0.0130291
837.834	0.0131013
837.912	0.0129742
837.991	0.0130689
838.069	0.0131612
838.147	0.0131271
838.225	0.0131840
838.303	0.0131569
838.381	0.0131184
838.459	0.0131321
838.537	0.0132690
838.616	0.0132055
838.694	0.0131468
838.772	0.0133054
838.850	0.0132030
838.928	0.0130676
839.006	0.0131777
839.084	0.0132594
839.162	0.0130972
839.241	0.0131335
839.319	0.0130303
839.397	0.0129883
839.475	0.0131314
839.553	0.0130365
839.631	0.0130135
839.709	0.0130245
839.787	0.0132128
839.866	0.0130298
839.944	0.0131415
840.022	0.0130872
840.100	0.0132012
840.178	0.0130855
840.256	0.0132103
840.334	0.0131763
840.412	0.0131792
840.491	0.0131167
840.569	0.0130614
840.647	0.0129449
840.725	0.0130913
840.803	0.0131623
840.881	0.0129733
840.959	0.0131081
841.037	0.0129514
841.116	0.0130530
841.194	0.0131219
841.272	0.0130626
841.350	0.0131526
841.428	0.0129768
841.506	0.0131526
841.584	0.0128790
841.662	0.0128410
841.741	0.0130873
841.819	0.0130427
841.897	0.0130473
841.975	0.0130640
842.053	0.0130628
842.131	0.0129275
842.209	0.0131059
842.287	0.0130532
842.366	0.0132452
842.444	0.0130228
842.522	0.0129875
842.600	0.0130841
842.678	0.0130919
842.756	0.0131243
842.834	0.0131002
842.912	0.0130387
842.991	0.0131046
843.069	0.0129954
843.147	0.0129979
843.225	0.0130685
843.303	0.0130794
843.381	0.0130836
843.459	0.0131247
843.537	0.0131477
843.616	0.0132130
843.694	0.0131291
843.772	0.0130248
843.850	0.0130640
843.928	0.0130208
844.006	0.0130193
844.084	0.0130129
844.162	0.0131330
844.241	0.0129886
844.319	0.0129562
844.397	0.0130588
844.475	0.0130573
844.553	0.0130093
844.631	0.0130430
844.709	0.0130339
844.787	0.0130629
844.866	0.0130204
844.944	0.0130923
845.022	0.0131696
845.100	0.0131086
845.178	0.0130074
845.256	0.0129783
845.334	0.0129896
845.412	0.0131959
845.491	0.0129805
845.569	0.0129719
845.647	0.0129871
845.725	0.0130437
845.803	0.0130345
845.881	0.0130945
845.959	0.0130364
846.037	0.0130064
846.116	0.0129874
846.194	0.0129650
846.272	0.0130328
846.350	0.0129852
846.428	0.0129807
846.506	0.0129395
846.584	0.0130373
846.662	0.0129433
846.741	0.0129547
846.819	0.0128636
846.897	0.0128983
846.975	0.0130154
847.053	0.0131746
847.131	0.0130445
847.209	0.0130520
847.287	0.0129488
847.366	0.0130676
847.444	0.0131374
847.522	0.0130975
847.600	0.0130071
847.678	0.0132858
847.756	0.0131789
847.834	0.0131993
847.912	0.0130875
847.991	0.0130767
848.069	0.0130575
848.147	0.0131174
848.225	0.0130249
848.303	0.0132155
848.381	0.0131810
848.459	0.0130505
848.537	0.0131885
848.616	0.0130959
848.694	0.0131064
848.772	0.0131003
848.850	0.0131964
848.928	0.0131609
849.006	0.0130483
849.084	0.0130975
849.162	0.0130791
849.241	0.0130589
849.319	0.0130674
849.397	0.0130666
849.475	0.0130096
849.553	0.0130653
849.631	0.0129876
849.709	0.0129239
849.787	0.0130758
849.866	0.0131701
849.944	0.0130860
850.022	0.0130209
850.100	0.0130811
850.178	0.0129913
850.256	0.0130272
850.334	0.0130203
850.412	0.0130780
850.491	0.0130657
850.569	0.0131012
850.647	0.0131707
850.725	0.0131842
850.803	0.0130554
850.881	0.0131449
850.959	0.0129516
851.037	0.0131459
851.116	0.0130785
851.194	0.0130946
851.272	0.0130741
851.350	0.0130844
851.428	0.0131461
851.506	0.0130300
851.584	0.0131049
851.662	0.0130048
851.741	0.0129578
851.819	0.0129453
851.897	0.0131802
851.975	0.0130683
852.053	0.0129794
852.131	0.0129628
852.209	0.0130492
852.287	0.0129690
852.366	0.0131165
852.444	0.0130268
852.522	0.0130491
852.600	0.0131548
852.678	0.0129993
852.756	0.0131252
852.834	0.0130459
852.912	0.0130848
852.991	0.0131625
853.069	0.0130833
853.147	0.0130906
853.225	0.0130118
853.303	0.0130287
853.381	0.0131086
853.459	0.0130154
853.537	0.0130647
853.616	0.0131395
853.694	0.0129362
853.772	0.0130712
853.850	0.0131990
853.928	0.0131715
854.006	0.0131421
854.084	0.0130618
854.162	0.0131515
854.241	0.0130350
854.319	0.0130475
854.397	0.0130945
854.475	0.0130534
854.553	0.0131612
854.631	0.0130762
854.709	0.0129626
854.787	0.0129900
854.866	0.0130911
854.944	0.0130595
855.022	0.0131113
855.100	0.0129740
855.178	0.0130105
855.256	0.0130282
855.334	0.0131501
855.412	0.0130560
855.491	0.0130283
855.569	0.0128934
855.647	0.0130684
855.725	0.0129736
855.803	0.0130415
855.881	0.0130145
855.959	0.0129591
856.037	0.0129480
856.116	0.0130431
856.194	0.0130659
856.272	0.0129883
856.350	0.0129462
856.428	0.0128912
856.506	0.0129362
856.584	0.0131560
856.662	0.0130653
856.741	0.0129729
856.819	0.0129485
856.897	0.0130568
856.975	0.0131821
857.053	0.0131077
857.131	0.0129939
857.209	0.0131458
857.287	0.0130090
857.366	0.0129479
857.444	0.0130611
857.522	0.0129596
857.600	0.0129633
857.678	0.0129430
857.756	0.0130691
857.834	0.0130883
857.912	0.0129912
857.991	0.0129868
858.069	0.0130866
858.147	0.0130211
858.225	0.0130914
858.303	0.0130282
858.381	0.0131163
858.459	0.0130389
858.537	0.0129955
858.616	0.0130803
858.694	0.0131280
858.772	0.0131551
858.850	0.0131651
858.928	0.0132534
859.006	0.0130441
859.084	0.0130638
859.162	0.0129660
859.241	0.0130125
859.319	0.0130407
859.397	0.0130573
859.475	0.0130222
859.553	0.0129902
859.631	0.0130408
859.709	0.0130360
859.787	0.0130598
859.866	0.0129910
859.944	0.0132033
860.022	0.0131033
860.100	0.0129951
860.178	0.0131124
860.256	0.0130383
860.334	0.0130902
860.412	0.0130823
860.491	0.0130543
860.569	0.0131442
860.647	0.0130293
860.725	0.0130828
860.803	0.0130564
860.881	0.0130318
860.959	0.0130199
861.037	0.0129595
861.116	0.0129785
861.194	0.0130687
861.272	0.0130342
861.350	0.0130798
861.428	0.0131135
861.506	0.0129542
861.584	0.0130904
861.662	0.0130302
861.741	0.0130045
861.819	0.0131552
861.897	0.0132702
861.975	0.0131649
862.053	0.0131744
862.131	0.0131706
862.209	0.0130614
862.287	0.0131245
862.366	0.0132385
862.444	0.0131625
862.522	0.0131476
862.600	0.0131754
862.678	0.0132252
862.756	0.0130907
862.834	0.0129703
862.912	0.0129852
862.991	0.0130296
863.069	0.0130437
863.147	0.0130794
863.225	0.0129375
863.303	0.0129189
863.381	0.0130412
863.459	0.0131012
863.537	0.0131335
863.616	0.0129957
863.694	0.0130343
863.772	0.0130359
863.850	0.0129951
863.928	0.0129003
864.006	0.0130258
864.084	0.0129236
864.162	0.0129868
864.241	0.0128807
864.319	0.0130893
864.397	0.0130133
864.475	0.0129336
864.553	0.0129597
864.631	0.0131108
864.709	0.0130116
864.787	0.0131098
864.866	0.0130236
864.944	0.0130392
865.022	0.0129770
865.100	0.0130384
865.178	0.0128771
865.256	0.0129877
865.334	0.0131238
865.412	0.0129939
865.491	0.0129616
865.569	0.0131731
865.647	0.0130254
865.725	0.0130376
865.803	0.0130328
865.881	0.0129761
865.959	0.0131126
866.037	0.0130003
866.116	0.0131662
866.194	0.0129889
866.272	0.0129562
866.350	0.0130432
866.428	0.0130779
866.506	0.0130679
866.584	0.0130589
866.662	0.0130167
866.741	0.0129684
866.819	0.0130618
866.897	0.0130527
866.975	0.0130288
867.053	0.0130263
867.131	0.0130449
867.209	0.0129807
867.287	0.0131538
867.366	0.0130498
867.444	0.0129062
867.522	0.0129828
867.600	0.0129424
867.678	0.0129271
867.756	0.0130401
867.834	0.0129998
867.912	0.0130001
867.991	0.0130019
868.069	0.0129797
868.147	0.0131456
868.225	0.0129745
868.303	0.0131681
868.381	0.0131599
868.459	0.0129648
868.537	0.0129724
868.616	0.0131377
868.694	0.0130502
868.772	0.0131144
868.850	0.0130303
868.928	0.0129199
869.006	0.0129826
869.084	0.0131509
869.162	0.0131471
869.241	0.0130975
869.319	0.0130577
869.397	0.0131386
869.475	0.0131947
869.553	0.0130781
869.631	0.0131393
869.709	0.0131697
869.787	0.0131307
869.866	0.0130504
869.944	0.0131527
870.022	0.0131552
870.100	0.0129809
870.178	0.0130565
870.256	0.0131312
870.334	0.0131180
870.412	0.0130997
870.491	0.0130065
870.569	0.0130913
870.647	0.0131061
870.725	0.0131168
870.803	0.0131001
870.881	0.0130926
870.959	0.0130786
871.037	0.0131450
871.116	0.0131381
871.194	0.0130885
871.272	0.0130866
871.350	0.0132738
871.428	0.0132063
871.506	0.0130222
871.584	0.0130357
871.662	0.0131594
871.741	0.0130730
871.819	0.0130280
871.897	0.0130302
871.975	0.0130679
872.053	0.0129746
872.131	0.0131422
872.209	0.0131075
872.287	0.0131388
872.366	0.0129970
872.444	0.0130589
872.522	0.0130562
872.600	0.0131287
872.678	0.0130753
872.756	0.0131308
872.834	0.0131358
872.912	0.0131770
872.991	0.0131896
873.069	0.0129881
873.147	0.0131946
873.225	0.0132014
873.303	0.0132053
873.381	0.0131282
873.459	0.0130811
873.537	0.0130417
873.616	0.0131006
873.694	0.0131321
873.772	0.0130573
873.850	0.0130322
873.928	0.0130743
874.006	0.0130749
874.084	0.0130550
874.162	0.0130539
874.241	0.0130605
874.319	0.0130480
874.397	0.0130270
874.475	0.0129311
874.553	0.0129958
874.631	0.0130794
874.709	0.0130093
874.787	0.0130880
874.866	0.0129648
874.944	0.0129118
875.022	0.0131289
875.100	0.0128122
875.178	0.0131115
875.256	0.0129719
875.334	0.0129926
875.412	0.0129033
875.491	0.0130012
875.569	0.0129247
875.647	0.0130778
875.725	0.0130210
875.803	0.0129738
875.881	0.0129335
875.959	0.0130052
876.037	0.0129218
876.116	0.0130446
876.194	0.0130037
876.272	0.0130593
876.350	0.0129886
876.428	0.0129874
876.506	0.0129902
876.584	0.0129727
876.662	0.0129233
876.741	0.0129800
876.819	0.0130424
876.897	0.0129330
876.975	0.0129724
877.053	0.0130077
877.131	0.0129299
877.209	0.0130128
877.287	0.0129776
877.366	0.0129681
877.444	0.0130070
877.522	0.0129424
877.600	0.0129202
877.678	0.0130659
877.756	0.0131551
877.834	0.0130624
877.912	0.0130303
877.991	0.0128739
878.069	0.0129846
878.147	0.0130822
878.225	0.0129346
878.303	0.0130603
878.381	0.0128676
878.459	0.0128771
878.537	0.0130350
878.616	0.0129421
878.694	0.0129607
878.772	0.0130708
878.850	0.0129174
878.928	0.0130755
879.006	0.0129673
879.084	0.0129620
879.162	0.0130511
879.241	0.0131830
879.319	0.0129713
879.397	0.0129963
879.475	0.0132143
879.553	0.0130228
879.631	0.0130247
879.709	0.0129873
879.787	0.0129363
879.866	0.0128457
879.944	0.0127745
880.022	0.0128204
880.100	0.0127984
880.178	0.0127657
880.256	0.0128426
880.334	0.0129907
880.412	0.0128278
880.491	0.0129209
880.569	0.0130177
880.647	0.0128831
880.725	0.0130843
880.803	0.0132008
880.881	0.0130931
880.959	0.0131701
881.037	0.0131596
881.116	0.0130064
881.194	0.0130492
881.272	0.0131011
881.350	0.0130666
881.428	0.0130566
881.506	0.0129178
881.584	0.0128059
881.662	0.0129138
881.741	0.0128767
881.819	0.0129427
881.897	0.0128317
881.975	0.0127661
882.053	0.0128880
882.131	0.0130012
882.209	0.0130036
882.287	0.0129813
882.366	0.0130132
882.444	0.0131234
882.522	0.0129913
882.600	0.0130803
882.678	0.0130927
882.756	0.0131490
882.834	0.0130790
882.912	0.0132029
882.991	0.0131310
883.069	0.0130297
883.147	0.0131767
883.225	0.0132124
883.303	0.0131461
883.381	0.0131329
883.459	0.0131283
883.537	0.0131026
883.616	0.0130420
883.694	0.0129881
883.772	0.0131075
883.850	0.0132568
883.928	0.0130750
884.006	0.0132147
884.084	0.0132495
884.162	0.0130385
884.241	0.0129909
884.319	0.0130578
884.397	0.0129784
884.475	0.0131149
884.553	0.0130669
884.631	0.0132218
884.709	0.0131683
884.787	0.0131004
884.866	0.0131819
884.944	0.0131121
885.022	0.0130643
885.100	0.0129673
885.178	0.0130196
885.256	0.0131233
885.334	0.0129574
885.412	0.0129790
885.491	0.0130174
885.569	0.0129970
885.647	0.0130837
885.725	0.0130012
885.803	0.0128837
885.881	0.0130047
885.959	0.0129834
886.037	0.0131969
886.116	0.0130412
886.194	0.0129688
886.272	0.0129716
886.350	0.0130320
886.428	0.0130364
886.506	0.0130389
886.584	0.0131381
886.662	0.0130618
886.741	0.0130306
886.819	0.0130727
886.897	0.0130726
886.975	0.0129807
887.053	0.0131847
887.131	0.0130319
887.209	0.0129837
887.287	0.0130311
887.366	0.0129853
887.444	0.0129393
887.522	0.0130653
887.600	0.0129501
887.678	0.0129397
887.756	0.0130336
887.834	0.0130244
887.912	0.0128579
887.991	0.0128953
888.069	0.0130621
888.147	0.0128514
888.225	0.0128154
888.303	0.0129460
888.381	0.0129769
888.459	0.0128712
888.537	0.0128573
888.616	0.0129992
888.694	0.0128997
888.772	0.0130304
888.850	0.0129229
888.928	0.0129066
889.006	0.0130312
889.084	0.0129573
889.162	0.0129933
889.241	0.0130649
889.319	0.0130663
889.397	0.0130056
889.475	0.0130527
889.553	0.0130103
889.631	0.0131333
889.709	0.0130164
889.787	0.0130621
889.866	0.0130969
889.944	0.0130791
890.022	0.0130699
890.100	0.0130712
890.178	0.0130293
890.256	0.0129235
890.334	0.0130761
890.412	0.0129823
890.491	0.0129831
890.569	0.0128672
890.647	0.0131024
890.725	0.0129796
890.803	0.0130225
890.881	0.0129498
890.959	0.0131264
891.037	0.0130018
891.116	0.0129474
891.194	0.0131334
891.272	0.0128445
891.350	0.0130186
891.428	0.0128926
891.506	0.0129823
891.584	0.0130733
891.662	0.0130517
891.741	0.0129872
891.819	0.0130013
891.897	0.0129315
891.975	0.0130179
892.053	0.0129730
892.131	0.0129573
892.209	0.0130385
892.287	0.0130782
892.366	0.0131494
892.444	0.0129541
892.522	0.0128510
892.600	0.0129639
892.678	0.0130244
892.756	0.0127866
892.834	0.0130440
892.912	0.0129116
892.991	0.0128383
893.069	0.0129337
893.147	0.0128322
893.225	0.0127551
893.303	0.0127496
893.381	0.0128075
893.459	0.0129440
893.537	0.0128245
893.616	0.0126943
893.694	0.0128007
893.772	0.0128436
893.850	0.0129223
893.928	0.0130382
894.006	0.0129640
894.084	0.0128605
894.162	0.0130984
894.241	0.0131352
894.319	0.0130943
894.397	0.0129439
894.475	0.0131724
894.553	0.0130348
894.631	0.0132034
894.709	0.0130519
894.787	0.0130004
894.866	0.0128782
894.944	0.0129823
895.022	0.0131056
895.100	0.0129710
895.178	0.0130282
895.256	0.0129253
895.334	0.0130251
895.412	0.0130656
895.491	0.0130643
895.569	0.0129980
895.647	0.0131639
895.725	0.0132793
895.803	0.0131740
895.881	0.0133086
895.959	0.0131342
896.037	0.0131653
896.116	0.0131348
896.194	0.0130429
896.272	0.0132075
896.350	0.0130977
896.428	0.0128389
896.506	0.0129438
896.584	0.0128117
896.662	0.0130878
896.741	0.0130363
896.819	0.0129815
896.897	0.0128909
896.975	0.0129623
897.053	0.0129934
897.131	0.0129577
897.209	0.0128761
897.287	0.0129141
897.366	0.0129668
897.444	0.0129037
897.522	0.0130563
897.600	0.0129337
897.678	0.0129246
897.756	0.0128797
897.834	0.0128925
897.912	0.0128658
897.991	0.0130379
898.069	0.0127689
898.147	0.0128209
898.225	0.0129400
898.303	0.0130582
898.381	0.0129295
898.459	0.0129767
898.537	0.0128045
898.616	0.0128635
898.694	0.0129304
898.772	0.0128704
898.850	0.0130058
898.928	0.0131083
899.006	0.0128769
899.084	0.0129832
899.162	0.0129654
899.241	0.0129336
899.319	0.0128136
899.397	0.0127570
899.475	0.0129551
899.553	0.0128458
899.631	0.0128408
899.709	0.0130203
899.787	0.0129074
899.866	0.0128785
899.944	0.0130083
900.022	0.0130106
900.100	0.0131251
900.178	0.0130051
900.256	0.0130844
900.334	0.0132257
900.412	0.0130061
900.491	0.0132126
900.569	0.0131041
900.647	0.0131245
900.725	0.0132849
900.803	0.0131531
900.881	0.0132270
900.959	0.0131907
901.037	0.0131891
901.116	0.0130190
901.194	0.0131185
901.272	0.0130799
901.350	0.0131421
901.428	0.0131377
901.506	0.0131951
901.584	0.0131503
901.662	0.0131306
901.741	0.0132877
901.819	0.0132273
901.897	0.0131009
901.975	0.0131766
902.053	0.0130801
902.131	0.0131684
902.209	0.0131550
902.287	0.0130293
902.366	0.0130792
902.444	0.0131118
902.522	0.0131636
902.600	0.0131295
902.678	0.0130140
902.756	0.0132951
902.834	0.0131438
902.912	0.0130978
902.991	0.0128822
903.069	0.0130784
903.147	0.0131828
903.225	0.0130663
903.303	0.0131522
903.381	0.0131354
903.459	0.0130283
903.537	0.0128688
903.616	0.0130439
903.694	0.0131644
903.772	0.0129820
903.850	0.0129178
903.928	0.0128113
904.006	0.0129442
904.084	0.0128556
904.162	0.0128519
904.241	0.0128590
904.319	0.0130011
904.397	0.0129712
904.475	0.0128942
904.553	0.0129262
904.631	0.0129477
904.709	0.0129614
904.787	0.0130605
904.866	0.0130840
904.944	0.0130029
905.022	0.0130894
905.100	0.0132706
905.178	0.0130436
905.256	0.0130894
905.334	0.0130484
905.412	0.0130947
905.491	0.0130654
905.569	0.0130617
905.647	0.0131668
905.725	0.0131715
905.803	0.0132009
905.881	0.0130624
905.959	0.0131192
906.037	0.0130685
906.116	0.0130426
906.194	0.0131171
906.272	0.0128641
906.350	0.0129720
906.428	0.0129658
906.506	0.0129410
906.584	0.0129134
906.662	0.0129214
906.741	0.0130183
906.819	0.0130933
906.897	0.0129833
906.975	0.0130128
907.053	0.0130295
907.131	0.0129664
907.209	0.0131174
907.287	0.0130818
907.366	0.0130589
907.444	0.0131084
907.522	0.0132624
907.600	0.0131827
907.678	0.0132452
907.756	0.0131472
907.834	0.0131095
907.912	0.0131757
907.991	0.0131534
908.069	0.0131843
908.147	0.0130946
908.225	0.0131126
908.303	0.0130773
908.381	0.0130682
908.459	0.0131254
908.537	0.0129701
908.616	0.0131197
908.694	0.0130105
908.772	0.0130482
908.850	0.0128590
908.928	0.0129288
909.006	0.0130929
909.084	0.0130509
909.162	0.0130516
909.241	0.0130547
909.319	0.0129781
909.397	0.0131013
909.475	0.0131773
909.553	0.0130608
909.631	0.0131087
909.709	0.0130128
909.787	0.0129984
909.866	0.0130883
909.944	0.0130271
910.022	0.0131030
910.100	0.0131342
910.178	0.0131268
910.256	0.0130466
910.334	0.0130478
910.412	0.0131593
910.491	0.0130421
910.569	0.0131319
910.647	0.0130944
910.725	0.0130222
910.803	0.0130511
910.881	0.0131364
910.959	0.0130927
911.037	0.0131064
911.116	0.0130791
911.194	0.0131129
911.272	0.0130193
911.350	0.0130423
911.428	0.0129363
911.506	0.0130211
911.584	0.0129495
911.662	0.0129684
911.741	0.0130123
911.819	0.0129494
911.897	0.0128387
911.975	0.0131058
912.053	0.0131012
912.131	0.0131290
912.209	0.0130151
912.287	0.0130112
912.366	0.0130412
912.444	0.0131666
912.522	0.0131660
912.600	0.0132156
912.678	0.0129787
912.756	0.0130596
912.834	0.0131446
912.912	0.0130836
912.991	0.0130843
913.069	0.0132049
913.147	0.0130324
913.225	0.0129858
913.303	0.0129925
913.381	0.0129316
913.459	0.0129922
913.537	0.0129449
913.616	0.0130307
913.694	0.0129572
913.772	0.0129591
913.850	0.0129850
913.928	0.0129968
914.006	0.0128460
914.084	0.0129231
914.162	0.0130084
914.241	0.0128984
914.319	0.0128378
914.397	0.0129530
914.475	0.0129980
914.553	0.0130085
914.631	0.0129775
914.709	0.0128753
914.787	0.0128365
914.866	0.0129910
914.944	0.0129520
915.022	0.0130594
915.100	0.0128888
915.178	0.0128812
915.256	0.0128989
915.334	0.0129949
915.412	0.0130165
915.491	0.0129526
915.569	0.0129527
915.647	0.0129333
915.725	0.0129671
915.803	0.0130776
915.881	0.0130259
915.959	0.0130752
916.037	0.0129974
916.116	0.0128977
916.194	0.0129993
916.272	0.0130397
916.350	0.0130492
916.428	0.0130434
916.506	0.0129882
916.584	0.0128670
916.662	0.0130507
916.741	0.0131895
916.819	0.0132068
916.897	0.0131142
916.975	0.0130664
917.053	0.0128861
917.131	0.0128979
917.209	0.0129343
917.287	0.0130634
917.366	0.0129711
917.444	0.0130005
917.522	0.0128246
917.600	0.0130233
917.678	0.0131618
917.756	0.0130000
917.834	0.0130402
917.912	0.0128682
917.991	0.0130489
918.069	0.0130408
918.147	0.0129613
918.225	0.0127827
918.303	0.0132426
918.381	0.0130629
918.459	0.0129691
918.537	0.0130724
918.616	0.0131313
918.694	0.0132124
918.772	0.0129506
918.850	0.0129215
918.928	0.0130451
919.006	0.0128612
919.084	0.0129459
919.162	0.0129218
919.241	0.0129482
919.319	0.0129466
919.397	0.0129887
919.475	0.0130330
919.553	0.0129601
919.631	0.0130015
919.709	0.0130357
919.787	0.0129735
919.866	0.0129693
919.944	0.0130329
