05/06/2022	18:39:53	Ver.	4.1	UNKNOWN
Optical Delay	600.021766	Delta X		0.078125	Sweeps	1	Scan Rate	0/0
Coordinates	Axis 1	NaN	Axis 2	NaN	Axis 3	NaN	Axis 4	NaN	Axis 5	NaN	Axis 6	0.000000
TX Power	0.000000	RX Power	0.000000

600.022	0.0130477
600.100	0.0130662
600.178	0.0130880
600.256	0.0130412
600.334	0.0130676
600.412	0.0131041
600.491	0.0131081
600.569	0.0128530
600.647	0.0130435
600.725	0.0130389
600.803	0.0130932
600.881	0.0131416
600.959	0.0130446
601.037	0.0130782
601.116	0.0131475
601.194	0.0131123
601.272	0.0131280
601.350	0.0131251
601.428	0.0130672
601.506	0.0129474
601.584	0.0130275
601.662	0.0130015
601.741	0.0130608
601.819	0.0131403
601.897	0.0131271
601.975	0.0131376
602.053	0.0130917
602.131	0.0131052
602.209	0.0130322
602.287	0.0130535
602.366	0.0129652
602.444	0.0130505
602.522	0.0129951
602.600	0.0129868
602.678	0.0130569
602.756	0.0131068
602.834	0.0130132
602.912	0.0130460
602.991	0.0129599
603.069	0.0130875
603.147	0.0131388
603.225	0.0130669
603.303	0.0130097
603.381	0.0130821
603.459	0.0129511
603.537	0.0131557
603.616	0.0129879
603.694	0.0131091
603.772	0.0131178
603.850	0.0130354
603.928	0.0129847
604.006	0.0129917
604.084	0.0131097
604.162	0.0132164
604.241	0.0130914
604.319	0.0129691
604.397	0.0129990
604.475	0.0130637
604.553	0.0130213
604.631	0.0130177
604.709	0.0129805
604.787	0.0131285
604.866	0.0131015
604.944	0.0131052
605.022	0.0129949
605.100	0.0132014
605.178	0.0131608
605.256	0.0130856
605.334	0.0132088
605.412	0.0130033
605.491	0.0131540
605.569	0.0131303
605.647	0.0130253
605.725	0.0129920
605.803	0.0130160
605.881	0.0129488
605.959	0.0130129
606.037	0.0129845
606.116	0.0132426
606.194	0.0131149
606.272	0.0129589
606.350	0.0131111
606.428	0.0129228
606.506	0.0129361
606.584	0.0130682
606.662	0.0131272
606.741	0.0131223
606.819	0.0130556
606.897	0.0131227
606.975	0.0129746
607.053	0.0130937
607.131	0.0129980
607.209	0.0130843
607.287	0.0129493
607.366	0.0131893
607.444	0.0129788
607.522	0.0130298
607.600	0.0130490
607.678	0.0130978
607.756	0.0129542
607.834	0.0129042
607.912	0.0130338
607.991	0.0131887
608.069	0.0130466
608.147	0.0130695
608.225	0.0131766
608.303	0.0130757
608.381	0.0130501
608.459	0.0130565
608.537	0.0130659
608.616	0.0130620
608.694	0.0130336
608.772	0.0131618
608.850	0.0130131
608.928	0.0130792
609.006	0.0131215
609.084	0.0130563
609.162	0.0130910
609.241	0.0129922
609.319	0.0130026
609.397	0.0130505
609.475	0.0131175
609.553	0.0130280
609.631	0.0130224
609.709	0.0130637
609.787	0.0131021
609.866	0.0130414
609.944	0.0130359
610.022	0.0130304
610.100	0.0130960
610.178	0.0130776
610.256	0.0132012
610.334	0.0131068
610.412	0.0132529
610.491	0.0129826
610.569	0.0129008
610.647	0.0130916
610.725	0.0129860
610.803	0.0130824
610.881	0.0132313
610.959	0.0130728
611.037	0.0130457
611.116	0.0129874
611.194	0.0129900
611.272	0.0132061
611.350	0.0131627
611.428	0.0129658
611.506	0.0130011
611.584	0.0130302
611.662	0.0130480
611.741	0.0131277
611.819	0.0131165
611.897	0.0130470
611.975	0.0129324
612.053	0.0130650
612.131	0.0130130
612.209	0.0131617
612.287	0.0130016
612.366	0.0130054
612.444	0.0129860
612.522	0.0130730
612.600	0.0130872
612.678	0.0129369
612.756	0.0130358
612.834	0.0129008
612.912	0.0129916
612.991	0.0130700
613.069	0.0130996
613.147	0.0131810
613.225	0.0131628
613.303	0.0131000
613.381	0.0130205
613.459	0.0130040
613.537	0.0130656
613.616	0.0130607
613.694	0.0129704
613.772	0.0131055
613.850	0.0130406
613.928	0.0128600
614.006	0.0129839
614.084	0.0131143
614.162	0.0131224
614.241	0.0130901
614.319	0.0130727
614.397	0.0131464
614.475	0.0129441
614.553	0.0130782
614.631	0.0130386
614.709	0.0129925
614.787	0.0131362
614.866	0.0130428
614.944	0.0130756
615.022	0.0131267
615.100	0.0130621
615.178	0.0130060
615.256	0.0130849
615.334	0.0130566
615.412	0.0130523
615.491	0.0130788
615.569	0.0132149
615.647	0.0131590
615.725	0.0130659
615.803	0.0131081
615.881	0.0130701
615.959	0.0129223
616.037	0.0130720
616.116	0.0129914
616.194	0.0130398
616.272	0.0131435
616.350	0.0130499
616.428	0.0131404
616.506	0.0130587
616.584	0.0130869
616.662	0.0132122
616.741	0.0131469
616.819	0.0130841
616.897	0.0130816
616.975	0.0130611
617.053	0.0130006
617.131	0.0131378
617.209	0.0130354
617.287	0.0130173
617.366	0.0129736
617.444	0.0130328
617.522	0.0129821
617.600	0.0130428
617.678	0.0131375
617.756	0.0131905
617.834	0.0130832
617.912	0.0130527
617.991	0.0130022
618.069	0.0131194
618.147	0.0131086
618.225	0.0131708
618.303	0.0130856
618.381	0.0131830
618.459	0.0131556
618.537	0.0131090
618.616	0.0130828
618.694	0.0130051
618.772	0.0131744
618.850	0.0129973
618.928	0.0130669
619.006	0.0129145
619.084	0.0130619
619.162	0.0130725
619.241	0.0130711
619.319	0.0129980
619.397	0.0129256
619.475	0.0130534
619.553	0.0131120
619.631	0.0129551
619.709	0.0131195
619.787	0.0129403
619.866	0.0130632
619.944	0.0130358
620.022	0.0129729
620.100	0.0130852
620.178	0.0130435
620.256	0.0129823
620.334	0.0131946
620.412	0.0131783
620.491	0.0130730
620.569	0.0129950
620.647	0.0130254
620.725	0.0130402
620.803	0.0129644
620.881	0.0131538
620.959	0.0130615
621.037	0.0131336
621.116	0.0130996
621.194	0.0130594
621.272	0.0130523
621.350	0.0131264
621.428	0.0130418
621.506	0.0131264
621.584	0.0131290
621.662	0.0129273
621.741	0.0131625
621.819	0.0129756
621.897	0.0129059
621.975	0.0129539
622.053	0.0130840
622.131	0.0130804
622.209	0.0130985
622.287	0.0131128
622.366	0.0131730
622.444	0.0130315
622.522	0.0130511
622.600	0.0130219
622.678	0.0132258
622.756	0.0131237
622.834	0.0130157
622.912	0.0131080
622.991	0.0129932
623.069	0.0131349
623.147	0.0131263
623.225	0.0130231
623.303	0.0131249
623.381	0.0130414
623.459	0.0130792
623.537	0.0129855
623.616	0.0130582
623.694	0.0132404
623.772	0.0130534
623.850	0.0131112
623.928	0.0130549
624.006	0.0132262
624.084	0.0130363
624.162	0.0130787
624.241	0.0130636
624.319	0.0131832
624.397	0.0131276
624.475	0.0130279
624.553	0.0131090
624.631	0.0131073
624.709	0.0131155
624.787	0.0131206
624.866	0.0130822
624.944	0.0131041
625.022	0.0131348
625.100	0.0131397
625.178	0.0129366
625.256	0.0130381
625.334	0.0132237
625.412	0.0128974
625.491	0.0130833
625.569	0.0131764
625.647	0.0132184
625.725	0.0129568
625.803	0.0130116
625.881	0.0131425
625.959	0.0131158
626.037	0.0129562
626.116	0.0130286
626.194	0.0131811
626.272	0.0131316
626.350	0.0130402
626.428	0.0131283
626.506	0.0130879
626.584	0.0130219
626.662	0.0131164
626.741	0.0129798
626.819	0.0131237
626.897	0.0132226
626.975	0.0131510
627.053	0.0129773
627.131	0.0131767
627.209	0.0131735
627.287	0.0130012
627.366	0.0130916
627.444	0.0131127
627.522	0.0131407
627.600	0.0130982
627.678	0.0131153
627.756	0.0130807
627.834	0.0130412
627.912	0.0131926
627.991	0.0130579
628.069	0.0129623
628.147	0.0130274
628.225	0.0130463
628.303	0.0130219
628.381	0.0130912
628.459	0.0132653
628.537	0.0131007
628.616	0.0131239
628.694	0.0131398
628.772	0.0130476
628.850	0.0130654
628.928	0.0130151
629.006	0.0130389
629.084	0.0130231
629.162	0.0131670
629.241	0.0131356
629.319	0.0131080
629.397	0.0130206
629.475	0.0131278
629.553	0.0129514
629.631	0.0131334
629.709	0.0130613
629.787	0.0129670
629.866	0.0131579
629.944	0.0130132
630.022	0.0130012
630.100	0.0131214
630.178	0.0130173
630.256	0.0129340
630.334	0.0130784
630.412	0.0131812
630.491	0.0131330
630.569	0.0129913
630.647	0.0130012
630.725	0.0130799
630.803	0.0130668
630.881	0.0130709
630.959	0.0130241
631.037	0.0130978
631.116	0.0130563
631.194	0.0130675
631.272	0.0131054
631.350	0.0131145
631.428	0.0130926
631.506	0.0130333
631.584	0.0130681
631.662	0.0130300
631.741	0.0131062
631.819	0.0131123
631.897	0.0130845
631.975	0.0130763
632.053	0.0132333
632.131	0.0130909
632.209	0.0131316
632.287	0.0130874
632.366	0.0130928
632.444	0.0131082
632.522	0.0130037
632.600	0.0131461
632.678	0.0132325
632.756	0.0130329
632.834	0.0131684
632.912	0.0130849
632.991	0.0129356
633.069	0.0130379
633.147	0.0130718
633.225	0.0131116
633.303	0.0130707
633.381	0.0130830
633.459	0.0131999
633.537	0.0130011
633.616	0.0129944
633.694	0.0130914
633.772	0.0130125
633.850	0.0129979
633.928	0.0130651
634.006	0.0130657
634.084	0.0131491
634.162	0.0130428
634.241	0.0128949
634.319	0.0130958
634.397	0.0129243
634.475	0.0129524
634.553	0.0131094
634.631	0.0132251
634.709	0.0132001
634.787	0.0131716
634.866	0.0129738
634.944	0.0130521
635.022	0.0131666
635.100	0.0131426
635.178	0.0129271
635.256	0.0130016
635.334	0.0132074
635.412	0.0131553
635.491	0.0130503
635.569	0.0129485
635.647	0.0129335
635.725	0.0130840
635.803	0.0130289
635.881	0.0130994
635.959	0.0130491
636.037	0.0130382
636.116	0.0129869
636.194	0.0130223
636.272	0.0131061
636.350	0.0131003
636.428	0.0130405
636.506	0.0131077
636.584	0.0131405
636.662	0.0129636
636.741	0.0131336
636.819	0.0131305
636.897	0.0130921
636.975	0.0131357
637.053	0.0129823
637.131	0.0131392
637.209	0.0130861
637.287	0.0129897
637.366	0.0129571
637.444	0.0130847
637.522	0.0130824
637.600	0.0130459
637.678	0.0129442
637.756	0.0130963
637.834	0.0129829
637.912	0.0130832
637.991	0.0132453
638.069	0.0131668
638.147	0.0131181
638.225	0.0130209
638.303	0.0129584
638.381	0.0130425
638.459	0.0130128
638.537	0.0131242
638.616	0.0129362
638.694	0.0131342
638.772	0.0130031
638.850	0.0129525
638.928	0.0130441
639.006	0.0130016
639.084	0.0130035
639.162	0.0130471
639.241	0.0131132
639.319	0.0130867
639.397	0.0130367
639.475	0.0128619
639.553	0.0129914
639.631	0.0132101
639.709	0.0131815
639.787	0.0131150
639.866	0.0131377
639.944	0.0130535
640.022	0.0130762
640.100	0.0131120
640.178	0.0130768
640.256	0.0131146
640.334	0.0131140
640.412	0.0130654
640.491	0.0130692
640.569	0.0131042
640.647	0.0130257
640.725	0.0130302
640.803	0.0130433
640.881	0.0131100
640.959	0.0131081
641.037	0.0131197
641.116	0.0129897
641.194	0.0129810
641.272	0.0130922
641.350	0.0131143
641.428	0.0131585
641.506	0.0130991
641.584	0.0130450
641.662	0.0131499
641.741	0.0130173
641.819	0.0130088
641.897	0.0131150
641.975	0.0130096
642.053	0.0131264
642.131	0.0131365
642.209	0.0130560
642.287	0.0128197
642.366	0.0129777
642.444	0.0130733
642.522	0.0130550
642.600	0.0130905
642.678	0.0131152
642.756	0.0130682
642.834	0.0130378
642.912	0.0129447
642.991	0.0130244
643.069	0.0130229
643.147	0.0130530
643.225	0.0130563
643.303	0.0131348
643.381	0.0129678
643.459	0.0131702
643.537	0.0130057
643.616	0.0131355
643.694	0.0130704
643.772	0.0130977
643.850	0.0131487
643.928	0.0130811
644.006	0.0130148
644.084	0.0131041
644.162	0.0129765
644.241	0.0130359
644.319	0.0131108
644.397	0.0129429
644.475	0.0130534
644.553	0.0131119
644.631	0.0130891
644.709	0.0130856
644.787	0.0130731
644.866	0.0131312
644.944	0.0130492
645.022	0.0130962
645.100	0.0129499
645.178	0.0130597
645.256	0.0131548
645.334	0.0130252
645.412	0.0130733
645.491	0.0131773
645.569	0.0131429
645.647	0.0130794
645.725	0.0129472
645.803	0.0131158
645.881	0.0131398
645.959	0.0131693
646.037	0.0131181
646.116	0.0130212
646.194	0.0129145
646.272	0.0131257
646.350	0.0130266
646.428	0.0130470
646.506	0.0129951
646.584	0.0130558
646.662	0.0130925
646.741	0.0132232
646.819	0.0131924
646.897	0.0131139
646.975	0.0130584
647.053	0.0131583
647.131	0.0130936
647.209	0.0129951
647.287	0.0130314
647.366	0.0130434
647.444	0.0129877
647.522	0.0130789
647.600	0.0131366
647.678	0.0130017
647.756	0.0131276
647.834	0.0130397
647.912	0.0131253
647.991	0.0131342
648.069	0.0131230
648.147	0.0130141
648.225	0.0130220
648.303	0.0131464
648.381	0.0130631
648.459	0.0129366
648.537	0.0129044
648.616	0.0130984
648.694	0.0130466
648.772	0.0130685
648.850	0.0130614
648.928	0.0129736
649.006	0.0131048
649.084	0.0130310
649.162	0.0130116
649.241	0.0129905
649.319	0.0130582
649.397	0.0129987
649.475	0.0129887
649.553	0.0130591
649.631	0.0131179
649.709	0.0131158
649.787	0.0130288
649.866	0.0130628
649.944	0.0130470
650.022	0.0130494
650.100	0.0130447
650.178	0.0130993
650.256	0.0130724
650.334	0.0130753
650.412	0.0129973
650.491	0.0130816
650.569	0.0130617
650.647	0.0129641
650.725	0.0130779
650.803	0.0130927
650.881	0.0130486
650.959	0.0131368
651.037	0.0130356
651.116	0.0130991
651.194	0.0130106
651.272	0.0130110
651.350	0.0130917
651.428	0.0130642
651.506	0.0131224
651.584	0.0131503
651.662	0.0132590
651.741	0.0131075
651.819	0.0130825
651.897	0.0131474
651.975	0.0130386
652.053	0.0130384
652.131	0.0130225
652.209	0.0130738
652.287	0.0129729
652.366	0.0131448
652.444	0.0130563
652.522	0.0130500
652.600	0.0131348
652.678	0.0130503
652.756	0.0131193
652.834	0.0130294
652.912	0.0129704
652.991	0.0131889
653.069	0.0130248
653.147	0.0130492
653.225	0.0129931
653.303	0.0129157
653.381	0.0131745
653.459	0.0129275
653.537	0.0131458
653.616	0.0131466
653.694	0.0130740
653.772	0.0130981
653.850	0.0131743
653.928	0.0132097
654.006	0.0131415
654.084	0.0130648
654.162	0.0130453
654.241	0.0130332
654.319	0.0130782
654.397	0.0131289
654.475	0.0130627
654.553	0.0131313
654.631	0.0130428
654.709	0.0130405
654.787	0.0131282
654.866	0.0130390
654.944	0.0130527
655.022	0.0130724
655.100	0.0131287
655.178	0.0130492
655.256	0.0130057
655.334	0.0129204
655.412	0.0130482
655.491	0.0130177
655.569	0.0130511
655.647	0.0129956
655.725	0.0131797
655.803	0.0130628
655.881	0.0130700
655.959	0.0131139
656.037	0.0130770
656.116	0.0131208
656.194	0.0129801
656.272	0.0130248
656.350	0.0131191
656.428	0.0130559
656.506	0.0130376
656.584	0.0131492
656.662	0.0130948
656.741	0.0129745
656.819	0.0130361
656.897	0.0130248
656.975	0.0131726
657.053	0.0130424
657.131	0.0129166
657.209	0.0130286
657.287	0.0130225
657.366	0.0130251
657.444	0.0129887
657.522	0.0130152
657.600	0.0131397
657.678	0.0131048
657.756	0.0130053
657.834	0.0131234
657.912	0.0129272
657.991	0.0130542
658.069	0.0130839
658.147	0.0129212
658.225	0.0130943
658.303	0.0129408
658.381	0.0129218
658.459	0.0130039
658.537	0.0131313
658.616	0.0131116
658.694	0.0129679
658.772	0.0129570
658.850	0.0130531
658.928	0.0130639
659.006	0.0130561
659.084	0.0131902
659.162	0.0130470
659.241	0.0131004
659.319	0.0131862
659.397	0.0131538
659.475	0.0130602
659.553	0.0129945
659.631	0.0131628
659.709	0.0130461
659.787	0.0129819
659.866	0.0132011
659.944	0.0130404
660.022	0.0130965
660.100	0.0131823
660.178	0.0131807
660.256	0.0132433
660.334	0.0130611
660.412	0.0130938
660.491	0.0130067
660.569	0.0130515
660.647	0.0130515
660.725	0.0131618
660.803	0.0131258
660.881	0.0129556
660.959	0.0130334
661.037	0.0131503
661.116	0.0131119
661.194	0.0130394
661.272	0.0130175
661.350	0.0131826
661.428	0.0131086
661.506	0.0130174
661.584	0.0132392
661.662	0.0129323
661.741	0.0129801
661.819	0.0130494
661.897	0.0132259
661.975	0.0131135
662.053	0.0131493
662.131	0.0131496
662.209	0.0132366
662.287	0.0131588
662.366	0.0130785
662.444	0.0131742
662.522	0.0130703
662.600	0.0130843
662.678	0.0129510
662.756	0.0131180
662.834	0.0128593
662.912	0.0130521
662.991	0.0130605
663.069	0.0132008
663.147	0.0131907
663.225	0.0130740
663.303	0.0131390
663.381	0.0131667
663.459	0.0130675
663.537	0.0130954
663.616	0.0131361
663.694	0.0128539
663.772	0.0129356
663.850	0.0131389
663.928	0.0130524
664.006	0.0130080
664.084	0.0130578
664.162	0.0130835
664.241	0.0130065
664.319	0.0132111
664.397	0.0132196
664.475	0.0130448
664.553	0.0129993
664.631	0.0131229
664.709	0.0131173
664.787	0.0131538
664.866	0.0131174
664.944	0.0130443
665.022	0.0129720
665.100	0.0131123
665.178	0.0131178
665.256	0.0130122
665.334	0.0130043
665.412	0.0130671
665.491	0.0130965
665.569	0.0130788
665.647	0.0131594
665.725	0.0130386
665.803	0.0129475
665.881	0.0130247
665.959	0.0130910
666.037	0.0131700
666.116	0.0130688
666.194	0.0130261
666.272	0.0131374
666.350	0.0132013
666.428	0.0132406
666.506	0.0130408
666.584	0.0130817
666.662	0.0131936
666.741	0.0131482
666.819	0.0130986
666.897	0.0131385
666.975	0.0131216
667.053	0.0132100
667.131	0.0131263
667.209	0.0131460
667.287	0.0130775
667.366	0.0130799
667.444	0.0131824
667.522	0.0132021
667.600	0.0130658
667.678	0.0129381
667.756	0.0130916
667.834	0.0132288
667.912	0.0130489
667.991	0.0131677
668.069	0.0132424
668.147	0.0129633
668.225	0.0132156
668.303	0.0131060
668.381	0.0130164
668.459	0.0130331
668.537	0.0129900
668.616	0.0130565
668.694	0.0132040
668.772	0.0132283
668.850	0.0131733
668.928	0.0132694
669.006	0.0131038
669.084	0.0131710
669.162	0.0131372
669.241	0.0131155
669.319	0.0131669
669.397	0.0132072
669.475	0.0131463
669.553	0.0130138
669.631	0.0129521
669.709	0.0129639
669.787	0.0131185
669.866	0.0131727
669.944	0.0131177
670.022	0.0130881
670.100	0.0131338
670.178	0.0131364
670.256	0.0130395
670.334	0.0131618
670.412	0.0130180
670.491	0.0130047
670.569	0.0130723
670.647	0.0131707
670.725	0.0130382
670.803	0.0130563
670.881	0.0130016
670.959	0.0130388
671.037	0.0129208
671.116	0.0129784
671.194	0.0129306
671.272	0.0128944
671.350	0.0129947
671.428	0.0130006
671.506	0.0128659
671.584	0.0130471
671.662	0.0129512
671.741	0.0128575
671.819	0.0129365
671.897	0.0129001
671.975	0.0130321
672.053	0.0130622
672.131	0.0128934
672.209	0.0128716
672.287	0.0128996
672.366	0.0129758
672.444	0.0129797
672.522	0.0129279
672.600	0.0129362
672.678	0.0129474
672.756	0.0128873
672.834	0.0128692
672.912	0.0127310
672.991	0.0128207
673.069	0.0129396
673.147	0.0130485
673.225	0.0128372
673.303	0.0128169
673.381	0.0128732
673.459	0.0129810
673.537	0.0128749
673.616	0.0127263
673.694	0.0128690
673.772	0.0129013
673.850	0.0126675
673.928	0.0127798
674.006	0.0128088
674.084	0.0127406
674.162	0.0128636
674.241	0.0129076
674.319	0.0129298
674.397	0.0126065
674.475	0.0127718
674.553	0.0127824
674.631	0.0128035
674.709	0.0129111
674.787	0.0128238
674.866	0.0128860
674.944	0.0127838
675.022	0.0129005
675.100	0.0128400
675.178	0.0127548
675.256	0.0127967
675.334	0.0127719
675.412	0.0127914
675.491	0.0127743
675.569	0.0127991
675.647	0.0128568
675.725	0.0128065
675.803	0.0128355
675.881	0.0129122
675.959	0.0129189
676.037	0.0127094
676.116	0.0128947
676.194	0.0128697
676.272	0.0130423
676.350	0.0129340
676.428	0.0127236
676.506	0.0128381
676.584	0.0129298
676.662	0.0129576
676.741	0.0129914
676.819	0.0128390
676.897	0.0130083
676.975	0.0129469
677.053	0.0131260
677.131	0.0132505
677.209	0.0130280
677.287	0.0130602
677.366	0.0131200
677.444	0.0132106
677.522	0.0131110
677.600	0.0130755
677.678	0.0132512
677.756	0.0133109
677.834	0.0132636
677.912	0.0132431
677.991	0.0131560
678.069	0.0132898
678.147	0.0134026
678.225	0.0133370
678.303	0.0134013
678.381	0.0133508
678.459	0.0133208
678.537	0.0134254
678.616	0.0132416
678.694	0.0133432
678.772	0.0133252
678.850	0.0132633
678.928	0.0133131
679.006	0.0133525
679.084	0.0133404
679.162	0.0133120
679.241	0.0133036
679.319	0.0132360
679.397	0.0132717
679.475	0.0133109
679.553	0.0132936
679.631	0.0131892
679.709	0.0133791
679.787	0.0133428
679.866	0.0134379
679.944	0.0132632
680.022	0.0133710
680.100	0.0132048
680.178	0.0132600
680.256	0.0133527
680.334	0.0133572
680.412	0.0131857
680.491	0.0133042
680.569	0.0131776
680.647	0.0134844
680.725	0.0133630
680.803	0.0133900
680.881	0.0133852
680.959	0.0132986
681.037	0.0133089
681.116	0.0131976
681.194	0.0132266
681.272	0.0132819
681.350	0.0132431
681.428	0.0133744
681.506	0.0132642
681.584	0.0132392
681.662	0.0133684
681.741	0.0132052
681.819	0.0131867
681.897	0.0132703
681.975	0.0134183
682.053	0.0133427
682.131	0.0131636
682.209	0.0131469
682.287	0.0133220
682.366	0.0132963
682.444	0.0131416
682.522	0.0132066
682.600	0.0131485
682.678	0.0130928
682.756	0.0130927
682.834	0.0131889
682.912	0.0131390
682.991	0.0131850
683.069	0.0130125
683.147	0.0131197
683.225	0.0130810
683.303	0.0130936
683.381	0.0131627
683.459	0.0131246
683.537	0.0130474
683.616	0.0130785
683.694	0.0131742
683.772	0.0132236
683.850	0.0130737
683.928	0.0129820
684.006	0.0130736
684.084	0.0130416
684.162	0.0129588
684.241	0.0130142
684.319	0.0129613
684.397	0.0131196
684.475	0.0130200
684.553	0.0129543
684.631	0.0129950
684.709	0.0130260
684.787	0.0130127
684.866	0.0130327
684.944	0.0130696
685.022	0.0130524
685.100	0.0130112
685.178	0.0129034
685.256	0.0129385
685.334	0.0129411
685.412	0.0131025
685.491	0.0130857
685.569	0.0129544
685.647	0.0129602
685.725	0.0131502
685.803	0.0128599
685.881	0.0129729
685.959	0.0130086
686.037	0.0129453
686.116	0.0128541
686.194	0.0130421
686.272	0.0130880
686.350	0.0130090
686.428	0.0129680
686.506	0.0130125
686.584	0.0130014
686.662	0.0131385
686.741	0.0128479
686.819	0.0131286
686.897	0.0130871
686.975	0.0130008
687.053	0.0128533
687.131	0.0128236
687.209	0.0129279
687.287	0.0130222
687.366	0.0128456
687.444	0.0129443
687.522	0.0130355
687.600	0.0129557
687.678	0.0129021
687.756	0.0129148
687.834	0.0130797
687.912	0.0130713
687.991	0.0129790
688.069	0.0130046
688.147	0.0129462
688.225	0.0129900
688.303	0.0128953
688.381	0.0129109
688.459	0.0130225
688.537	0.0130260
688.616	0.0130039
688.694	0.0130250
688.772	0.0129395
688.850	0.0131174
688.928	0.0131096
689.006	0.0131225
689.084	0.0129605
689.162	0.0130048
689.241	0.0128920
689.319	0.0130196
689.397	0.0132304
689.475	0.0130128
689.553	0.0129724
689.631	0.0129986
689.709	0.0130478
689.787	0.0130718
689.866	0.0131358
689.944	0.0132410
690.022	0.0132806
690.100	0.0131682
690.178	0.0133797
690.256	0.0132722
690.334	0.0132584
690.412	0.0131857
690.491	0.0133809
690.569	0.0131912
690.647	0.0131199
690.725	0.0130945
690.803	0.0129768
690.881	0.0127393
690.959	0.0127676
691.037	0.0127528
691.116	0.0128400
691.194	0.0128187
691.272	0.0129273
691.350	0.0129396
691.428	0.0129854
691.506	0.0130289
691.584	0.0130783
691.662	0.0131323
691.741	0.0132143
691.819	0.0133511
691.897	0.0133672
691.975	0.0134772
692.053	0.0133709
692.131	0.0133588
692.209	0.0131861
692.287	0.0130854
692.366	0.0132192
692.444	0.0132076
692.522	0.0131564
692.600	0.0129749
692.678	0.0130223
692.756	0.0129658
692.834	0.0128790
692.912	0.0128082
692.991	0.0129784
693.069	0.0129529
693.147	0.0129304
693.225	0.0130239
693.303	0.0128715
693.381	0.0131422
693.459	0.0131088
693.537	0.0131947
693.616	0.0131981
693.694	0.0132092
693.772	0.0132057
693.850	0.0132270
693.928	0.0132003
694.006	0.0132514
694.084	0.0130445
694.162	0.0130536
694.241	0.0129787
694.319	0.0129353
694.397	0.0128631
694.475	0.0127755
694.553	0.0129021
694.631	0.0128886
694.709	0.0128008
694.787	0.0128658
694.866	0.0130180
694.944	0.0127818
695.022	0.0128389
695.100	0.0128801
695.178	0.0130041
695.256	0.0129076
695.334	0.0129369
695.412	0.0130966
695.491	0.0128868
695.569	0.0128727
695.647	0.0129208
695.725	0.0130691
695.803	0.0131136
695.881	0.0131438
695.959	0.0130566
696.037	0.0131759
696.116	0.0131544
696.194	0.0131044
696.272	0.0131570
696.350	0.0130692
696.428	0.0131065
696.506	0.0131868
696.584	0.0130716
696.662	0.0129748
696.741	0.0129350
696.819	0.0129711
696.897	0.0129498
696.975	0.0127375
697.053	0.0128759
697.131	0.0129031
697.209	0.0129247
697.287	0.0127766
697.366	0.0127652
697.444	0.0127162
697.522	0.0128999
697.600	0.0128963
697.678	0.0128925
697.756	0.0129111
697.834	0.0129228
697.912	0.0129665
697.991	0.0129400
698.069	0.0129558
698.147	0.0129428
698.225	0.0128546
698.303	0.0129139
698.381	0.0128501
698.459	0.0127495
698.537	0.0128119
698.616	0.0127909
698.694	0.0125772
698.772	0.0126546
698.850	0.0128046
698.928	0.0128848
699.006	0.0127969
699.084	0.0128487
699.162	0.0128188
699.241	0.0129506
699.319	0.0130988
699.397	0.0129910
699.475	0.0129335
699.553	0.0131245
699.631	0.0130427
699.709	0.0132087
699.787	0.0132709
699.866	0.0132766
699.944	0.0131173
700.022	0.0130639
700.100	0.0132314
700.178	0.0131129
700.256	0.0130982
700.334	0.0129169
700.412	0.0131157
700.491	0.0130216
700.569	0.0129346
700.647	0.0129828
700.725	0.0130318
700.803	0.0128382
700.881	0.0130700
700.959	0.0129478
701.037	0.0129754
701.116	0.0130009
701.194	0.0129829
701.272	0.0129536
701.350	0.0131231
701.428	0.0130039
701.506	0.0130697
701.584	0.0131361
701.662	0.0132584
701.741	0.0130159
701.819	0.0129830
701.897	0.0129298
701.975	0.0130873
702.053	0.0131346
702.131	0.0131287
702.209	0.0128727
702.287	0.0129503
702.366	0.0129497
702.444	0.0129739
702.522	0.0130058
702.600	0.0129496
702.678	0.0128394
702.756	0.0129502
702.834	0.0128632
702.912	0.0129233
702.991	0.0130344
703.069	0.0130286
703.147	0.0130753
703.225	0.0130901
703.303	0.0131697
703.381	0.0130465
703.459	0.0131548
703.537	0.0131437
703.616	0.0131527
703.694	0.0131358
703.772	0.0132822
703.850	0.0133067
703.928	0.0132337
704.006	0.0131783
704.084	0.0132413
704.162	0.0131236
704.241	0.0130717
704.319	0.0131468
704.397	0.0132027
704.475	0.0131681
704.553	0.0131562
704.631	0.0131219
704.709	0.0131979
704.787	0.0131828
704.866	0.0129877
704.944	0.0130785
705.022	0.0130764
705.100	0.0132216
705.178	0.0131333
705.256	0.0132188
705.334	0.0131128
705.412	0.0130292
705.491	0.0131179
705.569	0.0129932
705.647	0.0130215
705.725	0.0128923
705.803	0.0128119
705.881	0.0128757
705.959	0.0127691
706.037	0.0128677
706.116	0.0127365
706.194	0.0127264
706.272	0.0127071
706.350	0.0128595
706.428	0.0127757
706.506	0.0129351
706.584	0.0131454
706.662	0.0131062
706.741	0.0130322
706.819	0.0130996
706.897	0.0130347
706.975	0.0130898
707.053	0.0132637
707.131	0.0132281
707.209	0.0131508
707.287	0.0131433
707.366	0.0131963
707.444	0.0130996
707.522	0.0130975
707.600	0.0130939
707.678	0.0131554
707.756	0.0130775
707.834	0.0131526
707.912	0.0131832
707.991	0.0132958
708.069	0.0132108
708.147	0.0131618
708.225	0.0130954
708.303	0.0131373
708.381	0.0131017
708.459	0.0132454
708.537	0.0134831
708.616	0.0133740
708.694	0.0133723
708.772	0.0134756
708.850	0.0135696
708.928	0.0134662
709.006	0.0134396
709.084	0.0133047
709.162	0.0133738
709.241	0.0134122
709.319	0.0133057
709.397	0.0132365
709.475	0.0133151
709.553	0.0133035
709.631	0.0133297
709.709	0.0132716
709.787	0.0132140
709.866	0.0131895
709.944	0.0130394
710.022	0.0130556
710.100	0.0131078
710.178	0.0130817
710.256	0.0130798
710.334	0.0130563
710.412	0.0131226
710.491	0.0131413
710.569	0.0130474
710.647	0.0130334
710.725	0.0131128
710.803	0.0129839
710.881	0.0130806
710.959	0.0131773
711.037	0.0130985
711.116	0.0129512
711.194	0.0130067
711.272	0.0130097
711.350	0.0130858
711.428	0.0130627
711.506	0.0131265
711.584	0.0131581
711.662	0.0131606
711.741	0.0130495
711.819	0.0129876
711.897	0.0129847
711.975	0.0131280
712.053	0.0130022
712.131	0.0129770
712.209	0.0129130
712.287	0.0128142
712.366	0.0129229
712.444	0.0127703
712.522	0.0127833
712.600	0.0129459
712.678	0.0128233
712.756	0.0129292
712.834	0.0129949
712.912	0.0129449
712.991	0.0130017
713.069	0.0129813
713.147	0.0128837
713.225	0.0129453
713.303	0.0130902
713.381	0.0130476
713.459	0.0129105
713.537	0.0130653
713.616	0.0130492
713.694	0.0129520
713.772	0.0129715
713.850	0.0130492
713.928	0.0130507
714.006	0.0131235
714.084	0.0130233
714.162	0.0129202
714.241	0.0131189
714.319	0.0130520
714.397	0.0130177
714.475	0.0130495
714.553	0.0130388
714.631	0.0127815
714.709	0.0129021
714.787	0.0129592
714.866	0.0130432
714.944	0.0128770
715.022	0.0128458
715.100	0.0128365
715.178	0.0128719
715.256	0.0129593
715.334	0.0129780
715.412	0.0129443
715.491	0.0129531
715.569	0.0129435
715.647	0.0129934
715.725	0.0131979
715.803	0.0131269
715.881	0.0130949
715.959	0.0130466
716.037	0.0132156
716.116	0.0132565
716.194	0.0131314
716.272	0.0132544
716.350	0.0132409
716.428	0.0131076
716.506	0.0130326
716.584	0.0130140
716.662	0.0130738
716.741	0.0128011
716.819	0.0129470
716.897	0.0129222
716.975	0.0129523
717.053	0.0128220
717.131	0.0129048
717.209	0.0129353
717.287	0.0129675
717.366	0.0130981
717.444	0.0131824
717.522	0.0130471
717.600	0.0131007
717.678	0.0131949
717.756	0.0131686
717.834	0.0131942
717.912	0.0132333
717.991	0.0132088
718.069	0.0133154
718.147	0.0133659
718.225	0.0131908
718.303	0.0133549
718.381	0.0132165
718.459	0.0132105
718.537	0.0132295
718.616	0.0130230
718.694	0.0132055
718.772	0.0133009
718.850	0.0130939
718.928	0.0130374
719.006	0.0130349
719.084	0.0128573
719.162	0.0129887
719.241	0.0130341
719.319	0.0128850
719.397	0.0129342
719.475	0.0130853
719.553	0.0129550
719.631	0.0128917
719.709	0.0130408
719.787	0.0131285
719.866	0.0130184
719.944	0.0131378
720.022	0.0132386
720.100	0.0131976
720.178	0.0132804
720.256	0.0131826
720.334	0.0131381
720.412	0.0131902
720.491	0.0130574
720.569	0.0130087
720.647	0.0130509
720.725	0.0130955
720.803	0.0130760
720.881	0.0129496
720.959	0.0130058
721.037	0.0129420
721.116	0.0128828
721.194	0.0127729
721.272	0.0128805
721.350	0.0129186
721.428	0.0128266
721.506	0.0128847
721.584	0.0129547
721.662	0.0128478
721.741	0.0130224
721.819	0.0129535
721.897	0.0129736
721.975	0.0129434
722.053	0.0129791
722.131	0.0130062
722.209	0.0130849
722.287	0.0131023
722.366	0.0129755
722.444	0.0129892
722.522	0.0130515
722.600	0.0129891
722.678	0.0130640
722.756	0.0129329
722.834	0.0130228
722.912	0.0130270
722.991	0.0130443
723.069	0.0131448
723.147	0.0130602
723.225	0.0128940
723.303	0.0128768
723.381	0.0129642
723.459	0.0129445
723.537	0.0129025
723.616	0.0128962
723.694	0.0130002
723.772	0.0129388
723.850	0.0127682
723.928	0.0130540
724.006	0.0130355
724.084	0.0129773
724.162	0.0129006
724.241	0.0131135
724.319	0.0130013
724.397	0.0130285
724.475	0.0130027
724.553	0.0129468
724.631	0.0130340
724.709	0.0129490
724.787	0.0128943
724.866	0.0129369
724.944	0.0130573
725.022	0.0129343
725.100	0.0129485
725.178	0.0130042
725.256	0.0128976
725.334	0.0129215
725.412	0.0129076
725.491	0.0128781
725.569	0.0129096
725.647	0.0128741
725.725	0.0128296
725.803	0.0128707
725.881	0.0128789
725.959	0.0128112
726.037	0.0128655
726.116	0.0128729
726.194	0.0128197
726.272	0.0128779
726.350	0.0129141
726.428	0.0129660
726.506	0.0129800
726.584	0.0129025
726.662	0.0129616
726.741	0.0129473
726.819	0.0128729
726.897	0.0130805
726.975	0.0130502
727.053	0.0129890
727.131	0.0129496
727.209	0.0130460
727.287	0.0129112
727.366	0.0129574
727.444	0.0130968
727.522	0.0129290
727.600	0.0131015
727.678	0.0128862
727.756	0.0130679
727.834	0.0129765
727.912	0.0129169
727.991	0.0128944
728.069	0.0130337
728.147	0.0129275
728.225	0.0128249
728.303	0.0129014
728.381	0.0127898
728.459	0.0128532
728.537	0.0129401
728.616	0.0129715
728.694	0.0130447
728.772	0.0129723
728.850	0.0130711
728.928	0.0129823
729.006	0.0130553
729.084	0.0130470
729.162	0.0131004
729.241	0.0131556
729.319	0.0131161
729.397	0.0129296
729.475	0.0130259
729.553	0.0130081
729.631	0.0130228
729.709	0.0131176
729.787	0.0130530
729.866	0.0131451
729.944	0.0130298
730.022	0.0131193
730.100	0.0131578
730.178	0.0130771
730.256	0.0131865
730.334	0.0132169
730.412	0.0130722
730.491	0.0131090
730.569	0.0130598
730.647	0.0131504
730.725	0.0130742
730.803	0.0131375
730.881	0.0131803
730.959	0.0131875
731.037	0.0132401
731.116	0.0131919
731.194	0.0131876
731.272	0.0131865
731.350	0.0131199
731.428	0.0132386
731.506	0.0131171
731.584	0.0131226
731.662	0.0131056
731.741	0.0132203
731.819	0.0132017
731.897	0.0130753
731.975	0.0130659
732.053	0.0131533
732.131	0.0131061
732.209	0.0131255
732.287	0.0130662
732.366	0.0131343
732.444	0.0130917
732.522	0.0130853
732.600	0.0131972
732.678	0.0131070
732.756	0.0131852
732.834	0.0130665
732.912	0.0130568
732.991	0.0131512
733.069	0.0130775
733.147	0.0130997
733.225	0.0132244
733.303	0.0131154
733.381	0.0130663
733.459	0.0131367
733.537	0.0132266
733.616	0.0131638
733.694	0.0130691
733.772	0.0130190
733.850	0.0131868
733.928	0.0130634
734.006	0.0129082
734.084	0.0129819
734.162	0.0129739
734.241	0.0129540
734.319	0.0129276
734.397	0.0128090
734.475	0.0129865
734.553	0.0129767
734.631	0.0129451
734.709	0.0130302
734.787	0.0129559
734.866	0.0129466
734.944	0.0128949
735.022	0.0131270
735.100	0.0129884
735.178	0.0129916
735.256	0.0129698
735.334	0.0129065
735.412	0.0129329
735.491	0.0129984
735.569	0.0128743
735.647	0.0130219
735.725	0.0129786
735.803	0.0130535
735.881	0.0129779
735.959	0.0129507
736.037	0.0129198
736.116	0.0130286
736.194	0.0129274
736.272	0.0129109
736.350	0.0128790
736.428	0.0129902
736.506	0.0128911
736.584	0.0129161
736.662	0.0128736
736.741	0.0129244
736.819	0.0129425
736.897	0.0131677
736.975	0.0128523
737.053	0.0128821
737.131	0.0131288
737.209	0.0130139
737.287	0.0131853
737.366	0.0130714
737.444	0.0132210
737.522	0.0130106
737.600	0.0130261
737.678	0.0129417
737.756	0.0129242
737.834	0.0129868
737.912	0.0130581
737.991	0.0129928
738.069	0.0130361
738.147	0.0128964
738.225	0.0128471
738.303	0.0128810
738.381	0.0128456
738.459	0.0129016
738.537	0.0128913
738.616	0.0129097
738.694	0.0129530
738.772	0.0130017
738.850	0.0129546
738.928	0.0129295
739.006	0.0128603
739.084	0.0129114
739.162	0.0129579
739.241	0.0129549
739.319	0.0129468
739.397	0.0131940
739.475	0.0132059
739.553	0.0128188
739.631	0.0130274
739.709	0.0131543
739.787	0.0131115
739.866	0.0131137
739.944	0.0131183
740.022	0.0130737
740.100	0.0131355
740.178	0.0131713
740.256	0.0129133
740.334	0.0129958
740.412	0.0131654
740.491	0.0132022
740.569	0.0129090
740.647	0.0129128
740.725	0.0129350
740.803	0.0129099
740.881	0.0130373
740.959	0.0128424
741.037	0.0127614
741.116	0.0128893
741.194	0.0129892
741.272	0.0129676
741.350	0.0130483
741.428	0.0129026
741.506	0.0129541
741.584	0.0129842
741.662	0.0130840
741.741	0.0131982
741.819	0.0130857
741.897	0.0129822
741.975	0.0131637
742.053	0.0131466
742.131	0.0131558
742.209	0.0130441
742.287	0.0131517
742.366	0.0131438
742.444	0.0130961
742.522	0.0130127
742.600	0.0130988
742.678	0.0130527
742.756	0.0130701
742.834	0.0129816
742.912	0.0130274
742.991	0.0131919
743.069	0.0130315
743.147	0.0130553
743.225	0.0129353
743.303	0.0128783
743.381	0.0129959
743.459	0.0128587
743.537	0.0129873
743.616	0.0129147
743.694	0.0130189
743.772	0.0130610
743.850	0.0130058
743.928	0.0129790
744.006	0.0129697
744.084	0.0130620
744.162	0.0130566
744.241	0.0131309
744.319	0.0132273
744.397	0.0131911
744.475	0.0131536
744.553	0.0131935
744.631	0.0130681
744.709	0.0132610
744.787	0.0132208
744.866	0.0129832
744.944	0.0130689
745.022	0.0132179
745.100	0.0131190
745.178	0.0130173
745.256	0.0129858
745.334	0.0130627
745.412	0.0131232
745.491	0.0130623
745.569	0.0132328
745.647	0.0129722
745.725	0.0131827
745.803	0.0131469
745.881	0.0130175
745.959	0.0130334
746.037	0.0130865
746.116	0.0132385
746.194	0.0131394
746.272	0.0130079
746.350	0.0130624
746.428	0.0129982
746.506	0.0129723
746.584	0.0130357
746.662	0.0129803
746.741	0.0130016
746.819	0.0129485
746.897	0.0129404
746.975	0.0129510
747.053	0.0130877
747.131	0.0131055
747.209	0.0130692
747.287	0.0129075
747.366	0.0130065
747.444	0.0128830
747.522	0.0129675
747.600	0.0130988
747.678	0.0129528
747.756	0.0130144
747.834	0.0131224
747.912	0.0130679
747.991	0.0130328
748.069	0.0130970
748.147	0.0130910
748.225	0.0129792
748.303	0.0130797
748.381	0.0131342
748.459	0.0130777
748.537	0.0131091
748.616	0.0131272
748.694	0.0131701
748.772	0.0131279
748.850	0.0130377
748.928	0.0132655
749.006	0.0130992
749.084	0.0130295
749.162	0.0131274
749.241	0.0130929
749.319	0.0130302
749.397	0.0130263
749.475	0.0129504
749.553	0.0131875
749.631	0.0130959
749.709	0.0131267
749.787	0.0129621
749.866	0.0129182
749.944	0.0130425
750.022	0.0131374
750.100	0.0129350
750.178	0.0130465
750.256	0.0130254
750.334	0.0131854
750.412	0.0132146
750.491	0.0130312
750.569	0.0130775
750.647	0.0129404
750.725	0.0131143
750.803	0.0129951
750.881	0.0129677
750.959	0.0129831
751.037	0.0130803
751.116	0.0128513
751.194	0.0130212
751.272	0.0129181
751.350	0.0127528
751.428	0.0128618
751.506	0.0129986
751.584	0.0129597
751.662	0.0130064
751.741	0.0127543
751.819	0.0129727
751.897	0.0129705
751.975	0.0130357
752.053	0.0130766
752.131	0.0127663
752.209	0.0129111
752.287	0.0130592
752.366	0.0129441
752.444	0.0128932
752.522	0.0130532
752.600	0.0130694
752.678	0.0129456
752.756	0.0130897
752.834	0.0130258
752.912	0.0130164
752.991	0.0131181
753.069	0.0129865
753.147	0.0130553
753.225	0.0130141
753.303	0.0131622
753.381	0.0130067
753.459	0.0129989
753.537	0.0130820
753.616	0.0131444
753.694	0.0131378
753.772	0.0130439
753.850	0.0131396
753.928	0.0131258
754.006	0.0131425
754.084	0.0131459
754.162	0.0129786
754.241	0.0129479
754.319	0.0131544
754.397	0.0129910
754.475	0.0130952
754.553	0.0131687
754.631	0.0129610
754.709	0.0131065
754.787	0.0132413
754.866	0.0130801
754.944	0.0129400
755.022	0.0130670
755.100	0.0130489
755.178	0.0130595
755.256	0.0131457
755.334	0.0130095
755.412	0.0131170
755.491	0.0129425
755.569	0.0128632
755.647	0.0129688
755.725	0.0130559
755.803	0.0130061
755.881	0.0129646
755.959	0.0130245
756.037	0.0130049
756.116	0.0128904
756.194	0.0130374
756.272	0.0129456
756.350	0.0129836
756.428	0.0129795
756.506	0.0130534
756.584	0.0129798
756.662	0.0129307
756.741	0.0129362
756.819	0.0130590
756.897	0.0129871
756.975	0.0131662
757.053	0.0129913
757.131	0.0131583
757.209	0.0130682
757.287	0.0129262
757.366	0.0131066
757.444	0.0130608
757.522	0.0130508
757.600	0.0130116
757.678	0.0129745
757.756	0.0130670
757.834	0.0129344
757.912	0.0131182
757.991	0.0130231
758.069	0.0129969
758.147	0.0130270
758.225	0.0130903
758.303	0.0129955
758.381	0.0130644
758.459	0.0130556
758.537	0.0131155
758.616	0.0129629
758.694	0.0131231
758.772	0.0130727
758.850	0.0130846
758.928	0.0130135
759.006	0.0129585
759.084	0.0127996
759.162	0.0130078
759.241	0.0130197
759.319	0.0130238
759.397	0.0130549
759.475	0.0130493
759.553	0.0129237
759.631	0.0130164
759.709	0.0129388
759.787	0.0130198
759.866	0.0130636
759.944	0.0131004
760.022	0.0130003
760.100	0.0129565
760.178	0.0128937
760.256	0.0129765
760.334	0.0130174
760.412	0.0129729
760.491	0.0128888
760.569	0.0128644
760.647	0.0128838
760.725	0.0129324
760.803	0.0128920
760.881	0.0130256
760.959	0.0129688
761.037	0.0129591
761.116	0.0130280
761.194	0.0130173
761.272	0.0131049
761.350	0.0130603
761.428	0.0131467
761.506	0.0131445
761.584	0.0131813
761.662	0.0131227
761.741	0.0130170
761.819	0.0131757
761.897	0.0130712
761.975	0.0131458
762.053	0.0131274
762.131	0.0131068
762.209	0.0129745
762.287	0.0129667
762.366	0.0130424
762.444	0.0129823
762.522	0.0130173
762.600	0.0130536
762.678	0.0129967
762.756	0.0129041
762.834	0.0129008
762.912	0.0128524
762.991	0.0129614
763.069	0.0131188
763.147	0.0129508
763.225	0.0128919
763.303	0.0130212
763.381	0.0131293
763.459	0.0130632
763.537	0.0130198
763.616	0.0129040
763.694	0.0129909
763.772	0.0130508
763.850	0.0129770
763.928	0.0131789
764.006	0.0131306
764.084	0.0129504
764.162	0.0128747
764.241	0.0129569
764.319	0.0129868
764.397	0.0129988
764.475	0.0132000
764.553	0.0129475
764.631	0.0131313
764.709	0.0131719
764.787	0.0131566
764.866	0.0132174
764.944	0.0131215
765.022	0.0130767
765.100	0.0130096
765.178	0.0130611
765.256	0.0131734
765.334	0.0130875
765.412	0.0131040
765.491	0.0132008
765.569	0.0131034
765.647	0.0130671
765.725	0.0129750
765.803	0.0130617
765.881	0.0130427
765.959	0.0128626
766.037	0.0131233
766.116	0.0130567
766.194	0.0131519
766.272	0.0130363
766.350	0.0130550
766.428	0.0130352
766.506	0.0130390
766.584	0.0130502
766.662	0.0130592
766.741	0.0130732
766.819	0.0131117
766.897	0.0130467
766.975	0.0129813
767.053	0.0131295
767.131	0.0130881
767.209	0.0130602
767.287	0.0130492
767.366	0.0130631
767.444	0.0131247
767.522	0.0131165
767.600	0.0129745
767.678	0.0130553
767.756	0.0130244
767.834	0.0130848
767.912	0.0130859
767.991	0.0130933
768.069	0.0131927
768.147	0.0131853
768.225	0.0129996
768.303	0.0130552
768.381	0.0130489
768.459	0.0130363
768.537	0.0130344
768.616	0.0130958
768.694	0.0132100
768.772	0.0132030
768.850	0.0131017
768.928	0.0131317
769.006	0.0130507
769.084	0.0131036
769.162	0.0130086
769.241	0.0130452
769.319	0.0131499
769.397	0.0129907
769.475	0.0129069
769.553	0.0129917
769.631	0.0129663
769.709	0.0130190
769.787	0.0130565
769.866	0.0130035
769.944	0.0130868
770.022	0.0129677
770.100	0.0130931
770.178	0.0131520
770.256	0.0130383
770.334	0.0128819
770.412	0.0128268
770.491	0.0129913
770.569	0.0129823
770.647	0.0131061
770.725	0.0128342
770.803	0.0129744
770.881	0.0130105
770.959	0.0130270
771.037	0.0130709
771.116	0.0130286
771.194	0.0128815
771.272	0.0129083
771.350	0.0129990
771.428	0.0129585
771.506	0.0131366
771.584	0.0130116
771.662	0.0129347
771.741	0.0130186
771.819	0.0130177
771.897	0.0129565
771.975	0.0130114
772.053	0.0131003
772.131	0.0130597
772.209	0.0130291
772.287	0.0130472
772.366	0.0131609
772.444	0.0129215
772.522	0.0129889
772.600	0.0132089
772.678	0.0130956
772.756	0.0131953
772.834	0.0129229
772.912	0.0130827
772.991	0.0131016
773.069	0.0130793
773.147	0.0130312
773.225	0.0130350
773.303	0.0130754
773.381	0.0129868
773.459	0.0130009
773.537	0.0131775
773.616	0.0130720
773.694	0.0129946
773.772	0.0129845
773.850	0.0131038
773.928	0.0130319
774.006	0.0129849
774.084	0.0129233
774.162	0.0131087
774.241	0.0129991
774.319	0.0131143
774.397	0.0129974
774.475	0.0131141
774.553	0.0129232
774.631	0.0130527
774.709	0.0130199
774.787	0.0130502
774.866	0.0130663
774.944	0.0130374
775.022	0.0130809
775.100	0.0130194
775.178	0.0130772
775.256	0.0131715
775.334	0.0131147
775.412	0.0133107
775.491	0.0130998
775.569	0.0131550
775.647	0.0132703
775.725	0.0132597
775.803	0.0132004
775.881	0.0130943
775.959	0.0131066
776.037	0.0134090
776.116	0.0132351
776.194	0.0132732
776.272	0.0132160
776.350	0.0132684
776.428	0.0132183
776.506	0.0131494
776.584	0.0132446
776.662	0.0132657
776.741	0.0131678
776.819	0.0130906
776.897	0.0132210
776.975	0.0132341
777.053	0.0132506
777.131	0.0132097
777.209	0.0130779
777.287	0.0132230
777.366	0.0130350
777.444	0.0130439
777.522	0.0131504
777.600	0.0132371
777.678	0.0130557
777.756	0.0131540
777.834	0.0131477
777.912	0.0131580
777.991	0.0130304
778.069	0.0131274
778.147	0.0131643
778.225	0.0132789
778.303	0.0132100
778.381	0.0132140
778.459	0.0133040
778.537	0.0130253
778.616	0.0131935
778.694	0.0132335
778.772	0.0132311
778.850	0.0131384
778.928	0.0131567
779.006	0.0132633
779.084	0.0132890
779.162	0.0131892
779.241	0.0131344
779.319	0.0131274
779.397	0.0132451
779.475	0.0132449
779.553	0.0131873
779.631	0.0130885
779.709	0.0131628
779.787	0.0131321
779.866	0.0130274
779.944	0.0131930
780.022	0.0132066
780.100	0.0131316
780.178	0.0131134
780.256	0.0130083
780.334	0.0131397
780.412	0.0130910
780.491	0.0131776
780.569	0.0131723
780.647	0.0132266
780.725	0.0131676
780.803	0.0131844
780.881	0.0130469
780.959	0.0130740
781.037	0.0131883
781.116	0.0130358
781.194	0.0131675
781.272	0.0130939
781.350	0.0130400
781.428	0.0132098
781.506	0.0131420
781.584	0.0130371
781.662	0.0130882
781.741	0.0130545
781.819	0.0132045
781.897	0.0130967
781.975	0.0130900
782.053	0.0130155
782.131	0.0128421
782.209	0.0130063
782.287	0.0129433
782.366	0.0130329
782.444	0.0129698
782.522	0.0130047
782.600	0.0131092
782.678	0.0128700
782.756	0.0128635
782.834	0.0130097
782.912	0.0130328
782.991	0.0132083
783.069	0.0130436
783.147	0.0129632
783.225	0.0131104
783.303	0.0130267
783.381	0.0130840
783.459	0.0131309
783.537	0.0129894
783.616	0.0130814
783.694	0.0130525
783.772	0.0130543
783.850	0.0131771
783.928	0.0131724
784.006	0.0129378
784.084	0.0131049
784.162	0.0129993
784.241	0.0130273
784.319	0.0130128
784.397	0.0130437
784.475	0.0130476
784.553	0.0131561
784.631	0.0130280
784.709	0.0131147
784.787	0.0130204
784.866	0.0131036
784.944	0.0131776
785.022	0.0130696
785.100	0.0130334
785.178	0.0131590
785.256	0.0130914
785.334	0.0131116
785.412	0.0131138
785.491	0.0129361
785.569	0.0131470
785.647	0.0128946
785.725	0.0131733
785.803	0.0132460
785.881	0.0130850
785.959	0.0129657
786.037	0.0130669
786.116	0.0130682
786.194	0.0129991
786.272	0.0131036
786.350	0.0131434
786.428	0.0131633
786.506	0.0130427
786.584	0.0131194
786.662	0.0129805
786.741	0.0130936
786.819	0.0130508
786.897	0.0130531
786.975	0.0130437
787.053	0.0131638
787.131	0.0131991
787.209	0.0130360
787.287	0.0130535
787.366	0.0131282
787.444	0.0130406
787.522	0.0130361
787.600	0.0129753
787.678	0.0130325
787.756	0.0130841
787.834	0.0129822
787.912	0.0130439
787.991	0.0130551
788.069	0.0131116
788.147	0.0128919
788.225	0.0130779
788.303	0.0130602
788.381	0.0130927
788.459	0.0129739
788.537	0.0130147
788.616	0.0129736
788.694	0.0128951
788.772	0.0129545
788.850	0.0131256
788.928	0.0129881
789.006	0.0128726
789.084	0.0130432
789.162	0.0130247
789.241	0.0130814
789.319	0.0130642
789.397	0.0130660
789.475	0.0131409
789.553	0.0129535
789.631	0.0129088
789.709	0.0130936
789.787	0.0130319
789.866	0.0130811
789.944	0.0130693
790.022	0.0129699
790.100	0.0130339
790.178	0.0130914
790.256	0.0129786
790.334	0.0129996
790.412	0.0130293
790.491	0.0130404
790.569	0.0132106
790.647	0.0131157
790.725	0.0131641
790.803	0.0131542
790.881	0.0130370
790.959	0.0130089
791.037	0.0131149
791.116	0.0130566
791.194	0.0130630
791.272	0.0131725
791.350	0.0129689
791.428	0.0128841
791.506	0.0130681
791.584	0.0128707
791.662	0.0130753
791.741	0.0130208
791.819	0.0129353
791.897	0.0128751
791.975	0.0130217
792.053	0.0130378
792.131	0.0130077
792.209	0.0130205
792.287	0.0130408
792.366	0.0129093
792.444	0.0129767
792.522	0.0130912
792.600	0.0131496
792.678	0.0131040
792.756	0.0131610
792.834	0.0130720
792.912	0.0130390
792.991	0.0129797
793.069	0.0130568
793.147	0.0129956
793.225	0.0128989
793.303	0.0129702
793.381	0.0130089
793.459	0.0128647
793.537	0.0129718
793.616	0.0127680
793.694	0.0129116
793.772	0.0129439
793.850	0.0129920
793.928	0.0129361
794.006	0.0129704
794.084	0.0128458
794.162	0.0129608
794.241	0.0129461
794.319	0.0128937
794.397	0.0128681
794.475	0.0128691
794.553	0.0131075
794.631	0.0130461
794.709	0.0129128
794.787	0.0129617
794.866	0.0130182
794.944	0.0130589
795.022	0.0130867
795.100	0.0130106
795.178	0.0131378
795.256	0.0129207
795.334	0.0130737
795.412	0.0131028
795.491	0.0130312
795.569	0.0130948
795.647	0.0131429
795.725	0.0131546
795.803	0.0130116
795.881	0.0130900
795.959	0.0130331
796.037	0.0131384
796.116	0.0131781
796.194	0.0130825
796.272	0.0131309
796.350	0.0129865
796.428	0.0130755
796.506	0.0130643
796.584	0.0130437
796.662	0.0131177
796.741	0.0131474
796.819	0.0130309
796.897	0.0131350
796.975	0.0131549
797.053	0.0132127
797.131	0.0130891
797.209	0.0130434
797.287	0.0132460
797.366	0.0130282
797.444	0.0128239
797.522	0.0129524
797.600	0.0130806
797.678	0.0129411
797.756	0.0130643
797.834	0.0128301
797.912	0.0129068
797.991	0.0129729
798.069	0.0129982
798.147	0.0129791
798.225	0.0129625
798.303	0.0129287
798.381	0.0130171
798.459	0.0129414
798.537	0.0130884
798.616	0.0130133
798.694	0.0129824
798.772	0.0129291
798.850	0.0130132
798.928	0.0130717
799.006	0.0130370
799.084	0.0130455
799.162	0.0131123
799.241	0.0129996
799.319	0.0130313
799.397	0.0129790
799.475	0.0131042
799.553	0.0131982
799.631	0.0130821
799.709	0.0130248
799.787	0.0130137
799.866	0.0130444
799.944	0.0129710
800.022	0.0131470
800.100	0.0131166
800.178	0.0131518
800.256	0.0129391
800.334	0.0130483
800.412	0.0130978
800.491	0.0128934
800.569	0.0129674
800.647	0.0130220
800.725	0.0130273
800.803	0.0129736
800.881	0.0130466
800.959	0.0130262
801.037	0.0130762
801.116	0.0131044
801.194	0.0130386
801.272	0.0128506
801.350	0.0129227
801.428	0.0128835
801.506	0.0130986
801.584	0.0130299
801.662	0.0129420
801.741	0.0129485
801.819	0.0131317
801.897	0.0131307
801.975	0.0129920
802.053	0.0129813
802.131	0.0129905
802.209	0.0129460
802.287	0.0129670
802.366	0.0128942
802.444	0.0131007
802.522	0.0130219
802.600	0.0129000
802.678	0.0131612
802.756	0.0130453
802.834	0.0130940
802.912	0.0130614
802.991	0.0131017
803.069	0.0131553
803.147	0.0131889
803.225	0.0130363
803.303	0.0131267
803.381	0.0130172
803.459	0.0129817
803.537	0.0130623
803.616	0.0131883
803.694	0.0131474
803.772	0.0131695
803.850	0.0132034
803.928	0.0130882
804.006	0.0130866
804.084	0.0130761
804.162	0.0130499
804.241	0.0131764
804.319	0.0131878
804.397	0.0130408
804.475	0.0131490
804.553	0.0131818
804.631	0.0129800
804.709	0.0130960
804.787	0.0130807
804.866	0.0132507
804.944	0.0131968
805.022	0.0131757
805.100	0.0131494
805.178	0.0132840
805.256	0.0131081
805.334	0.0131071
805.412	0.0130616
805.491	0.0130944
805.569	0.0131731
805.647	0.0130730
805.725	0.0131248
805.803	0.0131541
805.881	0.0131215
805.959	0.0129345
806.037	0.0131925
806.116	0.0131695
806.194	0.0131889
806.272	0.0131690
806.350	0.0130858
806.428	0.0131130
806.506	0.0131700
806.584	0.0130714
806.662	0.0130123
806.741	0.0128146
806.819	0.0129647
806.897	0.0129613
806.975	0.0129749
807.053	0.0129027
807.131	0.0130947
807.209	0.0130667
807.287	0.0129788
807.366	0.0129576
807.444	0.0129809
807.522	0.0130173
807.600	0.0129465
807.678	0.0129475
807.756	0.0128998
807.834	0.0129784
807.912	0.0129786
807.991	0.0129496
808.069	0.0128963
808.147	0.0129067
808.225	0.0130587
808.303	0.0129744
808.381	0.0128627
808.459	0.0128896
808.537	0.0128636
808.616	0.0130086
808.694	0.0130057
808.772	0.0130468
808.850	0.0128883
808.928	0.0129209
809.006	0.0130775
809.084	0.0130499
809.162	0.0129826
809.241	0.0130453
809.319	0.0130598
809.397	0.0130872
809.475	0.0131638
809.553	0.0130762
809.631	0.0129752
809.709	0.0129212
809.787	0.0130318
809.866	0.0129797
809.944	0.0130582
810.022	0.0130680
810.100	0.0130463
810.178	0.0130212
810.256	0.0129614
810.334	0.0130534
810.412	0.0130521
810.491	0.0130377
810.569	0.0130766
810.647	0.0130398
810.725	0.0130985
810.803	0.0130333
810.881	0.0130781
810.959	0.0132027
811.037	0.0131220
811.116	0.0130519
811.194	0.0130396
811.272	0.0130945
811.350	0.0130155
811.428	0.0131866
811.506	0.0130819
811.584	0.0130381
811.662	0.0130619
811.741	0.0131239
811.819	0.0130853
811.897	0.0130294
811.975	0.0131562
812.053	0.0130762
812.131	0.0131771
812.209	0.0131394
812.287	0.0132593
812.366	0.0130441
812.444	0.0130869
812.522	0.0132320
812.600	0.0130052
812.678	0.0128950
812.756	0.0129653
812.834	0.0130377
812.912	0.0130958
812.991	0.0128995
813.069	0.0131123
813.147	0.0129611
813.225	0.0131008
813.303	0.0130534
813.381	0.0127518
813.459	0.0129788
813.537	0.0130010
813.616	0.0129842
813.694	0.0130552
813.772	0.0130458
813.850	0.0131060
813.928	0.0130505
814.006	0.0130568
814.084	0.0130558
814.162	0.0129886
814.241	0.0131776
814.319	0.0131777
814.397	0.0130709
814.475	0.0131522
814.553	0.0132198
814.631	0.0130151
814.709	0.0132623
814.787	0.0130457
814.866	0.0131660
814.944	0.0130108
815.022	0.0130191
815.100	0.0131218
815.178	0.0131303
815.256	0.0131084
815.334	0.0130372
815.412	0.0130867
815.491	0.0130356
815.569	0.0131312
815.647	0.0130494
815.725	0.0131326
815.803	0.0132066
815.881	0.0130268
815.959	0.0131767
816.037	0.0129678
816.116	0.0129042
816.194	0.0131306
816.272	0.0130315
816.350	0.0130224
816.428	0.0129145
816.506	0.0131019
816.584	0.0131406
816.662	0.0130543
816.741	0.0130099
816.819	0.0129096
816.897	0.0130469
816.975	0.0131885
817.053	0.0128618
817.131	0.0130408
817.209	0.0131499
817.287	0.0129821
817.366	0.0129461
817.444	0.0128921
817.522	0.0129102
817.600	0.0129771
817.678	0.0130724
817.756	0.0130598
817.834	0.0130071
817.912	0.0128732
817.991	0.0130759
818.069	0.0128789
818.147	0.0130085
818.225	0.0130392
818.303	0.0130961
818.381	0.0129980
818.459	0.0131213
818.537	0.0130113
818.616	0.0128771
818.694	0.0128897
818.772	0.0128603
818.850	0.0129504
818.928	0.0131010
819.006	0.0129373
819.084	0.0129376
819.162	0.0129832
819.241	0.0129100
819.319	0.0129120
819.397	0.0130276
819.475	0.0129135
819.553	0.0129396
819.631	0.0130709
819.709	0.0131100
819.787	0.0131419
819.866	0.0129886
819.944	0.0130730
820.022	0.0129729
820.100	0.0130589
820.178	0.0131856
820.256	0.0130666
820.334	0.0129862
820.412	0.0130389
820.491	0.0130492
820.569	0.0129756
820.647	0.0131331
820.725	0.0130109
820.803	0.0130291
820.881	0.0129836
820.959	0.0131322
821.037	0.0131480
821.116	0.0129198
821.194	0.0130289
821.272	0.0130256
821.350	0.0130025
821.428	0.0130009
821.506	0.0129984
821.584	0.0128915
821.662	0.0130047
821.741	0.0129917
821.819	0.0130206
821.897	0.0129893
821.975	0.0128686
822.053	0.0129501
822.131	0.0128609
822.209	0.0129993
822.287	0.0129673
822.366	0.0128712
822.444	0.0128470
822.522	0.0128435
822.600	0.0130057
822.678	0.0129456
822.756	0.0129690
822.834	0.0128487
822.912	0.0129021
822.991	0.0130156
823.069	0.0131153
823.147	0.0130718
823.225	0.0129701
823.303	0.0129345
823.381	0.0131033
823.459	0.0130836
823.537	0.0129230
823.616	0.0129679
823.694	0.0129971
823.772	0.0129922
823.850	0.0130383
823.928	0.0129813
824.006	0.0128179
824.084	0.0130157
824.162	0.0130095
824.241	0.0129365
824.319	0.0129459
824.397	0.0129621
824.475	0.0129923
824.553	0.0130892
824.631	0.0128796
824.709	0.0128123
824.787	0.0129561
824.866	0.0128812
824.944	0.0129346
825.022	0.0129951
825.100	0.0131493
825.178	0.0130746
825.256	0.0130788
825.334	0.0130383
825.412	0.0130830
825.491	0.0130786
825.569	0.0130499
825.647	0.0129791
825.725	0.0128866
825.803	0.0130452
825.881	0.0130788
825.959	0.0130860
826.037	0.0131009
826.116	0.0128588
826.194	0.0131352
826.272	0.0131493
826.350	0.0129826
826.428	0.0129555
826.506	0.0129906
826.584	0.0129602
826.662	0.0129478
826.741	0.0130527
826.819	0.0130281
826.897	0.0129829
826.975	0.0129310
827.053	0.0130470
827.131	0.0130779
827.209	0.0130227
827.287	0.0129147
827.366	0.0129166
827.444	0.0129240
827.522	0.0129200
827.600	0.0129424
827.678	0.0129522
827.756	0.0127885
827.834	0.0130041
827.912	0.0129765
827.991	0.0130121
828.069	0.0130231
828.147	0.0128538
828.225	0.0130082
828.303	0.0129212
828.381	0.0132510
828.459	0.0130428
828.537	0.0130972
828.616	0.0131410
828.694	0.0130587
828.772	0.0130579
828.850	0.0131030
828.928	0.0132735
829.006	0.0131159
829.084	0.0131271
829.162	0.0131133
829.241	0.0130826
829.319	0.0132018
829.397	0.0130407
829.475	0.0130140
829.553	0.0131316
829.631	0.0130866
829.709	0.0130156
829.787	0.0129423
829.866	0.0129873
829.944	0.0130308
830.022	0.0130423
830.100	0.0128067
830.178	0.0129118
830.256	0.0129066
830.334	0.0130756
830.412	0.0129246
830.491	0.0128876
830.569	0.0129333
830.647	0.0130383
830.725	0.0129904
830.803	0.0129311
830.881	0.0129148
830.959	0.0129870
831.037	0.0129980
831.116	0.0130650
831.194	0.0129723
831.272	0.0129439
831.350	0.0130674
831.428	0.0130781
831.506	0.0130596
831.584	0.0129092
831.662	0.0131019
831.741	0.0128583
831.819	0.0130567
831.897	0.0131178
831.975	0.0130289
832.053	0.0128853
832.131	0.0129431
832.209	0.0128686
832.287	0.0129188
832.366	0.0129199
832.444	0.0129636
832.522	0.0129942
832.600	0.0130404
832.678	0.0129743
832.756	0.0130247
832.834	0.0129474
832.912	0.0129102
832.991	0.0129631
833.069	0.0130747
833.147	0.0130009
833.225	0.0129817
833.303	0.0131213
833.381	0.0131147
833.459	0.0129234
833.537	0.0129179
833.616	0.0130064
833.694	0.0130409
833.772	0.0130577
833.850	0.0129431
833.928	0.0130190
834.006	0.0131008
834.084	0.0130932
834.162	0.0130695
834.241	0.0130090
834.319	0.0129799
834.397	0.0129421
834.475	0.0130412
834.553	0.0131841
834.631	0.0131432
834.709	0.0131644
834.787	0.0130331
834.866	0.0131049
834.944	0.0130173
835.022	0.0130551
835.100	0.0131005
835.178	0.0130956
835.256	0.0129984
835.334	0.0130511
835.412	0.0131194
835.491	0.0132108
835.569	0.0131287
835.647	0.0131174
835.725	0.0131805
835.803	0.0131641
835.881	0.0131606
835.959	0.0131136
836.037	0.0132308
836.116	0.0131146
836.194	0.0131985
836.272	0.0130782
836.350	0.0130560
836.428	0.0131419
836.506	0.0131749
836.584	0.0130309
836.662	0.0132329
836.741	0.0132045
836.819	0.0132050
836.897	0.0131274
836.975	0.0130885
837.053	0.0130750
837.131	0.0131078
837.209	0.0130396
837.287	0.0130193
837.366	0.0129831
837.444	0.0132017
837.522	0.0132569
837.600	0.0130306
837.678	0.0130648
837.756	0.0130292
837.834	0.0130258
837.912	0.0132016
837.991	0.0131851
838.069	0.0129787
838.147	0.0130260
838.225	0.0130462
838.303	0.0128732
838.381	0.0130147
838.459	0.0130383
838.537	0.0131180
838.616	0.0131303
838.694	0.0130580
838.772	0.0130975
838.850	0.0130138
838.928	0.0129903
839.006	0.0130554
839.084	0.0130973
839.162	0.0130753
839.241	0.0129356
839.319	0.0130381
839.397	0.0132322
839.475	0.0131439
839.553	0.0131109
839.631	0.0130689
839.709	0.0130299
839.787	0.0130367
839.866	0.0130357
839.944	0.0131182
840.022	0.0131596
840.100	0.0132204
840.178	0.0131333
840.256	0.0130105
840.334	0.0129863
840.412	0.0130720
840.491	0.0129459
840.569	0.0129757
840.647	0.0129941
840.725	0.0131310
840.803	0.0132257
840.881	0.0131287
840.959	0.0130994
841.037	0.0132499
841.116	0.0131046
841.194	0.0132664
841.272	0.0132204
841.350	0.0130476
841.428	0.0131995
841.506	0.0131615
841.584	0.0131527
841.662	0.0131476
841.741	0.0131834
841.819	0.0131590
841.897	0.0129697
841.975	0.0129819
842.053	0.0130633
842.131	0.0131122
842.209	0.0131734
842.287	0.0132478
842.366	0.0130969
842.444	0.0130751
842.522	0.0130614
842.600	0.0132121
842.678	0.0132095
842.756	0.0131699
842.834	0.0130783
842.912	0.0131764
842.991	0.0132453
843.069	0.0131824
843.147	0.0130803
843.225	0.0131453
843.303	0.0131991
843.381	0.0130880
843.459	0.0131301
843.537	0.0130579
843.616	0.0131799
843.694	0.0131369
843.772	0.0131030
843.850	0.0130256
843.928	0.0131326
844.006	0.0132067
844.084	0.0131680
844.162	0.0131870
844.241	0.0131700
844.319	0.0132330
844.397	0.0132250
844.475	0.0130367
844.553	0.0131855
844.631	0.0131538
844.709	0.0131795
844.787	0.0131451
844.866	0.0131860
844.944	0.0130131
845.022	0.0132347
845.100	0.0131072
845.178	0.0130525
845.256	0.0131998
845.334	0.0131315
845.412	0.0131147
845.491	0.0130879
845.569	0.0130413
845.647	0.0130606
845.725	0.0130453
845.803	0.0130454
845.881	0.0130285
845.959	0.0129657
846.037	0.0129528
846.116	0.0131155
846.194	0.0132352
846.272	0.0130759
846.350	0.0131310
846.428	0.0129719
846.506	0.0131094
846.584	0.0131232
846.662	0.0131196
846.741	0.0131723
846.819	0.0131574
846.897	0.0129787
846.975	0.0128994
847.053	0.0131050
847.131	0.0131155
847.209	0.0129669
847.287	0.0129969
847.366	0.0129610
847.444	0.0131209
847.522	0.0131902
847.600	0.0131967
847.678	0.0130978
847.756	0.0130063
847.834	0.0128474
847.912	0.0129968
847.991	0.0128948
848.069	0.0128660
848.147	0.0130729
848.225	0.0130943
848.303	0.0131393
848.381	0.0131281
848.459	0.0129720
848.537	0.0129810
848.616	0.0130761
848.694	0.0130096
848.772	0.0130402
848.850	0.0130365
848.928	0.0129260
849.006	0.0130477
849.084	0.0129556
849.162	0.0130267
849.241	0.0131186
849.319	0.0130323
849.397	0.0129431
849.475	0.0129101
849.553	0.0129684
849.631	0.0130199
849.709	0.0130502
849.787	0.0130857
849.866	0.0130612
849.944	0.0131084
850.022	0.0130555
850.100	0.0130527
850.178	0.0130985
850.256	0.0130644
850.334	0.0130746
850.412	0.0129961
850.491	0.0130682
850.569	0.0131168
850.647	0.0130975
850.725	0.0129761
850.803	0.0130892
850.881	0.0132404
850.959	0.0130484
851.037	0.0130502
851.116	0.0130448
851.194	0.0129906
851.272	0.0131551
851.350	0.0130710
851.428	0.0130636
851.506	0.0130302
851.584	0.0130829
851.662	0.0130832
851.741	0.0131564
851.819	0.0131603
851.897	0.0130708
851.975	0.0132101
852.053	0.0130760
852.131	0.0132442
852.209	0.0130250
852.287	0.0131762
852.366	0.0132592
852.444	0.0131194
852.522	0.0130833
852.600	0.0130305
852.678	0.0131284
852.756	0.0131310
852.834	0.0131129
852.912	0.0131329
852.991	0.0130201
853.069	0.0129930
853.147	0.0130064
853.225	0.0131068
853.303	0.0132055
853.381	0.0131027
853.459	0.0130575
853.537	0.0131351
853.616	0.0131792
853.694	0.0131815
853.772	0.0130006
853.850	0.0129897
853.928	0.0130784
854.006	0.0131516
854.084	0.0131948
854.162	0.0132119
854.241	0.0131747
854.319	0.0131164
854.397	0.0131548
854.475	0.0131158
854.553	0.0132155
854.631	0.0130937
854.709	0.0130350
854.787	0.0130836
854.866	0.0130573
854.944	0.0130899
855.022	0.0132236
855.100	0.0130831
855.178	0.0130623
855.256	0.0130090
855.334	0.0130075
855.412	0.0131249
855.491	0.0132509
855.569	0.0130762
855.647	0.0130704
855.725	0.0131576
855.803	0.0130522
855.881	0.0131563
855.959	0.0129871
856.037	0.0130076
856.116	0.0130952
856.194	0.0130807
856.272	0.0131641
856.350	0.0129948
856.428	0.0129909
856.506	0.0129874
856.584	0.0129913
856.662	0.0129586
856.741	0.0129695
856.819	0.0130740
856.897	0.0129925
856.975	0.0131047
857.053	0.0130746
857.131	0.0129881
857.209	0.0131023
857.287	0.0131486
857.366	0.0130122
857.444	0.0130704
857.522	0.0130341
857.600	0.0129671
857.678	0.0129944
857.756	0.0130594
857.834	0.0130584
857.912	0.0130788
857.991	0.0131908
858.069	0.0128626
858.147	0.0130447
858.225	0.0131882
858.303	0.0130819
858.381	0.0129652
858.459	0.0129722
858.537	0.0131511
858.616	0.0130974
858.694	0.0130611
858.772	0.0131570
858.850	0.0129670
858.928	0.0129388
859.006	0.0130177
859.084	0.0130895
859.162	0.0130843
859.241	0.0130968
859.319	0.0129049
859.397	0.0129672
859.475	0.0129942
859.553	0.0130871
859.631	0.0130735
859.709	0.0130042
859.787	0.0130564
859.866	0.0130364
859.944	0.0130344
860.022	0.0131683
860.100	0.0129742
860.178	0.0131576
860.256	0.0130471
860.334	0.0129562
860.412	0.0130817
860.491	0.0131005
860.569	0.0130709
860.647	0.0130985
860.725	0.0131386
860.803	0.0131947
860.881	0.0132806
860.959	0.0130780
861.037	0.0131514
861.116	0.0130681
861.194	0.0130851
861.272	0.0130561
861.350	0.0130016
861.428	0.0130411
861.506	0.0130171
861.584	0.0131071
861.662	0.0130294
861.741	0.0129633
861.819	0.0130482
861.897	0.0130695
861.975	0.0130882
862.053	0.0129849
862.131	0.0130492
862.209	0.0129817
862.287	0.0130386
862.366	0.0131354
862.444	0.0130877
862.522	0.0131102
862.600	0.0130561
862.678	0.0130393
862.756	0.0130302
862.834	0.0129861
862.912	0.0130466
862.991	0.0130546
863.069	0.0129845
863.147	0.0131718
863.225	0.0131344
863.303	0.0130685
863.381	0.0131116
863.459	0.0130522
863.537	0.0129610
863.616	0.0130836
863.694	0.0130725
863.772	0.0131075
863.850	0.0130250
863.928	0.0130344
864.006	0.0130560
864.084	0.0129989
864.162	0.0130141
864.241	0.0132104
864.319	0.0131279
864.397	0.0130341
864.475	0.0131651
864.553	0.0131990
864.631	0.0131814
864.709	0.0130323
864.787	0.0131723
864.866	0.0132092
864.944	0.0132295
865.022	0.0131710
865.100	0.0131415
865.178	0.0132746
865.256	0.0131544
865.334	0.0130628
865.412	0.0130886
865.491	0.0131810
865.569	0.0131540
865.647	0.0131239
865.725	0.0130263
865.803	0.0131411
865.881	0.0131232
865.959	0.0130143
866.037	0.0131281
866.116	0.0131846
866.194	0.0130580
866.272	0.0130020
866.350	0.0130650
866.428	0.0130111
866.506	0.0131290
866.584	0.0131275
866.662	0.0132122
866.741	0.0130059
866.819	0.0130300
866.897	0.0130537
866.975	0.0130587
867.053	0.0131593
867.131	0.0130935
867.209	0.0130874
867.287	0.0131373
867.366	0.0131558
867.444	0.0129860
867.522	0.0130573
867.600	0.0130644
867.678	0.0131643
867.756	0.0130566
867.834	0.0130134
867.912	0.0129871
867.991	0.0130088
868.069	0.0131564
868.147	0.0130838
868.225	0.0130492
868.303	0.0130277
868.381	0.0129974
868.459	0.0129115
868.537	0.0129713
868.616	0.0130399
868.694	0.0129767
868.772	0.0129637
868.850	0.0129218
868.928	0.0129166
869.006	0.0130556
869.084	0.0130196
869.162	0.0130044
869.241	0.0129491
869.319	0.0129273
869.397	0.0129819
869.475	0.0130657
869.553	0.0130401
869.631	0.0130101
869.709	0.0129272
869.787	0.0130023
869.866	0.0129830
869.944	0.0129443
870.022	0.0129780
870.100	0.0130036
870.178	0.0130235
870.256	0.0130801
870.334	0.0130049
870.412	0.0130285
870.491	0.0129974
870.569	0.0128979
870.647	0.0129790
870.725	0.0130798
870.803	0.0129702
870.881	0.0129684
870.959	0.0131104
871.037	0.0129105
871.116	0.0129169
871.194	0.0130627
871.272	0.0129495
871.350	0.0129509
871.428	0.0129263
871.506	0.0128914
871.584	0.0131112
871.662	0.0130326
871.741	0.0128752
871.819	0.0130011
871.897	0.0129607
871.975	0.0130700
872.053	0.0129710
872.131	0.0129743
872.209	0.0127738
872.287	0.0129409
872.366	0.0130100
872.444	0.0129819
872.522	0.0130595
872.600	0.0129786
872.678	0.0130096
872.756	0.0130180
872.834	0.0130545
872.912	0.0130394
872.991	0.0129580
873.069	0.0129169
873.147	0.0129620
873.225	0.0130543
873.303	0.0130074
873.381	0.0130152
873.459	0.0129752
873.537	0.0129391
873.616	0.0128759
873.694	0.0130301
873.772	0.0129682
873.850	0.0129840
873.928	0.0130732
874.006	0.0130473
874.084	0.0131342
874.162	0.0130235
874.241	0.0130092
874.319	0.0130638
874.397	0.0129536
874.475	0.0130901
874.553	0.0130738
874.631	0.0130977
874.709	0.0130932
874.787	0.0130473
874.866	0.0130215
874.944	0.0131506
875.022	0.0130357
875.100	0.0132008
875.178	0.0130201
875.256	0.0130227
875.334	0.0130179
875.412	0.0130767
875.491	0.0130881
875.569	0.0131050
875.647	0.0131883
875.725	0.0131266
875.803	0.0131528
875.881	0.0131136
875.959	0.0131735
876.037	0.0131295
876.116	0.0131369
876.194	0.0132917
876.272	0.0130945
876.350	0.0131805
876.428	0.0132656
876.506	0.0130486
876.584	0.0131665
876.662	0.0131868
876.741	0.0129870
876.819	0.0131568
876.897	0.0132338
876.975	0.0130805
877.053	0.0131822
877.131	0.0130172
877.209	0.0130841
877.287	0.0131338
877.366	0.0130138
877.444	0.0130566
877.522	0.0132780
877.600	0.0130402
877.678	0.0131966
877.756	0.0132106
877.834	0.0132594
877.912	0.0130541
877.991	0.0131284
878.069	0.0131359
878.147	0.0130373
878.225	0.0130708
878.303	0.0130841
878.381	0.0129792
878.459	0.0130692
878.537	0.0131387
878.616	0.0129183
878.694	0.0130326
878.772	0.0130193
878.850	0.0130209
878.928	0.0130106
879.006	0.0130144
879.084	0.0129523
879.162	0.0131098
879.241	0.0129739
879.319	0.0129162
879.397	0.0129314
879.475	0.0129385
879.553	0.0129806
879.631	0.0130066
879.709	0.0128822
879.787	0.0128918
879.866	0.0130035
879.944	0.0129142
880.022	0.0130130
880.100	0.0130002
880.178	0.0129449
880.256	0.0129490
880.334	0.0129916
880.412	0.0130325
880.491	0.0130063
880.569	0.0129327
880.647	0.0129433
880.725	0.0130141
880.803	0.0130282
880.881	0.0130545
880.959	0.0130356
881.037	0.0129951
881.116	0.0130250
881.194	0.0130683
881.272	0.0130147
881.350	0.0129139
881.428	0.0130489
881.506	0.0130240
881.584	0.0131626
881.662	0.0130001
881.741	0.0130978
881.819	0.0130712
881.897	0.0129424
881.975	0.0130953
882.053	0.0131407
882.131	0.0131203
882.209	0.0131022
882.287	0.0130852
882.366	0.0130096
882.444	0.0130744
882.522	0.0130389
882.600	0.0130025
882.678	0.0129620
882.756	0.0130253
882.834	0.0129362
882.912	0.0129797
882.991	0.0129737
883.069	0.0129424
883.147	0.0130493
883.225	0.0130389
883.303	0.0130395
883.381	0.0130687
883.459	0.0130488
883.537	0.0131980
883.616	0.0130801
883.694	0.0131438
883.772	0.0130000
883.850	0.0131201
883.928	0.0130759
884.006	0.0132441
884.084	0.0131635
884.162	0.0131944
884.241	0.0129841
884.319	0.0129859
884.397	0.0129003
884.475	0.0128445
884.553	0.0129016
884.631	0.0129980
884.709	0.0130344
884.787	0.0129024
884.866	0.0129594
884.944	0.0129998
885.022	0.0129317
885.100	0.0128195
885.178	0.0129362
885.256	0.0128739
885.334	0.0129500
885.412	0.0129292
885.491	0.0130781
885.569	0.0128648
885.647	0.0128677
885.725	0.0129344
885.803	0.0128729
885.881	0.0128855
885.959	0.0130524
886.037	0.0128878
886.116	0.0129744
886.194	0.0128680
886.272	0.0128953
886.350	0.0128963
886.428	0.0130063
886.506	0.0129780
886.584	0.0130462
886.662	0.0129513
886.741	0.0129417
886.819	0.0130096
886.897	0.0130944
886.975	0.0130079
887.053	0.0130264
887.131	0.0130694
887.209	0.0129679
887.287	0.0130513
887.366	0.0130297
887.444	0.0128396
887.522	0.0130608
887.600	0.0129898
887.678	0.0130054
887.756	0.0130023
887.834	0.0130441
887.912	0.0130096
887.991	0.0129369
888.069	0.0130798
888.147	0.0132479
888.225	0.0131358
888.303	0.0129650
888.381	0.0130369
888.459	0.0131074
888.537	0.0131460
888.616	0.0131183
888.694	0.0131212
888.772	0.0130518
888.850	0.0128223
888.928	0.0131187
889.006	0.0129839
889.084	0.0131139
889.162	0.0130373
889.241	0.0129970
889.319	0.0128621
889.397	0.0129977
889.475	0.0131236
889.553	0.0129933
889.631	0.0128638
889.709	0.0130564
889.787	0.0131163
889.866	0.0129999
889.944	0.0128900
890.022	0.0130474
890.100	0.0130367
890.178	0.0131087
890.256	0.0129637
890.334	0.0130283
890.412	0.0130615
890.491	0.0129884
890.569	0.0130646
890.647	0.0129214
890.725	0.0129144
890.803	0.0129203
890.881	0.0129821
890.959	0.0129986
891.037	0.0131326
891.116	0.0128400
891.194	0.0129137
891.272	0.0130000
891.350	0.0131010
891.428	0.0130104
891.506	0.0128781
891.584	0.0130544
891.662	0.0130284
891.741	0.0129065
891.819	0.0131060
891.897	0.0130697
891.975	0.0129237
892.053	0.0129216
892.131	0.0131037
892.209	0.0130133
892.287	0.0130347
892.366	0.0130473
892.444	0.0129528
892.522	0.0129319
892.600	0.0129454
892.678	0.0130148
892.756	0.0129224
892.834	0.0128524
892.912	0.0130287
892.991	0.0129335
893.069	0.0129362
893.147	0.0129765
893.225	0.0129942
893.303	0.0130509
893.381	0.0129897
893.459	0.0129410
893.537	0.0129105
893.616	0.0129652
893.694	0.0129736
893.772	0.0130083
893.850	0.0129244
893.928	0.0129594
894.006	0.0129612
894.084	0.0129453
894.162	0.0129839
894.241	0.0129972
894.319	0.0128949
894.397	0.0129424
894.475	0.0129871
894.553	0.0130746
894.631	0.0130220
894.709	0.0130016
894.787	0.0130563
894.866	0.0129159
894.944	0.0130962
895.022	0.0130397
895.100	0.0131120
895.178	0.0129689
895.256	0.0130012
895.334	0.0129781
895.412	0.0129750
895.491	0.0129122
895.569	0.0129786
895.647	0.0131010
895.725	0.0129287
895.803	0.0129074
895.881	0.0130920
895.959	0.0129975
896.037	0.0129885
896.116	0.0129074
896.194	0.0130598
896.272	0.0130927
896.350	0.0130054
896.428	0.0129070
896.506	0.0129871
896.584	0.0129008
896.662	0.0129569
896.741	0.0129011
896.819	0.0131097
896.897	0.0131625
896.975	0.0129561
897.053	0.0129816
897.131	0.0130215
897.209	0.0130737
897.287	0.0129639
897.366	0.0130592
897.444	0.0129368
897.522	0.0128067
897.600	0.0129972
897.678	0.0129688
897.756	0.0130301
897.834	0.0129208
897.912	0.0129659
897.991	0.0129718
898.069	0.0129546
898.147	0.0129741
898.225	0.0130287
898.303	0.0131224
898.381	0.0130714
898.459	0.0130147
898.537	0.0131326
898.616	0.0130197
898.694	0.0132018
898.772	0.0130344
898.850	0.0129781
898.928	0.0129700
899.006	0.0129783
899.084	0.0127785
899.162	0.0128543
899.241	0.0129019
899.319	0.0129110
899.397	0.0129212
899.475	0.0129554
899.553	0.0129054
899.631	0.0129117
899.709	0.0130730
899.787	0.0130836
899.866	0.0131535
899.944	0.0130157
900.022	0.0130407
900.100	0.0129678
900.178	0.0131271
900.256	0.0132681
900.334	0.0130072
900.412	0.0129854
900.491	0.0131237
900.569	0.0130896
900.647	0.0130221
900.725	0.0130915
900.803	0.0129738
900.881	0.0130833
900.959	0.0131239
901.037	0.0130004
901.116	0.0130103
901.194	0.0130851
901.272	0.0129441
901.350	0.0129853
901.428	0.0129922
901.506	0.0131650
901.584	0.0131323
901.662	0.0129831
901.741	0.0129073
901.819	0.0131017
901.897	0.0130711
901.975	0.0129831
902.053	0.0129893
902.131	0.0129467
902.209	0.0129591
902.287	0.0129436
902.366	0.0130022
902.444	0.0129165
902.522	0.0128800
902.600	0.0128073
902.678	0.0127815
902.756	0.0128539
902.834	0.0128726
902.912	0.0129347
902.991	0.0129804
903.069	0.0129944
903.147	0.0128999
903.225	0.0129035
903.303	0.0128471
903.381	0.0130152
903.459	0.0130143
903.537	0.0130981
903.616	0.0129250
903.694	0.0130096
903.772	0.0130553
903.850	0.0130171
903.928	0.0130589
904.006	0.0130204
904.084	0.0130119
904.162	0.0130991
904.241	0.0130061
904.319	0.0130117
904.397	0.0129881
904.475	0.0130084
904.553	0.0130161
904.631	0.0130468
904.709	0.0130312
904.787	0.0131851
904.866	0.0130657
904.944	0.0129568
905.022	0.0130960
905.100	0.0129841
905.178	0.0129769
905.256	0.0129931
905.334	0.0131125
905.412	0.0130691
905.491	0.0132457
905.569	0.0130630
905.647	0.0130636
905.725	0.0131721
905.803	0.0132349
905.881	0.0132560
905.959	0.0132631
906.037	0.0131024
906.116	0.0131123
906.194	0.0131165
906.272	0.0132100
906.350	0.0130715
906.428	0.0130029
906.506	0.0129762
906.584	0.0130463
906.662	0.0129615
906.741	0.0129752
906.819	0.0129669
906.897	0.0130341
906.975	0.0129891
907.053	0.0129257
907.131	0.0129758
907.209	0.0129749
907.287	0.0128233
907.366	0.0128799
907.444	0.0130606
907.522	0.0130258
907.600	0.0130267
907.678	0.0131458
907.756	0.0129698
907.834	0.0129929
907.912	0.0131574
907.991	0.0131212
908.069	0.0131184
908.147	0.0130798
908.225	0.0129946
908.303	0.0130030
908.381	0.0131051
908.459	0.0128801
908.537	0.0128941
908.616	0.0129467
908.694	0.0128277
908.772	0.0130144
908.850	0.0129924
908.928	0.0126994
909.006	0.0130300
909.084	0.0128467
909.162	0.0128676
909.241	0.0129345
909.319	0.0128915
909.397	0.0128832
909.475	0.0127750
909.553	0.0128235
909.631	0.0129859
909.709	0.0129084
909.787	0.0128960
909.866	0.0129205
909.944	0.0130517
910.022	0.0131438
910.100	0.0131755
910.178	0.0131651
910.256	0.0131131
910.334	0.0131716
910.412	0.0131884
910.491	0.0131098
910.569	0.0132090
910.647	0.0131664
910.725	0.0131608
910.803	0.0130949
910.881	0.0131015
910.959	0.0130830
911.037	0.0131603
911.116	0.0130979
911.194	0.0131071
911.272	0.0129910
911.350	0.0130759
911.428	0.0128796
911.506	0.0130067
911.584	0.0128799
911.662	0.0129606
911.741	0.0130305
911.819	0.0130795
911.897	0.0129379
911.975	0.0130968
912.053	0.0131682
912.131	0.0130612
912.209	0.0131993
912.287	0.0131286
912.366	0.0131182
912.444	0.0131358
912.522	0.0130888
912.600	0.0130872
912.678	0.0131496
912.756	0.0132047
912.834	0.0130933
912.912	0.0131332
912.991	0.0131213
913.069	0.0131322
913.147	0.0130426
913.225	0.0130865
913.303	0.0130600
913.381	0.0132107
913.459	0.0130978
913.537	0.0130647
913.616	0.0130679
913.694	0.0131305
913.772	0.0131128
913.850	0.0130543
913.928	0.0129791
914.006	0.0131253
914.084	0.0130378
914.162	0.0130238
914.241	0.0130842
914.319	0.0130118
914.397	0.0129823
914.475	0.0129842
914.553	0.0129855
914.631	0.0130580
914.709	0.0131324
914.787	0.0131597
914.866	0.0131187
914.944	0.0131197
915.022	0.0130956
915.100	0.0131398
915.178	0.0128721
915.256	0.0131630
915.334	0.0129982
915.412	0.0128899
915.491	0.0130383
915.569	0.0130606
915.647	0.0130824
915.725	0.0129775
915.803	0.0129179
915.881	0.0130999
915.959	0.0130427
916.037	0.0130620
916.116	0.0131385
916.194	0.0130368
916.272	0.0129302
916.350	0.0129821
916.428	0.0130198
916.506	0.0129239
916.584	0.0130336
916.662	0.0130202
916.741	0.0129988
916.819	0.0130020
916.897	0.0130927
916.975	0.0130021
917.053	0.0129798
917.131	0.0129542
917.209	0.0129047
917.287	0.0129808
917.366	0.0129662
917.444	0.0129610
917.522	0.0128444
917.600	0.0128568
917.678	0.0129247
917.756	0.0129402
917.834	0.0130212
917.912	0.0130059
917.991	0.0131232
918.069	0.0129695
918.147	0.0130178
918.225	0.0129458
918.303	0.0129897
918.381	0.0130777
918.459	0.0130441
918.537	0.0131291
918.616	0.0130382
918.694	0.0130209
918.772	0.0131479
918.850	0.0131368
918.928	0.0131893
919.006	0.0130371
919.084	0.0130149
919.162	0.0131268
919.241	0.0131014
919.319	0.0129230
919.397	0.0131448
919.475	0.0130074
919.553	0.0130592
919.631	0.0129723
919.709	0.0129639
919.787	0.0130499
919.866	0.0130608
919.944	0.0130006
