05/08/2022	19:40:45	Ver.	4.1	UNKNOWN
Optical Delay	649.989667	Delta X		0.078125	Sweeps	1	Scan Rate	0/0
Coordinates	Axis 1	NaN	Axis 2	NaN	Axis 3	NaN	Axis 4	NaN	Axis 5	NaN	Axis 6	0.000000
TX Power	0.000000	RX Power	0.000000

649.990	0.0144241
650.068	0.0144075
650.146	0.0143643
650.224	0.0143739
650.302	0.0143399
650.380	0.0144120
650.458	0.0144773
650.537	0.0143917
650.615	0.0143781
650.693	0.0143615
650.771	0.0144083
650.849	0.0145138
650.927	0.0144778
651.005	0.0143595
651.083	0.0144183
651.162	0.0143916
651.240	0.0144660
651.318	0.0144058
651.396	0.0145141
651.474	0.0145433
651.552	0.0144617
651.630	0.0145371
651.708	0.0144598
651.787	0.0144180
651.865	0.0144073
651.943	0.0144001
652.021	0.0144863
652.099	0.0144644
652.177	0.0143966
652.255	0.0143988
652.333	0.0145739
652.412	0.0145345
652.490	0.0145589
652.568	0.0145751
652.646	0.0145304
652.724	0.0145226
652.802	0.0143155
652.880	0.0144763
652.958	0.0143397
653.037	0.0144669
653.115	0.0145053
653.193	0.0145301
653.271	0.0144597
653.349	0.0144913
653.427	0.0145178
653.505	0.0144535
653.583	0.0143384
653.662	0.0143118
653.740	0.0145206
653.818	0.0145048
653.896	0.0144377
653.974	0.0145145
654.052	0.0145135
654.130	0.0144180
654.208	0.0144283
654.287	0.0143478
654.365	0.0142957
654.443	0.0144720
654.521	0.0144143
654.599	0.0144708
654.677	0.0144294
654.755	0.0144061
654.833	0.0143356
654.912	0.0145802
654.990	0.0145435
655.068	0.0144772
655.146	0.0144008
655.224	0.0144292
655.302	0.0144437
655.380	0.0145637
655.458	0.0144947
655.537	0.0144114
655.615	0.0143957
655.693	0.0143296
655.771	0.0143394
655.849	0.0142897
655.927	0.0144483
656.005	0.0143608
656.083	0.0145259
656.162	0.0144798
656.240	0.0144558
656.318	0.0144479
656.396	0.0145380
656.474	0.0145055
656.552	0.0144357
656.630	0.0144699
656.708	0.0145218
656.787	0.0144453
656.865	0.0144487
656.943	0.0145241
657.021	0.0143483
657.099	0.0144207
657.177	0.0145020
657.255	0.0143984
657.333	0.0144539
657.412	0.0144264
657.490	0.0143582
657.568	0.0144165
657.646	0.0142576
657.724	0.0143992
657.802	0.0144927
657.880	0.0144685
657.958	0.0144608
658.037	0.0143764
658.115	0.0143694
658.193	0.0146377
658.271	0.0144917
658.349	0.0143900
658.427	0.0144559
658.505	0.0144884
658.583	0.0144949
658.662	0.0144983
658.740	0.0144238
658.818	0.0144875
658.896	0.0143983
658.974	0.0145697
659.052	0.0144592
659.130	0.0144432
659.208	0.0144733
659.287	0.0144130
659.365	0.0142628
659.443	0.0143742
659.521	0.0143360
659.599	0.0143268
659.677	0.0143944
659.755	0.0144669
659.833	0.0143802
659.912	0.0142097
659.990	0.0143126
660.068	0.0143721
660.146	0.0145366
660.224	0.0144610
660.302	0.0144303
660.380	0.0143681
660.458	0.0143038
660.537	0.0142471
660.615	0.0142560
660.693	0.0144462
660.771	0.0143740
660.849	0.0143900
660.927	0.0143249
661.005	0.0143475
661.083	0.0143310
661.162	0.0144551
661.240	0.0143897
661.318	0.0144024
661.396	0.0143077
661.474	0.0143772
661.552	0.0143518
661.630	0.0144772
661.708	0.0144286
661.787	0.0143810
661.865	0.0143994
661.943	0.0144979
662.021	0.0143066
662.099	0.0143201
662.177	0.0142606
662.255	0.0144349
662.333	0.0143731
662.412	0.0144254
662.490	0.0144715
662.568	0.0144657
662.646	0.0144553
662.724	0.0143792
662.802	0.0144695
662.880	0.0144880
662.958	0.0145474
663.037	0.0143818
663.115	0.0144460
663.193	0.0144084
663.271	0.0143054
663.349	0.0142580
663.427	0.0144626
663.505	0.0145171
663.583	0.0145793
663.662	0.0143974
663.740	0.0144925
663.818	0.0143444
663.896	0.0144185
663.974	0.0143552
664.052	0.0146090
664.130	0.0144509
664.208	0.0145709
664.287	0.0144705
664.365	0.0143854
664.443	0.0145501
664.521	0.0144946
664.599	0.0144087
664.677	0.0145004
664.755	0.0145142
664.833	0.0144234
664.912	0.0144247
664.990	0.0144665
665.068	0.0145837
665.146	0.0146263
665.224	0.0145454
665.302	0.0144585
665.380	0.0144382
665.458	0.0144719
665.537	0.0146649
665.615	0.0144644
665.693	0.0144660
665.771	0.0144707
665.849	0.0145364
665.927	0.0145515
666.005	0.0144870
666.083	0.0144096
666.162	0.0144622
666.240	0.0146229
666.318	0.0145926
666.396	0.0145362
666.474	0.0145187
666.552	0.0145755
666.630	0.0145251
666.708	0.0144706
666.787	0.0146325
666.865	0.0145885
666.943	0.0144874
667.021	0.0146431
667.099	0.0145575
667.177	0.0143910
667.255	0.0144791
667.333	0.0144712
667.412	0.0145051
667.490	0.0146158
667.568	0.0146298
667.646	0.0145226
667.724	0.0145472
667.802	0.0144342
667.880	0.0144854
667.958	0.0144738
668.037	0.0145705
668.115	0.0145933
668.193	0.0143752
668.271	0.0144880
668.349	0.0146045
668.427	0.0144455
668.505	0.0145796
668.583	0.0145367
668.662	0.0145647
668.740	0.0144720
668.818	0.0144556
668.896	0.0145181
668.974	0.0145457
669.052	0.0144774
669.130	0.0145616
669.208	0.0144610
669.287	0.0143953
669.365	0.0146141
669.443	0.0145476
669.521	0.0145713
669.599	0.0144604
669.677	0.0144144
669.755	0.0144164
669.833	0.0143961
669.912	0.0144878
669.990	0.0144801
670.068	0.0145122
670.146	0.0144855
670.224	0.0143898
670.302	0.0143588
670.380	0.0145380
670.458	0.0145069
670.537	0.0144057
670.615	0.0144497
670.693	0.0144492
670.771	0.0143556
670.849	0.0143459
670.927	0.0144061
671.005	0.0142442
671.083	0.0143805
671.162	0.0143481
671.240	0.0143275
671.318	0.0144669
671.396	0.0142197
671.474	0.0143811
671.552	0.0143047
671.630	0.0144033
671.708	0.0144873
671.787	0.0142903
671.865	0.0144014
671.943	0.0143531
672.021	0.0143445
672.099	0.0143748
672.177	0.0144164
672.255	0.0142781
672.333	0.0141913
672.412	0.0142597
672.490	0.0144020
672.568	0.0143569
672.646	0.0142162
672.724	0.0144119
672.802	0.0142746
672.880	0.0143534
672.958	0.0144368
673.037	0.0143783
673.115	0.0143430
673.193	0.0143073
673.271	0.0144700
673.349	0.0144069
673.427	0.0143192
673.505	0.0143474
673.583	0.0144347
673.662	0.0144913
673.740	0.0145396
673.818	0.0143546
673.896	0.0143256
673.974	0.0144133
674.052	0.0143092
674.130	0.0142769
674.208	0.0143925
674.287	0.0144148
674.365	0.0144524
674.443	0.0143301
674.521	0.0142771
674.599	0.0144407
674.677	0.0145716
674.755	0.0143830
674.833	0.0142438
674.912	0.0143495
674.990	0.0142589
675.068	0.0144361
675.146	0.0143774
675.224	0.0143702
675.302	0.0144266
675.380	0.0143781
675.458	0.0142838
675.537	0.0142454
675.615	0.0143848
675.693	0.0142829
675.771	0.0143163
675.849	0.0143795
675.927	0.0144357
676.005	0.0143355
676.083	0.0144119
676.162	0.0143530
676.240	0.0143415
676.318	0.0143298
676.396	0.0145092
676.474	0.0145028
676.552	0.0144038
676.630	0.0144251
676.708	0.0143437
676.787	0.0142979
676.865	0.0143358
676.943	0.0144509
677.021	0.0144243
677.099	0.0143794
677.177	0.0144555
677.255	0.0144521
677.333	0.0144555
677.412	0.0143594
677.490	0.0143866
677.568	0.0144950
677.646	0.0144033
677.724	0.0144731
677.802	0.0144714
677.880	0.0144608
677.958	0.0145686
678.037	0.0144476
678.115	0.0146333
678.193	0.0145828
678.271	0.0144305
678.349	0.0144253
678.427	0.0145659
678.505	0.0143928
678.583	0.0143694
678.662	0.0142906
678.740	0.0143398
678.818	0.0144364
678.896	0.0144906
678.974	0.0146410
679.052	0.0145863
679.130	0.0147144
679.208	0.0147485
679.287	0.0146698
679.365	0.0146286
679.443	0.0146464
679.521	0.0143581
679.599	0.0141984
679.677	0.0141035
679.755	0.0141192
679.833	0.0140103
679.912	0.0139722
679.990	0.0137893
680.068	0.0140820
680.146	0.0141135
680.224	0.0142225
680.302	0.0142821
680.380	0.0145235
680.458	0.0148846
680.537	0.0147851
680.615	0.0149400
680.693	0.0152039
680.771	0.0152333
680.849	0.0154009
680.927	0.0153519
681.005	0.0154012
681.083	0.0153596
681.162	0.0149798
681.240	0.0147882
681.318	0.0145934
681.396	0.0142369
681.474	0.0137762
681.552	0.0133651
681.630	0.0132519
681.708	0.0128333
681.787	0.0126430
681.865	0.0127399
681.943	0.0128444
682.021	0.0130154
682.099	0.0130881
682.177	0.0135220
682.255	0.0138708
682.333	0.0142616
682.412	0.0147141
682.490	0.0152100
682.568	0.0154624
682.646	0.0156738
682.724	0.0157970
682.802	0.0158007
682.880	0.0159904
682.958	0.0160748
683.037	0.0160023
683.115	0.0160757
683.193	0.0160836
683.271	0.0162351
683.349	0.0160286
683.427	0.0158791
683.505	0.0156854
683.583	0.0154176
683.662	0.0149169
683.740	0.0145557
683.818	0.0138506
683.896	0.0132679
683.974	0.0126227
684.052	0.0117794
684.130	0.0111053
684.208	0.0104798
684.287	0.00999397
684.365	0.00988342
684.443	0.00992554
684.521	0.0102497
684.599	0.0109987
684.677	0.0120232
684.755	0.0131116
684.833	0.0142980
684.912	0.0154764
684.990	0.0166877
685.068	0.0177979
685.146	0.0182456
685.224	0.0187248
685.302	0.0190858
685.380	0.0190486
685.458	0.0188803
685.537	0.0185637
685.615	0.0181187
685.693	0.0175958
685.771	0.0170213
685.849	0.0164410
685.927	0.0158760
686.005	0.0154474
686.083	0.0149537
686.162	0.0144769
686.240	0.0139394
686.318	0.0132507
686.396	0.0125348
686.474	0.0118138
686.552	0.0110638
686.630	0.0104406
686.708	0.00978340
686.787	0.00941872
686.865	0.00918251
686.943	0.00925613
687.021	0.00959930
687.099	0.0101056
687.177	0.0109553
687.255	0.0119810
687.333	0.0129227
687.412	0.0140098
687.490	0.0148375
687.568	0.0156259
687.646	0.0164739
687.724	0.0170702
687.802	0.0173474
687.880	0.0175475
687.958	0.0176128
688.037	0.0176440
688.115	0.0175029
688.193	0.0175362
688.271	0.0174442
688.349	0.0175091
688.427	0.0178089
688.505	0.0180856
688.583	0.0181150
688.662	0.0181780
688.740	0.0182557
688.818	0.0179805
688.896	0.0176492
688.974	0.0170283
689.052	0.0161597
689.130	0.0153349
689.208	0.0142462
689.287	0.0131020
689.365	0.0119400
689.443	0.0108297
689.521	0.00978157
689.599	0.00889694
689.677	0.00839203
689.755	0.00803802
689.833	0.00797256
689.912	0.00790520
689.990	0.00840439
690.068	0.00896332
690.146	0.00978142
690.224	0.0106626
690.302	0.0117445
690.380	0.0128833
690.458	0.0138408
690.537	0.0148890
690.615	0.0158511
690.693	0.0166816
690.771	0.0176894
690.849	0.0181973
690.927	0.0187975
691.005	0.0193700
691.083	0.0197631
691.162	0.0199525
691.240	0.0199356
691.318	0.0197393
691.396	0.0193571
691.474	0.0187523
691.552	0.0182660
691.630	0.0173999
691.708	0.0164454
691.787	0.0154334
691.865	0.0146300
691.943	0.0136833
692.021	0.0127820
692.099	0.0120751
692.177	0.0115574
692.255	0.0109698
692.333	0.0106853
692.412	0.0106998
692.490	0.0107256
692.568	0.0107743
692.646	0.0110031
692.724	0.0114432
692.802	0.0117326
692.880	0.0122221
692.958	0.0126900
693.037	0.0132127
693.115	0.0138805
693.193	0.0142780
693.271	0.0148880
693.349	0.0153302
693.427	0.0158463
693.505	0.0161396
693.583	0.0166589
693.662	0.0168967
693.740	0.0170145
693.818	0.0171802
693.896	0.0170396
693.974	0.0169339
694.052	0.0165769
694.130	0.0163673
694.208	0.0157486
694.287	0.0153308
694.365	0.0147281
694.443	0.0141079
694.521	0.0138743
694.599	0.0133242
694.677	0.0131723
694.755	0.0128141
694.833	0.0125013
694.912	0.0123285
694.990	0.0122834
695.068	0.0124347
695.146	0.0125593
695.224	0.0127840
695.302	0.0130339
695.380	0.0133232
695.458	0.0135960
695.537	0.0138685
695.615	0.0141332
695.693	0.0142696
695.771	0.0143764
695.849	0.0145387
695.927	0.0146618
696.005	0.0149115
696.083	0.0150104
696.162	0.0151082
696.240	0.0152476
696.318	0.0154002
696.396	0.0153773
696.474	0.0155935
696.552	0.0154755
696.630	0.0154170
696.708	0.0154272
696.787	0.0154150
696.865	0.0154476
696.943	0.0153535
697.021	0.0154251
697.099	0.0153748
697.177	0.0153630
697.255	0.0152308
697.333	0.0153622
697.412	0.0153945
697.490	0.0153786
697.568	0.0153011
697.646	0.0153510
697.724	0.0154408
697.802	0.0153255
697.880	0.0150285
697.958	0.0148186
698.037	0.0145174
698.115	0.0142144
698.193	0.0138136
698.271	0.0132508
698.349	0.0128728
698.427	0.0125172
698.505	0.0121182
698.583	0.0118860
698.662	0.0116853
698.740	0.0116761
698.818	0.0117192
698.896	0.0116796
698.974	0.0120134
699.052	0.0121484
699.130	0.0124097
699.208	0.0128173
699.287	0.0132854
699.365	0.0135608
699.443	0.0141547
699.521	0.0145175
699.599	0.0150385
699.677	0.0153386
699.755	0.0155859
699.833	0.0159489
699.912	0.0161318
699.990	0.0161891
700.068	0.0163623
700.146	0.0163821
700.224	0.0163816
700.302	0.0160482
700.380	0.0158436
700.458	0.0154137
700.537	0.0151921
700.615	0.0148737
700.693	0.0145101
700.771	0.0142280
700.849	0.0141502
700.927	0.0140596
701.005	0.0139614
701.083	0.0139821
701.162	0.0140871
701.240	0.0142759
701.318	0.0145307
701.396	0.0148705
701.474	0.0152478
701.552	0.0156205
701.630	0.0158108
701.708	0.0161479
701.787	0.0162622
701.865	0.0162437
701.943	0.0162473
702.021	0.0160751
702.099	0.0159580
702.177	0.0156641
702.255	0.0154510
702.333	0.0151885
702.412	0.0148475
702.490	0.0145772
702.568	0.0144936
702.646	0.0139408
702.724	0.0135809
702.802	0.0132733
702.880	0.0129333
702.958	0.0125438
703.037	0.0121485
703.115	0.0117259
703.193	0.0115365
703.271	0.0111677
703.349	0.0109607
703.427	0.0107967
703.505	0.0106628
703.583	0.0107176
703.662	0.0108629
703.740	0.0109828
703.818	0.0115482
703.896	0.0120184
703.974	0.0126647
704.052	0.0132062
704.130	0.0141325
704.208	0.0147267
704.287	0.0154145
704.365	0.0161300
704.443	0.0168560
704.521	0.0170811
704.599	0.0175029
704.677	0.0179560
704.755	0.0180347
704.833	0.0179787
704.912	0.0178963
704.990	0.0175610
705.068	0.0172944
705.146	0.0171434
705.224	0.0167606
705.302	0.0163393
705.380	0.0161099
705.458	0.0157195
705.537	0.0154491
705.615	0.0151148
705.693	0.0148280
705.771	0.0147679
705.849	0.0144256
705.927	0.0144218
706.005	0.0141320
706.083	0.0140635
706.162	0.0140302
706.240	0.0141832
706.318	0.0142221
706.396	0.0142819
706.474	0.0142028
706.552	0.0143794
706.630	0.0143102
706.708	0.0142161
706.787	0.0140998
706.865	0.0140501
706.943	0.0140159
707.021	0.0137514
707.099	0.0136646
707.177	0.0134446
707.255	0.0132897
707.333	0.0129302
707.412	0.0127370
707.490	0.0126224
707.568	0.0123972
707.646	0.0122729
707.724	0.0121101
707.802	0.0121316
707.880	0.0120671
707.958	0.0120923
708.037	0.0122044
708.115	0.0123001
708.193	0.0125098
708.271	0.0127267
708.349	0.0129514
708.427	0.0134516
708.505	0.0138065
708.583	0.0140112
708.662	0.0144183
708.740	0.0147684
708.818	0.0152145
708.896	0.0154555
708.974	0.0158388
709.052	0.0160701
709.130	0.0162639
709.208	0.0164252
709.287	0.0166290
709.365	0.0167138
709.443	0.0168940
709.521	0.0167062
709.599	0.0165263
709.677	0.0165253
709.755	0.0163206
709.833	0.0160733
709.912	0.0160355
709.990	0.0156362
710.068	0.0154546
710.146	0.0152133
710.224	0.0149205
710.302	0.0146358
710.380	0.0144868
710.458	0.0142798
710.537	0.0141151
710.615	0.0139708
710.693	0.0138247
710.771	0.0138029
710.849	0.0138266
710.927	0.0138548
711.005	0.0138208
711.083	0.0137511
711.162	0.0137871
711.240	0.0138393
711.318	0.0136865
711.396	0.0137505
711.474	0.0138195
711.552	0.0138012
711.630	0.0136612
711.708	0.0138866
711.787	0.0138399
711.865	0.0136736
711.943	0.0137339
712.021	0.0136245
712.099	0.0135883
712.177	0.0136246
712.255	0.0135265
712.333	0.0135962
712.412	0.0137145
712.490	0.0137843
712.568	0.0138196
712.646	0.0139633
712.724	0.0140187
712.802	0.0141940
712.880	0.0141589
712.958	0.0142674
713.037	0.0143655
713.115	0.0143864
713.193	0.0143350
713.271	0.0143911
713.349	0.0145415
713.427	0.0143080
713.505	0.0143019
713.583	0.0144598
713.662	0.0146191
713.740	0.0146622
713.818	0.0145045
713.896	0.0145714
713.974	0.0147160
714.052	0.0145732
714.130	0.0147685
714.208	0.0145782
714.287	0.0147552
714.365	0.0148321
714.443	0.0150109
714.521	0.0148587
714.599	0.0148229
714.677	0.0149625
714.755	0.0147717
714.833	0.0146027
714.912	0.0146104
714.990	0.0147085
715.068	0.0146693
715.146	0.0145465
715.224	0.0145629
715.302	0.0147346
715.380	0.0147218
715.458	0.0146625
715.537	0.0146492
715.615	0.0145849
715.693	0.0147227
715.771	0.0147235
715.849	0.0145258
715.927	0.0145376
716.005	0.0146487
716.083	0.0146609
716.162	0.0145414
716.240	0.0145477
716.318	0.0144682
716.396	0.0144051
716.474	0.0146102
716.552	0.0145948
716.630	0.0146055
716.708	0.0145937
716.787	0.0146700
716.865	0.0144907
716.943	0.0144846
717.021	0.0144998
717.099	0.0145802
717.177	0.0145132
717.255	0.0142461
717.333	0.0142934
717.412	0.0142898
717.490	0.0143329
717.568	0.0141895
717.646	0.0141403
717.724	0.0142542
717.802	0.0142065
717.880	0.0141427
717.958	0.0141883
718.037	0.0140353
718.115	0.0139816
718.193	0.0138976
718.271	0.0139616
718.349	0.0138011
718.427	0.0137312
718.505	0.0137481
718.583	0.0138512
718.662	0.0137165
718.740	0.0137509
718.818	0.0138604
718.896	0.0139175
718.974	0.0140553
719.052	0.0141039
719.130	0.0142562
719.208	0.0142752
719.287	0.0142381
719.365	0.0145101
719.443	0.0143282
719.521	0.0145175
719.599	0.0144627
719.677	0.0144574
719.755	0.0146793
719.833	0.0148399
719.912	0.0148312
719.990	0.0148217
720.068	0.0149608
720.146	0.0150679
720.224	0.0152089
720.302	0.0150607
720.380	0.0151993
720.458	0.0151881
720.537	0.0151688
720.615	0.0152991
720.693	0.0152232
720.771	0.0150465
720.849	0.0150909
720.927	0.0149957
721.005	0.0149143
721.083	0.0147717
721.162	0.0145270
721.240	0.0145708
721.318	0.0144382
721.396	0.0143490
721.474	0.0144247
721.552	0.0142777
721.630	0.0142921
721.708	0.0141442
721.787	0.0142646
721.865	0.0141476
721.943	0.0140804
722.021	0.0140678
722.099	0.0140597
722.177	0.0141196
722.255	0.0141217
722.333	0.0142530
722.412	0.0142382
722.490	0.0142669
722.568	0.0144024
722.646	0.0144311
722.724	0.0144596
722.802	0.0144069
722.880	0.0145356
722.958	0.0145383
723.037	0.0144450
723.115	0.0144738
723.193	0.0144617
723.271	0.0143220
723.349	0.0144712
723.427	0.0143710
723.505	0.0141965
723.583	0.0141464
723.662	0.0141437
723.740	0.0140672
723.818	0.0141356
723.896	0.0141351
723.974	0.0140134
724.052	0.0141282
724.130	0.0139927
724.208	0.0140902
724.287	0.0141503
724.365	0.0143462
724.443	0.0144471
724.521	0.0145811
724.599	0.0146023
724.677	0.0146570
724.755	0.0146993
724.833	0.0146949
724.912	0.0146019
724.990	0.0145272
725.068	0.0143750
725.146	0.0144254
725.224	0.0142471
725.302	0.0141940
725.380	0.0140739
725.458	0.0140390
725.537	0.0138889
725.615	0.0140936
725.693	0.0140501
725.771	0.0141015
725.849	0.0141335
725.927	0.0142362
726.005	0.0144164
726.083	0.0144145
726.162	0.0146346
726.240	0.0145187
726.318	0.0146468
726.396	0.0146809
726.474	0.0147993
726.552	0.0148207
726.630	0.0147581
726.708	0.0148044
726.787	0.0147788
726.865	0.0147620
726.943	0.0146877
727.021	0.0146808
727.099	0.0147324
727.177	0.0145741
727.255	0.0144513
727.333	0.0146651
727.412	0.0145052
727.490	0.0144332
727.568	0.0145119
727.646	0.0142799
727.724	0.0143314
727.802	0.0143423
727.880	0.0143039
727.958	0.0141605
728.037	0.0142008
728.115	0.0142433
728.193	0.0141470
728.271	0.0140923
728.349	0.0141918
728.427	0.0141428
728.505	0.0142242
728.583	0.0141971
728.662	0.0142251
728.740	0.0143755
728.818	0.0144700
728.896	0.0145408
728.974	0.0145425
729.052	0.0147258
729.130	0.0147796
729.208	0.0149625
729.287	0.0147906
729.365	0.0148573
729.443	0.0149297
729.521	0.0147929
729.599	0.0147601
729.677	0.0145665
729.755	0.0146210
729.833	0.0145671
729.912	0.0144991
729.990	0.0144820
730.068	0.0143331
730.146	0.0143051
730.224	0.0143118
730.302	0.0141302
730.380	0.0140736
730.458	0.0141258
730.537	0.0140587
730.615	0.0139105
730.693	0.0138433
730.771	0.0138009
730.849	0.0136533
730.927	0.0136320
731.005	0.0136401
731.083	0.0136528
731.162	0.0137121
731.240	0.0136253
731.318	0.0137684
731.396	0.0137110
731.474	0.0137696
731.552	0.0140630
731.630	0.0141939
731.708	0.0143308
731.787	0.0144309
731.865	0.0148177
731.943	0.0146909
732.021	0.0147860
732.099	0.0151260
732.177	0.0151434
732.255	0.0151626
732.333	0.0150796
732.412	0.0150750
732.490	0.0149516
732.568	0.0150912
732.646	0.0149410
732.724	0.0147856
732.802	0.0147271
732.880	0.0146970
732.958	0.0144966
733.037	0.0145189
733.115	0.0146339
733.193	0.0145532
733.271	0.0141919
733.349	0.0143337
733.427	0.0143588
733.505	0.0142892
733.583	0.0144776
733.662	0.0144343
733.740	0.0143327
733.818	0.0144840
733.896	0.0144901
733.974	0.0145186
734.052	0.0145192
734.130	0.0145015
734.208	0.0145097
734.287	0.0145586
734.365	0.0145005
734.443	0.0144655
734.521	0.0146252
734.599	0.0147002
734.677	0.0146819
734.755	0.0146882
734.833	0.0145295
734.912	0.0144051
734.990	0.0146452
735.068	0.0145485
735.146	0.0143645
735.224	0.0143363
735.302	0.0143372
735.380	0.0143167
735.458	0.0141273
735.537	0.0141079
735.615	0.0140241
735.693	0.0139286
735.771	0.0138543
735.849	0.0137806
735.927	0.0137263
736.005	0.0137910
736.083	0.0138848
736.162	0.0139854
736.240	0.0139848
736.318	0.0140923
736.396	0.0140231
736.474	0.0140836
736.552	0.0142166
736.630	0.0142882
736.708	0.0143287
736.787	0.0143239
736.865	0.0143481
736.943	0.0144147
737.021	0.0142752
737.099	0.0142827
737.177	0.0143597
737.255	0.0143514
737.333	0.0143653
737.412	0.0144790
737.490	0.0144347
737.568	0.0144967
737.646	0.0145770
737.724	0.0145041
737.802	0.0145551
737.880	0.0145863
737.958	0.0146439
738.037	0.0145218
738.115	0.0146835
738.193	0.0146358
738.271	0.0143734
738.349	0.0145084
738.427	0.0145495
738.505	0.0143093
738.583	0.0140953
738.662	0.0142975
738.740	0.0143172
738.818	0.0142308
738.896	0.0141969
738.974	0.0142034
739.052	0.0142302
739.130	0.0141747
739.208	0.0141870
739.287	0.0143891
739.365	0.0145844
739.443	0.0146596
739.521	0.0145222
739.599	0.0145871
739.677	0.0148698
739.755	0.0149350
739.833	0.0149397
739.912	0.0148904
739.990	0.0147769
740.068	0.0150568
740.146	0.0148100
740.224	0.0146233
740.302	0.0146674
740.380	0.0146358
740.458	0.0144635
740.537	0.0144476
740.615	0.0143605
740.693	0.0143675
740.771	0.0143776
740.849	0.0142566
740.927	0.0141967
741.005	0.0141947
741.083	0.0141753
741.162	0.0142391
741.240	0.0142582
741.318	0.0141888
741.396	0.0142757
741.474	0.0143598
741.552	0.0142239
741.630	0.0144319
741.708	0.0143634
741.787	0.0144769
741.865	0.0146648
741.943	0.0145798
742.021	0.0145779
742.099	0.0147086
742.177	0.0148891
742.255	0.0147835
742.333	0.0147350
742.412	0.0147999
742.490	0.0145872
742.568	0.0145477
742.646	0.0145934
742.724	0.0145772
742.802	0.0144208
742.880	0.0143360
742.958	0.0141361
743.037	0.0140868
743.115	0.0140720
743.193	0.0139829
743.271	0.0139742
743.349	0.0138038
743.427	0.0138120
743.505	0.0137640
743.583	0.0137503
743.662	0.0137538
743.740	0.0138186
743.818	0.0139313
743.896	0.0138515
743.974	0.0141891
744.052	0.0141741
744.130	0.0143472
744.208	0.0144587
744.287	0.0145604
744.365	0.0148197
744.443	0.0147066
744.521	0.0146955
744.599	0.0148794
744.677	0.0151224
744.755	0.0151029
744.833	0.0149501
744.912	0.0150470
744.990	0.0151313
745.068	0.0152773
745.146	0.0152636
745.224	0.0152671
745.302	0.0152058
745.380	0.0151110
745.458	0.0151380
745.537	0.0150294
745.615	0.0148540
745.693	0.0149424
745.771	0.0148174
745.849	0.0146603
745.927	0.0144274
746.005	0.0144336
746.083	0.0144235
746.162	0.0143850
746.240	0.0144199
746.318	0.0143655
746.396	0.0141098
746.474	0.0142537
746.552	0.0143395
746.630	0.0142197
746.708	0.0141942
746.787	0.0141494
746.865	0.0141653
746.943	0.0142011
747.021	0.0141560
747.099	0.0141444
747.177	0.0140832
747.255	0.0142770
747.333	0.0142072
747.412	0.0140701
747.490	0.0140461
747.568	0.0142079
747.646	0.0141195
747.724	0.0141840
747.802	0.0141558
747.880	0.0142048
747.958	0.0143466
748.037	0.0143991
748.115	0.0143684
748.193	0.0143845
748.271	0.0142319
748.349	0.0142563
748.427	0.0142847
748.505	0.0143822
748.583	0.0142766
748.662	0.0142614
748.740	0.0142612
748.818	0.0142139
748.896	0.0142880
748.974	0.0144183
749.052	0.0144445
749.130	0.0144203
749.208	0.0145966
749.287	0.0145325
749.365	0.0145650
749.443	0.0147025
749.521	0.0148155
749.599	0.0146760
749.677	0.0147309
749.755	0.0147120
749.833	0.0148532
749.912	0.0147466
749.990	0.0147852
750.068	0.0147589
750.146	0.0146814
750.224	0.0147176
750.302	0.0145578
750.380	0.0147317
750.458	0.0146999
750.537	0.0146130
750.615	0.0146619
750.693	0.0146104
750.771	0.0145229
750.849	0.0144325
750.927	0.0143223
751.005	0.0142893
751.083	0.0144143
751.162	0.0141853
751.240	0.0141825
751.318	0.0142554
751.396	0.0141840
751.474	0.0139960
751.552	0.0141084
751.630	0.0141087
751.708	0.0141958
751.787	0.0141594
751.865	0.0141956
751.943	0.0143905
752.021	0.0143814
752.099	0.0145463
752.177	0.0145918
752.255	0.0146064
752.333	0.0148019
752.412	0.0149143
752.490	0.0150652
752.568	0.0151002
752.646	0.0150992
752.724	0.0152620
752.802	0.0151699
752.880	0.0152463
752.958	0.0150436
753.037	0.0150340
753.115	0.0148438
753.193	0.0148499
753.271	0.0147107
753.349	0.0147399
753.427	0.0146419
753.505	0.0145097
753.583	0.0143887
753.662	0.0142830
753.740	0.0142611
753.818	0.0142474
753.896	0.0141513
753.974	0.0140631
754.052	0.0141918
754.130	0.0142023
754.208	0.0140779
754.287	0.0140085
754.365	0.0139910
754.443	0.0139999
754.521	0.0140345
754.599	0.0139807
754.677	0.0139903
754.755	0.0141670
754.833	0.0140285
754.912	0.0140265
754.990	0.0141695
755.068	0.0142097
755.146	0.0141730
755.224	0.0143597
755.302	0.0144809
755.380	0.0144492
755.458	0.0146104
755.537	0.0145592
755.615	0.0145101
755.693	0.0145615
755.771	0.0144801
755.849	0.0143743
755.927	0.0144428
756.005	0.0145214
756.083	0.0143253
756.162	0.0144007
756.240	0.0143632
756.318	0.0142249
756.396	0.0141426
756.474	0.0141294
756.552	0.0142548
756.630	0.0140237
756.708	0.0141107
756.787	0.0141828
756.865	0.0142471
756.943	0.0142052
757.021	0.0141998
757.099	0.0142249
757.177	0.0145058
757.255	0.0143669
757.333	0.0145873
757.412	0.0144656
757.490	0.0145958
757.568	0.0147104
757.646	0.0147272
757.724	0.0146682
757.802	0.0146397
757.880	0.0148371
757.958	0.0149292
758.037	0.0146876
758.115	0.0147578
758.193	0.0146952
758.271	0.0147655
758.349	0.0146407
758.427	0.0146873
758.505	0.0144957
758.583	0.0145078
758.662	0.0145293
758.740	0.0146195
758.818	0.0143558
758.896	0.0144499
758.974	0.0144207
759.052	0.0143005
759.130	0.0143349
759.208	0.0144096
759.287	0.0142892
759.365	0.0141959
759.443	0.0144601
759.521	0.0143310
759.599	0.0142880
759.677	0.0142703
759.755	0.0143062
759.833	0.0143764
759.912	0.0142223
759.990	0.0143969
760.068	0.0141620
760.146	0.0143616
760.224	0.0142883
760.302	0.0142664
760.380	0.0141688
760.458	0.0141957
760.537	0.0140871
760.615	0.0140500
760.693	0.0140546
760.771	0.0140176
760.849	0.0139680
760.927	0.0139327
761.005	0.0139746
761.083	0.0140799
761.162	0.0139489
761.240	0.0140221
761.318	0.0141430
761.396	0.0142870
761.474	0.0141962
761.552	0.0143217
761.630	0.0144870
761.708	0.0145065
761.787	0.0144067
761.865	0.0147260
761.943	0.0147266
762.021	0.0147337
762.099	0.0150033
762.177	0.0148815
762.255	0.0147913
762.333	0.0147701
762.412	0.0149828
762.490	0.0147874
762.568	0.0149122
762.646	0.0147123
762.724	0.0146189
762.802	0.0145785
762.880	0.0147181
762.958	0.0146195
763.037	0.0145548
763.115	0.0145110
763.193	0.0143120
763.271	0.0144562
763.349	0.0144851
763.427	0.0143250
763.505	0.0142883
763.583	0.0143404
763.662	0.0143793
763.740	0.0143604
763.818	0.0142847
763.896	0.0142344
763.974	0.0142231
764.052	0.0144921
764.130	0.0144257
764.208	0.0145031
764.287	0.0145244
764.365	0.0143895
764.443	0.0144482
764.521	0.0145712
764.599	0.0145789
764.677	0.0146196
764.755	0.0145433
764.833	0.0144333
764.912	0.0145948
764.990	0.0145326
765.068	0.0145606
765.146	0.0147513
765.224	0.0145075
765.302	0.0145260
765.380	0.0145638
765.458	0.0144280
765.537	0.0144283
765.615	0.0144377
765.693	0.0143552
765.771	0.0142802
765.849	0.0144447
765.927	0.0143108
766.005	0.0143009
766.083	0.0144432
766.162	0.0144076
766.240	0.0143997
766.318	0.0143224
766.396	0.0144975
766.474	0.0144817
766.552	0.0144241
766.630	0.0144103
766.708	0.0144463
766.787	0.0145182
766.865	0.0146442
766.943	0.0145724
767.021	0.0144619
767.099	0.0145412
767.177	0.0145952
767.255	0.0143348
767.333	0.0145195
767.412	0.0145502
767.490	0.0144382
767.568	0.0145284
767.646	0.0145458
767.724	0.0145043
767.802	0.0145557
767.880	0.0144882
767.958	0.0145788
768.037	0.0145706
768.115	0.0144883
768.193	0.0144833
768.271	0.0145276
768.349	0.0143987
768.427	0.0144061
768.505	0.0145036
768.583	0.0144280
768.662	0.0144189
768.740	0.0143564
768.818	0.0143086
768.896	0.0142675
768.974	0.0143476
769.052	0.0142609
769.130	0.0141792
769.208	0.0142503
769.287	0.0143082
769.365	0.0142166
769.443	0.0142188
769.521	0.0142655
769.599	0.0142512
769.677	0.0142990
769.755	0.0144315
769.833	0.0144793
769.912	0.0144142
769.990	0.0144382
770.068	0.0145763
770.146	0.0145245
770.224	0.0145505
770.302	0.0145378
770.380	0.0145639
770.458	0.0145235
770.537	0.0146328
770.615	0.0146690
770.693	0.0145316
770.771	0.0145655
770.849	0.0146031
770.927	0.0145983
771.005	0.0145645
771.083	0.0145477
771.162	0.0143822
771.240	0.0143796
771.318	0.0143701
771.396	0.0141704
771.474	0.0143893
771.552	0.0141978
771.630	0.0142226
771.708	0.0143758
771.787	0.0141986
771.865	0.0142416
771.943	0.0143974
772.021	0.0145296
772.099	0.0143559
772.177	0.0145526
772.255	0.0144659
772.333	0.0145216
772.412	0.0147018
772.490	0.0146249
772.568	0.0147723
772.646	0.0147818
772.724	0.0147121
772.802	0.0147722
772.880	0.0147878
772.958	0.0148089
773.037	0.0148196
773.115	0.0147283
773.193	0.0146521
773.271	0.0145340
773.349	0.0145509
773.427	0.0145267
773.505	0.0144203
773.583	0.0144633
773.662	0.0144061
773.740	0.0143228
773.818	0.0142564
773.896	0.0142213
773.974	0.0144072
774.052	0.0143357
774.130	0.0141491
774.208	0.0142820
774.287	0.0140529
774.365	0.0139486
774.443	0.0141640
774.521	0.0141708
774.599	0.0142579
774.677	0.0142155
774.755	0.0141939
774.833	0.0143121
774.912	0.0141889
774.990	0.0143392
775.068	0.0143599
775.146	0.0144379
775.224	0.0144530
775.302	0.0144834
775.380	0.0145150
775.458	0.0145174
775.537	0.0146623
775.615	0.0146135
775.693	0.0146220
775.771	0.0145442
775.849	0.0146356
775.927	0.0147298
776.005	0.0146326
776.083	0.0146391
776.162	0.0146684
776.240	0.0145107
776.318	0.0146098
776.396	0.0145133
776.474	0.0144244
776.552	0.0145816
776.630	0.0144370
776.708	0.0144131
776.787	0.0142418
776.865	0.0144514
776.943	0.0142321
777.021	0.0141880
777.099	0.0144321
777.177	0.0144605
777.255	0.0143549
777.333	0.0142844
777.412	0.0144727
777.490	0.0144096
777.568	0.0144967
777.646	0.0144041
777.724	0.0144810
777.802	0.0145885
777.880	0.0144292
777.958	0.0145107
778.037	0.0146441
778.115	0.0145753
778.193	0.0145361
778.271	0.0146633
778.349	0.0144590
778.427	0.0145640
778.505	0.0145408
778.583	0.0144908
778.662	0.0145010
778.740	0.0144470
778.818	0.0146168
778.896	0.0145179
778.974	0.0143585
779.052	0.0144550
779.130	0.0143999
779.208	0.0143994
779.287	0.0144193
779.365	0.0144568
779.443	0.0142945
779.521	0.0144247
779.599	0.0143700
779.677	0.0144605
779.755	0.0144850
779.833	0.0144525
779.912	0.0143607
779.990	0.0143914
780.068	0.0142886
780.146	0.0143610
780.224	0.0142828
780.302	0.0142687
780.380	0.0143321
780.458	0.0143900
780.537	0.0142458
780.615	0.0143429
780.693	0.0143518
780.771	0.0143259
780.849	0.0142521
780.927	0.0142533
781.005	0.0143916
781.083	0.0142373
781.162	0.0143329
781.240	0.0143098
781.318	0.0142803
781.396	0.0142789
781.474	0.0141863
781.552	0.0141721
781.630	0.0144471
781.708	0.0144078
781.787	0.0145243
781.865	0.0144214
781.943	0.0145090
782.021	0.0144447
782.099	0.0143935
782.177	0.0144608
782.255	0.0144706
782.333	0.0145468
782.412	0.0145345
782.490	0.0144496
782.568	0.0145581
782.646	0.0147018
782.724	0.0146947
782.802	0.0145736
782.880	0.0146194
782.958	0.0145084
783.037	0.0144612
783.115	0.0143586
783.193	0.0145741
783.271	0.0143530
783.349	0.0143076
783.427	0.0142935
783.505	0.0145010
783.583	0.0145205
783.662	0.0142428
783.740	0.0143211
783.818	0.0143308
783.896	0.0144157
783.974	0.0142987
784.052	0.0143113
784.130	0.0143484
784.208	0.0142435
784.287	0.0144250
784.365	0.0144536
784.443	0.0145448
784.521	0.0144316
784.599	0.0145382
784.677	0.0147268
784.755	0.0147001
784.833	0.0147342
784.912	0.0148349
784.990	0.0148154
785.068	0.0147605
785.146	0.0148624
785.224	0.0145778
785.302	0.0147231
785.380	0.0145808
785.458	0.0145078
785.537	0.0147044
785.615	0.0144593
785.693	0.0145308
785.771	0.0144183
785.849	0.0143573
785.927	0.0143104
786.005	0.0143174
786.083	0.0144067
786.162	0.0144029
786.240	0.0144613
786.318	0.0142086
786.396	0.0143376
786.474	0.0145059
786.552	0.0143406
786.630	0.0142908
786.708	0.0142825
786.787	0.0143181
786.865	0.0143479
786.943	0.0141863
787.021	0.0142789
787.099	0.0142450
787.177	0.0141280
787.255	0.0142630
787.333	0.0142467
787.412	0.0143355
787.490	0.0142416
787.568	0.0142637
787.646	0.0143934
787.724	0.0142511
787.802	0.0141868
787.880	0.0143383
787.958	0.0142810
788.037	0.0143939
788.115	0.0143126
788.193	0.0142636
788.271	0.0143018
788.349	0.0143391
788.427	0.0143981
788.505	0.0142456
788.583	0.0144350
788.662	0.0143686
788.740	0.0144289
788.818	0.0144022
788.896	0.0143730
788.974	0.0144274
789.052	0.0143984
789.130	0.0145667
789.208	0.0144332
789.287	0.0143593
789.365	0.0145252
789.443	0.0142691
789.521	0.0142934
789.599	0.0143677
789.677	0.0144448
789.755	0.0142993
789.833	0.0143530
789.912	0.0143891
789.990	0.0145201
790.068	0.0144154
790.146	0.0143513
790.224	0.0145650
790.302	0.0144516
790.380	0.0145834
790.458	0.0144433
790.537	0.0145504
790.615	0.0145323
790.693	0.0145724
790.771	0.0146703
790.849	0.0146865
790.927	0.0145002
791.005	0.0146136
791.083	0.0146352
791.162	0.0145820
791.240	0.0145573
791.318	0.0146257
791.396	0.0144164
791.474	0.0143880
791.552	0.0145364
791.630	0.0145860
791.708	0.0145381
791.787	0.0144926
791.865	0.0144112
791.943	0.0141857
792.021	0.0143127
792.099	0.0143473
792.177	0.0142239
792.255	0.0142176
792.333	0.0144225
792.412	0.0144296
792.490	0.0141881
792.568	0.0141949
792.646	0.0142942
792.724	0.0144539
792.802	0.0145090
792.880	0.0144878
792.958	0.0144325
793.037	0.0143103
793.115	0.0145618
793.193	0.0144210
793.271	0.0146325
793.349	0.0147026
793.427	0.0147506
793.505	0.0147900
793.583	0.0147076
793.662	0.0146168
793.740	0.0147055
793.818	0.0147880
793.896	0.0147484
793.974	0.0147964
794.052	0.0146869
794.130	0.0146655
794.208	0.0146519
794.287	0.0145802
794.365	0.0145756
794.443	0.0144472
794.521	0.0142209
794.599	0.0143810
794.677	0.0143369
794.755	0.0143347
794.833	0.0144200
794.912	0.0140739
794.990	0.0142162
795.068	0.0141381
795.146	0.0140216
795.224	0.0141324
795.302	0.0141359
795.380	0.0141054
795.458	0.0139856
795.537	0.0140167
795.615	0.0140140
795.693	0.0139822
795.771	0.0140649
795.849	0.0140297
795.927	0.0140000
796.005	0.0140856
796.083	0.0140751
796.162	0.0141713
796.240	0.0142233
796.318	0.0143811
796.396	0.0143333
796.474	0.0143290
796.552	0.0142796
796.630	0.0143786
796.708	0.0143967
796.787	0.0144280
796.865	0.0144466
796.943	0.0145794
797.021	0.0145023
797.099	0.0146337
797.177	0.0146797
797.255	0.0146516
797.333	0.0146719
797.412	0.0145749
797.490	0.0146275
797.568	0.0147019
797.646	0.0147290
797.724	0.0146790
797.802	0.0147338
797.880	0.0146214
797.958	0.0145872
798.037	0.0146056
798.115	0.0145619
798.193	0.0145161
798.271	0.0144465
798.349	0.0145938
798.427	0.0144289
798.505	0.0144097
798.583	0.0144830
798.662	0.0144985
798.740	0.0145504
798.818	0.0145277
798.896	0.0142856
798.974	0.0145243
799.052	0.0144614
799.130	0.0144041
799.208	0.0144618
799.287	0.0144122
799.365	0.0144527
799.443	0.0143199
799.521	0.0143035
799.599	0.0142947
799.677	0.0143333
799.755	0.0144436
799.833	0.0143388
799.912	0.0142938
799.990	0.0142993
800.068	0.0141862
800.146	0.0142901
800.224	0.0142655
800.302	0.0142638
800.380	0.0143054
800.458	0.0142800
800.537	0.0143140
800.615	0.0143153
800.693	0.0142449
800.771	0.0143026
800.849	0.0143517
800.927	0.0144251
801.005	0.0143988
801.083	0.0143277
801.162	0.0142878
801.240	0.0144923
801.318	0.0145337
801.396	0.0143754
801.474	0.0145728
801.552	0.0145129
801.630	0.0146346
801.708	0.0147112
801.787	0.0145697
801.865	0.0146261
801.943	0.0147059
802.021	0.0146061
802.099	0.0146745
802.177	0.0146302
802.255	0.0146169
802.333	0.0146544
802.412	0.0146308
802.490	0.0145592
802.568	0.0146452
802.646	0.0144017
802.724	0.0145321
802.802	0.0144942
802.880	0.0145395
802.958	0.0145993
803.037	0.0144068
803.115	0.0145612
803.193	0.0145481
803.271	0.0145219
803.349	0.0145140
803.427	0.0145770
803.505	0.0145686
803.583	0.0145468
803.662	0.0143954
803.740	0.0144413
803.818	0.0142294
803.896	0.0142400
803.974	0.0142770
804.052	0.0142622
804.130	0.0142242
804.208	0.0142206
804.287	0.0140431
804.365	0.0141016
804.443	0.0141996
804.521	0.0141805
804.599	0.0141511
804.677	0.0141749
804.755	0.0141828
804.833	0.0142239
804.912	0.0142876
804.990	0.0142859
805.068	0.0143159
805.146	0.0142953
805.224	0.0143270
805.302	0.0142742
805.380	0.0143454
805.458	0.0144801
805.537	0.0144354
805.615	0.0146427
805.693	0.0145806
805.771	0.0146858
805.849	0.0146285
805.927	0.0145343
806.005	0.0145992
806.083	0.0146499
806.162	0.0148179
806.240	0.0147676
806.318	0.0147203
806.396	0.0148692
806.474	0.0147120
806.552	0.0146626
806.630	0.0146572
806.708	0.0145276
806.787	0.0145885
806.865	0.0144811
806.943	0.0145670
807.021	0.0145186
807.099	0.0143716
807.177	0.0143472
807.255	0.0142420
807.333	0.0142418
807.412	0.0141679
807.490	0.0142449
807.568	0.0141118
807.646	0.0141459
807.724	0.0142262
807.802	0.0141694
807.880	0.0141631
807.958	0.0141394
808.037	0.0143090
808.115	0.0143425
808.193	0.0143860
808.271	0.0144065
808.349	0.0142526
808.427	0.0143172
808.505	0.0144997
808.583	0.0143430
808.662	0.0144348
808.740	0.0145075
808.818	0.0143089
808.896	0.0145463
808.974	0.0144514
809.052	0.0144303
809.130	0.0146262
809.208	0.0144298
809.287	0.0145198
809.365	0.0145375
809.443	0.0144527
809.521	0.0144473
809.599	0.0144845
809.677	0.0145695
809.755	0.0144344
809.833	0.0144495
809.912	0.0144724
809.990	0.0142876
810.068	0.0144809
810.146	0.0144530
810.224	0.0144540
810.302	0.0144660
810.380	0.0145796
810.458	0.0144549
810.537	0.0143507
810.615	0.0144364
810.693	0.0146233
810.771	0.0144874
810.849	0.0145203
810.927	0.0144899
811.005	0.0145181
811.083	0.0145882
811.162	0.0144292
811.240	0.0143862
811.318	0.0144265
811.396	0.0145174
811.474	0.0144154
811.552	0.0143523
811.630	0.0146073
811.708	0.0144596
811.787	0.0144492
811.865	0.0144703
811.943	0.0143844
812.021	0.0145335
812.099	0.0145302
812.177	0.0145787
812.255	0.0145393
812.333	0.0144160
812.412	0.0145397
812.490	0.0145015
812.568	0.0144725
812.646	0.0144772
812.724	0.0143800
812.802	0.0146354
812.880	0.0145160
812.958	0.0145135
813.037	0.0144684
813.115	0.0145004
813.193	0.0145741
813.271	0.0145417
813.349	0.0144788
813.427	0.0144695
813.505	0.0144199
813.583	0.0144611
813.662	0.0144094
813.740	0.0145047
813.818	0.0145396
813.896	0.0143851
813.974	0.0143356
814.052	0.0144303
814.130	0.0144778
814.208	0.0144933
814.287	0.0145421
814.365	0.0144315
814.443	0.0143455
814.521	0.0144679
814.599	0.0143463
814.677	0.0145103
814.755	0.0145199
814.833	0.0144901
814.912	0.0146020
814.990	0.0144825
815.068	0.0144668
815.146	0.0144615
815.224	0.0144543
815.302	0.0146308
815.380	0.0146070
815.458	0.0145412
815.537	0.0145194
815.615	0.0144022
815.693	0.0146041
815.771	0.0146081
815.849	0.0144991
815.927	0.0144926
816.005	0.0145678
816.083	0.0144849
816.162	0.0145037
816.240	0.0144746
816.318	0.0143605
816.396	0.0144520
816.474	0.0142838
816.552	0.0142629
816.630	0.0141750
816.708	0.0143056
816.787	0.0142627
816.865	0.0142949
816.943	0.0143373
817.021	0.0143303
817.099	0.0143252
817.177	0.0142880
817.255	0.0143256
817.333	0.0142623
817.412	0.0144049
817.490	0.0145139
817.568	0.0143414
817.646	0.0143308
817.724	0.0145566
817.802	0.0145025
817.880	0.0145637
817.958	0.0146042
818.037	0.0145826
818.115	0.0145814
818.193	0.0146172
818.271	0.0146242
818.349	0.0148555
818.427	0.0147884
818.505	0.0148916
818.583	0.0146591
818.662	0.0147166
818.740	0.0147366
818.818	0.0146210
818.896	0.0145786
818.974	0.0146401
819.052	0.0145808
819.130	0.0145859
819.208	0.0144904
819.287	0.0143852
819.365	0.0144432
819.443	0.0143620
819.521	0.0143040
819.599	0.0143385
819.677	0.0141431
819.755	0.0142257
819.833	0.0141804
819.912	0.0142173
819.990	0.0140456
820.068	0.0141455
820.146	0.0141640
820.224	0.0141164
820.302	0.0142799
820.380	0.0141863
820.458	0.0142988
820.537	0.0144105
820.615	0.0144069
820.693	0.0143673
820.771	0.0143768
820.849	0.0144140
820.927	0.0144878
821.005	0.0144839
821.083	0.0143572
821.162	0.0145660
821.240	0.0145056
821.318	0.0146048
821.396	0.0146027
821.474	0.0145881
821.552	0.0146033
821.630	0.0145586
821.708	0.0145644
821.787	0.0145950
821.865	0.0146449
821.943	0.0144196
822.021	0.0145419
822.099	0.0145103
822.177	0.0146480
822.255	0.0145345
822.333	0.0146333
822.412	0.0145332
822.490	0.0146353
822.568	0.0145679
822.646	0.0145074
822.724	0.0145677
822.802	0.0145490
822.880	0.0145744
822.958	0.0145650
823.037	0.0145917
823.115	0.0146356
823.193	0.0146750
823.271	0.0146720
823.349	0.0147253
823.427	0.0146799
823.505	0.0146168
823.583	0.0147319
823.662	0.0146988
823.740	0.0145253
823.818	0.0146889
823.896	0.0147308
823.974	0.0146656
824.052	0.0147453
824.130	0.0146939
824.208	0.0147331
824.287	0.0146577
824.365	0.0145139
824.443	0.0145675
824.521	0.0144616
824.599	0.0144420
824.677	0.0144894
824.755	0.0144130
824.833	0.0143793
824.912	0.0144382
824.990	0.0142669
825.068	0.0142562
825.146	0.0142805
825.224	0.0142202
825.302	0.0142924
825.380	0.0141845
825.458	0.0142516
825.537	0.0142123
825.615	0.0142813
825.693	0.0141357
825.771	0.0143146
825.849	0.0143407
825.927	0.0143006
826.005	0.0142292
826.083	0.0143021
826.162	0.0144296
826.240	0.0145354
826.318	0.0144198
826.396	0.0144927
826.474	0.0146294
826.552	0.0145546
826.630	0.0146815
826.708	0.0147780
826.787	0.0146786
826.865	0.0147462
826.943	0.0146742
827.021	0.0145452
827.099	0.0146422
827.177	0.0147906
827.255	0.0145724
827.333	0.0145061
827.412	0.0146358
827.490	0.0145046
827.568	0.0145815
827.646	0.0146214
827.724	0.0144836
827.802	0.0144640
827.880	0.0144529
827.958	0.0143853
828.037	0.0145520
828.115	0.0144799
828.193	0.0145230
828.271	0.0144357
828.349	0.0144071
828.427	0.0143671
828.505	0.0144051
828.583	0.0144048
828.662	0.0144125
828.740	0.0144314
828.818	0.0145908
828.896	0.0143682
828.974	0.0143834
829.052	0.0143413
829.130	0.0143845
829.208	0.0144607
829.287	0.0144671
829.365	0.0144974
829.443	0.0146464
829.521	0.0145803
829.599	0.0144530
829.677	0.0146054
829.755	0.0144685
829.833	0.0145405
829.912	0.0145648
829.990	0.0144882
830.068	0.0144863
830.146	0.0146230
830.224	0.0145617
830.302	0.0144397
830.380	0.0145803
830.458	0.0144694
830.537	0.0144038
830.615	0.0142962
830.693	0.0143414
830.771	0.0143842
830.849	0.0145368
830.927	0.0143837
831.005	0.0143372
831.083	0.0144041
831.162	0.0146121
831.240	0.0144780
831.318	0.0144674
831.396	0.0144586
831.474	0.0144025
831.552	0.0145165
831.630	0.0147143
831.708	0.0145837
831.787	0.0145165
831.865	0.0146370
831.943	0.0145844
832.021	0.0144739
832.099	0.0145136
832.177	0.0144527
832.255	0.0147137
832.333	0.0146230
832.412	0.0144709
832.490	0.0145337
832.568	0.0144664
832.646	0.0145116
832.724	0.0145083
832.802	0.0144631
832.880	0.0144511
832.958	0.0144102
833.037	0.0144627
833.115	0.0144524
833.193	0.0144004
833.271	0.0143983
833.349	0.0143568
833.427	0.0145418
833.505	0.0144902
833.583	0.0144416
833.662	0.0144558
833.740	0.0144927
833.818	0.0145650
833.896	0.0145090
833.974	0.0145324
834.052	0.0143750
834.130	0.0143835
834.208	0.0143737
834.287	0.0144389
834.365	0.0143626
834.443	0.0144448
834.521	0.0144203
834.599	0.0142554
834.677	0.0143292
834.755	0.0144019
834.833	0.0142901
834.912	0.0145278
834.990	0.0144186
835.068	0.0144456
835.146	0.0145107
835.224	0.0144596
835.302	0.0144425
835.380	0.0142542
835.458	0.0144519
835.537	0.0144764
835.615	0.0145142
835.693	0.0146519
835.771	0.0145116
835.849	0.0145090
835.927	0.0145103
836.005	0.0146541
836.083	0.0145181
836.162	0.0145551
836.240	0.0145644
836.318	0.0145635
836.396	0.0145159
836.474	0.0144809
836.552	0.0145354
836.630	0.0147778
836.708	0.0145930
836.787	0.0145758
836.865	0.0145777
836.943	0.0146816
837.021	0.0146735
837.099	0.0146519
837.177	0.0145557
837.255	0.0145715
837.333	0.0145375
837.412	0.0144822
837.490	0.0145569
837.568	0.0144552
837.646	0.0145267
837.724	0.0142099
837.802	0.0143900
837.880	0.0142607
837.958	0.0143872
838.037	0.0141722
838.115	0.0142621
838.193	0.0144395
838.271	0.0144853
838.349	0.0143462
838.427	0.0142999
838.505	0.0143704
838.583	0.0144479
838.662	0.0145564
838.740	0.0145306
838.818	0.0145462
838.896	0.0144646
838.974	0.0145968
839.052	0.0144885
839.130	0.0146109
839.208	0.0145531
839.287	0.0144676
839.365	0.0144821
839.443	0.0144514
839.521	0.0144271
839.599	0.0144424
839.677	0.0144289
839.755	0.0143606
839.833	0.0143759
839.912	0.0143151
839.990	0.0142393
840.068	0.0143312
840.146	0.0142658
840.224	0.0143458
840.302	0.0144534
840.380	0.0142787
840.458	0.0143025
840.537	0.0142498
840.615	0.0143806
840.693	0.0143845
840.771	0.0143622
840.849	0.0146811
840.927	0.0145075
841.005	0.0144069
841.083	0.0143909
841.162	0.0144367
841.240	0.0146962
841.318	0.0145615
841.396	0.0145190
841.474	0.0144704
841.552	0.0144814
841.630	0.0144763
841.708	0.0145914
841.787	0.0145041
841.865	0.0144677
841.943	0.0144936
842.021	0.0145891
842.099	0.0146062
842.177	0.0145898
842.255	0.0146025
842.333	0.0146047
842.412	0.0146523
842.490	0.0146225
842.568	0.0146163
842.646	0.0146686
842.724	0.0145841
842.802	0.0144513
842.880	0.0146988
842.958	0.0146176
843.037	0.0144720
843.115	0.0144384
843.193	0.0146244
843.271	0.0143834
843.349	0.0144921
843.427	0.0144530
843.505	0.0145557
843.583	0.0145030
843.662	0.0143839
843.740	0.0145776
843.818	0.0144657
843.896	0.0142692
843.974	0.0144424
844.052	0.0143643
844.130	0.0144544
844.208	0.0142765
844.287	0.0144776
844.365	0.0142935
844.443	0.0143677
844.521	0.0146011
844.599	0.0145274
844.677	0.0144293
844.755	0.0142707
844.833	0.0145399
844.912	0.0144276
844.990	0.0143794
845.068	0.0145126
845.146	0.0143995
845.224	0.0144690
845.302	0.0143028
845.380	0.0142944
845.458	0.0144277
845.537	0.0143227
845.615	0.0145199
845.693	0.0144479
845.771	0.0144173
845.849	0.0144059
845.927	0.0145721
846.005	0.0146098
846.083	0.0145319
846.162	0.0146575
846.240	0.0146172
846.318	0.0146766
846.396	0.0145153
846.474	0.0146043
846.552	0.0146101
846.630	0.0147426
846.708	0.0146065
846.787	0.0146730
846.865	0.0146090
846.943	0.0147377
847.021	0.0145961
847.099	0.0145802
847.177	0.0146394
847.255	0.0145667
847.333	0.0144612
847.412	0.0144223
847.490	0.0143777
847.568	0.0142755
847.646	0.0144707
847.724	0.0143034
847.802	0.0143913
847.880	0.0143727
847.958	0.0143771
848.037	0.0144880
848.115	0.0145356
848.193	0.0145898
848.271	0.0145908
848.349	0.0146256
848.427	0.0145160
848.505	0.0147028
848.583	0.0146213
848.662	0.0147694
848.740	0.0148501
848.818	0.0147588
848.896	0.0147524
848.974	0.0146653
849.052	0.0145998
849.130	0.0146867
849.208	0.0145557
849.287	0.0146213
849.365	0.0145728
849.443	0.0146287
849.521	0.0144626
849.599	0.0145973
849.677	0.0144394
849.755	0.0145082
849.833	0.0145289
849.912	0.0143961
849.990	0.0144050
850.068	0.0143211
850.146	0.0143842
850.224	0.0144946
850.302	0.0145143
850.380	0.0144601
850.458	0.0144893
850.537	0.0144371
850.615	0.0144210
850.693	0.0145008
850.771	0.0143980
850.849	0.0144816
850.927	0.0145435
851.005	0.0145386
851.083	0.0143317
851.162	0.0143702
851.240	0.0144379
851.318	0.0142379
851.396	0.0146412
851.474	0.0141955
851.552	0.0142351
851.630	0.0144343
851.708	0.0144347
851.787	0.0143153
851.865	0.0144550
851.943	0.0143130
852.021	0.0142752
852.099	0.0144021
852.177	0.0143230
852.255	0.0143615
852.333	0.0143732
852.412	0.0143304
852.490	0.0143206
852.568	0.0144890
852.646	0.0144722
852.724	0.0146246
852.802	0.0144751
852.880	0.0146323
852.958	0.0145914
853.037	0.0146418
853.115	0.0146530
853.193	0.0146359
853.271	0.0147105
853.349	0.0146314
853.427	0.0145972
853.505	0.0146563
853.583	0.0146078
853.662	0.0146248
853.740	0.0145408
853.818	0.0146016
853.896	0.0145258
853.974	0.0146968
854.052	0.0145895
854.130	0.0145397
854.208	0.0145311
854.287	0.0145184
854.365	0.0145748
854.443	0.0144701
854.521	0.0144447
854.599	0.0144392
854.677	0.0145036
854.755	0.0145238
854.833	0.0144579
854.912	0.0143980
854.990	0.0145102
855.068	0.0144795
855.146	0.0144668
855.224	0.0144543
855.302	0.0146360
855.380	0.0143766
855.458	0.0145451
855.537	0.0145611
855.615	0.0145898
855.693	0.0144097
855.771	0.0144666
855.849	0.0144788
855.927	0.0144348
856.005	0.0144662
856.083	0.0144601
856.162	0.0144304
856.240	0.0143818
856.318	0.0144505
856.396	0.0144325
856.474	0.0144585
856.552	0.0142394
856.630	0.0143516
856.708	0.0142896
856.787	0.0141777
856.865	0.0142574
856.943	0.0141719
857.021	0.0143185
857.099	0.0142675
857.177	0.0141641
857.255	0.0143040
857.333	0.0142355
857.412	0.0143125
857.490	0.0142356
857.568	0.0144073
857.646	0.0145133
857.724	0.0145164
857.802	0.0144684
857.880	0.0144136
857.958	0.0145326
858.037	0.0146152
858.115	0.0146142
858.193	0.0147281
858.271	0.0146056
858.349	0.0145187
858.427	0.0146368
858.505	0.0146447
858.583	0.0146291
858.662	0.0145014
858.740	0.0146784
858.818	0.0146090
858.896	0.0145545
858.974	0.0146655
859.052	0.0146017
859.130	0.0146346
859.208	0.0145443
859.287	0.0144382
859.365	0.0145709
859.443	0.0144180
859.521	0.0143918
859.599	0.0143881
859.677	0.0143114
859.755	0.0144260
859.833	0.0143275
859.912	0.0142423
859.990	0.0142297
860.068	0.0143355
860.146	0.0142146
860.224	0.0142881
860.302	0.0142123
860.380	0.0142889
860.458	0.0143524
860.537	0.0143426
860.615	0.0143064
860.693	0.0145248
860.771	0.0144376
860.849	0.0144997
860.927	0.0145704
861.005	0.0146289
861.083	0.0147850
861.162	0.0146344
861.240	0.0145926
861.318	0.0145856
861.396	0.0145783
861.474	0.0145367
861.552	0.0145293
861.630	0.0145058
861.708	0.0146149
861.787	0.0146139
861.865	0.0144460
861.943	0.0145857
862.021	0.0144952
862.099	0.0143585
862.177	0.0144410
862.255	0.0143544
862.333	0.0142473
862.412	0.0142511
862.490	0.0142078
862.568	0.0144099
862.646	0.0144016
862.724	0.0144113
862.802	0.0143182
862.880	0.0143461
862.958	0.0144478
863.037	0.0144974
863.115	0.0145274
863.193	0.0144337
863.271	0.0144791
863.349	0.0145267
863.427	0.0143817
863.505	0.0145913
863.583	0.0145247
863.662	0.0145148
863.740	0.0146590
863.818	0.0145772
863.896	0.0144868
863.974	0.0146101
864.052	0.0145441
864.130	0.0145186
864.208	0.0144994
864.287	0.0145055
864.365	0.0144893
864.443	0.0143742
864.521	0.0144595
864.599	0.0143896
864.677	0.0145233
864.755	0.0144584
864.833	0.0145647
864.912	0.0143889
864.990	0.0144231
865.068	0.0144511
865.146	0.0144486
865.224	0.0144412
865.302	0.0141975
865.380	0.0144595
865.458	0.0143982
865.537	0.0144361
865.615	0.0144113
865.693	0.0145541
865.771	0.0146304
865.849	0.0145930
865.927	0.0145495
866.005	0.0146815
866.083	0.0145313
866.162	0.0145538
866.240	0.0147176
866.318	0.0146172
866.396	0.0145700
866.474	0.0144675
866.552	0.0144688
866.630	0.0145928
866.708	0.0144733
866.787	0.0144914
866.865	0.0145058
866.943	0.0143536
867.021	0.0144480
867.099	0.0144675
867.177	0.0145864
867.255	0.0143356
867.333	0.0144322
867.412	0.0145345
867.490	0.0145530
867.568	0.0145023
867.646	0.0143849
867.724	0.0143456
867.802	0.0143993
867.880	0.0144305
867.958	0.0143176
868.037	0.0145036
868.115	0.0143905
868.193	0.0144159
868.271	0.0144601
868.349	0.0143308
868.427	0.0144273
868.505	0.0143870
868.583	0.0143080
868.662	0.0142862
868.740	0.0141809
868.818	0.0142898
868.896	0.0143450
868.974	0.0142148
869.052	0.0140926
869.130	0.0141727
869.208	0.0142084
869.287	0.0141623
869.365	0.0142056
869.443	0.0143327
869.521	0.0142773
869.599	0.0142151
869.677	0.0143816
869.755	0.0143880
869.833	0.0144162
869.912	0.0143436
869.990	0.0144667
870.068	0.0143384
870.146	0.0143324
870.224	0.0144417
870.302	0.0143593
870.380	0.0144067
870.458	0.0144583
870.537	0.0144751
870.615	0.0144058
870.693	0.0144032
870.771	0.0144373
870.849	0.0145325
870.927	0.0144247
871.005	0.0144132
871.083	0.0145776
871.162	0.0145301
871.240	0.0143037
871.318	0.0143885
871.396	0.0145828
871.474	0.0144619
871.552	0.0144259
871.630	0.0144892
871.708	0.0143725
871.787	0.0143935
871.865	0.0145547
871.943	0.0146286
872.021	0.0145385
872.099	0.0144714
872.177	0.0144837
872.255	0.0144440
872.333	0.0144712
872.412	0.0144361
872.490	0.0145099
872.568	0.0145733
872.646	0.0145705
872.724	0.0145830
872.802	0.0145071
872.880	0.0145838
872.958	0.0146279
873.037	0.0145592
873.115	0.0143118
873.193	0.0142601
873.271	0.0143871
873.349	0.0142480
873.427	0.0143915
873.505	0.0142499
873.583	0.0143058
873.662	0.0141509
873.740	0.0143198
873.818	0.0142770
873.896	0.0143941
873.974	0.0143388
874.052	0.0142059
874.130	0.0144300
874.208	0.0145177
874.287	0.0145359
874.365	0.0144779
874.443	0.0143516
874.521	0.0144624
874.599	0.0145178
874.677	0.0144415
874.755	0.0144438
874.833	0.0145350
874.912	0.0146185
874.990	0.0145815
875.068	0.0146058
875.146	0.0146143
875.224	0.0146619
875.302	0.0147416
875.380	0.0145231
875.458	0.0145558
875.537	0.0147659
875.615	0.0146453
875.693	0.0146215
875.771	0.0145094
875.849	0.0142256
875.927	0.0143091
876.005	0.0142723
876.083	0.0141328
876.162	0.0140267
876.240	0.0141112
876.318	0.0140730
876.396	0.0140797
876.474	0.0142471
876.552	0.0142507
876.630	0.0143562
876.708	0.0145343
876.787	0.0146446
876.865	0.0146651
876.943	0.0147353
877.021	0.0148692
877.099	0.0148209
877.177	0.0147941
877.255	0.0148861
877.333	0.0149017
877.412	0.0146880
877.490	0.0146447
877.568	0.0146172
877.646	0.0145473
877.724	0.0144221
877.802	0.0144231
877.880	0.0143496
877.958	0.0144676
878.037	0.0143000
878.115	0.0142082
878.193	0.0140803
878.271	0.0139625
878.349	0.0140823
878.427	0.0139996
878.505	0.0139164
878.583	0.0138417
878.662	0.0138316
878.740	0.0139314
878.818	0.0140515
878.896	0.0141721
878.974	0.0141678
879.052	0.0142677
879.130	0.0145534
879.208	0.0145136
879.287	0.0147176
879.365	0.0147668
879.443	0.0150333
879.521	0.0149639
879.599	0.0149692
879.677	0.0151015
879.755	0.0148812
879.833	0.0149989
879.912	0.0150694
879.990	0.0148817
880.068	0.0147585
880.146	0.0147807
880.224	0.0146852
880.302	0.0146197
880.380	0.0145431
880.458	0.0144083
880.537	0.0143997
880.615	0.0143549
880.693	0.0142022
880.771	0.0142422
880.849	0.0138708
880.927	0.0138318
881.005	0.0137534
881.083	0.0138597
881.162	0.0137106
881.240	0.0137276
881.318	0.0137189
881.396	0.0137560
881.474	0.0138207
881.552	0.0140247
881.630	0.0140747
881.708	0.0140038
881.787	0.0142998
881.865	0.0143396
881.943	0.0144933
882.021	0.0145738
882.099	0.0147742
882.177	0.0146681
882.255	0.0147867
882.333	0.0148032
882.412	0.0149306
882.490	0.0149635
882.568	0.0148457
882.646	0.0149678
882.724	0.0149203
882.802	0.0149504
882.880	0.0146645
882.958	0.0145518
883.037	0.0146145
883.115	0.0144113
883.193	0.0145177
883.271	0.0143785
883.349	0.0142035
883.427	0.0141791
883.505	0.0141397
883.583	0.0139546
883.662	0.0141267
883.740	0.0140582
883.818	0.0139369
883.896	0.0139235
883.974	0.0139065
884.052	0.0139716
884.130	0.0139681
884.208	0.0138741
884.287	0.0142462
884.365	0.0141715
884.443	0.0142310
884.521	0.0143958
884.599	0.0144584
884.677	0.0146262
884.755	0.0146058
884.833	0.0147507
884.912	0.0147189
884.990	0.0146404
885.068	0.0147334
885.146	0.0147953
885.224	0.0148501
885.302	0.0147711
885.380	0.0149317
885.458	0.0148222
885.537	0.0148141
885.615	0.0149521
885.693	0.0148069
885.771	0.0148402
885.849	0.0147248
885.927	0.0146758
886.005	0.0145484
886.083	0.0144101
886.162	0.0145912
886.240	0.0143478
886.318	0.0144331
886.396	0.0142604
886.474	0.0142268
886.552	0.0141226
886.630	0.0141821
886.708	0.0143891
886.787	0.0142576
886.865	0.0144090
886.943	0.0142899
887.021	0.0143626
887.099	0.0144772
887.177	0.0145345
887.255	0.0144005
887.333	0.0144321
887.412	0.0146382
887.490	0.0145227
887.568	0.0146022
887.646	0.0147728
887.724	0.0147082
887.802	0.0146072
887.880	0.0146471
887.958	0.0146818
888.037	0.0145521
888.115	0.0146996
888.193	0.0145079
888.271	0.0144210
888.349	0.0146017
888.427	0.0145123
888.505	0.0144102
888.583	0.0143684
888.662	0.0143450
888.740	0.0141994
888.818	0.0143417
888.896	0.0143874
888.974	0.0142822
889.052	0.0142139
889.130	0.0142692
889.208	0.0144651
889.287	0.0143623
889.365	0.0143456
889.443	0.0144255
889.521	0.0145403
889.599	0.0145468
889.677	0.0144906
889.755	0.0144754
889.833	0.0146027
889.912	0.0144713
889.990	0.0144830
890.068	0.0145117
890.146	0.0144762
890.224	0.0143902
890.302	0.0143806
890.380	0.0144008
890.458	0.0143978
890.537	0.0142805
890.615	0.0142435
890.693	0.0142411
890.771	0.0141188
890.849	0.0141397
890.927	0.0140893
891.005	0.0139925
891.083	0.0140778
891.162	0.0140524
891.240	0.0140783
891.318	0.0140621
891.396	0.0141643
891.474	0.0140836
891.552	0.0141980
891.630	0.0142554
891.708	0.0142575
891.787	0.0143309
891.865	0.0143915
891.943	0.0146069
892.021	0.0145152
892.099	0.0146349
892.177	0.0146743
892.255	0.0147636
892.333	0.0148623
892.412	0.0147205
892.490	0.0146733
892.568	0.0148116
892.646	0.0147789
892.724	0.0147652
892.802	0.0147527
892.880	0.0146571
892.958	0.0146378
893.037	0.0145683
893.115	0.0147165
893.193	0.0146278
893.271	0.0145923
893.349	0.0146107
893.427	0.0145178
893.505	0.0145161
893.583	0.0144198
893.662	0.0143546
893.740	0.0143995
893.818	0.0144144
893.896	0.0143510
893.974	0.0143088
894.052	0.0142220
894.130	0.0142483
894.208	0.0140971
894.287	0.0143011
894.365	0.0141686
894.443	0.0142047
894.521	0.0142299
894.599	0.0143186
894.677	0.0142374
894.755	0.0142524
894.833	0.0142340
894.912	0.0142316
894.990	0.0143061
895.068	0.0141859
895.146	0.0142341
895.224	0.0143142
895.302	0.0143172
895.380	0.0142088
895.458	0.0143396
895.537	0.0142545
895.615	0.0144606
895.693	0.0143941
895.771	0.0145395
895.849	0.0146049
895.927	0.0143818
896.005	0.0146140
896.083	0.0147942
896.162	0.0147013
896.240	0.0147195
896.318	0.0148278
896.396	0.0147099
896.474	0.0147014
896.552	0.0148225
896.630	0.0144905
896.708	0.0145499
896.787	0.0145841
896.865	0.0145907
896.943	0.0143732
897.021	0.0143962
897.099	0.0143909
897.177	0.0144623
897.255	0.0142263
897.333	0.0142198
897.412	0.0143914
897.490	0.0144239
897.568	0.0146219
897.646	0.0143494
897.724	0.0145266
897.802	0.0144057
897.880	0.0145000
897.958	0.0145330
898.037	0.0145141
898.115	0.0146613
898.193	0.0145393
898.271	0.0145444
898.349	0.0145909
898.427	0.0146392
898.505	0.0145241
898.583	0.0145049
898.662	0.0144989
898.740	0.0143279
898.818	0.0144241
898.896	0.0143478
898.974	0.0144234
899.052	0.0142704
899.130	0.0143211
899.208	0.0143861
899.287	0.0141809
899.365	0.0141171
899.443	0.0142995
899.521	0.0142801
899.599	0.0143883
899.677	0.0140504
899.755	0.0141811
899.833	0.0141351
899.912	0.0142388
899.990	0.0141500
900.068	0.0142174
900.146	0.0143339
900.224	0.0143890
900.302	0.0144772
900.380	0.0144686
900.458	0.0143035
900.537	0.0144401
900.615	0.0146236
900.693	0.0147396
900.771	0.0146661
900.849	0.0147066
900.927	0.0147868
901.005	0.0146838
901.083	0.0147433
901.162	0.0147275
901.240	0.0148193
901.318	0.0146528
901.396	0.0146328
901.474	0.0146602
901.552	0.0144816
901.630	0.0143199
901.708	0.0143125
901.787	0.0143172
901.865	0.0142850
901.943	0.0142433
902.021	0.0143234
902.099	0.0140739
902.177	0.0141022
902.255	0.0140005
902.333	0.0140891
902.412	0.0139634
902.490	0.0140442
902.568	0.0140968
902.646	0.0140743
902.724	0.0141733
902.802	0.0141519
902.880	0.0141663
902.958	0.0142267
903.037	0.0142399
903.115	0.0142284
903.193	0.0143855
903.271	0.0143444
903.349	0.0143295
903.427	0.0143820
903.505	0.0144711
903.583	0.0144482
903.662	0.0143719
903.740	0.0142831
903.818	0.0145081
903.896	0.0145195
903.974	0.0145519
904.052	0.0143967
904.130	0.0144278
904.208	0.0145317
904.287	0.0144973
904.365	0.0144295
904.443	0.0144146
904.521	0.0144653
904.599	0.0143108
904.677	0.0144093
904.755	0.0145100
904.833	0.0146684
904.912	0.0145015
904.990	0.0144518
905.068	0.0144556
905.146	0.0142858
905.224	0.0144310
905.302	0.0144589
905.380	0.0143876
905.458	0.0143502
905.537	0.0144083
905.615	0.0143557
905.693	0.0144097
905.771	0.0144102
905.849	0.0142937
905.927	0.0144918
906.005	0.0144458
906.083	0.0144220
906.162	0.0144630
906.240	0.0145909
906.318	0.0145371
906.396	0.0143149
906.474	0.0143992
906.552	0.0144098
906.630	0.0142455
906.708	0.0143834
906.787	0.0143988
906.865	0.0145338
906.943	0.0145103
907.021	0.0143458
907.099	0.0143645
907.177	0.0143969
907.255	0.0143852
907.333	0.0143557
907.412	0.0143561
907.490	0.0144012
907.568	0.0142776
907.646	0.0145604
907.724	0.0143063
907.802	0.0143564
907.880	0.0143092
907.958	0.0143120
908.037	0.0144466
908.115	0.0144916
908.193	0.0143766
908.271	0.0144109
908.349	0.0143095
908.427	0.0143710
908.505	0.0145583
908.583	0.0144189
908.662	0.0145935
908.740	0.0144772
908.818	0.0143998
908.896	0.0144467
908.974	0.0144509
909.052	0.0144981
909.130	0.0144473
909.208	0.0144627
909.287	0.0145148
909.365	0.0145219
909.443	0.0144585
909.521	0.0144401
909.599	0.0145340
909.677	0.0144493
909.755	0.0143325
909.833	0.0145624
909.912	0.0145499
909.990	0.0145087
910.068	0.0143994
910.146	0.0142731
910.224	0.0144848
910.302	0.0144321
910.380	0.0143253
910.458	0.0143739
910.537	0.0144578
910.615	0.0144035
910.693	0.0142722
910.771	0.0143918
910.849	0.0143790
910.927	0.0145828
911.005	0.0144845
911.083	0.0144111
911.162	0.0142770
911.240	0.0146223
911.318	0.0147117
911.396	0.0145088
911.474	0.0145466
911.552	0.0144695
911.630	0.0144787
911.708	0.0145858
911.787	0.0146120
911.865	0.0145189
911.943	0.0145368
912.021	0.0145615
912.099	0.0145946
912.177	0.0145540
912.255	0.0145351
912.333	0.0147332
912.412	0.0145641
912.490	0.0144280
912.568	0.0144579
912.646	0.0143969
912.724	0.0145023
912.802	0.0144766
912.880	0.0145679
912.958	0.0145113
913.037	0.0144271
913.115	0.0145242
913.193	0.0144381
913.271	0.0145520
913.349	0.0145280
913.427	0.0144706
913.505	0.0143980
913.583	0.0144482
913.662	0.0141944
913.740	0.0143096
913.818	0.0144591
913.896	0.0143710
913.974	0.0144192
914.052	0.0143770
914.130	0.0143583
914.208	0.0143340
914.287	0.0142435
914.365	0.0143497
914.443	0.0145187
914.521	0.0143057
914.599	0.0143674
914.677	0.0143127
914.755	0.0143008
914.833	0.0144057
914.912	0.0144933
914.990	0.0143088
915.068	0.0143755
915.146	0.0143858
915.224	0.0143392
915.302	0.0142661
915.380	0.0143178
915.458	0.0143726
915.537	0.0143796
915.615	0.0144907
915.693	0.0143797
915.771	0.0143568
915.849	0.0144645
915.927	0.0143934
916.005	0.0145689
916.083	0.0144930
916.162	0.0144994
916.240	0.0144617
916.318	0.0142719
916.396	0.0145284
916.474	0.0144771
916.552	0.0144522
916.630	0.0144984
916.708	0.0144612
916.787	0.0145652
916.865	0.0144122
916.943	0.0144084
917.021	0.0143836
917.099	0.0145319
917.177	0.0145832
917.255	0.0144547
917.333	0.0145103
917.412	0.0144784
917.490	0.0143661
917.568	0.0144857
917.646	0.0144098
917.724	0.0144106
917.802	0.0145026
917.880	0.0145348
917.958	0.0144727
918.037	0.0145074
918.115	0.0144437
918.193	0.0144866
918.271	0.0145445
918.349	0.0144810
918.427	0.0145296
918.505	0.0144170
918.583	0.0145390
918.662	0.0145474
918.740	0.0144239
918.818	0.0144546
918.896	0.0143446
918.974	0.0144692
919.052	0.0145203
919.130	0.0144353
919.208	0.0144295
919.287	0.0145346
919.365	0.0145086
919.443	0.0145691
919.521	0.0145578
919.599	0.0144686
919.677	0.0144880
919.755	0.0145313
919.833	0.0146256
919.912	0.0144819
919.990	0.0145110
920.068	0.0144530
920.146	0.0145225
920.224	0.0144380
920.302	0.0145036
920.380	0.0144728
920.458	0.0144749
920.537	0.0144015
920.615	0.0143887
920.693	0.0144224
920.771	0.0144740
920.849	0.0143562
920.927	0.0143900
921.005	0.0142227
921.083	0.0142766
921.162	0.0143928
921.240	0.0144119
921.318	0.0143863
921.396	0.0143371
921.474	0.0142324
921.552	0.0144105
921.630	0.0144157
921.708	0.0143631
921.787	0.0144128
921.865	0.0144564
921.943	0.0144350
922.021	0.0145365
922.099	0.0142586
922.177	0.0144498
922.255	0.0143941
922.333	0.0142845
922.412	0.0144968
922.490	0.0144929
922.568	0.0143140
922.646	0.0143124
922.724	0.0144997
922.802	0.0145219
922.880	0.0142959
922.958	0.0143424
923.037	0.0142595
923.115	0.0143051
923.193	0.0142528
923.271	0.0143829
923.349	0.0143716
923.427	0.0143848
923.505	0.0143253
923.583	0.0144530
923.662	0.0145143
923.740	0.0144532
923.818	0.0144534
923.896	0.0146577
923.974	0.0145580
924.052	0.0145748
924.130	0.0146230
924.208	0.0146265
924.287	0.0145753
924.365	0.0146092
924.443	0.0145558
924.521	0.0145110
924.599	0.0144293
924.677	0.0145959
924.755	0.0145255
924.833	0.0143784
924.912	0.0145344
924.990	0.0144859
925.068	0.0143141
925.146	0.0144501
925.224	0.0143800
925.302	0.0144037
925.380	0.0144055
925.458	0.0143137
925.537	0.0142912
925.615	0.0142662
925.693	0.0141933
925.771	0.0144123
925.849	0.0143908
925.927	0.0144488
926.005	0.0143696
926.083	0.0144656
926.162	0.0146615
926.240	0.0145622
926.318	0.0146284
926.396	0.0144955
926.474	0.0146749
926.552	0.0145448
926.630	0.0145335
926.708	0.0144931
926.787	0.0144803
926.865	0.0144589
926.943	0.0144502
927.021	0.0143363
927.099	0.0143715
927.177	0.0143764
927.255	0.0143300
927.333	0.0144545
927.412	0.0143123
927.490	0.0143335
927.568	0.0143382
927.646	0.0144351
927.724	0.0143951
927.802	0.0143298
927.880	0.0143395
927.958	0.0142355
928.037	0.0142883
928.115	0.0143060
928.193	0.0144183
928.271	0.0143455
928.349	0.0143806
928.427	0.0143838
928.505	0.0144029
928.583	0.0144321
928.662	0.0145939
928.740	0.0144205
928.818	0.0143784
928.896	0.0144601
928.974	0.0143208
929.052	0.0145029
929.130	0.0144998
929.208	0.0143110
929.287	0.0144313
929.365	0.0144511
929.443	0.0145285
929.521	0.0144337
929.599	0.0146023
929.677	0.0145320
929.755	0.0146252
929.833	0.0146328
929.912	0.0146469
929.990	0.0145522
930.068	0.0144811
930.146	0.0145579
930.224	0.0146384
930.302	0.0145930
930.380	0.0144984
930.458	0.0144553
930.537	0.0142883
930.615	0.0143907
930.693	0.0143996
930.771	0.0144595
930.849	0.0142262
930.927	0.0143065
931.005	0.0143477
931.083	0.0144135
931.162	0.0143286
931.240	0.0141910
931.318	0.0141898
931.396	0.0141882
931.474	0.0143611
931.552	0.0143045
931.630	0.0143106
931.708	0.0142269
931.787	0.0143935
931.865	0.0144373
931.943	0.0144142
932.021	0.0144789
932.099	0.0145943
932.177	0.0145616
932.255	0.0144671
932.333	0.0145400
932.412	0.0145835
932.490	0.0144283
932.568	0.0144802
932.646	0.0145979
932.724	0.0144759
932.802	0.0144744
932.880	0.0145547
932.958	0.0143617
933.037	0.0143398
933.115	0.0144016
933.193	0.0143823
933.271	0.0144799
933.349	0.0144589
933.427	0.0144504
933.505	0.0143555
933.583	0.0144062
933.662	0.0145127
933.740	0.0142676
933.818	0.0142690
933.896	0.0143537
933.974	0.0143523
934.052	0.0145621
934.130	0.0144404
934.208	0.0143461
934.287	0.0143829
934.365	0.0143926
934.443	0.0144656
934.521	0.0145439
934.599	0.0144023
934.677	0.0144034
934.755	0.0145963
934.833	0.0144836
934.912	0.0144788
934.990	0.0144682
935.068	0.0145224
935.146	0.0145466
935.224	0.0145396
935.302	0.0144405
935.380	0.0144954
935.458	0.0145881
935.537	0.0146729
935.615	0.0146059
935.693	0.0144529
935.771	0.0145972
935.849	0.0145921
935.927	0.0144942
936.005	0.0146044
936.083	0.0143952
936.162	0.0144625
936.240	0.0145148
936.318	0.0147073
936.396	0.0144666
936.474	0.0145733
936.552	0.0145039
936.630	0.0144484
936.708	0.0143931
936.787	0.0144116
936.865	0.0145869
936.943	0.0145702
937.021	0.0144066
937.099	0.0145522
937.177	0.0144089
937.255	0.0144541
937.333	0.0144273
937.412	0.0145021
937.490	0.0143957
937.568	0.0144382
937.646	0.0144092
937.724	0.0144673
937.802	0.0142944
937.880	0.0144151
937.958	0.0145281
938.037	0.0144440
938.115	0.0143723
938.193	0.0144875
938.271	0.0145514
938.349	0.0144821
938.427	0.0143255
938.505	0.0144344
938.583	0.0144768
938.662	0.0145308
938.740	0.0145641
938.818	0.0145385
938.896	0.0143971
938.974	0.0144892
939.052	0.0145998
939.130	0.0144876
939.208	0.0144186
939.287	0.0144477
939.365	0.0143600
939.443	0.0144068
939.521	0.0143876
939.599	0.0143017
939.677	0.0144639
939.755	0.0143522
939.833	0.0144370
939.912	0.0144553
939.990	0.0143407
940.068	0.0144266
940.146	0.0144006
940.224	0.0144165
940.302	0.0144173
940.380	0.0144161
940.458	0.0144695
940.537	0.0142715
940.615	0.0144509
940.693	0.0145420
940.771	0.0144777
940.849	0.0144164
940.927	0.0145741
941.005	0.0146404
941.083	0.0146917
941.162	0.0146883
941.240	0.0147166
941.318	0.0148276
941.396	0.0145767
941.474	0.0145876
941.552	0.0145964
941.630	0.0145824
941.708	0.0144810
941.787	0.0145077
941.865	0.0144773
941.943	0.0142764
942.021	0.0142535
942.099	0.0143459
942.177	0.0143756
942.255	0.0142015
942.333	0.0143495
942.412	0.0142688
942.490	0.0142893
942.568	0.0140900
942.646	0.0142585
942.724	0.0142090
942.802	0.0142765
942.880	0.0141991
942.958	0.0142027
943.037	0.0141422
943.115	0.0141984
943.193	0.0142429
943.271	0.0142941
943.349	0.0143013
943.427	0.0143317
943.505	0.0144218
943.583	0.0143488
943.662	0.0145054
943.740	0.0145080
943.818	0.0143811
943.896	0.0144881
943.974	0.0145994
944.052	0.0146705
944.130	0.0146698
944.208	0.0146632
944.287	0.0145406
944.365	0.0145658
944.443	0.0144477
944.521	0.0144943
944.599	0.0144492
944.677	0.0143739
944.755	0.0144088
944.833	0.0144304
944.912	0.0143813
944.990	0.0144256
945.068	0.0144318
945.146	0.0144135
945.224	0.0143063
945.302	0.0144018
945.380	0.0144102
945.458	0.0145039
945.537	0.0144804
945.615	0.0143612
945.693	0.0144440
945.771	0.0145204
945.849	0.0145943
945.927	0.0144937
946.005	0.0146982
946.083	0.0145444
946.162	0.0145848
946.240	0.0145689
946.318	0.0146054
946.396	0.0145684
946.474	0.0144465
946.552	0.0145435
946.630	0.0145715
946.708	0.0145299
946.787	0.0143896
946.865	0.0143919
946.943	0.0142705
947.021	0.0143652
947.099	0.0143686
947.177	0.0145238
947.255	0.0143671
947.333	0.0143256
947.412	0.0142963
947.490	0.0143899
947.568	0.0144775
947.646	0.0143199
947.724	0.0143802
947.802	0.0143487
947.880	0.0145048
947.958	0.0145026
948.037	0.0145022
948.115	0.0144698
948.193	0.0144930
948.271	0.0143783
948.349	0.0144195
948.427	0.0143961
948.505	0.0144354
948.583	0.0144377
948.662	0.0144469
948.740	0.0144250
948.818	0.0144221
948.896	0.0144565
948.974	0.0145456
949.052	0.0145571
949.130	0.0146042
949.208	0.0145724
949.287	0.0145842
949.365	0.0147259
949.443	0.0146338
949.521	0.0143795
949.599	0.0143407
949.677	0.0142616
949.755	0.0144112
949.833	0.0145836
949.912	0.0144472
949.990	0.0143443
950.068	0.0143188
950.146	0.0143562
950.224	0.0142688
950.302	0.0142985
950.380	0.0143102
950.458	0.0142593
950.537	0.0144225
950.615	0.0143772
950.693	0.0144506
950.771	0.0144809
950.849	0.0145162
950.927	0.0144355
951.005	0.0144112
951.083	0.0143671
951.162	0.0143535
951.240	0.0146181
951.318	0.0143631
951.396	0.0143701
951.474	0.0145357
951.552	0.0143226
951.630	0.0144521
951.708	0.0144599
951.787	0.0145142
951.865	0.0144391
951.943	0.0143106
952.021	0.0143259
952.099	0.0144672
952.177	0.0143868
952.255	0.0143963
952.333	0.0143159
952.412	0.0143719
952.490	0.0144263
952.568	0.0144749
952.646	0.0144644
952.724	0.0144570
952.802	0.0145614
952.880	0.0145833
952.958	0.0146365
953.037	0.0143229
953.115	0.0143469
953.193	0.0144554
953.271	0.0145210
953.349	0.0143407
953.427	0.0143568
953.505	0.0144911
953.583	0.0143695
953.662	0.0142542
953.740	0.0144428
953.818	0.0143875
953.896	0.0145211
953.974	0.0144579
954.052	0.0144341
954.130	0.0142923
954.208	0.0144038
954.287	0.0143647
954.365	0.0143991
954.443	0.0143040
954.521	0.0143572
954.599	0.0144085
954.677	0.0143949
954.755	0.0144057
954.833	0.0144612
954.912	0.0143674
954.990	0.0142781
955.068	0.0143484
955.146	0.0143609
955.224	0.0143533
955.302	0.0144191
955.380	0.0144322
955.458	0.0143539
955.537	0.0143795
955.615	0.0145316
955.693	0.0144733
955.771	0.0143763
955.849	0.0143715
955.927	0.0145560
956.005	0.0144142
956.083	0.0142890
956.162	0.0144041
956.240	0.0145325
956.318	0.0144627
956.396	0.0144122
956.474	0.0144140
956.552	0.0142527
956.630	0.0144491
956.708	0.0143660
956.787	0.0143132
956.865	0.0143805
956.943	0.0144563
957.021	0.0143636
957.099	0.0142325
957.177	0.0141776
957.255	0.0142881
957.333	0.0143777
957.412	0.0143380
957.490	0.0143118
957.568	0.0144236
957.646	0.0143685
957.724	0.0143083
957.802	0.0143560
957.880	0.0144032
957.958	0.0144440
958.037	0.0144329
958.115	0.0145859
958.193	0.0145629
958.271	0.0145588
958.349	0.0148455
958.427	0.0145805
958.505	0.0145179
958.583	0.0147273
958.662	0.0145053
958.740	0.0145735
958.818	0.0147521
958.896	0.0145055
958.974	0.0145255
959.052	0.0147257
959.130	0.0144450
959.208	0.0142957
959.287	0.0144228
959.365	0.0145936
959.443	0.0144017
959.521	0.0144225
959.599	0.0143919
959.677	0.0144527
959.755	0.0144849
959.833	0.0145755
959.912	0.0146383
959.990	0.0144576
960.068	0.0145027
960.146	0.0144667
960.224	0.0142542
960.302	0.0143066
960.380	0.0143102
960.458	0.0143164
960.537	0.0143159
960.615	0.0143298
960.693	0.0143852
960.771	0.0144753
960.849	0.0143839
960.927	0.0144094
961.005	0.0145045
961.083	0.0144403
961.162	0.0144387
961.240	0.0143793
961.318	0.0144613
961.396	0.0144287
961.474	0.0143946
961.552	0.0144329
961.630	0.0144462
961.708	0.0145823
961.787	0.0144636
961.865	0.0143790
961.943	0.0144341
962.021	0.0145979
962.099	0.0144145
962.177	0.0144602
962.255	0.0144493
962.333	0.0143536
962.412	0.0144817
962.490	0.0143708
962.568	0.0144149
962.646	0.0143710
962.724	0.0142597
962.802	0.0142820
962.880	0.0143842
962.958	0.0143628
963.037	0.0142002
963.115	0.0141663
963.193	0.0142663
963.271	0.0141981
963.349	0.0142382
963.427	0.0141942
963.505	0.0143140
963.583	0.0143823
963.662	0.0143439
963.740	0.0143990
963.818	0.0143536
963.896	0.0144695
963.974	0.0143494
964.052	0.0144052
964.130	0.0144667
964.208	0.0144209
964.287	0.0144603
964.365	0.0144691
964.443	0.0146458
964.521	0.0145212
964.599	0.0144742
964.677	0.0144454
964.755	0.0144527
964.833	0.0144094
964.912	0.0143853
964.990	0.0142725
965.068	0.0143806
965.146	0.0141748
965.224	0.0143179
965.302	0.0143701
965.380	0.0143289
965.458	0.0143022
965.537	0.0143613
965.615	0.0143628
965.693	0.0143930
965.771	0.0144046
965.849	0.0143973
965.927	0.0143005
966.005	0.0142444
966.083	0.0143035
966.162	0.0142894
966.240	0.0143162
966.318	0.0143485
966.396	0.0144049
966.474	0.0144131
966.552	0.0145223
966.630	0.0144775
966.708	0.0144863
966.787	0.0144002
966.865	0.0144539
966.943	0.0144135
967.021	0.0144007
967.099	0.0143611
967.177	0.0144776
967.255	0.0144227
967.333	0.0144241
967.412	0.0144579
967.490	0.0145322
967.568	0.0144693
967.646	0.0143020
967.724	0.0143634
967.802	0.0143209
967.880	0.0143829
967.958	0.0143427
968.037	0.0144950
968.115	0.0144715
968.193	0.0144292
968.271	0.0144634
968.349	0.0144135
968.427	0.0144462
968.505	0.0142719
968.583	0.0141513
968.662	0.0142051
968.740	0.0143343
968.818	0.0141550
968.896	0.0143882
968.974	0.0141634
969.052	0.0142429
969.130	0.0144095
969.208	0.0142915
969.287	0.0142687
969.365	0.0143887
969.443	0.0144792
969.521	0.0144703
969.599	0.0144212
969.677	0.0144674
969.755	0.0144326
969.833	0.0143726
969.912	0.0145583
