05/08/2022	19:46:25	Ver.	4.1	UNKNOWN
Optical Delay	649.989667	Delta X		0.078125	Sweeps	1	Scan Rate	0/0
Coordinates	Axis 1	NaN	Axis 2	NaN	Axis 3	NaN	Axis 4	NaN	Axis 5	NaN	Axis 6	0.000000
TX Power	0.000000	RX Power	0.000000

649.990	0.0142850
650.068	0.0142249
650.146	0.0142753
650.224	0.0142948
650.302	0.0142984
650.380	0.0142383
650.458	0.0142489
650.537	0.0143198
650.615	0.0143208
650.693	0.0142781
650.771	0.0143116
650.849	0.0142451
650.927	0.0143053
651.005	0.0142674
651.083	0.0143055
651.162	0.0143127
651.240	0.0143751
651.318	0.0142297
651.396	0.0142208
651.474	0.0144077
651.552	0.0143507
651.630	0.0141812
651.708	0.0143331
651.787	0.0142154
651.865	0.0142415
651.943	0.0142207
652.021	0.0143958
652.099	0.0143263
652.177	0.0142916
652.255	0.0141033
652.333	0.0142070
652.412	0.0143044
652.490	0.0141357
652.568	0.0143536
652.646	0.0142502
652.724	0.0142694
652.802	0.0143642
652.880	0.0143495
652.958	0.0142781
653.037	0.0143488
653.115	0.0142216
653.193	0.0143000
653.271	0.0143726
653.349	0.0142982
653.427	0.0142693
653.505	0.0141476
653.583	0.0143200
653.662	0.0145116
653.740	0.0142687
653.818	0.0141298
653.896	0.0143984
653.974	0.0142381
654.052	0.0143066
654.130	0.0142175
654.208	0.0143157
654.287	0.0144338
654.365	0.0142538
654.443	0.0142152
654.521	0.0143075
654.599	0.0142622
654.677	0.0142941
654.755	0.0142101
654.833	0.0141019
654.912	0.0143179
654.990	0.0141833
655.068	0.0142381
655.146	0.0143320
655.224	0.0142609
655.302	0.0142474
655.380	0.0143006
655.458	0.0143620
655.537	0.0142198
655.615	0.0142972
655.693	0.0144119
655.771	0.0142676
655.849	0.0143750
655.927	0.0142628
656.005	0.0143333
656.083	0.0142901
656.162	0.0143012
656.240	0.0141354
656.318	0.0143635
656.396	0.0143424
656.474	0.0143112
656.552	0.0142014
656.630	0.0142100
656.708	0.0142725
656.787	0.0142265
656.865	0.0143659
656.943	0.0141354
657.021	0.0143062
657.099	0.0141938
657.177	0.0142850
657.255	0.0143012
657.333	0.0142905
657.412	0.0142996
657.490	0.0143043
657.568	0.0142563
657.646	0.0143307
657.724	0.0143739
657.802	0.0141454
657.880	0.0143426
657.958	0.0143140
658.037	0.0142826
658.115	0.0143732
658.193	0.0143350
658.271	0.0142581
658.349	0.0142920
658.427	0.0142253
658.505	0.0143229
658.583	0.0143279
658.662	0.0142690
658.740	0.0142397
658.818	0.0142671
658.896	0.0143953
658.974	0.0143846
659.052	0.0143392
659.130	0.0141985
659.208	0.0143241
659.287	0.0142931
659.365	0.0143038
659.443	0.0141639
659.521	0.0142836
659.599	0.0143680
659.677	0.0142172
659.755	0.0142810
659.833	0.0143223
659.912	0.0144348
659.990	0.0143986
660.068	0.0144596
660.146	0.0141676
660.224	0.0143488
660.302	0.0144057
660.380	0.0142816
660.458	0.0142419
660.537	0.0143834
660.615	0.0142445
660.693	0.0142641
660.771	0.0143086
660.849	0.0141760
660.927	0.0142626
661.005	0.0143008
661.083	0.0142843
661.162	0.0143467
661.240	0.0143040
661.318	0.0143181
661.396	0.0143363
661.474	0.0142764
661.552	0.0142893
661.630	0.0142313
661.708	0.0141808
661.787	0.0143472
661.865	0.0143281
661.943	0.0142242
662.021	0.0141158
662.099	0.0141647
662.177	0.0143465
662.255	0.0142392
662.333	0.0142657
662.412	0.0142207
662.490	0.0144540
662.568	0.0142590
662.646	0.0141382
662.724	0.0143022
662.802	0.0142313
662.880	0.0142672
662.958	0.0143503
663.037	0.0144241
663.115	0.0144576
663.193	0.0142408
663.271	0.0142790
663.349	0.0142938
663.427	0.0143743
663.505	0.0143143
663.583	0.0143407
663.662	0.0142673
663.740	0.0141865
663.818	0.0142042
663.896	0.0143030
663.974	0.0143981
664.052	0.0142727
664.130	0.0143598
664.208	0.0143024
664.287	0.0143079
664.365	0.0142758
664.443	0.0142223
664.521	0.0141570
664.599	0.0143871
664.677	0.0143108
664.755	0.0143387
664.833	0.0142307
664.912	0.0140522
664.990	0.0143644
665.068	0.0143259
665.146	0.0143213
665.224	0.0142926
665.302	0.0142053
665.380	0.0142417
665.458	0.0142949
665.537	0.0142525
665.615	0.0142278
665.693	0.0141556
665.771	0.0142416
665.849	0.0142761
665.927	0.0142564
666.005	0.0142410
666.083	0.0143021
666.162	0.0142615
666.240	0.0142873
666.318	0.0142348
666.396	0.0142131
666.474	0.0141979
666.552	0.0142962
666.630	0.0143021
666.708	0.0143102
666.787	0.0143564
666.865	0.0144775
666.943	0.0142682
667.021	0.0142201
667.099	0.0141802
667.177	0.0143948
667.255	0.0144053
667.333	0.0142553
667.412	0.0142036
667.490	0.0142870
667.568	0.0142574
667.646	0.0142865
667.724	0.0142995
667.802	0.0142857
667.880	0.0143150
667.958	0.0141670
668.037	0.0142873
668.115	0.0143017
668.193	0.0142056
668.271	0.0142310
668.349	0.0142107
668.427	0.0142581
668.505	0.0142198
668.583	0.0142873
668.662	0.0142495
668.740	0.0142501
668.818	0.0142572
668.896	0.0142989
668.974	0.0143142
669.052	0.0142513
669.130	0.0142493
669.208	0.0142701
669.287	0.0141914
669.365	0.0142323
669.443	0.0143481
669.521	0.0142390
669.599	0.0142653
669.677	0.0143324
669.755	0.0141905
669.833	0.0141885
669.912	0.0142377
669.990	0.0143379
670.068	0.0142068
670.146	0.0140732
670.224	0.0143311
670.302	0.0144497
670.380	0.0143116
670.458	0.0142581
670.537	0.0143433
670.615	0.0142356
670.693	0.0143672
670.771	0.0143318
670.849	0.0142930
670.927	0.0143687
671.005	0.0142175
671.083	0.0143244
671.162	0.0141818
671.240	0.0142188
671.318	0.0143723
671.396	0.0142341
671.474	0.0141930
671.552	0.0142267
671.630	0.0141967
671.708	0.0143200
671.787	0.0143934
671.865	0.0142058
671.943	0.0143986
672.021	0.0143712
672.099	0.0143105
672.177	0.0142913
672.255	0.0142624
672.333	0.0142780
672.412	0.0142663
672.490	0.0142130
672.568	0.0141930
672.646	0.0143079
672.724	0.0144874
672.802	0.0144048
672.880	0.0143407
672.958	0.0144659
673.037	0.0143568
673.115	0.0143572
673.193	0.0143047
673.271	0.0143601
673.349	0.0142027
673.427	0.0141521
673.505	0.0141243
673.583	0.0140073
673.662	0.0140736
673.740	0.0140221
673.818	0.0139544
673.896	0.0139463
673.974	0.0140543
674.052	0.0139474
674.130	0.0140630
674.208	0.0142682
674.287	0.0144820
674.365	0.0145708
674.443	0.0148578
674.521	0.0147881
674.599	0.0150444
674.677	0.0152299
674.755	0.0152267
674.833	0.0151767
674.912	0.0151900
674.990	0.0150077
675.068	0.0147306
675.146	0.0144467
675.224	0.0141366
675.302	0.0137319
675.380	0.0135242
675.458	0.0132888
675.537	0.0132014
675.615	0.0129362
675.693	0.0129398
675.771	0.0128294
675.849	0.0131063
675.927	0.0134749
676.005	0.0135200
676.083	0.0139018
676.162	0.0142643
676.240	0.0145309
676.318	0.0150240
676.396	0.0152200
676.474	0.0154938
676.552	0.0155952
676.630	0.0155286
676.708	0.0153584
676.787	0.0154478
676.865	0.0152119
676.943	0.0150679
677.021	0.0150165
677.099	0.0147652
677.177	0.0145642
677.255	0.0145181
677.333	0.0143829
677.412	0.0141283
677.490	0.0141424
677.568	0.0140514
677.646	0.0140569
677.724	0.0139402
677.802	0.0139889
677.880	0.0137353
677.958	0.0135844
678.037	0.0135061
678.115	0.0134138
678.193	0.0133836
678.271	0.0131503
678.349	0.0128197
678.427	0.0127794
678.505	0.0127367
678.583	0.0127610
678.662	0.0127866
678.740	0.0130692
678.818	0.0134560
678.896	0.0138046
678.974	0.0143062
679.052	0.0149526
679.130	0.0153510
679.208	0.0156504
679.287	0.0163085
679.365	0.0164605
679.443	0.0164274
679.521	0.0163533
679.599	0.0162631
679.677	0.0160899
679.755	0.0158061
679.833	0.0155973
679.912	0.0152964
679.990	0.0148514
680.068	0.0148840
680.146	0.0146844
680.224	0.0146645
680.302	0.0146873
680.380	0.0146555
680.458	0.0144830
680.537	0.0143884
680.615	0.0143160
680.693	0.0140052
680.771	0.0137025
680.849	0.0133770
680.927	0.0131204
681.005	0.0126297
681.083	0.0122285
681.162	0.0121003
681.240	0.0117237
681.318	0.0115052
681.396	0.0113034
681.474	0.0113181
681.552	0.0114724
681.630	0.0114189
681.708	0.0117762
681.787	0.0120409
681.865	0.0122675
681.943	0.0127522
682.021	0.0131782
682.099	0.0138829
682.177	0.0145721
682.255	0.0153071
682.333	0.0160873
682.412	0.0168630
682.490	0.0174747
682.568	0.0180687
682.646	0.0184035
682.724	0.0184525
682.802	0.0186263
682.880	0.0186258
682.958	0.0183353
683.037	0.0181288
683.115	0.0178203
683.193	0.0174495
683.271	0.0169951
683.349	0.0163905
683.427	0.0159109
683.505	0.0153569
683.583	0.0146933
683.662	0.0141631
683.740	0.0136097
683.818	0.0128283
683.896	0.0122419
683.974	0.0116839
684.052	0.0111050
684.130	0.0107011
684.208	0.0102679
684.287	0.0101767
684.365	0.00985397
684.443	0.00994225
684.521	0.0100665
684.599	0.0103790
684.677	0.0107574
684.755	0.0113030
684.833	0.0118624
684.912	0.0125037
684.990	0.0130206
685.068	0.0135899
685.146	0.0138834
685.224	0.0142691
685.302	0.0145621
685.380	0.0149194
685.458	0.0148539
685.537	0.0149477
685.615	0.0149942
685.693	0.0151212
685.771	0.0150757
685.849	0.0152337
685.927	0.0154865
686.005	0.0157452
686.083	0.0161667
686.162	0.0166944
686.240	0.0171582
686.318	0.0174902
686.396	0.0180017
686.474	0.0182989
686.552	0.0185224
686.630	0.0186752
686.708	0.0187370
686.787	0.0187402
686.865	0.0184661
686.943	0.0182493
687.021	0.0176971
687.099	0.0171017
687.177	0.0163426
687.255	0.0156024
687.333	0.0148431
687.412	0.0138658
687.490	0.0132077
687.568	0.0124274
687.646	0.0116245
687.724	0.0110581
687.802	0.0105714
687.880	0.0102783
687.958	0.00972694
688.037	0.00942886
688.115	0.00909241
688.193	0.00896233
688.271	0.00883331
688.349	0.00886185
688.427	0.00927536
688.505	0.00965607
688.583	0.0104139
688.662	0.0112160
688.740	0.0120800
688.818	0.0130079
688.896	0.0140244
688.974	0.0147770
689.052	0.0154941
689.130	0.0159417
689.208	0.0163102
689.287	0.0164986
689.365	0.0165125
689.443	0.0163577
689.521	0.0162429
689.599	0.0157208
689.677	0.0153144
689.755	0.0148288
689.833	0.0144096
689.912	0.0140050
689.990	0.0137918
690.068	0.0138277
690.146	0.0140491
690.224	0.0145677
690.302	0.0150776
690.380	0.0156508
690.458	0.0164386
690.537	0.0171375
690.615	0.0177974
690.693	0.0186604
690.771	0.0190786
690.849	0.0194259
690.927	0.0197968
691.005	0.0200869
691.083	0.0201603
691.162	0.0198232
691.240	0.0194815
691.318	0.0188909
691.396	0.0181526
691.474	0.0172427
691.552	0.0162222
691.630	0.0152736
691.708	0.0141593
691.787	0.0131420
691.865	0.0122874
691.943	0.0111717
692.021	0.0101878
692.099	0.00922546
692.177	0.00830528
692.255	0.00765564
692.333	0.00704613
692.412	0.00634781
692.490	0.00600548
692.568	0.00580498
692.646	0.00577034
692.724	0.00609558
692.802	0.00636009
692.880	0.00703384
692.958	0.00778015
693.037	0.00871635
693.115	0.00972656
693.193	0.0110940
693.271	0.0122861
693.349	0.0134315
693.427	0.0144975
693.505	0.0154685
693.583	0.0163803
693.662	0.0169893
693.740	0.0175870
693.818	0.0180224
693.896	0.0184367
693.974	0.0185401
694.052	0.0190588
694.130	0.0193474
694.208	0.0198177
694.287	0.0202144
694.365	0.0206481
694.443	0.0213370
694.521	0.0217619
694.599	0.0219566
694.677	0.0222085
694.755	0.0222346
694.833	0.0220750
694.912	0.0216585
694.990	0.0210752
695.068	0.0203673
695.146	0.0193343
695.224	0.0182305
695.302	0.0170992
695.380	0.0156329
695.458	0.0140877
695.537	0.0127556
695.615	0.0115557
695.693	0.0103166
695.771	0.00939606
695.849	0.00861275
695.927	0.00812325
696.005	0.00777405
696.083	0.00730766
696.162	0.00726288
696.240	0.00720848
696.318	0.00713432
696.396	0.00729012
696.474	0.00749886
696.552	0.00764023
696.630	0.00799614
696.708	0.00868370
696.787	0.00934830
696.865	0.00992355
696.943	0.0106027
697.021	0.0113114
697.099	0.0121049
697.177	0.0128694
697.255	0.0134934
697.333	0.0140491
697.412	0.0145936
697.490	0.0149886
697.568	0.0152142
697.646	0.0154334
697.724	0.0154522
697.802	0.0153056
697.880	0.0152256
697.958	0.0153079
698.037	0.0155528
698.115	0.0157622
698.193	0.0161257
698.271	0.0167306
698.349	0.0175504
698.427	0.0185251
698.505	0.0191216
698.583	0.0199025
698.662	0.0206548
698.740	0.0212083
698.818	0.0214199
698.896	0.0214841
698.974	0.0213046
699.052	0.0207732
699.130	0.0201591
699.208	0.0194922
699.287	0.0186926
699.365	0.0176069
699.443	0.0165404
699.521	0.0155682
699.599	0.0145234
699.677	0.0135134
699.755	0.0127835
699.833	0.0123910
699.912	0.0120003
699.990	0.0114878
700.068	0.0112077
700.146	0.0109489
700.224	0.0107495
700.302	0.0104304
700.380	0.0101627
700.458	0.0101593
700.537	0.00985733
700.615	0.00964912
700.693	0.00938805
700.771	0.00938011
700.849	0.00946480
700.927	0.00960869
701.005	0.00957031
701.083	0.00978806
701.162	0.0101336
701.240	0.0106256
701.318	0.0110899
701.396	0.0115970
701.474	0.0121290
701.552	0.0127549
701.630	0.0134990
701.708	0.0139266
701.787	0.0144618
701.865	0.0150146
701.943	0.0156855
702.021	0.0159844
702.099	0.0163555
702.177	0.0165080
702.255	0.0169905
702.333	0.0171272
702.412	0.0172587
702.490	0.0174813
702.568	0.0176099
702.646	0.0176955
702.724	0.0177499
702.802	0.0176728
702.880	0.0176075
702.958	0.0172462
703.037	0.0171338
703.115	0.0169975
703.193	0.0165022
703.271	0.0161976
703.349	0.0157380
703.427	0.0153252
703.505	0.0152109
703.583	0.0150494
703.662	0.0146941
703.740	0.0146967
703.818	0.0144895
703.896	0.0144062
703.974	0.0142661
704.052	0.0142141
704.130	0.0141139
704.208	0.0141623
704.287	0.0139901
704.365	0.0138274
704.443	0.0137409
704.521	0.0135108
704.599	0.0133624
704.677	0.0132080
704.755	0.0129054
704.833	0.0127481
704.912	0.0125622
704.990	0.0124451
705.068	0.0123500
705.146	0.0122029
705.224	0.0121779
705.302	0.0125870
705.380	0.0128376
705.458	0.0130078
705.537	0.0131938
705.615	0.0134305
705.693	0.0138444
705.771	0.0141306
705.849	0.0142294
705.927	0.0142361
706.005	0.0142063
706.083	0.0142372
706.162	0.0139445
706.240	0.0138319
706.318	0.0135093
706.396	0.0134553
706.474	0.0132378
706.552	0.0132970
706.630	0.0135481
706.708	0.0135150
706.787	0.0136715
706.865	0.0137661
706.943	0.0139457
707.021	0.0143092
707.099	0.0149339
707.177	0.0150984
707.255	0.0154340
707.333	0.0157669
707.412	0.0160100
707.490	0.0161099
707.568	0.0161436
707.646	0.0161543
707.724	0.0161378
707.802	0.0159611
707.880	0.0156732
707.958	0.0154097
708.037	0.0154429
708.115	0.0149737
708.193	0.0147197
708.271	0.0144875
708.349	0.0144274
708.427	0.0144178
708.505	0.0143745
708.583	0.0143037
708.662	0.0141585
708.740	0.0140114
708.818	0.0138467
708.896	0.0138046
708.974	0.0136391
709.052	0.0135413
709.130	0.0135960
709.208	0.0137115
709.287	0.0134752
709.365	0.0136768
709.443	0.0136578
709.521	0.0135980
709.599	0.0137687
709.677	0.0140362
709.755	0.0140063
709.833	0.0142315
709.912	0.0143491
709.990	0.0144303
710.068	0.0143535
710.146	0.0144949
710.224	0.0148524
710.302	0.0149316
710.380	0.0150587
710.458	0.0151669
710.537	0.0151952
710.615	0.0152567
710.693	0.0152735
710.771	0.0152021
710.849	0.0150859
710.927	0.0149497
711.005	0.0149396
711.083	0.0148588
711.162	0.0145781
711.240	0.0141463
711.318	0.0139779
711.396	0.0136340
711.474	0.0134596
711.552	0.0132172
711.630	0.0129722
711.708	0.0127960
711.787	0.0126122
711.865	0.0127264
711.943	0.0127229
712.021	0.0127277
712.099	0.0128467
712.177	0.0131021
712.255	0.0132212
712.333	0.0136681
712.412	0.0138303
712.490	0.0141978
712.568	0.0143948
712.646	0.0147014
712.724	0.0149877
712.802	0.0153546
712.880	0.0153654
712.958	0.0155293
713.037	0.0157853
713.115	0.0159917
713.193	0.0159620
713.271	0.0158979
713.349	0.0158390
713.427	0.0157666
713.505	0.0156167
713.583	0.0155473
713.662	0.0153946
713.740	0.0151133
713.818	0.0149896
713.896	0.0147439
713.974	0.0145047
714.052	0.0143208
714.130	0.0140928
714.208	0.0139046
714.287	0.0136366
714.365	0.0133713
714.443	0.0132037
714.521	0.0130624
714.599	0.0130521
714.677	0.0128449
714.755	0.0128185
714.833	0.0129214
714.912	0.0129057
714.990	0.0131244
715.068	0.0130779
715.146	0.0132108
715.224	0.0136932
715.302	0.0139230
715.380	0.0140609
715.458	0.0143797
715.537	0.0144501
715.615	0.0147411
715.693	0.0148184
715.771	0.0148976
715.849	0.0150026
715.927	0.0151487
716.005	0.0151188
716.083	0.0150907
716.162	0.0150758
716.240	0.0149783
716.318	0.0149062
716.396	0.0148822
716.474	0.0148166
716.552	0.0147430
716.630	0.0146992
716.708	0.0147797
716.787	0.0144975
716.865	0.0145772
716.943	0.0145494
717.021	0.0144938
717.099	0.0143990
717.177	0.0145128
717.255	0.0144852
717.333	0.0145902
717.412	0.0144607
717.490	0.0143105
717.568	0.0142686
717.646	0.0142162
717.724	0.0140778
717.802	0.0139001
717.880	0.0138438
717.958	0.0135970
718.037	0.0134084
718.115	0.0133042
718.193	0.0134271
718.271	0.0134230
718.349	0.0133126
718.427	0.0132496
718.505	0.0137457
718.583	0.0137292
718.662	0.0140102
718.740	0.0142987
718.818	0.0145939
718.896	0.0148947
718.974	0.0149117
719.052	0.0151915
719.130	0.0153551
719.208	0.0153298
719.287	0.0153111
719.365	0.0152704
719.443	0.0150641
719.521	0.0149728
719.599	0.0147030
719.677	0.0143344
719.755	0.0140881
719.833	0.0136523
719.912	0.0136047
719.990	0.0133022
720.068	0.0129610
720.146	0.0127325
720.224	0.0126299
720.302	0.0124638
720.380	0.0124355
720.458	0.0122739
720.537	0.0123729
720.615	0.0125101
720.693	0.0128204
720.771	0.0130600
720.849	0.0132571
720.927	0.0136392
721.005	0.0140013
721.083	0.0142664
721.162	0.0144675
721.240	0.0147902
721.318	0.0151289
721.396	0.0153872
721.474	0.0156290
721.552	0.0156802
721.630	0.0159201
721.708	0.0161178
721.787	0.0160683
721.865	0.0160194
721.943	0.0160506
722.021	0.0159535
722.099	0.0159555
722.177	0.0158784
722.255	0.0158154
722.333	0.0155783
722.412	0.0156059
722.490	0.0153159
722.568	0.0152455
722.646	0.0148327
722.724	0.0148048
722.802	0.0145811
722.880	0.0144582
722.958	0.0143503
723.037	0.0139714
723.115	0.0140018
723.193	0.0138499
723.271	0.0134554
723.349	0.0133133
723.427	0.0132574
723.505	0.0130921
723.583	0.0128585
723.662	0.0128176
723.740	0.0127703
723.818	0.0129266
723.896	0.0128811
723.974	0.0129922
724.052	0.0131931
724.130	0.0133252
724.208	0.0135451
724.287	0.0136032
724.365	0.0137398
724.443	0.0139155
724.521	0.0140977
724.599	0.0141782
724.677	0.0142882
724.755	0.0143847
724.833	0.0144958
724.912	0.0144448
724.990	0.0141923
725.068	0.0140028
725.146	0.0138907
725.224	0.0137416
725.302	0.0136235
725.380	0.0135616
725.458	0.0136223
725.537	0.0134702
725.615	0.0136319
725.693	0.0137244
725.771	0.0137874
725.849	0.0136968
725.927	0.0140630
726.005	0.0140991
726.083	0.0142461
726.162	0.0144564
726.240	0.0145919
726.318	0.0146426
726.396	0.0148260
726.474	0.0148714
726.552	0.0150175
726.630	0.0149731
726.708	0.0151782
726.787	0.0151772
726.865	0.0153029
726.943	0.0152505
727.021	0.0154200
727.099	0.0155389
727.177	0.0154792
727.255	0.0153056
727.333	0.0154079
727.412	0.0154495
727.490	0.0155131
727.568	0.0154256
727.646	0.0153530
727.724	0.0151443
727.802	0.0151119
727.880	0.0151020
727.958	0.0150445
728.037	0.0148481
728.115	0.0146085
728.193	0.0143660
728.271	0.0143442
728.349	0.0141982
728.427	0.0139445
728.505	0.0138293
728.583	0.0136295
728.662	0.0135606
728.740	0.0133837
728.818	0.0133171
728.896	0.0133813
728.974	0.0131333
729.052	0.0132349
729.130	0.0131596
729.208	0.0132644
729.287	0.0135216
729.365	0.0133733
729.443	0.0135138
729.521	0.0134650
729.599	0.0134775
729.677	0.0136197
729.755	0.0135382
729.833	0.0137116
729.912	0.0138257
729.990	0.0140136
730.068	0.0140741
730.146	0.0140244
730.224	0.0141903
730.302	0.0143207
730.380	0.0143756
730.458	0.0144944
730.537	0.0146331
730.615	0.0147163
730.693	0.0147103
730.771	0.0145345
730.849	0.0146586
730.927	0.0147510
731.005	0.0148109
731.083	0.0145528
731.162	0.0144895
731.240	0.0144457
731.318	0.0144254
731.396	0.0142276
731.474	0.0143327
731.552	0.0142916
731.630	0.0142103
731.708	0.0142224
731.787	0.0141097
731.865	0.0141356
731.943	0.0141010
732.021	0.0141465
732.099	0.0141572
732.177	0.0141640
732.255	0.0142732
732.333	0.0141333
732.412	0.0143473
732.490	0.0143878
732.568	0.0144012
732.646	0.0145343
732.724	0.0145654
732.802	0.0147832
732.880	0.0148841
732.958	0.0148545
733.037	0.0149325
733.115	0.0149407
733.193	0.0152231
733.271	0.0150542
733.349	0.0151477
733.427	0.0151978
733.505	0.0151326
733.583	0.0150675
733.662	0.0150838
733.740	0.0150397
733.818	0.0148573
733.896	0.0148370
733.974	0.0148370
734.052	0.0145833
734.130	0.0144524
734.208	0.0143205
734.287	0.0142142
734.365	0.0141698
734.443	0.0141142
734.521	0.0142224
734.599	0.0141629
734.677	0.0139746
734.755	0.0139342
734.833	0.0141135
734.912	0.0140554
734.990	0.0138926
735.068	0.0140616
735.146	0.0139564
735.224	0.0140044
735.302	0.0141409
735.380	0.0139764
735.458	0.0140854
735.537	0.0139265
735.615	0.0140023
735.693	0.0139043
735.771	0.0139039
735.849	0.0139310
735.927	0.0137787
736.005	0.0139015
736.083	0.0137766
736.162	0.0138544
736.240	0.0139362
736.318	0.0139207
736.396	0.0140533
736.474	0.0141203
736.552	0.0141771
736.630	0.0142008
736.708	0.0141509
736.787	0.0142357
736.865	0.0143044
736.943	0.0144125
737.021	0.0143151
737.099	0.0142423
737.177	0.0142165
737.255	0.0141557
737.333	0.0141531
737.412	0.0141339
737.490	0.0141186
737.568	0.0140242
737.646	0.0141050
737.724	0.0143796
737.802	0.0142513
737.880	0.0142826
737.958	0.0143848
738.037	0.0143532
738.115	0.0145047
738.193	0.0144041
738.271	0.0145801
738.349	0.0145859
738.427	0.0146632
738.505	0.0147321
738.583	0.0147524
738.662	0.0147624
738.740	0.0146612
738.818	0.0148052
738.896	0.0147086
738.974	0.0146230
739.052	0.0147230
739.130	0.0146875
739.208	0.0146319
739.287	0.0145541
739.365	0.0146780
739.443	0.0146854
739.521	0.0146106
739.599	0.0146339
739.677	0.0146613
739.755	0.0144680
739.833	0.0143961
739.912	0.0145638
739.990	0.0144878
740.068	0.0142570
740.146	0.0142493
740.224	0.0142281
740.302	0.0142959
740.380	0.0142989
740.458	0.0142041
740.537	0.0142382
740.615	0.0141663
740.693	0.0141397
740.771	0.0140553
740.849	0.0140882
740.927	0.0139313
741.005	0.0138228
741.083	0.0139478
741.162	0.0138589
741.240	0.0137252
741.318	0.0138660
741.396	0.0138338
741.474	0.0137769
741.552	0.0137095
741.630	0.0136916
741.708	0.0137796
741.787	0.0139196
741.865	0.0137932
741.943	0.0138707
742.021	0.0139050
742.099	0.0138949
742.177	0.0137372
742.255	0.0137792
742.333	0.0140208
742.412	0.0140263
742.490	0.0138998
742.568	0.0139914
742.646	0.0140937
742.724	0.0139901
742.802	0.0141064
742.880	0.0142551
742.958	0.0141337
743.037	0.0140658
743.115	0.0141559
743.193	0.0142723
743.271	0.0141614
743.349	0.0143808
743.427	0.0143182
743.505	0.0142667
743.583	0.0143801
743.662	0.0142870
743.740	0.0144697
743.818	0.0144950
743.896	0.0144351
743.974	0.0143687
744.052	0.0144263
744.130	0.0143906
744.208	0.0143185
744.287	0.0143883
744.365	0.0144351
744.443	0.0144366
744.521	0.0142690
744.599	0.0143034
744.677	0.0142677
744.755	0.0142938
744.833	0.0142522
744.912	0.0143405
744.990	0.0143493
745.068	0.0143531
745.146	0.0144670
745.224	0.0144872
745.302	0.0142599
745.380	0.0143574
745.458	0.0144601
745.537	0.0145528
745.615	0.0146078
745.693	0.0145385
745.771	0.0145361
745.849	0.0143539
745.927	0.0144810
746.005	0.0144592
746.083	0.0143807
746.162	0.0145320
746.240	0.0144664
746.318	0.0144999
746.396	0.0143174
746.474	0.0142167
746.552	0.0143492
746.630	0.0142719
746.708	0.0141712
746.787	0.0141570
746.865	0.0141496
746.943	0.0142249
747.021	0.0140305
747.099	0.0138536
747.177	0.0138794
747.255	0.0138454
747.333	0.0138927
747.412	0.0138101
747.490	0.0137930
747.568	0.0136749
747.646	0.0137847
747.724	0.0138711
747.802	0.0139067
747.880	0.0139408
747.958	0.0138998
748.037	0.0138645
748.115	0.0139175
748.193	0.0140007
748.271	0.0141814
748.349	0.0142623
748.427	0.0141895
748.505	0.0143198
748.583	0.0143703
748.662	0.0145000
748.740	0.0144623
748.818	0.0144922
748.896	0.0144793
748.974	0.0145526
749.052	0.0143974
749.130	0.0144697
749.208	0.0144011
749.287	0.0144545
749.365	0.0145393
749.443	0.0145405
749.521	0.0144332
749.599	0.0144658
749.677	0.0144370
749.755	0.0144473
749.833	0.0144695
749.912	0.0142179
749.990	0.0143365
750.068	0.0143402
750.146	0.0142907
750.224	0.0141444
750.302	0.0142104
750.380	0.0141985
750.458	0.0141985
750.537	0.0141247
750.615	0.0142061
750.693	0.0141531
750.771	0.0142197
750.849	0.0142408
750.927	0.0142263
751.005	0.0143625
751.083	0.0142560
751.162	0.0143330
751.240	0.0143277
751.318	0.0143268
751.396	0.0143602
751.474	0.0143436
751.552	0.0144196
751.630	0.0144160
751.708	0.0143334
751.787	0.0143530
751.865	0.0144590
751.943	0.0143456
752.021	0.0143395
752.099	0.0142708
752.177	0.0143562
752.255	0.0143500
752.333	0.0143241
752.412	0.0143011
752.490	0.0142431
752.568	0.0141109
752.646	0.0143631
752.724	0.0143121
752.802	0.0141470
752.880	0.0141316
752.958	0.0142511
753.037	0.0141354
753.115	0.0142805
753.193	0.0142727
753.271	0.0142920
753.349	0.0142370
753.427	0.0143981
753.505	0.0144086
753.583	0.0145337
753.662	0.0143726
753.740	0.0143589
753.818	0.0145052
753.896	0.0145071
753.974	0.0143042
754.052	0.0143588
754.130	0.0143071
754.208	0.0143719
754.287	0.0142481
754.365	0.0143500
754.443	0.0143149
754.521	0.0141993
754.599	0.0143049
754.677	0.0142028
754.755	0.0141862
754.833	0.0140640
754.912	0.0140508
754.990	0.0141668
755.068	0.0140452
755.146	0.0139808
755.224	0.0140842
755.302	0.0140797
755.380	0.0140326
755.458	0.0141676
755.537	0.0140690
755.615	0.0142554
755.693	0.0142405
755.771	0.0141664
755.849	0.0141804
755.927	0.0143130
756.005	0.0144847
756.083	0.0144080
756.162	0.0143180
756.240	0.0142712
756.318	0.0142834
756.396	0.0142640
756.474	0.0142513
756.552	0.0142159
756.630	0.0141393
756.708	0.0141553
756.787	0.0142770
756.865	0.0143033
756.943	0.0143864
757.021	0.0142389
757.099	0.0141697
757.177	0.0143733
757.255	0.0143970
757.333	0.0144646
757.412	0.0145621
757.490	0.0144846
757.568	0.0145452
757.646	0.0145223
757.724	0.0143276
757.802	0.0144666
757.880	0.0143673
757.958	0.0143199
758.037	0.0142430
758.115	0.0142863
758.193	0.0141270
758.271	0.0141484
758.349	0.0140024
758.427	0.0140765
758.505	0.0142332
758.583	0.0142210
758.662	0.0140530
758.740	0.0142072
758.818	0.0142561
758.896	0.0143462
758.974	0.0144374
759.052	0.0144275
759.130	0.0143997
759.208	0.0145470
759.287	0.0146584
759.365	0.0144662
759.443	0.0144890
759.521	0.0146060
759.599	0.0147148
759.677	0.0145025
759.755	0.0144933
759.833	0.0144161
759.912	0.0145140
759.990	0.0144943
760.068	0.0144070
760.146	0.0142715
760.224	0.0143709
760.302	0.0144167
760.380	0.0141547
760.458	0.0143038
760.537	0.0143454
760.615	0.0140674
760.693	0.0140475
760.771	0.0139973
760.849	0.0139693
760.927	0.0139573
761.005	0.0138773
761.083	0.0138924
761.162	0.0138844
761.240	0.0138824
761.318	0.0139481
761.396	0.0140429
761.474	0.0140251
761.552	0.0141776
761.630	0.0140573
761.708	0.0141863
761.787	0.0142994
761.865	0.0143588
761.943	0.0143289
762.021	0.0143102
762.099	0.0144916
762.177	0.0143868
762.255	0.0143427
762.333	0.0144444
762.412	0.0141546
762.490	0.0143168
762.568	0.0143839
762.646	0.0142657
762.724	0.0141447
762.802	0.0141388
762.880	0.0140907
762.958	0.0140331
763.037	0.0139794
763.115	0.0139931
763.193	0.0141068
763.271	0.0141277
763.349	0.0140543
763.427	0.0140694
763.505	0.0141631
763.583	0.0142175
763.662	0.0141055
763.740	0.0141380
763.818	0.0141207
763.896	0.0141443
763.974	0.0142090
764.052	0.0140893
764.130	0.0142689
764.208	0.0141784
764.287	0.0141845
764.365	0.0142519
764.443	0.0143150
764.521	0.0142780
764.599	0.0143201
764.677	0.0142799
764.755	0.0142770
764.833	0.0143596
764.912	0.0143027
764.990	0.0143840
765.068	0.0144209
765.146	0.0144007
765.224	0.0143951
765.302	0.0143967
765.380	0.0144309
765.458	0.0144262
765.537	0.0145810
765.615	0.0145149
765.693	0.0144631
765.771	0.0144502
765.849	0.0144249
765.927	0.0143382
766.005	0.0143053
766.083	0.0143422
766.162	0.0142634
766.240	0.0141857
766.318	0.0140516
766.396	0.0141709
766.474	0.0140513
766.552	0.0140820
766.630	0.0140503
766.708	0.0140639
766.787	0.0141528
766.865	0.0139863
766.943	0.0139507
767.021	0.0141178
767.099	0.0140657
767.177	0.0140152
767.255	0.0141215
767.333	0.0140233
767.412	0.0138635
767.490	0.0139634
767.568	0.0140572
767.646	0.0139688
767.724	0.0139683
767.802	0.0139130
767.880	0.0140364
767.958	0.0140709
768.037	0.0140737
768.115	0.0140598
768.193	0.0142457
768.271	0.0142242
768.349	0.0142532
768.427	0.0143215
768.505	0.0145025
768.583	0.0141805
768.662	0.0143763
768.740	0.0143192
768.818	0.0143894
768.896	0.0143809
768.974	0.0143693
769.052	0.0144054
769.130	0.0145116
769.208	0.0143408
769.287	0.0143453
769.365	0.0142898
769.443	0.0141971
769.521	0.0141961
769.599	0.0143321
769.677	0.0143236
769.755	0.0142529
769.833	0.0143811
769.912	0.0143005
769.990	0.0142477
770.068	0.0141365
770.146	0.0141854
770.224	0.0141192
770.302	0.0142340
770.380	0.0142549
770.458	0.0142247
770.537	0.0142928
770.615	0.0141326
770.693	0.0140033
770.771	0.0142259
770.849	0.0140456
770.927	0.0139389
771.005	0.0141650
771.083	0.0142041
771.162	0.0140884
771.240	0.0140359
771.318	0.0140484
771.396	0.0139577
771.474	0.0139987
771.552	0.0138242
771.630	0.0139548
771.708	0.0138686
771.787	0.0140098
771.865	0.0141119
771.943	0.0141995
772.021	0.0142505
772.099	0.0142107
772.177	0.0142550
772.255	0.0142857
772.333	0.0142490
772.412	0.0144875
772.490	0.0143399
772.568	0.0143839
772.646	0.0144235
772.724	0.0142973
772.802	0.0143052
772.880	0.0143607
772.958	0.0143797
773.037	0.0143280
773.115	0.0142023
773.193	0.0141859
773.271	0.0142520
773.349	0.0141824
773.427	0.0141360
773.505	0.0141797
773.583	0.0142044
773.662	0.0141172
773.740	0.0141667
773.818	0.0143462
773.896	0.0143378
773.974	0.0142420
774.052	0.0142457
774.130	0.0142414
774.208	0.0143269
774.287	0.0142659
774.365	0.0142903
774.443	0.0142387
774.521	0.0144126
774.599	0.0142161
774.677	0.0142294
774.755	0.0143542
774.833	0.0142116
774.912	0.0143739
774.990	0.0143620
775.068	0.0142593
775.146	0.0142026
775.224	0.0143636
775.302	0.0143429
775.380	0.0143403
775.458	0.0142554
775.537	0.0143697
775.615	0.0142245
775.693	0.0141576
775.771	0.0142489
775.849	0.0142515
775.927	0.0143030
776.005	0.0143371
776.083	0.0143534
776.162	0.0143090
776.240	0.0142217
776.318	0.0143842
776.396	0.0144804
776.474	0.0142867
776.552	0.0145228
776.630	0.0144341
776.708	0.0145852
776.787	0.0144765
776.865	0.0144937
776.943	0.0144257
777.021	0.0144093
777.099	0.0143258
777.177	0.0143095
777.255	0.0142769
777.333	0.0141905
777.412	0.0140712
777.490	0.0140746
777.568	0.0139695
777.646	0.0140568
777.724	0.0139456
777.802	0.0140187
777.880	0.0140024
777.958	0.0138773
778.037	0.0140120
778.115	0.0141290
778.193	0.0139230
778.271	0.0140810
778.349	0.0144035
778.427	0.0142227
778.505	0.0142292
778.583	0.0144875
778.662	0.0144966
778.740	0.0144894
778.818	0.0145162
778.896	0.0145768
778.974	0.0145878
779.052	0.0145864
779.130	0.0147481
779.208	0.0147209
779.287	0.0145969
779.365	0.0146049
779.443	0.0144731
779.521	0.0145262
779.599	0.0144617
779.677	0.0144939
779.755	0.0145283
779.833	0.0144136
779.912	0.0144338
779.990	0.0143526
780.068	0.0144678
780.146	0.0145770
780.224	0.0144373
780.302	0.0143754
780.380	0.0145135
780.458	0.0145229
780.537	0.0144749
780.615	0.0145020
780.693	0.0143406
780.771	0.0144769
780.849	0.0144872
780.927	0.0143680
781.005	0.0143182
781.083	0.0143338
781.162	0.0141460
781.240	0.0141795
781.318	0.0140198
781.396	0.0139500
781.474	0.0138650
781.552	0.0138961
781.630	0.0137514
781.708	0.0138708
781.787	0.0138798
781.865	0.0139017
781.943	0.0137917
782.021	0.0139906
782.099	0.0140331
782.177	0.0140363
782.255	0.0140421
782.333	0.0141837
782.412	0.0144170
782.490	0.0143842
782.568	0.0144617
782.646	0.0145358
782.724	0.0148048
782.802	0.0146852
782.880	0.0146663
782.958	0.0147971
783.037	0.0147564
783.115	0.0148650
783.193	0.0148567
783.271	0.0149969
783.349	0.0148452
783.427	0.0149173
783.505	0.0149442
783.583	0.0148458
783.662	0.0146544
783.740	0.0146199
783.818	0.0146009
783.896	0.0144585
783.974	0.0143894
784.052	0.0143416
784.130	0.0142682
784.208	0.0141916
784.287	0.0140811
784.365	0.0139207
784.443	0.0138850
784.521	0.0137996
784.599	0.0137483
784.677	0.0137167
784.755	0.0136811
784.833	0.0136276
784.912	0.0136691
784.990	0.0135649
785.068	0.0136814
785.146	0.0135509
785.224	0.0136834
785.302	0.0137749
785.380	0.0136395
785.458	0.0135812
785.537	0.0138744
785.615	0.0137533
785.693	0.0136456
785.771	0.0137378
785.849	0.0139384
785.927	0.0139661
786.005	0.0141224
786.083	0.0141762
786.162	0.0141561
786.240	0.0142725
786.318	0.0144205
786.396	0.0145756
786.474	0.0146696
786.552	0.0147012
786.630	0.0147762
786.708	0.0148882
786.787	0.0148679
786.865	0.0147987
786.943	0.0148683
787.021	0.0149267
787.099	0.0149911
787.177	0.0149983
787.255	0.0149767
787.333	0.0150795
787.412	0.0150941
787.490	0.0148277
787.568	0.0148703
787.646	0.0148599
787.724	0.0148844
787.802	0.0147592
787.880	0.0145215
787.958	0.0145441
788.037	0.0143990
788.115	0.0143944
788.193	0.0143669
788.271	0.0142045
788.349	0.0141687
788.427	0.0140887
788.505	0.0140543
788.583	0.0139248
788.662	0.0138601
788.740	0.0140108
788.818	0.0137707
788.896	0.0137821
788.974	0.0136094
789.052	0.0135381
789.130	0.0136585
789.208	0.0136387
789.287	0.0135378
789.365	0.0135065
789.443	0.0135611
789.521	0.0135019
789.599	0.0136071
789.677	0.0136011
789.755	0.0136642
789.833	0.0138509
789.912	0.0137623
789.990	0.0137791
790.068	0.0139055
790.146	0.0139237
790.224	0.0139835
790.302	0.0139456
790.380	0.0140447
790.458	0.0142136
790.537	0.0143510
790.615	0.0142486
790.693	0.0145647
790.771	0.0146168
790.849	0.0146264
790.927	0.0147900
791.005	0.0147855
791.083	0.0148231
791.162	0.0149676
791.240	0.0151014
791.318	0.0151047
791.396	0.0151247
791.474	0.0150707
791.552	0.0152544
791.630	0.0152995
791.708	0.0152159
791.787	0.0150970
791.865	0.0149557
791.943	0.0149716
792.021	0.0150038
792.099	0.0147478
792.177	0.0146928
792.255	0.0146232
792.333	0.0146137
792.412	0.0141942
792.490	0.0140499
792.568	0.0139494
792.646	0.0139388
792.724	0.0137260
792.802	0.0135287
792.880	0.0135972
792.958	0.0134648
793.037	0.0133752
793.115	0.0132986
793.193	0.0133485
793.271	0.0132864
793.349	0.0131978
793.427	0.0131882
793.505	0.0132423
793.583	0.0133769
793.662	0.0133894
793.740	0.0135765
793.818	0.0135493
793.896	0.0139469
793.974	0.0139753
794.052	0.0141768
794.130	0.0141923
794.208	0.0143431
794.287	0.0144870
794.365	0.0145786
794.443	0.0146640
794.521	0.0148059
794.599	0.0149014
794.677	0.0149925
794.755	0.0150671
794.833	0.0151455
794.912	0.0149614
794.990	0.0150665
795.068	0.0150761
795.146	0.0149370
795.224	0.0148908
795.302	0.0147352
795.380	0.0146429
795.458	0.0145638
795.537	0.0145862
795.615	0.0145490
795.693	0.0144987
795.771	0.0143395
795.849	0.0143554
795.927	0.0143182
796.005	0.0142931
796.083	0.0144034
796.162	0.0142540
796.240	0.0140728
796.318	0.0142323
796.396	0.0141954
796.474	0.0141013
796.552	0.0141055
796.630	0.0140042
796.708	0.0140112
796.787	0.0139234
796.865	0.0139452
796.943	0.0137322
797.021	0.0138513
797.099	0.0138405
797.177	0.0138096
797.255	0.0137027
797.333	0.0137397
797.412	0.0137812
797.490	0.0137936
797.568	0.0139529
797.646	0.0139376
797.724	0.0141217
797.802	0.0140816
797.880	0.0140862
797.958	0.0142104
798.037	0.0141671
798.115	0.0141288
798.193	0.0143043
798.271	0.0142702
798.349	0.0143117
798.427	0.0142545
798.505	0.0144381
798.583	0.0143242
798.662	0.0144865
798.740	0.0145341
798.818	0.0144164
798.896	0.0144484
798.974	0.0145824
799.052	0.0144393
799.130	0.0145238
799.208	0.0145215
799.287	0.0144036
799.365	0.0145789
799.443	0.0143879
799.521	0.0143033
799.599	0.0143326
799.677	0.0144525
799.755	0.0146612
799.833	0.0145560
799.912	0.0145332
799.990	0.0145040
800.068	0.0145880
800.146	0.0145623
800.224	0.0145955
800.302	0.0146040
800.380	0.0145116
800.458	0.0147245
800.537	0.0145780
800.615	0.0145142
800.693	0.0146014
800.771	0.0144350
800.849	0.0143423
800.927	0.0143843
801.005	0.0143322
801.083	0.0143040
801.162	0.0142458
801.240	0.0142258
801.318	0.0141103
801.396	0.0140840
801.474	0.0140926
801.552	0.0140240
801.630	0.0140184
801.708	0.0140920
801.787	0.0140689
801.865	0.0140386
801.943	0.0140783
802.021	0.0141055
802.099	0.0140230
802.177	0.0139409
802.255	0.0138976
802.333	0.0139120
802.412	0.0139695
802.490	0.0139473
802.568	0.0140761
802.646	0.0140462
802.724	0.0141047
802.802	0.0142503
802.880	0.0141157
802.958	0.0144235
803.037	0.0143708
803.115	0.0143571
803.193	0.0145290
803.271	0.0145830
803.349	0.0145512
803.427	0.0145247
803.505	0.0146741
803.583	0.0144643
803.662	0.0145334
803.740	0.0146397
803.818	0.0145361
803.896	0.0145582
803.974	0.0145474
804.052	0.0143972
804.130	0.0144582
804.208	0.0144814
804.287	0.0143919
804.365	0.0145229
804.443	0.0143420
804.521	0.0142876
804.599	0.0141943
804.677	0.0143449
804.755	0.0142257
804.833	0.0141884
804.912	0.0142502
804.990	0.0142422
805.068	0.0143732
805.146	0.0142753
805.224	0.0143424
805.302	0.0144149
805.380	0.0142419
805.458	0.0142921
805.537	0.0144068
805.615	0.0142365
805.693	0.0144661
805.771	0.0144096
805.849	0.0141178
805.927	0.0142765
806.005	0.0143718
806.083	0.0143369
806.162	0.0141227
806.240	0.0141307
806.318	0.0141225
806.396	0.0141331
806.474	0.0140707
806.552	0.0140503
806.630	0.0141483
806.708	0.0141440
806.787	0.0142271
806.865	0.0141518
806.943	0.0142237
807.021	0.0140161
807.099	0.0142074
807.177	0.0142662
807.255	0.0142562
807.333	0.0143035
807.412	0.0144620
807.490	0.0143521
807.568	0.0145518
807.646	0.0144212
807.724	0.0143806
807.802	0.0144341
807.880	0.0145073
807.958	0.0144254
808.037	0.0144127
808.115	0.0145438
808.193	0.0146017
808.271	0.0145134
808.349	0.0144210
808.427	0.0144831
808.505	0.0143993
808.583	0.0145629
808.662	0.0145501
808.740	0.0143336
808.818	0.0144355
808.896	0.0144910
808.974	0.0144821
809.052	0.0144764
809.130	0.0144514
809.208	0.0144283
809.287	0.0144687
809.365	0.0144576
809.443	0.0144530
809.521	0.0144958
809.599	0.0145316
809.677	0.0145495
809.755	0.0145274
809.833	0.0145586
809.912	0.0144353
809.990	0.0142834
810.068	0.0143497
810.146	0.0143520
810.224	0.0143404
810.302	0.0141647
810.380	0.0141853
810.458	0.0142247
810.537	0.0140747
810.615	0.0139626
810.693	0.0139034
810.771	0.0138994
810.849	0.0137534
810.927	0.0138700
811.005	0.0139330
811.083	0.0138583
811.162	0.0138502
811.240	0.0138374
811.318	0.0139828
811.396	0.0140488
811.474	0.0139998
811.552	0.0140938
811.630	0.0142280
811.708	0.0142557
811.787	0.0143222
811.865	0.0143285
811.943	0.0143021
812.021	0.0144006
812.099	0.0146301
812.177	0.0145959
812.255	0.0145679
812.333	0.0146165
812.412	0.0145138
812.490	0.0146607
812.568	0.0147865
812.646	0.0147206
812.724	0.0146749
812.802	0.0146271
812.880	0.0144631
812.958	0.0144712
813.037	0.0144865
813.115	0.0143249
813.193	0.0143229
813.271	0.0143596
813.349	0.0143342
813.427	0.0144257
813.505	0.0143327
813.583	0.0143182
813.662	0.0142801
813.740	0.0142552
813.818	0.0142594
813.896	0.0142616
813.974	0.0142871
814.052	0.0143701
814.130	0.0142393
814.208	0.0143275
814.287	0.0143125
814.365	0.0141502
814.443	0.0142030
814.521	0.0140343
814.599	0.0139644
814.677	0.0142303
814.755	0.0139091
814.833	0.0140979
814.912	0.0140157
814.990	0.0139834
815.068	0.0139506
815.146	0.0140480
815.224	0.0139491
815.302	0.0140393
815.380	0.0140851
815.458	0.0141077
815.537	0.0142366
815.615	0.0142613
815.693	0.0143838
815.771	0.0143092
815.849	0.0144697
815.927	0.0144775
816.005	0.0144004
816.083	0.0144810
816.162	0.0144026
816.240	0.0144366
816.318	0.0145168
816.396	0.0145582
816.474	0.0144687
816.552	0.0142841
816.630	0.0145181
816.708	0.0143395
816.787	0.0143347
816.865	0.0143625
816.943	0.0141676
817.021	0.0141558
817.099	0.0143404
817.177	0.0141967
817.255	0.0142273
817.333	0.0143051
817.412	0.0141991
817.490	0.0142910
817.568	0.0143544
817.646	0.0142744
817.724	0.0141853
817.802	0.0142786
817.880	0.0144118
817.958	0.0142775
818.037	0.0142189
818.115	0.0143591
818.193	0.0144087
818.271	0.0143117
818.349	0.0142307
818.427	0.0143285
818.505	0.0141668
818.583	0.0142568
818.662	0.0143664
818.740	0.0142039
818.818	0.0142672
818.896	0.0140657
818.974	0.0141324
819.052	0.0142321
819.130	0.0140790
819.208	0.0142180
819.287	0.0141680
819.365	0.0141549
819.443	0.0141039
819.521	0.0142619
819.599	0.0142219
819.677	0.0142375
819.755	0.0141249
819.833	0.0141525
819.912	0.0141708
819.990	0.0142519
820.068	0.0142082
820.146	0.0141754
820.224	0.0142440
820.302	0.0142308
820.380	0.0142278
820.458	0.0144196
820.537	0.0143745
820.615	0.0143427
820.693	0.0143449
820.771	0.0144763
820.849	0.0144595
820.927	0.0144545
821.005	0.0145086
821.083	0.0144626
821.162	0.0145140
821.240	0.0145451
821.318	0.0143690
821.396	0.0144679
821.474	0.0144961
821.552	0.0143915
821.630	0.0144792
821.708	0.0144115
821.787	0.0143308
821.865	0.0143304
821.943	0.0142830
822.021	0.0142827
822.099	0.0141709
822.177	0.0141024
822.255	0.0142233
822.333	0.0141048
822.412	0.0139839
822.490	0.0140176
822.568	0.0138589
822.646	0.0139155
822.724	0.0139007
822.802	0.0138727
822.880	0.0137746
822.958	0.0138599
823.037	0.0140585
823.115	0.0140752
823.193	0.0139262
823.271	0.0138474
823.349	0.0140600
823.427	0.0139805
823.505	0.0141475
823.583	0.0140734
823.662	0.0142150
823.740	0.0143282
823.818	0.0143250
823.896	0.0145659
823.974	0.0145891
824.052	0.0146387
824.130	0.0146835
824.208	0.0146300
824.287	0.0147210
824.365	0.0147946
824.443	0.0145974
824.521	0.0147738
824.599	0.0146308
824.677	0.0146223
824.755	0.0145633
824.833	0.0146349
824.912	0.0147497
824.990	0.0146577
825.068	0.0145992
825.146	0.0144590
825.224	0.0143237
825.302	0.0145084
825.380	0.0144551
825.458	0.0144121
825.537	0.0144323
825.615	0.0144067
825.693	0.0142485
825.771	0.0142023
825.849	0.0142535
825.927	0.0141666
826.005	0.0141167
826.083	0.0141072
826.162	0.0140955
826.240	0.0141280
826.318	0.0139222
826.396	0.0140244
826.474	0.0140250
826.552	0.0139479
826.630	0.0141328
826.708	0.0140988
826.787	0.0141774
826.865	0.0140256
826.943	0.0141418
827.021	0.0140791
827.099	0.0140591
827.177	0.0140569
827.255	0.0141785
827.333	0.0141750
827.412	0.0142834
827.490	0.0142641
827.568	0.0141924
827.646	0.0143651
827.724	0.0145028
827.802	0.0143967
827.880	0.0143617
827.958	0.0142979
828.037	0.0145280
828.115	0.0144704
828.193	0.0144474
828.271	0.0145750
828.349	0.0144996
828.427	0.0144849
828.505	0.0144178
828.583	0.0144083
828.662	0.0143362
828.740	0.0144968
828.818	0.0144043
828.896	0.0141370
828.974	0.0142783
829.052	0.0142373
829.130	0.0143107
829.208	0.0141764
829.287	0.0140781
829.365	0.0143367
829.443	0.0143491
829.521	0.0143021
829.599	0.0143888
829.677	0.0142690
829.755	0.0143275
829.833	0.0143098
829.912	0.0143430
829.990	0.0143542
830.068	0.0143481
830.146	0.0143575
830.224	0.0143636
830.302	0.0145287
830.380	0.0143990
830.458	0.0144772
830.537	0.0143379
830.615	0.0144037
830.693	0.0144984
830.771	0.0143971
830.849	0.0142567
830.927	0.0143851
831.005	0.0141354
831.083	0.0142093
831.162	0.0142641
831.240	0.0142551
831.318	0.0141840
831.396	0.0143082
831.474	0.0141859
831.552	0.0141882
831.630	0.0141294
831.708	0.0141709
831.787	0.0143325
831.865	0.0142444
831.943	0.0143345
832.021	0.0143697
832.099	0.0143173
832.177	0.0142378
832.255	0.0143742
832.333	0.0143971
832.412	0.0142770
832.490	0.0142417
832.568	0.0142930
832.646	0.0142120
832.724	0.0142863
832.802	0.0143043
832.880	0.0141656
832.958	0.0141827
833.037	0.0141501
833.115	0.0139915
833.193	0.0142112
833.271	0.0141525
833.349	0.0141955
833.427	0.0139477
833.505	0.0140247
833.583	0.0139932
833.662	0.0141610
833.740	0.0141767
833.818	0.0140355
833.896	0.0139084
833.974	0.0139143
834.052	0.0141356
834.130	0.0140828
834.208	0.0139910
834.287	0.0140615
834.365	0.0140715
834.443	0.0139942
834.521	0.0140646
834.599	0.0140842
834.677	0.0139663
834.755	0.0141979
834.833	0.0142152
834.912	0.0141586
834.990	0.0142715
835.068	0.0142018
835.146	0.0142858
835.224	0.0142720
835.302	0.0141885
835.380	0.0142902
835.458	0.0144979
835.537	0.0145419
835.615	0.0145046
835.693	0.0143895
835.771	0.0145608
835.849	0.0145592
835.927	0.0145478
836.005	0.0144922
836.083	0.0144685
836.162	0.0144984
836.240	0.0145468
836.318	0.0145921
836.396	0.0146512
836.474	0.0145341
836.552	0.0145846
836.630	0.0145436
836.708	0.0145036
836.787	0.0144826
836.865	0.0144132
836.943	0.0143461
837.021	0.0142621
837.099	0.0143217
837.177	0.0143781
837.255	0.0143015
837.333	0.0141574
837.412	0.0143108
837.490	0.0141834
837.568	0.0140343
837.646	0.0141550
837.724	0.0142307
837.802	0.0141717
837.880	0.0140102
837.958	0.0142467
838.037	0.0141028
838.115	0.0142725
838.193	0.0140759
838.271	0.0139989
838.349	0.0141092
838.427	0.0141296
838.505	0.0139916
838.583	0.0140121
838.662	0.0139920
838.740	0.0140246
838.818	0.0141171
838.896	0.0139908
838.974	0.0141627
839.052	0.0139782
839.130	0.0140073
839.208	0.0140863
839.287	0.0142570
839.365	0.0140866
839.443	0.0140729
839.521	0.0140682
839.599	0.0141119
839.677	0.0141100
839.755	0.0141798
839.833	0.0142725
839.912	0.0142796
839.990	0.0144193
840.068	0.0143232
840.146	0.0142689
840.224	0.0144093
840.302	0.0144204
840.380	0.0144063
840.458	0.0144173
840.537	0.0145026
840.615	0.0144458
840.693	0.0145399
840.771	0.0144221
840.849	0.0146058
840.927	0.0146094
841.005	0.0144101
841.083	0.0144341
841.162	0.0146065
841.240	0.0144311
841.318	0.0143984
841.396	0.0144896
841.474	0.0143900
841.552	0.0143441
841.630	0.0143656
841.708	0.0143806
841.787	0.0143283
841.865	0.0142415
841.943	0.0142292
842.021	0.0142882
842.099	0.0142702
842.177	0.0142850
842.255	0.0143096
842.333	0.0143517
842.412	0.0142648
842.490	0.0144170
842.568	0.0143393
842.646	0.0142128
842.724	0.0143102
842.802	0.0143590
842.880	0.0141594
842.958	0.0141963
843.037	0.0143647
843.115	0.0143699
843.193	0.0142788
843.271	0.0141930
843.349	0.0141908
843.427	0.0142365
843.505	0.0141785
843.583	0.0141203
843.662	0.0142667
843.740	0.0141019
843.818	0.0141785
843.896	0.0141307
843.974	0.0141214
844.052	0.0141433
844.130	0.0141671
844.208	0.0140785
844.287	0.0142952
844.365	0.0143051
844.443	0.0142551
844.521	0.0142092
844.599	0.0143095
844.677	0.0142094
844.755	0.0140323
844.833	0.0141902
844.912	0.0142339
844.990	0.0142714
845.068	0.0142754
845.146	0.0141267
845.224	0.0141073
845.302	0.0141093
845.380	0.0141230
845.458	0.0141727
845.537	0.0142297
845.615	0.0141525
845.693	0.0141933
845.771	0.0140697
845.849	0.0139870
845.927	0.0141521
846.005	0.0143061
846.083	0.0141865
846.162	0.0142241
846.240	0.0142859
846.318	0.0142790
846.396	0.0142382
846.474	0.0143267
846.552	0.0142886
846.630	0.0143370
846.708	0.0142985
846.787	0.0143024
846.865	0.0143490
846.943	0.0143262
847.021	0.0144942
847.099	0.0142578
847.177	0.0142331
847.255	0.0142961
847.333	0.0142376
847.412	0.0142654
847.490	0.0143185
847.568	0.0142336
847.646	0.0141013
847.724	0.0143266
847.802	0.0141434
847.880	0.0141043
847.958	0.0141518
848.037	0.0142339
848.115	0.0141274
848.193	0.0140942
848.271	0.0141570
848.349	0.0144254
848.427	0.0142738
848.505	0.0141151
848.583	0.0141961
848.662	0.0143235
848.740	0.0144212
848.818	0.0142320
848.896	0.0142486
848.974	0.0141872
849.052	0.0141962
849.130	0.0143009
849.208	0.0142896
849.287	0.0142451
849.365	0.0143269
849.443	0.0141261
849.521	0.0142822
849.599	0.0142194
849.677	0.0141757
849.755	0.0143206
849.833	0.0141999
849.912	0.0143571
849.990	0.0141947
850.068	0.0141853
850.146	0.0142455
850.224	0.0142812
850.302	0.0142120
850.380	0.0141868
850.458	0.0143448
850.537	0.0140809
850.615	0.0141359
850.693	0.0142302
850.771	0.0140593
850.849	0.0141007
850.927	0.0141123
851.005	0.0139881
851.083	0.0140507
851.162	0.0141097
851.240	0.0140694
851.318	0.0140990
851.396	0.0140761
851.474	0.0141476
851.552	0.0139968
851.630	0.0141049
851.708	0.0143496
851.787	0.0142456
851.865	0.0143565
851.943	0.0142522
852.021	0.0142265
852.099	0.0143546
852.177	0.0144846
852.255	0.0142982
852.333	0.0144932
852.412	0.0142714
852.490	0.0143533
852.568	0.0143208
852.646	0.0143054
852.724	0.0144427
852.802	0.0144362
852.880	0.0143560
852.958	0.0142176
853.037	0.0141896
853.115	0.0142512
853.193	0.0142020
853.271	0.0142491
853.349	0.0141312
853.427	0.0143729
853.505	0.0142149
853.583	0.0141233
853.662	0.0142109
853.740	0.0142166
853.818	0.0143530
853.896	0.0142128
853.974	0.0141955
854.052	0.0142025
854.130	0.0143149
854.208	0.0143152
854.287	0.0141982
854.365	0.0141710
854.443	0.0142995
854.521	0.0141747
854.599	0.0141937
854.677	0.0141219
854.755	0.0143095
854.833	0.0143192
854.912	0.0142439
854.990	0.0142264
855.068	0.0141669
855.146	0.0141297
855.224	0.0142197
855.302	0.0141550
855.380	0.0141034
855.458	0.0142135
855.537	0.0141879
855.615	0.0142107
855.693	0.0142175
855.771	0.0142344
855.849	0.0141847
855.927	0.0141161
856.005	0.0143200
856.083	0.0144554
856.162	0.0143502
856.240	0.0142648
856.318	0.0144579
856.396	0.0143607
856.474	0.0145051
856.552	0.0144482
856.630	0.0143505
856.708	0.0143321
856.787	0.0145353
856.865	0.0143240
856.943	0.0143584
857.021	0.0143788
857.099	0.0143069
857.177	0.0143059
857.255	0.0142352
857.333	0.0143540
857.412	0.0142763
857.490	0.0143317
857.568	0.0142207
857.646	0.0142437
857.724	0.0142154
857.802	0.0142085
857.880	0.0142278
857.958	0.0142744
858.037	0.0142081
858.115	0.0140902
858.193	0.0140428
858.271	0.0140468
858.349	0.0141471
858.427	0.0142113
858.505	0.0142192
858.583	0.0141618
858.662	0.0141706
858.740	0.0142391
858.818	0.0141954
858.896	0.0141458
858.974	0.0140847
859.052	0.0141984
859.130	0.0142326
859.208	0.0142198
859.287	0.0141452
859.365	0.0142499
859.443	0.0143003
859.521	0.0143041
859.599	0.0143050
859.677	0.0143497
859.755	0.0142925
859.833	0.0142760
859.912	0.0142297
859.990	0.0141944
860.068	0.0142114
860.146	0.0141693
860.224	0.0142927
860.302	0.0143193
860.380	0.0141801
860.458	0.0141595
860.537	0.0142502
860.615	0.0142931
860.693	0.0143093
860.771	0.0141376
860.849	0.0142661
860.927	0.0142715
861.005	0.0143296
861.083	0.0143332
861.162	0.0142931
861.240	0.0143879
861.318	0.0144908
861.396	0.0144309
861.474	0.0145116
861.552	0.0144196
861.630	0.0144100
861.708	0.0145757
861.787	0.0144029
861.865	0.0144769
861.943	0.0144695
862.021	0.0141676
862.099	0.0143433
862.177	0.0142597
862.255	0.0143102
862.333	0.0140210
862.412	0.0140897
862.490	0.0141257
862.568	0.0142396
862.646	0.0139685
862.724	0.0140127
862.802	0.0140840
862.880	0.0140681
862.958	0.0142455
863.037	0.0139933
863.115	0.0139264
863.193	0.0139954
863.271	0.0141597
863.349	0.0142036
863.427	0.0141499
863.505	0.0140701
863.583	0.0141367
863.662	0.0142027
863.740	0.0142184
863.818	0.0143483
863.896	0.0141476
863.974	0.0141408
864.052	0.0141773
864.130	0.0142847
864.208	0.0142392
864.287	0.0141241
864.365	0.0144040
864.443	0.0144482
864.521	0.0142306
864.599	0.0143064
864.677	0.0144576
864.755	0.0145337
864.833	0.0144667
864.912	0.0146410
864.990	0.0145594
865.068	0.0145338
865.146	0.0145440
865.224	0.0145244
865.302	0.0145911
865.380	0.0144223
865.458	0.0144138
865.537	0.0144195
865.615	0.0145159
865.693	0.0143682
865.771	0.0142891
865.849	0.0143208
865.927	0.0142305
866.005	0.0143251
866.083	0.0142932
866.162	0.0141578
866.240	0.0141444
866.318	0.0141781
866.396	0.0140856
866.474	0.0140971
866.552	0.0141782
866.630	0.0141730
866.708	0.0142165
866.787	0.0142054
866.865	0.0141776
866.943	0.0141692
867.021	0.0141779
867.099	0.0141375
867.177	0.0141654
867.255	0.0142258
867.333	0.0141752
867.412	0.0140622
867.490	0.0140531
867.568	0.0141305
867.646	0.0143384
867.724	0.0140791
867.802	0.0141774
867.880	0.0143462
867.958	0.0142309
868.037	0.0142594
868.115	0.0143147
868.193	0.0142090
868.271	0.0141991
868.349	0.0142046
868.427	0.0142374
868.505	0.0142821
868.583	0.0143142
868.662	0.0141878
868.740	0.0142026
868.818	0.0141139
868.896	0.0144319
868.974	0.0143635
869.052	0.0143307
869.130	0.0143459
869.208	0.0144030
869.287	0.0142556
869.365	0.0142171
869.443	0.0145435
869.521	0.0144512
869.599	0.0143654
869.677	0.0144133
869.755	0.0143355
869.833	0.0144335
869.912	0.0142672
869.990	0.0142313
870.068	0.0142512
870.146	0.0142400
870.224	0.0140915
870.302	0.0142145
870.380	0.0141837
870.458	0.0141311
870.537	0.0141824
870.615	0.0141873
870.693	0.0143745
870.771	0.0143866
870.849	0.0142633
870.927	0.0144192
871.005	0.0144060
871.083	0.0143975
871.162	0.0143933
871.240	0.0144637
871.318	0.0143655
871.396	0.0144128
871.474	0.0144219
871.552	0.0144421
871.630	0.0143366
871.708	0.0144196
871.787	0.0142096
871.865	0.0141579
871.943	0.0142619
872.021	0.0142486
872.099	0.0142324
872.177	0.0142238
872.255	0.0142736
872.333	0.0142661
872.412	0.0141276
872.490	0.0142847
872.568	0.0142390
872.646	0.0142786
872.724	0.0141193
872.802	0.0141814
872.880	0.0141680
872.958	0.0142204
873.037	0.0142242
873.115	0.0141045
873.193	0.0141727
873.271	0.0141457
873.349	0.0143120
873.427	0.0141834
873.505	0.0141062
873.583	0.0140895
873.662	0.0143983
873.740	0.0144060
873.818	0.0144473
873.896	0.0145226
873.974	0.0144750
874.052	0.0145615
874.130	0.0146524
874.208	0.0145715
874.287	0.0146465
874.365	0.0147578
874.443	0.0146923
874.521	0.0145524
874.599	0.0146503
874.677	0.0146170
874.755	0.0145607
874.833	0.0145543
874.912	0.0144698
874.990	0.0144939
875.068	0.0144152
875.146	0.0141869
875.224	0.0142225
875.302	0.0141370
875.380	0.0141012
875.458	0.0143268
875.537	0.0142593
875.615	0.0140861
875.693	0.0140927
875.771	0.0141608
875.849	0.0142595
875.927	0.0140639
876.005	0.0139482
876.083	0.0141252
876.162	0.0139839
876.240	0.0138591
876.318	0.0139458
876.396	0.0141021
876.474	0.0142071
876.552	0.0139720
876.630	0.0140629
876.708	0.0142439
876.787	0.0142581
876.865	0.0143517
876.943	0.0142860
877.021	0.0144279
877.099	0.0146182
877.177	0.0145335
877.255	0.0144865
877.333	0.0146535
877.412	0.0147014
877.490	0.0145599
877.568	0.0146623
877.646	0.0148478
877.724	0.0146780
877.802	0.0147476
877.880	0.0148137
877.958	0.0147388
878.037	0.0146752
878.115	0.0147568
878.193	0.0146413
878.271	0.0146031
878.349	0.0146319
878.427	0.0146245
878.505	0.0145454
878.583	0.0145945
878.662	0.0142865
878.740	0.0143780
878.818	0.0142802
878.896	0.0142468
878.974	0.0141461
879.052	0.0141395
879.130	0.0139495
879.208	0.0140340
879.287	0.0139626
879.365	0.0140629
879.443	0.0138558
879.521	0.0138129
879.599	0.0138390
879.677	0.0139474
879.755	0.0138531
879.833	0.0136739
879.912	0.0137488
879.990	0.0137579
880.068	0.0138838
880.146	0.0138297
880.224	0.0139009
880.302	0.0140128
880.380	0.0138824
880.458	0.0140264
880.537	0.0141337
880.615	0.0143600
880.693	0.0142236
880.771	0.0144595
880.849	0.0146940
880.927	0.0145301
881.005	0.0145467
881.083	0.0145192
881.162	0.0145587
881.240	0.0146255
881.318	0.0145518
881.396	0.0146329
881.474	0.0143952
881.552	0.0143913
881.630	0.0144105
881.708	0.0143581
881.787	0.0142528
881.865	0.0142709
881.943	0.0141785
882.021	0.0143466
882.099	0.0142023
882.177	0.0143412
882.255	0.0144028
882.333	0.0143515
882.412	0.0144977
882.490	0.0145489
882.568	0.0145837
882.646	0.0146481
882.724	0.0146779
882.802	0.0145262
882.880	0.0146021
882.958	0.0146581
883.037	0.0145055
883.115	0.0144983
883.193	0.0145206
883.271	0.0144892
883.349	0.0143275
883.427	0.0141486
883.505	0.0140022
883.583	0.0138580
883.662	0.0138938
883.740	0.0138166
883.818	0.0137559
883.896	0.0136075
883.974	0.0134558
884.052	0.0133944
884.130	0.0133371
884.208	0.0133636
884.287	0.0134445
884.365	0.0135101
884.443	0.0134536
884.521	0.0135844
884.599	0.0136521
884.677	0.0138375
884.755	0.0139590
884.833	0.0140462
884.912	0.0142425
884.990	0.0143217
885.068	0.0145609
885.146	0.0146505
885.224	0.0147576
885.302	0.0148734
885.380	0.0150298
885.458	0.0150298
885.537	0.0149222
885.615	0.0149214
885.693	0.0151126
885.771	0.0149538
885.849	0.0148772
885.927	0.0148032
886.005	0.0147903
886.083	0.0147446
886.162	0.0147076
886.240	0.0145724
886.318	0.0146642
886.396	0.0146393
886.474	0.0146187
886.552	0.0146078
886.630	0.0144762
886.708	0.0145260
886.787	0.0144910
886.865	0.0144242
886.943	0.0143513
887.021	0.0142761
887.099	0.0140478
887.177	0.0140273
887.255	0.0138493
887.333	0.0138481
887.412	0.0138699
887.490	0.0137257
887.568	0.0136922
887.646	0.0135499
887.724	0.0134754
887.802	0.0135413
887.880	0.0136405
887.958	0.0136092
888.037	0.0134859
888.115	0.0134930
888.193	0.0136111
888.271	0.0136776
888.349	0.0137612
888.427	0.0139585
888.505	0.0140839
888.583	0.0139753
888.662	0.0142841
888.740	0.0143497
888.818	0.0145488
888.896	0.0145956
888.974	0.0146694
889.052	0.0147649
889.130	0.0149360
889.208	0.0149848
889.287	0.0147710
889.365	0.0148161
889.443	0.0149342
889.521	0.0146894
889.599	0.0147462
889.677	0.0145865
889.755	0.0145753
889.833	0.0144724
889.912	0.0143916
889.990	0.0143420
890.068	0.0142861
890.146	0.0143171
890.224	0.0143406
890.302	0.0142528
890.380	0.0144606
890.458	0.0143871
890.537	0.0145200
890.615	0.0144580
890.693	0.0145898
890.771	0.0145657
890.849	0.0144733
890.927	0.0144778
891.005	0.0144458
891.083	0.0144807
891.162	0.0144308
891.240	0.0144067
891.318	0.0143079
891.396	0.0144136
891.474	0.0142521
891.552	0.0142543
891.630	0.0142842
891.708	0.0142154
891.787	0.0141151
891.865	0.0141253
891.943	0.0139582
892.021	0.0140561
892.099	0.0140658
892.177	0.0140488
892.255	0.0139951
892.333	0.0139977
892.412	0.0139892
892.490	0.0139653
892.568	0.0140818
892.646	0.0140348
892.724	0.0140848
892.802	0.0141734
892.880	0.0141482
892.958	0.0142046
893.037	0.0144092
893.115	0.0145532
893.193	0.0146497
893.271	0.0145576
893.349	0.0146320
893.427	0.0147122
893.505	0.0147946
893.583	0.0148352
893.662	0.0147466
893.740	0.0147999
893.818	0.0148135
893.896	0.0146822
893.974	0.0145763
894.052	0.0145655
894.130	0.0144989
894.208	0.0144376
894.287	0.0143267
894.365	0.0141846
894.443	0.0142848
894.521	0.0141174
894.599	0.0142451
894.677	0.0142546
894.755	0.0140868
894.833	0.0142593
894.912	0.0143059
894.990	0.0143833
895.068	0.0141994
895.146	0.0143827
895.224	0.0144228
895.302	0.0143262
895.380	0.0143503
895.458	0.0143134
895.537	0.0143885
895.615	0.0145107
895.693	0.0142852
895.771	0.0143703
895.849	0.0143919
895.927	0.0144462
896.005	0.0143799
896.083	0.0144889
896.162	0.0143524
896.240	0.0143168
896.318	0.0142728
896.396	0.0142036
896.474	0.0142157
896.552	0.0143068
896.630	0.0141620
896.708	0.0142352
896.787	0.0142896
896.865	0.0141344
896.943	0.0142094
897.021	0.0141427
897.099	0.0142276
897.177	0.0142424
897.255	0.0142368
897.333	0.0141008
897.412	0.0141734
897.490	0.0142356
897.568	0.0142053
897.646	0.0142535
897.724	0.0143930
897.802	0.0141852
897.880	0.0142695
897.958	0.0142953
898.037	0.0142710
898.115	0.0142440
898.193	0.0142564
898.271	0.0143031
898.349	0.0142855
898.427	0.0142793
898.505	0.0142274
898.583	0.0143264
898.662	0.0142973
898.740	0.0143165
898.818	0.0143331
898.896	0.0143992
898.974	0.0143547
899.052	0.0145473
899.130	0.0144270
899.208	0.0144613
899.287	0.0145448
899.365	0.0143998
899.443	0.0144877
899.521	0.0145741
899.599	0.0143830
899.677	0.0143935
899.755	0.0143813
899.833	0.0144784
899.912	0.0143591
899.990	0.0144174
900.068	0.0141978
900.146	0.0141950
900.224	0.0142849
900.302	0.0142576
900.380	0.0141598
900.458	0.0141116
900.537	0.0143265
900.615	0.0142455
900.693	0.0140887
900.771	0.0141157
900.849	0.0140504
900.927	0.0141731
901.005	0.0140408
901.083	0.0140229
901.162	0.0139919
901.240	0.0140627
901.318	0.0139718
901.396	0.0140856
901.474	0.0142151
901.552	0.0141316
901.630	0.0141730
901.708	0.0142496
901.787	0.0140240
901.865	0.0142461
901.943	0.0143705
902.021	0.0143120
902.099	0.0143462
902.177	0.0142657
902.255	0.0143962
902.333	0.0143010
902.412	0.0144202
902.490	0.0143641
902.568	0.0143604
902.646	0.0142923
902.724	0.0142052
902.802	0.0142677
902.880	0.0143539
902.958	0.0141946
903.037	0.0143095
903.115	0.0142825
903.193	0.0142998
903.271	0.0142695
903.349	0.0141534
903.427	0.0142136
903.505	0.0143137
903.583	0.0141616
903.662	0.0142438
903.740	0.0143385
903.818	0.0142901
903.896	0.0143982
903.974	0.0143715
904.052	0.0143989
904.130	0.0144027
904.208	0.0144096
904.287	0.0145967
904.365	0.0144987
904.443	0.0142657
904.521	0.0143982
904.599	0.0143917
904.677	0.0142841
904.755	0.0142982
904.833	0.0144254
904.912	0.0143935
904.990	0.0143301
905.068	0.0144131
905.146	0.0143683
905.224	0.0143223
905.302	0.0142309
905.380	0.0142751
905.458	0.0142878
905.537	0.0142162
905.615	0.0142491
905.693	0.0142800
905.771	0.0142838
905.849	0.0143156
905.927	0.0143263
906.005	0.0142574
906.083	0.0142245
906.162	0.0142001
906.240	0.0143202
906.318	0.0144469
906.396	0.0144244
906.474	0.0142975
906.552	0.0143268
906.630	0.0143056
906.708	0.0143167
906.787	0.0144003
906.865	0.0144476
906.943	0.0144759
907.021	0.0144918
907.099	0.0145438
907.177	0.0145283
907.255	0.0145372
907.333	0.0144685
907.412	0.0145412
907.490	0.0144927
907.568	0.0143742
907.646	0.0145021
907.724	0.0144875
907.802	0.0142271
907.880	0.0142953
907.958	0.0142935
908.037	0.0142646
908.115	0.0141613
908.193	0.0142037
908.271	0.0142860
908.349	0.0142130
908.427	0.0141128
908.505	0.0142204
908.583	0.0141116
908.662	0.0140205
908.740	0.0142194
908.818	0.0140582
908.896	0.0142249
908.974	0.0142585
909.052	0.0141486
909.130	0.0140456
909.208	0.0140285
909.287	0.0141573
909.365	0.0142157
909.443	0.0141684
909.521	0.0143074
909.599	0.0143300
909.677	0.0142532
909.755	0.0143917
909.833	0.0142521
909.912	0.0143137
909.990	0.0144090
910.068	0.0145417
910.146	0.0143131
910.224	0.0142873
910.302	0.0143011
910.380	0.0143926
910.458	0.0142949
910.537	0.0144426
910.615	0.0143767
910.693	0.0143178
910.771	0.0144627
910.849	0.0143597
910.927	0.0142442
911.005	0.0142508
911.083	0.0144201
911.162	0.0142933
911.240	0.0142215
911.318	0.0141631
911.396	0.0141877
911.474	0.0142236
911.552	0.0143681
911.630	0.0141895
911.708	0.0140267
911.787	0.0140784
911.865	0.0141804
911.943	0.0142604
912.021	0.0140759
912.099	0.0139737
912.177	0.0140875
912.255	0.0141415
912.333	0.0140405
912.412	0.0141752
912.490	0.0142287
912.568	0.0144016
912.646	0.0143113
912.724	0.0141316
912.802	0.0142678
912.880	0.0143481
912.958	0.0143784
913.037	0.0141943
913.115	0.0142136
913.193	0.0143798
913.271	0.0144623
913.349	0.0144319
913.427	0.0143671
913.505	0.0144898
913.583	0.0144268
913.662	0.0143913
913.740	0.0144162
913.818	0.0145150
913.896	0.0144313
913.974	0.0143494
914.052	0.0143874
914.130	0.0143343
914.208	0.0144310
914.287	0.0143243
914.365	0.0142519
914.443	0.0143066
914.521	0.0141990
914.599	0.0142357
914.677	0.0141658
914.755	0.0142636
914.833	0.0142104
914.912	0.0141338
914.990	0.0140958
915.068	0.0142342
915.146	0.0141595
915.224	0.0143018
915.302	0.0142774
915.380	0.0141481
915.458	0.0141566
915.537	0.0141840
915.615	0.0141888
915.693	0.0140761
915.771	0.0142775
915.849	0.0143069
915.927	0.0143189
916.005	0.0143586
916.083	0.0143644
916.162	0.0144383
916.240	0.0144408
916.318	0.0143013
916.396	0.0143518
916.474	0.0142553
916.552	0.0143221
916.630	0.0143437
916.708	0.0143616
916.787	0.0144379
916.865	0.0144577
916.943	0.0143646
917.021	0.0143645
917.099	0.0144246
917.177	0.0144332
917.255	0.0143504
917.333	0.0144379
917.412	0.0144627
917.490	0.0144108
917.568	0.0144933
917.646	0.0145346
917.724	0.0145490
917.802	0.0145789
917.880	0.0145991
917.958	0.0147111
918.037	0.0145316
918.115	0.0146452
918.193	0.0144595
918.271	0.0145245
918.349	0.0145209
918.427	0.0146858
918.505	0.0146034
918.583	0.0144315
918.662	0.0144798
918.740	0.0145422
918.818	0.0142228
918.896	0.0143488
918.974	0.0142940
919.052	0.0142027
919.130	0.0142202
919.208	0.0141152
919.287	0.0141910
919.365	0.0140121
919.443	0.0139762
919.521	0.0139787
919.599	0.0138708
919.677	0.0138813
919.755	0.0140487
919.833	0.0139924
919.912	0.0139223
919.990	0.0138934
920.068	0.0138165
920.146	0.0140439
920.224	0.0139307
920.302	0.0139990
920.380	0.0139735
920.458	0.0140605
920.537	0.0140591
920.615	0.0142006
920.693	0.0141403
920.771	0.0140742
920.849	0.0140980
920.927	0.0143078
921.005	0.0143019
921.083	0.0141831
921.162	0.0144877
921.240	0.0143819
921.318	0.0144089
921.396	0.0144171
921.474	0.0145158
921.552	0.0144684
921.630	0.0144498
921.708	0.0144518
921.787	0.0144617
921.865	0.0144368
921.943	0.0144431
922.021	0.0143229
922.099	0.0143881
922.177	0.0143132
922.255	0.0142017
922.333	0.0142303
922.412	0.0142239
922.490	0.0140696
922.568	0.0141208
922.646	0.0142095
922.724	0.0140632
922.802	0.0140739
922.880	0.0140949
922.958	0.0139810
923.037	0.0140824
923.115	0.0140516
923.193	0.0140562
923.271	0.0141210
923.349	0.0141090
923.427	0.0141750
923.505	0.0141962
923.583	0.0141653
923.662	0.0141740
923.740	0.0143714
923.818	0.0143295
923.896	0.0144062
923.974	0.0143365
924.052	0.0144079
924.130	0.0144234
924.208	0.0144058
924.287	0.0143370
924.365	0.0143732
924.443	0.0144647
924.521	0.0145267
924.599	0.0144394
924.677	0.0143649
924.755	0.0143436
924.833	0.0142686
924.912	0.0144019
924.990	0.0143918
925.068	0.0142095
925.146	0.0143604
925.224	0.0143713
925.302	0.0142976
925.380	0.0142286
925.458	0.0142932
925.537	0.0143523
925.615	0.0142731
925.693	0.0141924
925.771	0.0143867
925.849	0.0141624
925.927	0.0141338
926.005	0.0141744
926.083	0.0140809
926.162	0.0139708
926.240	0.0141148
926.318	0.0140365
926.396	0.0140028
926.474	0.0139481
926.552	0.0140647
926.630	0.0138725
926.708	0.0137561
926.787	0.0139070
926.865	0.0140054
926.943	0.0140337
927.021	0.0140612
927.099	0.0140413
927.177	0.0140524
927.255	0.0141772
927.333	0.0141735
927.412	0.0141663
927.490	0.0141656
927.568	0.0141676
927.646	0.0141250
927.724	0.0143185
927.802	0.0143436
927.880	0.0143587
927.958	0.0143932
928.037	0.0144038
928.115	0.0145558
928.193	0.0144900
928.271	0.0143879
928.349	0.0143937
928.427	0.0144502
928.505	0.0143992
928.583	0.0143446
928.662	0.0143375
928.740	0.0143564
928.818	0.0145434
928.896	0.0145634
928.974	0.0143758
929.052	0.0144422
929.130	0.0144546
929.208	0.0145930
929.287	0.0147511
929.365	0.0146587
929.443	0.0145020
929.521	0.0143826
929.599	0.0146477
929.677	0.0144980
929.755	0.0145251
929.833	0.0144102
929.912	0.0143631
929.990	0.0143940
930.068	0.0143245
930.146	0.0141829
930.224	0.0142471
930.302	0.0142723
930.380	0.0141913
930.458	0.0139995
930.537	0.0139152
930.615	0.0139391
930.693	0.0141582
930.771	0.0138371
930.849	0.0139268
930.927	0.0139161
931.005	0.0137822
931.083	0.0140118
931.162	0.0138835
931.240	0.0138168
931.318	0.0140168
931.396	0.0139384
931.474	0.0140681
931.552	0.0141001
931.630	0.0141264
931.708	0.0141055
931.787	0.0141531
931.865	0.0142535
931.943	0.0143433
932.021	0.0143544
932.099	0.0142717
932.177	0.0144115
932.255	0.0144257
932.333	0.0144682
932.412	0.0144701
932.490	0.0144735
932.568	0.0144276
932.646	0.0143657
932.724	0.0144540
932.802	0.0145288
932.880	0.0144212
932.958	0.0145406
933.037	0.0144974
933.115	0.0145205
933.193	0.0144534
933.271	0.0145046
933.349	0.0146683
933.427	0.0145272
933.505	0.0144079
933.583	0.0144953
933.662	0.0144843
933.740	0.0143090
933.818	0.0142503
933.896	0.0143212
933.974	0.0142116
934.052	0.0142815
934.130	0.0143133
934.208	0.0141381
934.287	0.0140524
934.365	0.0142068
934.443	0.0141925
934.521	0.0140823
934.599	0.0140215
934.677	0.0140703
934.755	0.0140643
934.833	0.0140459
934.912	0.0140179
934.990	0.0141181
935.068	0.0140915
935.146	0.0141853
935.224	0.0142583
935.302	0.0142488
935.380	0.0143243
935.458	0.0144549
935.537	0.0143068
935.615	0.0144955
935.693	0.0143459
935.771	0.0145547
935.849	0.0145058
935.927	0.0144161
936.005	0.0143819
936.083	0.0143167
936.162	0.0143150
936.240	0.0143484
936.318	0.0143196
936.396	0.0143187
936.474	0.0143643
936.552	0.0141708
936.630	0.0143226
936.708	0.0142658
936.787	0.0142179
936.865	0.0142027
936.943	0.0142616
937.021	0.0142805
937.099	0.0143699
937.177	0.0143370
937.255	0.0144519
937.333	0.0143230
937.412	0.0143822
937.490	0.0144289
937.568	0.0143542
937.646	0.0142401
937.724	0.0144043
937.802	0.0145041
937.880	0.0143611
937.958	0.0142782
938.037	0.0143867
938.115	0.0143086
938.193	0.0142747
938.271	0.0143363
938.349	0.0142800
938.427	0.0141935
938.505	0.0141020
938.583	0.0141390
938.662	0.0142672
938.740	0.0141199
938.818	0.0140196
938.896	0.0138552
938.974	0.0138743
939.052	0.0139157
939.130	0.0139172
939.208	0.0139010
939.287	0.0139358
939.365	0.0138828
939.443	0.0139924
939.521	0.0140087
939.599	0.0140408
939.677	0.0140733
939.755	0.0141284
939.833	0.0142412
939.912	0.0142621
939.990	0.0143356
940.068	0.0144162
940.146	0.0142989
940.224	0.0142526
940.302	0.0145412
940.380	0.0144655
940.458	0.0144347
940.537	0.0144338
940.615	0.0143021
940.693	0.0142373
940.771	0.0144370
940.849	0.0143554
940.927	0.0143176
941.005	0.0143140
941.083	0.0145342
941.162	0.0142945
941.240	0.0142692
941.318	0.0144461
941.396	0.0144363
941.474	0.0143873
941.552	0.0143330
941.630	0.0142794
941.708	0.0144425
941.787	0.0143485
941.865	0.0143201
941.943	0.0144337
942.021	0.0143204
942.099	0.0141956
942.177	0.0142219
942.255	0.0141572
942.333	0.0141949
942.412	0.0140936
942.490	0.0141460
942.568	0.0140247
942.646	0.0141228
942.724	0.0140419
942.802	0.0139963
942.880	0.0141296
942.958	0.0140151
943.037	0.0140197
943.115	0.0140766
943.193	0.0141667
943.271	0.0140449
943.349	0.0140557
943.427	0.0141205
943.505	0.0142406
943.583	0.0140954
943.662	0.0140911
943.740	0.0142368
943.818	0.0141656
943.896	0.0141348
943.974	0.0142201
944.052	0.0143015
944.130	0.0141735
944.208	0.0141516
944.287	0.0140204
944.365	0.0141585
944.443	0.0140538
944.521	0.0141558
944.599	0.0142271
944.677	0.0141331
944.755	0.0142374
944.833	0.0140907
944.912	0.0141391
944.990	0.0143397
945.068	0.0143436
945.146	0.0143103
945.224	0.0143065
945.302	0.0142685
945.380	0.0143209
945.458	0.0142848
945.537	0.0143905
945.615	0.0142265
945.693	0.0143234
945.771	0.0143617
945.849	0.0143713
945.927	0.0143283
946.005	0.0142203
946.083	0.0142819
946.162	0.0142134
946.240	0.0144226
946.318	0.0143569
946.396	0.0143304
946.474	0.0143470
946.552	0.0143940
946.630	0.0144452
946.708	0.0145084
946.787	0.0145202
946.865	0.0144468
946.943	0.0144640
947.021	0.0143291
947.099	0.0142634
947.177	0.0142293
947.255	0.0141348
947.333	0.0141034
947.412	0.0142173
947.490	0.0140800
947.568	0.0140965
947.646	0.0139964
947.724	0.0140018
947.802	0.0140691
947.880	0.0139228
947.958	0.0140596
948.037	0.0140519
948.115	0.0140728
948.193	0.0141600
948.271	0.0141709
948.349	0.0141834
948.427	0.0140900
948.505	0.0141380
948.583	0.0141636
948.662	0.0142432
948.740	0.0142054
948.818	0.0141935
948.896	0.0143446
948.974	0.0142831
949.052	0.0142301
949.130	0.0143360
949.208	0.0141389
949.287	0.0142743
949.365	0.0142222
949.443	0.0142336
949.521	0.0141834
949.599	0.0142976
949.677	0.0142800
949.755	0.0141320
949.833	0.0142657
949.912	0.0142639
949.990	0.0141654
950.068	0.0142319
950.146	0.0142316
950.224	0.0142771
950.302	0.0142107
950.380	0.0142633
950.458	0.0142670
950.537	0.0140835
950.615	0.0141406
950.693	0.0141685
950.771	0.0143066
950.849	0.0141124
950.927	0.0140359
951.005	0.0140932
951.083	0.0142490
951.162	0.0141190
951.240	0.0141821
951.318	0.0142709
951.396	0.0144059
951.474	0.0142714
951.552	0.0142780
951.630	0.0144215
951.708	0.0142994
951.787	0.0143797
951.865	0.0143979
951.943	0.0144079
952.021	0.0144443
952.099	0.0144131
952.177	0.0144109
952.255	0.0143598
952.333	0.0143859
952.412	0.0143738
952.490	0.0142049
952.568	0.0143846
952.646	0.0143909
952.724	0.0142346
952.802	0.0141774
952.880	0.0141621
952.958	0.0142155
953.037	0.0141279
953.115	0.0142570
953.193	0.0141044
953.271	0.0141859
953.349	0.0143663
953.427	0.0142728
953.505	0.0141353
953.583	0.0142802
953.662	0.0143825
953.740	0.0143826
953.818	0.0141844
953.896	0.0142580
953.974	0.0141673
954.052	0.0141577
954.130	0.0143100
954.208	0.0141794
954.287	0.0141233
954.365	0.0141649
954.443	0.0140825
954.521	0.0141749
954.599	0.0142680
954.677	0.0142130
954.755	0.0141314
954.833	0.0142149
954.912	0.0142416
954.990	0.0141280
955.068	0.0141266
955.146	0.0142084
955.224	0.0144001
955.302	0.0143488
955.380	0.0142669
955.458	0.0142120
955.537	0.0142835
955.615	0.0142651
955.693	0.0142986
955.771	0.0142940
955.849	0.0140811
955.927	0.0141156
956.005	0.0142951
956.083	0.0142097
956.162	0.0141715
956.240	0.0141302
956.318	0.0141578
956.396	0.0141910
956.474	0.0142944
956.552	0.0144139
956.630	0.0143322
956.708	0.0143932
956.787	0.0144869
956.865	0.0143828
956.943	0.0144683
957.021	0.0146181
957.099	0.0145473
957.177	0.0144960
957.255	0.0145107
957.333	0.0144267
957.412	0.0144295
957.490	0.0143605
957.568	0.0143206
957.646	0.0143597
957.724	0.0143651
957.802	0.0142234
957.880	0.0142895
957.958	0.0142327
958.037	0.0142060
958.115	0.0142023
958.193	0.0144683
958.271	0.0142881
958.349	0.0142681
958.427	0.0142423
958.505	0.0142231
958.583	0.0142390
958.662	0.0142158
958.740	0.0141711
958.818	0.0140227
958.896	0.0140918
958.974	0.0139597
959.052	0.0140186
959.130	0.0140483
959.208	0.0140419
959.287	0.0142461
959.365	0.0142758
959.443	0.0140838
959.521	0.0142213
959.599	0.0143269
959.677	0.0142672
959.755	0.0143556
959.833	0.0143193
959.912	0.0143426
959.990	0.0143750
960.068	0.0143964
960.146	0.0142885
960.224	0.0143124
960.302	0.0143340
960.380	0.0144073
960.458	0.0144558
960.537	0.0143782
960.615	0.0142836
960.693	0.0143012
960.771	0.0142803
960.849	0.0143464
960.927	0.0143124
961.005	0.0142522
961.083	0.0142249
961.162	0.0141569
961.240	0.0142248
961.318	0.0140964
961.396	0.0140499
961.474	0.0141566
961.552	0.0140958
961.630	0.0140685
961.708	0.0140294
961.787	0.0142375
961.865	0.0141898
961.943	0.0140469
962.021	0.0141551
962.099	0.0140447
962.177	0.0141750
962.255	0.0141689
962.333	0.0141751
962.412	0.0141351
962.490	0.0140394
962.568	0.0141644
962.646	0.0140959
962.724	0.0140582
962.802	0.0141017
962.880	0.0140070
962.958	0.0141398
963.037	0.0139099
963.115	0.0140392
963.193	0.0141309
963.271	0.0141058
963.349	0.0140549
963.427	0.0140195
963.505	0.0141673
963.583	0.0141518
963.662	0.0141701
963.740	0.0142085
963.818	0.0144035
963.896	0.0142959
963.974	0.0144742
964.052	0.0143709
964.130	0.0143166
964.208	0.0143243
964.287	0.0142993
964.365	0.0144923
964.443	0.0142303
964.521	0.0141561
964.599	0.0143298
964.677	0.0143814
964.755	0.0143214
964.833	0.0142197
964.912	0.0141842
964.990	0.0143336
965.068	0.0142971
965.146	0.0142850
965.224	0.0142774
965.302	0.0143012
965.380	0.0143926
965.458	0.0142146
965.537	0.0143274
965.615	0.0143641
965.693	0.0142580
965.771	0.0141959
965.849	0.0142245
965.927	0.0141878
966.005	0.0141109
966.083	0.0142715
966.162	0.0141664
966.240	0.0140932
966.318	0.0140416
966.396	0.0138921
966.474	0.0139623
966.552	0.0142728
966.630	0.0141395
966.708	0.0141122
966.787	0.0141684
966.865	0.0141138
966.943	0.0141992
967.021	0.0142081
967.099	0.0142080
967.177	0.0141982
967.255	0.0141415
967.333	0.0142094
967.412	0.0142217
967.490	0.0143855
967.568	0.0141710
967.646	0.0142684
967.724	0.0143349
967.802	0.0142534
967.880	0.0143617
967.958	0.0142503
968.037	0.0143205
968.115	0.0141908
968.193	0.0143280
968.271	0.0143956
968.349	0.0143881
968.427	0.0143911
968.505	0.0144284
968.583	0.0143766
968.662	0.0144875
968.740	0.0145600
968.818	0.0144468
968.896	0.0145264
968.974	0.0144775
969.052	0.0144685
969.130	0.0144428
969.208	0.0144939
969.287	0.0143967
969.365	0.0143401
969.443	0.0142879
969.521	0.0141672
969.599	0.0142289
969.677	0.0142305
969.755	0.0141596
969.833	0.0141787
969.912	0.0140737
