06/13/2022	15:10:59	Ver.	4.1	UNKNOWN
Optical Delay	599.968395	Delta X		0.078125	Sweeps	1	Scan Rate	0/0
Coordinates	Axis 1	NaN	Axis 2	NaN	Axis 3	NaN	Axis 4	NaN	Axis 5	NaN	Axis 6	0.000000
TX Power	0.000000	RX Power	0.000000

599.968	0.0159208
600.047	0.0158653
600.125	0.0158646
600.203	0.0159353
600.281	0.0157858
600.359	0.0158237
600.437	0.0159167
600.515	0.0159067
600.593	0.0158163
600.672	0.0159032
600.750	0.0159526
600.828	0.0159167
600.906	0.0159892
600.984	0.0160043
601.062	0.0159335
601.140	0.0160347
601.218	0.0158888
601.297	0.0158235
601.375	0.0159441
601.453	0.0158449
601.531	0.0158435
601.609	0.0159605
601.687	0.0159022
601.765	0.0158701
601.843	0.0159229
601.922	0.0158649
602.000	0.0157607
602.078	0.0158040
602.156	0.0158090
602.234	0.0157956
602.312	0.0158103
602.390	0.0159230
602.468	0.0158128
602.547	0.0159418
602.625	0.0158061
602.703	0.0158341
602.781	0.0159035
602.859	0.0158707
602.937	0.0157986
603.015	0.0158078
603.093	0.0158725
603.172	0.0157560
603.250	0.0158119
603.328	0.0159457
603.406	0.0160215
603.484	0.0158639
603.562	0.0158418
603.640	0.0158517
603.718	0.0157896
603.797	0.0158855
603.875	0.0158135
603.953	0.0158788
604.031	0.0159078
604.109	0.0158703
604.187	0.0159247
604.265	0.0157182
604.343	0.0157748
604.422	0.0158562
604.500	0.0158137
604.578	0.0159815
604.656	0.0157769
604.734	0.0158120
604.812	0.0159619
604.890	0.0158105
604.968	0.0158291
605.047	0.0159452
605.125	0.0158263
605.203	0.0158410
605.281	0.0158120
605.359	0.0158546
605.437	0.0157697
605.515	0.0159753
605.593	0.0156929
605.672	0.0159248
605.750	0.0158714
605.828	0.0158050
605.906	0.0157553
605.984	0.0159885
606.062	0.0158705
606.140	0.0160299
606.218	0.0158541
606.297	0.0157706
606.375	0.0157982
606.453	0.0157915
606.531	0.0158339
606.609	0.0158659
606.687	0.0156599
606.765	0.0158342
606.843	0.0158028
606.922	0.0158750
607.000	0.0157904
607.078	0.0158440
607.156	0.0157805
607.234	0.0158736
607.312	0.0159142
607.390	0.0156564
607.468	0.0158495
607.547	0.0157860
607.625	0.0158658
607.703	0.0157748
607.781	0.0157545
607.859	0.0158634
607.937	0.0156632
608.015	0.0157849
608.093	0.0157796
608.172	0.0157540
608.250	0.0157594
608.328	0.0157674
608.406	0.0157893
608.484	0.0157504
608.562	0.0156793
608.640	0.0158551
608.718	0.0158887
608.797	0.0157976
608.875	0.0157710
608.953	0.0157487
609.031	0.0157767
609.109	0.0158252
609.187	0.0158709
609.265	0.0158463
609.343	0.0158782
609.422	0.0158912
609.500	0.0160007
609.578	0.0159904
609.656	0.0158817
609.734	0.0159745
609.812	0.0159658
609.890	0.0158795
609.968	0.0159324
610.047	0.0158942
610.125	0.0158872
610.203	0.0158029
610.281	0.0157025
610.359	0.0157793
610.437	0.0159625
610.515	0.0159158
610.593	0.0158750
610.672	0.0159179
610.750	0.0157977
610.828	0.0158652
610.906	0.0158834
610.984	0.0159686
611.062	0.0157555
611.140	0.0160440
611.218	0.0160186
611.297	0.0160122
611.375	0.0158315
611.453	0.0158908
611.531	0.0159135
611.609	0.0159694
611.687	0.0159702
611.765	0.0160349
611.843	0.0160660
611.922	0.0159146
612.000	0.0159830
612.078	0.0161195
612.156	0.0159448
612.234	0.0159658
612.312	0.0161075
612.390	0.0159375
612.468	0.0159740
612.547	0.0158974
612.625	0.0160390
612.703	0.0161095
612.781	0.0160595
612.859	0.0161020
612.937	0.0160076
613.015	0.0160715
613.093	0.0159895
613.172	0.0160345
613.250	0.0160519
613.328	0.0159100
613.406	0.0159600
613.484	0.0159547
613.562	0.0159305
613.640	0.0161427
613.718	0.0159924
613.797	0.0161197
613.875	0.0161878
613.953	0.0160401
614.031	0.0160765
614.109	0.0161227
614.187	0.0160699
614.265	0.0160804
614.343	0.0161259
614.422	0.0160209
614.500	0.0160742
614.578	0.0160084
614.656	0.0159961
614.734	0.0159948
614.812	0.0160198
614.890	0.0159563
614.968	0.0159634
615.047	0.0159736
615.125	0.0160480
615.203	0.0160662
615.281	0.0159650
615.359	0.0160196
615.437	0.0161079
615.515	0.0160066
615.593	0.0159689
615.672	0.0159153
615.750	0.0160403
615.828	0.0161021
615.906	0.0160205
615.984	0.0159982
616.062	0.0158481
616.140	0.0159460
616.218	0.0159953
616.297	0.0159859
616.375	0.0159129
616.453	0.0158612
616.531	0.0159676
616.609	0.0160326
616.687	0.0159418
616.765	0.0159995
616.843	0.0158743
616.922	0.0160519
617.000	0.0159682
617.078	0.0160847
617.156	0.0160575
617.234	0.0159946
617.312	0.0159601
617.390	0.0160028
617.468	0.0160358
617.547	0.0160088
617.625	0.0160776
617.703	0.0160774
617.781	0.0158787
617.859	0.0159887
617.937	0.0158504
618.015	0.0159669
618.093	0.0159599
618.172	0.0160694
618.250	0.0161057
618.328	0.0158641
618.406	0.0160636
618.484	0.0160429
618.562	0.0159158
618.640	0.0159225
618.718	0.0160040
618.797	0.0160041
618.875	0.0159895
618.953	0.0159373
619.031	0.0159396
619.109	0.0161492
619.187	0.0160909
619.265	0.0159874
619.343	0.0159424
619.422	0.0158991
619.500	0.0159509
619.578	0.0158637
619.656	0.0159646
619.734	0.0158083
619.812	0.0159827
619.890	0.0159000
619.968	0.0160279
620.047	0.0159521
620.125	0.0160287
620.203	0.0159599
620.281	0.0159350
620.359	0.0160751
620.437	0.0160458
620.515	0.0159966
620.593	0.0159492
620.672	0.0159465
620.750	0.0160218
620.828	0.0158349
620.906	0.0160381
620.984	0.0161167
621.062	0.0160287
621.140	0.0159468
621.218	0.0159358
621.297	0.0158879
621.375	0.0159660
621.453	0.0159427
621.531	0.0160625
621.609	0.0159646
621.687	0.0159667
621.765	0.0161057
621.843	0.0159701
621.922	0.0159689
622.000	0.0160931
622.078	0.0158938
622.156	0.0159317
622.234	0.0159969
622.312	0.0160201
622.390	0.0158757
622.468	0.0160202
622.547	0.0159925
622.625	0.0159684
622.703	0.0160174
622.781	0.0159727
622.859	0.0158730
622.937	0.0159856
623.015	0.0159758
623.093	0.0160017
623.172	0.0161390
623.250	0.0160524
623.328	0.0160329
623.406	0.0159837
623.484	0.0159347
623.562	0.0160017
623.640	0.0161176
623.718	0.0158356
623.797	0.0159356
623.875	0.0159990
623.953	0.0159721
624.031	0.0160062
624.109	0.0159435
624.187	0.0161113
624.265	0.0159541
624.343	0.0159764
624.422	0.0159081
624.500	0.0160404
624.578	0.0159251
624.656	0.0160709
624.734	0.0159738
624.812	0.0160023
624.890	0.0159007
624.968	0.0158827
625.047	0.0159354
625.125	0.0158125
625.203	0.0158187
625.281	0.0158857
625.359	0.0159302
625.437	0.0159296
625.515	0.0158267
625.593	0.0159063
625.672	0.0160429
625.750	0.0158857
625.828	0.0159039
625.906	0.0159701
625.984	0.0160745
626.062	0.0159342
626.140	0.0159482
626.218	0.0159585
626.297	0.0158003
626.375	0.0158797
626.453	0.0158304
626.531	0.0159146
626.609	0.0159131
626.687	0.0159290
626.765	0.0160143
626.843	0.0159225
626.922	0.0159373
627.000	0.0159721
627.078	0.0159976
627.156	0.0157928
627.234	0.0159679
627.312	0.0158630
627.390	0.0158510
627.468	0.0160543
627.547	0.0158979
627.625	0.0159218
627.703	0.0159101
627.781	0.0159262
627.859	0.0159570
627.937	0.0159995
628.015	0.0158657
628.093	0.0158671
628.172	0.0158932
628.250	0.0158884
628.328	0.0160272
628.406	0.0159678
628.484	0.0160275
628.562	0.0159444
628.640	0.0159416
628.718	0.0158587
628.797	0.0159104
628.875	0.0160760
628.953	0.0159265
629.031	0.0158902
629.109	0.0158778
629.187	0.0159647
629.265	0.0159188
629.343	0.0159057
629.422	0.0159463
629.500	0.0158926
629.578	0.0158633
629.656	0.0158494
629.734	0.0159260
629.812	0.0160160
629.890	0.0158739
629.968	0.0158099
630.047	0.0158482
630.125	0.0158583
630.203	0.0158633
630.281	0.0159178
630.359	0.0159164
630.437	0.0157323
630.515	0.0157784
630.593	0.0158742
630.672	0.0158467
630.750	0.0156551
630.828	0.0156760
630.906	0.0158143
630.984	0.0156631
631.062	0.0157733
631.140	0.0156931
631.218	0.0158309
631.297	0.0158361
631.375	0.0157137
631.453	0.0157736
631.531	0.0157910
631.609	0.0158466
631.687	0.0159052
631.765	0.0159873
631.843	0.0159516
631.922	0.0161163
632.000	0.0159422
632.078	0.0160191
632.156	0.0159731
632.234	0.0159309
632.312	0.0159882
632.390	0.0159528
632.468	0.0158167
632.547	0.0158664
632.625	0.0157443
632.703	0.0157027
632.781	0.0157076
632.859	0.0157658
632.937	0.0156767
633.015	0.0158610
633.093	0.0156841
633.172	0.0156711
633.250	0.0155777
633.328	0.0156657
633.406	0.0159503
633.484	0.0158818
633.562	0.0157924
633.640	0.0158891
633.718	0.0159249
633.797	0.0158681
633.875	0.0157924
633.953	0.0158314
634.031	0.0159914
634.109	0.0159712
634.187	0.0158969
634.265	0.0158480
634.343	0.0158693
634.422	0.0160251
634.500	0.0160243
634.578	0.0159010
634.656	0.0156383
634.734	0.0159985
634.812	0.0159044
634.890	0.0160557
634.968	0.0158696
635.047	0.0158688
635.125	0.0159383
635.203	0.0158723
635.281	0.0159088
635.359	0.0159839
635.437	0.0158115
635.515	0.0158801
635.593	0.0159850
635.672	0.0159093
635.750	0.0158564
635.828	0.0158622
635.906	0.0159354
635.984	0.0157422
636.062	0.0160235
636.140	0.0158222
636.218	0.0158483
636.297	0.0159210
636.375	0.0159615
636.453	0.0159065
636.531	0.0159478
636.609	0.0160155
636.687	0.0158897
636.765	0.0158695
636.843	0.0160944
636.922	0.0159806
637.000	0.0160580
637.078	0.0160052
637.156	0.0160632
637.234	0.0160043
637.312	0.0161205
637.390	0.0160417
637.468	0.0159314
637.547	0.0158815
637.625	0.0160325
637.703	0.0160020
637.781	0.0161787
637.859	0.0160989
637.937	0.0161774
638.015	0.0161618
638.093	0.0160963
638.172	0.0161368
638.250	0.0160416
638.328	0.0160339
638.406	0.0161639
638.484	0.0160173
638.562	0.0160007
638.640	0.0159959
638.718	0.0159172
638.797	0.0160429
638.875	0.0160113
638.953	0.0159604
639.031	0.0158853
639.109	0.0159386
639.187	0.0159977
639.265	0.0158926
639.343	0.0159492
639.422	0.0160710
639.500	0.0160536
639.578	0.0159293
639.656	0.0159590
639.734	0.0160183
639.812	0.0160283
639.890	0.0160703
639.968	0.0161597
640.047	0.0159711
640.125	0.0158865
640.203	0.0158911
640.281	0.0160562
640.359	0.0160334
640.437	0.0160266
640.515	0.0160715
640.593	0.0160085
640.672	0.0160336
640.750	0.0159908
640.828	0.0160326
640.906	0.0158927
640.984	0.0159328
641.062	0.0159550
641.140	0.0158885
641.218	0.0158263
641.297	0.0159072
641.375	0.0158568
641.453	0.0158603
641.531	0.0160442
641.609	0.0160079
641.687	0.0158900
641.765	0.0159164
641.843	0.0160349
641.922	0.0158971
642.000	0.0160796
642.078	0.0160312
642.156	0.0159891
642.234	0.0158080
642.312	0.0160302
642.390	0.0159329
642.468	0.0159989
642.547	0.0159391
642.625	0.0160144
642.703	0.0160406
642.781	0.0160208
642.859	0.0160315
642.937	0.0159471
643.015	0.0160921
643.093	0.0159809
643.172	0.0159726
643.250	0.0158900
643.328	0.0159290
643.406	0.0160607
643.484	0.0160000
643.562	0.0161098
643.640	0.0160146
643.718	0.0160696
643.797	0.0159397
643.875	0.0160332
643.953	0.0160461
644.031	0.0159624
644.109	0.0159996
644.187	0.0159415
644.265	0.0160172
644.343	0.0160497
644.422	0.0162416
644.500	0.0159129
644.578	0.0159475
644.656	0.0160582
644.734	0.0160233
644.812	0.0159806
644.890	0.0160907
644.968	0.0160548
645.047	0.0161374
645.125	0.0160783
645.203	0.0158537
645.281	0.0159851
645.359	0.0159337
645.437	0.0160115
645.515	0.0160161
645.593	0.0158818
645.672	0.0160995
645.750	0.0161049
645.828	0.0160191
645.906	0.0159074
645.984	0.0160116
646.062	0.0159485
646.140	0.0160252
646.218	0.0161408
646.297	0.0160587
646.375	0.0159713
646.453	0.0160063
646.531	0.0159851
646.609	0.0160571
646.687	0.0159562
646.765	0.0159481
646.843	0.0160235
646.922	0.0159616
647.000	0.0158889
647.078	0.0159023
647.156	0.0158783
647.234	0.0158583
647.312	0.0158530
647.390	0.0159528
647.468	0.0161543
647.547	0.0160217
647.625	0.0158065
647.703	0.0160144
647.781	0.0159996
647.859	0.0159447
647.937	0.0158566
648.015	0.0160037
648.093	0.0160837
648.172	0.0160931
648.250	0.0158360
648.328	0.0160113
648.406	0.0158967
648.484	0.0159093
648.562	0.0160754
648.640	0.0160538
648.718	0.0160651
648.797	0.0159557
648.875	0.0159448
648.953	0.0159159
649.031	0.0160394
649.109	0.0160352
649.187	0.0159872
649.265	0.0159230
649.343	0.0160629
649.422	0.0159479
649.500	0.0159140
649.578	0.0160873
649.656	0.0160168
649.734	0.0160719
649.812	0.0160194
649.890	0.0159793
649.968	0.0160700
650.047	0.0160474
650.125	0.0159917
650.203	0.0161300
650.281	0.0161341
650.359	0.0160761
650.437	0.0159411
650.515	0.0159109
650.593	0.0159302
650.672	0.0161298
650.750	0.0159801
650.828	0.0160496
650.906	0.0159896
650.984	0.0159076
651.062	0.0159747
651.140	0.0159873
651.218	0.0159906
651.297	0.0158939
651.375	0.0159354
651.453	0.0160201
651.531	0.0160607
651.609	0.0159813
651.687	0.0159190
651.765	0.0159276
651.843	0.0160011
651.922	0.0158334
652.000	0.0159074
652.078	0.0159172
652.156	0.0161465
652.234	0.0159790
652.312	0.0158196
652.390	0.0160011
652.468	0.0160232
652.547	0.0160020
652.625	0.0160361
652.703	0.0159058
652.781	0.0158340
652.859	0.0160131
652.937	0.0159727
653.015	0.0160458
653.093	0.0159218
653.172	0.0160024
653.250	0.0159219
653.328	0.0158952
653.406	0.0159182
653.484	0.0158437
653.562	0.0160027
653.640	0.0159141
653.718	0.0158974
653.797	0.0157986
653.875	0.0158240
653.953	0.0157683
654.031	0.0158128
654.109	0.0159141
654.187	0.0157935
654.265	0.0158245
654.343	0.0159457
654.422	0.0156828
654.500	0.0158572
654.578	0.0158110
654.656	0.0157629
654.734	0.0159032
654.812	0.0158012
654.890	0.0157690
654.968	0.0156837
655.047	0.0157606
655.125	0.0157407
655.203	0.0157982
655.281	0.0158062
655.359	0.0157512
655.437	0.0156871
655.515	0.0156283
655.593	0.0157170
655.672	0.0158539
655.750	0.0158819
655.828	0.0156889
655.906	0.0157978
655.984	0.0157359
656.062	0.0156756
656.140	0.0157537
656.218	0.0157768
656.297	0.0157854
656.375	0.0156968
656.453	0.0157491
656.531	0.0157346
656.609	0.0155898
656.687	0.0156802
656.765	0.0157889
656.843	0.0157272
656.922	0.0156416
657.000	0.0158017
657.078	0.0157160
657.156	0.0158199
657.234	0.0157977
657.312	0.0157094
657.390	0.0156915
657.468	0.0159708
657.547	0.0158639
657.625	0.0158098
657.703	0.0157518
657.781	0.0157276
657.859	0.0158286
657.937	0.0157948
658.015	0.0157842
658.093	0.0158890
658.172	0.0157315
658.250	0.0158749
658.328	0.0158510
658.406	0.0157511
658.484	0.0157819
658.562	0.0157910
658.640	0.0157732
658.718	0.0157171
658.797	0.0157287
658.875	0.0157796
658.953	0.0158369
659.031	0.0159508
659.109	0.0158012
659.187	0.0157616
659.265	0.0158773
659.343	0.0157677
659.422	0.0157726
659.500	0.0157596
659.578	0.0157744
659.656	0.0157973
659.734	0.0157318
659.812	0.0157373
659.890	0.0158128
659.968	0.0158499
660.047	0.0158105
660.125	0.0158578
660.203	0.0156564
660.281	0.0158871
660.359	0.0157743
660.437	0.0156860
660.515	0.0157882
660.593	0.0157870
660.672	0.0158578
660.750	0.0158972
660.828	0.0159273
660.906	0.0158046
660.984	0.0158950
661.062	0.0158615
661.140	0.0158029
661.218	0.0156490
661.297	0.0158556
661.375	0.0157555
661.453	0.0158193
661.531	0.0159061
661.609	0.0158667
661.687	0.0158407
661.765	0.0158513
661.843	0.0159438
661.922	0.0160097
662.000	0.0159790
662.078	0.0158743
662.156	0.0158091
662.234	0.0157982
662.312	0.0159245
662.390	0.0158205
662.468	0.0158144
662.547	0.0159513
662.625	0.0158345
662.703	0.0159261
662.781	0.0160123
662.859	0.0159483
662.937	0.0159330
663.015	0.0158550
663.093	0.0160519
663.172	0.0160661
663.250	0.0159763
663.328	0.0159480
663.406	0.0158906
663.484	0.0160248
663.562	0.0159055
663.640	0.0158778
663.718	0.0158849
663.797	0.0159513
663.875	0.0160230
663.953	0.0159596
664.031	0.0159323
664.109	0.0158996
664.187	0.0158886
664.265	0.0158546
664.343	0.0159850
664.422	0.0159715
664.500	0.0158147
664.578	0.0159552
664.656	0.0161005
664.734	0.0159467
664.812	0.0159325
664.890	0.0160861
664.968	0.0158170
665.047	0.0158582
665.125	0.0160267
665.203	0.0159028
665.281	0.0159811
665.359	0.0159149
665.437	0.0161249
665.515	0.0160920
665.593	0.0160143
665.672	0.0159284
665.750	0.0160524
665.828	0.0160196
665.906	0.0158968
665.984	0.0159743
666.062	0.0158503
666.140	0.0160207
666.218	0.0159896
666.297	0.0160130
666.375	0.0160330
666.453	0.0160900
666.531	0.0160551
666.609	0.0159100
666.687	0.0161826
666.765	0.0161166
666.843	0.0159262
666.922	0.0158536
667.000	0.0160126
667.078	0.0158903
667.156	0.0159174
667.234	0.0160194
667.312	0.0160135
667.390	0.0160648
667.468	0.0159195
667.547	0.0160587
667.625	0.0160342
667.703	0.0161208
667.781	0.0159315
667.859	0.0160863
667.937	0.0160967
668.015	0.0160014
668.093	0.0160280
668.172	0.0159509
668.250	0.0159705
668.328	0.0160247
668.406	0.0159024
668.484	0.0159601
668.562	0.0160188
668.640	0.0161586
668.718	0.0160301
668.797	0.0159835
668.875	0.0159707
668.953	0.0160127
669.031	0.0162135
669.109	0.0160626
669.187	0.0158889
669.265	0.0161050
669.343	0.0160534
669.422	0.0160878
669.500	0.0160632
669.578	0.0159040
669.656	0.0158640
669.734	0.0159981
669.812	0.0160957
669.890	0.0159230
669.968	0.0159449
670.047	0.0159550
670.125	0.0159200
670.203	0.0159332
670.281	0.0159578
670.359	0.0159970
670.437	0.0160948
670.515	0.0159907
670.593	0.0159312
670.672	0.0159409
670.750	0.0159535
670.828	0.0159872
670.906	0.0158534
670.984	0.0160228
671.062	0.0160091
671.140	0.0158787
671.218	0.0159589
671.297	0.0158757
671.375	0.0159650
671.453	0.0160476
671.531	0.0159520
671.609	0.0159624
671.687	0.0159531
671.765	0.0160191
671.843	0.0160773
671.922	0.0159843
672.000	0.0158897
672.078	0.0158885
672.156	0.0159927
672.234	0.0159441
672.312	0.0160111
672.390	0.0158296
672.468	0.0159709
672.547	0.0159992
672.625	0.0160622
672.703	0.0159683
672.781	0.0160587
672.859	0.0159688
672.937	0.0159125
673.015	0.0159190
673.093	0.0159424
673.172	0.0158859
673.250	0.0158984
673.328	0.0160375
673.406	0.0159195
673.484	0.0159792
673.562	0.0158439
673.640	0.0158462
673.718	0.0159274
673.797	0.0159333
673.875	0.0158499
673.953	0.0159350
674.031	0.0159254
674.109	0.0159651
674.187	0.0160561
674.265	0.0159711
674.343	0.0159222
674.422	0.0158951
674.500	0.0159479
674.578	0.0157912
674.656	0.0160236
674.734	0.0158852
674.812	0.0157149
674.890	0.0159048
674.968	0.0158704
675.047	0.0159397
675.125	0.0159512
675.203	0.0157780
675.281	0.0158755
675.359	0.0158016
675.437	0.0157916
675.515	0.0158646
675.593	0.0158621
675.672	0.0159599
675.750	0.0159286
675.828	0.0159482
675.906	0.0160410
675.984	0.0158018
676.062	0.0158301
676.140	0.0159686
676.218	0.0159190
676.297	0.0158027
676.375	0.0158072
676.453	0.0159632
676.531	0.0158299
676.609	0.0158521
676.687	0.0159021
676.765	0.0159991
676.843	0.0158920
676.922	0.0158139
677.000	0.0158924
677.078	0.0158825
677.156	0.0157977
677.234	0.0157953
677.312	0.0158363
677.390	0.0158562
677.468	0.0158202
677.547	0.0159266
677.625	0.0159212
677.703	0.0158386
677.781	0.0157825
677.859	0.0157462
677.937	0.0157504
678.015	0.0158821
678.093	0.0158607
678.172	0.0157675
678.250	0.0157873
678.328	0.0158416
678.406	0.0159032
678.484	0.0157622
678.562	0.0157453
678.640	0.0157217
678.718	0.0158224
678.797	0.0157150
678.875	0.0156704
678.953	0.0158205
679.031	0.0158628
679.109	0.0158356
679.187	0.0157535
679.265	0.0157426
679.343	0.0158012
679.422	0.0158779
679.500	0.0158801
679.578	0.0157770
679.656	0.0158080
679.734	0.0158864
679.812	0.0158926
679.890	0.0158662
679.968	0.0158107
680.047	0.0158272
680.125	0.0158511
680.203	0.0158962
680.281	0.0158932
680.359	0.0158099
680.437	0.0157671
680.515	0.0157585
680.593	0.0158784
680.672	0.0158284
680.750	0.0158194
680.828	0.0159082
680.906	0.0156551
680.984	0.0158347
681.062	0.0158235
681.140	0.0158715
681.218	0.0158102
681.297	0.0158242
681.375	0.0158505
681.453	0.0156876
681.531	0.0159329
681.609	0.0158589
681.687	0.0156938
681.765	0.0157873
681.843	0.0158791
681.922	0.0158367
682.000	0.0158022
682.078	0.0158312
682.156	0.0156760
682.234	0.0158344
682.312	0.0158340
682.390	0.0159332
682.468	0.0158021
682.547	0.0158630
682.625	0.0157968
682.703	0.0159120
682.781	0.0158858
682.859	0.0158292
682.937	0.0158367
683.015	0.0158931
683.093	0.0159115
683.172	0.0159815
683.250	0.0158829
683.328	0.0157804
683.406	0.0158717
683.484	0.0159846
683.562	0.0159541
683.640	0.0159566
683.718	0.0157824
683.797	0.0157194
683.875	0.0159026
683.953	0.0157458
684.031	0.0158145
684.109	0.0159524
684.187	0.0158652
684.265	0.0160041
684.343	0.0159434
684.422	0.0158025
684.500	0.0159476
684.578	0.0158444
684.656	0.0159640
684.734	0.0160285
684.812	0.0160211
684.890	0.0158971
684.968	0.0159716
685.047	0.0158920
685.125	0.0160199
685.203	0.0159214
685.281	0.0160123
685.359	0.0158953
685.437	0.0160158
685.515	0.0159814
685.593	0.0159637
685.672	0.0159438
685.750	0.0158611
685.828	0.0159416
685.906	0.0158916
685.984	0.0159250
686.062	0.0157472
686.140	0.0158698
686.218	0.0160106
686.297	0.0159558
686.375	0.0159509
686.453	0.0160081
686.531	0.0160388
686.609	0.0158587
686.687	0.0158560
686.765	0.0158966
686.843	0.0159672
686.922	0.0159655
687.000	0.0159532
687.078	0.0160170
687.156	0.0160381
687.234	0.0159602
687.312	0.0161165
687.390	0.0160056
687.468	0.0159325
687.547	0.0159246
687.625	0.0160569
687.703	0.0160069
687.781	0.0159697
687.859	0.0160100
687.937	0.0159438
688.015	0.0160182
688.093	0.0160971
688.172	0.0158745
688.250	0.0158664
688.328	0.0159856
688.406	0.0158986
688.484	0.0159417
688.562	0.0159861
688.640	0.0160919
688.718	0.0160280
688.797	0.0158918
688.875	0.0160336
688.953	0.0160080
689.031	0.0160022
689.109	0.0159328
689.187	0.0159211
689.265	0.0159657
689.343	0.0159351
689.422	0.0159421
689.500	0.0159581
689.578	0.0160286
689.656	0.0160344
689.734	0.0161313
689.812	0.0161125
689.890	0.0159129
689.968	0.0160319
690.047	0.0161130
690.125	0.0158324
690.203	0.0158966
690.281	0.0159924
690.359	0.0158371
690.437	0.0160117
690.515	0.0159642
690.593	0.0160439
690.672	0.0159596
690.750	0.0159858
690.828	0.0159715
690.906	0.0160873
690.984	0.0160385
691.062	0.0159303
691.140	0.0159775
691.218	0.0159509
691.297	0.0160183
691.375	0.0159640
691.453	0.0160332
691.531	0.0160424
691.609	0.0159588
691.687	0.0159324
691.765	0.0159242
691.843	0.0159937
691.922	0.0161711
692.000	0.0159808
692.078	0.0159405
692.156	0.0159320
692.234	0.0158820
692.312	0.0160143
692.390	0.0159678
692.468	0.0160191
692.547	0.0160249
692.625	0.0159702
692.703	0.0159758
692.781	0.0158952
692.859	0.0160873
692.937	0.0160091
693.015	0.0160186
693.093	0.0159291
693.172	0.0160052
693.250	0.0160294
693.328	0.0160335
693.406	0.0159708
693.484	0.0159654
693.562	0.0159083
693.640	0.0159845
693.718	0.0160429
693.797	0.0159235
693.875	0.0161035
693.953	0.0160215
694.031	0.0160227
694.109	0.0159319
694.187	0.0159447
694.265	0.0162274
694.343	0.0160301
694.422	0.0159859
694.500	0.0161006
694.578	0.0159047
694.656	0.0159229
694.734	0.0160648
694.812	0.0160159
694.890	0.0159231
694.968	0.0159193
695.047	0.0159818
695.125	0.0158150
695.203	0.0160518
695.281	0.0159355
695.359	0.0160290
695.437	0.0160712
695.515	0.0159032
695.593	0.0159460
695.672	0.0158623
695.750	0.0158521
695.828	0.0159567
695.906	0.0158717
695.984	0.0159370
696.062	0.0160706
696.140	0.0159610
696.218	0.0159306
696.297	0.0159022
696.375	0.0160641
696.453	0.0160423
696.531	0.0159637
696.609	0.0159903
696.687	0.0160782
696.765	0.0159789
696.843	0.0160240
696.922	0.0158912
697.000	0.0159103
697.078	0.0160185
697.156	0.0158350
697.234	0.0158221
697.312	0.0160494
697.390	0.0160261
697.468	0.0159683
697.547	0.0159528
697.625	0.0158485
697.703	0.0159834
697.781	0.0160188
697.859	0.0159679
697.937	0.0159018
698.015	0.0159562
698.093	0.0159142
698.172	0.0159111
698.250	0.0160955
698.328	0.0160141
698.406	0.0159787
698.484	0.0159700
698.562	0.0160499
698.640	0.0159875
698.718	0.0159664
698.797	0.0160677
698.875	0.0159061
698.953	0.0159400
699.031	0.0159224
699.109	0.0160146
699.187	0.0159753
699.265	0.0159154
699.343	0.0160387
699.422	0.0159557
699.500	0.0158211
699.578	0.0160274
699.656	0.0160720
699.734	0.0160464
699.812	0.0159487
699.890	0.0158582
699.968	0.0158804
700.047	0.0158742
700.125	0.0159333
700.203	0.0159969
700.281	0.0158361
700.359	0.0159599
700.437	0.0159875
700.515	0.0158504
700.593	0.0159285
700.672	0.0158548
700.750	0.0158766
700.828	0.0159760
700.906	0.0157396
700.984	0.0160111
701.062	0.0159022
701.140	0.0158150
701.218	0.0158987
701.297	0.0158554
701.375	0.0160383
701.453	0.0159038
701.531	0.0158191
701.609	0.0159365
701.687	0.0158793
701.765	0.0158596
701.843	0.0158092
701.922	0.0160242
702.000	0.0160307
702.078	0.0160120
702.156	0.0158096
702.234	0.0158448
702.312	0.0158352
702.390	0.0158535
702.468	0.0156860
702.547	0.0159042
702.625	0.0158578
702.703	0.0158598
702.781	0.0158814
702.859	0.0158098
702.937	0.0159382
703.015	0.0157470
703.093	0.0159598
703.172	0.0158913
703.250	0.0159135
703.328	0.0158411
703.406	0.0157975
703.484	0.0160239
703.562	0.0158763
703.640	0.0158324
703.718	0.0159918
703.797	0.0158645
703.875	0.0158752
703.953	0.0158167
704.031	0.0158363
704.109	0.0159152
704.187	0.0159435
704.265	0.0158159
704.343	0.0158187
704.422	0.0159702
704.500	0.0158540
704.578	0.0159325
704.656	0.0159218
704.734	0.0158173
704.812	0.0158535
704.890	0.0159148
704.968	0.0159822
705.047	0.0158725
705.125	0.0158624
705.203	0.0159641
705.281	0.0159351
705.359	0.0158164
705.437	0.0157860
705.515	0.0159822
705.593	0.0158232
705.672	0.0158085
705.750	0.0158871
705.828	0.0159958
705.906	0.0159229
705.984	0.0158813
706.062	0.0159704
706.140	0.0158489
706.218	0.0158855
706.297	0.0158620
706.375	0.0159500
706.453	0.0158379
706.531	0.0159221
706.609	0.0160277
706.687	0.0158047
706.765	0.0159245
706.843	0.0158801
706.922	0.0160416
707.000	0.0160278
707.078	0.0159655
707.156	0.0159747
707.234	0.0160023
707.312	0.0158946
707.390	0.0158751
707.468	0.0159427
707.547	0.0159526
707.625	0.0159552
707.703	0.0158920
707.781	0.0159084
707.859	0.0158701
707.937	0.0158932
708.015	0.0161055
708.093	0.0159805
708.172	0.0158842
708.250	0.0158965
708.328	0.0159321
708.406	0.0159210
708.484	0.0158996
708.562	0.0159483
708.640	0.0158725
708.718	0.0159821
708.797	0.0160595
708.875	0.0159084
708.953	0.0159630
709.031	0.0158837
709.109	0.0158734
709.187	0.0161150
709.265	0.0160240
709.343	0.0159081
709.422	0.0158388
709.500	0.0159695
709.578	0.0159696
709.656	0.0158730
709.734	0.0159850
709.812	0.0161445
709.890	0.0159177
709.968	0.0159060
710.047	0.0159930
710.125	0.0159375
710.203	0.0159571
710.281	0.0159554
710.359	0.0159452
710.437	0.0160867
710.515	0.0159770
710.593	0.0159359
710.672	0.0160462
710.750	0.0160394
710.828	0.0158852
710.906	0.0159268
710.984	0.0159362
711.062	0.0159762
711.140	0.0160146
711.218	0.0159825
711.297	0.0159240
711.375	0.0158749
711.453	0.0161961
711.531	0.0159782
711.609	0.0158794
711.687	0.0159063
711.765	0.0159811
711.843	0.0159900
711.922	0.0161234
712.000	0.0160690
712.078	0.0161477
712.156	0.0159115
712.234	0.0160110
712.312	0.0159234
712.390	0.0160510
712.468	0.0160387
712.547	0.0159219
712.625	0.0159575
712.703	0.0159400
712.781	0.0160231
712.859	0.0161179
712.937	0.0159566
713.015	0.0160974
713.093	0.0159853
713.172	0.0160810
713.250	0.0159560
713.328	0.0160014
713.406	0.0159789
713.484	0.0160242
713.562	0.0159158
713.640	0.0159270
713.718	0.0160242
713.797	0.0160300
713.875	0.0161288
713.953	0.0159670
714.031	0.0160998
714.109	0.0160584
714.187	0.0159850
714.265	0.0159132
714.343	0.0160833
714.422	0.0159898
714.500	0.0161367
714.578	0.0160365
714.656	0.0160724
714.734	0.0160744
714.812	0.0160293
714.890	0.0160317
714.968	0.0160127
715.047	0.0158899
715.125	0.0159955
715.203	0.0161565
715.281	0.0159623
715.359	0.0159163
715.437	0.0159836
715.515	0.0160139
715.593	0.0160080
715.672	0.0159615
715.750	0.0160043
715.828	0.0160263
715.906	0.0159545
715.984	0.0161415
716.062	0.0161582
716.140	0.0159191
716.218	0.0159138
716.297	0.0159927
716.375	0.0160918
716.453	0.0159945
716.531	0.0160081
716.609	0.0159518
716.687	0.0160736
716.765	0.0159883
716.843	0.0159375
716.922	0.0160506
717.000	0.0159516
717.078	0.0160870
717.156	0.0160313
717.234	0.0160468
717.312	0.0158263
717.390	0.0160617
717.468	0.0160073
717.547	0.0161339
717.625	0.0161109
717.703	0.0160336
717.781	0.0160767
717.859	0.0158942
717.937	0.0159250
718.015	0.0159026
718.093	0.0159315
718.172	0.0159295
718.250	0.0160587
718.328	0.0158624
718.406	0.0159888
718.484	0.0159001
718.562	0.0159634
718.640	0.0160081
718.718	0.0158918
718.797	0.0159905
718.875	0.0160117
718.953	0.0160831
719.031	0.0160171
719.109	0.0160328
719.187	0.0159673
719.265	0.0159622
719.343	0.0159279
719.422	0.0158829
719.500	0.0159345
719.578	0.0160567
719.656	0.0159238
719.734	0.0159171
719.812	0.0159960
719.890	0.0159216
719.968	0.0160169
720.047	0.0159502
720.125	0.0159145
720.203	0.0159095
720.281	0.0160126
720.359	0.0158228
720.437	0.0159611
720.515	0.0160250
720.593	0.0159456
720.672	0.0160221
720.750	0.0159819
720.828	0.0158482
720.906	0.0160002
720.984	0.0161528
721.062	0.0161147
721.140	0.0160774
721.218	0.0159457
721.297	0.0159799
721.375	0.0159827
721.453	0.0159654
721.531	0.0158923
721.609	0.0159678
721.687	0.0160290
721.765	0.0159220
721.843	0.0160800
721.922	0.0160274
722.000	0.0159418
722.078	0.0159161
722.156	0.0159328
722.234	0.0158803
722.312	0.0159459
722.390	0.0159530
722.468	0.0160670
722.547	0.0158641
722.625	0.0160083
722.703	0.0160567
722.781	0.0159301
722.859	0.0158566
722.937	0.0159622
723.015	0.0160100
723.093	0.0159380
723.172	0.0159865
723.250	0.0158722
723.328	0.0157619
723.406	0.0160400
723.484	0.0159888
723.562	0.0158633
723.640	0.0160162
723.718	0.0159547
723.797	0.0159886
723.875	0.0159015
723.953	0.0160541
724.031	0.0158537
724.109	0.0158347
724.187	0.0158759
724.265	0.0160017
724.343	0.0159804
724.422	0.0158640
724.500	0.0159592
724.578	0.0159814
724.656	0.0157207
724.734	0.0158733
724.812	0.0159538
724.890	0.0158483
724.968	0.0158064
725.047	0.0158018
725.125	0.0158686
725.203	0.0157613
725.281	0.0157515
725.359	0.0158967
725.437	0.0157403
725.515	0.0158978
725.593	0.0157903
725.672	0.0158716
725.750	0.0158711
725.828	0.0157681
725.906	0.0158293
725.984	0.0158417
726.062	0.0157624
726.140	0.0159040
726.218	0.0160444
726.297	0.0157816
726.375	0.0158556
726.453	0.0158134
726.531	0.0158956
726.609	0.0158289
726.687	0.0158472
726.765	0.0157576
726.843	0.0159375
726.922	0.0159554
727.000	0.0159289
727.078	0.0158390
727.156	0.0159019
727.234	0.0159660
727.312	0.0158478
727.390	0.0158936
727.468	0.0158593
727.547	0.0159264
727.625	0.0159509
727.703	0.0159167
727.781	0.0156992
727.859	0.0157719
727.937	0.0158308
728.015	0.0157684
728.093	0.0158611
728.172	0.0156930
728.250	0.0158607
728.328	0.0158577
728.406	0.0157453
728.484	0.0157690
728.562	0.0157686
728.640	0.0158408
728.718	0.0158384
728.797	0.0158136
728.875	0.0158077
728.953	0.0159211
729.031	0.0158582
729.109	0.0158286
729.187	0.0158051
729.265	0.0159188
729.343	0.0158193
729.422	0.0158150
729.500	0.0159335
729.578	0.0157873
729.656	0.0158365
729.734	0.0157262
729.812	0.0158523
729.890	0.0157918
729.968	0.0158926
730.047	0.0160043
730.125	0.0158778
730.203	0.0157832
730.281	0.0159737
730.359	0.0158210
730.437	0.0158019
730.515	0.0159341
730.593	0.0159199
730.672	0.0159954
730.750	0.0157575
730.828	0.0158126
730.906	0.0158559
730.984	0.0160225
731.062	0.0159692
731.140	0.0159165
731.218	0.0156929
731.297	0.0159677
731.375	0.0160108
731.453	0.0158852
731.531	0.0157578
731.609	0.0158175
731.687	0.0159883
731.765	0.0157365
731.843	0.0158382
731.922	0.0159245
732.000	0.0158209
732.078	0.0158926
732.156	0.0158735
732.234	0.0157698
732.312	0.0158292
732.390	0.0160277
732.468	0.0159413
732.547	0.0157730
732.625	0.0157400
732.703	0.0159733
732.781	0.0158131
732.859	0.0159299
732.937	0.0158949
733.015	0.0157246
733.093	0.0157737
733.172	0.0158013
733.250	0.0159532
733.328	0.0158868
733.406	0.0158784
733.484	0.0160314
733.562	0.0158976
733.640	0.0157932
733.718	0.0157794
733.797	0.0158962
733.875	0.0159461
733.953	0.0159151
734.031	0.0159372
734.109	0.0159064
734.187	0.0159827
734.265	0.0159939
734.343	0.0159380
734.422	0.0160389
734.500	0.0158791
734.578	0.0158721
734.656	0.0159270
734.734	0.0160110
734.812	0.0158865
734.890	0.0157526
734.968	0.0159093
735.047	0.0159565
735.125	0.0160157
735.203	0.0159923
735.281	0.0157806
735.359	0.0158965
735.437	0.0158670
735.515	0.0160159
735.593	0.0158084
735.672	0.0158655
735.750	0.0158881
735.828	0.0156989
735.906	0.0157545
735.984	0.0158901
736.062	0.0158295
736.140	0.0157660
736.218	0.0157722
736.297	0.0158456
736.375	0.0158589
736.453	0.0157279
736.531	0.0158706
736.609	0.0157501
736.687	0.0158547
736.765	0.0159654
736.843	0.0159385
736.922	0.0160484
737.000	0.0160157
737.078	0.0158453
737.156	0.0159137
737.234	0.0159758
737.312	0.0159290
737.390	0.0158719
737.468	0.0160358
737.547	0.0158949
737.625	0.0160160
737.703	0.0158446
737.781	0.0159250
737.859	0.0159060
737.937	0.0159727
738.015	0.0160155
738.093	0.0159402
738.172	0.0159512
738.250	0.0160446
738.328	0.0159014
738.406	0.0158936
738.484	0.0158833
738.562	0.0160129
738.640	0.0160152
738.718	0.0160957
738.797	0.0159752
738.875	0.0161378
738.953	0.0160826
739.031	0.0158839
739.109	0.0159481
739.187	0.0160670
739.265	0.0160954
739.343	0.0160157
739.422	0.0160690
739.500	0.0160167
739.578	0.0160171
739.656	0.0159699
739.734	0.0159522
739.812	0.0158956
739.890	0.0160541
739.968	0.0160261
740.047	0.0160136
740.125	0.0161784
740.203	0.0160786
740.281	0.0159570
740.359	0.0161115
740.437	0.0160474
740.515	0.0160271
740.593	0.0160067
740.672	0.0159878
740.750	0.0160042
740.828	0.0160043
740.906	0.0160307
740.984	0.0161090
741.062	0.0160619
741.140	0.0159924
741.218	0.0160358
741.297	0.0160355
741.375	0.0159243
741.453	0.0159609
741.531	0.0160168
741.609	0.0159605
741.687	0.0159531
741.765	0.0160152
741.843	0.0159397
741.922	0.0159506
742.000	0.0158492
742.078	0.0158189
742.156	0.0159714
742.234	0.0160496
742.312	0.0161244
742.390	0.0158862
742.468	0.0160440
742.547	0.0160857
742.625	0.0159859
742.703	0.0158870
742.781	0.0160573
742.859	0.0161476
742.937	0.0160680
743.015	0.0160642
743.093	0.0161014
743.172	0.0159367
743.250	0.0160114
743.328	0.0161461
743.406	0.0160654
743.484	0.0160278
743.562	0.0160018
743.640	0.0161477
743.718	0.0161316
743.797	0.0160352
743.875	0.0160327
743.953	0.0159575
744.031	0.0158489
744.109	0.0159074
744.187	0.0160362
744.265	0.0157594
744.343	0.0159579
744.422	0.0159950
744.500	0.0159600
744.578	0.0159877
744.656	0.0160326
744.734	0.0161076
744.812	0.0161062
744.890	0.0161176
744.968	0.0160058
745.047	0.0159727
745.125	0.0160040
745.203	0.0160927
745.281	0.0160840
745.359	0.0161292
745.437	0.0161706
745.515	0.0160281
745.593	0.0159958
745.672	0.0160653
745.750	0.0159616
745.828	0.0159907
745.906	0.0160419
745.984	0.0160511
746.062	0.0158868
746.140	0.0160294
746.218	0.0159863
746.297	0.0160217
746.375	0.0160724
746.453	0.0160496
746.531	0.0158775
746.609	0.0160052
746.687	0.0161059
746.765	0.0158466
746.843	0.0159082
746.922	0.0160410
747.000	0.0160384
747.078	0.0158913
747.156	0.0159148
747.234	0.0159034
747.312	0.0159823
747.390	0.0159119
747.468	0.0159156
747.547	0.0161185
747.625	0.0160225
747.703	0.0159698
747.781	0.0158510
747.859	0.0160232
747.937	0.0159583
748.015	0.0160565
748.093	0.0159769
748.172	0.0160078
748.250	0.0159483
748.328	0.0158973
748.406	0.0160207
748.484	0.0160419
748.562	0.0159875
748.640	0.0157503
748.718	0.0158551
748.797	0.0159402
748.875	0.0158886
748.953	0.0158752
749.031	0.0158126
749.109	0.0159464
749.187	0.0158980
749.265	0.0157971
749.343	0.0158858
749.422	0.0158379
749.500	0.0159048
749.578	0.0157354
749.656	0.0158224
749.734	0.0158455
749.812	0.0158365
749.890	0.0159441
749.968	0.0157534
750.047	0.0158398
750.125	0.0158330
750.203	0.0159330
750.281	0.0158470
750.359	0.0158087
750.437	0.0158572
750.515	0.0158986
750.593	0.0159755
750.672	0.0159274
750.750	0.0158580
750.828	0.0159392
750.906	0.0159848
750.984	0.0159586
751.062	0.0158064
751.140	0.0157957
751.218	0.0159115
751.297	0.0158875
751.375	0.0158947
751.453	0.0158084
751.531	0.0159598
751.609	0.0160240
751.687	0.0158540
751.765	0.0157424
751.843	0.0158390
751.922	0.0158430
752.000	0.0158488
752.078	0.0158385
752.156	0.0158237
752.234	0.0157373
752.312	0.0157950
752.390	0.0157722
752.468	0.0157796
752.547	0.0158601
752.625	0.0157603
752.703	0.0157800
752.781	0.0157752
752.859	0.0157896
752.937	0.0157494
753.015	0.0157570
753.093	0.0157426
753.172	0.0157364
753.250	0.0157563
753.328	0.0157935
753.406	0.0156731
753.484	0.0158241
753.562	0.0159188
753.640	0.0158609
753.718	0.0158231
753.797	0.0157658
753.875	0.0158400
753.953	0.0158759
754.031	0.0158230
754.109	0.0158718
754.187	0.0158556
754.265	0.0159203
754.343	0.0158817
754.422	0.0158068
754.500	0.0156871
754.578	0.0157658
754.656	0.0158302
754.734	0.0158012
754.812	0.0158666
754.890	0.0158622
754.968	0.0158110
755.047	0.0158324
755.125	0.0158421
755.203	0.0157906
755.281	0.0158570
755.359	0.0157716
755.437	0.0158280
755.515	0.0158611
755.593	0.0158659
755.672	0.0158088
755.750	0.0157772
755.828	0.0157733
755.906	0.0157822
755.984	0.0158102
756.062	0.0157870
756.140	0.0158115
756.218	0.0158426
756.297	0.0158282
756.375	0.0157719
756.453	0.0159348
756.531	0.0158324
756.609	0.0157241
756.687	0.0156836
756.765	0.0159143
756.843	0.0156955
756.922	0.0158310
757.000	0.0157949
757.078	0.0157997
757.156	0.0157455
757.234	0.0157484
757.312	0.0158443
757.390	0.0158775
757.468	0.0158714
757.547	0.0159499
757.625	0.0158423
757.703	0.0159438
757.781	0.0158471
757.859	0.0158642
757.937	0.0159100
758.015	0.0159441
758.093	0.0159137
758.172	0.0159105
758.250	0.0159543
758.328	0.0159253
758.406	0.0158772
758.484	0.0159373
758.562	0.0158688
758.640	0.0159894
758.718	0.0159143
758.797	0.0159484
758.875	0.0158765
758.953	0.0158151
759.031	0.0159512
759.109	0.0157738
759.187	0.0157449
759.265	0.0158253
759.343	0.0156971
759.422	0.0157587
759.500	0.0159079
759.578	0.0158517
759.656	0.0157806
759.734	0.0157834
759.812	0.0156880
759.890	0.0158365
759.968	0.0157834
760.047	0.0157143
760.125	0.0158657
760.203	0.0158832
760.281	0.0159668
760.359	0.0158900
760.437	0.0159064
760.515	0.0159471
760.593	0.0159090
760.672	0.0159727
760.750	0.0160035
760.828	0.0160078
760.906	0.0158634
760.984	0.0158778
761.062	0.0160190
761.140	0.0159909
761.218	0.0161192
761.297	0.0159769
761.375	0.0159959
761.453	0.0160829
761.531	0.0158790
761.609	0.0158570
761.687	0.0158447
761.765	0.0159634
761.843	0.0158516
761.922	0.0158913
762.000	0.0159430
762.078	0.0159344
762.156	0.0159991
762.234	0.0158424
762.312	0.0158907
762.390	0.0157460
762.468	0.0159599
762.547	0.0159293
762.625	0.0160178
762.703	0.0158218
762.781	0.0159200
762.859	0.0159015
762.937	0.0159776
763.015	0.0159985
763.093	0.0158515
763.172	0.0158640
763.250	0.0159140
763.328	0.0157672
763.406	0.0156316
763.484	0.0157747
763.562	0.0158723
763.640	0.0157983
763.718	0.0156408
763.797	0.0157961
763.875	0.0157455
763.953	0.0157684
764.031	0.0158981
764.109	0.0158069
764.187	0.0158209
764.265	0.0158282
764.343	0.0158043
764.422	0.0159295
764.500	0.0159709
764.578	0.0158900
764.656	0.0161303
764.734	0.0159714
764.812	0.0160186
764.890	0.0160735
764.968	0.0160075
765.047	0.0158472
765.125	0.0160298
765.203	0.0161004
765.281	0.0159507
765.359	0.0160040
765.437	0.0159694
765.515	0.0160748
765.593	0.0160163
765.672	0.0160748
765.750	0.0160392
765.828	0.0159746
765.906	0.0160989
765.984	0.0161292
766.062	0.0160635
766.140	0.0159951
766.218	0.0160241
766.297	0.0160663
766.375	0.0161150
766.453	0.0159127
766.531	0.0160291
766.609	0.0160345
766.687	0.0160441
766.765	0.0159496
766.843	0.0160684
766.922	0.0160550
767.000	0.0159375
767.078	0.0160571
767.156	0.0160064
767.234	0.0159619
767.312	0.0159945
767.390	0.0159079
767.468	0.0159155
767.547	0.0160178
767.625	0.0160076
767.703	0.0159062
767.781	0.0158775
767.859	0.0158273
767.937	0.0159202
768.015	0.0159324
768.093	0.0160235
768.172	0.0160316
768.250	0.0158722
768.328	0.0159225
768.406	0.0159396
768.484	0.0159949
768.562	0.0158385
768.640	0.0159837
768.718	0.0160714
768.797	0.0160221
768.875	0.0159672
768.953	0.0160088
769.031	0.0159875
769.109	0.0159116
769.187	0.0159686
769.265	0.0157293
769.343	0.0159148
769.422	0.0158878
769.500	0.0158891
769.578	0.0159534
769.656	0.0157901
769.734	0.0159773
769.812	0.0160320
769.890	0.0159402
769.968	0.0159947
770.047	0.0159458
770.125	0.0160710
770.203	0.0162173
770.281	0.0160668
770.359	0.0160480
770.437	0.0161338
770.515	0.0160131
770.593	0.0160768
770.672	0.0160683
770.750	0.0161422
770.828	0.0161316
770.906	0.0159390
770.984	0.0160979
771.062	0.0160398
771.140	0.0160132
771.218	0.0159058
771.297	0.0159146
771.375	0.0160040
771.453	0.0160839
771.531	0.0159328
771.609	0.0159369
771.687	0.0160041
771.765	0.0160418
771.843	0.0159843
771.922	0.0159995
772.000	0.0159824
772.078	0.0160050
772.156	0.0159707
772.234	0.0159322
772.312	0.0160447
772.390	0.0158659
772.468	0.0159423
772.547	0.0158953
772.625	0.0157583
772.703	0.0157632
772.781	0.0157210
772.859	0.0157447
772.937	0.0158316
773.015	0.0158681
773.093	0.0158015
773.172	0.0158075
773.250	0.0157664
773.328	0.0158091
773.406	0.0157664
773.484	0.0158905
773.562	0.0157242
773.640	0.0156763
773.718	0.0158088
773.797	0.0158334
773.875	0.0157134
773.953	0.0158282
774.031	0.0158889
774.109	0.0160451
774.187	0.0159396
774.265	0.0160435
774.343	0.0160621
774.422	0.0159710
774.500	0.0159998
774.578	0.0158939
774.656	0.0160157
774.734	0.0159284
774.812	0.0159505
774.890	0.0159341
774.968	0.0160344
775.047	0.0159840
775.125	0.0160429
775.203	0.0159437
775.281	0.0158918
775.359	0.0160107
775.437	0.0159302
775.515	0.0159210
775.593	0.0160320
775.672	0.0159933
775.750	0.0158398
775.828	0.0158739
775.906	0.0158998
775.984	0.0158856
776.062	0.0157731
776.140	0.0158951
776.218	0.0158102
776.297	0.0157270
776.375	0.0157420
776.453	0.0158342
776.531	0.0158236
776.609	0.0156974
776.687	0.0157049
776.765	0.0159075
776.843	0.0157347
776.922	0.0157665
777.000	0.0158427
777.078	0.0158316
777.156	0.0158958
777.234	0.0160104
777.312	0.0160772
777.390	0.0158616
777.468	0.0159343
777.547	0.0158858
777.625	0.0158845
777.703	0.0161401
777.781	0.0161321
777.859	0.0160342
777.937	0.0161246
778.015	0.0160706
778.093	0.0159602
778.172	0.0160519
778.250	0.0160124
778.328	0.0159837
778.406	0.0159728
778.484	0.0160106
778.562	0.0159306
778.640	0.0157315
778.718	0.0158861
778.797	0.0158444
778.875	0.0158591
778.953	0.0157417
779.031	0.0159410
779.109	0.0158962
779.187	0.0158618
779.265	0.0158781
779.343	0.0160086
779.422	0.0159965
779.500	0.0158858
779.578	0.0161043
779.656	0.0159899
779.734	0.0160473
779.812	0.0162094
779.890	0.0159567
779.968	0.0160459
780.047	0.0161394
780.125	0.0160805
780.203	0.0161652
780.281	0.0160272
780.359	0.0159609
780.437	0.0161259
780.515	0.0159189
780.593	0.0161078
780.672	0.0158838
780.750	0.0158934
780.828	0.0160155
780.906	0.0158430
780.984	0.0158347
781.062	0.0159626
781.140	0.0158458
781.218	0.0157987
781.297	0.0157039
781.375	0.0158607
781.453	0.0156184
781.531	0.0156754
781.609	0.0157637
781.687	0.0156638
781.765	0.0158250
781.843	0.0158009
781.922	0.0156031
782.000	0.0157925
782.078	0.0158333
782.156	0.0159065
782.234	0.0156507
782.312	0.0156982
782.390	0.0156525
782.468	0.0157928
782.547	0.0157674
782.625	0.0158788
782.703	0.0158502
782.781	0.0158013
782.859	0.0157653
782.937	0.0159942
783.015	0.0159866
783.093	0.0158392
783.172	0.0159511
783.250	0.0159243
783.328	0.0158754
783.406	0.0160320
783.484	0.0159705
783.562	0.0158783
783.640	0.0161130
783.718	0.0161473
783.797	0.0160080
783.875	0.0161533
783.953	0.0160965
784.031	0.0159311
784.109	0.0162099
784.187	0.0160723
784.265	0.0160236
784.343	0.0160619
784.422	0.0159241
784.500	0.0158717
784.578	0.0160336
784.656	0.0159980
784.734	0.0159805
784.812	0.0159110
784.890	0.0158318
784.968	0.0160666
785.047	0.0160748
785.125	0.0158207
785.203	0.0158307
785.281	0.0158610
785.359	0.0158488
785.437	0.0158672
785.515	0.0159667
785.593	0.0158167
785.672	0.0158749
785.750	0.0159135
785.828	0.0157840
785.906	0.0157153
785.984	0.0158572
786.062	0.0157526
786.140	0.0157790
786.218	0.0157468
786.297	0.0158437
786.375	0.0157009
786.453	0.0157332
786.531	0.0158252
786.609	0.0157714
786.687	0.0157444
786.765	0.0160366
786.843	0.0158939
786.922	0.0158652
787.000	0.0158285
787.078	0.0157928
787.156	0.0157964
787.234	0.0158452
787.312	0.0159033
787.390	0.0159015
787.468	0.0159319
787.547	0.0160100
787.625	0.0159470
787.703	0.0160014
787.781	0.0160498
787.859	0.0160078
787.937	0.0160204
788.015	0.0161468
788.093	0.0160486
788.172	0.0161240
788.250	0.0161411
788.328	0.0161534
788.406	0.0160389
788.484	0.0161403
788.562	0.0161437
788.640	0.0160382
788.718	0.0159864
788.797	0.0159463
788.875	0.0160895
788.953	0.0161012
789.031	0.0159733
789.109	0.0159436
789.187	0.0159394
789.265	0.0159383
789.343	0.0160472
789.422	0.0159212
789.500	0.0159791
789.578	0.0159283
789.656	0.0159621
789.734	0.0158498
789.812	0.0159048
789.890	0.0158353
789.968	0.0159233
790.047	0.0158674
790.125	0.0158846
790.203	0.0157819
790.281	0.0157677
790.359	0.0158092
790.437	0.0156885
790.515	0.0156866
790.593	0.0157434
790.672	0.0157212
790.750	0.0156640
790.828	0.0158207
790.906	0.0158598
790.984	0.0158006
791.062	0.0157199
791.140	0.0158649
791.218	0.0158459
791.297	0.0158573
791.375	0.0158112
791.453	0.0158935
791.531	0.0157901
791.609	0.0158339
791.687	0.0157932
791.765	0.0157928
791.843	0.0158947
791.922	0.0158929
792.000	0.0157934
792.078	0.0158832
792.156	0.0160229
792.234	0.0159039
792.312	0.0160115
792.390	0.0159769
792.468	0.0159533
792.547	0.0159204
792.625	0.0161011
792.703	0.0160172
792.781	0.0160703
792.859	0.0160246
792.937	0.0159190
793.015	0.0159489
793.093	0.0159495
793.172	0.0159354
793.250	0.0159523
793.328	0.0157478
793.406	0.0158667
793.484	0.0159290
793.562	0.0159204
793.640	0.0158825
793.718	0.0158317
793.797	0.0159160
793.875	0.0157765
793.953	0.0157931
794.031	0.0158036
794.109	0.0157313
794.187	0.0160071
794.265	0.0159871
794.343	0.0158006
794.422	0.0157754
794.500	0.0157684
794.578	0.0157192
794.656	0.0157928
794.734	0.0158639
794.812	0.0158077
794.890	0.0158817
794.968	0.0157820
795.047	0.0157732
795.125	0.0158508
795.203	0.0157717
795.281	0.0158873
795.359	0.0157131
795.437	0.0157068
795.515	0.0158977
795.593	0.0158479
795.672	0.0157989
795.750	0.0156589
795.828	0.0157893
795.906	0.0158163
795.984	0.0157763
796.062	0.0157457
796.140	0.0156631
796.218	0.0157919
796.297	0.0158850
796.375	0.0159192
796.453	0.0159098
796.531	0.0160244
796.609	0.0159643
796.687	0.0159830
796.765	0.0161703
796.843	0.0160360
796.922	0.0160267
797.000	0.0160973
797.078	0.0161301
797.156	0.0160396
797.234	0.0160598
797.312	0.0160877
797.390	0.0161783
797.468	0.0161588
797.547	0.0161648
797.625	0.0160958
797.703	0.0160983
797.781	0.0159266
797.859	0.0159399
797.937	0.0160487
798.015	0.0159138
798.093	0.0159039
798.172	0.0158854
798.250	0.0159013
798.328	0.0158173
798.406	0.0158072
798.484	0.0158145
798.562	0.0156661
798.640	0.0157787
798.718	0.0158240
798.797	0.0158083
798.875	0.0157562
798.953	0.0158745
799.031	0.0156771
799.109	0.0157457
799.187	0.0157828
799.265	0.0158171
799.343	0.0157127
799.422	0.0156802
799.500	0.0158815
799.578	0.0159133
799.656	0.0158558
799.734	0.0158413
799.812	0.0158041
799.890	0.0159400
799.968	0.0159117
800.047	0.0159542
800.125	0.0159068
800.203	0.0159876
800.281	0.0159632
800.359	0.0158081
800.437	0.0159756
800.515	0.0160168
800.593	0.0157839
800.672	0.0159315
800.750	0.0161057
800.828	0.0161245
800.906	0.0160904
800.984	0.0160533
801.062	0.0161377
801.140	0.0160243
801.218	0.0160516
801.297	0.0162279
801.375	0.0161467
801.453	0.0161089
801.531	0.0161285
801.609	0.0160293
801.687	0.0161166
801.765	0.0160587
801.843	0.0159572
801.922	0.0160172
802.000	0.0159516
802.078	0.0158533
802.156	0.0159565
802.234	0.0158786
802.312	0.0157872
802.390	0.0157171
802.468	0.0157828
802.547	0.0158590
802.625	0.0158029
802.703	0.0158204
802.781	0.0158682
802.859	0.0156362
802.937	0.0157274
803.015	0.0158051
803.093	0.0158804
803.172	0.0157769
803.250	0.0158620
803.328	0.0159007
803.406	0.0159361
803.484	0.0158659
803.562	0.0158461
803.640	0.0158611
803.718	0.0158082
803.797	0.0158637
803.875	0.0159015
803.953	0.0157769
804.031	0.0158282
804.109	0.0158443
804.187	0.0159021
804.265	0.0158880
804.343	0.0158077
804.422	0.0158422
804.500	0.0159528
804.578	0.0160194
804.656	0.0159026
804.734	0.0160011
804.812	0.0159539
804.890	0.0159291
804.968	0.0158948
805.047	0.0160849
805.125	0.0159976
805.203	0.0159628
805.281	0.0160047
805.359	0.0161196
805.437	0.0161342
805.515	0.0160107
805.593	0.0159940
805.672	0.0161434
805.750	0.0160374
805.828	0.0160159
805.906	0.0159724
805.984	0.0160864
806.062	0.0159902
806.140	0.0159638
806.218	0.0159295
806.297	0.0160042
806.375	0.0159729
806.453	0.0158061
806.531	0.0158712
806.609	0.0158833
806.687	0.0158363
806.765	0.0157154
806.843	0.0158657
806.922	0.0157716
807.000	0.0158835
807.078	0.0158377
807.156	0.0158077
807.234	0.0156940
807.312	0.0157999
807.390	0.0157290
807.468	0.0156796
807.547	0.0157642
807.625	0.0159203
807.703	0.0157903
807.781	0.0157051
807.859	0.0158424
807.937	0.0159140
808.015	0.0157498
808.093	0.0158168
808.172	0.0158395
808.250	0.0158888
808.328	0.0159123
808.406	0.0159041
808.484	0.0160526
808.562	0.0159433
808.640	0.0161171
808.718	0.0160782
808.797	0.0161211
808.875	0.0160257
808.953	0.0161570
809.031	0.0162060
809.109	0.0161154
809.187	0.0161185
809.265	0.0161962
809.343	0.0160934
809.422	0.0160984
809.500	0.0161844
809.578	0.0160949
809.656	0.0161053
809.734	0.0160923
809.812	0.0159923
809.890	0.0160372
809.968	0.0160549
810.047	0.0159029
810.125	0.0159573
810.203	0.0158602
810.281	0.0158472
810.359	0.0158023
810.437	0.0158454
810.515	0.0157134
810.593	0.0158354
810.672	0.0156336
810.750	0.0157703
810.828	0.0157771
810.906	0.0157736
810.984	0.0158804
811.062	0.0157676
811.140	0.0157681
811.218	0.0157724
811.297	0.0158573
811.375	0.0158311
811.453	0.0158260
811.531	0.0159976
811.609	0.0159098
811.687	0.0159038
811.765	0.0158691
811.843	0.0159224
811.922	0.0159702
812.000	0.0159494
812.078	0.0158833
812.156	0.0158902
812.234	0.0159305
812.312	0.0159464
812.390	0.0159039
812.468	0.0159960
812.547	0.0158879
812.625	0.0158825
812.703	0.0159435
812.781	0.0160872
812.859	0.0160596
812.937	0.0158829
813.015	0.0159557
813.093	0.0160245
813.172	0.0159692
813.250	0.0160834
813.328	0.0158912
813.406	0.0159176
813.484	0.0159944
813.562	0.0159409
813.640	0.0159687
813.718	0.0159997
813.797	0.0159373
813.875	0.0159100
813.953	0.0158740
814.031	0.0159290
814.109	0.0160122
814.187	0.0159671
814.265	0.0159275
814.343	0.0158493
814.422	0.0161001
814.500	0.0158572
814.578	0.0159171
814.656	0.0158544
814.734	0.0159607
814.812	0.0158096
814.890	0.0158579
814.968	0.0158274
815.047	0.0157720
815.125	0.0158484
815.203	0.0159048
815.281	0.0156653
815.359	0.0157085
815.437	0.0158360
815.515	0.0158208
815.593	0.0155888
815.672	0.0156758
815.750	0.0157075
815.828	0.0157205
815.906	0.0157467
815.984	0.0156626
816.062	0.0156449
816.140	0.0157687
816.218	0.0157789
816.297	0.0156745
816.375	0.0158208
816.453	0.0156689
816.531	0.0156950
816.609	0.0155614
816.687	0.0157938
816.765	0.0158262
816.843	0.0158014
816.922	0.0159717
817.000	0.0158662
817.078	0.0158443
817.156	0.0160136
817.234	0.0160827
817.312	0.0160653
817.390	0.0159762
817.468	0.0159649
817.547	0.0160374
817.625	0.0159208
817.703	0.0159901
817.781	0.0159271
817.859	0.0160439
817.937	0.0159536
818.015	0.0158950
818.093	0.0158205
818.172	0.0159812
818.250	0.0158809
818.328	0.0159106
818.406	0.0158884
818.484	0.0159983
818.562	0.0159135
818.640	0.0159251
818.718	0.0157793
818.797	0.0156853
818.875	0.0158100
818.953	0.0157478
819.031	0.0157896
819.109	0.0158749
819.187	0.0158006
819.265	0.0157101
819.343	0.0157603
819.422	0.0158042
819.500	0.0157578
819.578	0.0157548
819.656	0.0157166
819.734	0.0158736
819.812	0.0156133
819.890	0.0155622
819.968	0.0156733
820.047	0.0157022
820.125	0.0156332
820.203	0.0156055
820.281	0.0156423
820.359	0.0155507
820.437	0.0156858
820.515	0.0157412
820.593	0.0157448
820.672	0.0158091
820.750	0.0157997
820.828	0.0159216
820.906	0.0158099
820.984	0.0158332
821.062	0.0159190
821.140	0.0159972
821.218	0.0160416
821.297	0.0160254
821.375	0.0160783
821.453	0.0161115
821.531	0.0161232
821.609	0.0161662
821.687	0.0162188
821.765	0.0160955
821.843	0.0160893
821.922	0.0159857
822.000	0.0159791
822.078	0.0160448
822.156	0.0161464
822.234	0.0160351
822.312	0.0158720
822.390	0.0158976
822.468	0.0158646
822.547	0.0158054
822.625	0.0157084
822.703	0.0157693
822.781	0.0157539
822.859	0.0156664
822.937	0.0156654
823.015	0.0156190
823.093	0.0156057
823.172	0.0155603
823.250	0.0155856
823.328	0.0156321
823.406	0.0157261
823.484	0.0155769
823.562	0.0156197
823.640	0.0156963
823.718	0.0156285
823.797	0.0158237
823.875	0.0157217
823.953	0.0158124
824.031	0.0159936
824.109	0.0159679
824.187	0.0160602
824.265	0.0159668
824.343	0.0159653
824.422	0.0160487
824.500	0.0161597
824.578	0.0162022
824.656	0.0162908
824.734	0.0160951
824.812	0.0160870
824.890	0.0161298
824.968	0.0161976
825.047	0.0161492
825.125	0.0160249
825.203	0.0160049
825.281	0.0159573
825.359	0.0158434
825.437	0.0160089
825.515	0.0159225
825.593	0.0157172
825.672	0.0158880
825.750	0.0156958
825.828	0.0156678
825.906	0.0157043
825.984	0.0155935
826.062	0.0155315
826.140	0.0156502
826.218	0.0155911
826.297	0.0155679
826.375	0.0154886
826.453	0.0155385
826.531	0.0156374
826.609	0.0156819
826.687	0.0157021
826.765	0.0158613
826.843	0.0158052
826.922	0.0158502
827.000	0.0158162
827.078	0.0159055
827.156	0.0159611
827.234	0.0159759
827.312	0.0159124
827.390	0.0160946
827.468	0.0161226
827.547	0.0162199
827.625	0.0160857
827.703	0.0162366
827.781	0.0161867
827.859	0.0160992
827.937	0.0162304
828.015	0.0161459
828.093	0.0160740
828.172	0.0161060
828.250	0.0160738
828.328	0.0161989
828.406	0.0160387
828.484	0.0158800
828.562	0.0158788
828.640	0.0158541
828.718	0.0159264
828.797	0.0156519
828.875	0.0157063
828.953	0.0155800
829.031	0.0156468
829.109	0.0156248
829.187	0.0155867
829.265	0.0156997
829.343	0.0157549
829.422	0.0156693
829.500	0.0154660
829.578	0.0157095
829.656	0.0156238
829.734	0.0155981
829.812	0.0157912
829.890	0.0157893
829.968	0.0157468
830.047	0.0157705
830.125	0.0158707
830.203	0.0160564
830.281	0.0160084
830.359	0.0160466
830.437	0.0160383
830.515	0.0162057
830.593	0.0161869
830.672	0.0161150
830.750	0.0160160
830.828	0.0161306
830.906	0.0160904
830.984	0.0160916
831.062	0.0160566
831.140	0.0159382
831.218	0.0158392
831.297	0.0159245
831.375	0.0158218
831.453	0.0158273
831.531	0.0158379
831.609	0.0159069
831.687	0.0158512
831.765	0.0157945
831.843	0.0159428
831.922	0.0158723
832.000	0.0157871
832.078	0.0158578
832.156	0.0159007
832.234	0.0159103
832.312	0.0157697
832.390	0.0159174
832.468	0.0159874
832.547	0.0159106
832.625	0.0159689
832.703	0.0160114
832.781	0.0159872
832.859	0.0160736
832.937	0.0160379
833.015	0.0160326
833.093	0.0160287
833.172	0.0160075
833.250	0.0160120
833.328	0.0160817
833.406	0.0160980
833.484	0.0159021
833.562	0.0159587
833.640	0.0159960
833.718	0.0160935
833.797	0.0158619
833.875	0.0160350
833.953	0.0158231
834.031	0.0157934
834.109	0.0158961
834.187	0.0158874
834.265	0.0158481
834.343	0.0159784
834.422	0.0159627
834.500	0.0157841
834.578	0.0158681
834.656	0.0158109
834.734	0.0158473
834.812	0.0158108
834.890	0.0156809
834.968	0.0158770
835.047	0.0158769
835.125	0.0159481
835.203	0.0159138
835.281	0.0160766
835.359	0.0160226
835.437	0.0159892
835.515	0.0159103
835.593	0.0159383
835.672	0.0160463
835.750	0.0159541
835.828	0.0160513
835.906	0.0160209
835.984	0.0159212
836.062	0.0159435
836.140	0.0158455
836.218	0.0158239
836.297	0.0159203
836.375	0.0157964
836.453	0.0158462
836.531	0.0158853
836.609	0.0157883
836.687	0.0157019
836.765	0.0156837
836.843	0.0157950
836.922	0.0156103
837.000	0.0156720
837.078	0.0157268
837.156	0.0156982
837.234	0.0157118
837.312	0.0156645
837.390	0.0157610
837.468	0.0159341
837.547	0.0160597
837.625	0.0158947
837.703	0.0159155
837.781	0.0159577
837.859	0.0159351
837.937	0.0160429
838.015	0.0159720
838.093	0.0159978
838.172	0.0161006
838.250	0.0161852
838.328	0.0162153
838.406	0.0161248
838.484	0.0162439
838.562	0.0160752
838.640	0.0160821
838.718	0.0160934
838.797	0.0160760
838.875	0.0160953
838.953	0.0161695
839.031	0.0161274
839.109	0.0160719
839.187	0.0161591
839.265	0.0160762
839.343	0.0161685
839.422	0.0160058
839.500	0.0159814
839.578	0.0159773
839.656	0.0160934
839.734	0.0160207
839.812	0.0160605
839.890	0.0159367
839.968	0.0158052
840.047	0.0158629
840.125	0.0157670
840.203	0.0158623
840.281	0.0157041
840.359	0.0157710
840.437	0.0158667
840.515	0.0156340
840.593	0.0157184
840.672	0.0155701
840.750	0.0157317
840.828	0.0157040
840.906	0.0158228
840.984	0.0158208
841.062	0.0158564
841.140	0.0159422
841.218	0.0158446
841.297	0.0159324
841.375	0.0159943
841.453	0.0158844
841.531	0.0159997
841.609	0.0160009
841.687	0.0162214
841.765	0.0162085
841.843	0.0161406
841.922	0.0161172
842.000	0.0161929
842.078	0.0160558
842.156	0.0161412
842.234	0.0162906
842.312	0.0161170
842.390	0.0161404
842.468	0.0161924
842.547	0.0161712
842.625	0.0160660
842.703	0.0161498
842.781	0.0160665
842.859	0.0158787
842.937	0.0159776
843.015	0.0160740
843.093	0.0158870
843.172	0.0158804
843.250	0.0157848
843.328	0.0158553
843.406	0.0159428
843.484	0.0158630
843.562	0.0157529
843.640	0.0156941
843.718	0.0159338
843.797	0.0158750
843.875	0.0158237
843.953	0.0156519
844.031	0.0157231
844.109	0.0158085
844.187	0.0157929
844.265	0.0157407
844.343	0.0157944
844.422	0.0158121
844.500	0.0157986
844.578	0.0159027
844.656	0.0158150
844.734	0.0158147
844.812	0.0158196
844.890	0.0157565
844.968	0.0158743
845.047	0.0158497
845.125	0.0159000
845.203	0.0159361
845.281	0.0158498
845.359	0.0158135
845.437	0.0159296
845.515	0.0160573
845.593	0.0159859
845.672	0.0160262
845.750	0.0161478
845.828	0.0161117
845.906	0.0160804
845.984	0.0160118
846.062	0.0158733
846.140	0.0159940
846.218	0.0161882
846.297	0.0160732
846.375	0.0158936
846.453	0.0158031
846.531	0.0157805
846.609	0.0159365
846.687	0.0158128
846.765	0.0156592
846.843	0.0156848
846.922	0.0155951
847.000	0.0156665
847.078	0.0156644
847.156	0.0156815
847.234	0.0158289
847.312	0.0155955
847.390	0.0156234
847.468	0.0157466
847.547	0.0159068
847.625	0.0158398
847.703	0.0158469
847.781	0.0158053
847.859	0.0158177
847.937	0.0158305
848.015	0.0158758
848.093	0.0156882
848.172	0.0158172
848.250	0.0159397
848.328	0.0158291
848.406	0.0158582
848.484	0.0158803
848.562	0.0157717
848.640	0.0158945
848.718	0.0157839
848.797	0.0156973
848.875	0.0157977
848.953	0.0158108
849.031	0.0156615
849.109	0.0159541
849.187	0.0157439
849.265	0.0158508
849.343	0.0158310
849.422	0.0159881
849.500	0.0159464
849.578	0.0158057
849.656	0.0160470
849.734	0.0159878
849.812	0.0160320
849.890	0.0160114
849.968	0.0159793
850.047	0.0161300
850.125	0.0161382
850.203	0.0160640
850.281	0.0161279
850.359	0.0158228
850.437	0.0160186
850.515	0.0160965
850.593	0.0160030
850.672	0.0159713
850.750	0.0159052
850.828	0.0159340
850.906	0.0158950
850.984	0.0158091
851.062	0.0158498
851.140	0.0158758
851.218	0.0159085
851.297	0.0157840
851.375	0.0159231
851.453	0.0157289
851.531	0.0157851
851.609	0.0158151
851.687	0.0158057
851.765	0.0158385
851.843	0.0159892
851.922	0.0158998
852.000	0.0160360
852.078	0.0158284
852.156	0.0159581
852.234	0.0159421
852.312	0.0158971
852.390	0.0159171
852.468	0.0159566
852.547	0.0159655
852.625	0.0159584
852.703	0.0158847
852.781	0.0159512
852.859	0.0159365
852.937	0.0158829
853.015	0.0158678
853.093	0.0158644
853.172	0.0157693
853.250	0.0157762
853.328	0.0157740
853.406	0.0158894
853.484	0.0157782
853.562	0.0157920
853.640	0.0158780
853.718	0.0157558
853.797	0.0157540
853.875	0.0157014
853.953	0.0158275
854.031	0.0159374
854.109	0.0158926
854.187	0.0159407
854.265	0.0159542
854.343	0.0160097
854.422	0.0159480
854.500	0.0162033
854.578	0.0159985
854.656	0.0160788
854.734	0.0160029
854.812	0.0159991
854.890	0.0159780
854.968	0.0160410
855.047	0.0160549
855.125	0.0159370
855.203	0.0160455
855.281	0.0159861
855.359	0.0159457
855.437	0.0160559
855.515	0.0161314
855.593	0.0159315
855.672	0.0159763
855.750	0.0158760
855.828	0.0160521
855.906	0.0160539
855.984	0.0160374
856.062	0.0159723
856.140	0.0159235
856.218	0.0160227
856.297	0.0159052
856.375	0.0159655
856.453	0.0160366
856.531	0.0160149
856.609	0.0158624
856.687	0.0160115
856.765	0.0159768
856.843	0.0157252
856.922	0.0159331
857.000	0.0158389
857.078	0.0158775
857.156	0.0158448
857.234	0.0158865
857.312	0.0157535
857.390	0.0157979
857.468	0.0156741
857.547	0.0157776
857.625	0.0157922
857.703	0.0157308
857.781	0.0157090
857.859	0.0158659
857.937	0.0156118
858.015	0.0157891
858.093	0.0158598
858.172	0.0157365
858.250	0.0159031
858.328	0.0157555
858.406	0.0158129
858.484	0.0159709
858.562	0.0158650
858.640	0.0159086
858.718	0.0158977
858.797	0.0160175
858.875	0.0161330
858.953	0.0160754
859.031	0.0159632
859.109	0.0160376
859.187	0.0159015
859.265	0.0160162
859.343	0.0159413
859.422	0.0158987
859.500	0.0159693
859.578	0.0161419
859.656	0.0159332
859.734	0.0158179
859.812	0.0159431
859.890	0.0159660
859.968	0.0160414
860.047	0.0159915
860.125	0.0159949
860.203	0.0159603
860.281	0.0160407
860.359	0.0159610
860.437	0.0158521
860.515	0.0158577
860.593	0.0158551
860.672	0.0158356
860.750	0.0158165
860.828	0.0157647
860.906	0.0158289
860.984	0.0158046
861.062	0.0157156
861.140	0.0156807
861.218	0.0157497
861.297	0.0157851
861.375	0.0156857
861.453	0.0156042
861.531	0.0157320
861.609	0.0157983
861.687	0.0158401
861.765	0.0157539
861.843	0.0156756
861.922	0.0158236
862.000	0.0159559
862.078	0.0158561
862.156	0.0159900
862.234	0.0159867
862.312	0.0160098
862.390	0.0160516
862.468	0.0159785
862.547	0.0159718
862.625	0.0160215
862.703	0.0161742
862.781	0.0161389
862.859	0.0159491
862.937	0.0158566
863.015	0.0160677
863.093	0.0160093
863.172	0.0159409
863.250	0.0160164
863.328	0.0159074
863.406	0.0159264
863.484	0.0160251
863.562	0.0160052
863.640	0.0159290
863.718	0.0159335
863.797	0.0158486
863.875	0.0159908
863.953	0.0159833
864.031	0.0158871
864.109	0.0160252
864.187	0.0159708
864.265	0.0160256
864.343	0.0160790
864.422	0.0159328
864.500	0.0159248
864.578	0.0160492
864.656	0.0160991
864.734	0.0160507
864.812	0.0159895
864.890	0.0159507
864.968	0.0160769
865.047	0.0160499
865.125	0.0159639
865.203	0.0160893
865.281	0.0158717
865.359	0.0157861
865.437	0.0158894
865.515	0.0158560
865.593	0.0158851
865.672	0.0158680
865.750	0.0157517
865.828	0.0157928
865.906	0.0158050
865.984	0.0158064
866.062	0.0157809
866.140	0.0158461
866.218	0.0158836
866.297	0.0158302
866.375	0.0159507
866.453	0.0158300
866.531	0.0158845
866.609	0.0158562
866.687	0.0158401
866.765	0.0159052
866.843	0.0160015
866.922	0.0157745
867.000	0.0159345
867.078	0.0161698
867.156	0.0160569
867.234	0.0158845
867.312	0.0159858
867.390	0.0158962
867.468	0.0159346
867.547	0.0159631
867.625	0.0159143
867.703	0.0159303
867.781	0.0161210
867.859	0.0160439
867.937	0.0159422
868.015	0.0160213
868.093	0.0158556
868.172	0.0160344
868.250	0.0160403
868.328	0.0157993
868.406	0.0159514
868.484	0.0159303
868.562	0.0159570
868.640	0.0159660
868.718	0.0159973
868.797	0.0159383
868.875	0.0156561
868.953	0.0158641
869.031	0.0159931
869.109	0.0159489
869.187	0.0158642
869.265	0.0158442
869.343	0.0157798
869.422	0.0158957
869.500	0.0158342
869.578	0.0157899
869.656	0.0157883
869.734	0.0157851
869.812	0.0157946
869.890	0.0158442
869.968	0.0158219
870.047	0.0157278
870.125	0.0158612
870.203	0.0158139
870.281	0.0157471
870.359	0.0160045
870.437	0.0159001
870.515	0.0158478
870.593	0.0158434
870.672	0.0158867
870.750	0.0159147
870.828	0.0158549
870.906	0.0159377
870.984	0.0158235
871.062	0.0159991
871.140	0.0159701
871.218	0.0158478
871.297	0.0158238
871.375	0.0157406
871.453	0.0159198
871.531	0.0158465
871.609	0.0158650
871.687	0.0158478
871.765	0.0157962
871.843	0.0156972
871.922	0.0158523
872.000	0.0157715
872.078	0.0158296
872.156	0.0157305
872.234	0.0158195
872.312	0.0159260
872.390	0.0157304
872.468	0.0158121
872.547	0.0158354
872.625	0.0158707
872.703	0.0159132
872.781	0.0160284
872.859	0.0158145
872.937	0.0159304
873.015	0.0158463
873.093	0.0158625
873.172	0.0158646
873.250	0.0158857
873.328	0.0159408
873.406	0.0157993
873.484	0.0157113
873.562	0.0159232
873.640	0.0157262
873.718	0.0159232
873.797	0.0158269
873.875	0.0158593
873.953	0.0159330
874.031	0.0158610
874.109	0.0158994
874.187	0.0158647
874.265	0.0158782
874.343	0.0158182
874.422	0.0159514
874.500	0.0157990
874.578	0.0157661
874.656	0.0159129
874.734	0.0159320
874.812	0.0159586
874.890	0.0159734
874.968	0.0157805
875.047	0.0159008
875.125	0.0159269
875.203	0.0157664
875.281	0.0158479
875.359	0.0158556
875.437	0.0157719
875.515	0.0158334
875.593	0.0158794
875.672	0.0158083
875.750	0.0158801
875.828	0.0160828
875.906	0.0158759
875.984	0.0159979
876.062	0.0160737
876.140	0.0160758
876.218	0.0159228
876.297	0.0159972
876.375	0.0159540
876.453	0.0159944
876.531	0.0159310
876.609	0.0161390
876.687	0.0160931
876.765	0.0160381
876.843	0.0160599
876.922	0.0161641
877.000	0.0161652
877.078	0.0160097
877.156	0.0159219
877.234	0.0158984
877.312	0.0160839
877.390	0.0159942
877.468	0.0160641
877.547	0.0160436
877.625	0.0159591
877.703	0.0159452
877.781	0.0160308
877.859	0.0159770
877.937	0.0158907
878.015	0.0158224
878.093	0.0159871
878.172	0.0158844
878.250	0.0158860
878.328	0.0159371
878.406	0.0160879
878.484	0.0159371
878.562	0.0159595
878.640	0.0159463
878.718	0.0158971
878.797	0.0160782
878.875	0.0159672
878.953	0.0160077
879.031	0.0160518
879.109	0.0159588
879.187	0.0160700
879.265	0.0161235
879.343	0.0159534
879.422	0.0158772
879.500	0.0159792
879.578	0.0160873
879.656	0.0160690
879.734	0.0160720
879.812	0.0159989
879.890	0.0160587
879.968	0.0159901
880.047	0.0159399
880.125	0.0158928
880.203	0.0159715
880.281	0.0161063
880.359	0.0160623
880.437	0.0160764
880.515	0.0160320
880.593	0.0160122
880.672	0.0158711
880.750	0.0160124
880.828	0.0159962
880.906	0.0158732
880.984	0.0159040
881.062	0.0159201
881.140	0.0157416
881.218	0.0158866
881.297	0.0158468
881.375	0.0158862
881.453	0.0159143
881.531	0.0160561
881.609	0.0159834
881.687	0.0158938
881.765	0.0158342
881.843	0.0159282
881.922	0.0157671
882.000	0.0158968
882.078	0.0159628
882.156	0.0159371
882.234	0.0159389
882.312	0.0158114
882.390	0.0158363
882.468	0.0158782
882.547	0.0160001
882.625	0.0160391
882.703	0.0158717
882.781	0.0158215
882.859	0.0159145
882.937	0.0158401
883.015	0.0159154
883.093	0.0159880
883.172	0.0159991
883.250	0.0159773
883.328	0.0158348
883.406	0.0158982
883.484	0.0157813
883.562	0.0156035
883.640	0.0157844
883.718	0.0158764
883.797	0.0157355
883.875	0.0159081
883.953	0.0158224
884.031	0.0157109
884.109	0.0155915
884.187	0.0156564
884.265	0.0157240
884.343	0.0157171
884.422	0.0158546
884.500	0.0157106
884.578	0.0157050
884.656	0.0157714
884.734	0.0158298
884.812	0.0156847
884.890	0.0158048
884.968	0.0157684
885.047	0.0158602
885.125	0.0157992
885.203	0.0157913
885.281	0.0156840
885.359	0.0157478
885.437	0.0157639
885.515	0.0157465
885.593	0.0157322
885.672	0.0157337
885.750	0.0157442
885.828	0.0158383
885.906	0.0159396
885.984	0.0159052
886.062	0.0157873
886.140	0.0158960
886.218	0.0158823
886.297	0.0158759
886.375	0.0158681
886.453	0.0158784
886.531	0.0160683
886.609	0.0160767
886.687	0.0159001
886.765	0.0159491
886.843	0.0160472
886.922	0.0159577
887.000	0.0160338
887.078	0.0159284
887.156	0.0158903
887.234	0.0159667
887.312	0.0159206
887.390	0.0159393
887.468	0.0158587
887.547	0.0158735
887.625	0.0158468
887.703	0.0158308
887.781	0.0159255
887.859	0.0157545
887.937	0.0158293
888.015	0.0157167
888.093	0.0159050
888.172	0.0158608
888.250	0.0159465
888.328	0.0158209
888.406	0.0158645
888.484	0.0157495
888.562	0.0159026
888.640	0.0157876
888.718	0.0158244
888.797	0.0159898
888.875	0.0158559
888.953	0.0160006
889.031	0.0158668
889.109	0.0159304
889.187	0.0159529
889.265	0.0158035
889.343	0.0159453
889.422	0.0159619
889.500	0.0158786
889.578	0.0158017
889.656	0.0158220
889.734	0.0158677
889.812	0.0159738
889.890	0.0159348
889.968	0.0158324
890.047	0.0157875
890.125	0.0158932
890.203	0.0159456
890.281	0.0157845
890.359	0.0159176
890.437	0.0159169
890.515	0.0160053
890.593	0.0158352
890.672	0.0158465
890.750	0.0159308
890.828	0.0158575
890.906	0.0158764
890.984	0.0158218
891.062	0.0158989
891.140	0.0159287
891.218	0.0158231
891.297	0.0158938
891.375	0.0158933
891.453	0.0159850
891.531	0.0159682
891.609	0.0159866
891.687	0.0159481
891.765	0.0159009
891.843	0.0158756
891.922	0.0158751
892.000	0.0157101
892.078	0.0158613
892.156	0.0158204
892.234	0.0158950
892.312	0.0158408
892.390	0.0157963
892.468	0.0157866
892.547	0.0157777
892.625	0.0156811
892.703	0.0158267
892.781	0.0156921
892.859	0.0157873
892.937	0.0158443
893.015	0.0157877
893.093	0.0158677
893.172	0.0157499
893.250	0.0158607
893.328	0.0157931
893.406	0.0159212
893.484	0.0158064
893.562	0.0158629
893.640	0.0159257
893.718	0.0158061
893.797	0.0159488
893.875	0.0158180
893.953	0.0159541
894.031	0.0157447
894.109	0.0157963
894.187	0.0158603
894.265	0.0156455
894.343	0.0158227
894.422	0.0159195
894.500	0.0158275
894.578	0.0158736
894.656	0.0158480
894.734	0.0157905
894.812	0.0158997
894.890	0.0159017
894.968	0.0158546
895.047	0.0159266
895.125	0.0158403
895.203	0.0158541
895.281	0.0159508
895.359	0.0157893
895.437	0.0158785
895.515	0.0158783
895.593	0.0158768
895.672	0.0157490
895.750	0.0158296
895.828	0.0158261
895.906	0.0159377
895.984	0.0158939
896.062	0.0159632
896.140	0.0158503
896.218	0.0158877
896.297	0.0158463
896.375	0.0158009
896.453	0.0158677
896.531	0.0159615
896.609	0.0159937
896.687	0.0160516
896.765	0.0158888
896.843	0.0159735
896.922	0.0159488
897.000	0.0161159
897.078	0.0160078
897.156	0.0159407
897.234	0.0160364
897.312	0.0160326
897.390	0.0159658
897.468	0.0159387
897.547	0.0160004
897.625	0.0159414
897.703	0.0160884
897.781	0.0159547
897.859	0.0157980
897.937	0.0158439
898.015	0.0160127
898.093	0.0160231
898.172	0.0158831
898.250	0.0159065
898.328	0.0158157
898.406	0.0158202
898.484	0.0158331
898.562	0.0159659
898.640	0.0159107
898.718	0.0159203
898.797	0.0160334
898.875	0.0160256
898.953	0.0159303
899.031	0.0158260
899.109	0.0159000
899.187	0.0159587
899.265	0.0158455
899.343	0.0157717
899.422	0.0159299
899.500	0.0159621
899.578	0.0158360
899.656	0.0158331
899.734	0.0158348
899.812	0.0158591
899.890	0.0157698
899.968	0.0158586
900.047	0.0158832
900.125	0.0158497
900.203	0.0160196
900.281	0.0160371
900.359	0.0158731
900.437	0.0158951
900.515	0.0159429
900.593	0.0159827
900.672	0.0159155
900.750	0.0158518
900.828	0.0159728
900.906	0.0158562
900.984	0.0159071
901.062	0.0159018
901.140	0.0158847
901.218	0.0158365
901.297	0.0158804
901.375	0.0158030
901.453	0.0158082
901.531	0.0158663
901.609	0.0158925
901.687	0.0159750
901.765	0.0159190
901.843	0.0158360
901.922	0.0158794
902.000	0.0158188
902.078	0.0158587
902.156	0.0156965
902.234	0.0158047
902.312	0.0159204
902.390	0.0159461
902.468	0.0158694
902.547	0.0159724
902.625	0.0158511
902.703	0.0158549
902.781	0.0159584
902.859	0.0159666
902.937	0.0159043
903.015	0.0159390
903.093	0.0158215
903.172	0.0160275
903.250	0.0160348
903.328	0.0158854
903.406	0.0158845
903.484	0.0160175
903.562	0.0158855
903.640	0.0158211
903.718	0.0159560
903.797	0.0159242
903.875	0.0160053
903.953	0.0158958
904.031	0.0158645
904.109	0.0159075
904.187	0.0159458
904.265	0.0160161
904.343	0.0159754
904.422	0.0159044
904.500	0.0158651
904.578	0.0158356
904.656	0.0158500
904.734	0.0159879
904.812	0.0158775
904.890	0.0160370
904.968	0.0159354
905.047	0.0159001
905.125	0.0158555
905.203	0.0158595
905.281	0.0158440
905.359	0.0160481
905.437	0.0158426
905.515	0.0159042
905.593	0.0159100
905.672	0.0159248
905.750	0.0160390
905.828	0.0158180
905.906	0.0159565
905.984	0.0158826
906.062	0.0158751
906.140	0.0160044
906.218	0.0158654
906.297	0.0158647
906.375	0.0159206
906.453	0.0160596
906.531	0.0158931
906.609	0.0159162
906.687	0.0158324
906.765	0.0159299
906.843	0.0158865
906.922	0.0159964
907.000	0.0158466
907.078	0.0157751
907.156	0.0158031
907.234	0.0157999
907.312	0.0158739
907.390	0.0158004
907.468	0.0158230
907.547	0.0157893
907.625	0.0156522
907.703	0.0157304
907.781	0.0158545
907.859	0.0157593
907.937	0.0157572
908.015	0.0157555
908.093	0.0156869
908.172	0.0157613
908.250	0.0157092
908.328	0.0157779
908.406	0.0157349
908.484	0.0156845
908.562	0.0158412
908.640	0.0158508
908.718	0.0157751
908.797	0.0157459
908.875	0.0158205
908.953	0.0158038
909.031	0.0157777
909.109	0.0157563
909.187	0.0159057
909.265	0.0158075
909.343	0.0156386
909.422	0.0157714
909.500	0.0158248
909.578	0.0158731
909.656	0.0156697
909.734	0.0156464
909.812	0.0156878
909.890	0.0156757
909.968	0.0157347
910.047	0.0158396
910.125	0.0157301
910.203	0.0158314
910.281	0.0158224
910.359	0.0156253
910.437	0.0157779
910.515	0.0158484
910.593	0.0159514
910.672	0.0158416
910.750	0.0157761
910.828	0.0159531
910.906	0.0159823
910.984	0.0157896
911.062	0.0158745
911.140	0.0158588
911.218	0.0159780
911.297	0.0157834
911.375	0.0158579
911.453	0.0159254
911.531	0.0159754
911.609	0.0159078
911.687	0.0159151
911.765	0.0159024
911.843	0.0159595
911.922	0.0159097
912.000	0.0158604
912.078	0.0159534
912.156	0.0157922
912.234	0.0157888
912.312	0.0159577
912.390	0.0159185
912.468	0.0159202
912.547	0.0159417
912.625	0.0159366
912.703	0.0159536
912.781	0.0158490
912.859	0.0158425
912.937	0.0158223
913.015	0.0158398
913.093	0.0157300
913.172	0.0158624
913.250	0.0157518
913.328	0.0158656
913.406	0.0159653
913.484	0.0160275
913.562	0.0158459
913.640	0.0158986
913.718	0.0159690
913.797	0.0160606
913.875	0.0160012
913.953	0.0159522
914.031	0.0160181
914.109	0.0159212
914.187	0.0158469
914.265	0.0159151
914.343	0.0160464
914.422	0.0159630
914.500	0.0160058
914.578	0.0159914
914.656	0.0160252
914.734	0.0159235
914.812	0.0159867
914.890	0.0158932
914.968	0.0158032
915.047	0.0159659
915.125	0.0158606
915.203	0.0158247
915.281	0.0158851
915.359	0.0159138
915.437	0.0159111
915.515	0.0158723
915.593	0.0158157
915.672	0.0158115
915.750	0.0158977
915.828	0.0159232
915.906	0.0159441
915.984	0.0160747
916.062	0.0159321
916.140	0.0159129
916.218	0.0157719
916.297	0.0159316
916.375	0.0159473
916.453	0.0160713
916.531	0.0160844
916.609	0.0160187
916.687	0.0160598
916.765	0.0159589
916.843	0.0161108
916.922	0.0162126
917.000	0.0159913
917.078	0.0160021
917.156	0.0158586
917.234	0.0160777
917.312	0.0159113
917.390	0.0158928
917.468	0.0160353
917.547	0.0158593
917.625	0.0159177
917.703	0.0158589
917.781	0.0158898
917.859	0.0158356
917.937	0.0159400
918.015	0.0159404
918.093	0.0159332
918.172	0.0160202
918.250	0.0159596
918.328	0.0158954
918.406	0.0160777
918.484	0.0159554
918.562	0.0159161
918.640	0.0159944
918.718	0.0159557
918.797	0.0161299
918.875	0.0160148
918.953	0.0159924
919.031	0.0160582
919.109	0.0160454
919.187	0.0160306
919.265	0.0159607
919.343	0.0160283
919.422	0.0161517
919.500	0.0161401
919.578	0.0160530
919.656	0.0159404
919.734	0.0158932
919.812	0.0160440
919.890	0.0160237
