06/13/2022	14:34:28	Ver.	4.1	UNKNOWN
Optical Delay	599.968395	Delta X		0.078125	Sweeps	1	Scan Rate	0/0
Coordinates	Axis 1	NaN	Axis 2	NaN	Axis 3	NaN	Axis 4	NaN	Axis 5	NaN	Axis 6	0.000000
TX Power	0.000000	RX Power	0.000000

599.968	0.0159181
600.047	0.0159376
600.125	0.0160341
600.203	0.0158768
600.281	0.0159344
600.359	0.0159804
600.437	0.0160524
600.515	0.0159808
600.593	0.0158588
600.672	0.0157820
600.750	0.0158488
600.828	0.0160562
600.906	0.0159409
600.984	0.0160387
601.062	0.0159534
601.140	0.0159830
601.218	0.0158409
601.297	0.0159341
601.375	0.0159145
601.453	0.0157929
601.531	0.0157290
601.609	0.0158742
601.687	0.0159034
601.765	0.0159126
601.843	0.0158341
601.922	0.0159155
602.000	0.0159087
602.078	0.0159695
602.156	0.0158081
602.234	0.0158918
602.312	0.0159699
602.390	0.0158881
602.468	0.0158259
602.547	0.0160044
602.625	0.0160196
602.703	0.0158380
602.781	0.0159058
602.859	0.0159199
602.937	0.0159544
603.015	0.0159478
603.093	0.0158932
603.172	0.0159640
603.250	0.0158478
603.328	0.0159420
603.406	0.0160053
603.484	0.0158076
603.562	0.0158173
603.640	0.0158464
603.718	0.0159039
603.797	0.0160226
603.875	0.0159874
603.953	0.0159859
604.031	0.0159892
604.109	0.0160002
604.187	0.0158471
604.265	0.0157708
604.343	0.0158002
604.422	0.0159148
604.500	0.0159514
604.578	0.0159329
604.656	0.0159010
604.734	0.0159386
604.812	0.0159563
604.890	0.0160159
604.968	0.0159476
605.047	0.0159580
605.125	0.0159573
605.203	0.0158199
605.281	0.0158832
605.359	0.0159700
605.437	0.0159822
605.515	0.0159817
605.593	0.0158743
605.672	0.0159618
605.750	0.0159058
605.828	0.0159638
605.906	0.0159432
605.984	0.0158964
606.062	0.0159695
606.140	0.0158772
606.218	0.0158353
606.297	0.0159437
606.375	0.0159990
606.453	0.0159627
606.531	0.0159692
606.609	0.0160153
606.687	0.0158269
606.765	0.0158900
606.843	0.0158379
606.922	0.0159553
607.000	0.0160003
607.078	0.0159283
607.156	0.0158276
607.234	0.0158500
607.312	0.0160053
607.390	0.0158772
607.468	0.0158891
607.547	0.0159573
607.625	0.0160006
607.703	0.0158957
607.781	0.0159164
607.859	0.0159257
607.937	0.0158136
608.015	0.0159176
608.093	0.0160028
608.172	0.0159944
608.250	0.0160159
608.328	0.0159856
608.406	0.0160162
608.484	0.0158521
608.562	0.0158062
608.640	0.0160170
608.718	0.0160142
608.797	0.0159525
608.875	0.0159912
608.953	0.0158385
609.031	0.0158390
609.109	0.0159237
609.187	0.0158645
609.265	0.0158173
609.343	0.0159258
609.422	0.0159187
609.500	0.0158728
609.578	0.0158075
609.656	0.0159810
609.734	0.0159437
609.812	0.0159084
609.890	0.0160211
609.968	0.0159088
610.047	0.0158991
610.125	0.0158712
610.203	0.0158822
610.281	0.0158765
610.359	0.0160725
610.437	0.0159398
610.515	0.0158262
610.593	0.0157764
610.672	0.0160963
610.750	0.0158050
610.828	0.0159039
610.906	0.0159162
610.984	0.0159204
611.062	0.0160060
611.140	0.0159583
611.218	0.0158468
611.297	0.0158109
611.375	0.0159788
611.453	0.0160223
611.531	0.0160641
611.609	0.0158788
611.687	0.0158964
611.765	0.0158907
611.843	0.0157925
611.922	0.0159101
612.000	0.0159604
612.078	0.0159987
612.156	0.0159383
612.234	0.0160094
612.312	0.0159754
612.390	0.0160375
612.468	0.0158891
612.547	0.0158589
612.625	0.0158805
612.703	0.0159634
612.781	0.0158219
612.859	0.0158427
612.937	0.0158540
613.015	0.0160806
613.093	0.0159449
613.172	0.0158950
613.250	0.0159042
613.328	0.0158607
613.406	0.0158692
613.484	0.0160880
613.562	0.0159335
613.640	0.0159705
613.718	0.0158722
613.797	0.0158933
613.875	0.0158044
613.953	0.0159743
614.031	0.0160050
614.109	0.0158599
614.187	0.0158784
614.265	0.0159105
614.343	0.0158704
614.422	0.0159088
614.500	0.0160060
614.578	0.0158517
614.656	0.0160359
614.734	0.0159174
614.812	0.0159397
614.890	0.0158327
614.968	0.0159479
615.047	0.0158485
615.125	0.0159451
615.203	0.0159843
615.281	0.0158198
615.359	0.0159450
615.437	0.0158466
615.515	0.0158835
615.593	0.0159353
615.672	0.0160110
615.750	0.0159033
615.828	0.0157956
615.906	0.0159949
615.984	0.0161326
616.062	0.0158895
616.140	0.0159711
616.218	0.0158621
616.297	0.0159595
616.375	0.0160705
616.453	0.0158749
616.531	0.0159097
616.609	0.0160698
616.687	0.0159600
616.765	0.0159459
616.843	0.0159326
616.922	0.0159560
617.000	0.0159822
617.078	0.0160069
617.156	0.0159077
617.234	0.0158906
617.312	0.0159605
617.390	0.0159000
617.468	0.0160802
617.547	0.0160651
617.625	0.0159768
617.703	0.0159309
617.781	0.0159462
617.859	0.0160685
617.937	0.0159174
618.015	0.0159627
618.093	0.0161013
618.172	0.0158910
618.250	0.0159574
618.328	0.0159592
618.406	0.0161004
618.484	0.0158630
618.562	0.0159094
618.640	0.0159314
618.718	0.0159898
618.797	0.0158470
618.875	0.0159740
618.953	0.0159518
619.031	0.0158578
619.109	0.0159283
619.187	0.0159378
619.265	0.0159059
619.343	0.0159445
619.422	0.0158741
619.500	0.0158080
619.578	0.0158988
619.656	0.0158797
619.734	0.0160543
619.812	0.0159606
619.890	0.0158232
619.968	0.0158475
620.047	0.0159934
620.125	0.0159076
620.203	0.0159620
620.281	0.0159962
620.359	0.0159560
620.437	0.0159672
620.515	0.0160037
620.593	0.0160097
620.672	0.0159153
620.750	0.0159601
620.828	0.0160287
620.906	0.0159763
620.984	0.0158386
621.062	0.0158900
621.140	0.0160274
621.218	0.0158986
621.297	0.0159623
621.375	0.0158865
621.453	0.0159531
621.531	0.0159685
621.609	0.0159767
621.687	0.0159023
621.765	0.0157867
621.843	0.0158645
621.922	0.0160265
622.000	0.0159809
622.078	0.0159169
622.156	0.0159081
622.234	0.0158497
622.312	0.0159988
622.390	0.0160537
622.468	0.0159921
622.547	0.0156658
622.625	0.0160501
622.703	0.0159712
622.781	0.0159154
622.859	0.0159573
622.937	0.0159361
623.015	0.0159196
623.093	0.0161345
623.172	0.0158361
623.250	0.0159123
623.328	0.0159841
623.406	0.0160272
623.484	0.0158070
623.562	0.0159024
623.640	0.0159933
623.718	0.0158529
623.797	0.0159895
623.875	0.0158768
623.953	0.0158591
624.031	0.0159297
624.109	0.0159812
624.187	0.0159655
624.265	0.0159328
624.343	0.0158895
624.422	0.0158982
624.500	0.0160035
624.578	0.0158920
624.656	0.0159633
624.734	0.0159261
624.812	0.0159370
624.890	0.0158936
624.968	0.0158658
625.047	0.0157323
625.125	0.0159276
625.203	0.0159283
625.281	0.0158625
625.359	0.0159071
625.437	0.0160287
625.515	0.0159639
625.593	0.0158556
625.672	0.0159251
625.750	0.0159331
625.828	0.0158386
625.906	0.0158759
625.984	0.0158864
626.062	0.0159532
626.140	0.0159565
626.218	0.0159360
626.297	0.0158808
626.375	0.0160004
626.453	0.0158597
626.531	0.0159555
626.609	0.0158975
626.687	0.0159649
626.765	0.0160473
626.843	0.0157772
626.922	0.0159209
627.000	0.0157925
627.078	0.0159044
627.156	0.0159951
627.234	0.0159834
627.312	0.0159930
627.390	0.0157887
627.468	0.0160494
627.547	0.0160078
627.625	0.0159112
627.703	0.0158959
627.781	0.0159132
627.859	0.0157862
627.937	0.0159000
628.015	0.0159237
628.093	0.0157841
628.172	0.0158763
628.250	0.0158444
628.328	0.0159657
628.406	0.0159206
628.484	0.0159463
628.562	0.0159889
628.640	0.0158250
628.718	0.0158818
628.797	0.0159917
628.875	0.0159759
628.953	0.0158885
629.031	0.0159576
629.109	0.0158672
629.187	0.0157792
629.265	0.0159226
629.343	0.0158694
629.422	0.0158868
629.500	0.0159592
629.578	0.0159173
629.656	0.0159133
629.734	0.0159018
629.812	0.0159805
629.890	0.0158122
629.968	0.0160063
630.047	0.0160069
630.125	0.0158594
630.203	0.0159100
630.281	0.0159653
630.359	0.0159988
630.437	0.0160545
630.515	0.0160046
630.593	0.0158663
630.672	0.0159203
630.750	0.0159626
630.828	0.0158907
630.906	0.0159078
630.984	0.0159171
631.062	0.0158807
631.140	0.0159748
631.218	0.0159589
631.297	0.0159383
631.375	0.0159451
631.453	0.0159963
631.531	0.0158743
631.609	0.0158493
631.687	0.0158171
631.765	0.0159337
631.843	0.0160020
631.922	0.0159013
632.000	0.0159940
632.078	0.0158567
632.156	0.0160698
632.234	0.0159143
632.312	0.0158190
632.390	0.0158424
632.468	0.0158563
632.547	0.0159356
632.625	0.0158784
632.703	0.0159424
632.781	0.0158905
632.859	0.0159419
632.937	0.0158444
633.015	0.0158879
633.093	0.0159254
633.172	0.0160367
633.250	0.0161219
633.328	0.0159019
633.406	0.0160251
633.484	0.0159630
633.562	0.0158862
633.640	0.0158566
633.718	0.0159290
633.797	0.0160815
633.875	0.0160107
633.953	0.0159057
634.031	0.0158700
634.109	0.0159173
634.187	0.0159689
634.265	0.0159552
634.343	0.0158779
634.422	0.0159309
634.500	0.0160473
634.578	0.0158322
634.656	0.0160176
634.734	0.0159459
634.812	0.0158854
634.890	0.0159372
634.968	0.0159558
635.047	0.0159105
635.125	0.0159414
635.203	0.0159998
635.281	0.0160026
635.359	0.0160752
635.437	0.0158937
635.515	0.0159542
635.593	0.0158704
635.672	0.0160497
635.750	0.0160786
635.828	0.0159181
635.906	0.0159528
635.984	0.0159608
636.062	0.0159135
636.140	0.0159351
636.218	0.0159079
636.297	0.0157602
636.375	0.0158330
636.453	0.0158747
636.531	0.0158791
636.609	0.0159119
636.687	0.0158920
636.765	0.0159354
636.843	0.0158945
636.922	0.0159881
637.000	0.0159647
637.078	0.0159723
637.156	0.0159841
637.234	0.0160145
637.312	0.0158948
637.390	0.0159132
637.468	0.0159612
637.547	0.0158759
637.625	0.0158601
637.703	0.0159164
637.781	0.0159195
637.859	0.0159196
637.937	0.0160125
638.015	0.0159154
638.093	0.0159531
638.172	0.0159469
638.250	0.0159058
638.328	0.0159180
638.406	0.0159883
638.484	0.0159070
638.562	0.0157888
638.640	0.0159407
638.718	0.0160007
638.797	0.0159232
638.875	0.0158621
638.953	0.0159174
639.031	0.0158795
639.109	0.0160034
639.187	0.0159003
639.265	0.0157944
639.343	0.0159760
639.422	0.0159553
639.500	0.0158572
639.578	0.0160409
639.656	0.0159197
639.734	0.0159502
639.812	0.0159719
639.890	0.0158945
639.968	0.0161013
640.047	0.0159532
640.125	0.0158105
640.203	0.0159271
640.281	0.0158849
640.359	0.0158780
640.437	0.0160097
640.515	0.0158746
640.593	0.0157223
640.672	0.0160678
640.750	0.0159262
640.828	0.0158878
640.906	0.0159314
640.984	0.0159105
641.062	0.0159546
641.140	0.0159605
641.218	0.0158458
641.297	0.0158179
641.375	0.0159544
641.453	0.0159823
641.531	0.0159818
641.609	0.0158220
641.687	0.0159712
641.765	0.0159341
641.843	0.0158925
641.922	0.0159309
642.000	0.0158479
642.078	0.0158976
642.156	0.0160117
642.234	0.0158549
642.312	0.0157564
642.390	0.0158295
642.468	0.0158673
642.547	0.0159584
642.625	0.0159120
642.703	0.0160503
642.781	0.0158563
642.859	0.0159510
642.937	0.0159586
643.015	0.0156978
643.093	0.0159385
643.172	0.0159511
643.250	0.0157855
643.328	0.0158107
643.406	0.0159033
643.484	0.0158787
643.562	0.0158161
643.640	0.0157682
643.718	0.0158530
643.797	0.0159396
643.875	0.0159382
643.953	0.0159302
644.031	0.0160349
644.109	0.0159416
644.187	0.0159383
644.265	0.0159896
644.343	0.0160101
644.422	0.0158678
644.500	0.0159450
644.578	0.0158562
644.656	0.0158831
644.734	0.0159494
644.812	0.0158830
644.890	0.0159055
644.968	0.0158792
645.047	0.0158763
645.125	0.0159164
645.203	0.0158908
645.281	0.0159708
645.359	0.0159729
645.437	0.0159146
645.515	0.0159202
645.593	0.0159563
645.672	0.0159285
645.750	0.0158131
645.828	0.0159816
645.906	0.0158537
645.984	0.0158824
646.062	0.0159801
646.140	0.0159727
646.218	0.0159727
646.297	0.0157822
646.375	0.0159068
646.453	0.0160535
646.531	0.0160049
646.609	0.0159414
646.687	0.0159747
646.765	0.0158754
646.843	0.0157922
646.922	0.0160497
647.000	0.0159939
647.078	0.0158461
647.156	0.0159376
647.234	0.0158223
647.312	0.0159455
647.390	0.0158678
647.468	0.0158285
647.547	0.0160313
647.625	0.0159647
647.703	0.0158704
647.781	0.0159211
647.859	0.0159393
647.937	0.0158826
648.015	0.0159381
648.093	0.0160399
648.172	0.0159496
648.250	0.0159442
648.328	0.0157141
648.406	0.0160072
648.484	0.0159641
648.562	0.0159612
648.640	0.0159266
648.718	0.0160795
648.797	0.0159877
648.875	0.0160197
648.953	0.0158234
649.031	0.0159486
649.109	0.0159071
649.187	0.0158977
649.265	0.0158231
649.343	0.0158086
649.422	0.0159605
649.500	0.0159369
649.578	0.0159492
649.656	0.0158289
649.734	0.0159257
649.812	0.0160398
649.890	0.0159862
649.968	0.0159712
650.047	0.0160001
650.125	0.0157948
650.203	0.0159078
650.281	0.0158021
650.359	0.0160912
650.437	0.0157877
650.515	0.0159628
650.593	0.0159485
650.672	0.0159777
650.750	0.0159613
650.828	0.0158829
650.906	0.0159728
650.984	0.0159435
651.062	0.0159132
651.140	0.0159437
651.218	0.0158506
651.297	0.0159605
651.375	0.0159547
651.453	0.0158891
651.531	0.0160613
651.609	0.0159111
651.687	0.0158775
651.765	0.0158625
651.843	0.0158972
651.922	0.0159072
652.000	0.0158241
652.078	0.0159101
652.156	0.0160157
652.234	0.0158457
652.312	0.0159520
652.390	0.0158887
652.468	0.0158156
652.547	0.0159342
652.625	0.0159330
652.703	0.0159553
652.781	0.0159514
652.859	0.0159022
652.937	0.0158598
653.015	0.0157568
653.093	0.0158967
653.172	0.0159328
653.250	0.0158128
653.328	0.0159150
653.406	0.0159168
653.484	0.0159067
653.562	0.0160255
653.640	0.0159197
653.718	0.0158317
653.797	0.0160448
653.875	0.0159699
653.953	0.0160577
654.031	0.0158005
654.109	0.0159995
654.187	0.0158286
654.265	0.0159225
654.343	0.0158844
654.422	0.0158929
654.500	0.0158857
654.578	0.0159565
654.656	0.0158635
654.734	0.0158813
654.812	0.0160343
654.890	0.0159555
654.968	0.0159251
655.047	0.0159293
655.125	0.0160153
655.203	0.0159048
655.281	0.0158274
655.359	0.0159191
655.437	0.0158499
655.515	0.0158999
655.593	0.0159393
655.672	0.0158579
655.750	0.0159428
655.828	0.0160065
655.906	0.0159306
655.984	0.0157817
656.062	0.0158782
656.140	0.0160212
656.218	0.0159481
656.297	0.0159666
656.375	0.0159270
656.453	0.0160264
656.531	0.0158627
656.609	0.0160013
656.687	0.0160254
656.765	0.0159821
656.843	0.0159763
656.922	0.0159112
657.000	0.0158933
657.078	0.0159589
657.156	0.0159345
657.234	0.0160896
657.312	0.0159707
657.390	0.0159203
657.468	0.0159526
657.547	0.0159922
657.625	0.0158918
657.703	0.0159835
657.781	0.0158376
657.859	0.0158891
657.937	0.0159345
658.015	0.0160442
658.093	0.0159754
658.172	0.0159164
658.250	0.0159238
658.328	0.0158456
658.406	0.0159097
658.484	0.0158920
658.562	0.0159372
658.640	0.0158343
658.718	0.0159861
658.797	0.0158579
658.875	0.0159801
658.953	0.0160151
659.031	0.0158614
659.109	0.0159809
659.187	0.0160242
659.265	0.0158620
659.343	0.0160085
659.422	0.0160274
659.500	0.0159474
659.578	0.0158876
659.656	0.0158538
659.734	0.0158894
659.812	0.0159612
659.890	0.0159218
659.968	0.0159884
660.047	0.0159665
660.125	0.0159301
660.203	0.0159135
660.281	0.0159016
660.359	0.0159319
660.437	0.0159102
660.515	0.0158399
660.593	0.0158555
660.672	0.0160382
660.750	0.0158298
660.828	0.0158603
660.906	0.0160406
660.984	0.0158700
661.062	0.0159583
661.140	0.0159490
661.218	0.0159807
661.297	0.0158814
661.375	0.0159038
661.453	0.0159587
661.531	0.0159769
661.609	0.0157755
661.687	0.0158118
661.765	0.0159701
661.843	0.0161063
661.922	0.0158472
662.000	0.0158440
662.078	0.0159546
662.156	0.0159999
662.234	0.0160165
662.312	0.0160574
662.390	0.0159867
662.468	0.0158667
662.547	0.0158994
662.625	0.0159518
662.703	0.0159321
662.781	0.0159892
662.859	0.0160086
662.937	0.0159558
663.015	0.0159052
663.093	0.0160168
663.172	0.0159436
663.250	0.0159497
663.328	0.0159185
663.406	0.0159003
663.484	0.0157854
663.562	0.0158076
663.640	0.0159544
663.718	0.0159001
663.797	0.0159499
663.875	0.0160339
663.953	0.0161688
664.031	0.0159699
664.109	0.0159279
664.187	0.0159074
664.265	0.0159911
664.343	0.0159341
664.422	0.0158894
664.500	0.0159283
664.578	0.0159013
664.656	0.0160297
664.734	0.0159355
664.812	0.0158990
664.890	0.0159090
664.968	0.0160465
665.047	0.0160542
665.125	0.0159699
665.203	0.0160094
665.281	0.0158662
665.359	0.0159464
665.437	0.0159004
665.515	0.0159101
665.593	0.0159349
665.672	0.0159075
665.750	0.0159445
665.828	0.0158202
665.906	0.0158564
665.984	0.0161288
666.062	0.0159076
666.140	0.0158632
666.218	0.0159349
666.297	0.0158407
666.375	0.0158294
666.453	0.0158466
666.531	0.0158767
666.609	0.0158567
666.687	0.0160088
666.765	0.0158389
666.843	0.0158542
666.922	0.0158965
667.000	0.0159031
667.078	0.0158945
667.156	0.0160466
667.234	0.0159668
667.312	0.0159965
667.390	0.0159487
667.468	0.0158752
667.547	0.0159551
667.625	0.0158768
667.703	0.0159261
667.781	0.0158952
667.859	0.0159637
667.937	0.0160437
668.015	0.0158952
668.093	0.0158820
668.172	0.0159454
668.250	0.0157784
668.328	0.0159886
668.406	0.0160026
668.484	0.0158882
668.562	0.0158356
668.640	0.0159364
668.718	0.0159077
668.797	0.0157858
668.875	0.0157992
668.953	0.0159624
669.031	0.0159302
669.109	0.0160396
669.187	0.0158074
669.265	0.0158904
669.343	0.0160786
669.422	0.0160577
669.500	0.0159129
669.578	0.0158025
669.656	0.0159173
669.734	0.0161238
669.812	0.0160403
669.890	0.0158767
669.968	0.0159367
670.047	0.0159612
670.125	0.0158957
670.203	0.0158270
670.281	0.0158914
670.359	0.0158826
670.437	0.0160065
670.515	0.0158651
670.593	0.0159718
670.672	0.0158380
670.750	0.0159361
670.828	0.0159830
670.906	0.0159394
670.984	0.0159233
671.062	0.0159415
671.140	0.0159628
671.218	0.0159832
671.297	0.0160632
671.375	0.0157594
671.453	0.0158694
671.531	0.0160512
671.609	0.0159042
671.687	0.0159751
671.765	0.0159881
671.843	0.0159203
671.922	0.0159782
672.000	0.0160564
672.078	0.0158946
672.156	0.0159731
672.234	0.0159794
672.312	0.0158369
672.390	0.0160378
672.468	0.0158722
672.547	0.0160085
672.625	0.0160207
672.703	0.0159673
672.781	0.0159791
672.859	0.0159350
672.937	0.0158350
673.015	0.0159587
673.093	0.0160468
673.172	0.0159664
673.250	0.0159940
673.328	0.0159509
673.406	0.0160195
673.484	0.0159092
673.562	0.0160932
673.640	0.0158794
673.718	0.0159393
673.797	0.0159095
673.875	0.0158746
673.953	0.0158685
674.031	0.0157980
674.109	0.0158163
674.187	0.0158083
674.265	0.0160212
674.343	0.0159496
674.422	0.0158228
674.500	0.0159271
674.578	0.0160792
674.656	0.0159045
674.734	0.0160796
674.812	0.0160073
674.890	0.0161107
674.968	0.0159599
675.047	0.0158961
675.125	0.0160111
675.203	0.0160134
675.281	0.0160080
675.359	0.0160177
675.437	0.0159510
675.515	0.0160531
675.593	0.0159619
675.672	0.0158011
675.750	0.0160236
675.828	0.0159862
675.906	0.0159522
675.984	0.0159045
676.062	0.0158862
676.140	0.0158653
676.218	0.0159706
676.297	0.0159118
676.375	0.0159937
676.453	0.0158006
676.531	0.0158562
676.609	0.0158620
676.687	0.0159370
676.765	0.0159230
676.843	0.0159200
676.922	0.0158171
677.000	0.0158215
677.078	0.0160344
677.156	0.0159957
677.234	0.0158914
677.312	0.0158837
677.390	0.0159686
677.468	0.0159692
677.547	0.0158517
677.625	0.0158686
677.703	0.0159802
677.781	0.0160413
677.859	0.0159183
677.937	0.0159221
678.015	0.0158998
678.093	0.0159120
678.172	0.0160717
678.250	0.0160179
678.328	0.0161233
678.406	0.0159135
678.484	0.0160042
678.562	0.0158865
678.640	0.0160865
678.718	0.0159254
678.797	0.0158981
678.875	0.0159199
678.953	0.0159508
679.031	0.0159704
679.109	0.0159657
679.187	0.0158743
679.265	0.0158237
679.343	0.0160051
679.422	0.0159539
679.500	0.0159451
679.578	0.0158230
679.656	0.0158500
679.734	0.0158408
679.812	0.0158282
679.890	0.0159380
679.968	0.0159008
680.047	0.0158395
680.125	0.0158891
680.203	0.0159310
680.281	0.0159761
680.359	0.0158484
680.437	0.0157647
680.515	0.0159811
680.593	0.0159489
680.672	0.0159856
680.750	0.0158672
680.828	0.0158891
680.906	0.0159500
680.984	0.0158977
681.062	0.0158364
681.140	0.0159607
681.218	0.0159289
681.297	0.0158656
681.375	0.0159750
681.453	0.0159701
681.531	0.0160060
681.609	0.0159032
681.687	0.0159013
681.765	0.0159172
681.843	0.0159772
681.922	0.0158991
682.000	0.0159646
682.078	0.0159991
682.156	0.0159351
682.234	0.0158969
682.312	0.0159663
682.390	0.0159125
682.468	0.0158742
682.547	0.0158856
682.625	0.0158378
682.703	0.0159548
682.781	0.0159965
682.859	0.0158712
682.937	0.0159241
683.015	0.0159863
683.093	0.0158382
683.172	0.0159115
683.250	0.0159457
683.328	0.0159262
683.406	0.0159529
683.484	0.0159174
683.562	0.0158379
683.640	0.0159399
683.718	0.0159640
683.797	0.0158610
683.875	0.0158334
683.953	0.0158737
684.031	0.0159656
684.109	0.0160785
684.187	0.0158693
684.265	0.0158570
684.343	0.0158421
684.422	0.0158653
684.500	0.0158854
684.578	0.0159592
684.656	0.0160136
684.734	0.0159388
684.812	0.0159007
684.890	0.0159467
684.968	0.0158973
685.047	0.0158997
685.125	0.0159538
685.203	0.0158537
685.281	0.0159657
685.359	0.0158414
685.437	0.0160140
685.515	0.0159885
685.593	0.0159058
685.672	0.0158449
685.750	0.0160037
685.828	0.0159566
685.906	0.0158315
685.984	0.0158846
686.062	0.0159155
686.140	0.0160851
686.218	0.0158855
686.297	0.0158819
686.375	0.0160780
686.453	0.0158383
686.531	0.0159208
686.609	0.0159409
686.687	0.0158806
686.765	0.0159615
686.843	0.0158421
686.922	0.0159408
687.000	0.0158726
687.078	0.0159580
687.156	0.0159542
687.234	0.0159446
687.312	0.0158924
687.390	0.0159040
687.468	0.0158525
687.547	0.0158842
687.625	0.0159204
687.703	0.0159391
687.781	0.0159830
687.859	0.0158462
687.937	0.0158870
688.015	0.0158395
688.093	0.0158390
688.172	0.0159250
688.250	0.0158969
688.328	0.0158213
688.406	0.0158714
688.484	0.0159701
688.562	0.0160184
688.640	0.0159262
688.718	0.0159715
688.797	0.0158453
688.875	0.0160233
688.953	0.0159343
689.031	0.0157500
689.109	0.0159580
689.187	0.0159782
689.265	0.0158542
689.343	0.0160075
689.422	0.0158994
689.500	0.0159323
689.578	0.0159293
689.656	0.0159750
689.734	0.0159566
689.812	0.0160738
689.890	0.0159526
689.968	0.0158871
690.047	0.0160004
690.125	0.0158495
690.203	0.0156818
690.281	0.0159569
690.359	0.0159087
690.437	0.0159198
690.515	0.0159309
690.593	0.0158913
690.672	0.0158393
690.750	0.0160056
690.828	0.0159718
690.906	0.0159436
690.984	0.0158464
691.062	0.0158739
691.140	0.0158596
691.218	0.0158857
691.297	0.0159238
691.375	0.0158939
691.453	0.0158955
691.531	0.0159422
691.609	0.0159864
691.687	0.0159576
691.765	0.0159540
691.843	0.0159370
691.922	0.0158215
692.000	0.0158746
692.078	0.0158922
692.156	0.0157957
692.234	0.0158780
692.312	0.0159327
692.390	0.0158302
692.468	0.0158198
692.547	0.0159313
692.625	0.0159530
692.703	0.0159018
692.781	0.0159364
692.859	0.0160818
692.937	0.0160381
693.015	0.0158804
693.093	0.0158601
693.172	0.0158680
693.250	0.0157812
693.328	0.0158620
693.406	0.0158827
693.484	0.0159283
693.562	0.0159941
693.640	0.0158916
693.718	0.0158829
693.797	0.0159876
693.875	0.0159155
693.953	0.0159681
694.031	0.0160167
694.109	0.0159251
694.187	0.0158865
694.265	0.0157784
694.343	0.0158463
694.422	0.0159670
694.500	0.0159800
694.578	0.0158871
694.656	0.0157847
694.734	0.0158689
694.812	0.0158839
694.890	0.0160352
694.968	0.0159128
695.047	0.0160575
695.125	0.0157907
695.203	0.0158476
695.281	0.0159340
695.359	0.0159325
695.437	0.0160417
695.515	0.0158807
695.593	0.0160313
695.672	0.0159457
695.750	0.0159096
695.828	0.0159689
695.906	0.0159325
695.984	0.0160513
696.062	0.0159505
696.140	0.0159458
696.218	0.0159229
696.297	0.0159175
696.375	0.0159058
696.453	0.0158868
696.531	0.0159449
696.609	0.0158959
696.687	0.0159558
696.765	0.0157864
696.843	0.0159013
696.922	0.0158063
697.000	0.0159970
697.078	0.0159582
697.156	0.0160129
697.234	0.0159911
697.312	0.0158837
697.390	0.0158375
697.468	0.0159098
697.547	0.0159982
697.625	0.0157181
697.703	0.0158590
697.781	0.0159165
697.859	0.0157808
697.937	0.0159189
698.015	0.0158455
698.093	0.0158652
698.172	0.0158804
698.250	0.0159303
698.328	0.0160992
698.406	0.0160988
698.484	0.0158908
698.562	0.0159411
698.640	0.0160080
698.718	0.0159875
698.797	0.0158473
698.875	0.0158615
698.953	0.0160633
699.031	0.0160680
699.109	0.0158350
699.187	0.0159420
699.265	0.0159563
699.343	0.0158848
699.422	0.0158793
699.500	0.0157845
699.578	0.0158308
699.656	0.0159924
699.734	0.0159604
699.812	0.0160127
699.890	0.0160249
699.968	0.0159914
700.047	0.0159461
700.125	0.0158234
700.203	0.0157774
700.281	0.0159288
700.359	0.0160242
700.437	0.0158440
700.515	0.0158508
700.593	0.0160484
700.672	0.0159845
700.750	0.0160245
700.828	0.0159592
700.906	0.0158835
700.984	0.0158610
701.062	0.0158255
701.140	0.0159656
701.218	0.0158987
701.297	0.0158817
701.375	0.0158187
701.453	0.0158942
701.531	0.0159488
701.609	0.0158643
701.687	0.0159024
701.765	0.0158108
701.843	0.0159963
701.922	0.0158727
702.000	0.0158389
702.078	0.0159557
702.156	0.0159078
702.234	0.0157455
702.312	0.0158393
702.390	0.0158106
702.468	0.0160674
702.547	0.0159394
702.625	0.0157402
702.703	0.0158776
702.781	0.0158831
702.859	0.0159314
702.937	0.0159065
703.015	0.0158971
703.093	0.0159051
703.172	0.0158264
703.250	0.0159844
703.328	0.0159624
703.406	0.0157816
703.484	0.0159391
703.562	0.0159547
703.640	0.0158420
703.718	0.0159219
703.797	0.0158989
703.875	0.0159995
703.953	0.0159985
704.031	0.0159348
704.109	0.0160090
704.187	0.0158224
704.265	0.0159526
704.343	0.0159402
704.422	0.0158624
704.500	0.0158562
704.578	0.0159734
704.656	0.0159158
704.734	0.0158266
704.812	0.0159060
704.890	0.0160186
704.968	0.0158940
705.047	0.0160701
705.125	0.0159970
705.203	0.0158496
705.281	0.0159167
705.359	0.0159188
705.437	0.0158331
705.515	0.0159973
705.593	0.0158729
705.672	0.0159280
705.750	0.0159552
705.828	0.0160162
705.906	0.0158836
705.984	0.0160158
706.062	0.0159878
706.140	0.0159063
706.218	0.0160268
706.297	0.0158732
706.375	0.0159650
706.453	0.0158475
706.531	0.0158934
706.609	0.0159249
706.687	0.0159229
706.765	0.0159520
706.843	0.0160123
706.922	0.0159883
707.000	0.0159668
707.078	0.0158787
707.156	0.0159322
707.234	0.0158390
707.312	0.0160432
707.390	0.0160044
707.468	0.0159341
707.547	0.0158986
707.625	0.0158997
707.703	0.0159090
707.781	0.0160337
707.859	0.0160076
707.937	0.0160056
708.015	0.0160465
708.093	0.0158669
708.172	0.0159301
708.250	0.0159321
708.328	0.0160323
708.406	0.0159349
708.484	0.0158803
708.562	0.0159645
708.640	0.0159317
708.718	0.0159578
708.797	0.0159122
708.875	0.0160311
708.953	0.0158640
709.031	0.0158771
709.109	0.0159380
709.187	0.0159885
709.265	0.0159984
709.343	0.0158102
709.422	0.0158902
709.500	0.0160291
709.578	0.0160895
709.656	0.0158250
709.734	0.0160161
709.812	0.0159631
709.890	0.0159869
709.968	0.0158861
710.047	0.0159478
710.125	0.0159328
710.203	0.0158732
710.281	0.0160780
710.359	0.0159089
710.437	0.0159238
710.515	0.0158606
710.593	0.0158244
710.672	0.0159338
710.750	0.0159422
710.828	0.0158432
710.906	0.0158816
710.984	0.0159782
711.062	0.0158727
711.140	0.0158767
711.218	0.0159961
711.297	0.0159261
711.375	0.0158571
711.453	0.0158821
711.531	0.0158709
711.609	0.0157561
711.687	0.0159018
711.765	0.0159744
711.843	0.0159198
711.922	0.0158509
712.000	0.0159780
712.078	0.0159030
712.156	0.0159220
712.234	0.0159562
712.312	0.0159281
712.390	0.0158128
712.468	0.0159514
712.547	0.0159742
712.625	0.0159641
712.703	0.0159226
712.781	0.0158743
712.859	0.0159391
712.937	0.0159228
713.015	0.0159641
713.093	0.0159637
713.172	0.0159621
713.250	0.0159280
713.328	0.0158404
713.406	0.0159375
713.484	0.0160387
713.562	0.0159757
713.640	0.0158946
713.718	0.0160004
713.797	0.0159705
713.875	0.0160070
713.953	0.0159713
714.031	0.0159138
714.109	0.0159267
714.187	0.0158994
714.265	0.0160048
714.343	0.0159268
714.422	0.0158582
714.500	0.0159461
714.578	0.0159602
714.656	0.0159472
714.734	0.0158469
714.812	0.0158948
714.890	0.0159259
714.968	0.0159534
715.047	0.0159637
715.125	0.0158340
715.203	0.0159483
715.281	0.0158186
715.359	0.0159682
715.437	0.0158226
715.515	0.0160066
715.593	0.0158412
715.672	0.0158467
715.750	0.0159219
715.828	0.0159305
715.906	0.0159711
715.984	0.0159422
716.062	0.0159785
716.140	0.0159759
716.218	0.0159388
716.297	0.0159148
716.375	0.0159860
716.453	0.0159402
716.531	0.0159220
716.609	0.0158365
716.687	0.0158519
716.765	0.0158614
716.843	0.0159149
716.922	0.0159563
717.000	0.0159582
717.078	0.0159230
717.156	0.0158495
717.234	0.0157915
717.312	0.0157974
717.390	0.0158463
717.468	0.0159525
717.547	0.0159401
717.625	0.0157491
717.703	0.0158145
717.781	0.0159601
717.859	0.0159473
717.937	0.0158916
718.015	0.0158257
718.093	0.0159747
718.172	0.0160245
718.250	0.0159280
718.328	0.0158772
718.406	0.0158933
718.484	0.0159010
718.562	0.0159943
718.640	0.0159436
718.718	0.0158286
718.797	0.0158014
718.875	0.0158704
718.953	0.0158593
719.031	0.0160291
719.109	0.0159733
719.187	0.0158997
719.265	0.0158385
719.343	0.0157748
719.422	0.0158263
719.500	0.0158695
719.578	0.0159845
719.656	0.0159080
719.734	0.0158486
719.812	0.0158852
719.890	0.0158909
719.968	0.0159692
720.047	0.0159013
720.125	0.0159368
720.203	0.0159339
720.281	0.0159215
720.359	0.0158577
720.437	0.0158501
720.515	0.0158613
720.593	0.0159251
720.672	0.0159476
720.750	0.0158367
720.828	0.0159891
720.906	0.0158993
720.984	0.0158828
721.062	0.0159194
721.140	0.0160039
721.218	0.0159865
721.297	0.0158497
721.375	0.0159709
721.453	0.0158847
721.531	0.0158992
721.609	0.0159082
721.687	0.0158769
721.765	0.0157961
721.843	0.0159639
721.922	0.0159352
722.000	0.0159218
722.078	0.0160064
722.156	0.0159671
722.234	0.0159270
722.312	0.0159930
722.390	0.0159699
722.468	0.0159705
722.547	0.0158885
722.625	0.0159008
722.703	0.0160072
722.781	0.0159830
722.859	0.0157728
722.937	0.0158601
723.015	0.0160803
723.093	0.0160318
723.172	0.0159511
723.250	0.0159701
723.328	0.0159148
723.406	0.0159525
723.484	0.0159941
723.562	0.0158437
723.640	0.0158804
723.718	0.0159318
723.797	0.0160398
723.875	0.0160296
723.953	0.0159098
724.031	0.0160755
724.109	0.0159441
724.187	0.0160392
724.265	0.0161493
724.343	0.0159971
724.422	0.0157878
724.500	0.0159753
724.578	0.0159430
724.656	0.0159985
724.734	0.0159495
724.812	0.0159368
724.890	0.0159451
724.968	0.0160587
725.047	0.0161288
725.125	0.0159660
725.203	0.0159899
725.281	0.0160320
725.359	0.0159462
725.437	0.0159140
725.515	0.0159644
725.593	0.0160019
725.672	0.0159532
725.750	0.0159267
725.828	0.0159611
725.906	0.0160708
725.984	0.0160548
726.062	0.0159908
726.140	0.0159898
726.218	0.0160264
726.297	0.0160747
726.375	0.0159757
726.453	0.0159354
726.531	0.0160117
726.609	0.0159406
726.687	0.0158913
726.765	0.0160888
726.843	0.0160529
726.922	0.0159933
727.000	0.0160259
727.078	0.0159740
727.156	0.0159693
727.234	0.0160081
727.312	0.0159735
727.390	0.0159512
727.468	0.0161085
727.547	0.0158581
727.625	0.0159484
727.703	0.0160077
727.781	0.0159483
727.859	0.0160223
727.937	0.0161086
728.015	0.0159550
728.093	0.0160082
728.172	0.0159826
728.250	0.0160176
728.328	0.0159544
728.406	0.0159393
728.484	0.0159843
728.562	0.0159997
728.640	0.0160079
728.718	0.0159460
728.797	0.0159412
728.875	0.0158870
728.953	0.0158530
729.031	0.0158126
729.109	0.0159270
729.187	0.0160784
729.265	0.0158973
729.343	0.0159458
729.422	0.0157999
729.500	0.0160251
729.578	0.0158327
729.656	0.0159481
729.734	0.0158185
729.812	0.0159070
729.890	0.0160038
729.968	0.0158734
730.047	0.0158676
730.125	0.0159132
730.203	0.0158501
730.281	0.0157963
730.359	0.0157949
730.437	0.0159027
730.515	0.0160265
730.593	0.0157590
730.672	0.0158669
730.750	0.0158749
730.828	0.0158942
730.906	0.0158644
730.984	0.0158055
731.062	0.0158954
731.140	0.0158125
731.218	0.0157967
731.297	0.0159278
731.375	0.0158746
731.453	0.0157588
731.531	0.0158680
731.609	0.0158218
731.687	0.0159199
731.765	0.0158245
731.843	0.0157937
731.922	0.0159671
732.000	0.0158070
732.078	0.0159317
732.156	0.0157870
732.234	0.0160042
732.312	0.0159209
732.390	0.0157446
732.468	0.0156866
732.547	0.0158450
732.625	0.0158507
732.703	0.0157634
732.781	0.0159197
732.859	0.0158896
732.937	0.0158558
733.015	0.0159618
733.093	0.0157920
733.172	0.0157347
733.250	0.0158475
733.328	0.0159787
733.406	0.0157150
733.484	0.0158708
733.562	0.0158215
733.640	0.0158682
733.718	0.0158615
733.797	0.0158785
733.875	0.0157349
733.953	0.0158620
734.031	0.0157689
734.109	0.0158829
734.187	0.0159448
734.265	0.0159097
734.343	0.0158601
734.422	0.0158329
734.500	0.0158595
734.578	0.0159790
734.656	0.0160067
734.734	0.0158692
734.812	0.0159015
734.890	0.0158766
734.968	0.0159955
735.047	0.0160295
735.125	0.0158862
735.203	0.0158593
735.281	0.0159670
735.359	0.0159935
735.437	0.0158922
735.515	0.0159888
735.593	0.0159775
735.672	0.0158926
735.750	0.0159103
735.828	0.0159245
735.906	0.0159180
735.984	0.0160683
736.062	0.0158896
736.140	0.0159949
736.218	0.0158479
736.297	0.0157966
736.375	0.0160180
736.453	0.0159105
736.531	0.0159673
736.609	0.0157970
736.687	0.0158635
736.765	0.0159258
736.843	0.0158389
736.922	0.0158606
737.000	0.0159743
737.078	0.0158868
737.156	0.0158176
737.234	0.0159319
737.312	0.0159181
737.390	0.0159241
737.468	0.0158151
737.547	0.0158614
737.625	0.0159831
737.703	0.0159184
737.781	0.0157917
737.859	0.0157951
737.937	0.0158501
738.015	0.0159753
738.093	0.0159377
738.172	0.0159999
738.250	0.0159216
738.328	0.0158634
738.406	0.0159690
738.484	0.0158690
738.562	0.0158195
738.640	0.0158141
738.718	0.0158412
738.797	0.0159680
738.875	0.0160316
738.953	0.0158935
739.031	0.0158354
739.109	0.0157913
739.187	0.0160229
739.265	0.0159991
739.343	0.0159918
739.422	0.0160815
739.500	0.0159892
739.578	0.0160220
739.656	0.0160502
739.734	0.0161474
739.812	0.0162909
739.890	0.0161885
739.968	0.0161698
740.047	0.0162238
740.125	0.0161046
740.203	0.0161604
740.281	0.0160854
740.359	0.0158960
740.437	0.0159631
740.515	0.0159803
740.593	0.0158829
740.672	0.0156957
740.750	0.0157360
740.828	0.0157057
740.906	0.0158201
740.984	0.0155890
741.062	0.0156321
741.140	0.0157452
741.218	0.0157649
741.297	0.0156811
741.375	0.0155018
741.453	0.0156178
741.531	0.0156456
741.609	0.0158094
741.687	0.0159405
741.765	0.0160641
741.843	0.0163381
741.922	0.0165739
742.000	0.0166626
742.078	0.0169597
742.156	0.0169855
742.234	0.0170557
742.312	0.0170717
742.390	0.0168755
742.468	0.0166660
742.547	0.0165720
742.625	0.0162178
742.703	0.0159081
742.781	0.0154694
742.859	0.0151769
742.937	0.0148407
743.015	0.0144928
743.093	0.0142387
743.172	0.0139528
743.250	0.0139227
743.328	0.0139366
743.406	0.0140118
743.484	0.0141683
743.562	0.0143130
743.640	0.0148481
743.718	0.0150089
743.797	0.0154564
743.875	0.0160144
743.953	0.0165110
744.031	0.0169980
744.109	0.0176302
744.187	0.0181474
744.265	0.0186510
744.343	0.0190044
744.422	0.0192770
744.500	0.0195674
744.578	0.0195700
744.656	0.0193597
744.734	0.0193345
744.812	0.0187438
744.890	0.0182572
744.968	0.0173628
745.047	0.0164507
745.125	0.0153061
745.203	0.0145939
745.281	0.0135059
745.359	0.0125934
745.437	0.0117928
745.515	0.0112051
745.593	0.0108937
745.672	0.0108587
745.750	0.0107643
745.828	0.0109328
745.906	0.0113052
745.984	0.0118166
746.062	0.0126450
746.140	0.0135487
746.218	0.0144482
746.297	0.0154924
746.375	0.0164577
746.453	0.0175747
746.531	0.0185597
746.609	0.0193446
746.687	0.0201484
746.765	0.0207624
746.843	0.0212646
746.922	0.0214194
747.000	0.0215151
747.078	0.0213090
747.156	0.0207703
747.234	0.0201118
747.312	0.0194012
747.390	0.0184167
747.468	0.0172932
747.547	0.0163078
747.625	0.0151390
747.703	0.0143114
747.781	0.0133505
747.859	0.0128267
747.937	0.0123974
748.015	0.0121658
748.093	0.0121422
748.172	0.0122261
748.250	0.0123960
748.328	0.0126562
748.406	0.0129166
748.484	0.0132891
748.562	0.0134604
748.640	0.0138067
748.718	0.0139848
748.797	0.0143519
748.875	0.0149039
748.953	0.0155769
749.031	0.0161433
749.109	0.0168642
749.187	0.0175582
749.265	0.0180186
749.343	0.0184014
749.422	0.0187300
749.500	0.0187936
749.578	0.0186380
749.656	0.0184293
749.734	0.0182063
749.812	0.0177928
749.890	0.0175423
749.968	0.0172132
750.047	0.0168343
750.125	0.0167694
750.203	0.0164613
750.281	0.0160844
750.359	0.0160442
750.437	0.0156830
750.515	0.0153971
750.593	0.0150316
750.672	0.0146123
750.750	0.0140743
750.828	0.0140706
750.906	0.0137264
750.984	0.0138079
751.062	0.0138625
751.140	0.0142185
751.218	0.0144438
751.297	0.0148823
751.375	0.0154905
751.453	0.0161281
751.531	0.0165987
751.609	0.0170518
751.687	0.0174174
751.765	0.0179950
751.843	0.0185712
751.922	0.0189114
752.000	0.0191209
752.078	0.0193078
752.156	0.0193039
752.234	0.0192599
752.312	0.0190849
752.390	0.0184956
752.468	0.0180487
752.547	0.0174207
752.625	0.0166159
752.703	0.0157101
752.781	0.0149390
752.859	0.0142064
752.937	0.0132168
753.015	0.0125545
753.093	0.0119889
753.172	0.0113613
753.250	0.0109161
753.328	0.0107549
753.406	0.0106307
753.484	0.0107241
753.562	0.0110170
753.640	0.0114902
753.718	0.0122428
753.797	0.0132748
753.875	0.0140984
753.953	0.0152604
754.031	0.0163184
754.109	0.0173721
754.187	0.0183998
754.265	0.0193034
754.343	0.0200959
754.422	0.0206900
754.500	0.0210843
754.578	0.0213796
754.656	0.0212036
754.734	0.0211448
754.812	0.0207784
754.890	0.0202840
754.968	0.0197004
755.047	0.0191325
755.125	0.0185154
755.203	0.0177956
755.281	0.0172494
755.359	0.0163463
755.437	0.0158881
755.515	0.0153468
755.593	0.0147672
755.672	0.0143896
755.750	0.0139088
755.828	0.0136013
755.906	0.0132365
755.984	0.0130914
756.062	0.0130398
756.140	0.0126564
756.218	0.0126396
756.297	0.0124884
756.375	0.0124777
756.453	0.0126163
756.531	0.0129986
756.609	0.0133634
756.687	0.0137019
756.765	0.0143134
756.843	0.0146735
756.922	0.0152641
757.000	0.0159735
757.078	0.0165181
757.156	0.0170107
757.234	0.0173914
757.312	0.0179178
757.390	0.0182880
757.468	0.0187729
757.547	0.0187743
757.625	0.0189396
757.703	0.0190012
757.781	0.0187012
757.859	0.0184298
757.937	0.0180176
758.015	0.0175271
758.093	0.0168932
758.172	0.0161369
758.250	0.0154556
758.328	0.0147075
758.406	0.0141811
758.484	0.0137726
758.562	0.0133676
758.640	0.0132139
758.718	0.0131057
758.797	0.0131276
758.875	0.0132352
758.953	0.0133764
759.031	0.0138059
759.109	0.0142943
759.187	0.0145096
759.265	0.0149643
759.343	0.0157066
759.422	0.0161327
759.500	0.0166745
759.578	0.0172736
759.656	0.0176649
759.734	0.0180672
759.812	0.0185242
759.890	0.0187172
759.968	0.0189430
760.047	0.0188737
760.125	0.0188210
760.203	0.0183634
760.281	0.0180850
760.359	0.0179240
760.437	0.0173349
760.515	0.0170961
760.593	0.0168357
760.672	0.0163839
760.750	0.0160365
760.828	0.0157452
760.906	0.0151702
760.984	0.0147055
761.062	0.0144732
761.140	0.0143201
761.218	0.0141100
761.297	0.0139027
761.375	0.0139000
761.453	0.0139962
761.531	0.0141694
761.609	0.0141985
761.687	0.0143554
761.765	0.0145584
761.843	0.0149152
761.922	0.0151624
762.000	0.0153956
762.078	0.0156670
762.156	0.0157340
762.234	0.0158545
762.312	0.0158669
762.390	0.0160223
762.468	0.0160374
762.547	0.0160110
762.625	0.0159757
762.703	0.0157056
762.781	0.0157652
762.859	0.0156451
762.937	0.0156252
763.015	0.0154128
763.093	0.0154844
763.172	0.0155901
763.250	0.0155913
763.328	0.0158025
763.406	0.0158968
763.484	0.0162261
763.562	0.0163939
763.640	0.0165083
763.718	0.0166576
763.797	0.0165804
763.875	0.0167094
763.953	0.0167903
764.031	0.0170660
764.109	0.0170341
764.187	0.0171111
764.265	0.0171573
764.343	0.0171774
764.422	0.0170882
764.500	0.0170737
764.578	0.0169543
764.656	0.0165301
764.734	0.0162545
764.812	0.0162050
764.890	0.0161330
764.968	0.0158414
765.047	0.0158805
765.125	0.0157727
765.203	0.0157034
765.281	0.0157181
765.359	0.0156419
765.437	0.0153828
765.515	0.0156152
765.593	0.0155447
765.672	0.0155980
765.750	0.0156315
765.828	0.0156582
765.906	0.0157938
765.984	0.0157936
766.062	0.0158111
766.140	0.0159338
766.218	0.0159496
766.297	0.0160187
766.375	0.0158685
766.453	0.0157074
766.531	0.0155194
766.609	0.0155124
766.687	0.0154572
766.765	0.0151886
766.843	0.0152424
766.922	0.0154225
767.000	0.0152677
767.078	0.0155255
767.156	0.0155421
767.234	0.0154777
767.312	0.0156767
767.390	0.0156826
767.468	0.0158103
767.547	0.0158893
767.625	0.0159393
767.703	0.0160044
767.781	0.0159566
767.859	0.0159891
767.937	0.0159364
768.015	0.0158553
768.093	0.0159949
768.172	0.0160012
768.250	0.0159455
768.328	0.0159086
768.406	0.0157655
768.484	0.0157701
768.562	0.0158300
768.640	0.0157298
768.718	0.0155892
768.797	0.0155884
768.875	0.0156917
768.953	0.0158064
769.031	0.0159538
769.109	0.0158645
769.187	0.0159547
769.265	0.0160893
769.343	0.0161844
769.422	0.0163333
769.500	0.0165153
769.578	0.0165036
769.656	0.0166628
769.734	0.0167240
769.812	0.0167867
769.890	0.0167117
769.968	0.0168633
770.047	0.0167229
770.125	0.0166517
770.203	0.0163560
770.281	0.0162029
770.359	0.0160191
770.437	0.0158866
770.515	0.0157317
770.593	0.0157021
770.672	0.0155791
770.750	0.0154885
770.828	0.0155376
770.906	0.0156101
770.984	0.0154210
771.062	0.0154681
771.140	0.0155468
771.218	0.0156444
771.297	0.0156985
771.375	0.0156100
771.453	0.0158141
771.531	0.0157900
771.609	0.0158910
771.687	0.0157441
771.765	0.0157220
771.843	0.0157370
771.922	0.0156458
772.000	0.0156889
772.078	0.0155554
772.156	0.0155796
772.234	0.0154525
772.312	0.0153885
772.390	0.0154708
772.468	0.0153672
772.547	0.0154455
772.625	0.0156443
772.703	0.0155111
772.781	0.0155409
772.859	0.0156425
772.937	0.0158179
773.015	0.0158054
773.093	0.0158979
773.172	0.0159033
773.250	0.0158316
773.328	0.0158949
773.406	0.0157345
773.484	0.0157966
773.562	0.0157550
773.640	0.0158380
773.718	0.0157800
773.797	0.0157988
773.875	0.0156801
773.953	0.0159663
774.031	0.0159086
774.109	0.0160230
774.187	0.0159300
774.265	0.0161363
774.343	0.0163345
774.422	0.0164864
774.500	0.0165093
774.578	0.0165386
774.656	0.0166036
774.734	0.0165903
774.812	0.0166785
774.890	0.0168005
774.968	0.0167279
775.047	0.0167702
775.125	0.0165611
775.203	0.0164351
775.281	0.0164269
775.359	0.0161934
775.437	0.0163508
775.515	0.0162498
775.593	0.0162603
775.672	0.0160997
775.750	0.0161674
775.828	0.0161688
775.906	0.0161576
775.984	0.0162925
776.062	0.0163525
776.140	0.0162567
776.218	0.0164558
776.297	0.0164124
776.375	0.0165587
776.453	0.0164729
776.531	0.0162949
776.609	0.0160355
776.687	0.0160223
776.765	0.0159580
776.843	0.0156802
776.922	0.0154256
777.000	0.0151500
777.078	0.0150484
777.156	0.0147665
777.234	0.0147061
777.312	0.0146999
777.390	0.0146398
777.468	0.0146021
777.547	0.0147549
777.625	0.0150069
777.703	0.0150649
777.781	0.0150306
777.859	0.0155849
777.937	0.0157076
778.015	0.0158597
778.093	0.0161434
778.172	0.0163293
778.250	0.0164063
778.328	0.0164274
778.406	0.0165301
778.484	0.0163194
778.562	0.0163567
778.640	0.0162411
778.718	0.0161641
778.797	0.0158817
778.875	0.0157747
778.953	0.0156967
779.031	0.0157102
779.109	0.0157372
779.187	0.0155987
779.265	0.0158063
779.343	0.0156697
779.422	0.0156346
779.500	0.0158361
779.578	0.0159726
779.656	0.0161181
779.734	0.0162151
779.812	0.0163259
779.890	0.0164836
779.968	0.0165978
780.047	0.0167697
780.125	0.0169270
780.203	0.0169636
780.281	0.0167006
780.359	0.0165569
780.437	0.0165570
780.515	0.0165742
780.593	0.0164687
780.672	0.0163598
780.750	0.0162284
780.828	0.0161766
780.906	0.0161929
780.984	0.0160819
781.062	0.0160254
781.140	0.0160558
781.218	0.0160532
781.297	0.0160140
781.375	0.0160197
781.453	0.0158237
781.531	0.0158933
781.609	0.0158979
781.687	0.0158894
781.765	0.0157427
781.843	0.0158071
781.922	0.0157211
782.000	0.0155267
782.078	0.0153681
782.156	0.0154803
782.234	0.0151985
782.312	0.0152206
782.390	0.0152444
782.468	0.0152568
782.547	0.0151862
782.625	0.0151734
782.703	0.0152076
782.781	0.0154651
782.859	0.0154329
782.937	0.0156484
783.015	0.0158945
783.093	0.0160146
783.172	0.0160920
783.250	0.0162222
783.328	0.0162980
783.406	0.0163985
783.484	0.0164577
783.562	0.0163835
783.640	0.0163349
783.718	0.0162182
783.797	0.0162588
783.875	0.0162088
783.953	0.0159096
784.031	0.0157662
784.109	0.0157068
784.187	0.0157633
784.265	0.0156182
784.343	0.0155309
784.422	0.0154202
784.500	0.0155595
784.578	0.0157729
784.656	0.0157787
784.734	0.0157490
784.812	0.0158295
784.890	0.0159808
784.968	0.0159678
785.047	0.0160320
785.125	0.0160214
785.203	0.0161983
785.281	0.0162328
785.359	0.0162890
785.437	0.0163052
785.515	0.0161390
785.593	0.0159954
785.672	0.0161020
785.750	0.0159804
785.828	0.0159590
785.906	0.0159631
785.984	0.0160529
786.062	0.0158408
786.140	0.0158949
786.218	0.0160548
786.297	0.0159789
786.375	0.0159560
786.453	0.0160803
786.531	0.0162106
786.609	0.0162081
786.687	0.0161171
786.765	0.0161720
786.843	0.0161239
786.922	0.0159856
787.000	0.0160084
787.078	0.0160147
787.156	0.0160106
787.234	0.0160278
787.312	0.0159825
787.390	0.0158959
787.468	0.0158215
787.547	0.0157631
787.625	0.0156886
787.703	0.0156516
787.781	0.0156186
787.859	0.0155669
787.937	0.0155302
788.015	0.0155447
788.093	0.0157016
788.172	0.0157011
788.250	0.0156128
788.328	0.0156919
788.406	0.0158717
788.484	0.0159469
788.562	0.0159367
788.640	0.0160645
788.718	0.0159502
788.797	0.0160819
788.875	0.0162640
788.953	0.0160472
789.031	0.0161985
789.109	0.0161059
789.187	0.0161161
789.265	0.0163196
789.343	0.0162543
789.422	0.0161565
789.500	0.0160694
789.578	0.0161345
789.656	0.0159438
789.734	0.0158373
789.812	0.0157603
789.890	0.0157430
789.968	0.0156542
790.047	0.0155780
790.125	0.0156373
790.203	0.0155397
790.281	0.0155002
790.359	0.0156470
790.437	0.0155636
790.515	0.0154407
790.593	0.0155569
790.672	0.0155798
790.750	0.0155777
790.828	0.0157905
790.906	0.0157673
790.984	0.0157528
791.062	0.0158269
791.140	0.0159807
791.218	0.0160172
791.297	0.0160565
791.375	0.0161850
791.453	0.0161721
791.531	0.0162855
791.609	0.0161875
791.687	0.0162570
791.765	0.0162275
791.843	0.0163406
791.922	0.0163625
792.000	0.0163428
792.078	0.0162865
792.156	0.0161189
792.234	0.0162617
792.312	0.0161300
792.390	0.0158659
792.468	0.0158268
792.547	0.0157933
792.625	0.0158184
792.703	0.0157389
792.781	0.0156091
792.859	0.0157809
792.937	0.0155984
793.015	0.0157209
793.093	0.0156106
793.172	0.0157203
793.250	0.0157275
793.328	0.0158273
793.406	0.0158900
793.484	0.0160187
793.562	0.0159949
793.640	0.0162300
793.718	0.0160400
793.797	0.0162114
793.875	0.0163850
793.953	0.0163523
794.031	0.0163838
794.109	0.0163452
794.187	0.0164231
794.265	0.0162948
794.343	0.0163290
794.422	0.0161508
794.500	0.0160800
794.578	0.0160351
794.656	0.0160287
794.734	0.0158201
794.812	0.0157561
794.890	0.0157106
794.968	0.0155359
795.047	0.0156013
795.125	0.0153855
795.203	0.0154972
795.281	0.0154085
795.359	0.0153478
795.437	0.0155259
795.515	0.0155869
795.593	0.0155742
795.672	0.0155946
795.750	0.0155700
795.828	0.0158585
795.906	0.0157726
795.984	0.0159402
796.062	0.0158685
796.140	0.0159518
796.218	0.0160619
796.297	0.0160030
796.375	0.0159670
796.453	0.0159515
796.531	0.0159451
796.609	0.0159816
796.687	0.0160588
796.765	0.0159897
796.843	0.0160001
796.922	0.0159406
797.000	0.0159358
797.078	0.0160157
797.156	0.0161669
797.234	0.0160258
797.312	0.0160327
797.390	0.0160742
797.468	0.0161031
797.547	0.0160264
797.625	0.0159782
797.703	0.0160632
797.781	0.0160911
797.859	0.0159195
797.937	0.0160803
798.015	0.0159324
798.093	0.0159749
798.172	0.0160128
798.250	0.0160107
798.328	0.0159681
798.406	0.0160189
798.484	0.0160063
798.562	0.0159381
798.640	0.0158414
798.718	0.0159565
798.797	0.0160954
798.875	0.0159529
798.953	0.0160116
799.031	0.0159132
799.109	0.0158870
799.187	0.0160773
799.265	0.0159285
799.343	0.0160138
799.422	0.0160458
799.500	0.0160370
799.578	0.0160445
799.656	0.0160466
799.734	0.0162080
799.812	0.0161572
799.890	0.0160946
799.968	0.0160731
800.047	0.0159537
800.125	0.0160255
800.203	0.0161199
800.281	0.0160319
800.359	0.0158768
800.437	0.0159290
800.515	0.0159183
800.593	0.0156738
800.672	0.0157200
800.750	0.0157200
800.828	0.0157136
800.906	0.0158031
800.984	0.0155676
801.062	0.0156084
801.140	0.0155765
801.218	0.0156274
801.297	0.0155914
801.375	0.0155475
801.453	0.0157752
801.531	0.0154463
801.609	0.0156261
801.687	0.0156686
801.765	0.0157742
801.843	0.0156142
801.922	0.0158425
802.000	0.0159164
802.078	0.0159663
802.156	0.0160600
802.234	0.0161462
802.312	0.0162387
802.390	0.0163212
802.468	0.0162778
802.547	0.0162479
802.625	0.0162502
802.703	0.0163356
802.781	0.0163124
802.859	0.0163773
802.937	0.0163580
803.015	0.0162908
803.093	0.0162843
803.172	0.0162720
803.250	0.0162680
803.328	0.0160612
803.406	0.0158485
803.484	0.0160716
803.562	0.0160193
803.640	0.0158925
803.718	0.0159216
803.797	0.0158621
803.875	0.0160312
803.953	0.0158120
804.031	0.0157113
804.109	0.0157357
804.187	0.0158743
804.265	0.0159184
804.343	0.0158762
804.422	0.0159975
804.500	0.0160040
804.578	0.0159141
804.656	0.0159169
804.734	0.0160324
804.812	0.0160860
804.890	0.0161315
804.968	0.0161540
805.047	0.0161922
805.125	0.0161804
805.203	0.0162922
805.281	0.0162472
805.359	0.0159900
805.437	0.0159928
805.515	0.0159587
805.593	0.0160627
805.672	0.0159870
805.750	0.0159453
805.828	0.0159980
805.906	0.0157732
805.984	0.0157589
806.062	0.0155997
806.140	0.0155000
806.218	0.0156503
806.297	0.0157529
806.375	0.0156317
806.453	0.0157571
806.531	0.0156966
806.609	0.0157013
806.687	0.0157616
806.765	0.0157538
806.843	0.0158547
806.922	0.0158825
807.000	0.0159062
807.078	0.0158842
807.156	0.0159193
807.234	0.0158874
807.312	0.0159853
807.390	0.0160154
807.468	0.0159123
807.547	0.0158833
807.625	0.0159282
807.703	0.0160743
807.781	0.0160233
807.859	0.0160994
807.937	0.0160500
808.015	0.0159801
808.093	0.0161800
808.172	0.0161230
808.250	0.0160152
808.328	0.0160013
808.406	0.0160853
808.484	0.0160587
808.562	0.0159307
808.640	0.0160332
808.718	0.0159789
808.797	0.0158903
808.875	0.0158163
808.953	0.0158411
809.031	0.0157341
809.109	0.0155979
809.187	0.0156459
809.265	0.0157473
809.343	0.0156001
809.422	0.0156297
809.500	0.0156721
809.578	0.0156911
809.656	0.0156403
809.734	0.0157527
809.812	0.0157789
809.890	0.0157336
809.968	0.0156051
810.047	0.0157777
810.125	0.0157312
810.203	0.0158330
810.281	0.0159171
810.359	0.0159602
810.437	0.0160365
810.515	0.0160873
810.593	0.0159779
810.672	0.0160285
810.750	0.0160487
810.828	0.0159943
810.906	0.0160017
810.984	0.0160799
811.062	0.0161533
811.140	0.0161131
811.218	0.0160748
811.297	0.0159761
811.375	0.0158780
811.453	0.0159490
811.531	0.0158891
811.609	0.0160462
811.687	0.0159251
811.765	0.0161060
811.843	0.0160454
811.922	0.0158030
812.000	0.0157855
812.078	0.0159071
812.156	0.0159207
812.234	0.0158724
812.312	0.0158566
812.390	0.0157887
812.468	0.0158224
812.547	0.0159107
812.625	0.0158942
812.703	0.0157729
812.781	0.0157023
812.859	0.0158846
812.937	0.0158153
813.015	0.0157987
813.093	0.0157365
813.172	0.0157591
813.250	0.0157784
813.328	0.0158105
813.406	0.0158669
813.484	0.0160101
813.562	0.0158602
813.640	0.0158804
813.718	0.0160612
813.797	0.0160774
813.875	0.0159842
813.953	0.0159908
814.031	0.0160603
814.109	0.0159949
814.187	0.0159975
814.265	0.0162131
814.343	0.0160236
814.422	0.0161073
814.500	0.0159917
814.578	0.0161028
814.656	0.0158585
814.734	0.0159047
814.812	0.0158534
814.890	0.0158832
814.968	0.0157135
815.047	0.0155594
815.125	0.0157369
815.203	0.0157603
815.281	0.0157394
815.359	0.0157814
815.437	0.0156260
815.515	0.0156523
815.593	0.0157384
815.672	0.0157665
815.750	0.0158311
815.828	0.0158193
815.906	0.0159020
815.984	0.0159532
816.062	0.0159651
816.140	0.0159795
816.218	0.0159619
816.297	0.0160745
816.375	0.0159966
816.453	0.0160194
816.531	0.0161575
816.609	0.0160210
816.687	0.0160458
816.765	0.0160727
816.843	0.0159927
816.922	0.0160280
817.000	0.0159574
817.078	0.0159554
817.156	0.0158573
817.234	0.0158841
817.312	0.0159261
817.390	0.0157996
817.468	0.0158644
817.547	0.0159612
817.625	0.0159507
817.703	0.0159027
817.781	0.0159129
817.859	0.0160347
817.937	0.0160001
818.015	0.0160468
818.093	0.0160737
818.172	0.0160509
818.250	0.0160026
818.328	0.0160680
818.406	0.0160608
818.484	0.0160600
818.562	0.0160228
818.640	0.0159071
818.718	0.0159868
818.797	0.0159620
818.875	0.0157923
818.953	0.0158479
819.031	0.0158370
819.109	0.0158166
819.187	0.0158401
819.265	0.0156917
819.343	0.0159730
819.422	0.0157379
819.500	0.0159693
819.578	0.0159551
819.656	0.0160005
819.734	0.0158685
819.812	0.0158316
819.890	0.0159305
819.968	0.0158762
820.047	0.0159490
820.125	0.0161125
820.203	0.0160216
820.281	0.0159065
820.359	0.0157576
820.437	0.0157554
820.515	0.0159167
820.593	0.0158421
820.672	0.0158216
820.750	0.0157524
820.828	0.0158986
820.906	0.0160702
820.984	0.0158374
821.062	0.0157578
821.140	0.0158362
821.218	0.0157243
821.297	0.0157947
821.375	0.0159123
821.453	0.0157530
821.531	0.0158050
821.609	0.0157224
821.687	0.0157191
821.765	0.0156955
821.843	0.0158250
821.922	0.0158844
822.000	0.0157800
822.078	0.0156734
822.156	0.0157266
822.234	0.0157975
822.312	0.0159033
822.390	0.0157947
822.468	0.0158820
822.547	0.0160053
822.625	0.0160087
822.703	0.0160471
822.781	0.0160532
822.859	0.0160667
822.937	0.0160973
823.015	0.0161334
823.093	0.0160597
823.172	0.0162362
823.250	0.0160725
823.328	0.0161116
823.406	0.0160396
823.484	0.0158936
823.562	0.0161507
823.640	0.0160713
823.718	0.0160853
823.797	0.0159206
823.875	0.0160073
823.953	0.0159599
824.031	0.0160048
824.109	0.0160522
824.187	0.0159459
824.265	0.0157860
824.343	0.0157793
824.422	0.0157014
824.500	0.0157420
824.578	0.0157373
824.656	0.0156715
824.734	0.0156215
824.812	0.0157874
824.890	0.0158975
824.968	0.0157589
825.047	0.0158550
825.125	0.0158447
825.203	0.0159157
825.281	0.0160081
825.359	0.0159509
825.437	0.0159475
825.515	0.0160397
825.593	0.0159439
825.672	0.0160248
825.750	0.0158322
825.828	0.0159321
825.906	0.0159946
825.984	0.0159926
826.062	0.0158170
826.140	0.0159319
826.218	0.0160020
826.297	0.0158526
826.375	0.0159144
826.453	0.0157732
826.531	0.0159577
826.609	0.0158336
826.687	0.0159964
826.765	0.0159138
826.843	0.0158452
826.922	0.0158562
827.000	0.0160146
827.078	0.0159583
827.156	0.0158607
827.234	0.0159419
827.312	0.0161249
827.390	0.0159737
827.468	0.0161200
827.547	0.0161072
827.625	0.0160585
827.703	0.0160674
827.781	0.0160528
827.859	0.0159446
827.937	0.0159676
828.015	0.0159563
828.093	0.0159266
828.172	0.0159638
828.250	0.0159664
828.328	0.0157397
828.406	0.0157924
828.484	0.0158201
828.562	0.0159691
828.640	0.0157823
828.718	0.0159331
828.797	0.0158301
828.875	0.0158366
828.953	0.0159403
829.031	0.0160616
829.109	0.0159958
829.187	0.0160335
829.265	0.0159202
829.343	0.0160846
829.422	0.0161023
829.500	0.0159225
829.578	0.0160778
829.656	0.0161941
829.734	0.0161290
829.812	0.0159779
829.890	0.0160362
829.968	0.0158089
830.047	0.0158141
830.125	0.0159673
830.203	0.0159413
830.281	0.0158444
830.359	0.0159274
830.437	0.0157811
830.515	0.0158482
830.593	0.0159557
830.672	0.0159974
830.750	0.0158208
830.828	0.0157534
830.906	0.0157399
830.984	0.0158774
831.062	0.0157465
831.140	0.0159579
831.218	0.0159515
831.297	0.0159587
831.375	0.0158195
831.453	0.0157932
831.531	0.0159592
831.609	0.0159571
831.687	0.0159037
831.765	0.0157915
831.843	0.0158510
831.922	0.0158457
832.000	0.0159657
832.078	0.0159461
832.156	0.0158498
832.234	0.0158958
832.312	0.0159205
832.390	0.0158329
832.468	0.0158087
832.547	0.0158452
832.625	0.0158533
832.703	0.0158349
832.781	0.0159404
832.859	0.0159486
832.937	0.0158488
833.015	0.0158498
833.093	0.0159403
833.172	0.0160491
833.250	0.0160862
833.328	0.0160950
833.406	0.0159896
833.484	0.0159826
833.562	0.0160131
833.640	0.0160717
833.718	0.0159431
833.797	0.0160291
833.875	0.0160519
833.953	0.0160198
834.031	0.0159495
834.109	0.0160423
834.187	0.0159612
834.265	0.0159405
834.343	0.0159499
834.422	0.0157755
834.500	0.0157695
834.578	0.0159505
834.656	0.0156602
834.734	0.0157819
834.812	0.0157211
834.890	0.0156941
834.968	0.0158836
835.047	0.0157691
835.125	0.0157263
835.203	0.0157185
835.281	0.0156365
835.359	0.0158237
835.437	0.0157200
835.515	0.0158007
835.593	0.0157666
835.672	0.0158952
835.750	0.0158173
835.828	0.0158398
835.906	0.0158952
835.984	0.0159859
836.062	0.0160071
836.140	0.0159476
836.218	0.0159677
836.297	0.0159779
836.375	0.0161240
836.453	0.0161469
836.531	0.0161752
836.609	0.0160335
836.687	0.0160612
836.765	0.0162265
836.843	0.0161526
836.922	0.0161207
837.000	0.0160498
837.078	0.0161700
837.156	0.0160382
837.234	0.0159872
837.312	0.0160465
837.390	0.0160179
837.468	0.0159109
837.547	0.0158006
837.625	0.0157117
837.703	0.0157910
837.781	0.0156994
837.859	0.0157375
837.937	0.0157343
838.015	0.0158688
838.093	0.0157278
838.172	0.0157684
838.250	0.0157608
838.328	0.0158222
838.406	0.0158731
838.484	0.0159935
838.562	0.0159311
838.640	0.0159706
838.718	0.0159664
838.797	0.0160644
838.875	0.0160575
838.953	0.0160291
839.031	0.0160002
839.109	0.0160115
839.187	0.0158703
839.265	0.0161641
839.343	0.0159499
839.422	0.0158470
839.500	0.0159905
839.578	0.0158934
839.656	0.0157912
839.734	0.0157710
839.812	0.0156379
839.890	0.0156137
839.968	0.0157394
840.047	0.0156990
840.125	0.0157085
840.203	0.0156203
840.281	0.0156671
840.359	0.0155619
840.437	0.0156999
840.515	0.0157117
840.593	0.0156370
840.672	0.0157758
840.750	0.0158310
840.828	0.0158331
840.906	0.0158677
840.984	0.0159188
841.062	0.0160857
841.140	0.0160204
841.218	0.0159431
841.297	0.0159026
841.375	0.0161062
841.453	0.0162293
841.531	0.0160287
841.609	0.0160931
841.687	0.0159698
841.765	0.0161279
841.843	0.0160548
841.922	0.0158305
842.000	0.0157256
842.078	0.0156116
842.156	0.0157890
842.234	0.0157239
842.312	0.0154840
842.390	0.0153924
842.468	0.0154019
842.547	0.0154230
842.625	0.0152142
842.703	0.0152749
842.781	0.0155309
842.859	0.0156818
842.937	0.0155729
843.015	0.0157297
843.093	0.0158115
843.172	0.0159286
843.250	0.0158876
843.328	0.0159664
843.406	0.0161380
843.484	0.0161346
843.562	0.0162192
843.640	0.0163821
843.718	0.0164040
843.797	0.0165076
843.875	0.0165392
843.953	0.0165456
844.031	0.0166139
844.109	0.0166419
844.187	0.0165025
844.265	0.0164299
844.343	0.0164507
844.422	0.0162748
844.500	0.0161763
844.578	0.0159421
844.656	0.0159425
844.734	0.0156936
844.812	0.0157011
844.890	0.0155662
844.968	0.0154438
845.047	0.0152717
845.125	0.0151577
845.203	0.0153768
845.281	0.0153872
845.359	0.0152335
845.437	0.0153045
845.515	0.0153317
845.593	0.0154752
845.672	0.0155238
845.750	0.0157025
845.828	0.0157138
845.906	0.0156472
845.984	0.0159078
846.062	0.0161073
846.140	0.0160243
846.218	0.0161629
846.297	0.0162529
846.375	0.0163390
846.453	0.0165030
846.531	0.0164902
846.609	0.0164346
846.687	0.0164426
846.765	0.0163752
846.843	0.0162513
846.922	0.0162230
847.000	0.0160476
847.078	0.0159651
847.156	0.0157979
847.234	0.0158073
847.312	0.0157212
847.390	0.0156688
847.468	0.0155769
847.547	0.0156520
847.625	0.0156620
847.703	0.0156918
847.781	0.0156171
847.859	0.0154893
847.937	0.0156695
848.015	0.0156328
848.093	0.0156448
848.172	0.0157037
848.250	0.0157133
848.328	0.0156911
848.406	0.0157121
848.484	0.0159120
848.562	0.0160313
848.640	0.0160519
848.718	0.0161436
848.797	0.0162189
848.875	0.0162154
848.953	0.0162744
849.031	0.0162564
849.109	0.0163449
849.187	0.0162743
849.265	0.0162406
849.343	0.0160987
849.422	0.0161435
849.500	0.0161363
849.578	0.0158482
849.656	0.0158886
849.734	0.0158494
849.812	0.0157827
849.890	0.0155022
849.968	0.0154347
850.047	0.0154819
850.125	0.0154536
850.203	0.0153429
850.281	0.0153727
850.359	0.0153558
850.437	0.0153433
850.515	0.0153621
850.593	0.0154263
850.672	0.0153222
850.750	0.0154030
850.828	0.0155958
850.906	0.0158393
850.984	0.0158797
851.062	0.0159079
851.140	0.0160781
851.218	0.0161767
851.297	0.0163990
851.375	0.0163343
851.453	0.0164074
851.531	0.0166001
851.609	0.0164899
851.687	0.0166584
851.765	0.0166827
851.843	0.0165737
851.922	0.0166511
852.000	0.0165335
852.078	0.0164123
852.156	0.0160723
852.234	0.0161922
852.312	0.0160750
852.390	0.0161067
852.468	0.0161918
852.547	0.0158064
852.625	0.0157751
852.703	0.0156670
852.781	0.0155570
852.859	0.0156580
852.937	0.0154671
853.015	0.0154106
853.093	0.0153771
853.172	0.0154324
853.250	0.0154691
853.328	0.0153259
853.406	0.0154037
853.484	0.0155318
853.562	0.0155473
853.640	0.0156264
853.718	0.0157578
853.797	0.0159174
853.875	0.0158104
853.953	0.0159622
854.031	0.0161020
854.109	0.0163307
854.187	0.0161510
854.265	0.0162080
854.343	0.0160995
854.422	0.0163419
854.500	0.0162914
854.578	0.0162130
854.656	0.0162238
854.734	0.0161453
854.812	0.0161773
854.890	0.0160030
854.968	0.0159074
855.047	0.0159543
855.125	0.0160153
855.203	0.0158528
855.281	0.0160532
855.359	0.0157265
855.437	0.0157188
855.515	0.0157918
855.593	0.0156830
855.672	0.0157533
855.750	0.0158556
855.828	0.0158676
855.906	0.0157800
855.984	0.0159055
856.062	0.0158260
856.140	0.0157138
856.218	0.0158192
856.297	0.0159853
856.375	0.0161619
856.453	0.0159737
856.531	0.0160105
856.609	0.0160670
856.687	0.0161105
856.765	0.0160314
856.843	0.0161584
856.922	0.0160363
857.000	0.0161214
857.078	0.0162563
857.156	0.0160867
857.234	0.0161922
857.312	0.0160195
857.390	0.0160458
857.468	0.0160176
857.547	0.0159192
857.625	0.0159653
857.703	0.0159144
857.781	0.0158330
857.859	0.0157908
857.937	0.0158867
858.015	0.0158249
858.093	0.0156677
858.172	0.0156593
858.250	0.0158838
858.328	0.0158138
858.406	0.0158681
858.484	0.0158527
858.562	0.0158238
858.640	0.0159350
858.718	0.0158546
858.797	0.0159605
858.875	0.0160334
858.953	0.0159187
859.031	0.0159679
859.109	0.0159359
859.187	0.0159560
859.265	0.0161789
859.343	0.0159911
859.422	0.0158578
859.500	0.0160130
859.578	0.0160247
859.656	0.0160950
859.734	0.0160955
859.812	0.0160090
859.890	0.0159846
859.968	0.0160461
860.047	0.0159708
860.125	0.0160594
860.203	0.0159343
860.281	0.0160029
860.359	0.0158839
860.437	0.0159082
860.515	0.0160341
860.593	0.0161145
860.672	0.0160542
860.750	0.0159568
860.828	0.0159940
860.906	0.0160577
860.984	0.0159415
861.062	0.0161878
861.140	0.0158710
861.218	0.0159386
861.297	0.0160516
861.375	0.0158819
861.453	0.0160791
861.531	0.0160283
861.609	0.0159943
861.687	0.0159410
861.765	0.0159634
861.843	0.0161633
861.922	0.0160408
862.000	0.0160223
862.078	0.0158709
862.156	0.0160178
862.234	0.0159141
862.312	0.0159209
862.390	0.0160043
862.468	0.0160024
862.547	0.0159425
862.625	0.0159142
862.703	0.0158302
862.781	0.0159418
862.859	0.0157815
862.937	0.0156990
863.015	0.0159154
863.093	0.0158324
863.172	0.0157727
863.250	0.0157394
863.328	0.0158598
863.406	0.0158083
863.484	0.0158874
863.562	0.0155984
863.640	0.0158736
863.718	0.0158414
863.797	0.0158008
863.875	0.0158007
863.953	0.0158092
864.031	0.0158912
864.109	0.0159480
864.187	0.0159349
864.265	0.0158617
864.343	0.0160035
864.422	0.0158372
864.500	0.0158961
864.578	0.0159279
864.656	0.0159825
864.734	0.0160622
864.812	0.0160805
864.890	0.0160933
864.968	0.0160303
865.047	0.0159175
865.125	0.0160721
865.203	0.0160796
865.281	0.0160043
865.359	0.0159876
865.437	0.0160173
865.515	0.0158943
865.593	0.0159907
865.672	0.0158930
865.750	0.0160732
865.828	0.0158192
865.906	0.0157764
865.984	0.0158568
866.062	0.0159138
866.140	0.0158595
866.218	0.0159111
866.297	0.0156577
866.375	0.0157552
866.453	0.0157905
866.531	0.0157692
866.609	0.0156628
866.687	0.0156876
866.765	0.0157306
866.843	0.0158669
866.922	0.0158722
867.000	0.0158337
867.078	0.0157909
867.156	0.0159579
867.234	0.0158283
867.312	0.0157889
867.390	0.0159171
867.468	0.0159058
867.547	0.0159487
867.625	0.0160854
867.703	0.0160507
867.781	0.0158897
867.859	0.0159046
867.937	0.0159905
868.015	0.0159963
868.093	0.0158170
868.172	0.0159837
868.250	0.0159131
868.328	0.0158711
868.406	0.0157883
868.484	0.0158796
868.562	0.0157438
868.640	0.0157513
868.718	0.0157494
868.797	0.0156754
868.875	0.0157442
868.953	0.0157468
869.031	0.0156472
869.109	0.0157953
869.187	0.0157407
869.265	0.0158128
869.343	0.0157948
869.422	0.0156818
869.500	0.0156547
869.578	0.0158844
869.656	0.0158743
869.734	0.0159157
869.812	0.0160079
869.890	0.0160794
869.968	0.0161033
870.047	0.0160389
870.125	0.0160883
870.203	0.0160754
870.281	0.0161016
870.359	0.0158768
870.437	0.0158717
870.515	0.0158956
870.593	0.0160239
870.672	0.0159377
870.750	0.0159427
870.828	0.0157724
870.906	0.0157951
870.984	0.0158518
871.062	0.0158862
871.140	0.0158245
871.218	0.0158172
871.297	0.0158147
871.375	0.0157652
871.453	0.0158223
871.531	0.0158512
871.609	0.0158620
871.687	0.0160368
871.765	0.0161114
871.843	0.0159740
871.922	0.0159564
872.000	0.0162009
872.078	0.0161185
872.156	0.0161288
872.234	0.0159237
872.312	0.0160522
872.390	0.0159887
872.468	0.0159696
872.547	0.0159359
872.625	0.0160641
872.703	0.0157799
872.781	0.0159442
872.859	0.0157843
872.937	0.0157016
873.015	0.0158036
873.093	0.0157423
873.172	0.0157761
873.250	0.0157555
873.328	0.0158326
873.406	0.0156763
873.484	0.0155618
873.562	0.0155675
873.640	0.0155714
873.718	0.0157700
873.797	0.0156550
873.875	0.0156628
873.953	0.0157901
874.031	0.0157352
874.109	0.0156042
874.187	0.0157455
874.265	0.0157661
874.343	0.0157667
874.422	0.0157854
874.500	0.0159143
874.578	0.0157061
874.656	0.0158829
874.734	0.0159045
874.812	0.0159680
874.890	0.0158166
874.968	0.0158646
875.047	0.0158624
875.125	0.0157421
875.203	0.0160342
875.281	0.0158800
875.359	0.0157848
875.437	0.0158312
875.515	0.0157837
875.593	0.0158965
875.672	0.0158879
875.750	0.0158453
875.828	0.0157510
875.906	0.0159594
875.984	0.0160201
876.062	0.0160560
876.140	0.0159306
876.218	0.0159322
876.297	0.0160690
876.375	0.0162441
876.453	0.0160316
876.531	0.0160571
876.609	0.0161501
876.687	0.0161930
876.765	0.0160977
876.843	0.0162137
876.922	0.0160646
877.000	0.0160474
877.078	0.0160378
877.156	0.0161691
877.234	0.0162371
877.312	0.0161051
877.390	0.0161147
877.468	0.0161469
877.547	0.0160744
877.625	0.0158489
877.703	0.0158633
877.781	0.0158346
877.859	0.0159296
877.937	0.0159492
878.015	0.0157390
878.093	0.0157072
878.172	0.0157331
878.250	0.0158442
878.328	0.0158086
878.406	0.0156866
878.484	0.0155608
878.562	0.0158104
878.640	0.0157512
878.718	0.0156695
878.797	0.0157058
878.875	0.0157849
878.953	0.0156633
879.031	0.0157476
879.109	0.0157903
879.187	0.0158755
879.265	0.0158226
879.343	0.0158486
879.422	0.0160564
879.500	0.0159875
879.578	0.0160101
879.656	0.0160683
879.734	0.0159978
879.812	0.0160352
879.890	0.0159920
879.968	0.0160059
880.047	0.0161028
880.125	0.0160167
880.203	0.0158978
880.281	0.0158974
880.359	0.0159570
880.437	0.0159174
880.515	0.0158342
880.593	0.0158134
880.672	0.0158340
880.750	0.0159172
880.828	0.0159304
880.906	0.0157748
880.984	0.0159527
881.062	0.0158295
881.140	0.0158089
881.218	0.0158199
881.297	0.0158707
881.375	0.0159700
881.453	0.0158320
881.531	0.0158125
881.609	0.0157452
881.687	0.0159017
881.765	0.0158662
881.843	0.0159551
881.922	0.0159161
882.000	0.0158197
882.078	0.0160281
882.156	0.0159554
882.234	0.0158775
882.312	0.0159380
882.390	0.0160081
882.468	0.0160601
882.547	0.0162373
882.625	0.0160575
882.703	0.0160892
882.781	0.0161448
882.859	0.0160600
882.937	0.0159995
883.015	0.0160507
883.093	0.0161245
883.172	0.0161293
883.250	0.0160696
883.328	0.0160432
883.406	0.0160677
883.484	0.0159971
883.562	0.0158978
883.640	0.0159863
883.718	0.0158938
883.797	0.0159153
883.875	0.0159109
883.953	0.0159415
884.031	0.0159211
884.109	0.0159969
884.187	0.0158654
884.265	0.0159032
884.343	0.0159186
884.422	0.0159696
884.500	0.0159090
884.578	0.0159133
884.656	0.0158669
884.734	0.0159370
884.812	0.0158935
884.890	0.0160818
884.968	0.0159715
885.047	0.0159083
885.125	0.0160684
885.203	0.0160043
885.281	0.0160331
885.359	0.0160145
885.437	0.0160258
885.515	0.0160306
885.593	0.0158214
885.672	0.0158364
885.750	0.0160432
885.828	0.0157023
885.906	0.0158626
885.984	0.0157187
886.062	0.0156587
886.140	0.0157977
886.218	0.0158002
886.297	0.0157350
886.375	0.0157638
886.453	0.0157999
886.531	0.0158862
886.609	0.0158606
886.687	0.0159026
886.765	0.0158395
886.843	0.0159174
886.922	0.0157439
887.000	0.0158785
887.078	0.0159364
887.156	0.0158475
887.234	0.0159580
887.312	0.0160889
887.390	0.0159008
887.468	0.0159311
887.547	0.0160293
887.625	0.0160224
887.703	0.0159962
887.781	0.0159702
887.859	0.0161683
887.937	0.0159434
888.015	0.0160040
888.093	0.0159599
888.172	0.0160892
888.250	0.0160661
888.328	0.0159545
888.406	0.0159214
888.484	0.0159529
888.562	0.0159432
888.640	0.0158693
888.718	0.0157584
888.797	0.0157890
888.875	0.0156834
888.953	0.0157616
889.031	0.0156956
889.109	0.0157169
889.187	0.0156847
889.265	0.0158336
889.343	0.0156806
889.422	0.0158253
889.500	0.0158897
889.578	0.0158699
889.656	0.0159774
889.734	0.0158105
889.812	0.0160049
889.890	0.0160345
889.968	0.0160786
890.047	0.0160188
890.125	0.0158948
890.203	0.0159406
890.281	0.0161338
890.359	0.0159442
890.437	0.0159442
890.515	0.0159245
890.593	0.0159383
890.672	0.0160207
890.750	0.0159526
890.828	0.0158405
890.906	0.0159343
890.984	0.0158500
891.062	0.0158899
891.140	0.0158599
891.218	0.0159024
891.297	0.0158235
891.375	0.0157937
891.453	0.0158137
891.531	0.0158476
891.609	0.0157445
891.687	0.0157026
891.765	0.0156981
891.843	0.0156740
891.922	0.0156936
892.000	0.0156475
892.078	0.0156889
892.156	0.0156569
892.234	0.0156850
892.312	0.0157171
892.390	0.0158218
892.468	0.0155858
892.547	0.0156889
892.625	0.0157231
892.703	0.0158722
892.781	0.0159200
892.859	0.0159815
892.937	0.0159291
893.015	0.0157772
893.093	0.0157976
893.172	0.0160319
893.250	0.0161005
893.328	0.0160021
893.406	0.0159125
893.484	0.0159100
893.562	0.0158131
893.640	0.0160062
893.718	0.0158447
893.797	0.0158015
893.875	0.0157954
893.953	0.0158692
894.031	0.0158911
894.109	0.0156760
894.187	0.0158726
894.265	0.0158034
894.343	0.0158483
894.422	0.0156378
894.500	0.0156709
894.578	0.0158199
894.656	0.0158494
894.734	0.0158790
894.812	0.0159045
894.890	0.0158788
894.968	0.0159205
895.047	0.0159015
895.125	0.0160030
895.203	0.0160108
895.281	0.0158937
895.359	0.0159163
895.437	0.0159053
895.515	0.0159957
895.593	0.0158986
895.672	0.0159079
895.750	0.0159898
895.828	0.0158768
895.906	0.0158624
895.984	0.0158992
896.062	0.0161177
896.140	0.0161533
896.218	0.0159106
896.297	0.0158497
896.375	0.0159244
896.453	0.0159705
896.531	0.0160410
896.609	0.0160904
896.687	0.0160107
896.765	0.0159929
896.843	0.0159710
896.922	0.0160292
897.000	0.0159368
897.078	0.0160394
897.156	0.0160905
897.234	0.0160713
897.312	0.0161156
897.390	0.0159554
897.468	0.0160002
897.547	0.0158813
897.625	0.0159108
897.703	0.0158239
897.781	0.0159286
897.859	0.0160154
897.937	0.0159611
898.015	0.0158454
898.093	0.0159834
898.172	0.0158505
898.250	0.0157858
898.328	0.0158773
898.406	0.0158250
898.484	0.0158128
898.562	0.0158364
898.640	0.0157878
898.718	0.0158526
898.797	0.0158929
898.875	0.0158559
898.953	0.0159655
899.031	0.0159586
899.109	0.0158572
899.187	0.0159686
899.265	0.0161125
899.343	0.0159980
899.422	0.0161852
899.500	0.0160557
899.578	0.0161673
899.656	0.0161075
899.734	0.0160689
899.812	0.0160321
899.890	0.0160635
899.968	0.0161156
900.047	0.0160938
900.125	0.0159667
900.203	0.0157987
900.281	0.0158509
900.359	0.0159741
900.437	0.0158038
900.515	0.0157519
900.593	0.0156345
900.672	0.0158372
900.750	0.0158887
900.828	0.0158193
900.906	0.0158557
900.984	0.0158344
901.062	0.0159335
901.140	0.0159097
901.218	0.0158897
901.297	0.0157822
901.375	0.0159653
901.453	0.0161008
901.531	0.0160446
901.609	0.0160814
901.687	0.0160037
901.765	0.0160786
901.843	0.0160223
901.922	0.0161940
902.000	0.0160995
902.078	0.0160234
902.156	0.0160554
902.234	0.0160476
902.312	0.0160730
902.390	0.0161150
902.468	0.0159482
902.547	0.0159310
902.625	0.0159118
902.703	0.0159354
902.781	0.0160513
902.859	0.0160216
902.937	0.0161226
903.015	0.0159248
903.093	0.0158935
903.172	0.0158723
903.250	0.0159493
903.328	0.0158688
903.406	0.0159740
903.484	0.0159754
903.562	0.0158178
903.640	0.0157746
903.718	0.0158505
903.797	0.0158563
903.875	0.0158901
903.953	0.0159700
904.031	0.0157944
904.109	0.0157704
904.187	0.0158482
904.265	0.0159094
904.343	0.0160275
904.422	0.0157935
904.500	0.0157497
904.578	0.0158388
904.656	0.0158575
904.734	0.0157491
904.812	0.0157278
904.890	0.0158131
904.968	0.0158725
905.047	0.0159772
905.125	0.0158840
905.203	0.0159467
905.281	0.0159235
905.359	0.0159243
905.437	0.0158340
905.515	0.0159184
905.593	0.0160107
905.672	0.0158476
905.750	0.0160826
905.828	0.0160621
905.906	0.0159568
905.984	0.0159518
906.062	0.0159591
906.140	0.0159473
906.218	0.0160627
906.297	0.0159932
906.375	0.0159924
906.453	0.0158393
906.531	0.0159900
906.609	0.0160142
906.687	0.0159346
906.765	0.0159852
906.843	0.0159264
906.922	0.0159247
907.000	0.0160921
907.078	0.0160478
907.156	0.0159938
907.234	0.0158291
907.312	0.0158575
907.390	0.0158593
907.468	0.0158939
907.547	0.0160065
907.625	0.0159779
907.703	0.0158706
907.781	0.0160419
907.859	0.0159625
907.937	0.0159622
908.015	0.0159712
908.093	0.0159532
908.172	0.0160400
908.250	0.0160461
908.328	0.0160601
908.406	0.0159192
908.484	0.0159467
908.562	0.0159515
908.640	0.0160024
908.718	0.0160237
908.797	0.0158927
908.875	0.0158979
908.953	0.0159072
909.031	0.0160408
909.109	0.0159319
909.187	0.0158845
909.265	0.0158148
909.343	0.0158170
909.422	0.0158101
909.500	0.0159347
909.578	0.0157054
909.656	0.0156946
909.734	0.0159579
909.812	0.0159008
909.890	0.0158580
909.968	0.0158869
910.047	0.0159841
910.125	0.0158826
910.203	0.0158288
910.281	0.0158610
910.359	0.0160313
910.437	0.0160653
910.515	0.0160280
910.593	0.0159347
910.672	0.0159843
910.750	0.0159710
910.828	0.0160567
910.906	0.0160401
910.984	0.0159939
911.062	0.0159344
911.140	0.0160465
911.218	0.0158315
911.297	0.0160275
911.375	0.0158067
911.453	0.0158341
911.531	0.0158312
911.609	0.0157907
911.687	0.0158150
911.765	0.0158263
911.843	0.0156947
911.922	0.0156863
912.000	0.0157095
912.078	0.0156078
912.156	0.0156783
912.234	0.0157931
912.312	0.0158085
912.390	0.0158054
912.468	0.0157833
912.547	0.0158852
912.625	0.0159918
912.703	0.0159805
912.781	0.0158380
912.859	0.0159447
912.937	0.0160012
913.015	0.0160686
913.093	0.0159886
913.172	0.0159961
913.250	0.0160875
913.328	0.0161176
913.406	0.0160871
913.484	0.0161031
913.562	0.0160777
913.640	0.0160200
913.718	0.0160426
913.797	0.0159819
913.875	0.0160227
913.953	0.0158672
914.031	0.0157502
914.109	0.0158608
914.187	0.0158228
914.265	0.0157339
914.343	0.0158555
914.422	0.0157745
914.500	0.0156748
914.578	0.0158119
914.656	0.0158661
914.734	0.0158651
914.812	0.0158279
914.890	0.0159378
914.968	0.0160652
915.047	0.0160484
915.125	0.0159270
915.203	0.0158917
915.281	0.0160515
915.359	0.0160398
915.437	0.0160218
915.515	0.0160210
915.593	0.0160271
915.672	0.0160890
915.750	0.0159259
915.828	0.0160406
915.906	0.0158817
915.984	0.0158543
916.062	0.0158764
916.140	0.0159076
916.218	0.0157905
916.297	0.0157237
916.375	0.0157475
916.453	0.0157479
916.531	0.0156699
916.609	0.0157246
916.687	0.0157958
916.765	0.0156621
916.843	0.0156811
916.922	0.0156306
917.000	0.0157264
917.078	0.0158689
917.156	0.0158083
917.234	0.0160745
917.312	0.0159464
917.390	0.0159555
917.468	0.0160455
917.547	0.0161037
917.625	0.0160663
917.703	0.0160305
917.781	0.0160426
917.859	0.0162106
917.937	0.0160663
918.015	0.0160606
918.093	0.0161313
918.172	0.0161055
918.250	0.0160076
918.328	0.0159546
918.406	0.0159222
918.484	0.0158434
918.562	0.0157609
918.640	0.0158729
918.718	0.0158397
918.797	0.0155814
918.875	0.0158462
918.953	0.0157858
919.031	0.0157037
919.109	0.0157227
919.187	0.0157078
919.265	0.0156897
919.343	0.0157610
919.422	0.0157917
919.500	0.0158405
919.578	0.0158029
919.656	0.0158723
919.734	0.0158682
919.812	0.0158842
919.890	0.0158939
