06/13/2022	14:44:13	Ver.	4.1	UNKNOWN
Optical Delay	599.968395	Delta X		0.078125	Sweeps	1	Scan Rate	0/0
Coordinates	Axis 1	NaN	Axis 2	NaN	Axis 3	NaN	Axis 4	NaN	Axis 5	NaN	Axis 6	0.000000
TX Power	0.000000	RX Power	0.000000

599.968	0.0148457
600.047	0.0147884
600.125	0.0149674
600.203	0.0149232
600.281	0.0149009
600.359	0.0148181
600.437	0.0148538
600.515	0.0147974
600.593	0.0148040
600.672	0.0150004
600.750	0.0149097
600.828	0.0147324
600.906	0.0147337
600.984	0.0149489
601.062	0.0149951
601.140	0.0149191
601.218	0.0148148
601.297	0.0148352
601.375	0.0148168
601.453	0.0147753
601.531	0.0148149
601.609	0.0148228
601.687	0.0148195
601.765	0.0148924
601.843	0.0149471
601.922	0.0148816
602.000	0.0147968
602.078	0.0149997
602.156	0.0148740
602.234	0.0147538
602.312	0.0148684
602.390	0.0149623
602.468	0.0149337
602.547	0.0148060
602.625	0.0148785
602.703	0.0147992
602.781	0.0147891
602.859	0.0148080
602.937	0.0148033
603.015	0.0148353
603.093	0.0149049
603.172	0.0147979
603.250	0.0147855
603.328	0.0147953
603.406	0.0147884
603.484	0.0147996
603.562	0.0148053
603.640	0.0147704
603.718	0.0149050
603.797	0.0148463
603.875	0.0148632
603.953	0.0148158
604.031	0.0148685
604.109	0.0148954
604.187	0.0149561
604.265	0.0149142
604.343	0.0148558
604.422	0.0148788
604.500	0.0146787
604.578	0.0148410
604.656	0.0148351
604.734	0.0149361
604.812	0.0147029
604.890	0.0147943
604.968	0.0147720
605.047	0.0147128
605.125	0.0148008
605.203	0.0148063
605.281	0.0148993
605.359	0.0147727
605.437	0.0148049
605.515	0.0149158
605.593	0.0148888
605.672	0.0148040
605.750	0.0148851
605.828	0.0148222
605.906	0.0148316
605.984	0.0150203
606.062	0.0148825
606.140	0.0147301
606.218	0.0148515
606.297	0.0148337
606.375	0.0147693
606.453	0.0148864
606.531	0.0149469
606.609	0.0147741
606.687	0.0147408
606.765	0.0149940
606.843	0.0149050
606.922	0.0148431
607.000	0.0148213
607.078	0.0149541
607.156	0.0149039
607.234	0.0149038
607.312	0.0148007
607.390	0.0147616
607.468	0.0147241
607.547	0.0148145
607.625	0.0148840
607.703	0.0149157
607.781	0.0148701
607.859	0.0148997
607.937	0.0148562
608.015	0.0147275
608.093	0.0150088
608.172	0.0147725
608.250	0.0148892
608.328	0.0148208
608.406	0.0146410
608.484	0.0147681
608.562	0.0148301
608.640	0.0148962
608.718	0.0148264
608.797	0.0148090
608.875	0.0149230
608.953	0.0147819
609.031	0.0146315
609.109	0.0148548
609.187	0.0148466
609.265	0.0148027
609.343	0.0148864
609.422	0.0148303
609.500	0.0148334
609.578	0.0148596
609.656	0.0148142
609.734	0.0147710
609.812	0.0148132
609.890	0.0148488
609.968	0.0147896
610.047	0.0147903
610.125	0.0148411
610.203	0.0147802
610.281	0.0147466
610.359	0.0148088
610.437	0.0148637
610.515	0.0148666
610.593	0.0147265
610.672	0.0149860
610.750	0.0149580
610.828	0.0148360
610.906	0.0149073
610.984	0.0147858
611.062	0.0148575
611.140	0.0149451
611.218	0.0148434
611.297	0.0148382
611.375	0.0148817
611.453	0.0148331
611.531	0.0150169
611.609	0.0149609
611.687	0.0147987
611.765	0.0148459
611.843	0.0149094
611.922	0.0149143
612.000	0.0148668
612.078	0.0148710
612.156	0.0147273
612.234	0.0148357
612.312	0.0148283
612.390	0.0150496
612.468	0.0148188
612.547	0.0147186
612.625	0.0148283
612.703	0.0149315
612.781	0.0148823
612.859	0.0147554
612.937	0.0146944
613.015	0.0149091
613.093	0.0150206
613.172	0.0148644
613.250	0.0148899
613.328	0.0147812
613.406	0.0148949
613.484	0.0146934
613.562	0.0149452
613.640	0.0148883
613.718	0.0148177
613.797	0.0149732
613.875	0.0148743
613.953	0.0148701
614.031	0.0149140
614.109	0.0149348
614.187	0.0148576
614.265	0.0147444
614.343	0.0148460
614.422	0.0148280
614.500	0.0148093
614.578	0.0148499
614.656	0.0148195
614.734	0.0147784
614.812	0.0148175
614.890	0.0148449
614.968	0.0149185
615.047	0.0147305
615.125	0.0149854
615.203	0.0147758
615.281	0.0147813
615.359	0.0147987
615.437	0.0148991
615.515	0.0147793
615.593	0.0148071
615.672	0.0149007
615.750	0.0148140
615.828	0.0148592
615.906	0.0149385
615.984	0.0150058
616.062	0.0148304
616.140	0.0148318
616.218	0.0148959
616.297	0.0148428
616.375	0.0148363
616.453	0.0147179
616.531	0.0150907
616.609	0.0148422
616.687	0.0148345
616.765	0.0148429
616.843	0.0149549
616.922	0.0148128
617.000	0.0149377
617.078	0.0148981
617.156	0.0148403
617.234	0.0147766
617.312	0.0149059
617.390	0.0148608
617.468	0.0148891
617.547	0.0148569
617.625	0.0148982
617.703	0.0148236
617.781	0.0147567
617.859	0.0147972
617.937	0.0149668
618.015	0.0148563
618.093	0.0149023
618.172	0.0148342
618.250	0.0149881
618.328	0.0148626
618.406	0.0149133
618.484	0.0149379
618.562	0.0149783
618.640	0.0147861
618.718	0.0148441
618.797	0.0147787
618.875	0.0149722
618.953	0.0148323
619.031	0.0148701
619.109	0.0149454
619.187	0.0148183
619.265	0.0147868
619.343	0.0148679
619.422	0.0150523
619.500	0.0149086
619.578	0.0148449
619.656	0.0148246
619.734	0.0148579
619.812	0.0149310
619.890	0.0150266
619.968	0.0149474
620.047	0.0149483
620.125	0.0149063
620.203	0.0148306
620.281	0.0147820
620.359	0.0149633
620.437	0.0149062
620.515	0.0149599
620.593	0.0147247
620.672	0.0147442
620.750	0.0148927
620.828	0.0148690
620.906	0.0148613
620.984	0.0148166
621.062	0.0147845
621.140	0.0148626
621.218	0.0148624
621.297	0.0148536
621.375	0.0148277
621.453	0.0148531
621.531	0.0150059
621.609	0.0149384
621.687	0.0147006
621.765	0.0147556
621.843	0.0148505
621.922	0.0149722
622.000	0.0148866
622.078	0.0149072
622.156	0.0150256
622.234	0.0148143
622.312	0.0147923
622.390	0.0148228
622.468	0.0148518
622.547	0.0148636
622.625	0.0148282
622.703	0.0148754
622.781	0.0148089
622.859	0.0149182
622.937	0.0149074
623.015	0.0147676
623.093	0.0148375
623.172	0.0149065
623.250	0.0147926
623.328	0.0148660
623.406	0.0148983
623.484	0.0147098
623.562	0.0148857
623.640	0.0148317
623.718	0.0148400
623.797	0.0148445
623.875	0.0150260
623.953	0.0147912
624.031	0.0148379
624.109	0.0149277
624.187	0.0147852
624.265	0.0148891
624.343	0.0148151
624.422	0.0148934
624.500	0.0147750
624.578	0.0147819
624.656	0.0149238
624.734	0.0149292
624.812	0.0149963
624.890	0.0148215
624.968	0.0149142
625.047	0.0148626
625.125	0.0148569
625.203	0.0148929
625.281	0.0148935
625.359	0.0147240
625.437	0.0149412
625.515	0.0149606
625.593	0.0148904
625.672	0.0148572
625.750	0.0148158
625.828	0.0148685
625.906	0.0148524
625.984	0.0149301
626.062	0.0146819
626.140	0.0149725
626.218	0.0148262
626.297	0.0147388
626.375	0.0148540
626.453	0.0150063
626.531	0.0149063
626.609	0.0147359
626.687	0.0149168
626.765	0.0148255
626.843	0.0149493
626.922	0.0149340
627.000	0.0147616
627.078	0.0148519
627.156	0.0148677
627.234	0.0149028
627.312	0.0147339
627.390	0.0148400
627.468	0.0149412
627.547	0.0147675
627.625	0.0149416
627.703	0.0148825
627.781	0.0148596
627.859	0.0148840
627.937	0.0148658
628.015	0.0148186
628.093	0.0147857
628.172	0.0148380
628.250	0.0147888
628.328	0.0148682
628.406	0.0148312
628.484	0.0148805
628.562	0.0147639
628.640	0.0150298
628.718	0.0148995
628.797	0.0148400
628.875	0.0149772
628.953	0.0148794
629.031	0.0148028
629.109	0.0149928
629.187	0.0148265
629.265	0.0147855
629.343	0.0148837
629.422	0.0148652
629.500	0.0148630
629.578	0.0149471
629.656	0.0148805
629.734	0.0148148
629.812	0.0148604
629.890	0.0148308
629.968	0.0149782
630.047	0.0149744
630.125	0.0148578
630.203	0.0149158
630.281	0.0149818
630.359	0.0148200
630.437	0.0150187
630.515	0.0148951
630.593	0.0148912
630.672	0.0148402
630.750	0.0147739
630.828	0.0148486
630.906	0.0149169
630.984	0.0148600
631.062	0.0148162
631.140	0.0149709
631.218	0.0149988
631.297	0.0149123
631.375	0.0149186
631.453	0.0148847
631.531	0.0148595
631.609	0.0149280
631.687	0.0148474
631.765	0.0150243
631.843	0.0148843
631.922	0.0148223
632.000	0.0148975
632.078	0.0149261
632.156	0.0149666
632.234	0.0149225
632.312	0.0149213
632.390	0.0149011
632.468	0.0148879
632.547	0.0148615
632.625	0.0148629
632.703	0.0147832
632.781	0.0148580
632.859	0.0148492
632.937	0.0148911
633.015	0.0147412
633.093	0.0147788
633.172	0.0150408
633.250	0.0148598
633.328	0.0148889
633.406	0.0149364
633.484	0.0148840
633.562	0.0148981
633.640	0.0149544
633.718	0.0149008
633.797	0.0150034
633.875	0.0149587
633.953	0.0149265
634.031	0.0148940
634.109	0.0149521
634.187	0.0149326
634.265	0.0147871
634.343	0.0148533
634.422	0.0150101
634.500	0.0148974
634.578	0.0147024
634.656	0.0148962
634.734	0.0148608
634.812	0.0148678
634.890	0.0149950
634.968	0.0148312
635.047	0.0148267
635.125	0.0148997
635.203	0.0147874
635.281	0.0147173
635.359	0.0149622
635.437	0.0150178
635.515	0.0148641
635.593	0.0149460
635.672	0.0148903
635.750	0.0147039
635.828	0.0148345
635.906	0.0147537
635.984	0.0148950
636.062	0.0148854
636.140	0.0148228
636.218	0.0147254
636.297	0.0148334
636.375	0.0149111
636.453	0.0150051
636.531	0.0148078
636.609	0.0146434
636.687	0.0148626
636.765	0.0149506
636.843	0.0148997
636.922	0.0148981
637.000	0.0148238
637.078	0.0150304
637.156	0.0148338
637.234	0.0148053
637.312	0.0147982
637.390	0.0148444
637.468	0.0147730
637.547	0.0149567
637.625	0.0148940
637.703	0.0149657
637.781	0.0148416
637.859	0.0147424
637.937	0.0148674
638.015	0.0147272
638.093	0.0148047
638.172	0.0149053
638.250	0.0147962
638.328	0.0148528
638.406	0.0148818
638.484	0.0149493
638.562	0.0148401
638.640	0.0147529
638.718	0.0148304
638.797	0.0148631
638.875	0.0148731
638.953	0.0148202
639.031	0.0149205
639.109	0.0147999
639.187	0.0150266
639.265	0.0149794
639.343	0.0148206
639.422	0.0147495
639.500	0.0149786
639.578	0.0148689
639.656	0.0148743
639.734	0.0148676
639.812	0.0149152
639.890	0.0149178
639.968	0.0148590
640.047	0.0149319
640.125	0.0149236
640.203	0.0148524
640.281	0.0149834
640.359	0.0148075
640.437	0.0146848
640.515	0.0147284
640.593	0.0148062
640.672	0.0148057
640.750	0.0148976
640.828	0.0146971
640.906	0.0148329
640.984	0.0148677
641.062	0.0147832
641.140	0.0148759
641.218	0.0148742
641.297	0.0149342
641.375	0.0147394
641.453	0.0147480
641.531	0.0147569
641.609	0.0148360
641.687	0.0148245
641.765	0.0148422
641.843	0.0149235
641.922	0.0148178
642.000	0.0148556
642.078	0.0148845
642.156	0.0148406
642.234	0.0148539
642.312	0.0148886
642.390	0.0148866
642.468	0.0148417
642.547	0.0149311
642.625	0.0148878
642.703	0.0150155
642.781	0.0149383
642.859	0.0148016
642.937	0.0149315
643.015	0.0149745
643.093	0.0149191
643.172	0.0149383
643.250	0.0148515
643.328	0.0147945
643.406	0.0148309
643.484	0.0149509
643.562	0.0146832
643.640	0.0148257
643.718	0.0148898
643.797	0.0148699
643.875	0.0148689
643.953	0.0148357
644.031	0.0147961
644.109	0.0147990
644.187	0.0148078
644.265	0.0148213
644.343	0.0148692
644.422	0.0147816
644.500	0.0150305
644.578	0.0151044
644.656	0.0148112
644.734	0.0147044
644.812	0.0147763
644.890	0.0147420
644.968	0.0148066
645.047	0.0148158
645.125	0.0147279
645.203	0.0147065
645.281	0.0149971
645.359	0.0149564
645.437	0.0149373
645.515	0.0147392
645.593	0.0147832
645.672	0.0147888
645.750	0.0148175
645.828	0.0150302
645.906	0.0148138
645.984	0.0148608
646.062	0.0150081
646.140	0.0148853
646.218	0.0148015
646.297	0.0148812
646.375	0.0149159
646.453	0.0148711
646.531	0.0148257
646.609	0.0147858
646.687	0.0149487
646.765	0.0148991
646.843	0.0149046
646.922	0.0148351
647.000	0.0147263
647.078	0.0147836
647.156	0.0149223
647.234	0.0149382
647.312	0.0146984
647.390	0.0149285
647.468	0.0149374
647.547	0.0149109
647.625	0.0147968
647.703	0.0148760
647.781	0.0149416
647.859	0.0147842
647.937	0.0148289
648.015	0.0148698
648.093	0.0148264
648.172	0.0147877
648.250	0.0147559
648.328	0.0150311
648.406	0.0148902
648.484	0.0148909
648.562	0.0150198
648.640	0.0148583
648.718	0.0147972
648.797	0.0148077
648.875	0.0149286
648.953	0.0148740
649.031	0.0149001
649.109	0.0148219
649.187	0.0148185
649.265	0.0149526
649.343	0.0148437
649.422	0.0148778
649.500	0.0150230
649.578	0.0147895
649.656	0.0149390
649.734	0.0148910
649.812	0.0149313
649.890	0.0147422
649.968	0.0148174
650.047	0.0148637
650.125	0.0148600
650.203	0.0149210
650.281	0.0147482
650.359	0.0147330
650.437	0.0148495
650.515	0.0149191
650.593	0.0147916
650.672	0.0149123
650.750	0.0148305
650.828	0.0149010
650.906	0.0149098
650.984	0.0149634
651.062	0.0148184
651.140	0.0149684
651.218	0.0148155
651.297	0.0148282
651.375	0.0149354
651.453	0.0147605
651.531	0.0148469
651.609	0.0147865
651.687	0.0148688
651.765	0.0148293
651.843	0.0149504
651.922	0.0148485
652.000	0.0147466
652.078	0.0146905
652.156	0.0148942
652.234	0.0148940
652.312	0.0149118
652.390	0.0149473
652.468	0.0149531
652.547	0.0148271
652.625	0.0148430
652.703	0.0148386
652.781	0.0147457
652.859	0.0148910
652.937	0.0150029
653.015	0.0147192
653.093	0.0148528
653.172	0.0148938
653.250	0.0148991
653.328	0.0148144
653.406	0.0148787
653.484	0.0149465
653.562	0.0148339
653.640	0.0147846
653.718	0.0147797
653.797	0.0148654
653.875	0.0148195
653.953	0.0148084
654.031	0.0150272
654.109	0.0148191
654.187	0.0148740
654.265	0.0147284
654.343	0.0147375
654.422	0.0149638
654.500	0.0148112
654.578	0.0149577
654.656	0.0147552
654.734	0.0147720
654.812	0.0147821
654.890	0.0148736
654.968	0.0148904
655.047	0.0149325
655.125	0.0147755
655.203	0.0148845
655.281	0.0148136
655.359	0.0148505
655.437	0.0149991
655.515	0.0148000
655.593	0.0148702
655.672	0.0148458
655.750	0.0148498
655.828	0.0148292
655.906	0.0150240
655.984	0.0147494
656.062	0.0147607
656.140	0.0148692
656.218	0.0150237
656.297	0.0148710
656.375	0.0148495
656.453	0.0148267
656.531	0.0149977
656.609	0.0149644
656.687	0.0149451
656.765	0.0149467
656.843	0.0149211
656.922	0.0148764
657.000	0.0150219
657.078	0.0149123
657.156	0.0147897
657.234	0.0149435
657.312	0.0148833
657.390	0.0148988
657.468	0.0149099
657.547	0.0148313
657.625	0.0149281
657.703	0.0148439
657.781	0.0149263
657.859	0.0148656
657.937	0.0150056
658.015	0.0148808
658.093	0.0149395
658.172	0.0149200
658.250	0.0149327
658.328	0.0148431
658.406	0.0149320
658.484	0.0147855
658.562	0.0150824
658.640	0.0149803
658.718	0.0147284
658.797	0.0148943
658.875	0.0149973
658.953	0.0149918
659.031	0.0148734
659.109	0.0149057
659.187	0.0148730
659.265	0.0149120
659.343	0.0149503
659.422	0.0150887
659.500	0.0148261
659.578	0.0149799
659.656	0.0149223
659.734	0.0146768
659.812	0.0149680
659.890	0.0148788
659.968	0.0148297
660.047	0.0149458
660.125	0.0147806
660.203	0.0148977
660.281	0.0149252
660.359	0.0149046
660.437	0.0149522
660.515	0.0149686
660.593	0.0150284
660.672	0.0149575
660.750	0.0149625
660.828	0.0149415
660.906	0.0150159
660.984	0.0148016
661.062	0.0149040
661.140	0.0149430
661.218	0.0151093
661.297	0.0148568
661.375	0.0148992
661.453	0.0148812
661.531	0.0148206
661.609	0.0149538
661.687	0.0148563
661.765	0.0148078
661.843	0.0148245
661.922	0.0149207
662.000	0.0148942
662.078	0.0148139
662.156	0.0149682
662.234	0.0148447
662.312	0.0148552
662.390	0.0148531
662.468	0.0148154
662.547	0.0149983
662.625	0.0149649
662.703	0.0148935
662.781	0.0147308
662.859	0.0148324
662.937	0.0149815
663.015	0.0148243
663.093	0.0148427
663.172	0.0149270
663.250	0.0149619
663.328	0.0148969
663.406	0.0148724
663.484	0.0148695
663.562	0.0148930
663.640	0.0149105
663.718	0.0147651
663.797	0.0147252
663.875	0.0149100
663.953	0.0149306
664.031	0.0148444
664.109	0.0149444
664.187	0.0148229
664.265	0.0148895
664.343	0.0148076
664.422	0.0147757
664.500	0.0148058
664.578	0.0148722
664.656	0.0147659
664.734	0.0147771
664.812	0.0149102
664.890	0.0149405
664.968	0.0149320
665.047	0.0148909
665.125	0.0147911
665.203	0.0148745
665.281	0.0149018
665.359	0.0148983
665.437	0.0148148
665.515	0.0148645
665.593	0.0148861
665.672	0.0148856
665.750	0.0149213
665.828	0.0147318
665.906	0.0148582
665.984	0.0149085
666.062	0.0149407
666.140	0.0149469
666.218	0.0148458
666.297	0.0149738
666.375	0.0148599
666.453	0.0147456
666.531	0.0148474
666.609	0.0148071
666.687	0.0149435
666.765	0.0148752
666.843	0.0148777
666.922	0.0149075
667.000	0.0148785
667.078	0.0148429
667.156	0.0149423
667.234	0.0148237
667.312	0.0148299
667.390	0.0148390
667.468	0.0148742
667.547	0.0147861
667.625	0.0148632
667.703	0.0148154
667.781	0.0147471
667.859	0.0148970
667.937	0.0148928
668.015	0.0148129
668.093	0.0148525
668.172	0.0148096
668.250	0.0147982
668.328	0.0149012
668.406	0.0148537
668.484	0.0149068
668.562	0.0148241
668.640	0.0148647
668.718	0.0149091
668.797	0.0148835
668.875	0.0148064
668.953	0.0149413
669.031	0.0148894
669.109	0.0148664
669.187	0.0148489
669.265	0.0148122
669.343	0.0149192
669.422	0.0148255
669.500	0.0147437
669.578	0.0148790
669.656	0.0148808
669.734	0.0148138
669.812	0.0147358
669.890	0.0147720
669.968	0.0148228
670.047	0.0147971
670.125	0.0149660
670.203	0.0148822
670.281	0.0147498
670.359	0.0148231
670.437	0.0150022
670.515	0.0148457
670.593	0.0146941
670.672	0.0147287
670.750	0.0149961
670.828	0.0148599
670.906	0.0149279
670.984	0.0147306
671.062	0.0148923
671.140	0.0149284
671.218	0.0148582
671.297	0.0148344
671.375	0.0149027
671.453	0.0147823
671.531	0.0148691
671.609	0.0148923
671.687	0.0148862
671.765	0.0148742
671.843	0.0147116
671.922	0.0149221
672.000	0.0148209
672.078	0.0149570
672.156	0.0149399
672.234	0.0149237
672.312	0.0148320
672.390	0.0149700
672.468	0.0148394
672.547	0.0148967
672.625	0.0149725
672.703	0.0148886
672.781	0.0147923
672.859	0.0147134
672.937	0.0148728
673.015	0.0148927
673.093	0.0149235
673.172	0.0147871
673.250	0.0147604
673.328	0.0147665
673.406	0.0148779
673.484	0.0148823
673.562	0.0147563
673.640	0.0149387
673.718	0.0148455
673.797	0.0147919
673.875	0.0149263
673.953	0.0147617
674.031	0.0147408
674.109	0.0148788
674.187	0.0147759
674.265	0.0148438
674.343	0.0148805
674.422	0.0149083
674.500	0.0149146
674.578	0.0149068
674.656	0.0148637
674.734	0.0149520
674.812	0.0148444
674.890	0.0148973
674.968	0.0149088
675.047	0.0148623
675.125	0.0148098
675.203	0.0147669
675.281	0.0147632
675.359	0.0149216
675.437	0.0148214
675.515	0.0146769
675.593	0.0148985
675.672	0.0148659
675.750	0.0147677
675.828	0.0148167
675.906	0.0148583
675.984	0.0149793
676.062	0.0148327
676.140	0.0148828
676.218	0.0148207
676.297	0.0148107
676.375	0.0148151
676.453	0.0148402
676.531	0.0147707
676.609	0.0148356
676.687	0.0148348
676.765	0.0149195
676.843	0.0149036
676.922	0.0148916
677.000	0.0147903
677.078	0.0148705
677.156	0.0148224
677.234	0.0147799
677.312	0.0147574
677.390	0.0148927
677.468	0.0148489
677.547	0.0149653
677.625	0.0146624
677.703	0.0147660
677.781	0.0149685
677.859	0.0148905
677.937	0.0147290
678.015	0.0147005
678.093	0.0148634
678.172	0.0148866
678.250	0.0148924
678.328	0.0148795
678.406	0.0148819
678.484	0.0148687
678.562	0.0149429
678.640	0.0149273
678.718	0.0147257
678.797	0.0148820
678.875	0.0148961
678.953	0.0148496
679.031	0.0147913
679.109	0.0149108
679.187	0.0148430
679.265	0.0148719
679.343	0.0147671
679.422	0.0148014
679.500	0.0148041
679.578	0.0148616
679.656	0.0149499
679.734	0.0148573
679.812	0.0148784
679.890	0.0149194
679.968	0.0149155
680.047	0.0147897
680.125	0.0147463
680.203	0.0149110
680.281	0.0148381
680.359	0.0148614
680.437	0.0148094
680.515	0.0149761
680.593	0.0149860
680.672	0.0148935
680.750	0.0149503
680.828	0.0148719
680.906	0.0148874
680.984	0.0149146
681.062	0.0148186
681.140	0.0148025
681.218	0.0148812
681.297	0.0148079
681.375	0.0149539
681.453	0.0148460
681.531	0.0148989
681.609	0.0148773
681.687	0.0148341
681.765	0.0147458
681.843	0.0149171
681.922	0.0150566
682.000	0.0148063
682.078	0.0148525
682.156	0.0147583
682.234	0.0149553
682.312	0.0149242
682.390	0.0148129
682.468	0.0148895
682.547	0.0149544
682.625	0.0149400
682.703	0.0147883
682.781	0.0148700
682.859	0.0148939
682.937	0.0148637
683.015	0.0148197
683.093	0.0149033
683.172	0.0148710
683.250	0.0149350
683.328	0.0149442
683.406	0.0149482
683.484	0.0148199
683.562	0.0147203
683.640	0.0149093
683.718	0.0146401
683.797	0.0147956
683.875	0.0146935
683.953	0.0146679
684.031	0.0149104
684.109	0.0147730
684.187	0.0147363
684.265	0.0148127
684.343	0.0148225
684.422	0.0148505
684.500	0.0147755
684.578	0.0147923
684.656	0.0150554
684.734	0.0147914
684.812	0.0149456
684.890	0.0150259
684.968	0.0147400
685.047	0.0146947
685.125	0.0147484
685.203	0.0149687
685.281	0.0148719
685.359	0.0148303
685.437	0.0149306
685.515	0.0148707
685.593	0.0149213
685.672	0.0148423
685.750	0.0149134
685.828	0.0149456
685.906	0.0147548
685.984	0.0148150
686.062	0.0149404
686.140	0.0149678
686.218	0.0149390
686.297	0.0148907
686.375	0.0148682
686.453	0.0148584
686.531	0.0148913
686.609	0.0148254
686.687	0.0147517
686.765	0.0148218
686.843	0.0147951
686.922	0.0148628
687.000	0.0148127
687.078	0.0147775
687.156	0.0149763
687.234	0.0148882
687.312	0.0148988
687.390	0.0148327
687.468	0.0148240
687.547	0.0149348
687.625	0.0148194
687.703	0.0147737
687.781	0.0148236
687.859	0.0149529
687.937	0.0148766
688.015	0.0148127
688.093	0.0149224
688.172	0.0149117
688.250	0.0148766
688.328	0.0147688
688.406	0.0148885
688.484	0.0147889
688.562	0.0148081
688.640	0.0148442
688.718	0.0149533
688.797	0.0149085
688.875	0.0147817
688.953	0.0147930
689.031	0.0148348
689.109	0.0147871
689.187	0.0148631
689.265	0.0147895
689.343	0.0146796
689.422	0.0147488
689.500	0.0148531
689.578	0.0149471
689.656	0.0147403
689.734	0.0147627
689.812	0.0148606
689.890	0.0149287
689.968	0.0148321
690.047	0.0148373
690.125	0.0148129
690.203	0.0148828
690.281	0.0149410
690.359	0.0149422
690.437	0.0148596
690.515	0.0149392
690.593	0.0148477
690.672	0.0147504
690.750	0.0149463
690.828	0.0150475
690.906	0.0149380
690.984	0.0148806
691.062	0.0149084
691.140	0.0149773
691.218	0.0149667
691.297	0.0150535
691.375	0.0148640
691.453	0.0150375
691.531	0.0149783
691.609	0.0150128
691.687	0.0150256
691.765	0.0148748
691.843	0.0148575
691.922	0.0148534
692.000	0.0151058
692.078	0.0148322
692.156	0.0148877
692.234	0.0149136
692.312	0.0149622
692.390	0.0149841
692.468	0.0148866
692.547	0.0149396
692.625	0.0147533
692.703	0.0148434
692.781	0.0149346
692.859	0.0148632
692.937	0.0149569
693.015	0.0149255
693.093	0.0148609
693.172	0.0149536
693.250	0.0148826
693.328	0.0149261
693.406	0.0148273
693.484	0.0149201
693.562	0.0149303
693.640	0.0150037
693.718	0.0148584
693.797	0.0148575
693.875	0.0147434
693.953	0.0149748
694.031	0.0146678
694.109	0.0148853
694.187	0.0148183
694.265	0.0149899
694.343	0.0149555
694.422	0.0149741
694.500	0.0149438
694.578	0.0149319
694.656	0.0148207
694.734	0.0148349
694.812	0.0149306
694.890	0.0149062
694.968	0.0148460
695.047	0.0147848
695.125	0.0147310
695.203	0.0148773
695.281	0.0148814
695.359	0.0148730
695.437	0.0148580
695.515	0.0149456
695.593	0.0151109
695.672	0.0150055
695.750	0.0148644
695.828	0.0150037
695.906	0.0149597
695.984	0.0149002
696.062	0.0149622
696.140	0.0148796
696.218	0.0148608
696.297	0.0148988
696.375	0.0149498
696.453	0.0149387
696.531	0.0148174
696.609	0.0149855
696.687	0.0150793
696.765	0.0148360
696.843	0.0148917
696.922	0.0149797
697.000	0.0149645
697.078	0.0147868
697.156	0.0148973
697.234	0.0148753
697.312	0.0149400
697.390	0.0148437
697.468	0.0148528
697.547	0.0148486
697.625	0.0148241
697.703	0.0149940
697.781	0.0148921
697.859	0.0148017
697.937	0.0149283
698.015	0.0150090
698.093	0.0149606
698.172	0.0148123
698.250	0.0150063
698.328	0.0150128
698.406	0.0149960
698.484	0.0149262
698.562	0.0149391
698.640	0.0149387
698.718	0.0150145
698.797	0.0148293
698.875	0.0148276
698.953	0.0148260
699.031	0.0149293
699.109	0.0150923
699.187	0.0149297
699.265	0.0147919
699.343	0.0148902
699.422	0.0149832
699.500	0.0148164
699.578	0.0150414
699.656	0.0149236
699.734	0.0147896
699.812	0.0148510
699.890	0.0148984
699.968	0.0149158
700.047	0.0149940
700.125	0.0148041
700.203	0.0147994
700.281	0.0148362
700.359	0.0149692
700.437	0.0150170
700.515	0.0149113
700.593	0.0149462
700.672	0.0148629
700.750	0.0148341
700.828	0.0149731
700.906	0.0148790
700.984	0.0149660
701.062	0.0149390
701.140	0.0149244
701.218	0.0148680
701.297	0.0148357
701.375	0.0148624
701.453	0.0147584
701.531	0.0148930
701.609	0.0148136
701.687	0.0149700
701.765	0.0148769
701.843	0.0148845
701.922	0.0148400
702.000	0.0148620
702.078	0.0149059
702.156	0.0147874
702.234	0.0147676
702.312	0.0148367
702.390	0.0149275
702.468	0.0147894
702.547	0.0148467
702.625	0.0146765
702.703	0.0148954
702.781	0.0149120
702.859	0.0149667
702.937	0.0149182
703.015	0.0147602
703.093	0.0147638
703.172	0.0149084
703.250	0.0148893
703.328	0.0148890
703.406	0.0148229
703.484	0.0148206
703.562	0.0147624
703.640	0.0148700
703.718	0.0148427
703.797	0.0147437
703.875	0.0149014
703.953	0.0148470
704.031	0.0147368
704.109	0.0147536
704.187	0.0147694
704.265	0.0148461
704.343	0.0148282
704.422	0.0147461
704.500	0.0148650
704.578	0.0148107
704.656	0.0147866
704.734	0.0149086
704.812	0.0148836
704.890	0.0147395
704.968	0.0147366
705.047	0.0149299
705.125	0.0148659
705.203	0.0146440
705.281	0.0148817
705.359	0.0149206
705.437	0.0147457
705.515	0.0148856
705.593	0.0149167
705.672	0.0147527
705.750	0.0146639
705.828	0.0147167
705.906	0.0147578
705.984	0.0148987
706.062	0.0149078
706.140	0.0148607
706.218	0.0148915
706.297	0.0146022
706.375	0.0147308
706.453	0.0149018
706.531	0.0148229
706.609	0.0147858
706.687	0.0147936
706.765	0.0146952
706.843	0.0148035
706.922	0.0148600
707.000	0.0147866
707.078	0.0147148
707.156	0.0148273
707.234	0.0148985
707.312	0.0147679
707.390	0.0147896
707.468	0.0148571
707.547	0.0148082
707.625	0.0147576
707.703	0.0147492
707.781	0.0147939
707.859	0.0147108
707.937	0.0147708
708.015	0.0148640
708.093	0.0148071
708.172	0.0149522
708.250	0.0150060
708.328	0.0147148
708.406	0.0146182
708.484	0.0148176
708.562	0.0147894
708.640	0.0148523
708.718	0.0149082
708.797	0.0147983
708.875	0.0148141
708.953	0.0148129
709.031	0.0147912
709.109	0.0148058
709.187	0.0147346
709.265	0.0149064
709.343	0.0146691
709.422	0.0148246
709.500	0.0149422
709.578	0.0148561
709.656	0.0150124
709.734	0.0149420
709.812	0.0149218
709.890	0.0148543
709.968	0.0148377
710.047	0.0148843
710.125	0.0147962
710.203	0.0149060
710.281	0.0147654
710.359	0.0149805
710.437	0.0149051
710.515	0.0149203
710.593	0.0148719
710.672	0.0148067
710.750	0.0149529
710.828	0.0149673
710.906	0.0149902
710.984	0.0148809
711.062	0.0149714
711.140	0.0149358
711.218	0.0147913
711.297	0.0148379
711.375	0.0148141
711.453	0.0147656
711.531	0.0148870
711.609	0.0148601
711.687	0.0147892
711.765	0.0147121
711.843	0.0149100
711.922	0.0148727
712.000	0.0148396
712.078	0.0149432
712.156	0.0148956
712.234	0.0148262
712.312	0.0148061
712.390	0.0149110
712.468	0.0149522
712.547	0.0149672
712.625	0.0147706
712.703	0.0148849
712.781	0.0148698
712.859	0.0147640
712.937	0.0148573
713.015	0.0148009
713.093	0.0148851
713.172	0.0149390
713.250	0.0149992
713.328	0.0147799
713.406	0.0148832
713.484	0.0149311
713.562	0.0149133
713.640	0.0148538
713.718	0.0149175
713.797	0.0148085
713.875	0.0149116
713.953	0.0149276
714.031	0.0148644
714.109	0.0149449
714.187	0.0148981
714.265	0.0149757
714.343	0.0148705
714.422	0.0149712
714.500	0.0148007
714.578	0.0148976
714.656	0.0149985
714.734	0.0148992
714.812	0.0149071
714.890	0.0148581
714.968	0.0148378
715.047	0.0149496
715.125	0.0150214
715.203	0.0148653
715.281	0.0148626
715.359	0.0149297
715.437	0.0149943
715.515	0.0149225
715.593	0.0149124
715.672	0.0148676
715.750	0.0150293
715.828	0.0151267
715.906	0.0149812
715.984	0.0149857
716.062	0.0149860
716.140	0.0150378
716.218	0.0150368
716.297	0.0150324
716.375	0.0148680
716.453	0.0148678
716.531	0.0149670
716.609	0.0150368
716.687	0.0148535
716.765	0.0150618
716.843	0.0149126
716.922	0.0149361
717.000	0.0149969
717.078	0.0150362
717.156	0.0149215
717.234	0.0148833
717.312	0.0149992
717.390	0.0149553
717.468	0.0149562
717.547	0.0149321
717.625	0.0148489
717.703	0.0148810
717.781	0.0147849
717.859	0.0149213
717.937	0.0149898
718.015	0.0149326
718.093	0.0148717
718.172	0.0148650
718.250	0.0148901
718.328	0.0148512
718.406	0.0149315
718.484	0.0149671
718.562	0.0149148
718.640	0.0150913
718.718	0.0149955
718.797	0.0149654
718.875	0.0150269
718.953	0.0149956
719.031	0.0149796
719.109	0.0150134
719.187	0.0150352
719.265	0.0149358
719.343	0.0148730
719.422	0.0150974
719.500	0.0150143
719.578	0.0148949
719.656	0.0149805
719.734	0.0149427
719.812	0.0149245
719.890	0.0149496
719.968	0.0150082
720.047	0.0150277
720.125	0.0149479
720.203	0.0150562
720.281	0.0149833
720.359	0.0151094
720.437	0.0149145
720.515	0.0150459
720.593	0.0149176
720.672	0.0148463
720.750	0.0149436
720.828	0.0149811
720.906	0.0150419
720.984	0.0148933
721.062	0.0148658
721.140	0.0149494
721.218	0.0149624
721.297	0.0149337
721.375	0.0149706
721.453	0.0148849
721.531	0.0148421
721.609	0.0149097
721.687	0.0149250
721.765	0.0148271
721.843	0.0149351
721.922	0.0149909
722.000	0.0148483
722.078	0.0149983
722.156	0.0149738
722.234	0.0150037
722.312	0.0149754
722.390	0.0147800
722.468	0.0149443
722.547	0.0149829
722.625	0.0148029
722.703	0.0148542
722.781	0.0150316
722.859	0.0147866
722.937	0.0148740
723.015	0.0149553
723.093	0.0149237
723.172	0.0148252
723.250	0.0148430
723.328	0.0149722
723.406	0.0148656
723.484	0.0148283
723.562	0.0148321
723.640	0.0148816
723.718	0.0147874
723.797	0.0149774
723.875	0.0148524
723.953	0.0148187
724.031	0.0148749
724.109	0.0148518
724.187	0.0148976
724.265	0.0147784
724.343	0.0149023
724.422	0.0148290
724.500	0.0147655
724.578	0.0147597
724.656	0.0148699
724.734	0.0149174
724.812	0.0148046
724.890	0.0146931
724.968	0.0148282
725.047	0.0147805
725.125	0.0148328
725.203	0.0148569
725.281	0.0149113
725.359	0.0148190
725.437	0.0147006
725.515	0.0147940
725.593	0.0148663
725.672	0.0147360
725.750	0.0147501
725.828	0.0148013
725.906	0.0148433
725.984	0.0149139
726.062	0.0148802
726.140	0.0148170
726.218	0.0146791
726.297	0.0148097
726.375	0.0148053
726.453	0.0147252
726.531	0.0148035
726.609	0.0147711
726.687	0.0148100
726.765	0.0148150
726.843	0.0147458
726.922	0.0146284
727.000	0.0148195
727.078	0.0148478
727.156	0.0147590
727.234	0.0147749
727.312	0.0146690
727.390	0.0146942
727.468	0.0147396
727.547	0.0148115
727.625	0.0147312
727.703	0.0148162
727.781	0.0147369
727.859	0.0146371
727.937	0.0147144
728.015	0.0148507
728.093	0.0147633
728.172	0.0148153
728.250	0.0146790
728.328	0.0146928
728.406	0.0146977
728.484	0.0148525
728.562	0.0146537
728.640	0.0148971
728.718	0.0148321
728.797	0.0147655
728.875	0.0147996
728.953	0.0147342
729.031	0.0147878
729.109	0.0148305
729.187	0.0149120
729.265	0.0148105
729.343	0.0147859
729.422	0.0147519
729.500	0.0148055
729.578	0.0147376
729.656	0.0148006
729.734	0.0148252
729.812	0.0147412
729.890	0.0147164
729.968	0.0148541
730.047	0.0146812
730.125	0.0148421
730.203	0.0148769
730.281	0.0149490
730.359	0.0146491
730.437	0.0147368
730.515	0.0146915
730.593	0.0148025
730.672	0.0147858
730.750	0.0148345
730.828	0.0147760
730.906	0.0147773
730.984	0.0148312
731.062	0.0148964
731.140	0.0148531
731.218	0.0148424
731.297	0.0148736
731.375	0.0147759
731.453	0.0148201
731.531	0.0148772
731.609	0.0148557
731.687	0.0147807
731.765	0.0148456
731.843	0.0148170
731.922	0.0148175
732.000	0.0148525
732.078	0.0148210
732.156	0.0147367
732.234	0.0148264
732.312	0.0148508
732.390	0.0148926
732.468	0.0148878
732.547	0.0148383
732.625	0.0148653
732.703	0.0148762
732.781	0.0148141
732.859	0.0149494
732.937	0.0149075
733.015	0.0148536
733.093	0.0148306
733.172	0.0148246
733.250	0.0148222
733.328	0.0149329
733.406	0.0148183
733.484	0.0148699
733.562	0.0148730
733.640	0.0148985
733.718	0.0148681
733.797	0.0149660
733.875	0.0150439
733.953	0.0149261
734.031	0.0149097
734.109	0.0149531
734.187	0.0148837
734.265	0.0150103
734.343	0.0149225
734.422	0.0148383
734.500	0.0148884
734.578	0.0149290
734.656	0.0149097
734.734	0.0149314
734.812	0.0149251
734.890	0.0148565
734.968	0.0149876
735.047	0.0148785
735.125	0.0150178
735.203	0.0149484
735.281	0.0149085
735.359	0.0149374
735.437	0.0149234
735.515	0.0148655
735.593	0.0149051
735.672	0.0150491
735.750	0.0149178
735.828	0.0149182
735.906	0.0150156
735.984	0.0149580
736.062	0.0148584
736.140	0.0149024
736.218	0.0148723
736.297	0.0147513
736.375	0.0147887
736.453	0.0149816
736.531	0.0149040
736.609	0.0149044
736.687	0.0148316
736.765	0.0148897
736.843	0.0148808
736.922	0.0149597
737.000	0.0148315
737.078	0.0149078
737.156	0.0149974
737.234	0.0150404
737.312	0.0150669
737.390	0.0149121
737.468	0.0150764
737.547	0.0149479
737.625	0.0149300
737.703	0.0147872
737.781	0.0148911
737.859	0.0147907
737.937	0.0147858
738.015	0.0148190
738.093	0.0149107
738.172	0.0147820
738.250	0.0147485
738.328	0.0148093
738.406	0.0148809
738.484	0.0148618
738.562	0.0149100
738.640	0.0150233
738.718	0.0150445
738.797	0.0149242
738.875	0.0150104
738.953	0.0148347
739.031	0.0150169
739.109	0.0151643
739.187	0.0149802
739.265	0.0148162
739.343	0.0150340
739.422	0.0149103
739.500	0.0149491
739.578	0.0148620
739.656	0.0150398
739.734	0.0150018
739.812	0.0149448
739.890	0.0147650
739.968	0.0148895
740.047	0.0149992
740.125	0.0148962
740.203	0.0149416
740.281	0.0148676
740.359	0.0150050
740.437	0.0150308
740.515	0.0149155
740.593	0.0149362
740.672	0.0150041
740.750	0.0149502
740.828	0.0147739
740.906	0.0150385
740.984	0.0149084
741.062	0.0148611
741.140	0.0148307
741.218	0.0149082
741.297	0.0147662
741.375	0.0147349
741.453	0.0147509
741.531	0.0147855
741.609	0.0147614
741.687	0.0147595
741.765	0.0149813
741.843	0.0149369
741.922	0.0149616
742.000	0.0149249
742.078	0.0148656
742.156	0.0150707
742.234	0.0149233
742.312	0.0149738
742.390	0.0150745
742.468	0.0149364
742.547	0.0150712
742.625	0.0150632
742.703	0.0149107
742.781	0.0149564
742.859	0.0148670
742.937	0.0149343
743.015	0.0148873
743.093	0.0146841
743.172	0.0147962
743.250	0.0147510
743.328	0.0148047
743.406	0.0148682
743.484	0.0148140
743.562	0.0149276
743.640	0.0150744
743.718	0.0149159
743.797	0.0149052
743.875	0.0150452
743.953	0.0150372
744.031	0.0150315
744.109	0.0151897
744.187	0.0150278
744.265	0.0150154
744.343	0.0149640
744.422	0.0149316
744.500	0.0149372
744.578	0.0149474
744.656	0.0148906
744.734	0.0148823
744.812	0.0148362
744.890	0.0147585
744.968	0.0147708
745.047	0.0147112
745.125	0.0148876
745.203	0.0147023
745.281	0.0147582
745.359	0.0149314
745.437	0.0147623
745.515	0.0148223
745.593	0.0149160
745.672	0.0149519
745.750	0.0150564
745.828	0.0149319
745.906	0.0150756
745.984	0.0150667
746.062	0.0149191
746.140	0.0151223
746.218	0.0150542
746.297	0.0150684
746.375	0.0150089
746.453	0.0149155
746.531	0.0147733
746.609	0.0148610
746.687	0.0148882
746.765	0.0147794
746.843	0.0147730
746.922	0.0147799
747.000	0.0147158
747.078	0.0148236
747.156	0.0147485
747.234	0.0148902
747.312	0.0148768
747.390	0.0150961
747.468	0.0150438
747.547	0.0149899
747.625	0.0149812
747.703	0.0149762
747.781	0.0150355
747.859	0.0149712
747.937	0.0149138
748.015	0.0148734
748.093	0.0148603
748.172	0.0147360
748.250	0.0147828
748.328	0.0146834
748.406	0.0148338
748.484	0.0147066
748.562	0.0146510
748.640	0.0147103
748.718	0.0147294
748.797	0.0147857
748.875	0.0147622
748.953	0.0149584
749.031	0.0150138
749.109	0.0150896
749.187	0.0150343
749.265	0.0150195
749.343	0.0150458
749.422	0.0149451
749.500	0.0149982
749.578	0.0149981
749.656	0.0149159
749.734	0.0148863
749.812	0.0147963
749.890	0.0149571
749.968	0.0149262
750.047	0.0149837
750.125	0.0149742
750.203	0.0150836
750.281	0.0151343
750.359	0.0149384
750.437	0.0149838
750.515	0.0148609
750.593	0.0149989
750.672	0.0149911
750.750	0.0148489
750.828	0.0147909
750.906	0.0147325
750.984	0.0146391
751.062	0.0145712
751.140	0.0146839
751.218	0.0145494
751.297	0.0145535
751.375	0.0147813
751.453	0.0146593
751.531	0.0144771
751.609	0.0144836
751.687	0.0146166
751.765	0.0147473
751.843	0.0147185
751.922	0.0148117
752.000	0.0150901
752.078	0.0150951
752.156	0.0150663
752.234	0.0151501
752.312	0.0151271
752.390	0.0151853
752.468	0.0151012
752.547	0.0148910
752.625	0.0150868
752.703	0.0148277
752.781	0.0149491
752.859	0.0148203
752.937	0.0149470
753.015	0.0147622
753.093	0.0149224
753.172	0.0149354
753.250	0.0150225
753.328	0.0150632
753.406	0.0151582
753.484	0.0151611
753.562	0.0150636
753.640	0.0150315
753.718	0.0153461
753.797	0.0152184
753.875	0.0152560
753.953	0.0152490
754.031	0.0151378
754.109	0.0151499
754.187	0.0150774
754.265	0.0151533
754.343	0.0151183
754.422	0.0147249
754.500	0.0147080
754.578	0.0146069
754.656	0.0144418
754.734	0.0143084
754.812	0.0143739
754.890	0.0142012
754.968	0.0141325
755.047	0.0140609
755.125	0.0139584
755.203	0.0140701
755.281	0.0139828
755.359	0.0140356
755.437	0.0141904
755.515	0.0142526
755.593	0.0145409
755.672	0.0145815
755.750	0.0147955
755.828	0.0150577
755.906	0.0151770
755.984	0.0152006
756.062	0.0152489
756.140	0.0153738
756.218	0.0153571
756.297	0.0152796
756.375	0.0151358
756.453	0.0150677
756.531	0.0150923
756.609	0.0149939
756.687	0.0149470
756.765	0.0149883
756.843	0.0149676
756.922	0.0150592
757.000	0.0151160
757.078	0.0151539
757.156	0.0152547
757.234	0.0153809
757.312	0.0154304
757.390	0.0155938
757.468	0.0156293
757.547	0.0159853
757.625	0.0159673
757.703	0.0162495
757.781	0.0161135
757.859	0.0160957
757.937	0.0159155
758.015	0.0158064
758.093	0.0154659
758.172	0.0151472
758.250	0.0148086
758.328	0.0144370
758.406	0.0141518
758.484	0.0136781
758.562	0.0136457
758.640	0.0135355
758.718	0.0133696
758.797	0.0131330
758.875	0.0132727
758.953	0.0132657
759.031	0.0136006
759.109	0.0136731
759.187	0.0137986
759.265	0.0139201
759.343	0.0140047
759.422	0.0140848
759.500	0.0142687
759.578	0.0144315
759.656	0.0145568
759.734	0.0145648
759.812	0.0146036
759.890	0.0145406
759.968	0.0146036
760.047	0.0147096
760.125	0.0146510
760.203	0.0145502
760.281	0.0146044
760.359	0.0147375
760.437	0.0147057
760.515	0.0149507
760.593	0.0150277
760.672	0.0153004
760.750	0.0155616
760.828	0.0156455
760.906	0.0158035
760.984	0.0160046
761.062	0.0160968
761.140	0.0161497
761.218	0.0162528
761.297	0.0163219
761.375	0.0164844
761.453	0.0163538
761.531	0.0163110
761.609	0.0163107
761.687	0.0162968
761.765	0.0161739
761.843	0.0160888
761.922	0.0159727
762.000	0.0158378
762.078	0.0156970
762.156	0.0156734
762.234	0.0155222
762.312	0.0155721
762.390	0.0154295
762.468	0.0153872
762.547	0.0152438
762.625	0.0153353
762.703	0.0151136
762.781	0.0148687
762.859	0.0146541
762.937	0.0145074
763.015	0.0142387
763.093	0.0139718
763.172	0.0137862
763.250	0.0135537
763.328	0.0133898
763.406	0.0131701
763.484	0.0129819
763.562	0.0127429
763.640	0.0126027
763.718	0.0124247
763.797	0.0123296
763.875	0.0122269
763.953	0.0119075
764.031	0.0118983
764.109	0.0120898
764.187	0.0121168
764.265	0.0120017
764.343	0.0124294
764.422	0.0129932
764.500	0.0131895
764.578	0.0137077
764.656	0.0141074
764.734	0.0144839
764.812	0.0149368
764.890	0.0153407
764.968	0.0158728
765.047	0.0162174
765.125	0.0165795
765.203	0.0169980
765.281	0.0172004
765.359	0.0173367
765.437	0.0175756
765.515	0.0176494
765.593	0.0177236
765.672	0.0177335
765.750	0.0177917
765.828	0.0176653
765.906	0.0177439
765.984	0.0175397
766.062	0.0176411
766.140	0.0177699
766.218	0.0174606
766.297	0.0174790
766.375	0.0174420
766.453	0.0171717
766.531	0.0170713
766.609	0.0170147
766.687	0.0169044
766.765	0.0167976
766.843	0.0164214
766.922	0.0161375
767.000	0.0159859
767.078	0.0156262
767.156	0.0152039
767.234	0.0148595
767.312	0.0144529
767.390	0.0140154
767.468	0.0137884
767.547	0.0132539
767.625	0.0128789
767.703	0.0124842
767.781	0.0120682
767.859	0.0116466
767.937	0.0112852
768.015	0.0109674
768.093	0.0107010
768.172	0.0103697
768.250	0.0102537
768.328	0.00998062
768.406	0.0100297
768.484	0.00977493
768.562	0.00962082
768.640	0.00973923
768.718	0.00996132
768.797	0.0102811
768.875	0.0107426
768.953	0.0113555
769.031	0.0119073
769.109	0.0125978
769.187	0.0133723
769.265	0.0143935
769.343	0.0152610
769.422	0.0160511
769.500	0.0166869
769.578	0.0175710
769.656	0.0183037
769.734	0.0189641
769.812	0.0196899
769.890	0.0201143
769.968	0.0205468
770.047	0.0209982
770.125	0.0213082
770.203	0.0216032
770.281	0.0215585
770.359	0.0213837
770.437	0.0211279
770.515	0.0208354
770.593	0.0202763
770.672	0.0195985
770.750	0.0188805
770.828	0.0182197
770.906	0.0176424
770.984	0.0167728
771.062	0.0161466
771.140	0.0154110
771.218	0.0147272
771.297	0.0141996
771.375	0.0133421
771.453	0.0127954
771.531	0.0123438
771.609	0.0118313
771.687	0.0114339
771.765	0.0109524
771.843	0.0107043
771.922	0.0106763
772.000	0.0106879
772.078	0.0107624
772.156	0.0110299
772.234	0.0112012
772.312	0.0114793
772.390	0.0119683
772.468	0.0124577
772.547	0.0127987
772.625	0.0131185
772.703	0.0135153
772.781	0.0139200
772.859	0.0142442
772.937	0.0143254
773.015	0.0143620
773.093	0.0143388
773.172	0.0142504
773.250	0.0140547
773.328	0.0136645
773.406	0.0133083
773.484	0.0129964
773.562	0.0125429
773.640	0.0122787
773.718	0.0119466
773.797	0.0118465
773.875	0.0117180
773.953	0.0118391
774.031	0.0120569
774.109	0.0123962
774.187	0.0130644
774.265	0.0138818
774.343	0.0146490
774.422	0.0156189
774.500	0.0162944
774.578	0.0173570
774.656	0.0182624
774.734	0.0190884
774.812	0.0197414
774.890	0.0204803
774.968	0.0209534
775.047	0.0213112
775.125	0.0214492
775.203	0.0213966
775.281	0.0213148
775.359	0.0211452
775.437	0.0206349
775.515	0.0200187
775.593	0.0194188
775.672	0.0186662
775.750	0.0175204
775.828	0.0168379
775.906	0.0160112
775.984	0.0150948
776.062	0.0145598
776.140	0.0138702
776.218	0.0132428
776.297	0.0128889
776.375	0.0125473
776.453	0.0123357
776.531	0.0122215
776.609	0.0121527
776.687	0.0122126
776.765	0.0120053
776.843	0.0120555
776.922	0.0118890
777.000	0.0120921
777.078	0.0122145
777.156	0.0122661
777.234	0.0123385
777.312	0.0124744
777.390	0.0125903
777.468	0.0127222
777.547	0.0128057
777.625	0.0127988
777.703	0.0128795
777.781	0.0130717
777.859	0.0132008
777.937	0.0131911
778.015	0.0131913
778.093	0.0131508
778.172	0.0133724
778.250	0.0134339
778.328	0.0134552
778.406	0.0133820
778.484	0.0133976
778.562	0.0133652
778.640	0.0135509
778.718	0.0135413
778.797	0.0137305
778.875	0.0137829
778.953	0.0139639
779.031	0.0143208
779.109	0.0147130
779.187	0.0152426
779.265	0.0157394
779.343	0.0159914
779.422	0.0163311
779.500	0.0166125
779.578	0.0167731
779.656	0.0171579
779.734	0.0172269
779.812	0.0174506
779.890	0.0175673
779.968	0.0179811
780.047	0.0180864
780.125	0.0181084
780.203	0.0182935
780.281	0.0183576
780.359	0.0185422
780.437	0.0186564
780.515	0.0185683
780.593	0.0184000
780.672	0.0180897
780.750	0.0176517
780.828	0.0172369
780.906	0.0167622
780.984	0.0162675
781.062	0.0159071
781.140	0.0152425
781.218	0.0146827
781.297	0.0141770
781.375	0.0136463
781.453	0.0133940
781.531	0.0130515
781.609	0.0127158
781.687	0.0127113
781.765	0.0126051
781.843	0.0125691
781.922	0.0127188
782.000	0.0131005
782.078	0.0133195
782.156	0.0135038
782.234	0.0139464
782.312	0.0141308
782.390	0.0144421
782.468	0.0147555
782.547	0.0147839
782.625	0.0148775
782.703	0.0147483
782.781	0.0147470
782.859	0.0145369
782.937	0.0141782
783.015	0.0140010
783.093	0.0133964
783.172	0.0129630
783.250	0.0125574
783.328	0.0119855
783.406	0.0115411
783.484	0.0112432
783.562	0.0110091
783.640	0.0108920
783.718	0.0107751
783.797	0.0108894
783.875	0.0111631
783.953	0.0113216
784.031	0.0119261
784.109	0.0125791
784.187	0.0131630
784.265	0.0140663
784.343	0.0146601
784.422	0.0153117
784.500	0.0159666
784.578	0.0165736
784.656	0.0172334
784.734	0.0176982
784.812	0.0180129
784.890	0.0184460
784.968	0.0187849
785.047	0.0192004
785.125	0.0194508
785.203	0.0194495
785.281	0.0195425
785.359	0.0199108
785.437	0.0195718
785.515	0.0195852
785.593	0.0192209
785.672	0.0188866
785.750	0.0186682
785.828	0.0182000
785.906	0.0176173
785.984	0.0171633
786.062	0.0168063
786.140	0.0162611
786.218	0.0158575
786.297	0.0154479
786.375	0.0151499
786.453	0.0146490
786.531	0.0143266
786.609	0.0140227
786.687	0.0137094
786.765	0.0133715
786.843	0.0131371
786.922	0.0128139
787.000	0.0123204
787.078	0.0121731
787.156	0.0119378
787.234	0.0118159
787.312	0.0115405
787.390	0.0112967
787.468	0.0111557
787.547	0.0113834
787.625	0.0111665
787.703	0.0112505
787.781	0.0114066
787.859	0.0114948
787.937	0.0117171
788.015	0.0120167
788.093	0.0123193
788.172	0.0126318
788.250	0.0130250
788.328	0.0134295
788.406	0.0135662
788.484	0.0137786
788.562	0.0140702
788.640	0.0143784
788.718	0.0145786
788.797	0.0149189
788.875	0.0153339
788.953	0.0155149
789.031	0.0159097
789.109	0.0162865
789.187	0.0164104
789.265	0.0165368
789.343	0.0169163
789.422	0.0170623
789.500	0.0174046
789.578	0.0177106
789.656	0.0177950
789.734	0.0180180
789.812	0.0181290
789.890	0.0181853
789.968	0.0182758
790.047	0.0180866
790.125	0.0182468
790.203	0.0179408
790.281	0.0177828
790.359	0.0174887
790.437	0.0172069
790.515	0.0167776
790.593	0.0163349
790.672	0.0159471
790.750	0.0154189
790.828	0.0151031
790.906	0.0146788
790.984	0.0142757
791.062	0.0138914
791.140	0.0136922
791.218	0.0134588
791.297	0.0132019
791.375	0.0128994
791.453	0.0128168
791.531	0.0127813
791.609	0.0126408
791.687	0.0125326
791.765	0.0125500
791.843	0.0123421
791.922	0.0124072
792.000	0.0125158
792.078	0.0126183
792.156	0.0127860
792.234	0.0129644
792.312	0.0132150
792.390	0.0133654
792.468	0.0133821
792.547	0.0137901
792.625	0.0141181
792.703	0.0142747
792.781	0.0143117
792.859	0.0145697
792.937	0.0148138
793.015	0.0149979
793.093	0.0148625
793.172	0.0150211
793.250	0.0151945
793.328	0.0151981
793.406	0.0151907
793.484	0.0152730
793.562	0.0151529
793.640	0.0153690
793.718	0.0152823
793.797	0.0153502
793.875	0.0155002
793.953	0.0156054
794.031	0.0158845
794.109	0.0161076
794.187	0.0163049
794.265	0.0166356
794.343	0.0167973
794.422	0.0171323
794.500	0.0172242
794.578	0.0175130
794.656	0.0174815
794.734	0.0175626
794.812	0.0176461
794.890	0.0174541
794.968	0.0172580
795.047	0.0171088
795.125	0.0169730
795.203	0.0165768
795.281	0.0160860
795.359	0.0157444
795.437	0.0153245
795.515	0.0147883
795.593	0.0142908
795.672	0.0139467
795.750	0.0135393
795.828	0.0131547
795.906	0.0128378
795.984	0.0126235
796.062	0.0124034
796.140	0.0121909
796.218	0.0119363
796.297	0.0117648
796.375	0.0116016
796.453	0.0115830
796.531	0.0114879
796.609	0.0114783
796.687	0.0115506
796.765	0.0116312
796.843	0.0117828
796.922	0.0120444
797.000	0.0122189
797.078	0.0126160
797.156	0.0132288
797.234	0.0134839
797.312	0.0139986
797.390	0.0144836
797.468	0.0149686
797.547	0.0154342
797.625	0.0159392
797.703	0.0163168
797.781	0.0167953
797.859	0.0171316
797.937	0.0174732
798.015	0.0174752
798.093	0.0176683
798.172	0.0177282
798.250	0.0177615
798.328	0.0178245
798.406	0.0173373
798.484	0.0172504
798.562	0.0169490
798.640	0.0167654
798.718	0.0164709
798.797	0.0162291
798.875	0.0159521
798.953	0.0156730
799.031	0.0154740
799.109	0.0153355
799.187	0.0153973
799.265	0.0153902
799.343	0.0152796
799.422	0.0152543
799.500	0.0153972
799.578	0.0155097
799.656	0.0156458
799.734	0.0155861
799.812	0.0155550
799.890	0.0155430
799.968	0.0156767
800.047	0.0154320
800.125	0.0154209
800.203	0.0151415
800.281	0.0149862
800.359	0.0146983
800.437	0.0144454
800.515	0.0142935
800.593	0.0138840
800.672	0.0135983
800.750	0.0133496
800.828	0.0131876
800.906	0.0129096
800.984	0.0126875
801.062	0.0125305
801.140	0.0124745
801.218	0.0123499
801.297	0.0122794
801.375	0.0123420
801.453	0.0123247
801.531	0.0122543
801.609	0.0124484
801.687	0.0125982
801.765	0.0126242
801.843	0.0128974
801.922	0.0132129
802.000	0.0135602
802.078	0.0137939
802.156	0.0139600
802.234	0.0143784
802.312	0.0147491
802.390	0.0151804
802.468	0.0156431
802.547	0.0157277
802.625	0.0160697
802.703	0.0164336
802.781	0.0167175
802.859	0.0169633
802.937	0.0172044
803.015	0.0174255
803.093	0.0175129
803.172	0.0174953
803.250	0.0176328
803.328	0.0173999
803.406	0.0173379
803.484	0.0170895
803.562	0.0169136
803.640	0.0165864
803.718	0.0163293
803.797	0.0159677
803.875	0.0156495
803.953	0.0152571
804.031	0.0150366
804.109	0.0148567
804.187	0.0148003
804.265	0.0144353
804.343	0.0143702
804.422	0.0143198
804.500	0.0142200
804.578	0.0142373
804.656	0.0142199
804.734	0.0144123
804.812	0.0143111
804.890	0.0145757
804.968	0.0147443
805.047	0.0147504
805.125	0.0150054
805.203	0.0148293
805.281	0.0149456
805.359	0.0151075
805.437	0.0149857
805.515	0.0149368
805.593	0.0149874
805.672	0.0149290
805.750	0.0148596
805.828	0.0145901
805.906	0.0146269
805.984	0.0143962
806.062	0.0143222
806.140	0.0140875
806.218	0.0140990
806.297	0.0137567
806.375	0.0135614
806.453	0.0135918
806.531	0.0134938
806.609	0.0134685
806.687	0.0134556
806.765	0.0134580
806.843	0.0134549
806.922	0.0134255
807.000	0.0134279
807.078	0.0137569
807.156	0.0139828
807.234	0.0140391
807.312	0.0141512
807.390	0.0142755
807.468	0.0145161
807.547	0.0148132
807.625	0.0149911
807.703	0.0153967
807.781	0.0156069
807.859	0.0159049
807.937	0.0161886
808.015	0.0163861
808.093	0.0165936
808.172	0.0168084
808.250	0.0167910
808.328	0.0168989
808.406	0.0167547
808.484	0.0165825
808.562	0.0162656
808.640	0.0160237
808.718	0.0158523
808.797	0.0154417
808.875	0.0151448
808.953	0.0149216
809.031	0.0146640
809.109	0.0144746
809.187	0.0144415
809.265	0.0141477
809.343	0.0141251
809.422	0.0139660
809.500	0.0140832
809.578	0.0139583
809.656	0.0140829
809.734	0.0142049
809.812	0.0145523
809.890	0.0144816
809.968	0.0146460
810.047	0.0148408
810.125	0.0149345
810.203	0.0152107
810.281	0.0152529
810.359	0.0152996
810.437	0.0154630
810.515	0.0155946
810.593	0.0156387
810.672	0.0156801
810.750	0.0157374
810.828	0.0156035
810.906	0.0156183
810.984	0.0155251
811.062	0.0154311
811.140	0.0151871
811.218	0.0151235
811.297	0.0149720
811.375	0.0147045
811.453	0.0145038
811.531	0.0142187
811.609	0.0142892
811.687	0.0140850
811.765	0.0140622
811.843	0.0138680
811.922	0.0137959
812.000	0.0137061
812.078	0.0136377
812.156	0.0135931
812.234	0.0136855
812.312	0.0135933
812.390	0.0137011
812.468	0.0138635
812.547	0.0140301
812.625	0.0142067
812.703	0.0143129
812.781	0.0145531
812.859	0.0149603
812.937	0.0151342
813.015	0.0154575
813.093	0.0157116
813.172	0.0159177
813.250	0.0160708
813.328	0.0162432
813.406	0.0161517
813.484	0.0160316
813.562	0.0160112
813.640	0.0159576
813.718	0.0158562
813.797	0.0156951
813.875	0.0155316
813.953	0.0153282
814.031	0.0151798
814.109	0.0150436
814.187	0.0148424
814.265	0.0147167
814.343	0.0146441
814.422	0.0145072
814.500	0.0142739
814.578	0.0141770
814.656	0.0140939
814.734	0.0140075
814.812	0.0140675
814.890	0.0140079
814.968	0.0140916
815.047	0.0141916
815.125	0.0142046
815.203	0.0144119
815.281	0.0145398
815.359	0.0146961
815.437	0.0148491
815.515	0.0150023
815.593	0.0151842
815.672	0.0154672
815.750	0.0156786
815.828	0.0156804
815.906	0.0157581
815.984	0.0157499
816.062	0.0157746
816.140	0.0156649
816.218	0.0158542
816.297	0.0157239
816.375	0.0156026
816.453	0.0152945
816.531	0.0153312
816.609	0.0151462
816.687	0.0148630
816.765	0.0147964
816.843	0.0145972
816.922	0.0146449
817.000	0.0142985
817.078	0.0142825
817.156	0.0143451
817.234	0.0140721
817.312	0.0140771
817.390	0.0139286
817.468	0.0141798
817.547	0.0141738
817.625	0.0142287
817.703	0.0143159
817.781	0.0145171
817.859	0.0146552
817.937	0.0147196
818.015	0.0149148
818.093	0.0149131
818.172	0.0150788
818.250	0.0152929
818.328	0.0153869
818.406	0.0151463
818.484	0.0153260
818.562	0.0155041
818.640	0.0154751
818.718	0.0155304
818.797	0.0154561
818.875	0.0154012
818.953	0.0152859
819.031	0.0153441
819.109	0.0152105
819.187	0.0150656
819.265	0.0149864
819.343	0.0147578
819.422	0.0145816
819.500	0.0144651
819.578	0.0143215
819.656	0.0140636
819.734	0.0140079
819.812	0.0139352
819.890	0.0139545
819.968	0.0138452
820.047	0.0137872
820.125	0.0139950
820.203	0.0140432
820.281	0.0141056
820.359	0.0142204
820.437	0.0144173
820.515	0.0143777
820.593	0.0147749
820.672	0.0150961
820.750	0.0150700
820.828	0.0152151
820.906	0.0153127
820.984	0.0154539
821.062	0.0156391
821.140	0.0156139
821.218	0.0157593
821.297	0.0157618
821.375	0.0157399
821.453	0.0157497
821.531	0.0155763
821.609	0.0155090
821.687	0.0154030
821.765	0.0153444
821.843	0.0151519
821.922	0.0149723
822.000	0.0150056
822.078	0.0148285
822.156	0.0148296
822.234	0.0146467
822.312	0.0145262
822.390	0.0144225
822.468	0.0144432
822.547	0.0143169
822.625	0.0145262
822.703	0.0144970
822.781	0.0144292
822.859	0.0144888
822.937	0.0145300
823.015	0.0146687
823.093	0.0147577
823.172	0.0148002
823.250	0.0149365
823.328	0.0148840
823.406	0.0148792
823.484	0.0150420
823.562	0.0151672
823.640	0.0150369
823.718	0.0151832
823.797	0.0152170
823.875	0.0151642
823.953	0.0151224
824.031	0.0150862
824.109	0.0151738
824.187	0.0150011
824.265	0.0149432
824.343	0.0149015
824.422	0.0148392
824.500	0.0147153
824.578	0.0146555
824.656	0.0145712
824.734	0.0145384
824.812	0.0145790
824.890	0.0144658
824.968	0.0143833
825.047	0.0142709
825.125	0.0143416
825.203	0.0145525
825.281	0.0146028
825.359	0.0146288
825.437	0.0146529
825.515	0.0146322
825.593	0.0147480
825.672	0.0148013
825.750	0.0149364
825.828	0.0148752
825.906	0.0150333
825.984	0.0152462
826.062	0.0151865
826.140	0.0151687
826.218	0.0150037
826.297	0.0152795
826.375	0.0151022
826.453	0.0153423
826.531	0.0152252
826.609	0.0151768
826.687	0.0152061
826.765	0.0151599
826.843	0.0149725
826.922	0.0151160
827.000	0.0150104
827.078	0.0149521
827.156	0.0148370
827.234	0.0147263
827.312	0.0147066
827.390	0.0146249
827.468	0.0145902
827.547	0.0146206
827.625	0.0144465
827.703	0.0144604
827.781	0.0145277
827.859	0.0143639
827.937	0.0144688
828.015	0.0144817
828.093	0.0144378
828.172	0.0144093
828.250	0.0145147
828.328	0.0144778
828.406	0.0146767
828.484	0.0147670
828.562	0.0146622
828.640	0.0148950
828.718	0.0148340
828.797	0.0149502
828.875	0.0149744
828.953	0.0151394
829.031	0.0151344
829.109	0.0151247
829.187	0.0150331
829.265	0.0150159
829.343	0.0150749
829.422	0.0150184
829.500	0.0148560
829.578	0.0150550
829.656	0.0150066
829.734	0.0150300
829.812	0.0149656
829.890	0.0149331
829.968	0.0150712
830.047	0.0149339
830.125	0.0149612
830.203	0.0149663
830.281	0.0150165
830.359	0.0150291
830.437	0.0151260
830.515	0.0151743
830.593	0.0151152
830.672	0.0151747
830.750	0.0151992
830.828	0.0152015
830.906	0.0152168
830.984	0.0150551
831.062	0.0150349
831.140	0.0150355
831.218	0.0149866
831.297	0.0150679
831.375	0.0149429
831.453	0.0149995
831.531	0.0147618
831.609	0.0148182
831.687	0.0147468
831.765	0.0147196
831.843	0.0147453
831.922	0.0145893
832.000	0.0147004
832.078	0.0146040
832.156	0.0145370
832.234	0.0145895
832.312	0.0146735
832.390	0.0147451
832.468	0.0146774
832.547	0.0145876
832.625	0.0146181
832.703	0.0145912
832.781	0.0145229
832.859	0.0144990
832.937	0.0145744
833.015	0.0145513
833.093	0.0145516
833.172	0.0146233
833.250	0.0146891
833.328	0.0145087
833.406	0.0146023
833.484	0.0146432
833.562	0.0146789
833.640	0.0147896
833.718	0.0149529
833.797	0.0149891
833.875	0.0149287
833.953	0.0148769
834.031	0.0150449
834.109	0.0150009
834.187	0.0151846
834.265	0.0151469
834.343	0.0153388
834.422	0.0151633
834.500	0.0152633
834.578	0.0152186
834.656	0.0152080
834.734	0.0151196
834.812	0.0150231
834.890	0.0151208
834.968	0.0152088
835.047	0.0150195
835.125	0.0149491
835.203	0.0151236
835.281	0.0150790
835.359	0.0149619
835.437	0.0148272
835.515	0.0148241
835.593	0.0147860
835.672	0.0148734
835.750	0.0149078
835.828	0.0148649
835.906	0.0147075
835.984	0.0145745
836.062	0.0146454
836.140	0.0147596
836.218	0.0148315
836.297	0.0147456
836.375	0.0147574
836.453	0.0148615
836.531	0.0148080
836.609	0.0147361
836.687	0.0148241
836.765	0.0148631
836.843	0.0146401
836.922	0.0147582
837.000	0.0147456
837.078	0.0147401
837.156	0.0148540
837.234	0.0146794
837.312	0.0146954
837.390	0.0146876
837.468	0.0146307
837.547	0.0147173
837.625	0.0147163
837.703	0.0146693
837.781	0.0148365
837.859	0.0147106
837.937	0.0148803
838.015	0.0147160
838.093	0.0148259
838.172	0.0149264
838.250	0.0149319
838.328	0.0148871
838.406	0.0150083
838.484	0.0150155
838.562	0.0150080
838.640	0.0151246
838.718	0.0149895
838.797	0.0150875
838.875	0.0150663
838.953	0.0149638
839.031	0.0150052
839.109	0.0149496
839.187	0.0150285
839.265	0.0149474
839.343	0.0148853
839.422	0.0148489
839.500	0.0150318
839.578	0.0148597
839.656	0.0147420
839.734	0.0148156
839.812	0.0148875
839.890	0.0150558
839.968	0.0148923
840.047	0.0150228
840.125	0.0150103
840.203	0.0149051
840.281	0.0149401
840.359	0.0150956
840.437	0.0150472
840.515	0.0148690
840.593	0.0150144
840.672	0.0149222
840.750	0.0148740
840.828	0.0148150
840.906	0.0148775
840.984	0.0148270
841.062	0.0146227
841.140	0.0147058
841.218	0.0146993
841.297	0.0145222
841.375	0.0145688
841.453	0.0147044
841.531	0.0145820
841.609	0.0147004
841.687	0.0148962
841.765	0.0148328
841.843	0.0147996
841.922	0.0148649
842.000	0.0150651
842.078	0.0150051
842.156	0.0150365
842.234	0.0150742
842.312	0.0151424
842.390	0.0151148
842.468	0.0152384
842.547	0.0150533
842.625	0.0150780
842.703	0.0151772
842.781	0.0150149
842.859	0.0149683
842.937	0.0150176
843.015	0.0149712
843.093	0.0148605
843.172	0.0148190
843.250	0.0149123
843.328	0.0148412
843.406	0.0149072
843.484	0.0148550
843.562	0.0148452
843.640	0.0149784
843.718	0.0148541
843.797	0.0149152
843.875	0.0149194
843.953	0.0148697
844.031	0.0149182
844.109	0.0149287
844.187	0.0147488
844.265	0.0148347
844.343	0.0150423
844.422	0.0148649
844.500	0.0149089
844.578	0.0150105
844.656	0.0149437
844.734	0.0147787
844.812	0.0147691
844.890	0.0147443
844.968	0.0148164
845.047	0.0148589
845.125	0.0147729
845.203	0.0146706
845.281	0.0146527
845.359	0.0148026
845.437	0.0148050
845.515	0.0148102
845.593	0.0149397
845.672	0.0149619
845.750	0.0149027
845.828	0.0149364
845.906	0.0148665
845.984	0.0148880
846.062	0.0149898
846.140	0.0149745
846.218	0.0149733
846.297	0.0148521
846.375	0.0148476
846.453	0.0150767
846.531	0.0149578
846.609	0.0149043
846.687	0.0147429
846.765	0.0148315
846.843	0.0149513
846.922	0.0147660
847.000	0.0147648
847.078	0.0146478
847.156	0.0148353
847.234	0.0147653
847.312	0.0145756
847.390	0.0148639
847.468	0.0148273
847.547	0.0149092
847.625	0.0147913
847.703	0.0147827
847.781	0.0147483
847.859	0.0147080
847.937	0.0148508
848.015	0.0148003
848.093	0.0148398
848.172	0.0148824
848.250	0.0149134
848.328	0.0150017
848.406	0.0149493
848.484	0.0149426
848.562	0.0148645
848.640	0.0148796
848.718	0.0148694
848.797	0.0147397
848.875	0.0148579
848.953	0.0147692
849.031	0.0149155
849.109	0.0149061
849.187	0.0148016
849.265	0.0147033
849.343	0.0148760
849.422	0.0147391
849.500	0.0149213
849.578	0.0148634
849.656	0.0149486
849.734	0.0150237
849.812	0.0149960
849.890	0.0149220
849.968	0.0149403
850.047	0.0150373
850.125	0.0151098
850.203	0.0151637
850.281	0.0151329
850.359	0.0150787
850.437	0.0149838
850.515	0.0150801
850.593	0.0150927
850.672	0.0149715
850.750	0.0149277
850.828	0.0147882
850.906	0.0148898
850.984	0.0148347
851.062	0.0148917
851.140	0.0146661
851.218	0.0148539
851.297	0.0147845
851.375	0.0147940
851.453	0.0146828
851.531	0.0147814
851.609	0.0148132
851.687	0.0146639
851.765	0.0147115
851.843	0.0147372
851.922	0.0147042
852.000	0.0147235
852.078	0.0145604
852.156	0.0145878
852.234	0.0145644
852.312	0.0146639
852.390	0.0146187
852.468	0.0144273
852.547	0.0145667
852.625	0.0144787
852.703	0.0145579
852.781	0.0146593
852.859	0.0146137
852.937	0.0144573
853.015	0.0143239
853.093	0.0146483
853.172	0.0145822
853.250	0.0145815
853.328	0.0146443
853.406	0.0147498
853.484	0.0148477
853.562	0.0148569
853.640	0.0148824
853.718	0.0148214
853.797	0.0149164
853.875	0.0150226
853.953	0.0150510
854.031	0.0152227
854.109	0.0151383
854.187	0.0150348
854.265	0.0151908
854.343	0.0153126
854.422	0.0153596
854.500	0.0152305
854.578	0.0152667
854.656	0.0152257
854.734	0.0151067
854.812	0.0150460
854.890	0.0150949
854.968	0.0150276
855.047	0.0148905
855.125	0.0150397
855.203	0.0149424
855.281	0.0149378
855.359	0.0149484
855.437	0.0149318
855.515	0.0149401
855.593	0.0146681
855.672	0.0148042
855.750	0.0148397
855.828	0.0147501
855.906	0.0147131
855.984	0.0148221
856.062	0.0147575
856.140	0.0147353
856.218	0.0147657
856.297	0.0145944
856.375	0.0148781
856.453	0.0146561
856.531	0.0146299
856.609	0.0146519
856.687	0.0148339
856.765	0.0145750
856.843	0.0148407
856.922	0.0146714
857.000	0.0147612
857.078	0.0148054
857.156	0.0147630
857.234	0.0148776
857.312	0.0147771
857.390	0.0150565
857.468	0.0148398
857.547	0.0146628
857.625	0.0148912
857.703	0.0149918
857.781	0.0149255
857.859	0.0148709
857.937	0.0149453
858.015	0.0149411
858.093	0.0148598
858.172	0.0147179
858.250	0.0147525
858.328	0.0149516
858.406	0.0149036
858.484	0.0149925
858.562	0.0150587
858.640	0.0150121
858.718	0.0149562
858.797	0.0150960
858.875	0.0151463
858.953	0.0150536
859.031	0.0149613
859.109	0.0150809
859.187	0.0150681
859.265	0.0150815
859.343	0.0149438
859.422	0.0149229
859.500	0.0150060
859.578	0.0150915
859.656	0.0149812
859.734	0.0149073
859.812	0.0148506
859.890	0.0149291
859.968	0.0149061
860.047	0.0148650
860.125	0.0147728
860.203	0.0146999
860.281	0.0146092
860.359	0.0147281
860.437	0.0148359
860.515	0.0146227
860.593	0.0146012
860.672	0.0146745
860.750	0.0146534
860.828	0.0146884
860.906	0.0146173
860.984	0.0146675
861.062	0.0145961
861.140	0.0146719
861.218	0.0146384
861.297	0.0146258
861.375	0.0146940
861.453	0.0147407
861.531	0.0147352
861.609	0.0147582
861.687	0.0146522
861.765	0.0149180
861.843	0.0149030
861.922	0.0149261
862.000	0.0149530
862.078	0.0150118
862.156	0.0151481
862.234	0.0152368
862.312	0.0150813
862.390	0.0153046
862.468	0.0153254
862.547	0.0153374
862.625	0.0154480
862.703	0.0154429
862.781	0.0154205
862.859	0.0153676
862.937	0.0154325
863.015	0.0153682
863.093	0.0154248
863.172	0.0154012
863.250	0.0153793
863.328	0.0153133
863.406	0.0152412
863.484	0.0151225
863.562	0.0151242
863.640	0.0149126
863.718	0.0150443
863.797	0.0150820
863.875	0.0147615
863.953	0.0146500
864.031	0.0145921
864.109	0.0145126
864.187	0.0144168
864.265	0.0144093
864.343	0.0143067
864.422	0.0143175
864.500	0.0142331
864.578	0.0142556
864.656	0.0141801
864.734	0.0142712
864.812	0.0141792
864.890	0.0140659
864.968	0.0141050
865.047	0.0142621
865.125	0.0142185
865.203	0.0142986
865.281	0.0141763
865.359	0.0141731
865.437	0.0143174
865.515	0.0144579
865.593	0.0143168
865.672	0.0144811
865.750	0.0145165
865.828	0.0145562
865.906	0.0147224
865.984	0.0146409
866.062	0.0149028
866.140	0.0148692
866.218	0.0150054
866.297	0.0151852
866.375	0.0152409
866.453	0.0152776
866.531	0.0154255
866.609	0.0154770
866.687	0.0156871
866.765	0.0156506
866.843	0.0157310
866.922	0.0157481
867.000	0.0157574
867.078	0.0159034
867.156	0.0157278
867.234	0.0158214
867.312	0.0158958
867.390	0.0158013
867.468	0.0154881
867.547	0.0153884
867.625	0.0153892
867.703	0.0152224
867.781	0.0150862
867.859	0.0150199
867.937	0.0150367
868.015	0.0148450
868.093	0.0147105
868.172	0.0145699
868.250	0.0145648
868.328	0.0145713
868.406	0.0144882
868.484	0.0143830
868.562	0.0143697
868.640	0.0144106
868.718	0.0143339
868.797	0.0144384
868.875	0.0142777
868.953	0.0143172
869.031	0.0144101
869.109	0.0142919
869.187	0.0143208
869.265	0.0145531
869.343	0.0144765
869.422	0.0144300
869.500	0.0144480
869.578	0.0143022
869.656	0.0144217
869.734	0.0143654
869.812	0.0142655
869.890	0.0143636
869.968	0.0144376
870.047	0.0143237
870.125	0.0144809
870.203	0.0142989
870.281	0.0143196
870.359	0.0145527
870.437	0.0144676
870.515	0.0145822
870.593	0.0145808
870.672	0.0146281
870.750	0.0148682
870.828	0.0149757
870.906	0.0149417
870.984	0.0150192
871.062	0.0151222
871.140	0.0150999
871.218	0.0153476
871.297	0.0153503
871.375	0.0153944
871.453	0.0155241
871.531	0.0154973
871.609	0.0155889
871.687	0.0155801
871.765	0.0154953
871.843	0.0155378
871.922	0.0156019
872.000	0.0154820
872.078	0.0155328
872.156	0.0154717
872.234	0.0153256
872.312	0.0153908
872.390	0.0152753
872.468	0.0151701
872.547	0.0152541
872.625	0.0150414
872.703	0.0149799
872.781	0.0148650
872.859	0.0148494
872.937	0.0148914
873.015	0.0147507
873.093	0.0147108
873.172	0.0146501
873.250	0.0145982
873.328	0.0144227
873.406	0.0144272
873.484	0.0144892
873.562	0.0144477
873.640	0.0144228
873.718	0.0143574
873.797	0.0143612
873.875	0.0143372
873.953	0.0144844
874.031	0.0145935
874.109	0.0144355
874.187	0.0143872
874.265	0.0143633
874.343	0.0144379
874.422	0.0144962
874.500	0.0145020
874.578	0.0143207
874.656	0.0144921
874.734	0.0146569
874.812	0.0145121
874.890	0.0145567
874.968	0.0145361
875.047	0.0146548
875.125	0.0147124
875.203	0.0147015
875.281	0.0147235
875.359	0.0147491
875.437	0.0146395
875.515	0.0147448
875.593	0.0148333
875.672	0.0147596
875.750	0.0148910
875.828	0.0150243
875.906	0.0149957
875.984	0.0149891
876.062	0.0151291
876.140	0.0151889
876.218	0.0151621
876.297	0.0150472
876.375	0.0152508
876.453	0.0153509
876.531	0.0151740
876.609	0.0152639
876.687	0.0152573
876.765	0.0153768
876.843	0.0154707
876.922	0.0153129
877.000	0.0153962
877.078	0.0152399
877.156	0.0153243
877.234	0.0151501
877.312	0.0152468
877.390	0.0152280
877.468	0.0150889
877.547	0.0151952
877.625	0.0152293
877.703	0.0151028
877.781	0.0151528
877.859	0.0150560
877.937	0.0148730
878.015	0.0150163
878.093	0.0147888
878.172	0.0147935
878.250	0.0149024
878.328	0.0147095
878.406	0.0146116
878.484	0.0147513
878.562	0.0147527
878.640	0.0147823
878.718	0.0147525
878.797	0.0147242
878.875	0.0146886
878.953	0.0148655
879.031	0.0148326
879.109	0.0147585
879.187	0.0147825
879.265	0.0146806
879.343	0.0147757
879.422	0.0147684
879.500	0.0146765
879.578	0.0146538
879.656	0.0145674
879.734	0.0146185
879.812	0.0145617
879.890	0.0146120
879.968	0.0146937
880.047	0.0143407
880.125	0.0143102
880.203	0.0144347
880.281	0.0143320
880.359	0.0143337
880.437	0.0144236
880.515	0.0144559
880.593	0.0143711
880.672	0.0145679
880.750	0.0145270
880.828	0.0145544
880.906	0.0146365
880.984	0.0146636
881.062	0.0147586
881.140	0.0148946
881.218	0.0150697
881.297	0.0149304
881.375	0.0149984
881.453	0.0151441
881.531	0.0152094
881.609	0.0154639
881.687	0.0155087
881.765	0.0155272
881.843	0.0153947
881.922	0.0154260
882.000	0.0155196
882.078	0.0154510
882.156	0.0153618
882.234	0.0155109
882.312	0.0154508
882.390	0.0154353
882.468	0.0154069
882.547	0.0153337
882.625	0.0152274
882.703	0.0152147
882.781	0.0151629
882.859	0.0152624
882.937	0.0150257
883.015	0.0151530
883.093	0.0149791
883.172	0.0149382
883.250	0.0147822
883.328	0.0147712
883.406	0.0148149
883.484	0.0145747
883.562	0.0144820
883.640	0.0144749
883.718	0.0145267
883.797	0.0145431
883.875	0.0143321
883.953	0.0144569
884.031	0.0143974
884.109	0.0144753
884.187	0.0145402
884.265	0.0144329
884.343	0.0144498
884.422	0.0143270
884.500	0.0145400
884.578	0.0145451
884.656	0.0145669
884.734	0.0145542
884.812	0.0144701
884.890	0.0145983
884.968	0.0147810
885.047	0.0148621
885.125	0.0147997
885.203	0.0148181
885.281	0.0147308
885.359	0.0148112
885.437	0.0148028
885.515	0.0148696
885.593	0.0148808
885.672	0.0149159
885.750	0.0148962
885.828	0.0149144
885.906	0.0150446
885.984	0.0150231
886.062	0.0150245
886.140	0.0151504
886.218	0.0151852
886.297	0.0152050
886.375	0.0152103
886.453	0.0152830
886.531	0.0153592
886.609	0.0153805
886.687	0.0152676
886.765	0.0153663
886.843	0.0154700
886.922	0.0154466
887.000	0.0153658
887.078	0.0153614
887.156	0.0151668
887.234	0.0153086
887.312	0.0150967
887.390	0.0152289
887.468	0.0150231
887.547	0.0150367
887.625	0.0149514
887.703	0.0147710
887.781	0.0147716
887.859	0.0147561
887.937	0.0147557
888.015	0.0145690
888.093	0.0144064
888.172	0.0142933
888.250	0.0144145
888.328	0.0143719
888.406	0.0143758
888.484	0.0142504
888.562	0.0139601
888.640	0.0142902
888.718	0.0142214
888.797	0.0143575
888.875	0.0141215
888.953	0.0142815
889.031	0.0143958
889.109	0.0143895
889.187	0.0145474
889.265	0.0144868
889.343	0.0144498
889.422	0.0145928
889.500	0.0146008
889.578	0.0146885
889.656	0.0147777
889.734	0.0147366
889.812	0.0148913
889.890	0.0149578
889.968	0.0148528
890.047	0.0149073
890.125	0.0150001
890.203	0.0149773
890.281	0.0149911
890.359	0.0149929
890.437	0.0150487
890.515	0.0151446
890.593	0.0151839
890.672	0.0151808
890.750	0.0151953
890.828	0.0151933
890.906	0.0152051
890.984	0.0153525
891.062	0.0153864
891.140	0.0152970
891.218	0.0153012
891.297	0.0153677
891.375	0.0153947
891.453	0.0152499
891.531	0.0152771
891.609	0.0152133
891.687	0.0151868
891.765	0.0151337
891.843	0.0150976
891.922	0.0151581
892.000	0.0151223
892.078	0.0151605
892.156	0.0148410
892.234	0.0148326
892.312	0.0148808
892.390	0.0147533
892.468	0.0145474
892.547	0.0145300
892.625	0.0145798
892.703	0.0143702
892.781	0.0144639
892.859	0.0143797
892.937	0.0144211
893.015	0.0143555
893.093	0.0142413
893.172	0.0141375
893.250	0.0143919
893.328	0.0142877
893.406	0.0142500
893.484	0.0144625
893.562	0.0143923
893.640	0.0144081
893.718	0.0145191
893.797	0.0143880
893.875	0.0145246
893.953	0.0143427
894.031	0.0147337
894.109	0.0147068
894.187	0.0147227
894.265	0.0148003
894.343	0.0148519
894.422	0.0149522
894.500	0.0150690
894.578	0.0149762
894.656	0.0150703
894.734	0.0151364
894.812	0.0148354
894.890	0.0150468
894.968	0.0152390
895.047	0.0151834
895.125	0.0151223
895.203	0.0150712
895.281	0.0150159
895.359	0.0152609
895.437	0.0151679
895.515	0.0152093
895.593	0.0149430
895.672	0.0150055
895.750	0.0149695
895.828	0.0149581
895.906	0.0149391
895.984	0.0149391
896.062	0.0149552
896.140	0.0149796
896.218	0.0150159
896.297	0.0149362
896.375	0.0148921
896.453	0.0149026
896.531	0.0148224
896.609	0.0149722
896.687	0.0149470
896.765	0.0150088
896.843	0.0147958
896.922	0.0148225
897.000	0.0147857
897.078	0.0148013
897.156	0.0149840
897.234	0.0148608
897.312	0.0149439
897.390	0.0148907
897.468	0.0146454
897.547	0.0148638
897.625	0.0147504
897.703	0.0147397
897.781	0.0146619
897.859	0.0146478
897.937	0.0146399
898.015	0.0146771
898.093	0.0146036
898.172	0.0146300
898.250	0.0145975
898.328	0.0145712
898.406	0.0143643
898.484	0.0143820
898.562	0.0144791
898.640	0.0145006
898.718	0.0145921
898.797	0.0145525
898.875	0.0146230
898.953	0.0146658
899.031	0.0147851
899.109	0.0148034
899.187	0.0149556
899.265	0.0148998
899.343	0.0148480
899.422	0.0150095
899.500	0.0152875
899.578	0.0151807
899.656	0.0151868
899.734	0.0151646
899.812	0.0151450
899.890	0.0152055
899.968	0.0151945
900.047	0.0151068
900.125	0.0150914
900.203	0.0150341
900.281	0.0149416
900.359	0.0151019
900.437	0.0147809
900.515	0.0147755
900.593	0.0147302
900.672	0.0146860
900.750	0.0147288
900.828	0.0146059
900.906	0.0145065
900.984	0.0145047
901.062	0.0145814
901.140	0.0146215
901.218	0.0147380
901.297	0.0147018
901.375	0.0146698
901.453	0.0147012
901.531	0.0147595
901.609	0.0149442
901.687	0.0149831
901.765	0.0150193
901.843	0.0149419
901.922	0.0150460
902.000	0.0151561
902.078	0.0151781
902.156	0.0151298
902.234	0.0151136
902.312	0.0150521
902.390	0.0151957
902.468	0.0152589
902.547	0.0152404
902.625	0.0149805
902.703	0.0149966
902.781	0.0149167
902.859	0.0149078
902.937	0.0148604
903.015	0.0147994
903.093	0.0147421
903.172	0.0147965
903.250	0.0147503
903.328	0.0148276
903.406	0.0147769
903.484	0.0149467
903.562	0.0146762
903.640	0.0146392
903.718	0.0149192
903.797	0.0148618
903.875	0.0148106
903.953	0.0149137
904.031	0.0149109
904.109	0.0150883
904.187	0.0148748
904.265	0.0150393
904.343	0.0150837
904.422	0.0149828
904.500	0.0149683
904.578	0.0150435
904.656	0.0150973
904.734	0.0150236
904.812	0.0149490
904.890	0.0149971
904.968	0.0148338
905.047	0.0149343
905.125	0.0147621
905.203	0.0147203
905.281	0.0149779
905.359	0.0146416
905.437	0.0147404
905.515	0.0146306
905.593	0.0145689
905.672	0.0146373
905.750	0.0145914
905.828	0.0145844
905.906	0.0146726
905.984	0.0146086
906.062	0.0146198
906.140	0.0146211
906.218	0.0147364
906.297	0.0147061
906.375	0.0147469
906.453	0.0148875
906.531	0.0149141
906.609	0.0148845
906.687	0.0149601
906.765	0.0148534
906.843	0.0148860
906.922	0.0149910
907.000	0.0150388
907.078	0.0150601
907.156	0.0151381
907.234	0.0150726
907.312	0.0152124
907.390	0.0151918
907.468	0.0150650
907.547	0.0153094
907.625	0.0150813
907.703	0.0151323
907.781	0.0152010
907.859	0.0151892
907.937	0.0152142
908.015	0.0151050
908.093	0.0150240
908.172	0.0150848
908.250	0.0150498
908.328	0.0149962
908.406	0.0148765
908.484	0.0150739
908.562	0.0150297
908.640	0.0149321
908.718	0.0148278
908.797	0.0150123
908.875	0.0148710
908.953	0.0148494
909.031	0.0148064
909.109	0.0147675
909.187	0.0147768
909.265	0.0147820
909.343	0.0147831
909.422	0.0148215
909.500	0.0147535
909.578	0.0147294
909.656	0.0147053
909.734	0.0146695
909.812	0.0146624
909.890	0.0147678
909.968	0.0147684
910.047	0.0145702
910.125	0.0145952
910.203	0.0146966
910.281	0.0146331
910.359	0.0147865
910.437	0.0148206
910.515	0.0147173
910.593	0.0147280
910.672	0.0146379
910.750	0.0146228
910.828	0.0147155
910.906	0.0147927
910.984	0.0146789
911.062	0.0146339
911.140	0.0147543
911.218	0.0146597
911.297	0.0148796
911.375	0.0148589
911.453	0.0147796
911.531	0.0148624
911.609	0.0148489
911.687	0.0149280
911.765	0.0149379
911.843	0.0149269
911.922	0.0149418
912.000	0.0151781
912.078	0.0150073
912.156	0.0149332
912.234	0.0148937
912.312	0.0149267
912.390	0.0149257
912.468	0.0151691
912.547	0.0150018
912.625	0.0150459
912.703	0.0149950
912.781	0.0151649
912.859	0.0151646
912.937	0.0151991
913.015	0.0151141
913.093	0.0150886
913.172	0.0150609
913.250	0.0150578
913.328	0.0149870
913.406	0.0150653
913.484	0.0150201
913.562	0.0148870
913.640	0.0148598
913.718	0.0149128
913.797	0.0148583
913.875	0.0147980
913.953	0.0147814
914.031	0.0146938
914.109	0.0146326
914.187	0.0147532
914.265	0.0147649
914.343	0.0147103
914.422	0.0148605
914.500	0.0145617
914.578	0.0144640
914.656	0.0145377
914.734	0.0147472
914.812	0.0146820
914.890	0.0147050
914.968	0.0145578
915.047	0.0145331
915.125	0.0146212
915.203	0.0148302
915.281	0.0147530
915.359	0.0146896
915.437	0.0144875
915.515	0.0147710
915.593	0.0146644
915.672	0.0147131
915.750	0.0147565
915.828	0.0147624
915.906	0.0144932
915.984	0.0145501
916.062	0.0147102
916.140	0.0147874
916.218	0.0147317
916.297	0.0148137
916.375	0.0147493
916.453	0.0148931
916.531	0.0147932
916.609	0.0147536
916.687	0.0149739
916.765	0.0149100
916.843	0.0148737
916.922	0.0147987
917.000	0.0149545
917.078	0.0148758
917.156	0.0149197
917.234	0.0148977
917.312	0.0149990
917.390	0.0149387
917.468	0.0147696
917.547	0.0150113
917.625	0.0148792
917.703	0.0148841
917.781	0.0149342
917.859	0.0150040
917.937	0.0149864
918.015	0.0150100
918.093	0.0150185
918.172	0.0150011
918.250	0.0150784
918.328	0.0149718
918.406	0.0149460
918.484	0.0149991
918.562	0.0148633
918.640	0.0148808
918.718	0.0150692
918.797	0.0150380
918.875	0.0149001
918.953	0.0150011
919.031	0.0148956
919.109	0.0147932
919.187	0.0149219
919.265	0.0149828
919.343	0.0150147
919.422	0.0147945
919.500	0.0146564
919.578	0.0147243
919.656	0.0147765
919.734	0.0146674
919.812	0.0146626
919.890	0.0147099
