05/08/2022	19:30:14	Ver.	4.1	UNKNOWN
Optical Delay	649.996338	Delta X		0.078125	Sweeps	1	Scan Rate	0/0
Coordinates	Axis 1	NaN	Axis 2	NaN	Axis 3	NaN	Axis 4	NaN	Axis 5	NaN	Axis 6	0.000000
TX Power	0.000000	RX Power	0.000000

649.996	0.0142505
650.074	0.0141642
650.153	0.0141611
650.231	0.0142548
650.309	0.0141548
650.387	0.0142145
650.465	0.0141750
650.543	0.0142768
650.621	0.0141904
650.699	0.0142693
650.778	0.0142463
650.856	0.0140272
650.934	0.0142145
651.012	0.0141211
651.090	0.0141337
651.168	0.0141161
651.246	0.0142109
651.324	0.0141980
651.403	0.0142155
651.481	0.0142806
651.559	0.0141878
651.637	0.0142224
651.715	0.0142886
651.793	0.0141776
651.871	0.0142184
651.949	0.0142868
652.028	0.0142198
652.106	0.0142788
652.184	0.0140942
652.262	0.0141825
652.340	0.0142831
652.418	0.0141161
652.496	0.0142753
652.574	0.0140958
652.653	0.0143050
652.731	0.0144415
652.809	0.0140478
652.887	0.0141233
652.965	0.0142953
653.043	0.0142628
653.121	0.0143084
653.199	0.0142080
653.278	0.0142539
653.356	0.0141788
653.434	0.0140987
653.512	0.0142349
653.590	0.0142074
653.668	0.0142187
653.746	0.0141259
653.824	0.0141988
653.903	0.0143008
653.981	0.0140253
654.059	0.0140678
654.137	0.0142319
654.215	0.0141283
654.293	0.0142406
654.371	0.0142972
654.449	0.0141960
654.528	0.0141266
654.606	0.0141901
654.684	0.0142974
654.762	0.0142725
654.840	0.0141779
654.918	0.0141866
654.996	0.0140153
655.074	0.0141822
655.153	0.0141579
655.231	0.0141896
655.309	0.0141344
655.387	0.0141983
655.465	0.0141307
655.543	0.0143867
655.621	0.0143223
655.699	0.0141801
655.778	0.0141808
655.856	0.0141119
655.934	0.0142331
656.012	0.0141991
656.090	0.0142343
656.168	0.0142413
656.246	0.0142357
656.324	0.0140868
656.403	0.0142564
656.481	0.0142078
656.559	0.0141129
656.637	0.0142463
656.715	0.0141230
656.793	0.0141476
656.871	0.0142536
656.949	0.0141569
657.028	0.0142502
657.106	0.0141541
657.184	0.0141348
657.262	0.0141862
657.340	0.0143037
657.418	0.0142266
657.496	0.0142831
657.574	0.0142565
657.653	0.0141969
657.731	0.0140419
657.809	0.0141512
657.887	0.0140490
657.965	0.0142664
658.043	0.0143442
658.121	0.0140726
658.199	0.0140741
658.278	0.0141579
658.356	0.0143333
658.434	0.0141995
658.512	0.0141803
658.590	0.0142532
658.668	0.0142414
658.746	0.0142089
658.824	0.0142377
658.903	0.0141339
658.981	0.0140817
659.059	0.0140750
659.137	0.0141698
659.215	0.0143313
659.293	0.0141569
659.371	0.0142844
659.449	0.0141844
659.528	0.0142821
659.606	0.0142955
659.684	0.0140659
659.762	0.0141649
659.840	0.0142728
659.918	0.0141975
659.996	0.0140836
660.074	0.0142218
660.153	0.0142983
660.231	0.0142441
660.309	0.0141773
660.387	0.0142617
660.465	0.0142346
660.543	0.0141865
660.621	0.0142117
660.699	0.0141716
660.778	0.0142358
660.856	0.0143233
660.934	0.0143349
661.012	0.0143168
661.090	0.0142360
661.168	0.0142206
661.246	0.0142542
661.324	0.0142132
661.403	0.0141766
661.481	0.0142243
661.559	0.0142329
661.637	0.0140498
661.715	0.0142458
661.793	0.0142739
661.871	0.0141526
661.949	0.0141266
662.028	0.0142615
662.106	0.0142278
662.184	0.0141768
662.262	0.0141555
662.340	0.0141671
662.418	0.0142669
662.496	0.0141866
662.574	0.0141850
662.653	0.0142638
662.731	0.0143494
662.809	0.0141268
662.887	0.0142221
662.965	0.0141999
663.043	0.0142046
663.121	0.0142191
663.199	0.0142166
663.278	0.0142876
663.356	0.0142270
663.434	0.0142059
663.512	0.0142019
663.590	0.0143414
663.668	0.0143323
663.746	0.0142460
663.824	0.0142307
663.903	0.0142728
663.981	0.0143739
664.059	0.0143011
664.137	0.0141381
664.215	0.0143319
664.293	0.0142357
664.371	0.0142799
664.449	0.0142886
664.528	0.0143553
664.606	0.0143239
664.684	0.0142675
664.762	0.0143249
664.840	0.0141877
664.918	0.0142046
664.996	0.0143342
665.074	0.0141040
665.153	0.0143239
665.231	0.0143217
665.309	0.0143044
665.387	0.0143107
665.465	0.0143296
665.543	0.0142542
665.621	0.0143513
665.699	0.0141459
665.778	0.0141547
665.856	0.0143356
665.934	0.0142491
666.012	0.0142365
666.090	0.0143513
666.168	0.0141958
666.246	0.0141876
666.324	0.0140868
666.403	0.0141409
666.481	0.0142464
666.559	0.0142791
666.637	0.0141445
666.715	0.0142112
666.793	0.0141721
666.871	0.0142632
666.949	0.0142085
667.028	0.0142735
667.106	0.0142205
667.184	0.0141223
667.262	0.0141378
667.340	0.0141685
667.418	0.0142072
667.496	0.0142065
667.574	0.0141347
667.653	0.0141240
667.731	0.0140478
667.809	0.0142338
667.887	0.0142062
667.965	0.0141267
668.043	0.0141018
668.121	0.0141556
668.199	0.0140670
668.278	0.0140511
668.356	0.0142246
668.434	0.0141125
668.512	0.0140995
668.590	0.0140189
668.668	0.0139399
668.746	0.0141431
668.824	0.0140059
668.903	0.0140261
668.981	0.0139947
669.059	0.0139586
669.137	0.0140126
669.215	0.0141669
669.293	0.0139838
669.371	0.0140098
669.449	0.0139965
669.528	0.0141098
669.606	0.0140356
669.684	0.0139423
669.762	0.0140005
669.840	0.0140597
669.918	0.0140854
669.996	0.0140887
670.074	0.0140621
670.153	0.0140140
670.231	0.0140865
670.309	0.0140388
670.387	0.0141016
670.465	0.0140531
670.543	0.0140938
670.621	0.0140112
670.699	0.0141443
670.778	0.0141055
670.856	0.0141275
670.934	0.0140165
671.012	0.0141120
671.090	0.0140715
671.168	0.0139201
671.246	0.0140245
671.324	0.0141267
671.403	0.0141430
671.481	0.0141180
671.559	0.0141509
671.637	0.0139657
671.715	0.0139321
671.793	0.0138464
671.871	0.0141439
671.949	0.0140446
672.028	0.0141203
672.106	0.0140020
672.184	0.0140993
672.262	0.0141045
672.340	0.0140672
672.418	0.0142004
672.496	0.0141644
672.574	0.0141482
672.653	0.0140717
672.731	0.0140658
672.809	0.0140229
672.887	0.0141959
672.965	0.0141169
673.043	0.0141169
673.121	0.0142595
673.199	0.0142799
673.278	0.0142213
673.356	0.0142408
673.434	0.0141945
673.512	0.0142549
673.590	0.0143170
673.668	0.0144721
673.746	0.0142067
673.824	0.0142663
673.903	0.0144198
673.981	0.0144956
674.059	0.0143744
674.137	0.0144186
674.215	0.0143730
674.293	0.0144016
674.371	0.0144200
674.449	0.0144285
674.528	0.0144719
674.606	0.0145033
674.684	0.0143958
674.762	0.0143999
674.840	0.0144766
674.918	0.0144655
674.996	0.0143881
675.074	0.0145148
675.153	0.0145465
675.231	0.0144791
675.309	0.0144936
675.387	0.0145658
675.465	0.0145307
675.543	0.0144697
675.621	0.0144069
675.699	0.0144284
675.778	0.0144483
675.856	0.0145383
675.934	0.0144488
676.012	0.0144180
676.090	0.0144466
676.168	0.0144238
676.246	0.0145524
676.324	0.0144028
676.403	0.0143297
676.481	0.0142542
676.559	0.0142643
676.637	0.0145639
676.715	0.0144159
676.793	0.0143811
676.871	0.0143980
676.949	0.0144170
677.028	0.0144373
677.106	0.0143530
677.184	0.0143278
677.262	0.0144244
677.340	0.0143177
677.418	0.0144083
677.496	0.0145225
677.574	0.0144190
677.653	0.0143372
677.731	0.0144812
677.809	0.0143517
677.887	0.0143650
677.965	0.0144115
678.043	0.0143948
678.121	0.0144061
678.199	0.0142601
678.278	0.0144199
678.356	0.0145214
678.434	0.0143779
678.512	0.0143535
678.590	0.0144205
678.668	0.0142490
678.746	0.0142895
678.824	0.0143433
678.903	0.0143312
678.981	0.0142730
679.059	0.0142886
679.137	0.0143787
679.215	0.0142113
679.293	0.0142336
679.371	0.0142242
679.449	0.0142761
679.528	0.0143659
679.606	0.0143086
679.684	0.0142179
679.762	0.0141795
679.840	0.0141869
679.918	0.0142292
679.996	0.0142175
680.074	0.0141026
680.153	0.0140982
680.231	0.0142142
680.309	0.0140795
680.387	0.0141051
680.465	0.0141552
680.543	0.0140254
680.621	0.0141181
680.699	0.0142472
680.778	0.0140760
680.856	0.0142121
680.934	0.0141006
681.012	0.0140704
681.090	0.0141941
681.168	0.0141856
681.246	0.0140395
681.324	0.0141816
681.403	0.0140630
681.481	0.0142236
681.559	0.0141317
681.637	0.0142123
681.715	0.0139307
681.793	0.0141004
681.871	0.0141581
681.949	0.0140690
682.028	0.0141164
682.106	0.0142084
682.184	0.0141717
682.262	0.0141512
682.340	0.0142312
682.418	0.0142196
682.496	0.0142860
682.574	0.0140208
682.653	0.0140685
682.731	0.0143587
682.809	0.0141000
682.887	0.0141467
682.965	0.0141594
683.043	0.0141103
683.121	0.0142087
683.199	0.0142042
683.278	0.0142056
683.356	0.0141329
683.434	0.0141617
683.512	0.0142128
683.590	0.0143146
683.668	0.0141897
683.746	0.0141643
683.824	0.0141517
683.903	0.0140991
683.981	0.0141358
684.059	0.0140958
684.137	0.0140885
684.215	0.0141589
684.293	0.0141895
684.371	0.0141974
684.449	0.0142397
684.528	0.0143395
684.606	0.0142857
684.684	0.0142501
684.762	0.0142039
684.840	0.0140945
684.918	0.0142381
684.996	0.0142085
685.074	0.0143405
685.153	0.0141389
685.231	0.0143108
685.309	0.0142329
685.387	0.0143577
685.465	0.0142010
685.543	0.0142188
685.621	0.0143862
685.699	0.0141982
685.778	0.0143134
685.856	0.0141206
685.934	0.0142583
686.012	0.0142387
686.090	0.0142589
686.168	0.0142606
686.246	0.0143050
686.324	0.0143885
686.403	0.0143036
686.481	0.0141541
686.559	0.0141365
686.637	0.0141835
686.715	0.0142772
686.793	0.0142108
686.871	0.0142217
686.949	0.0142895
687.028	0.0142564
687.106	0.0143216
687.184	0.0142263
687.262	0.0141298
687.340	0.0142178
687.418	0.0142168
687.496	0.0142597
687.574	0.0143517
687.653	0.0142583
687.731	0.0143214
687.809	0.0143272
687.887	0.0141529
687.965	0.0143739
688.043	0.0142920
688.121	0.0142343
688.199	0.0143958
688.278	0.0143284
688.356	0.0142149
688.434	0.0143929
688.512	0.0142014
688.590	0.0141771
688.668	0.0142017
688.746	0.0141477
688.824	0.0143327
688.903	0.0143020
688.981	0.0143480
689.059	0.0143113
689.137	0.0141947
689.215	0.0141291
689.293	0.0142731
689.371	0.0142224
689.449	0.0141078
689.528	0.0142033
689.606	0.0141302
689.684	0.0140798
689.762	0.0141422
689.840	0.0142561
689.918	0.0143632
689.996	0.0142794
690.074	0.0143242
690.153	0.0142229
690.231	0.0142447
690.309	0.0143279
690.387	0.0143787
690.465	0.0144241
690.543	0.0143128
690.621	0.0143510
690.699	0.0143137
690.778	0.0143308
690.856	0.0144466
690.934	0.0143584
691.012	0.0143700
691.090	0.0142581
691.168	0.0141827
691.246	0.0140594
691.324	0.0140678
691.403	0.0141104
691.481	0.0141073
691.559	0.0141957
691.637	0.0140347
691.715	0.0141405
691.793	0.0141854
691.871	0.0141755
691.949	0.0140734
692.028	0.0141373
692.106	0.0142465
692.184	0.0140785
692.262	0.0140736
692.340	0.0141218
692.418	0.0142911
692.496	0.0141331
692.574	0.0142370
692.653	0.0140814
692.731	0.0141399
692.809	0.0141373
692.887	0.0142990
692.965	0.0141936
693.043	0.0141228
693.121	0.0141130
693.199	0.0141077
693.278	0.0141512
693.356	0.0140283
693.434	0.0139818
693.512	0.0140407
693.590	0.0138884
693.668	0.0141827
693.746	0.0142347
693.824	0.0141928
693.903	0.0141688
693.981	0.0142455
694.059	0.0142814
694.137	0.0143915
694.215	0.0144855
694.293	0.0143656
694.371	0.0144915
694.449	0.0145548
694.528	0.0144437
694.606	0.0144607
694.684	0.0146098
694.762	0.0144386
694.840	0.0143623
694.918	0.0142613
694.996	0.0142424
695.074	0.0144765
695.153	0.0143500
695.231	0.0143018
695.309	0.0141055
695.387	0.0142067
695.465	0.0140750
695.543	0.0140428
695.621	0.0140866
695.699	0.0140652
695.778	0.0139437
695.856	0.0139463
695.934	0.0140022
696.012	0.0139910
696.090	0.0141040
696.168	0.0139153
696.246	0.0138867
696.324	0.0140226
696.403	0.0138383
696.481	0.0138118
696.559	0.0138418
696.637	0.0139650
696.715	0.0138197
696.793	0.0138398
696.871	0.0138506
696.949	0.0137745
697.028	0.0139176
697.106	0.0140154
697.184	0.0138058
697.262	0.0139622
697.340	0.0140653
697.418	0.0140930
697.496	0.0141539
697.574	0.0142625
697.653	0.0142458
697.731	0.0142628
697.809	0.0143489
697.887	0.0144485
697.965	0.0144519
698.043	0.0144169
698.121	0.0143803
698.199	0.0145423
698.278	0.0145586
698.356	0.0144863
698.434	0.0143511
698.512	0.0143951
698.590	0.0143614
698.668	0.0143988
698.746	0.0142113
698.824	0.0142306
698.903	0.0142728
698.981	0.0142654
699.059	0.0141180
699.137	0.0141769
699.215	0.0139879
699.293	0.0142036
699.371	0.0142062
699.449	0.0141482
699.528	0.0140317
699.606	0.0141930
699.684	0.0139698
699.762	0.0141550
699.840	0.0140925
699.918	0.0141722
699.996	0.0140703
700.074	0.0141414
700.153	0.0139516
700.231	0.0140029
700.309	0.0139868
700.387	0.0140443
700.465	0.0140820
700.543	0.0140868
700.621	0.0142181
700.699	0.0142210
700.778	0.0141601
700.856	0.0139944
700.934	0.0141279
701.012	0.0142616
701.090	0.0143871
701.168	0.0143325
701.246	0.0145935
701.324	0.0144781
701.403	0.0145007
701.481	0.0145102
701.559	0.0144643
701.637	0.0143933
701.715	0.0144894
701.793	0.0146731
701.871	0.0145516
701.949	0.0144675
702.028	0.0145754
702.106	0.0146393
702.184	0.0145791
702.262	0.0144782
702.340	0.0145905
702.418	0.0144846
702.496	0.0144781
702.574	0.0143755
702.653	0.0145470
702.731	0.0144080
702.809	0.0144383
702.887	0.0144405
702.965	0.0143889
703.043	0.0144209
703.121	0.0144746
703.199	0.0144587
703.278	0.0145231
703.356	0.0143467
703.434	0.0143448
703.512	0.0144102
703.590	0.0144303
703.668	0.0143700
703.746	0.0144090
703.824	0.0144097
703.903	0.0143179
703.981	0.0142580
704.059	0.0142872
704.137	0.0143750
704.215	0.0143096
704.293	0.0140786
704.371	0.0144051
704.449	0.0142254
704.528	0.0141233
704.606	0.0142101
704.684	0.0141055
704.762	0.0140652
704.840	0.0141387
704.918	0.0141722
704.996	0.0142396
705.074	0.0142236
705.153	0.0141991
705.231	0.0141325
705.309	0.0143423
705.387	0.0143192
705.465	0.0143292
705.543	0.0143484
705.621	0.0143821
705.699	0.0143229
705.778	0.0142525
705.856	0.0142539
705.934	0.0142312
706.012	0.0142089
706.090	0.0141537
706.168	0.0141354
706.246	0.0141341
706.324	0.0140734
706.403	0.0139816
706.481	0.0138947
706.559	0.0138644
706.637	0.0139589
706.715	0.0140997
706.793	0.0139779
706.871	0.0139678
706.949	0.0138351
707.028	0.0140114
707.106	0.0139916
707.184	0.0139135
707.262	0.0139127
707.340	0.0139971
707.418	0.0138871
707.496	0.0138847
707.574	0.0140234
707.653	0.0139539
707.731	0.0139824
707.809	0.0138902
707.887	0.0139015
707.965	0.0140279
708.043	0.0139543
708.121	0.0140575
708.199	0.0139296
708.278	0.0140593
708.356	0.0140193
708.434	0.0140276
708.512	0.0139155
708.590	0.0140950
708.668	0.0141685
708.746	0.0140859
708.824	0.0142513
708.903	0.0141537
708.981	0.0142799
709.059	0.0141422
709.137	0.0143452
709.215	0.0141186
709.293	0.0142261
709.371	0.0142505
709.449	0.0143415
709.528	0.0142408
709.606	0.0143285
709.684	0.0142491
709.762	0.0143372
709.840	0.0144234
709.918	0.0143280
709.996	0.0142604
710.074	0.0143053
710.153	0.0143156
710.231	0.0142888
710.309	0.0143736
710.387	0.0144618
710.465	0.0142520
710.543	0.0142613
710.621	0.0142892
710.699	0.0142812
710.778	0.0142556
710.856	0.0143349
710.934	0.0143850
711.012	0.0144289
711.090	0.0141545
711.168	0.0141044
711.246	0.0142142
711.324	0.0142034
711.403	0.0142466
711.481	0.0141203
711.559	0.0141559
711.637	0.0142844
711.715	0.0142011
711.793	0.0142112
711.871	0.0141500
711.949	0.0142228
712.028	0.0142464
712.106	0.0143079
712.184	0.0143291
712.262	0.0142675
712.340	0.0142920
712.418	0.0142823
712.496	0.0142640
712.574	0.0143040
712.653	0.0142835
712.731	0.0143114
712.809	0.0141545
712.887	0.0141264
712.965	0.0142994
713.043	0.0142465
713.121	0.0143392
713.199	0.0142691
713.278	0.0143123
713.356	0.0141971
713.434	0.0141711
713.512	0.0141814
713.590	0.0141481
713.668	0.0140730
713.746	0.0141366
713.824	0.0142260
713.903	0.0140317
713.981	0.0140320
714.059	0.0140634
714.137	0.0140105
714.215	0.0142310
714.293	0.0141537
714.371	0.0141392
714.449	0.0140666
714.528	0.0140588
714.606	0.0140546
714.684	0.0142474
714.762	0.0140878
714.840	0.0140591
714.918	0.0141849
714.996	0.0141980
715.074	0.0142554
715.153	0.0143159
715.231	0.0142452
715.309	0.0142971
715.387	0.0142217
715.465	0.0141704
715.543	0.0143593
715.621	0.0143090
715.699	0.0142640
715.778	0.0142135
715.856	0.0142628
715.934	0.0142686
716.012	0.0140668
716.090	0.0142519
716.168	0.0142261
716.246	0.0141757
716.324	0.0143789
716.403	0.0142692
716.481	0.0142938
716.559	0.0141925
716.637	0.0142098
716.715	0.0142140
716.793	0.0141585
716.871	0.0142728
716.949	0.0141988
717.028	0.0142113
717.106	0.0142026
717.184	0.0141437
717.262	0.0141184
717.340	0.0142365
717.418	0.0141646
717.496	0.0142605
717.574	0.0142244
717.653	0.0142453
717.731	0.0143031
717.809	0.0141351
717.887	0.0143186
717.965	0.0142365
718.043	0.0141051
718.121	0.0142548
718.199	0.0141166
718.278	0.0141008
718.356	0.0142049
718.434	0.0142269
718.512	0.0140623
718.590	0.0140154
718.668	0.0140733
718.746	0.0141101
718.824	0.0140455
718.903	0.0140775
718.981	0.0141940
719.059	0.0141258
719.137	0.0140537
719.215	0.0141700
719.293	0.0140579
719.371	0.0141229
719.449	0.0141408
719.528	0.0141092
719.606	0.0141248
719.684	0.0142513
719.762	0.0141704
719.840	0.0139789
719.918	0.0142348
719.996	0.0142009
720.074	0.0142222
720.153	0.0142018
720.231	0.0143283
720.309	0.0142300
720.387	0.0141998
720.465	0.0141427
720.543	0.0143488
720.621	0.0142384
720.699	0.0141812
720.778	0.0143430
720.856	0.0141365
720.934	0.0141553
721.012	0.0143410
721.090	0.0142710
721.168	0.0141357
721.246	0.0141537
721.324	0.0144228
721.403	0.0143478
721.481	0.0140834
721.559	0.0140678
721.637	0.0142251
721.715	0.0142050
721.793	0.0141776
721.871	0.0141479
721.949	0.0140489
722.028	0.0140604
722.106	0.0141491
722.184	0.0140638
722.262	0.0142169
722.340	0.0141224
722.418	0.0142023
722.496	0.0141411
722.574	0.0141792
722.653	0.0140511
722.731	0.0141608
722.809	0.0142290
722.887	0.0140881
722.965	0.0140907
723.043	0.0141777
723.121	0.0141996
723.199	0.0142715
723.278	0.0142172
723.356	0.0140768
723.434	0.0141682
723.512	0.0141814
723.590	0.0142509
723.668	0.0141837
723.746	0.0141562
723.824	0.0141022
723.903	0.0141932
723.981	0.0142462
724.059	0.0141456
724.137	0.0141931
724.215	0.0142269
724.293	0.0142532
724.371	0.0141959
724.449	0.0142220
724.528	0.0142932
724.606	0.0141991
724.684	0.0140937
724.762	0.0142719
724.840	0.0143832
724.918	0.0142887
724.996	0.0141972
725.074	0.0141686
725.153	0.0142772
725.231	0.0143492
725.309	0.0142391
725.387	0.0141276
725.465	0.0143494
725.543	0.0144767
725.621	0.0143502
725.699	0.0142737
725.778	0.0142211
725.856	0.0143204
725.934	0.0143786
726.012	0.0144109
726.090	0.0142811
726.168	0.0143494
726.246	0.0143002
726.324	0.0143403
726.403	0.0142931
726.481	0.0143284
726.559	0.0143320
726.637	0.0143442
726.715	0.0142110
726.793	0.0142542
726.871	0.0141227
726.949	0.0141264
727.028	0.0142332
727.106	0.0142204
727.184	0.0141797
727.262	0.0143272
727.340	0.0142921
727.418	0.0143185
727.496	0.0142397
727.574	0.0143191
727.653	0.0142203
727.731	0.0142185
727.809	0.0142692
727.887	0.0142004
727.965	0.0141402
728.043	0.0143237
728.121	0.0142204
728.199	0.0142268
728.278	0.0141006
728.356	0.0141126
728.434	0.0142554
728.512	0.0141195
728.590	0.0141867
728.668	0.0142185
728.746	0.0141330
728.824	0.0141217
728.903	0.0140907
728.981	0.0139816
729.059	0.0141700
729.137	0.0142975
729.215	0.0142683
729.293	0.0142402
729.371	0.0141911
729.449	0.0141830
729.528	0.0141895
729.606	0.0140387
729.684	0.0140380
729.762	0.0142234
729.840	0.0140446
729.918	0.0141362
729.996	0.0139971
730.074	0.0141970
730.153	0.0140399
730.231	0.0141943
730.309	0.0140231
730.387	0.0141077
730.465	0.0141488
730.543	0.0142294
730.621	0.0141946
730.699	0.0140151
730.778	0.0141290
730.856	0.0141788
730.934	0.0141293
731.012	0.0141627
731.090	0.0142672
731.168	0.0142040
731.246	0.0142077
731.324	0.0144006
731.403	0.0143176
731.481	0.0143183
731.559	0.0142575
731.637	0.0143076
731.715	0.0142948
731.793	0.0142081
731.871	0.0141766
731.949	0.0142459
732.028	0.0141315
732.106	0.0141577
732.184	0.0142773
732.262	0.0142070
732.340	0.0140591
732.418	0.0142318
732.496	0.0140677
732.574	0.0140741
732.653	0.0141230
732.731	0.0141828
732.809	0.0141221
732.887	0.0141628
732.965	0.0142066
733.043	0.0140980
733.121	0.0143602
733.199	0.0141056
733.278	0.0141655
733.356	0.0141513
733.434	0.0142279
733.512	0.0142094
733.590	0.0140714
733.668	0.0140827
733.746	0.0142866
733.824	0.0142806
733.903	0.0141101
733.981	0.0140674
734.059	0.0141805
734.137	0.0142573
734.215	0.0140603
734.293	0.0140864
734.371	0.0140368
734.449	0.0140263
734.528	0.0141979
734.606	0.0141747
734.684	0.0141516
734.762	0.0140614
734.840	0.0141521
734.918	0.0140977
734.996	0.0141817
735.074	0.0141663
735.153	0.0143092
735.231	0.0142123
735.309	0.0142730
735.387	0.0142333
735.465	0.0142537
735.543	0.0143141
735.621	0.0142665
735.699	0.0142957
735.778	0.0143419
735.856	0.0142973
735.934	0.0142563
736.012	0.0143240
736.090	0.0144063
736.168	0.0143592
736.246	0.0142574
736.324	0.0143626
736.403	0.0142913
736.481	0.0143991
736.559	0.0142332
736.637	0.0144427
736.715	0.0143959
736.793	0.0142912
736.871	0.0143428
736.949	0.0142159
737.028	0.0142503
737.106	0.0143182
737.184	0.0142149
737.262	0.0142172
737.340	0.0141301
737.418	0.0140678
737.496	0.0141853
737.574	0.0143220
737.653	0.0141580
737.731	0.0142239
737.809	0.0141767
737.887	0.0141952
737.965	0.0142008
738.043	0.0141505
738.121	0.0141787
738.199	0.0141007
738.278	0.0140711
738.356	0.0141759
738.434	0.0142168
738.512	0.0140747
738.590	0.0141383
738.668	0.0140978
738.746	0.0140437
738.824	0.0141664
738.903	0.0141512
738.981	0.0141164
739.059	0.0141900
739.137	0.0141245
739.215	0.0141936
739.293	0.0141423
739.371	0.0142150
739.449	0.0140350
739.528	0.0140923
739.606	0.0141356
739.684	0.0141113
739.762	0.0141161
739.840	0.0141199
739.918	0.0142090
739.996	0.0141193
740.074	0.0140720
740.153	0.0140941
740.231	0.0141033
740.309	0.0141798
740.387	0.0140778
740.465	0.0141767
740.543	0.0140702
740.621	0.0140317
740.699	0.0142352
740.778	0.0140951
740.856	0.0143315
740.934	0.0141465
741.012	0.0141375
741.090	0.0140614
741.168	0.0141145
741.246	0.0140196
741.324	0.0140446
741.403	0.0141949
741.481	0.0140714
741.559	0.0141525
741.637	0.0141225
741.715	0.0141416
741.793	0.0141037
741.871	0.0140736
741.949	0.0140172
742.028	0.0141999
742.106	0.0142486
742.184	0.0141242
742.262	0.0142788
742.340	0.0143529
742.418	0.0142444
742.496	0.0142326
742.574	0.0141981
742.653	0.0143517
742.731	0.0142382
742.809	0.0143797
742.887	0.0142860
742.965	0.0142290
743.043	0.0142703
743.121	0.0143159
743.199	0.0143234
743.278	0.0142314
743.356	0.0143630
743.434	0.0142620
743.512	0.0141592
743.590	0.0144313
743.668	0.0143691
743.746	0.0143427
743.824	0.0142611
743.903	0.0142986
743.981	0.0142510
744.059	0.0141769
744.137	0.0142415
744.215	0.0142753
744.293	0.0143228
744.371	0.0142888
744.449	0.0142175
744.528	0.0142525
744.606	0.0141434
744.684	0.0142111
744.762	0.0141600
744.840	0.0141859
744.918	0.0142406
744.996	0.0143143
745.074	0.0142041
745.153	0.0141348
745.231	0.0142008
745.309	0.0141789
745.387	0.0142149
745.465	0.0141434
745.543	0.0142167
745.621	0.0140334
745.699	0.0140950
745.778	0.0140878
745.856	0.0142293
745.934	0.0141344
746.012	0.0141948
746.090	0.0142818
746.168	0.0141691
746.246	0.0140490
746.324	0.0141537
746.403	0.0142858
746.481	0.0142812
746.559	0.0142238
746.637	0.0142225
746.715	0.0142889
746.793	0.0142624
746.871	0.0142435
746.949	0.0141839
747.028	0.0141834
747.106	0.0142723
747.184	0.0141406
747.262	0.0142313
747.340	0.0142261
747.418	0.0141835
747.496	0.0143147
747.574	0.0143169
747.653	0.0142848
747.731	0.0141607
747.809	0.0142583
747.887	0.0143118
747.965	0.0141367
748.043	0.0141766
748.121	0.0142884
748.199	0.0142486
748.278	0.0141620
748.356	0.0143351
748.434	0.0142073
748.512	0.0141581
748.590	0.0141972
748.668	0.0141708
748.746	0.0142639
748.824	0.0142735
748.903	0.0141675
748.981	0.0143031
749.059	0.0141485
749.137	0.0142760
749.215	0.0142503
749.293	0.0143896
749.371	0.0141892
749.449	0.0141615
749.528	0.0141790
749.606	0.0141427
749.684	0.0142008
749.762	0.0140353
749.840	0.0140563
749.918	0.0141762
749.996	0.0141759
750.074	0.0140635
750.153	0.0142974
750.231	0.0140989
750.309	0.0141319
750.387	0.0141386
750.465	0.0141416
750.543	0.0142199
750.621	0.0141721
750.699	0.0141685
750.778	0.0141560
750.856	0.0143104
750.934	0.0142755
751.012	0.0142349
751.090	0.0142893
751.168	0.0142875
751.246	0.0142770
751.324	0.0143143
751.403	0.0143426
751.481	0.0141863
751.559	0.0141885
751.637	0.0144414
751.715	0.0145100
751.793	0.0142551
751.871	0.0143181
751.949	0.0142702
752.028	0.0142921
752.106	0.0143179
752.184	0.0142093
752.262	0.0142115
752.340	0.0142310
752.418	0.0142571
752.496	0.0143307
752.574	0.0143669
752.653	0.0142094
752.731	0.0142474
752.809	0.0142262
752.887	0.0143003
752.965	0.0144403
753.043	0.0142265
753.121	0.0141750
753.199	0.0141631
753.278	0.0141883
753.356	0.0142165
753.434	0.0142770
753.512	0.0142400
753.590	0.0141533
753.668	0.0141852
753.746	0.0141183
753.824	0.0142605
753.903	0.0142699
753.981	0.0141993
754.059	0.0142837
754.137	0.0142772
754.215	0.0140857
754.293	0.0142487
754.371	0.0142132
754.449	0.0142693
754.528	0.0141473
754.606	0.0142883
754.684	0.0143111
754.762	0.0143288
754.840	0.0141582
754.918	0.0142833
754.996	0.0143494
755.074	0.0141665
755.153	0.0143049
755.231	0.0142241
755.309	0.0140961
755.387	0.0142371
755.465	0.0143974
755.543	0.0142909
755.621	0.0141451
755.699	0.0143327
755.778	0.0142840
755.856	0.0142136
755.934	0.0142044
756.012	0.0143191
756.090	0.0140845
756.168	0.0140487
756.246	0.0141311
756.324	0.0141839
756.403	0.0141817
756.481	0.0142521
756.559	0.0141756
756.637	0.0141624
756.715	0.0142552
756.793	0.0141843
756.871	0.0142653
756.949	0.0142426
757.028	0.0142049
757.106	0.0142596
757.184	0.0141381
757.262	0.0140726
757.340	0.0141771
757.418	0.0140897
757.496	0.0142468
757.574	0.0142686
757.653	0.0142517
757.731	0.0141181
757.809	0.0140688
757.887	0.0141232
757.965	0.0140555
758.043	0.0141881
758.121	0.0140746
758.199	0.0141975
758.278	0.0142239
758.356	0.0141709
758.434	0.0142619
758.512	0.0141693
758.590	0.0141493
758.668	0.0141014
758.746	0.0141753
758.824	0.0141071
758.903	0.0141364
758.981	0.0142043
759.059	0.0142318
759.137	0.0142899
759.215	0.0142695
759.293	0.0143406
759.371	0.0143078
759.449	0.0142083
759.528	0.0142562
759.606	0.0143910
759.684	0.0142712
759.762	0.0142224
759.840	0.0142739
759.918	0.0142812
759.996	0.0142270
760.074	0.0142251
760.153	0.0142039
760.231	0.0141354
760.309	0.0142821
760.387	0.0141653
760.465	0.0140943
760.543	0.0142222
760.621	0.0142474
760.699	0.0141797
760.778	0.0141344
760.856	0.0141801
760.934	0.0141291
761.012	0.0141326
761.090	0.0141573
761.168	0.0142001
761.246	0.0140835
761.324	0.0140417
761.403	0.0143070
761.481	0.0142722
761.559	0.0141905
761.637	0.0142504
761.715	0.0142471
761.793	0.0142354
761.871	0.0142552
761.949	0.0142139
762.028	0.0142947
762.106	0.0142670
762.184	0.0141962
762.262	0.0143465
762.340	0.0142892
762.418	0.0142819
762.496	0.0143012
762.574	0.0142853
762.653	0.0142159
762.731	0.0141217
762.809	0.0141484
762.887	0.0141543
762.965	0.0142767
763.043	0.0143133
763.121	0.0142478
763.199	0.0141520
763.278	0.0139953
763.356	0.0141383
763.434	0.0142074
763.512	0.0143040
763.590	0.0140871
763.668	0.0141482
763.746	0.0142652
763.824	0.0141103
763.903	0.0141804
763.981	0.0141475
764.059	0.0142062
764.137	0.0140894
764.215	0.0141795
764.293	0.0141002
764.371	0.0140905
764.449	0.0141743
764.528	0.0140946
764.606	0.0141441
764.684	0.0140550
764.762	0.0141238
764.840	0.0141836
764.918	0.0141740
764.996	0.0141760
765.074	0.0140563
765.153	0.0141685
765.231	0.0141791
765.309	0.0140658
765.387	0.0141088
765.465	0.0140568
765.543	0.0140712
765.621	0.0142389
765.699	0.0142645
765.778	0.0141371
765.856	0.0140437
765.934	0.0141550
766.012	0.0141639
766.090	0.0142251
766.168	0.0141348
766.246	0.0141493
766.324	0.0141592
766.403	0.0140701
766.481	0.0143192
766.559	0.0143214
766.637	0.0141507
766.715	0.0142753
766.793	0.0143221
766.871	0.0141999
766.949	0.0141989
767.028	0.0140936
767.106	0.0141814
767.184	0.0142063
767.262	0.0142989
767.340	0.0142471
767.418	0.0141405
767.496	0.0139946
767.574	0.0141396
767.653	0.0142580
767.731	0.0141782
767.809	0.0141653
767.887	0.0141589
767.965	0.0141605
768.043	0.0142024
768.121	0.0141092
768.199	0.0141776
768.278	0.0142233
768.356	0.0140996
768.434	0.0143948
768.512	0.0141920
768.590	0.0141377
768.668	0.0142406
768.746	0.0143587
768.824	0.0141683
768.903	0.0141766
768.981	0.0142866
769.059	0.0141212
769.137	0.0142407
769.215	0.0142661
769.293	0.0142072
769.371	0.0143052
769.449	0.0142758
769.528	0.0141546
769.606	0.0143513
769.684	0.0144236
769.762	0.0141997
769.840	0.0141333
769.918	0.0142944
769.996	0.0143082
770.074	0.0143906
770.153	0.0143685
770.231	0.0142770
770.309	0.0143937
770.387	0.0144685
770.465	0.0143481
770.543	0.0144555
770.621	0.0143394
770.699	0.0144665
770.778	0.0144399
770.856	0.0143697
770.934	0.0143666
771.012	0.0144829
771.090	0.0144646
771.168	0.0143582
771.246	0.0143372
771.324	0.0143496
771.403	0.0143149
771.481	0.0144167
771.559	0.0143272
771.637	0.0144203
771.715	0.0143068
771.793	0.0143627
771.871	0.0143490
771.949	0.0142610
772.028	0.0143221
772.106	0.0141481
772.184	0.0142717
772.262	0.0142058
772.340	0.0142579
772.418	0.0142284
772.496	0.0141013
772.574	0.0142379
772.653	0.0142107
772.731	0.0141624
772.809	0.0142256
772.887	0.0142775
772.965	0.0142854
773.043	0.0142583
773.121	0.0140932
773.199	0.0141534
773.278	0.0143037
773.356	0.0141765
773.434	0.0140192
773.512	0.0142159
773.590	0.0141599
773.668	0.0142240
773.746	0.0143371
773.824	0.0143521
773.903	0.0143420
773.981	0.0142905
774.059	0.0141065
774.137	0.0141502
774.215	0.0142960
774.293	0.0142621
774.371	0.0143735
774.449	0.0142363
774.528	0.0143208
774.606	0.0144185
774.684	0.0142918
774.762	0.0143266
774.840	0.0141967
774.918	0.0142165
774.996	0.0142451
775.074	0.0143298
775.153	0.0142787
775.231	0.0143193
775.309	0.0143135
775.387	0.0142256
775.465	0.0142699
775.543	0.0142403
775.621	0.0142085
775.699	0.0143127
775.778	0.0141476
775.856	0.0142250
775.934	0.0140643
776.012	0.0142764
776.090	0.0143545
776.168	0.0142686
776.246	0.0142154
776.324	0.0142915
776.403	0.0141750
776.481	0.0141746
776.559	0.0141502
776.637	0.0141824
776.715	0.0141812
776.793	0.0141431
776.871	0.0141768
776.949	0.0141385
777.028	0.0140948
777.106	0.0141209
777.184	0.0141249
777.262	0.0143763
777.340	0.0142419
777.418	0.0142917
777.496	0.0141423
777.574	0.0141202
777.653	0.0141698
777.731	0.0141380
777.809	0.0140562
777.887	0.0143011
777.965	0.0141976
778.043	0.0141163
778.121	0.0141312
778.199	0.0143208
778.278	0.0142614
778.356	0.0140975
778.434	0.0142230
778.512	0.0143633
778.590	0.0143216
778.668	0.0141727
778.746	0.0141830
778.824	0.0141245
778.903	0.0142746
778.981	0.0142448
779.059	0.0143367
779.137	0.0143375
779.215	0.0142188
779.293	0.0143028
779.371	0.0142652
779.449	0.0142070
779.528	0.0142426
779.606	0.0142823
779.684	0.0143400
779.762	0.0141525
779.840	0.0142085
779.918	0.0142622
779.996	0.0142603
780.074	0.0142413
780.153	0.0142833
780.231	0.0141241
780.309	0.0143443
780.387	0.0142892
780.465	0.0142683
780.543	0.0142567
780.621	0.0142289
780.699	0.0141985
780.778	0.0141611
780.856	0.0141556
780.934	0.0141172
781.012	0.0140824
781.090	0.0140744
781.168	0.0141904
781.246	0.0141830
781.324	0.0142099
781.403	0.0141851
781.481	0.0141451
781.559	0.0141538
781.637	0.0142152
781.715	0.0141637
781.793	0.0141574
781.871	0.0142118
781.949	0.0142070
782.028	0.0141720
782.106	0.0141644
782.184	0.0142549
782.262	0.0143097
782.340	0.0141070
782.418	0.0140733
782.496	0.0141548
782.574	0.0141972
782.653	0.0141673
782.731	0.0141761
782.809	0.0141976
782.887	0.0141951
782.965	0.0141866
783.043	0.0140496
783.121	0.0142577
783.199	0.0143483
783.278	0.0141982
783.356	0.0141878
783.434	0.0141392
783.512	0.0143232
783.590	0.0143306
783.668	0.0143392
783.746	0.0142913
783.824	0.0143940
783.903	0.0143217
783.981	0.0142335
784.059	0.0142078
784.137	0.0141312
784.215	0.0140935
784.293	0.0140892
784.371	0.0142299
784.449	0.0141232
784.528	0.0141944
784.606	0.0142935
784.684	0.0142090
784.762	0.0141400
784.840	0.0141930
784.918	0.0142907
784.996	0.0141961
785.074	0.0142225
785.153	0.0141152
785.231	0.0140800
785.309	0.0141391
785.387	0.0142716
785.465	0.0141662
785.543	0.0141621
785.621	0.0142400
785.699	0.0141754
785.778	0.0141308
785.856	0.0142746
785.934	0.0141852
786.012	0.0141017
786.090	0.0141203
786.168	0.0141875
786.246	0.0141878
786.324	0.0142811
786.403	0.0140984
786.481	0.0141959
786.559	0.0142745
786.637	0.0142242
786.715	0.0142549
786.793	0.0142648
786.871	0.0141894
786.949	0.0141934
787.028	0.0142822
787.106	0.0142082
787.184	0.0141599
787.262	0.0141714
787.340	0.0141894
787.418	0.0141895
787.496	0.0140958
787.574	0.0141286
787.653	0.0141734
787.731	0.0141769
787.809	0.0141520
787.887	0.0140881
787.965	0.0140501
788.043	0.0140627
788.121	0.0140567
788.199	0.0141169
788.278	0.0140717
788.356	0.0141644
788.434	0.0140849
788.512	0.0141235
788.590	0.0140843
788.668	0.0139916
788.746	0.0141776
788.824	0.0140888
788.903	0.0141850
788.981	0.0140814
789.059	0.0141695
789.137	0.0142075
789.215	0.0141358
789.293	0.0141119
789.371	0.0142463
789.449	0.0141812
789.528	0.0142842
789.606	0.0141079
789.684	0.0141676
789.762	0.0142303
789.840	0.0143424
789.918	0.0141893
789.996	0.0141789
790.074	0.0141716
790.153	0.0142429
790.231	0.0142010
790.309	0.0142684
790.387	0.0142188
790.465	0.0141853
790.543	0.0141422
790.621	0.0142839
790.699	0.0143230
790.778	0.0142291
790.856	0.0142400
790.934	0.0142211
791.012	0.0141634
791.090	0.0142178
791.168	0.0141844
791.246	0.0141850
791.324	0.0141699
791.403	0.0142339
791.481	0.0141996
791.559	0.0141323
791.637	0.0142086
791.715	0.0140673
791.793	0.0141083
791.871	0.0142098
791.949	0.0142881
792.028	0.0140391
792.106	0.0139359
792.184	0.0140361
792.262	0.0141275
792.340	0.0140891
792.418	0.0140142
792.496	0.0141401
792.574	0.0141494
792.653	0.0141615
792.731	0.0141379
792.809	0.0141540
792.887	0.0141098
792.965	0.0141566
793.043	0.0140659
793.121	0.0141452
793.199	0.0141982
793.278	0.0142168
793.356	0.0140876
793.434	0.0141521
793.512	0.0141410
793.590	0.0142303
793.668	0.0142077
793.746	0.0141721
793.824	0.0142351
793.903	0.0140797
793.981	0.0142376
794.059	0.0143233
794.137	0.0142865
794.215	0.0142566
794.293	0.0142399
794.371	0.0143042
794.449	0.0143669
794.528	0.0143414
794.606	0.0144083
794.684	0.0143333
794.762	0.0143483
794.840	0.0142969
794.918	0.0142756
794.996	0.0143340
795.074	0.0143233
795.153	0.0142426
795.231	0.0142318
795.309	0.0143115
795.387	0.0142876
795.465	0.0143203
795.543	0.0142740
795.621	0.0141876
795.699	0.0142428
795.778	0.0142383
795.856	0.0141679
795.934	0.0142183
796.012	0.0141943
796.090	0.0143301
796.168	0.0140652
796.246	0.0140708
796.324	0.0140733
796.403	0.0142668
796.481	0.0142628
796.559	0.0140483
796.637	0.0140485
796.715	0.0142956
796.793	0.0142484
796.871	0.0140858
796.949	0.0140984
797.028	0.0141965
797.106	0.0142819
797.184	0.0141653
797.262	0.0141169
797.340	0.0143758
797.418	0.0142513
797.496	0.0142863
797.574	0.0142646
797.653	0.0141914
797.731	0.0141994
797.809	0.0142422
797.887	0.0141846
797.965	0.0143048
798.043	0.0142348
798.121	0.0141830
798.199	0.0142205
798.278	0.0143694
798.356	0.0143217
798.434	0.0141232
798.512	0.0141612
798.590	0.0141641
798.668	0.0142245
798.746	0.0143783
798.824	0.0144601
798.903	0.0142171
798.981	0.0142136
799.059	0.0142038
799.137	0.0141042
799.215	0.0141316
799.293	0.0142184
799.371	0.0141048
799.449	0.0143142
799.528	0.0141637
799.606	0.0141644
799.684	0.0141767
799.762	0.0142030
799.840	0.0141930
799.918	0.0141828
799.996	0.0142561
800.074	0.0140910
800.153	0.0141474
800.231	0.0140822
800.309	0.0142870
800.387	0.0139517
800.465	0.0141016
800.543	0.0142558
800.621	0.0141250
800.699	0.0141401
800.778	0.0141582
800.856	0.0143095
800.934	0.0142749
801.012	0.0141461
801.090	0.0141724
801.168	0.0140943
801.246	0.0139909
801.324	0.0141309
801.403	0.0141656
801.481	0.0143269
801.559	0.0141695
801.637	0.0141866
801.715	0.0141911
801.793	0.0142757
801.871	0.0140512
801.949	0.0140970
802.028	0.0142227
802.106	0.0142245
802.184	0.0142169
802.262	0.0141721
802.340	0.0141769
802.418	0.0141224
802.496	0.0140711
802.574	0.0140856
802.653	0.0140484
802.731	0.0140913
802.809	0.0141296
802.887	0.0141206
802.965	0.0141901
803.043	0.0142149
803.121	0.0139607
803.199	0.0141134
803.278	0.0141019
803.356	0.0141997
803.434	0.0141816
803.512	0.0142882
803.590	0.0141606
803.668	0.0142147
803.746	0.0142714
803.824	0.0141391
803.903	0.0141888
803.981	0.0142854
804.059	0.0141483
804.137	0.0140392
804.215	0.0141324
804.293	0.0143694
804.371	0.0141951
804.449	0.0142152
804.528	0.0141780
804.606	0.0142584
804.684	0.0141315
804.762	0.0142461
804.840	0.0142050
804.918	0.0142898
804.996	0.0141570
805.074	0.0142130
805.153	0.0141682
805.231	0.0142245
805.309	0.0143000
805.387	0.0143266
805.465	0.0141530
805.543	0.0142804
805.621	0.0142713
805.699	0.0142359
805.778	0.0143646
805.856	0.0142852
805.934	0.0143107
806.012	0.0143129
806.090	0.0143908
806.168	0.0143542
806.246	0.0142902
806.324	0.0143176
806.403	0.0142638
806.481	0.0142283
806.559	0.0141477
806.637	0.0142777
806.715	0.0143620
806.793	0.0141649
806.871	0.0142587
806.949	0.0141716
807.028	0.0142516
807.106	0.0142184
807.184	0.0142129
807.262	0.0141973
807.340	0.0141122
807.418	0.0142101
807.496	0.0141820
807.574	0.0141950
807.653	0.0141232
807.731	0.0141535
807.809	0.0141034
807.887	0.0141351
807.965	0.0141208
808.043	0.0140372
808.121	0.0141180
808.199	0.0141316
808.278	0.0141254
808.356	0.0141003
808.434	0.0141074
808.512	0.0141160
808.590	0.0140794
808.668	0.0142220
808.746	0.0140470
808.824	0.0142376
808.903	0.0142831
808.981	0.0140985
809.059	0.0142511
809.137	0.0142080
809.215	0.0140482
809.293	0.0140416
809.371	0.0142276
809.449	0.0142559
809.528	0.0142463
809.606	0.0143366
809.684	0.0143060
809.762	0.0142151
809.840	0.0141255
809.918	0.0142017
809.996	0.0141042
810.074	0.0140824
810.153	0.0142481
810.231	0.0141737
810.309	0.0140863
810.387	0.0141953
810.465	0.0141223
810.543	0.0141232
810.621	0.0140994
810.699	0.0141631
810.778	0.0140444
810.856	0.0140739
810.934	0.0140841
811.012	0.0142848
811.090	0.0140208
811.168	0.0140469
811.246	0.0140529
811.324	0.0142113
811.403	0.0142304
811.481	0.0141649
811.559	0.0142590
811.637	0.0141885
811.715	0.0140694
811.793	0.0141542
811.871	0.0142108
811.949	0.0142252
812.028	0.0141368
812.106	0.0141966
812.184	0.0142217
812.262	0.0141064
812.340	0.0140921
812.418	0.0140855
812.496	0.0141321
812.574	0.0143194
812.653	0.0141097
812.731	0.0141441
812.809	0.0142290
812.887	0.0142033
812.965	0.0142102
813.043	0.0141801
813.121	0.0142742
813.199	0.0141027
813.278	0.0141504
813.356	0.0141819
813.434	0.0141325
813.512	0.0141705
813.590	0.0141595
813.668	0.0142551
813.746	0.0142674
813.824	0.0141354
813.903	0.0141074
813.981	0.0141357
814.059	0.0142759
814.137	0.0141609
814.215	0.0142481
814.293	0.0143209
814.371	0.0142905
814.449	0.0142229
814.528	0.0142471
814.606	0.0142999
814.684	0.0142052
814.762	0.0142384
814.840	0.0141818
814.918	0.0141599
814.996	0.0143342
815.074	0.0143123
815.153	0.0142379
815.231	0.0143082
815.309	0.0143147
815.387	0.0142650
815.465	0.0143044
815.543	0.0141740
815.621	0.0140938
815.699	0.0140855
815.778	0.0140541
815.856	0.0142390
815.934	0.0140356
816.012	0.0140548
816.090	0.0141767
816.168	0.0141730
816.246	0.0142056
816.324	0.0141471
816.403	0.0139911
816.481	0.0141341
816.559	0.0140147
816.637	0.0139607
816.715	0.0140591
816.793	0.0139591
816.871	0.0140919
816.949	0.0141161
817.028	0.0140784
817.106	0.0141160
817.184	0.0140356
817.262	0.0141427
817.340	0.0142252
817.418	0.0142300
817.496	0.0139621
817.574	0.0140643
817.653	0.0140870
817.731	0.0141588
817.809	0.0142257
817.887	0.0141754
817.965	0.0141440
818.043	0.0141267
818.121	0.0143008
818.199	0.0141475
818.278	0.0139536
818.356	0.0140451
818.434	0.0140747
818.512	0.0141185
818.590	0.0141578
818.668	0.0141741
818.746	0.0139722
818.824	0.0141145
818.903	0.0141752
818.981	0.0141041
819.059	0.0141740
819.137	0.0140872
819.215	0.0141926
819.293	0.0141164
819.371	0.0141338
819.449	0.0141043
819.528	0.0141891
819.606	0.0141459
819.684	0.0141575
819.762	0.0141367
819.840	0.0140335
819.918	0.0141019
819.996	0.0141057
820.074	0.0141846
820.153	0.0141042
820.231	0.0140544
820.309	0.0141706
820.387	0.0141322
820.465	0.0141837
820.543	0.0140867
820.621	0.0141263
820.699	0.0141636
820.778	0.0140656
820.856	0.0141859
820.934	0.0142293
821.012	0.0141473
821.090	0.0140575
821.168	0.0141369
821.246	0.0141547
821.324	0.0142223
821.403	0.0142447
821.481	0.0142195
821.559	0.0142930
821.637	0.0140099
821.715	0.0141888
821.793	0.0142766
821.871	0.0141605
821.949	0.0142858
822.028	0.0143874
822.106	0.0143639
822.184	0.0142224
822.262	0.0142574
822.340	0.0143408
822.418	0.0141871
822.496	0.0142802
822.574	0.0143377
822.653	0.0143166
822.731	0.0142357
822.809	0.0142638
822.887	0.0144577
822.965	0.0141615
823.043	0.0139757
823.121	0.0141790
823.199	0.0142194
823.278	0.0140282
823.356	0.0140419
823.434	0.0141917
823.512	0.0141942
823.590	0.0143030
823.668	0.0140904
823.746	0.0140955
823.824	0.0141171
823.903	0.0141294
823.981	0.0140691
824.059	0.0141734
824.137	0.0142833
824.215	0.0139957
824.293	0.0140611
824.371	0.0142541
824.449	0.0140290
824.528	0.0142570
824.606	0.0142849
824.684	0.0142202
824.762	0.0141980
824.840	0.0141521
824.918	0.0141955
824.996	0.0142146
825.074	0.0142125
825.153	0.0142788
825.231	0.0141898
825.309	0.0140995
825.387	0.0141752
825.465	0.0142448
825.543	0.0142563
825.621	0.0140878
825.699	0.0143252
825.778	0.0142391
825.856	0.0141364
825.934	0.0141764
826.012	0.0140853
826.090	0.0141753
826.168	0.0141890
826.246	0.0142771
826.324	0.0141402
826.403	0.0142175
826.481	0.0143064
826.559	0.0143635
826.637	0.0142192
826.715	0.0141813
826.793	0.0141035
826.871	0.0142095
826.949	0.0141959
827.028	0.0142490
827.106	0.0141762
827.184	0.0141796
827.262	0.0142161
827.340	0.0141969
827.418	0.0142445
827.496	0.0142493
827.574	0.0142952
827.653	0.0141244
827.731	0.0140576
827.809	0.0144001
827.887	0.0141673
827.965	0.0140762
828.043	0.0141567
828.121	0.0141753
828.199	0.0141832
828.278	0.0142372
828.356	0.0141708
828.434	0.0141875
828.512	0.0141897
828.590	0.0142757
828.668	0.0142119
828.746	0.0141963
828.824	0.0141520
828.903	0.0141746
828.981	0.0142116
829.059	0.0140991
829.137	0.0142619
829.215	0.0142348
829.293	0.0142732
829.371	0.0143294
829.449	0.0142853
829.528	0.0143282
829.606	0.0142702
829.684	0.0142180
829.762	0.0143141
829.840	0.0143294
829.918	0.0142886
829.996	0.0142317
830.074	0.0144444
830.153	0.0142978
830.231	0.0143262
830.309	0.0142474
830.387	0.0143387
830.465	0.0143106
830.543	0.0142682
830.621	0.0142870
830.699	0.0142984
830.778	0.0142738
830.856	0.0143066
830.934	0.0143209
831.012	0.0143977
831.090	0.0143079
831.168	0.0141672
831.246	0.0141727
831.324	0.0143447
831.403	0.0143698
831.481	0.0141405
831.559	0.0141997
831.637	0.0142001
831.715	0.0142388
831.793	0.0140497
831.871	0.0141624
831.949	0.0141422
832.028	0.0141010
832.106	0.0140511
832.184	0.0139430
832.262	0.0139995
832.340	0.0140906
832.418	0.0141579
832.496	0.0140209
832.574	0.0141093
832.653	0.0139907
832.731	0.0139191
832.809	0.0140572
832.887	0.0140866
832.965	0.0140172
833.043	0.0139780
833.121	0.0141106
833.199	0.0139828
833.278	0.0140481
833.356	0.0141825
833.434	0.0142266
833.512	0.0141518
833.590	0.0142013
833.668	0.0140927
833.746	0.0141518
833.824	0.0142673
833.903	0.0142340
833.981	0.0141650
834.059	0.0142261
834.137	0.0142805
834.215	0.0143288
834.293	0.0142738
834.371	0.0144030
834.449	0.0143394
834.528	0.0143132
834.606	0.0143065
834.684	0.0143343
834.762	0.0142873
834.840	0.0141232
834.918	0.0142824
834.996	0.0144270
835.074	0.0144700
835.153	0.0142137
835.231	0.0142841
835.309	0.0142001
835.387	0.0141738
835.465	0.0141983
835.543	0.0143051
835.621	0.0141525
835.699	0.0141679
835.778	0.0143372
835.856	0.0141916
835.934	0.0142226
836.012	0.0140826
836.090	0.0140889
836.168	0.0142375
836.246	0.0142278
836.324	0.0140999
836.403	0.0142405
836.481	0.0142142
836.559	0.0143210
836.637	0.0141833
836.715	0.0141638
836.793	0.0141033
836.871	0.0140415
836.949	0.0142649
837.028	0.0141021
837.106	0.0142381
837.184	0.0141585
837.262	0.0142227
837.340	0.0142490
837.418	0.0141767
837.496	0.0143142
837.574	0.0141745
837.653	0.0141623
837.731	0.0142357
837.809	0.0141175
837.887	0.0142377
837.965	0.0141639
838.043	0.0142321
838.121	0.0142764
838.199	0.0143687
838.278	0.0144839
838.356	0.0143394
838.434	0.0143020
838.512	0.0142995
838.590	0.0144343
838.668	0.0144450
838.746	0.0142998
838.824	0.0144016
838.903	0.0143577
838.981	0.0145334
839.059	0.0144438
839.137	0.0144246
839.215	0.0145157
839.293	0.0143842
839.371	0.0142758
839.449	0.0143152
839.528	0.0144177
839.606	0.0142201
839.684	0.0143399
839.762	0.0142632
839.840	0.0142984
839.918	0.0142773
839.996	0.0141926
840.074	0.0143534
840.153	0.0142163
840.231	0.0142985
840.309	0.0143491
840.387	0.0141428
840.465	0.0140722
840.543	0.0142667
840.621	0.0142006
840.699	0.0141599
840.778	0.0140600
840.856	0.0141792
840.934	0.0140718
841.012	0.0141537
841.090	0.0141458
841.168	0.0140195
841.246	0.0141183
841.324	0.0140039
841.403	0.0138620
841.481	0.0140309
841.559	0.0140617
841.637	0.0141103
841.715	0.0140977
841.793	0.0140588
841.871	0.0140350
841.949	0.0140160
842.028	0.0141410
842.106	0.0140623
842.184	0.0139669
842.262	0.0141099
842.340	0.0141871
842.418	0.0140819
842.496	0.0141004
842.574	0.0142983
842.653	0.0140913
842.731	0.0141681
842.809	0.0142561
842.887	0.0141677
842.965	0.0141583
843.043	0.0142015
843.121	0.0142220
843.199	0.0142441
843.278	0.0142541
843.356	0.0143450
843.434	0.0143220
843.512	0.0140759
843.590	0.0143478
843.668	0.0142577
843.746	0.0141229
843.824	0.0142388
843.903	0.0143050
843.981	0.0142487
844.059	0.0143218
844.137	0.0142265
844.215	0.0142909
844.293	0.0142761
844.371	0.0143365
844.449	0.0142864
844.528	0.0140792
844.606	0.0141724
844.684	0.0141602
844.762	0.0140999
844.840	0.0142812
844.918	0.0142356
844.996	0.0142315
845.074	0.0141292
845.153	0.0141034
845.231	0.0142850
845.309	0.0142435
845.387	0.0142284
845.465	0.0141322
845.543	0.0142234
845.621	0.0143254
845.699	0.0142851
845.778	0.0142599
845.856	0.0141945
845.934	0.0142992
846.012	0.0140829
846.090	0.0142569
846.168	0.0141802
846.246	0.0142216
846.324	0.0141570
846.403	0.0142078
846.481	0.0141650
846.559	0.0141106
846.637	0.0140951
846.715	0.0141844
846.793	0.0140679
846.871	0.0141666
846.949	0.0141248
847.028	0.0142175
847.106	0.0143027
847.184	0.0142353
847.262	0.0142267
847.340	0.0142333
847.418	0.0142413
847.496	0.0142020
847.574	0.0142989
847.653	0.0143147
847.731	0.0143865
847.809	0.0144076
847.887	0.0143185
847.965	0.0143923
848.043	0.0143341
848.121	0.0143589
848.199	0.0144529
848.278	0.0146354
848.356	0.0143523
848.434	0.0144198
848.512	0.0144047
848.590	0.0144382
848.668	0.0144411
848.746	0.0143575
848.824	0.0144314
848.903	0.0142384
848.981	0.0144049
849.059	0.0145001
849.137	0.0144479
849.215	0.0144031
849.293	0.0143788
849.371	0.0143651
849.449	0.0143586
849.528	0.0143400
849.606	0.0144247
849.684	0.0143524
849.762	0.0143435
849.840	0.0142819
849.918	0.0141302
849.996	0.0142779
850.074	0.0143385
850.153	0.0143022
850.231	0.0142368
850.309	0.0142899
850.387	0.0142059
850.465	0.0143312
850.543	0.0142603
850.621	0.0141850
850.699	0.0141125
850.778	0.0141139
850.856	0.0142348
850.934	0.0142089
851.012	0.0142248
851.090	0.0143050
851.168	0.0142530
851.246	0.0142861
851.324	0.0143242
851.403	0.0143777
851.481	0.0142313
851.559	0.0141941
851.637	0.0142669
851.715	0.0144008
851.793	0.0142800
851.871	0.0143136
851.949	0.0141956
852.028	0.0142072
852.106	0.0140726
852.184	0.0142209
852.262	0.0142311
852.340	0.0141624
852.418	0.0142657
852.496	0.0143428
852.574	0.0141422
852.653	0.0142104
852.731	0.0143039
852.809	0.0143153
852.887	0.0144032
852.965	0.0142693
853.043	0.0142277
853.121	0.0143621
853.199	0.0144033
853.278	0.0142177
853.356	0.0141941
853.434	0.0143800
853.512	0.0144261
853.590	0.0142671
853.668	0.0142758
853.746	0.0143060
853.824	0.0141651
853.903	0.0143166
853.981	0.0141808
854.059	0.0143052
854.137	0.0141408
854.215	0.0141239
854.293	0.0141603
854.371	0.0142619
854.449	0.0141293
854.528	0.0140941
854.606	0.0141468
854.684	0.0142764
854.762	0.0141793
854.840	0.0140729
854.918	0.0141296
854.996	0.0141199
855.074	0.0141561
855.153	0.0141772
855.231	0.0142602
855.309	0.0141992
855.387	0.0140998
855.465	0.0141560
855.543	0.0141837
855.621	0.0142354
855.699	0.0140996
855.778	0.0141171
855.856	0.0140756
855.934	0.0141861
856.012	0.0141449
856.090	0.0142426
856.168	0.0141448
856.246	0.0141816
856.324	0.0142040
856.403	0.0141744
856.481	0.0142462
856.559	0.0142187
856.637	0.0142431
856.715	0.0142970
856.793	0.0141596
856.871	0.0141319
856.949	0.0141875
857.028	0.0144045
857.106	0.0143058
857.184	0.0143339
857.262	0.0142425
857.340	0.0142868
857.418	0.0143182
857.496	0.0142125
857.574	0.0144263
857.653	0.0141653
857.731	0.0142235
857.809	0.0142199
857.887	0.0141504
857.965	0.0141611
858.043	0.0142294
858.121	0.0141718
858.199	0.0140620
858.278	0.0140197
858.356	0.0141631
858.434	0.0142939
858.512	0.0141715
858.590	0.0141431
858.668	0.0142577
858.746	0.0141069
858.824	0.0142771
858.903	0.0142850
858.981	0.0142850
859.059	0.0143104
859.137	0.0143309
859.215	0.0141828
859.293	0.0141564
859.371	0.0142072
859.449	0.0142545
859.528	0.0142779
859.606	0.0142052
859.684	0.0142785
859.762	0.0143449
859.840	0.0143481
859.918	0.0142902
859.996	0.0143038
860.074	0.0142579
860.153	0.0142184
860.231	0.0143169
860.309	0.0142037
860.387	0.0141160
860.465	0.0141628
860.543	0.0142500
860.621	0.0141209
860.699	0.0142557
860.778	0.0139967
860.856	0.0140759
860.934	0.0142188
861.012	0.0140569
861.090	0.0141352
861.168	0.0142860
861.246	0.0142473
861.324	0.0142100
861.403	0.0143516
861.481	0.0141223
861.559	0.0141978
861.637	0.0142218
861.715	0.0141817
861.793	0.0142581
861.871	0.0141365
861.949	0.0141258
862.028	0.0142073
862.106	0.0141187
862.184	0.0141979
862.262	0.0141414
862.340	0.0141335
862.418	0.0141085
862.496	0.0142815
862.574	0.0142494
862.653	0.0141412
862.731	0.0143762
862.809	0.0143604
862.887	0.0142860
862.965	0.0142324
863.043	0.0143639
863.121	0.0143027
863.199	0.0141382
863.278	0.0141850
863.356	0.0141862
863.434	0.0142392
863.512	0.0141122
863.590	0.0140610
863.668	0.0141821
863.746	0.0142354
863.824	0.0140504
863.903	0.0141448
863.981	0.0141041
864.059	0.0141843
864.137	0.0141775
864.215	0.0140620
864.293	0.0140645
864.371	0.0140378
864.449	0.0141975
864.528	0.0140704
864.606	0.0142390
864.684	0.0143002
864.762	0.0143254
864.840	0.0141853
864.918	0.0141922
864.996	0.0143585
865.074	0.0142546
865.153	0.0143372
865.231	0.0142616
865.309	0.0143220
865.387	0.0144565
865.465	0.0143622
865.543	0.0143261
865.621	0.0141863
865.699	0.0142258
865.778	0.0142500
865.856	0.0142387
865.934	0.0142076
866.012	0.0141942
866.090	0.0142484
866.168	0.0142091
866.246	0.0141019
866.324	0.0141185
866.403	0.0142782
866.481	0.0140870
866.559	0.0142494
866.637	0.0142705
866.715	0.0143906
866.793	0.0141759
866.871	0.0141248
866.949	0.0140672
867.028	0.0141393
867.106	0.0141659
867.184	0.0141543
867.262	0.0141859
867.340	0.0141905
867.418	0.0141883
867.496	0.0141740
867.574	0.0140970
867.653	0.0141870
867.731	0.0141167
867.809	0.0143044
867.887	0.0142751
867.965	0.0141582
868.043	0.0141298
868.121	0.0141962
868.199	0.0142216
868.278	0.0141428
868.356	0.0141448
868.434	0.0141952
868.512	0.0142686
868.590	0.0141225
868.668	0.0141690
868.746	0.0142065
868.824	0.0141580
868.903	0.0142097
868.981	0.0141898
869.059	0.0141627
869.137	0.0140596
869.215	0.0141016
869.293	0.0142298
869.371	0.0142270
869.449	0.0141758
869.528	0.0142689
869.606	0.0141579
869.684	0.0142381
869.762	0.0141846
869.840	0.0142465
869.918	0.0144225
869.996	0.0144545
870.074	0.0142138
870.153	0.0143552
870.231	0.0143418
870.309	0.0142526
870.387	0.0143937
870.465	0.0142874
870.543	0.0143731
870.621	0.0144024
870.699	0.0144641
870.778	0.0143436
870.856	0.0143500
870.934	0.0143632
871.012	0.0143019
871.090	0.0142467
871.168	0.0142489
871.246	0.0142940
871.324	0.0143412
871.403	0.0141850
871.481	0.0142361
871.559	0.0142678
871.637	0.0142086
871.715	0.0143126
871.793	0.0143607
871.871	0.0142164
871.949	0.0140672
872.028	0.0140446
872.106	0.0142006
872.184	0.0141725
872.262	0.0141908
872.340	0.0142274
872.418	0.0141968
872.496	0.0142566
872.574	0.0142342
872.653	0.0143191
872.731	0.0142873
872.809	0.0143444
872.887	0.0142942
872.965	0.0140878
873.043	0.0143464
873.121	0.0143951
873.199	0.0142912
873.278	0.0142819
873.356	0.0143906
873.434	0.0144351
873.512	0.0144572
873.590	0.0144193
873.668	0.0143729
873.746	0.0143795
873.824	0.0143916
873.903	0.0144891
873.981	0.0144080
874.059	0.0144319
874.137	0.0143781
874.215	0.0144841
874.293	0.0144061
874.371	0.0143604
874.449	0.0144847
874.528	0.0143202
874.606	0.0143776
874.684	0.0142342
874.762	0.0141776
874.840	0.0143890
874.918	0.0143264
874.996	0.0141993
875.074	0.0141521
875.153	0.0141920
875.231	0.0142631
875.309	0.0142154
875.387	0.0141824
875.465	0.0141615
875.543	0.0141953
875.621	0.0142112
875.699	0.0141987
875.778	0.0142295
875.856	0.0141859
875.934	0.0142597
876.012	0.0141701
876.090	0.0141969
876.168	0.0142209
876.246	0.0141422
876.324	0.0141420
876.403	0.0142513
876.481	0.0141305
876.559	0.0142638
876.637	0.0140794
876.715	0.0140926
876.793	0.0141908
876.871	0.0141910
876.949	0.0141547
877.028	0.0142095
877.106	0.0141714
877.184	0.0140485
877.262	0.0140903
877.340	0.0140047
877.418	0.0141596
877.496	0.0141981
877.574	0.0140375
877.653	0.0141642
877.731	0.0142596
877.809	0.0142246
877.887	0.0142015
877.965	0.0142948
878.043	0.0141715
878.121	0.0141539
878.199	0.0141637
878.278	0.0141937
878.356	0.0140822
878.434	0.0142590
878.512	0.0141793
878.590	0.0141104
878.668	0.0141857
878.746	0.0141885
878.824	0.0142233
878.903	0.0142204
878.981	0.0142047
879.059	0.0142420
879.137	0.0141874
879.215	0.0142337
879.293	0.0141612
879.371	0.0142774
879.449	0.0140719
879.528	0.0140986
879.606	0.0142294
879.684	0.0140405
879.762	0.0141483
879.840	0.0141710
879.918	0.0141570
879.996	0.0139893
880.074	0.0141734
880.153	0.0140504
880.231	0.0141134
880.309	0.0140358
880.387	0.0140346
880.465	0.0142219
880.543	0.0141100
880.621	0.0140427
880.699	0.0140607
880.778	0.0140973
880.856	0.0141280
880.934	0.0141071
881.012	0.0141335
881.090	0.0140887
881.168	0.0141344
881.246	0.0141156
881.324	0.0141354
881.403	0.0142106
881.481	0.0141979
881.559	0.0141439
881.637	0.0141040
881.715	0.0141967
881.793	0.0141010
881.871	0.0143679
881.949	0.0142265
882.028	0.0141813
882.106	0.0142977
882.184	0.0141092
882.262	0.0141547
882.340	0.0141534
882.418	0.0143188
882.496	0.0141927
882.574	0.0142795
882.653	0.0142070
882.731	0.0142462
882.809	0.0141677
882.887	0.0142147
882.965	0.0141996
883.043	0.0141047
883.121	0.0142299
883.199	0.0141752
883.278	0.0140395
883.356	0.0141219
883.434	0.0140562
883.512	0.0141573
883.590	0.0142281
883.668	0.0142432
883.746	0.0142348
883.824	0.0141725
883.903	0.0139463
883.981	0.0140897
884.059	0.0142147
884.137	0.0141301
884.215	0.0140466
884.293	0.0140040
884.371	0.0140822
884.449	0.0140586
884.528	0.0140215
884.606	0.0141133
884.684	0.0141988
884.762	0.0141275
884.840	0.0141004
884.918	0.0141671
884.996	0.0141615
885.074	0.0141051
885.153	0.0141827
885.231	0.0141214
885.309	0.0141125
885.387	0.0140594
885.465	0.0141322
885.543	0.0141326
885.621	0.0141086
885.699	0.0140849
885.778	0.0139985
885.856	0.0141634
885.934	0.0141965
886.012	0.0141404
886.090	0.0140750
886.168	0.0142290
886.246	0.0142090
886.324	0.0140253
886.403	0.0141829
886.481	0.0142657
886.559	0.0142403
886.637	0.0141576
886.715	0.0141839
886.793	0.0141916
886.871	0.0141151
886.949	0.0141161
887.028	0.0141124
887.106	0.0141943
887.184	0.0141563
887.262	0.0143619
887.340	0.0143327
887.418	0.0142489
887.496	0.0143033
887.574	0.0142258
887.653	0.0143038
887.731	0.0141905
887.809	0.0143717
887.887	0.0143880
887.965	0.0140897
888.043	0.0141460
888.121	0.0140910
888.199	0.0142256
888.278	0.0143253
888.356	0.0141758
888.434	0.0143337
888.512	0.0141231
888.590	0.0140434
888.668	0.0141785
888.746	0.0142835
888.824	0.0140500
888.903	0.0141431
888.981	0.0141727
889.059	0.0141689
889.137	0.0141186
889.215	0.0141341
889.293	0.0141792
889.371	0.0142633
889.449	0.0141833
889.528	0.0140937
889.606	0.0142387
889.684	0.0141359
889.762	0.0143237
889.840	0.0143436
889.918	0.0141225
889.996	0.0144837
890.074	0.0142387
890.153	0.0142709
890.231	0.0142459
890.309	0.0141710
890.387	0.0142857
890.465	0.0142486
890.543	0.0143349
890.621	0.0143340
890.699	0.0143864
890.778	0.0141429
890.856	0.0141184
890.934	0.0141896
891.012	0.0142828
891.090	0.0142412
891.168	0.0143380
891.246	0.0143240
891.324	0.0140461
891.403	0.0142878
891.481	0.0142307
891.559	0.0140901
891.637	0.0140686
891.715	0.0141438
891.793	0.0141207
891.871	0.0141876
891.949	0.0142351
892.028	0.0141594
892.106	0.0141953
892.184	0.0141916
892.262	0.0140606
892.340	0.0141714
892.418	0.0142095
892.496	0.0142276
892.574	0.0141930
892.653	0.0142152
892.731	0.0141907
892.809	0.0142206
892.887	0.0141707
892.965	0.0141399
893.043	0.0141434
893.121	0.0143423
893.199	0.0141486
893.278	0.0141782
893.356	0.0141177
893.434	0.0141324
893.512	0.0139872
893.590	0.0141974
893.668	0.0142275
893.746	0.0141959
893.824	0.0141323
893.903	0.0141135
893.981	0.0141835
894.059	0.0140610
894.137	0.0141365
894.215	0.0142136
894.293	0.0142507
894.371	0.0141197
894.449	0.0140877
894.528	0.0141582
894.606	0.0141059
894.684	0.0141263
894.762	0.0141709
894.840	0.0140579
894.918	0.0141529
894.996	0.0141344
895.074	0.0142165
895.153	0.0143554
895.231	0.0141724
895.309	0.0143226
895.387	0.0141312
895.465	0.0141305
895.543	0.0141776
895.621	0.0142485
895.699	0.0141755
895.778	0.0140568
895.856	0.0140970
895.934	0.0141838
896.012	0.0141657
896.090	0.0141310
896.168	0.0141237
896.246	0.0142079
896.324	0.0142638
896.403	0.0142342
896.481	0.0140537
896.559	0.0140572
896.637	0.0144367
896.715	0.0141521
896.793	0.0141243
896.871	0.0142258
896.949	0.0143842
897.028	0.0141858
897.106	0.0141594
897.184	0.0141673
897.262	0.0143127
897.340	0.0143169
897.418	0.0143757
897.496	0.0141763
897.574	0.0141666
897.653	0.0143170
897.731	0.0142638
897.809	0.0143016
897.887	0.0141879
897.965	0.0141420
898.043	0.0142872
898.121	0.0142760
898.199	0.0141236
898.278	0.0141965
898.356	0.0141718
898.434	0.0142273
898.512	0.0142715
898.590	0.0142083
898.668	0.0141324
898.746	0.0142645
898.824	0.0143324
898.903	0.0142617
898.981	0.0143000
899.059	0.0141943
899.137	0.0141845
899.215	0.0141906
899.293	0.0142544
899.371	0.0141656
899.449	0.0141634
899.528	0.0142347
899.606	0.0141559
899.684	0.0140794
899.762	0.0142343
899.840	0.0142101
899.918	0.0141342
899.996	0.0141642
900.074	0.0140462
900.153	0.0141631
900.231	0.0140208
900.309	0.0140947
900.387	0.0140334
900.465	0.0141120
900.543	0.0141055
900.621	0.0140507
900.699	0.0141201
900.778	0.0143333
900.856	0.0141442
900.934	0.0140135
901.012	0.0143356
901.090	0.0142435
901.168	0.0140965
901.246	0.0142813
901.324	0.0142616
901.403	0.0141615
901.481	0.0143142
901.559	0.0142065
901.637	0.0142535
901.715	0.0141496
901.793	0.0142444
901.871	0.0142348
901.949	0.0142773
902.028	0.0141099
902.106	0.0141078
902.184	0.0141833
902.262	0.0142592
902.340	0.0141741
902.418	0.0141828
902.496	0.0141560
902.574	0.0142388
902.653	0.0142830
902.731	0.0141176
902.809	0.0142392
902.887	0.0141128
902.965	0.0141985
903.043	0.0140958
903.121	0.0140552
903.199	0.0140989
903.278	0.0141782
903.356	0.0140321
903.434	0.0140347
903.512	0.0141433
903.590	0.0141614
903.668	0.0140962
903.746	0.0140494
903.824	0.0140090
903.903	0.0141207
903.981	0.0141332
904.059	0.0140175
904.137	0.0140743
904.215	0.0141641
904.293	0.0140739
904.371	0.0141195
904.449	0.0139242
904.528	0.0140653
904.606	0.0141048
904.684	0.0142002
904.762	0.0140377
904.840	0.0141073
904.918	0.0141785
904.996	0.0140752
905.074	0.0140697
905.153	0.0142534
905.231	0.0140514
905.309	0.0141010
905.387	0.0142307
905.465	0.0142113
905.543	0.0142355
905.621	0.0142735
905.699	0.0141778
905.778	0.0140570
905.856	0.0142166
905.934	0.0141679
906.012	0.0142444
906.090	0.0141643
906.168	0.0140661
906.246	0.0142635
906.324	0.0142770
906.403	0.0140948
906.481	0.0143005
906.559	0.0142690
906.637	0.0142597
906.715	0.0141432
906.793	0.0142822
906.871	0.0140649
906.949	0.0140673
907.028	0.0141642
907.106	0.0141145
907.184	0.0141378
907.262	0.0140562
907.340	0.0140453
907.418	0.0141550
907.496	0.0142312
907.574	0.0141085
907.653	0.0140273
907.731	0.0141452
907.809	0.0141698
907.887	0.0142401
907.965	0.0141256
908.043	0.0142081
908.121	0.0141322
908.199	0.0142128
908.278	0.0141198
908.356	0.0140350
908.434	0.0140685
908.512	0.0142741
908.590	0.0141376
908.668	0.0141856
908.746	0.0141331
908.824	0.0139919
908.903	0.0140861
908.981	0.0141840
909.059	0.0140543
909.137	0.0140887
909.215	0.0141956
909.293	0.0141463
909.371	0.0142751
909.449	0.0141379
909.528	0.0141180
909.606	0.0141834
909.684	0.0139944
909.762	0.0141196
909.840	0.0142609
909.918	0.0141589
909.996	0.0140693
910.074	0.0142537
910.153	0.0141380
910.231	0.0142936
910.309	0.0143300
910.387	0.0141998
910.465	0.0142175
910.543	0.0141908
910.621	0.0142226
910.699	0.0142500
910.778	0.0142480
910.856	0.0143262
910.934	0.0141563
911.012	0.0143351
911.090	0.0142556
911.168	0.0143536
911.246	0.0143422
911.324	0.0142052
911.403	0.0142959
911.481	0.0142750
911.559	0.0142319
911.637	0.0142704
911.715	0.0142764
911.793	0.0141291
911.871	0.0141810
911.949	0.0143262
912.028	0.0143633
912.106	0.0141998
912.184	0.0142766
912.262	0.0142617
912.340	0.0143282
912.418	0.0142754
912.496	0.0143201
912.574	0.0142053
912.653	0.0142121
912.731	0.0142823
912.809	0.0141985
912.887	0.0142925
912.965	0.0143206
913.043	0.0143555
913.121	0.0143788
913.199	0.0143071
913.278	0.0142740
913.356	0.0143645
913.434	0.0143356
913.512	0.0143644
913.590	0.0142254
913.668	0.0142732
913.746	0.0141523
913.824	0.0143224
913.903	0.0142374
913.981	0.0143428
914.059	0.0144044
914.137	0.0144158
914.215	0.0143969
914.293	0.0144560
914.371	0.0144110
914.449	0.0144047
914.528	0.0143829
914.606	0.0144387
914.684	0.0143991
914.762	0.0143952
914.840	0.0142451
914.918	0.0143412
914.996	0.0144751
915.074	0.0141883
915.153	0.0142793
915.231	0.0142902
915.309	0.0142127
915.387	0.0141573
915.465	0.0142287
915.543	0.0143485
915.621	0.0142297
915.699	0.0142758
915.778	0.0141891
915.856	0.0143135
915.934	0.0144077
916.012	0.0141321
916.090	0.0141906
916.168	0.0141659
916.246	0.0142941
916.324	0.0143119
916.403	0.0141335
916.481	0.0143914
916.559	0.0143934
916.637	0.0142054
916.715	0.0143093
916.793	0.0141421
916.871	0.0143547
916.949	0.0142783
917.028	0.0142251
917.106	0.0141998
917.184	0.0143345
917.262	0.0143698
917.340	0.0142445
917.418	0.0141109
917.496	0.0142332
917.574	0.0142960
917.653	0.0143516
917.731	0.0142052
917.809	0.0141633
917.887	0.0142813
917.965	0.0142990
918.043	0.0142671
918.121	0.0142147
918.199	0.0142284
918.278	0.0141682
918.356	0.0142979
918.434	0.0142463
918.512	0.0142577
918.590	0.0140469
918.668	0.0141632
918.746	0.0140940
918.824	0.0141373
918.903	0.0143047
918.981	0.0140697
919.059	0.0140739
919.137	0.0140771
919.215	0.0142146
919.293	0.0142112
919.371	0.0140935
919.449	0.0140490
919.528	0.0140334
919.606	0.0140497
919.684	0.0141410
919.762	0.0141507
919.840	0.0140992
919.918	0.0140953
919.996	0.0139862
920.074	0.0140067
920.153	0.0139380
920.231	0.0142110
920.309	0.0139578
920.387	0.0140506
920.465	0.0140022
920.543	0.0138696
920.621	0.0139463
920.699	0.0140229
920.778	0.0140562
920.856	0.0141045
920.934	0.0141328
921.012	0.0139276
921.090	0.0140748
921.168	0.0141338
921.246	0.0140562
921.324	0.0141175
921.403	0.0141359
921.481	0.0141297
921.559	0.0140337
921.637	0.0140541
921.715	0.0140929
921.793	0.0141734
921.871	0.0142853
921.949	0.0142062
922.028	0.0141373
922.106	0.0143729
922.184	0.0141745
922.262	0.0142689
922.340	0.0141238
922.418	0.0142421
922.496	0.0141707
922.574	0.0142055
922.653	0.0142558
922.731	0.0142297
922.809	0.0141779
922.887	0.0141060
922.965	0.0140829
923.043	0.0142059
923.121	0.0140866
923.199	0.0141795
923.278	0.0141336
923.356	0.0141066
923.434	0.0142228
923.512	0.0140385
923.590	0.0141106
923.668	0.0141478
923.746	0.0142155
923.824	0.0141718
923.903	0.0141499
923.981	0.0141096
924.059	0.0141782
924.137	0.0140195
924.215	0.0140748
924.293	0.0140046
924.371	0.0141151
924.449	0.0141022
924.528	0.0141022
924.606	0.0140633
924.684	0.0142506
924.762	0.0142549
924.840	0.0142276
924.918	0.0143352
924.996	0.0142106
925.074	0.0142193
925.153	0.0141885
925.231	0.0143208
925.309	0.0143355
925.387	0.0143241
925.465	0.0143189
925.543	0.0142041
925.621	0.0142007
925.699	0.0142463
925.778	0.0144330
925.856	0.0143581
925.934	0.0143658
926.012	0.0142617
926.090	0.0143136
926.168	0.0143195
926.246	0.0141554
926.324	0.0141593
926.403	0.0142268
926.481	0.0143921
926.559	0.0142986
926.637	0.0140887
926.715	0.0141943
926.793	0.0141601
926.871	0.0143188
926.949	0.0141328
927.028	0.0140840
927.106	0.0143691
927.184	0.0143634
927.262	0.0142465
927.340	0.0141820
927.418	0.0139877
927.496	0.0141469
927.574	0.0141853
927.653	0.0142085
927.731	0.0141730
927.809	0.0141648
927.887	0.0141971
927.965	0.0140937
928.043	0.0141810
928.121	0.0141342
928.199	0.0140636
928.278	0.0140949
928.356	0.0142128
928.434	0.0141976
928.512	0.0142923
928.590	0.0142001
928.668	0.0143810
928.746	0.0141562
928.824	0.0142670
928.903	0.0141980
928.981	0.0141529
929.059	0.0142233
929.137	0.0141089
929.215	0.0140835
929.293	0.0141096
929.371	0.0142454
929.449	0.0141486
929.528	0.0141875
929.606	0.0140983
929.684	0.0141454
929.762	0.0140383
929.840	0.0140122
929.918	0.0140988
929.996	0.0140640
930.074	0.0142373
930.153	0.0142217
930.231	0.0141603
930.309	0.0141589
930.387	0.0142115
930.465	0.0141757
930.543	0.0141120
930.621	0.0141876
930.699	0.0142447
930.778	0.0141355
930.856	0.0142468
930.934	0.0141839
931.012	0.0140582
931.090	0.0141869
931.168	0.0142703
931.246	0.0142170
931.324	0.0142590
931.403	0.0142499
931.481	0.0142313
931.559	0.0141255
931.637	0.0140394
931.715	0.0141859
931.793	0.0142416
931.871	0.0142139
931.949	0.0141014
932.028	0.0142251
932.106	0.0141360
932.184	0.0142233
932.262	0.0141300
932.340	0.0141943
932.418	0.0140653
932.496	0.0140883
932.574	0.0141873
932.653	0.0141611
932.731	0.0142203
932.809	0.0142207
932.887	0.0141650
932.965	0.0142157
933.043	0.0141539
933.121	0.0141960
933.199	0.0141693
933.278	0.0142089
933.356	0.0142401
933.434	0.0141222
933.512	0.0141653
933.590	0.0142343
933.668	0.0141080
933.746	0.0141840
933.824	0.0142376
933.903	0.0141315
933.981	0.0140988
934.059	0.0142628
934.137	0.0141788
934.215	0.0142553
934.293	0.0141722
934.371	0.0142815
934.449	0.0142838
934.528	0.0142883
934.606	0.0143730
934.684	0.0143185
934.762	0.0141666
934.840	0.0143052
934.918	0.0142303
934.996	0.0142918
935.074	0.0141900
935.153	0.0143647
935.231	0.0143818
935.309	0.0143288
935.387	0.0142451
935.465	0.0142921
935.543	0.0142211
935.621	0.0142966
935.699	0.0143645
935.778	0.0142246
935.856	0.0143792
935.934	0.0143224
936.012	0.0143452
936.090	0.0142851
936.168	0.0142076
936.246	0.0142369
936.324	0.0143749
936.403	0.0143748
936.481	0.0143540
936.559	0.0143982
936.637	0.0143402
936.715	0.0143097
936.793	0.0143211
936.871	0.0144307
936.949	0.0144633
937.028	0.0142538
937.106	0.0142727
937.184	0.0143435
937.262	0.0142995
937.340	0.0144777
937.418	0.0141295
937.496	0.0142930
937.574	0.0143208
937.653	0.0142970
937.731	0.0142941
937.809	0.0143493
937.887	0.0143381
937.965	0.0141809
938.043	0.0142667
938.121	0.0142522
938.199	0.0143162
938.278	0.0143759
938.356	0.0140922
938.434	0.0142535
938.512	0.0141213
938.590	0.0142513
938.668	0.0142719
938.746	0.0142686
938.824	0.0142959
938.903	0.0142381
938.981	0.0142602
939.059	0.0142593
939.137	0.0142120
939.215	0.0143458
939.293	0.0142314
939.371	0.0142479
939.449	0.0143188
939.528	0.0143487
939.606	0.0141679
939.684	0.0144087
939.762	0.0143395
939.840	0.0140987
939.918	0.0141546
939.996	0.0141609
940.074	0.0143524
940.153	0.0143295
940.231	0.0142831
940.309	0.0140674
940.387	0.0141071
940.465	0.0142689
940.543	0.0142734
940.621	0.0141873
940.699	0.0141560
940.778	0.0141759
940.856	0.0140390
940.934	0.0141836
941.012	0.0142377
941.090	0.0141935
941.168	0.0141581
941.246	0.0142657
941.324	0.0142413
941.403	0.0141965
941.481	0.0142471
941.559	0.0141349
941.637	0.0141792
941.715	0.0141705
941.793	0.0141275
941.871	0.0143193
941.949	0.0140871
942.028	0.0141618
942.106	0.0143200
942.184	0.0142792
942.262	0.0142737
942.340	0.0142090
942.418	0.0142091
942.496	0.0141916
942.574	0.0142274
942.653	0.0142754
942.731	0.0142175
942.809	0.0141888
942.887	0.0143134
942.965	0.0143083
943.043	0.0142107
943.121	0.0141159
943.199	0.0142429
943.278	0.0142347
943.356	0.0141907
943.434	0.0142596
943.512	0.0142342
943.590	0.0143011
943.668	0.0141750
943.746	0.0142053
943.824	0.0140636
943.903	0.0140814
943.981	0.0141650
944.059	0.0140980
944.137	0.0141216
944.215	0.0142130
944.293	0.0141620
944.371	0.0140684
944.449	0.0141270
944.528	0.0139884
944.606	0.0140806
944.684	0.0142991
944.762	0.0141221
944.840	0.0140463
944.918	0.0142228
944.996	0.0140314
945.074	0.0140720
945.153	0.0141833
945.231	0.0142333
945.309	0.0142289
945.387	0.0140667
945.465	0.0142137
945.543	0.0142139
945.621	0.0141255
945.699	0.0142286
945.778	0.0144779
945.856	0.0142665
945.934	0.0142516
946.012	0.0142313
946.090	0.0143192
946.168	0.0142637
946.246	0.0142687
946.324	0.0142737
946.403	0.0142999
946.481	0.0142437
946.559	0.0140603
946.637	0.0141958
946.715	0.0142040
946.793	0.0143103
946.871	0.0141364
946.949	0.0142793
947.028	0.0144154
947.106	0.0142327
947.184	0.0140926
947.262	0.0141610
947.340	0.0141715
947.418	0.0143092
947.496	0.0144016
947.574	0.0142482
947.653	0.0143322
947.731	0.0143086
947.809	0.0142358
947.887	0.0142503
947.965	0.0142925
948.043	0.0143680
948.121	0.0143268
948.199	0.0141688
948.278	0.0141760
948.356	0.0141827
948.434	0.0141304
948.512	0.0142751
948.590	0.0142924
948.668	0.0142797
948.746	0.0143795
948.824	0.0141312
948.903	0.0141701
948.981	0.0143149
949.059	0.0142658
949.137	0.0142004
949.215	0.0143113
949.293	0.0142716
949.371	0.0142149
949.449	0.0143233
949.528	0.0142186
949.606	0.0141478
949.684	0.0142432
949.762	0.0142809
949.840	0.0142452
949.918	0.0143066
949.996	0.0142416
950.074	0.0143806
950.153	0.0144084
950.231	0.0143369
950.309	0.0141888
950.387	0.0140880
950.465	0.0142722
950.543	0.0142173
950.621	0.0142483
950.699	0.0141882
950.778	0.0143337
950.856	0.0142846
950.934	0.0143534
951.012	0.0143147
951.090	0.0142774
951.168	0.0142447
951.246	0.0142484
951.324	0.0142686
951.403	0.0143068
951.481	0.0141830
951.559	0.0142020
951.637	0.0143032
951.715	0.0142384
951.793	0.0142849
951.871	0.0141618
951.949	0.0142406
952.028	0.0143550
952.106	0.0142233
952.184	0.0141792
952.262	0.0142474
952.340	0.0142222
952.418	0.0140930
952.496	0.0141711
952.574	0.0143208
952.653	0.0143800
952.731	0.0142873
952.809	0.0141650
952.887	0.0142625
952.965	0.0141692
953.043	0.0142873
953.121	0.0141917
953.199	0.0142680
953.278	0.0142377
953.356	0.0140575
953.434	0.0142492
953.512	0.0142383
953.590	0.0141916
953.668	0.0141738
953.746	0.0143642
953.824	0.0141717
953.903	0.0141425
953.981	0.0140760
954.059	0.0141528
954.137	0.0142996
954.215	0.0142458
954.293	0.0141911
954.371	0.0140771
954.449	0.0140701
954.528	0.0141695
954.606	0.0141711
954.684	0.0141026
954.762	0.0141324
954.840	0.0141676
954.918	0.0141781
954.996	0.0141435
955.074	0.0141288
955.153	0.0142146
955.231	0.0142517
955.309	0.0141261
955.387	0.0141946
955.465	0.0141518
955.543	0.0140356
955.621	0.0140886
955.699	0.0141149
955.778	0.0141406
955.856	0.0140805
955.934	0.0142129
956.012	0.0142783
956.090	0.0141977
956.168	0.0141728
956.246	0.0141253
956.324	0.0142444
956.403	0.0141302
956.481	0.0142125
956.559	0.0141740
956.637	0.0141144
956.715	0.0140595
956.793	0.0141670
956.871	0.0141011
956.949	0.0141743
957.028	0.0141022
957.106	0.0141680
957.184	0.0140363
957.262	0.0140196
957.340	0.0142419
957.418	0.0141192
957.496	0.0141792
957.574	0.0141916
957.653	0.0141226
957.731	0.0142030
957.809	0.0141577
957.887	0.0141724
957.965	0.0142483
958.043	0.0141037
958.121	0.0140564
958.199	0.0141062
958.278	0.0141533
958.356	0.0142345
958.434	0.0141214
958.512	0.0142070
958.590	0.0143049
958.668	0.0141836
958.746	0.0143131
958.824	0.0141810
958.903	0.0142205
958.981	0.0142324
959.059	0.0142136
959.137	0.0142755
959.215	0.0142986
959.293	0.0141228
959.371	0.0142858
959.449	0.0142277
959.528	0.0141143
959.606	0.0143723
959.684	0.0142294
959.762	0.0141212
959.840	0.0141768
959.918	0.0142844
959.996	0.0142336
960.074	0.0142973
960.153	0.0143040
960.231	0.0143300
960.309	0.0143755
960.387	0.0143872
960.465	0.0143035
960.543	0.0142551
960.621	0.0143808
960.699	0.0143909
960.778	0.0143997
960.856	0.0143316
960.934	0.0143292
961.012	0.0142574
961.090	0.0144537
961.168	0.0143150
961.246	0.0142631
961.324	0.0143555
961.403	0.0143111
961.481	0.0142733
961.559	0.0141722
961.637	0.0140463
961.715	0.0142664
961.793	0.0143668
961.871	0.0143594
961.949	0.0142105
962.028	0.0144257
962.106	0.0143742
962.184	0.0143603
962.262	0.0144021
962.340	0.0145153
962.418	0.0144550
962.496	0.0143899
962.574	0.0142934
962.653	0.0143066
962.731	0.0140826
962.809	0.0140665
962.887	0.0141465
962.965	0.0141267
963.043	0.0140263
963.121	0.0140612
963.199	0.0141708
963.278	0.0140806
963.356	0.0141169
963.434	0.0143114
963.512	0.0145011
963.590	0.0144610
963.668	0.0146529
963.746	0.0144657
963.824	0.0145850
963.903	0.0145501
963.981	0.0145211
964.059	0.0144105
964.137	0.0143226
964.215	0.0141800
964.293	0.0140625
964.371	0.0139591
964.449	0.0140363
964.528	0.0140517
964.606	0.0139079
964.684	0.0139438
964.762	0.0139806
964.840	0.0139106
964.918	0.0141599
964.996	0.0141524
965.074	0.0141384
965.153	0.0141819
965.231	0.0144147
965.309	0.0144855
965.387	0.0146461
965.465	0.0146352
965.543	0.0145687
965.621	0.0146362
965.699	0.0145995
965.778	0.0144701
965.856	0.0145097
965.934	0.0143287
966.012	0.0141464
966.090	0.0141874
966.168	0.0140195
966.246	0.0139497
966.324	0.0138583
966.403	0.0139264
966.481	0.0137853
966.559	0.0139007
966.637	0.0139424
966.715	0.0140309
966.793	0.0140402
966.871	0.0141728
966.949	0.0141207
967.028	0.0142862
967.106	0.0143577
967.184	0.0141704
967.262	0.0143687
967.340	0.0144164
967.418	0.0145733
967.496	0.0145738
967.574	0.0143895
967.653	0.0143774
967.731	0.0142738
967.809	0.0144290
967.887	0.0143499
967.965	0.0142962
968.043	0.0142216
968.121	0.0141496
968.199	0.0142489
968.278	0.0141377
968.356	0.0140080
968.434	0.0139251
968.512	0.0139214
968.590	0.0139862
968.668	0.0139500
968.746	0.0140220
968.824	0.0140804
968.903	0.0140253
968.981	0.0140894
969.059	0.0141280
969.137	0.0141428
969.215	0.0142092
969.293	0.0141830
969.371	0.0142753
969.449	0.0142305
969.528	0.0142331
969.606	0.0144498
969.684	0.0142428
969.762	0.0143213
969.840	0.0144589
969.918	0.0143552
