05/08/2022	19:46:10	Ver.	4.1	UNKNOWN
Optical Delay	649.989667	Delta X		0.078125	Sweeps	1	Scan Rate	0/0
Coordinates	Axis 1	NaN	Axis 2	NaN	Axis 3	NaN	Axis 4	NaN	Axis 5	NaN	Axis 6	0.000000
TX Power	0.000000	RX Power	0.000000

649.990	0.0143733
650.068	0.0143959
650.146	0.0144833
650.224	0.0144104
650.302	0.0143964
650.380	0.0144247
650.458	0.0144348
650.537	0.0143716
650.615	0.0143872
650.693	0.0145143
650.771	0.0144218
650.849	0.0143013
650.927	0.0142508
651.005	0.0145063
651.083	0.0144021
651.162	0.0143340
651.240	0.0143002
651.318	0.0144141
651.396	0.0142680
651.474	0.0142384
651.552	0.0141922
651.630	0.0142262
651.708	0.0143587
651.787	0.0143576
651.865	0.0143546
651.943	0.0142699
652.021	0.0142841
652.099	0.0143643
652.177	0.0143843
652.255	0.0144241
652.333	0.0143118
652.412	0.0143439
652.490	0.0144569
652.568	0.0142905
652.646	0.0144247
652.724	0.0142648
652.802	0.0143048
652.880	0.0143695
652.958	0.0144757
653.037	0.0143578
653.115	0.0143089
653.193	0.0143990
653.271	0.0142995
653.349	0.0142679
653.427	0.0143259
653.505	0.0143919
653.583	0.0144489
653.662	0.0143440
653.740	0.0144221
653.818	0.0143188
653.896	0.0142759
653.974	0.0143554
654.052	0.0145142
654.130	0.0144376
654.208	0.0143119
654.287	0.0143663
654.365	0.0143201
654.443	0.0142512
654.521	0.0143461
654.599	0.0142568
654.677	0.0143378
654.755	0.0143226
654.833	0.0144061
654.912	0.0143405
654.990	0.0143958
655.068	0.0143210
655.146	0.0143790
655.224	0.0142899
655.302	0.0145638
655.380	0.0143958
655.458	0.0144136
655.537	0.0143247
655.615	0.0144580
655.693	0.0143979
655.771	0.0143501
655.849	0.0144082
655.927	0.0144034
656.005	0.0144435
656.083	0.0143088
656.162	0.0143552
656.240	0.0142422
656.318	0.0143063
656.396	0.0145486
656.474	0.0143784
656.552	0.0142967
656.630	0.0143002
656.708	0.0142294
656.787	0.0143207
656.865	0.0143575
656.943	0.0144097
657.021	0.0144274
657.099	0.0143693
657.177	0.0143571
657.255	0.0143878
657.333	0.0143246
657.412	0.0143493
657.490	0.0143986
657.568	0.0143140
657.646	0.0144247
657.724	0.0142604
657.802	0.0143720
657.880	0.0144524
657.958	0.0143221
658.037	0.0144691
658.115	0.0143497
658.193	0.0144137
658.271	0.0143206
658.349	0.0143793
658.427	0.0142891
658.505	0.0142482
658.583	0.0143225
658.662	0.0144540
658.740	0.0143750
658.818	0.0143027
658.896	0.0144032
658.974	0.0144028
659.052	0.0144711
659.130	0.0143961
659.208	0.0143857
659.287	0.0145284
659.365	0.0143726
659.443	0.0142849
659.521	0.0144373
659.599	0.0143598
659.677	0.0144553
659.755	0.0144946
659.833	0.0144034
659.912	0.0144966
659.990	0.0143343
660.068	0.0144028
660.146	0.0142390
660.224	0.0141950
660.302	0.0143597
660.380	0.0144289
660.458	0.0144083
660.537	0.0143195
660.615	0.0144293
660.693	0.0143517
660.771	0.0144432
660.849	0.0143613
660.927	0.0142908
661.005	0.0144602
661.083	0.0143616
661.162	0.0142982
661.240	0.0143879
661.318	0.0144206
661.396	0.0144444
661.474	0.0144426
661.552	0.0143550
661.630	0.0143491
661.708	0.0143610
661.787	0.0143516
661.865	0.0144044
661.943	0.0144543
662.021	0.0143934
662.099	0.0142843
662.177	0.0143188
662.255	0.0144309
662.333	0.0143640
662.412	0.0142703
662.490	0.0143649
662.568	0.0142676
662.646	0.0144566
662.724	0.0143735
662.802	0.0144859
662.880	0.0142944
662.958	0.0143108
663.037	0.0143905
663.115	0.0143961
663.193	0.0142790
663.271	0.0143490
663.349	0.0143540
663.427	0.0143628
663.505	0.0143300
663.583	0.0144135
663.662	0.0142953
663.740	0.0144350
663.818	0.0144838
663.896	0.0143766
663.974	0.0144115
664.052	0.0143666
664.130	0.0144278
664.208	0.0144122
664.287	0.0144027
664.365	0.0144196
664.443	0.0142645
664.521	0.0143546
664.599	0.0143736
664.677	0.0144790
664.755	0.0143923
664.833	0.0143674
664.912	0.0142733
664.990	0.0142532
665.068	0.0141971
665.146	0.0143700
665.224	0.0144287
665.302	0.0143660
665.380	0.0144109
665.458	0.0143275
665.537	0.0143431
665.615	0.0143406
665.693	0.0144183
665.771	0.0144218
665.849	0.0144449
665.927	0.0143832
666.005	0.0142825
666.083	0.0142275
666.162	0.0142403
666.240	0.0143188
666.318	0.0143539
666.396	0.0144824
666.474	0.0145427
666.552	0.0143522
666.630	0.0143489
666.708	0.0143185
666.787	0.0144453
666.865	0.0143376
666.943	0.0142823
667.021	0.0144885
667.099	0.0145254
667.177	0.0143671
667.255	0.0144173
667.333	0.0142495
667.412	0.0143373
667.490	0.0142200
667.568	0.0143381
667.646	0.0142181
667.724	0.0142668
667.802	0.0143868
667.880	0.0143189
667.958	0.0143520
668.037	0.0143839
668.115	0.0143242
668.193	0.0143611
668.271	0.0142581
668.349	0.0144096
668.427	0.0143368
668.505	0.0143684
668.583	0.0143821
668.662	0.0144178
668.740	0.0142103
668.818	0.0142685
668.896	0.0142294
668.974	0.0142954
669.052	0.0144036
669.130	0.0142424
669.208	0.0143449
669.287	0.0143751
669.365	0.0142624
669.443	0.0143505
669.521	0.0142040
669.599	0.0142144
669.677	0.0142958
669.755	0.0142583
669.833	0.0142659
669.912	0.0143508
669.990	0.0142706
670.068	0.0143214
670.146	0.0143755
670.224	0.0142695
670.302	0.0142914
670.380	0.0143871
670.458	0.0144952
670.537	0.0143302
670.615	0.0143247
670.693	0.0143744
670.771	0.0143269
670.849	0.0142382
670.927	0.0143209
671.005	0.0143005
671.083	0.0143311
671.162	0.0142194
671.240	0.0142850
671.318	0.0144994
671.396	0.0143671
671.474	0.0144028
671.552	0.0143381
671.630	0.0143773
671.708	0.0143237
671.787	0.0144144
671.865	0.0142921
671.943	0.0141869
672.021	0.0143556
672.099	0.0144324
672.177	0.0144958
672.255	0.0143803
672.333	0.0144004
672.412	0.0143166
672.490	0.0143384
672.568	0.0144157
672.646	0.0143749
672.724	0.0142747
672.802	0.0143586
672.880	0.0142654
672.958	0.0143860
673.037	0.0142714
673.115	0.0142784
673.193	0.0143842
673.271	0.0143930
673.349	0.0144449
673.427	0.0143548
673.505	0.0145271
673.583	0.0144875
673.662	0.0145782
673.740	0.0145435
673.818	0.0144579
673.896	0.0145651
673.974	0.0143420
674.052	0.0143205
674.130	0.0142635
674.208	0.0142605
674.287	0.0140627
674.365	0.0140973
674.443	0.0138956
674.521	0.0140481
674.599	0.0141061
674.677	0.0139507
674.755	0.0141186
674.833	0.0142112
674.912	0.0142873
674.990	0.0143206
675.068	0.0145837
675.146	0.0150631
675.224	0.0149458
675.302	0.0151363
675.380	0.0151348
675.458	0.0152264
675.537	0.0151403
675.615	0.0151482
675.693	0.0149154
675.771	0.0147355
675.849	0.0143489
675.927	0.0142319
676.005	0.0138004
676.083	0.0136589
676.162	0.0132590
676.240	0.0130888
676.318	0.0130594
676.396	0.0127882
676.474	0.0130163
676.552	0.0131487
676.630	0.0131855
676.708	0.0133923
676.787	0.0141174
676.865	0.0146703
676.943	0.0149712
677.021	0.0153436
677.099	0.0155634
677.177	0.0157414
677.255	0.0157568
677.333	0.0157547
677.412	0.0156310
677.490	0.0156275
677.568	0.0154579
677.646	0.0151138
677.724	0.0146890
677.802	0.0145422
677.880	0.0143367
677.958	0.0142834
678.037	0.0140573
678.115	0.0140316
678.193	0.0141333
678.271	0.0141480
678.349	0.0143021
678.427	0.0142413
678.505	0.0141759
678.583	0.0143511
678.662	0.0142001
678.740	0.0138939
678.818	0.0135209
678.896	0.0134186
678.974	0.0129966
679.052	0.0127673
679.130	0.0127200
679.208	0.0125887
679.287	0.0126437
679.365	0.0127748
679.443	0.0131672
679.521	0.0134299
679.599	0.0140355
679.677	0.0146320
679.755	0.0148688
679.833	0.0154375
679.912	0.0159180
679.990	0.0160091
680.068	0.0161590
680.146	0.0160667
680.224	0.0161045
680.302	0.0162045
680.380	0.0160131
680.458	0.0159451
680.537	0.0160616
680.615	0.0159971
680.693	0.0160573
680.771	0.0161484
680.849	0.0158994
680.927	0.0156905
681.005	0.0155458
681.083	0.0151982
681.162	0.0146262
681.240	0.0142163
681.318	0.0135885
681.396	0.0131099
681.474	0.0126054
681.552	0.0120483
681.630	0.0118024
681.708	0.0116252
681.787	0.0115121
681.865	0.0114782
681.943	0.0114736
682.021	0.0115393
682.099	0.0118805
682.177	0.0121016
682.255	0.0122916
682.333	0.0126442
682.412	0.0129114
682.490	0.0131572
682.568	0.0132240
682.646	0.0136279
682.724	0.0137068
682.802	0.0138859
682.880	0.0142883
682.958	0.0147296
683.037	0.0152583
683.115	0.0156670
683.193	0.0163509
683.271	0.0170359
683.349	0.0177528
683.427	0.0183984
683.505	0.0187909
683.583	0.0192625
683.662	0.0195718
683.740	0.0195251
683.818	0.0194402
683.896	0.0189848
683.974	0.0183559
684.052	0.0177141
684.130	0.0167556
684.208	0.0157118
684.287	0.0146133
684.365	0.0134369
684.443	0.0124978
684.521	0.0115900
684.599	0.0107674
684.677	0.00998909
684.755	0.00968483
684.833	0.00927055
684.912	0.00915497
684.990	0.00928986
685.068	0.00950569
685.146	0.00970879
685.224	0.0103450
685.302	0.0108196
685.380	0.0115363
685.458	0.0121915
685.537	0.0127878
685.615	0.0134370
685.693	0.0141612
685.771	0.0145972
685.849	0.0148329
685.927	0.0152088
686.005	0.0152955
686.083	0.0153671
686.162	0.0155730
686.240	0.0154334
686.318	0.0152233
686.396	0.0152282
686.474	0.0150420
686.552	0.0148728
686.630	0.0149924
686.708	0.0151167
686.787	0.0155569
686.865	0.0160232
686.943	0.0164151
687.021	0.0167665
687.099	0.0175613
687.177	0.0179085
687.255	0.0183091
687.333	0.0186432
687.412	0.0188745
687.490	0.0190482
687.568	0.0189500
687.646	0.0186880
687.724	0.0182887
687.802	0.0176692
687.880	0.0168605
687.958	0.0160976
688.037	0.0153555
688.115	0.0144794
688.193	0.0134946
688.271	0.0126422
688.349	0.0118246
688.427	0.0110988
688.505	0.0104416
688.583	0.00980957
688.662	0.00943710
688.740	0.00909729
688.818	0.00881432
688.896	0.00891426
688.974	0.00908600
689.052	0.00934540
689.130	0.00984009
689.208	0.0103751
689.287	0.0111881
689.365	0.0118956
689.443	0.0125047
689.521	0.0131530
689.599	0.0137074
689.677	0.0141562
689.755	0.0145444
689.833	0.0146296
689.912	0.0146964
689.990	0.0148200
690.068	0.0147013
690.146	0.0145477
690.224	0.0144002
690.302	0.0142918
690.380	0.0142821
690.458	0.0142766
690.537	0.0145269
690.615	0.0150405
690.693	0.0155521
690.771	0.0162617
690.849	0.0172177
690.927	0.0180986
691.005	0.0191239
691.083	0.0199173
691.162	0.0208247
691.240	0.0214994
691.318	0.0216845
691.396	0.0221059
691.474	0.0221688
691.552	0.0215279
691.630	0.0209150
691.708	0.0200698
691.787	0.0190563
691.865	0.0179006
691.943	0.0165424
692.021	0.0153559
692.099	0.0141626
692.177	0.0130714
692.255	0.0121896
692.333	0.0110678
692.412	0.0100859
692.490	0.00920113
692.568	0.00850845
692.646	0.00787216
692.724	0.00707512
692.802	0.00667595
692.880	0.00646980
692.958	0.00618805
693.037	0.00615028
693.115	0.00631729
693.193	0.00660362
693.271	0.00701431
693.349	0.00745911
693.427	0.00833267
693.505	0.00909309
693.583	0.00971947
693.662	0.0107062
693.740	0.0117616
693.818	0.0126262
693.896	0.0136401
693.974	0.0144987
694.052	0.0152225
694.130	0.0158939
694.208	0.0167420
694.287	0.0172474
694.365	0.0178712
694.443	0.0187183
694.521	0.0195523
694.599	0.0204048
694.677	0.0211975
694.755	0.0220222
694.833	0.0227487
694.912	0.0233782
694.990	0.0234666
695.068	0.0236376
695.146	0.0236172
695.224	0.0230236
695.302	0.0222639
695.380	0.0214491
695.458	0.0201602
695.537	0.0190484
695.615	0.0177821
695.693	0.0162885
695.771	0.0147909
695.849	0.0133363
695.927	0.0122647
696.005	0.0108952
696.083	0.00991837
696.162	0.00922302
696.240	0.00865349
696.318	0.00829765
696.396	0.00817360
696.474	0.00808418
696.552	0.00797333
696.630	0.00790329
696.708	0.00817711
696.787	0.00843567
696.865	0.00869469
696.943	0.00916435
697.021	0.00968109
697.099	0.0103265
697.177	0.0107693
697.255	0.0113708
697.333	0.0120164
697.412	0.0125088
697.490	0.0130544
697.568	0.0135184
697.646	0.0137793
697.724	0.0140064
697.802	0.0141744
697.880	0.0141787
697.958	0.0141846
698.037	0.0141827
698.115	0.0140900
698.193	0.0139301
698.271	0.0140696
698.349	0.0142548
698.427	0.0145473
698.505	0.0150000
698.583	0.0154194
698.662	0.0162460
698.740	0.0169943
698.818	0.0180347
698.896	0.0188638
698.974	0.0195566
699.052	0.0202414
699.130	0.0208777
699.208	0.0209888
699.287	0.0209653
699.365	0.0209357
699.443	0.0205379
699.521	0.0198163
699.599	0.0190490
699.677	0.0182150
699.755	0.0170226
699.833	0.0162631
699.912	0.0153033
699.990	0.0145018
700.068	0.0136436
700.146	0.0133116
700.224	0.0125771
700.302	0.0121568
700.380	0.0117100
700.458	0.0115324
700.537	0.0112131
700.615	0.0110085
700.693	0.0107931
700.771	0.0107005
700.849	0.0105735
700.927	0.0105602
701.005	0.0106729
701.083	0.0107250
701.162	0.0109014
701.240	0.0109185
701.318	0.0109645
701.396	0.0113420
701.474	0.0116800
701.552	0.0117649
701.630	0.0122271
701.708	0.0124333
701.787	0.0126245
701.865	0.0128447
701.943	0.0131742
702.021	0.0135307
702.099	0.0137776
702.177	0.0140211
702.255	0.0144508
702.333	0.0148948
702.412	0.0151637
702.490	0.0156345
702.568	0.0161363
702.646	0.0166846
702.724	0.0169334
702.802	0.0172990
702.880	0.0177550
702.958	0.0177769
703.037	0.0179636
703.115	0.0178896
703.193	0.0176199
703.271	0.0174435
703.349	0.0172416
703.427	0.0167797
703.505	0.0162302
703.583	0.0157761
703.662	0.0152102
703.740	0.0146695
703.818	0.0142240
703.896	0.0138586
703.974	0.0134576
704.052	0.0131853
704.130	0.0127966
704.208	0.0129034
704.287	0.0129969
704.365	0.0130479
704.443	0.0129951
704.521	0.0131190
704.599	0.0131890
704.677	0.0133473
704.755	0.0136231
704.833	0.0135389
704.912	0.0136433
704.990	0.0137952
705.068	0.0138271
705.146	0.0138274
705.224	0.0138752
705.302	0.0140089
705.380	0.0141744
705.458	0.0141891
705.537	0.0142814
705.615	0.0145600
705.693	0.0145457
705.771	0.0147627
705.849	0.0149347
705.927	0.0150314
706.005	0.0152492
706.083	0.0153363
706.162	0.0152126
706.240	0.0151733
706.318	0.0150151
706.396	0.0151623
706.474	0.0149316
706.552	0.0145791
706.630	0.0142593
706.708	0.0140544
706.787	0.0137492
706.865	0.0135815
706.943	0.0133598
707.021	0.0130702
707.099	0.0129889
707.177	0.0130346
707.255	0.0130939
707.333	0.0131113
707.412	0.0132649
707.490	0.0133624
707.568	0.0136060
707.646	0.0139633
707.724	0.0139629
707.802	0.0142091
707.880	0.0144714
707.958	0.0148569
708.037	0.0148747
708.115	0.0150647
708.193	0.0152760
708.271	0.0152690
708.349	0.0152389
708.427	0.0153863
708.505	0.0155339
708.583	0.0152805
708.662	0.0149870
708.740	0.0149933
708.818	0.0149440
708.896	0.0148270
708.974	0.0146514
709.052	0.0145652
709.130	0.0142303
709.208	0.0141256
709.287	0.0139069
709.365	0.0138874
709.443	0.0136113
709.521	0.0136786
709.599	0.0135859
709.677	0.0135412
709.755	0.0137303
709.833	0.0136781
709.912	0.0139773
709.990	0.0140254
710.068	0.0143509
710.146	0.0145499
710.224	0.0148259
710.302	0.0149239
710.380	0.0149859
710.458	0.0152478
710.537	0.0153797
710.615	0.0154921
710.693	0.0153427
710.771	0.0155770
710.849	0.0154846
710.927	0.0156237
711.005	0.0154688
711.083	0.0153162
711.162	0.0154175
711.240	0.0152153
711.318	0.0151697
711.396	0.0150506
711.474	0.0147075
711.552	0.0145351
711.630	0.0142406
711.708	0.0140386
711.787	0.0137271
711.865	0.0136743
711.943	0.0131561
712.021	0.0129539
712.099	0.0129703
712.177	0.0128635
712.255	0.0129224
712.333	0.0127374
712.412	0.0128712
712.490	0.0129432
712.568	0.0130137
712.646	0.0132923
712.724	0.0135384
712.802	0.0136028
712.880	0.0137282
712.958	0.0140401
713.037	0.0142700
713.115	0.0144022
713.193	0.0146348
713.271	0.0147905
713.349	0.0150138
713.427	0.0152101
713.505	0.0154580
713.583	0.0153787
713.662	0.0155374
713.740	0.0155495
713.818	0.0155938
713.896	0.0155366
713.974	0.0156066
714.052	0.0155476
714.130	0.0154808
714.208	0.0152934
714.287	0.0151976
714.365	0.0152206
714.443	0.0149786
714.521	0.0147134
714.599	0.0144032
714.677	0.0141763
714.755	0.0138847
714.833	0.0138109
714.912	0.0135851
714.990	0.0134364
715.068	0.0133037
715.146	0.0132777
715.224	0.0131598
715.302	0.0131759
715.380	0.0130582
715.458	0.0131542
715.537	0.0131374
715.615	0.0134323
715.693	0.0136761
715.771	0.0138900
715.849	0.0141732
715.927	0.0143263
716.005	0.0146490
716.083	0.0148552
716.162	0.0149603
716.240	0.0150266
716.318	0.0152000
716.396	0.0151692
716.474	0.0151782
716.552	0.0152171
716.630	0.0151645
716.708	0.0150822
716.787	0.0151431
716.865	0.0150429
716.943	0.0150309
717.021	0.0149269
717.099	0.0148927
717.177	0.0147611
717.255	0.0149686
717.333	0.0147675
717.412	0.0148090
717.490	0.0150152
717.568	0.0149418
717.646	0.0148080
717.724	0.0147939
717.802	0.0147398
717.880	0.0145659
717.958	0.0144703
718.037	0.0142986
718.115	0.0141045
718.193	0.0138912
718.271	0.0136680
718.349	0.0133511
718.427	0.0132911
718.505	0.0131523
718.583	0.0131463
718.662	0.0133543
718.740	0.0133922
718.818	0.0134911
718.896	0.0137128
718.974	0.0140153
719.052	0.0142634
719.130	0.0144521
719.208	0.0145928
719.287	0.0149292
719.365	0.0152431
719.443	0.0152670
719.521	0.0153539
719.599	0.0154115
719.677	0.0154362
719.755	0.0152397
719.833	0.0150462
719.912	0.0148638
719.990	0.0146558
720.068	0.0143520
720.146	0.0139952
720.224	0.0138496
720.302	0.0135070
720.380	0.0132674
720.458	0.0129894
720.537	0.0128357
720.615	0.0127862
720.693	0.0127980
720.771	0.0128520
720.849	0.0128144
720.927	0.0128815
721.005	0.0130984
721.083	0.0132446
721.162	0.0133566
721.240	0.0136551
721.318	0.0140252
721.396	0.0141812
721.474	0.0143733
721.552	0.0145342
721.630	0.0148058
721.708	0.0150325
721.787	0.0151775
721.865	0.0154128
721.943	0.0155216
722.021	0.0156479
722.099	0.0159208
722.177	0.0161819
722.255	0.0160487
722.333	0.0161002
722.412	0.0160249
722.490	0.0162215
722.568	0.0160873
722.646	0.0159900
722.724	0.0157237
722.802	0.0156470
722.880	0.0152820
722.958	0.0152160
723.037	0.0150755
723.115	0.0148223
723.193	0.0146124
723.271	0.0143976
723.349	0.0143598
723.427	0.0141925
723.505	0.0140511
723.583	0.0138413
723.662	0.0139034
723.740	0.0137171
723.818	0.0135173
723.896	0.0134068
723.974	0.0134528
724.052	0.0131670
724.130	0.0131377
724.208	0.0130946
724.287	0.0129253
724.365	0.0132067
724.443	0.0134265
724.521	0.0133141
724.599	0.0134482
724.677	0.0137787
724.755	0.0139165
724.833	0.0139638
724.912	0.0141557
724.990	0.0140003
725.068	0.0140756
725.146	0.0143830
725.224	0.0142808
725.302	0.0139794
725.380	0.0139895
725.458	0.0140034
725.537	0.0139060
725.615	0.0137868
725.693	0.0137907
725.771	0.0137909
725.849	0.0137215
725.927	0.0137425
726.005	0.0137736
726.083	0.0138552
726.162	0.0139994
726.240	0.0138511
726.318	0.0139422
726.396	0.0140927
726.474	0.0141739
726.552	0.0141852
726.630	0.0143393
726.708	0.0145415
726.787	0.0144971
726.865	0.0146431
726.943	0.0147650
727.021	0.0148667
727.099	0.0151028
727.177	0.0150676
727.255	0.0152373
727.333	0.0153732
727.412	0.0153124
727.490	0.0154995
727.568	0.0156192
727.646	0.0157284
727.724	0.0157089
727.802	0.0157156
727.880	0.0156294
727.958	0.0155814
728.037	0.0154970
728.115	0.0155686
728.193	0.0153843
728.271	0.0149596
728.349	0.0150219
728.427	0.0149681
728.505	0.0147105
728.583	0.0144359
728.662	0.0140192
728.740	0.0139646
728.818	0.0137228
728.896	0.0135027
728.974	0.0133382
729.052	0.0131973
729.130	0.0130270
729.208	0.0132612
729.287	0.0131556
729.365	0.0132351
729.443	0.0133971
729.521	0.0134918
729.599	0.0135465
729.677	0.0137789
729.755	0.0139706
729.833	0.0139702
729.912	0.0141367
729.990	0.0141796
730.068	0.0141436
730.146	0.0141150
730.224	0.0141391
730.302	0.0141055
730.380	0.0141309
730.458	0.0140237
730.537	0.0140935
730.615	0.0141917
730.693	0.0143030
730.771	0.0145142
730.849	0.0145003
730.927	0.0143491
731.005	0.0144980
731.083	0.0146729
731.162	0.0145488
731.240	0.0145836
731.318	0.0146192
731.396	0.0146048
731.474	0.0146169
731.552	0.0144366
731.630	0.0144182
731.708	0.0142970
731.787	0.0142161
731.865	0.0142833
731.943	0.0140782
732.021	0.0141175
732.099	0.0141471
732.177	0.0140071
732.255	0.0140008
732.333	0.0139816
732.412	0.0139746
732.490	0.0140490
732.568	0.0142713
732.646	0.0143529
732.724	0.0144612
732.802	0.0145520
732.880	0.0145950
732.958	0.0148524
733.037	0.0150031
733.115	0.0150250
733.193	0.0150494
733.271	0.0149716
733.349	0.0150547
733.427	0.0152250
733.505	0.0152431
733.583	0.0151134
733.662	0.0150702
733.740	0.0149788
733.818	0.0149163
733.896	0.0148374
733.974	0.0147669
734.052	0.0148244
734.130	0.0147481
734.208	0.0146107
734.287	0.0147356
734.365	0.0146087
734.443	0.0146660
734.521	0.0144553
734.599	0.0143944
734.677	0.0145738
734.755	0.0145190
734.833	0.0145036
734.912	0.0144153
734.990	0.0144482
735.068	0.0143678
735.146	0.0143761
735.224	0.0143332
735.302	0.0142056
735.380	0.0142986
735.458	0.0143251
735.537	0.0142953
735.615	0.0144054
735.693	0.0141575
735.771	0.0142325
735.849	0.0141303
735.927	0.0141383
736.005	0.0140907
736.083	0.0139658
736.162	0.0138998
736.240	0.0138343
736.318	0.0138524
736.396	0.0137518
736.474	0.0140025
736.552	0.0139716
736.630	0.0138453
736.708	0.0139989
736.787	0.0141796
736.865	0.0142101
736.943	0.0142072
737.021	0.0143085
737.099	0.0143783
737.177	0.0144846
737.255	0.0143832
737.333	0.0145106
737.412	0.0144366
737.490	0.0143951
737.568	0.0143704
737.646	0.0143348
737.724	0.0142120
737.802	0.0142428
737.880	0.0142868
737.958	0.0142923
738.037	0.0142498
738.115	0.0142990
738.193	0.0143459
738.271	0.0143106
738.349	0.0144079
738.427	0.0146337
738.505	0.0146716
738.583	0.0144916
738.662	0.0146832
738.740	0.0147332
738.818	0.0146870
738.896	0.0146423
738.974	0.0147914
739.052	0.0148667
739.130	0.0147160
739.208	0.0145477
739.287	0.0147917
739.365	0.0147508
739.443	0.0146281
739.521	0.0147406
739.599	0.0147201
739.677	0.0148174
739.755	0.0146411
739.833	0.0146491
739.912	0.0145667
739.990	0.0146075
740.068	0.0146423
740.146	0.0145199
740.224	0.0146147
740.302	0.0146976
740.380	0.0144545
740.458	0.0145924
740.537	0.0145429
740.615	0.0145292
740.693	0.0145988
740.771	0.0145605
740.849	0.0146423
740.927	0.0147935
741.005	0.0145092
741.083	0.0144816
741.162	0.0145271
741.240	0.0144937
741.318	0.0141974
741.396	0.0142598
741.474	0.0140897
741.552	0.0141270
741.630	0.0140513
741.708	0.0139764
741.787	0.0139861
741.865	0.0139616
741.943	0.0139989
742.021	0.0138725
742.099	0.0138935
742.177	0.0138777
742.255	0.0138195
742.333	0.0137712
742.412	0.0138557
742.490	0.0138545
742.568	0.0140493
742.646	0.0141093
742.724	0.0141563
742.802	0.0143048
742.880	0.0143243
742.958	0.0144456
743.037	0.0142985
743.115	0.0144081
743.193	0.0144186
743.271	0.0143855
743.349	0.0144843
743.427	0.0142484
743.505	0.0143339
743.583	0.0143911
743.662	0.0144114
743.740	0.0143393
743.818	0.0143257
743.896	0.0142559
743.974	0.0144211
744.052	0.0143173
744.130	0.0142869
744.208	0.0144762
744.287	0.0144509
744.365	0.0143912
744.443	0.0142425
744.521	0.0143722
744.599	0.0143162
744.677	0.0143326
744.755	0.0142899
744.833	0.0141551
744.912	0.0142245
744.990	0.0140385
745.068	0.0142446
745.146	0.0143383
745.224	0.0141931
745.302	0.0143434
745.380	0.0143070
745.458	0.0144868
745.537	0.0144491
745.615	0.0146431
745.693	0.0146523
745.771	0.0145725
745.849	0.0144616
745.927	0.0144044
746.005	0.0145302
746.083	0.0145986
746.162	0.0147291
746.240	0.0145895
746.318	0.0145134
746.396	0.0145366
746.474	0.0146549
746.552	0.0146659
746.630	0.0145547
746.708	0.0146841
746.787	0.0146232
746.865	0.0144182
746.943	0.0143617
747.021	0.0143655
747.099	0.0144032
747.177	0.0142767
747.255	0.0142789
747.333	0.0142149
747.412	0.0140846
747.490	0.0141717
747.568	0.0140997
747.646	0.0140478
747.724	0.0140234
747.802	0.0140720
747.880	0.0140591
747.958	0.0138659
748.037	0.0139295
748.115	0.0140614
748.193	0.0139688
748.271	0.0139291
748.349	0.0139604
748.427	0.0140186
748.505	0.0139556
748.583	0.0138051
748.662	0.0138757
748.740	0.0140430
748.818	0.0141598
748.896	0.0140093
748.974	0.0140140
749.052	0.0141744
749.130	0.0142239
749.208	0.0143218
749.287	0.0142488
749.365	0.0142999
749.443	0.0143219
749.521	0.0142189
749.599	0.0144411
749.677	0.0143118
749.755	0.0141575
749.833	0.0142331
749.912	0.0144234
749.990	0.0144916
750.068	0.0143675
750.146	0.0145531
750.224	0.0146696
750.302	0.0145912
750.380	0.0146190
750.458	0.0145120
750.537	0.0145653
750.615	0.0146252
750.693	0.0145078
750.771	0.0144181
750.849	0.0146325
750.927	0.0144865
751.005	0.0145020
751.083	0.0145493
751.162	0.0145217
751.240	0.0145899
751.318	0.0145584
751.396	0.0144413
751.474	0.0146402
751.552	0.0145815
751.630	0.0143517
751.708	0.0144396
751.787	0.0145472
751.865	0.0143935
751.943	0.0143402
752.021	0.0144332
752.099	0.0142462
752.177	0.0143004
752.255	0.0143800
752.333	0.0142164
752.412	0.0140990
752.490	0.0142650
752.568	0.0141138
752.646	0.0142117
752.724	0.0141534
752.802	0.0141903
752.880	0.0143895
752.958	0.0143377
753.037	0.0141705
753.115	0.0143262
753.193	0.0142230
753.271	0.0141848
753.349	0.0141386
753.427	0.0143478
753.505	0.0143212
753.583	0.0142820
753.662	0.0142809
753.740	0.0144783
753.818	0.0143648
753.896	0.0144254
753.974	0.0145747
754.052	0.0145392
754.130	0.0147172
754.208	0.0145984
754.287	0.0146220
754.365	0.0144852
754.443	0.0145612
754.521	0.0146853
754.599	0.0145827
754.677	0.0146826
754.755	0.0145409
754.833	0.0145422
754.912	0.0144577
754.990	0.0143953
755.068	0.0142031
755.146	0.0143195
755.224	0.0141840
755.302	0.0140358
755.380	0.0139754
755.458	0.0140514
755.537	0.0139267
755.615	0.0140076
755.693	0.0141733
755.771	0.0141764
755.849	0.0139828
755.927	0.0139636
756.005	0.0141988
756.083	0.0141352
756.162	0.0142179
756.240	0.0143043
756.318	0.0142711
756.396	0.0144411
756.474	0.0143550
756.552	0.0144736
756.630	0.0144962
756.708	0.0144737
756.787	0.0145469
756.865	0.0145215
756.943	0.0144881
757.021	0.0145517
757.099	0.0145380
757.177	0.0145724
757.255	0.0144581
757.333	0.0143338
757.412	0.0144146
757.490	0.0145052
757.568	0.0146419
757.646	0.0145284
757.724	0.0145296
757.802	0.0145250
757.880	0.0144382
757.958	0.0143507
758.037	0.0144768
758.115	0.0144389
758.193	0.0144447
758.271	0.0142571
758.349	0.0142066
758.427	0.0141566
758.505	0.0140727
758.583	0.0142287
758.662	0.0139371
758.740	0.0140595
758.818	0.0141284
758.896	0.0140993
758.974	0.0140830
759.052	0.0141557
759.130	0.0142606
759.208	0.0142786
759.287	0.0143404
759.365	0.0144161
759.443	0.0145065
759.521	0.0146127
759.599	0.0145844
759.677	0.0146051
759.755	0.0147154
759.833	0.0147037
759.912	0.0147322
759.990	0.0144900
760.068	0.0146518
760.146	0.0146419
760.224	0.0147027
760.302	0.0147498
760.380	0.0146312
760.458	0.0145193
760.537	0.0147036
760.615	0.0145807
760.693	0.0146098
760.771	0.0145945
760.849	0.0146000
760.927	0.0145366
761.005	0.0144758
761.083	0.0143170
761.162	0.0144424
761.240	0.0143872
761.318	0.0145027
761.396	0.0141747
761.474	0.0142150
761.552	0.0139495
761.630	0.0140917
761.708	0.0141226
761.787	0.0141655
761.865	0.0140398
761.943	0.0142050
762.021	0.0141848
762.099	0.0143183
762.177	0.0143050
762.255	0.0144147
762.333	0.0142444
762.412	0.0144526
762.490	0.0144778
762.568	0.0143806
762.646	0.0143916
762.724	0.0143610
762.802	0.0144675
762.880	0.0142729
762.958	0.0142271
763.037	0.0143032
763.115	0.0142915
763.193	0.0142217
763.271	0.0141432
763.349	0.0141702
763.427	0.0143278
763.505	0.0141310
763.583	0.0140677
763.662	0.0143526
763.740	0.0143346
763.818	0.0144139
763.896	0.0144334
763.974	0.0142583
764.052	0.0143800
764.130	0.0143793
764.208	0.0144685
764.287	0.0142645
764.365	0.0143656
764.443	0.0143296
764.521	0.0143216
764.599	0.0143663
764.677	0.0143514
764.755	0.0144150
764.833	0.0144650
764.912	0.0144493
764.990	0.0143829
765.068	0.0144194
765.146	0.0143607
765.224	0.0143244
765.302	0.0143906
765.380	0.0145210
765.458	0.0145603
765.537	0.0145712
765.615	0.0145893
765.693	0.0146125
765.771	0.0147169
765.849	0.0148518
765.927	0.0147052
766.005	0.0148949
766.083	0.0147590
766.162	0.0147655
766.240	0.0146507
766.318	0.0146571
766.396	0.0145399
766.474	0.0143813
766.552	0.0143864
766.630	0.0142689
766.708	0.0143097
766.787	0.0140355
766.865	0.0140228
766.943	0.0140707
767.021	0.0140202
767.099	0.0140547
767.177	0.0141000
767.255	0.0140144
767.333	0.0140979
767.412	0.0141396
767.490	0.0141648
767.568	0.0141418
767.646	0.0141119
767.724	0.0142023
767.802	0.0143322
767.880	0.0143278
767.958	0.0143063
768.037	0.0143147
768.115	0.0141572
768.193	0.0140564
768.271	0.0140864
768.349	0.0141967
768.427	0.0142043
768.505	0.0141185
768.583	0.0143182
768.662	0.0142786
768.740	0.0143636
768.818	0.0144439
768.896	0.0144598
768.974	0.0145876
769.052	0.0145329
769.130	0.0145540
769.208	0.0145630
769.287	0.0145937
769.365	0.0144919
769.443	0.0144650
769.521	0.0145461
769.599	0.0145232
769.677	0.0145277
769.755	0.0144855
769.833	0.0143573
769.912	0.0143748
769.990	0.0143497
770.068	0.0144104
770.146	0.0142231
770.224	0.0144316
770.302	0.0141812
770.380	0.0143408
770.458	0.0143859
770.537	0.0143462
770.615	0.0142486
770.693	0.0142818
770.771	0.0142895
770.849	0.0142513
770.927	0.0143049
771.005	0.0142715
771.083	0.0142927
771.162	0.0141544
771.240	0.0141970
771.318	0.0142812
771.396	0.0143633
771.474	0.0142650
771.552	0.0141228
771.630	0.0141349
771.708	0.0141057
771.787	0.0141450
771.865	0.0141870
771.943	0.0139918
772.021	0.0141084
772.099	0.0140427
772.177	0.0139619
772.255	0.0139965
772.333	0.0140706
772.412	0.0140307
772.490	0.0141283
772.568	0.0142050
772.646	0.0144009
772.724	0.0143542
772.802	0.0142806
772.880	0.0144373
772.958	0.0145980
773.037	0.0143722
773.115	0.0144603
773.193	0.0144248
773.271	0.0145300
773.349	0.0145245
773.427	0.0144117
773.505	0.0143346
773.583	0.0142823
773.662	0.0142940
773.740	0.0143933
773.818	0.0142583
773.896	0.0141893
773.974	0.0141830
774.052	0.0142350
774.130	0.0140967
774.208	0.0142377
774.287	0.0143942
774.365	0.0142967
774.443	0.0140922
774.521	0.0141535
774.599	0.0142057
774.677	0.0143232
774.755	0.0142057
774.833	0.0143118
774.912	0.0142978
774.990	0.0143134
775.068	0.0142715
775.146	0.0144313
775.224	0.0143423
775.302	0.0142677
775.380	0.0144100
775.458	0.0143787
775.537	0.0144212
775.615	0.0145137
775.693	0.0143771
775.771	0.0142875
775.849	0.0143900
775.927	0.0144389
776.005	0.0144345
776.083	0.0143047
776.162	0.0144077
776.240	0.0144292
776.318	0.0143160
776.396	0.0143659
776.474	0.0144827
776.552	0.0143215
776.630	0.0143940
776.708	0.0144349
776.787	0.0143063
776.865	0.0143417
776.943	0.0143525
777.021	0.0146191
777.099	0.0144632
777.177	0.0143399
777.255	0.0144419
777.333	0.0142922
777.412	0.0143396
777.490	0.0144102
777.568	0.0142657
777.646	0.0141950
777.724	0.0143578
777.802	0.0143121
777.880	0.0142650
777.958	0.0140627
778.037	0.0141075
778.115	0.0142111
778.193	0.0142529
778.271	0.0139985
778.349	0.0140777
778.427	0.0141569
778.505	0.0140206
778.583	0.0141541
778.662	0.0143834
778.740	0.0142527
778.818	0.0142346
778.896	0.0143205
778.974	0.0143523
779.052	0.0143111
779.130	0.0143063
779.208	0.0144548
779.287	0.0145200
779.365	0.0143813
779.443	0.0145738
779.521	0.0145016
779.599	0.0145056
779.677	0.0145178
779.755	0.0145332
779.833	0.0145741
779.912	0.0145945
779.990	0.0145749
780.068	0.0144425
780.146	0.0144215
780.224	0.0145315
780.302	0.0145882
780.380	0.0145440
780.458	0.0145359
780.537	0.0145370
780.615	0.0146431
780.693	0.0147031
780.771	0.0145560
780.849	0.0146918
780.927	0.0145217
781.005	0.0147400
781.083	0.0146495
781.162	0.0146297
781.240	0.0145527
781.318	0.0146494
781.396	0.0143933
781.474	0.0143008
781.552	0.0143434
781.630	0.0142857
781.708	0.0141473
781.787	0.0140185
781.865	0.0139308
781.943	0.0139465
782.021	0.0139017
782.099	0.0139236
782.177	0.0139567
782.255	0.0139827
782.333	0.0138567
782.412	0.0138566
782.490	0.0140459
782.568	0.0141062
782.646	0.0140697
782.724	0.0143241
782.802	0.0142512
782.880	0.0142604
782.958	0.0145651
783.037	0.0145278
783.115	0.0145839
783.193	0.0147932
783.271	0.0148262
783.349	0.0147260
783.427	0.0148038
783.505	0.0148123
783.583	0.0149606
783.662	0.0149306
783.740	0.0149605
783.818	0.0149061
783.896	0.0148885
783.974	0.0149508
784.052	0.0150093
784.130	0.0148666
784.208	0.0146936
784.287	0.0147321
784.365	0.0146357
784.443	0.0147110
784.521	0.0144299
784.599	0.0143449
784.677	0.0144167
784.755	0.0144077
784.833	0.0143003
784.912	0.0140747
784.990	0.0140139
785.068	0.0139063
785.146	0.0138386
785.224	0.0137630
785.302	0.0136945
785.380	0.0136766
785.458	0.0136533
785.537	0.0137624
785.615	0.0135117
785.693	0.0134406
785.771	0.0136250
785.849	0.0136311
785.927	0.0136180
786.005	0.0136576
786.083	0.0138284
786.162	0.0139182
786.240	0.0138432
786.318	0.0139581
786.396	0.0142176
786.474	0.0142056
786.552	0.0142793
786.630	0.0144005
786.708	0.0145169
786.787	0.0145770
786.865	0.0145431
786.943	0.0146476
787.021	0.0146980
787.099	0.0147064
787.177	0.0148578
787.255	0.0147475
787.333	0.0147077
787.412	0.0147519
787.490	0.0148624
787.568	0.0147591
787.646	0.0149133
787.724	0.0150475
787.802	0.0149826
787.880	0.0149533
787.958	0.0148069
788.037	0.0148193
788.115	0.0149224
788.193	0.0148666
788.271	0.0148831
788.349	0.0146355
788.427	0.0146147
788.505	0.0147042
788.583	0.0145058
788.662	0.0144614
788.740	0.0143750
788.818	0.0143835
788.896	0.0143316
788.974	0.0140960
789.052	0.0139612
789.130	0.0140563
789.208	0.0139435
789.287	0.0139157
789.365	0.0138253
789.443	0.0136538
789.521	0.0136455
789.599	0.0135132
789.677	0.0136624
789.755	0.0134597
789.833	0.0134026
789.912	0.0135536
789.990	0.0135037
790.068	0.0135196
790.146	0.0135529
790.224	0.0136175
790.302	0.0136079
790.380	0.0137036
790.458	0.0137104
790.537	0.0138621
790.615	0.0140077
790.693	0.0140463
790.771	0.0141978
790.849	0.0142921
790.927	0.0143369
791.005	0.0144651
791.083	0.0144614
791.162	0.0145714
791.240	0.0146677
791.318	0.0147707
791.396	0.0148504
791.474	0.0149419
791.552	0.0150318
791.630	0.0149236
791.708	0.0150567
791.787	0.0152415
791.865	0.0152162
791.943	0.0152930
792.021	0.0152634
792.099	0.0152921
792.177	0.0152839
792.255	0.0150188
792.333	0.0149663
792.412	0.0149149
792.490	0.0149973
792.568	0.0149506
792.646	0.0146449
792.724	0.0145641
792.802	0.0144853
792.880	0.0143020
792.958	0.0141315
793.037	0.0139793
793.115	0.0138989
793.193	0.0137202
793.271	0.0134669
793.349	0.0134987
793.427	0.0134477
793.505	0.0133597
793.583	0.0132410
793.662	0.0132909
793.740	0.0133066
793.818	0.0133978
793.896	0.0134157
793.974	0.0133633
794.052	0.0136964
794.130	0.0137202
794.208	0.0137578
794.287	0.0140680
794.365	0.0140353
794.443	0.0141457
794.521	0.0144930
794.599	0.0143661
794.677	0.0144635
794.755	0.0147398
794.833	0.0148611
794.912	0.0149874
794.990	0.0150089
795.068	0.0151099
795.146	0.0151326
795.224	0.0150488
795.302	0.0150117
795.380	0.0150021
795.458	0.0149448
795.537	0.0149333
795.615	0.0149729
795.693	0.0147514
795.771	0.0147338
795.849	0.0147458
795.927	0.0145868
796.005	0.0144997
796.083	0.0144641
796.162	0.0144716
796.240	0.0142475
796.318	0.0142789
796.396	0.0141958
796.474	0.0142532
796.552	0.0142810
796.630	0.0141361
796.708	0.0142436
796.787	0.0141602
796.865	0.0141651
796.943	0.0139346
797.021	0.0139420
797.099	0.0140174
797.177	0.0139034
797.255	0.0140245
797.333	0.0139429
797.412	0.0139614
797.490	0.0139439
797.568	0.0140634
797.646	0.0141157
797.724	0.0140440
797.802	0.0139870
797.880	0.0141816
797.958	0.0140968
798.037	0.0141196
798.115	0.0140839
798.193	0.0141341
798.271	0.0143350
798.349	0.0143660
798.427	0.0144157
798.505	0.0142711
798.583	0.0144108
798.662	0.0143829
798.740	0.0145202
798.818	0.0145599
798.896	0.0145709
798.974	0.0146440
799.052	0.0147218
799.130	0.0146699
799.208	0.0146404
799.287	0.0148106
799.365	0.0147598
799.443	0.0146755
799.521	0.0146464
799.599	0.0147218
799.677	0.0145731
799.755	0.0145467
799.833	0.0145327
799.912	0.0145211
799.990	0.0146078
800.068	0.0144242
800.146	0.0144759
800.224	0.0145753
800.302	0.0143162
800.380	0.0145405
800.458	0.0145639
800.537	0.0145380
800.615	0.0144771
800.693	0.0145654
800.771	0.0146704
800.849	0.0144472
800.927	0.0143726
801.005	0.0144159
801.083	0.0145017
801.162	0.0144199
801.240	0.0145164
801.318	0.0143649
801.396	0.0144516
801.474	0.0145172
801.552	0.0144984
801.630	0.0142935
801.708	0.0142882
801.787	0.0143660
801.865	0.0142674
801.943	0.0142121
802.021	0.0142832
802.099	0.0143998
802.177	0.0143027
802.255	0.0142993
802.333	0.0143848
802.412	0.0143999
802.490	0.0144435
802.568	0.0142247
802.646	0.0143803
802.724	0.0144408
802.802	0.0145619
802.880	0.0144098
802.958	0.0144788
803.037	0.0145207
803.115	0.0143516
803.193	0.0144824
803.271	0.0144022
803.349	0.0142780
803.427	0.0144348
803.505	0.0142793
803.583	0.0143097
803.662	0.0144590
803.740	0.0143364
803.818	0.0141972
803.896	0.0143196
803.974	0.0142396
804.052	0.0141779
804.130	0.0142393
804.208	0.0142354
804.287	0.0141967
804.365	0.0142838
804.443	0.0142899
804.521	0.0142412
804.599	0.0141891
804.677	0.0141607
804.755	0.0141066
804.833	0.0142732
804.912	0.0143604
804.990	0.0141465
805.068	0.0142687
805.146	0.0142262
805.224	0.0142060
805.302	0.0142280
805.380	0.0143128
805.458	0.0142336
805.537	0.0143629
805.615	0.0143375
805.693	0.0143750
805.771	0.0144031
805.849	0.0145277
805.927	0.0146197
806.005	0.0145385
806.083	0.0145975
806.162	0.0145585
806.240	0.0146101
806.318	0.0146252
806.396	0.0146339
806.474	0.0146764
806.552	0.0147066
806.630	0.0146228
806.708	0.0145993
806.787	0.0145337
806.865	0.0145081
806.943	0.0145096
807.021	0.0144312
807.099	0.0143582
807.177	0.0143106
807.255	0.0143639
807.333	0.0143771
807.412	0.0144122
807.490	0.0143655
807.568	0.0141253
807.646	0.0142229
807.724	0.0141669
807.802	0.0141864
807.880	0.0142666
807.958	0.0141306
808.037	0.0142673
808.115	0.0143038
808.193	0.0142785
808.271	0.0143598
808.349	0.0143446
808.427	0.0144823
808.505	0.0143815
808.583	0.0144311
808.662	0.0144310
808.740	0.0145383
808.818	0.0144864
808.896	0.0144160
808.974	0.0145089
809.052	0.0144930
809.130	0.0144715
809.208	0.0145161
809.287	0.0145182
809.365	0.0143584
809.443	0.0145178
809.521	0.0144923
809.599	0.0144356
809.677	0.0143924
809.755	0.0143975
809.833	0.0145827
809.912	0.0144829
809.990	0.0144965
810.068	0.0146004
810.146	0.0145959
810.224	0.0147897
810.302	0.0146700
810.380	0.0146246
810.458	0.0146784
810.537	0.0147404
810.615	0.0145789
810.693	0.0146779
810.771	0.0145369
810.849	0.0144888
810.927	0.0144808
811.005	0.0143951
811.083	0.0143190
811.162	0.0142575
811.240	0.0142999
811.318	0.0143770
811.396	0.0141960
811.474	0.0141602
811.552	0.0140374
811.630	0.0141153
811.708	0.0138937
811.787	0.0140170
811.865	0.0139317
811.943	0.0139936
812.021	0.0141389
812.099	0.0143814
812.177	0.0142867
812.255	0.0142149
812.333	0.0143732
812.412	0.0143786
812.490	0.0142758
812.568	0.0144471
812.646	0.0145196
812.724	0.0144042
812.802	0.0144138
812.880	0.0145094
812.958	0.0145712
813.037	0.0145087
813.115	0.0145673
813.193	0.0145267
813.271	0.0145314
813.349	0.0142822
813.427	0.0144029
813.505	0.0144350
813.583	0.0144168
813.662	0.0144717
813.740	0.0144278
813.818	0.0144151
813.896	0.0145148
813.974	0.0144293
814.052	0.0145419
814.130	0.0144964
814.208	0.0144526
814.287	0.0145074
814.365	0.0144518
814.443	0.0145033
814.521	0.0145544
814.599	0.0143810
814.677	0.0143929
814.755	0.0143398
814.833	0.0144648
814.912	0.0141998
814.990	0.0142549
815.068	0.0142902
815.146	0.0142235
815.224	0.0141865
815.302	0.0142746
815.380	0.0142811
815.458	0.0142799
815.537	0.0143710
815.615	0.0141941
815.693	0.0142530
815.771	0.0142685
815.849	0.0143656
815.927	0.0143159
816.005	0.0143174
816.083	0.0144380
816.162	0.0144277
816.240	0.0145358
816.318	0.0144434
816.396	0.0144842
816.474	0.0145486
816.552	0.0145357
816.630	0.0143930
816.708	0.0144333
816.787	0.0143801
816.865	0.0143883
816.943	0.0144501
817.021	0.0144295
817.099	0.0143801
817.177	0.0144347
817.255	0.0143023
817.333	0.0144345
817.412	0.0143528
817.490	0.0141573
817.568	0.0143308
817.646	0.0142597
817.724	0.0143076
817.802	0.0142120
817.880	0.0142287
817.958	0.0143025
818.037	0.0143641
818.115	0.0144481
818.193	0.0142795
818.271	0.0142075
818.349	0.0144174
818.427	0.0143385
818.505	0.0142830
818.583	0.0144041
818.662	0.0143539
818.740	0.0143516
818.818	0.0142082
818.896	0.0141552
818.974	0.0141805
819.052	0.0142106
819.130	0.0142799
819.208	0.0141990
819.287	0.0141673
819.365	0.0142970
819.443	0.0143773
819.521	0.0143401
819.599	0.0143157
819.677	0.0142345
819.755	0.0144056
819.833	0.0144684
819.912	0.0143092
819.990	0.0145106
820.068	0.0145522
820.146	0.0144153
820.224	0.0145752
820.302	0.0146508
820.380	0.0145181
820.458	0.0143799
820.537	0.0145206
820.615	0.0143720
820.693	0.0143912
820.771	0.0144739
820.849	0.0142770
820.927	0.0142896
821.005	0.0144482
821.083	0.0144250
821.162	0.0143741
821.240	0.0143919
821.318	0.0144662
821.396	0.0143369
821.474	0.0145103
821.552	0.0143813
821.630	0.0143817
821.708	0.0145569
821.787	0.0145759
821.865	0.0145838
821.943	0.0145020
822.021	0.0144110
822.099	0.0144289
822.177	0.0143994
822.255	0.0143269
822.333	0.0143686
822.412	0.0142903
822.490	0.0143072
822.568	0.0142896
822.646	0.0140713
822.724	0.0141058
822.802	0.0139987
822.880	0.0139231
822.958	0.0140228
823.037	0.0140948
823.115	0.0139763
823.193	0.0139506
823.271	0.0139001
823.349	0.0140644
823.427	0.0141124
823.505	0.0141280
823.583	0.0140208
823.662	0.0141301
823.740	0.0142194
823.818	0.0143913
823.896	0.0143200
823.974	0.0145004
824.052	0.0147363
824.130	0.0145315
824.208	0.0145995
824.287	0.0145921
824.365	0.0146851
824.443	0.0147324
824.521	0.0148579
824.599	0.0148117
824.677	0.0147925
824.755	0.0148777
824.833	0.0148508
824.912	0.0147694
824.990	0.0147792
825.068	0.0147843
825.146	0.0147147
825.224	0.0147825
825.302	0.0148434
825.380	0.0146731
825.458	0.0146587
825.537	0.0146069
825.615	0.0147387
825.693	0.0144865
825.771	0.0142755
825.849	0.0143916
825.927	0.0143445
826.005	0.0143086
826.083	0.0142824
826.162	0.0141647
826.240	0.0142564
826.318	0.0141533
826.396	0.0140569
826.474	0.0140938
826.552	0.0141426
826.630	0.0141130
826.708	0.0139153
826.787	0.0139391
826.865	0.0141774
826.943	0.0141931
827.021	0.0142168
827.099	0.0140882
827.177	0.0141715
827.255	0.0142062
827.333	0.0141905
827.412	0.0141485
827.490	0.0143379
827.568	0.0142740
827.646	0.0143697
827.724	0.0142403
827.802	0.0142173
827.880	0.0143845
827.958	0.0143508
828.037	0.0143226
828.115	0.0142704
828.193	0.0143613
828.271	0.0144400
828.349	0.0145344
828.427	0.0143588
828.505	0.0144122
828.583	0.0145086
828.662	0.0144545
828.740	0.0144564
828.818	0.0144006
828.896	0.0144050
828.974	0.0145515
829.052	0.0145766
829.130	0.0144131
829.208	0.0145007
829.287	0.0146243
829.365	0.0144618
829.443	0.0145086
829.521	0.0144289
829.599	0.0144296
829.677	0.0144302
829.755	0.0144840
829.833	0.0143465
829.912	0.0142743
829.990	0.0143266
830.068	0.0143639
830.146	0.0143314
830.224	0.0142470
830.302	0.0142969
830.380	0.0144368
830.458	0.0143950
830.537	0.0144450
830.615	0.0145563
830.693	0.0143460
830.771	0.0145095
830.849	0.0143728
830.927	0.0143793
831.005	0.0143651
831.083	0.0142968
831.162	0.0144669
831.240	0.0143761
831.318	0.0142593
831.396	0.0143852
831.474	0.0144882
831.552	0.0143811
831.630	0.0143944
831.708	0.0144608
831.787	0.0144402
831.865	0.0143937
831.943	0.0143626
832.021	0.0142912
832.099	0.0143657
832.177	0.0143752
832.255	0.0144500
832.333	0.0143936
832.412	0.0144238
832.490	0.0144478
832.568	0.0144065
832.646	0.0142772
832.724	0.0144868
832.802	0.0144695
832.880	0.0144398
832.958	0.0144606
833.037	0.0145399
833.115	0.0143338
833.193	0.0143540
833.271	0.0143821
833.349	0.0142911
833.427	0.0144225
833.505	0.0143061
833.583	0.0142503
833.662	0.0141583
833.740	0.0142297
833.818	0.0142707
833.896	0.0141870
833.974	0.0140459
834.052	0.0140424
834.130	0.0142317
834.208	0.0142221
834.287	0.0142158
834.365	0.0141080
834.443	0.0141889
834.521	0.0140717
834.599	0.0141548
834.677	0.0142272
834.755	0.0142627
834.833	0.0141750
834.912	0.0140277
834.990	0.0142250
835.068	0.0143044
835.146	0.0141453
835.224	0.0142339
835.302	0.0142563
835.380	0.0141340
835.458	0.0143803
835.537	0.0144008
835.615	0.0143818
835.693	0.0144054
835.771	0.0143160
835.849	0.0144143
835.927	0.0145523
836.005	0.0144129
836.083	0.0145745
836.162	0.0146610
836.240	0.0145894
836.318	0.0145836
836.396	0.0147117
836.474	0.0146516
836.552	0.0145956
836.630	0.0146964
836.708	0.0147462
836.787	0.0144398
836.865	0.0145831
836.943	0.0146962
837.021	0.0146070
837.099	0.0146500
837.177	0.0144563
837.255	0.0146041
837.333	0.0143746
837.412	0.0144447
837.490	0.0143880
837.568	0.0142558
837.646	0.0141911
837.724	0.0142290
837.802	0.0141900
837.880	0.0142614
837.958	0.0142651
838.037	0.0140479
838.115	0.0141969
838.193	0.0142729
838.271	0.0142342
838.349	0.0143180
838.427	0.0141631
838.505	0.0143570
838.583	0.0141661
838.662	0.0143254
838.740	0.0142041
838.818	0.0143340
838.896	0.0143467
838.974	0.0140731
839.052	0.0141364
839.130	0.0141185
839.208	0.0141593
839.287	0.0141545
839.365	0.0141811
839.443	0.0140910
839.521	0.0141853
839.599	0.0141320
839.677	0.0140096
839.755	0.0141434
839.833	0.0141485
839.912	0.0140941
839.990	0.0140025
840.068	0.0141993
840.146	0.0142201
840.224	0.0141386
840.302	0.0143451
840.380	0.0143532
840.458	0.0142645
840.537	0.0143122
840.615	0.0143320
840.693	0.0143643
840.771	0.0144498
840.849	0.0144472
840.927	0.0146332
841.005	0.0144833
841.083	0.0143202
841.162	0.0144453
841.240	0.0145715
841.318	0.0145123
841.396	0.0146098
841.474	0.0147079
841.552	0.0145394
841.630	0.0145622
841.708	0.0144816
841.787	0.0145400
841.865	0.0145441
841.943	0.0145300
842.021	0.0143539
842.099	0.0143546
842.177	0.0144388
842.255	0.0143064
842.333	0.0143550
842.412	0.0143073
842.490	0.0141979
842.568	0.0142321
842.646	0.0142208
842.724	0.0142782
842.802	0.0143254
842.880	0.0142664
842.958	0.0142305
843.037	0.0143190
843.115	0.0142316
843.193	0.0142248
843.271	0.0142811
843.349	0.0143437
843.427	0.0143240
843.505	0.0143726
843.583	0.0143392
843.662	0.0143748
843.740	0.0143153
843.818	0.0144355
843.896	0.0142005
843.974	0.0141912
844.052	0.0142509
844.130	0.0144021
844.208	0.0142957
844.287	0.0141891
844.365	0.0142015
844.443	0.0143281
844.521	0.0142795
844.599	0.0142048
844.677	0.0143162
844.755	0.0143380
844.833	0.0144913
844.912	0.0143047
844.990	0.0142638
845.068	0.0143531
845.146	0.0144067
845.224	0.0143294
845.302	0.0144308
845.380	0.0144594
845.458	0.0142770
845.537	0.0143818
845.615	0.0144802
845.693	0.0142747
845.771	0.0143089
845.849	0.0143954
845.927	0.0142341
846.005	0.0143025
846.083	0.0143033
846.162	0.0143333
846.240	0.0143102
846.318	0.0143231
846.396	0.0142904
846.474	0.0142079
846.552	0.0142498
846.630	0.0142940
846.708	0.0142113
846.787	0.0144931
846.865	0.0144109
846.943	0.0144637
847.021	0.0144132
847.099	0.0143995
847.177	0.0143372
847.255	0.0143077
847.333	0.0144719
847.412	0.0143698
847.490	0.0143372
847.568	0.0143938
847.646	0.0142916
847.724	0.0144861
847.802	0.0144102
847.880	0.0143144
847.958	0.0142968
848.037	0.0142680
848.115	0.0142863
848.193	0.0144624
848.271	0.0143938
848.349	0.0143253
848.427	0.0143459
848.505	0.0143361
848.583	0.0143174
848.662	0.0143614
848.740	0.0143597
848.818	0.0144608
848.896	0.0142651
848.974	0.0143363
849.052	0.0144873
849.130	0.0144476
849.208	0.0143188
849.287	0.0142239
849.365	0.0142911
849.443	0.0143519
849.521	0.0144100
849.599	0.0142434
849.677	0.0143204
849.755	0.0143363
849.833	0.0142702
849.912	0.0141508
849.990	0.0142711
850.068	0.0142345
850.146	0.0143053
850.224	0.0142285
850.302	0.0143004
850.380	0.0142405
850.458	0.0143640
850.537	0.0144876
850.615	0.0142908
850.693	0.0142920
850.771	0.0143255
850.849	0.0144253
850.927	0.0142968
851.005	0.0143170
851.083	0.0144217
851.162	0.0143855
851.240	0.0143533
851.318	0.0141801
851.396	0.0141757
851.474	0.0143780
851.552	0.0142771
851.630	0.0141592
851.708	0.0141232
851.787	0.0141859
851.865	0.0141335
851.943	0.0141684
852.021	0.0140805
852.099	0.0142070
852.177	0.0141551
852.255	0.0142182
852.333	0.0143355
852.412	0.0142982
852.490	0.0142911
852.568	0.0143860
852.646	0.0144283
852.724	0.0142254
852.802	0.0143327
852.880	0.0145516
852.958	0.0143807
853.037	0.0143552
853.115	0.0144148
853.193	0.0143027
853.271	0.0143435
853.349	0.0141310
853.427	0.0142574
853.505	0.0142569
853.583	0.0143665
853.662	0.0143985
853.740	0.0143510
853.818	0.0143996
853.896	0.0142941
853.974	0.0144595
854.052	0.0144778
854.130	0.0144997
854.208	0.0143646
854.287	0.0143735
854.365	0.0143879
854.443	0.0143699
854.521	0.0144167
854.599	0.0144564
854.677	0.0143398
854.755	0.0142612
854.833	0.0143130
854.912	0.0143671
854.990	0.0141050
855.068	0.0140735
855.146	0.0142400
855.224	0.0141950
855.302	0.0142332
855.380	0.0140673
855.458	0.0141167
855.537	0.0141592
855.615	0.0141695
855.693	0.0142191
855.771	0.0142669
855.849	0.0141885
855.927	0.0141338
856.005	0.0141851
856.083	0.0141337
856.162	0.0143264
856.240	0.0143790
856.318	0.0142919
856.396	0.0142281
856.474	0.0142764
856.552	0.0143704
856.630	0.0144209
856.708	0.0144278
856.787	0.0143971
856.865	0.0145503
856.943	0.0143907
857.021	0.0145446
857.099	0.0142927
857.177	0.0142056
857.255	0.0145202
857.333	0.0145496
857.412	0.0144389
857.490	0.0143808
857.568	0.0143609
857.646	0.0144025
857.724	0.0145702
857.802	0.0143742
857.880	0.0144017
857.958	0.0143941
858.037	0.0143198
858.115	0.0143484
858.193	0.0144257
858.271	0.0142827
858.349	0.0143835
858.427	0.0141998
858.505	0.0143523
858.583	0.0141779
858.662	0.0141374
858.740	0.0143765
858.818	0.0142465
858.896	0.0142402
858.974	0.0143603
859.052	0.0143736
859.130	0.0142519
859.208	0.0144367
859.287	0.0142391
859.365	0.0141465
859.443	0.0143109
859.521	0.0142944
859.599	0.0143178
859.677	0.0142881
859.755	0.0142363
859.833	0.0141194
859.912	0.0143344
859.990	0.0143926
860.068	0.0143703
860.146	0.0143335
860.224	0.0144191
860.302	0.0143308
860.380	0.0143412
860.458	0.0143250
860.537	0.0143860
860.615	0.0144638
860.693	0.0142783
860.771	0.0144122
860.849	0.0142399
860.927	0.0143227
861.005	0.0144663
861.083	0.0144855
861.162	0.0143905
861.240	0.0143747
861.318	0.0143117
861.396	0.0144021
861.474	0.0144263
861.552	0.0144661
861.630	0.0144395
861.708	0.0145026
861.787	0.0144135
861.865	0.0143374
861.943	0.0144143
862.021	0.0145625
862.099	0.0145191
862.177	0.0143884
862.255	0.0143534
862.333	0.0142641
862.412	0.0145074
862.490	0.0144626
862.568	0.0144162
862.646	0.0143728
862.724	0.0142340
862.802	0.0142037
862.880	0.0142744
862.958	0.0142571
863.037	0.0142271
863.115	0.0142410
863.193	0.0141452
863.271	0.0142065
863.349	0.0142367
863.427	0.0140113
863.505	0.0142809
863.583	0.0141603
863.662	0.0141081
863.740	0.0141383
863.818	0.0142665
863.896	0.0144456
863.974	0.0142262
864.052	0.0141761
864.130	0.0141311
864.208	0.0142685
864.287	0.0143488
864.365	0.0143011
864.443	0.0142742
864.521	0.0142451
864.599	0.0144437
864.677	0.0143852
864.755	0.0142796
864.833	0.0144394
864.912	0.0145107
864.990	0.0144479
865.068	0.0144469
865.146	0.0145281
865.224	0.0146719
865.302	0.0145872
865.380	0.0145747
865.458	0.0146176
865.537	0.0147725
865.615	0.0147218
865.693	0.0146362
865.771	0.0146727
865.849	0.0146065
865.927	0.0145417
866.005	0.0144835
866.083	0.0144151
866.162	0.0143111
866.240	0.0144051
866.318	0.0143213
866.396	0.0143683
866.474	0.0142794
866.552	0.0141616
866.630	0.0143433
866.708	0.0142604
866.787	0.0142418
866.865	0.0143098
866.943	0.0141571
867.021	0.0143423
867.099	0.0143127
867.177	0.0142645
867.255	0.0143149
867.333	0.0143689
867.412	0.0142838
867.490	0.0144096
867.568	0.0144099
867.646	0.0144012
867.724	0.0143253
867.802	0.0142418
867.880	0.0140336
867.958	0.0142563
868.037	0.0143050
868.115	0.0141959
868.193	0.0142841
868.271	0.0141724
868.349	0.0141814
868.427	0.0143011
868.505	0.0142089
868.583	0.0143037
868.662	0.0143163
868.740	0.0144795
868.818	0.0143005
868.896	0.0144855
868.974	0.0144628
869.052	0.0142481
869.130	0.0142998
869.208	0.0143358
869.287	0.0144575
869.365	0.0144382
869.443	0.0143217
869.521	0.0142928
869.599	0.0143478
869.677	0.0143742
869.755	0.0143987
869.833	0.0142741
869.912	0.0142905
869.990	0.0145094
870.068	0.0145032
870.146	0.0144786
870.224	0.0143292
870.302	0.0144810
870.380	0.0143342
870.458	0.0142624
870.537	0.0144077
870.615	0.0143520
870.693	0.0142529
870.771	0.0141743
870.849	0.0141735
870.927	0.0142768
871.005	0.0141446
871.083	0.0141222
871.162	0.0144118
871.240	0.0141820
871.318	0.0143005
871.396	0.0143170
871.474	0.0144420
871.552	0.0144411
871.630	0.0144753
871.708	0.0145591
871.787	0.0146108
871.865	0.0144604
871.943	0.0144303
872.021	0.0144456
872.099	0.0144573
872.177	0.0145338
872.255	0.0144545
872.333	0.0143428
872.412	0.0145263
872.490	0.0145267
872.568	0.0144236
872.646	0.0143643
872.724	0.0145262
872.802	0.0145627
872.880	0.0144526
872.958	0.0144842
873.037	0.0143386
873.115	0.0144093
873.193	0.0143076
873.271	0.0143207
873.349	0.0141796
873.427	0.0141932
873.505	0.0142455
873.583	0.0140952
873.662	0.0141349
873.740	0.0141148
873.818	0.0142915
873.896	0.0141921
873.974	0.0143005
874.052	0.0143388
874.130	0.0144228
874.208	0.0144582
874.287	0.0144382
874.365	0.0145363
874.443	0.0145428
874.521	0.0145273
874.599	0.0144179
874.677	0.0144793
874.755	0.0145676
874.833	0.0145226
874.912	0.0145924
874.990	0.0144917
875.068	0.0144411
875.146	0.0145399
875.224	0.0145088
875.302	0.0146947
875.380	0.0147356
875.458	0.0146124
875.537	0.0145312
875.615	0.0144769
875.693	0.0144418
875.771	0.0144090
875.849	0.0145549
875.927	0.0143818
876.005	0.0144358
876.083	0.0144231
876.162	0.0143341
876.240	0.0141637
876.318	0.0141988
876.396	0.0140275
876.474	0.0140710
876.552	0.0140971
876.630	0.0140338
876.708	0.0140180
876.787	0.0140141
876.865	0.0140907
876.943	0.0138891
877.021	0.0138611
877.099	0.0141319
877.177	0.0140122
877.255	0.0141486
877.333	0.0142416
877.412	0.0140862
877.490	0.0143211
877.568	0.0144720
877.646	0.0146918
877.724	0.0146243
877.802	0.0147436
877.880	0.0145820
877.958	0.0147701
878.037	0.0147447
878.115	0.0146893
878.193	0.0147565
878.271	0.0146470
878.349	0.0145093
878.427	0.0146664
878.505	0.0148038
878.583	0.0148824
878.662	0.0147260
878.740	0.0146673
878.818	0.0147923
878.896	0.0148044
878.974	0.0146737
879.052	0.0146617
879.130	0.0147100
879.208	0.0145162
879.287	0.0146008
879.365	0.0145243
879.443	0.0144673
879.521	0.0144283
879.599	0.0142581
879.677	0.0142722
879.755	0.0141818
879.833	0.0141447
879.912	0.0140620
879.990	0.0140553
880.068	0.0140459
880.146	0.0139089
880.224	0.0139680
880.302	0.0140615
880.380	0.0139760
880.458	0.0138354
880.537	0.0138721
880.615	0.0138348
880.693	0.0138868
880.771	0.0139809
880.849	0.0140040
880.927	0.0139390
881.005	0.0139162
881.083	0.0140839
881.162	0.0138974
881.240	0.0141769
881.318	0.0143151
881.396	0.0145258
881.474	0.0145022
881.552	0.0145876
881.630	0.0147066
881.708	0.0145301
881.787	0.0146447
881.865	0.0146561
881.943	0.0146191
882.021	0.0145599
882.099	0.0146751
882.177	0.0147089
882.255	0.0145370
882.333	0.0145171
882.412	0.0145644
882.490	0.0146277
882.568	0.0146150
882.646	0.0147590
882.724	0.0146448
882.802	0.0146989
882.880	0.0147606
882.958	0.0148458
883.037	0.0150034
883.115	0.0148455
883.193	0.0147601
883.271	0.0149931
883.349	0.0149474
883.427	0.0146813
883.505	0.0146001
883.583	0.0144842
883.662	0.0142662
883.740	0.0142257
883.818	0.0140395
883.896	0.0138742
883.974	0.0139832
884.052	0.0136980
884.130	0.0134189
884.208	0.0136197
884.287	0.0135682
884.365	0.0134473
884.443	0.0133524
884.521	0.0135268
884.599	0.0135552
884.677	0.0134908
884.755	0.0135540
884.833	0.0137199
884.912	0.0137244
884.990	0.0138056
885.068	0.0140627
885.146	0.0140426
885.224	0.0143533
885.302	0.0143804
885.380	0.0144597
885.458	0.0147804
885.537	0.0147684
885.615	0.0149725
885.693	0.0150338
885.771	0.0150474
885.849	0.0150856
885.927	0.0149741
886.005	0.0151725
886.083	0.0149539
886.162	0.0150630
886.240	0.0149554
886.318	0.0151825
886.396	0.0149844
886.474	0.0149065
886.552	0.0150659
886.630	0.0148360
886.708	0.0148739
886.787	0.0148787
886.865	0.0148859
886.943	0.0147688
887.021	0.0145695
887.099	0.0145898
887.177	0.0145573
887.255	0.0145274
887.333	0.0144145
887.412	0.0141010
887.490	0.0142664
887.568	0.0140312
887.646	0.0140854
887.724	0.0138982
887.802	0.0138464
887.880	0.0137936
887.958	0.0136739
888.037	0.0136696
888.115	0.0136578
888.193	0.0136282
888.271	0.0136275
888.349	0.0137458
888.427	0.0137737
888.505	0.0137282
888.583	0.0137587
888.662	0.0139663
888.740	0.0139798
888.818	0.0141557
888.896	0.0142695
888.974	0.0143697
889.052	0.0145171
889.130	0.0145704
889.208	0.0148867
889.287	0.0148479
889.365	0.0148788
889.443	0.0150206
889.521	0.0150560
889.599	0.0148753
889.677	0.0150276
889.755	0.0148133
889.833	0.0148817
889.912	0.0147383
889.990	0.0146018
890.068	0.0145364
890.146	0.0145634
890.224	0.0144926
890.302	0.0144080
890.380	0.0143877
890.458	0.0144892
890.537	0.0143417
890.615	0.0143216
890.693	0.0145464
890.771	0.0145228
890.849	0.0144557
890.927	0.0145346
891.005	0.0145884
891.083	0.0146015
891.162	0.0145299
891.240	0.0145022
891.318	0.0145085
891.396	0.0144327
891.474	0.0142638
891.552	0.0142067
891.630	0.0141695
891.708	0.0140379
891.787	0.0140950
891.865	0.0140185
891.943	0.0138558
892.021	0.0140457
892.099	0.0141877
892.177	0.0141599
892.255	0.0139564
892.333	0.0141057
892.412	0.0143707
892.490	0.0143067
892.568	0.0143262
892.646	0.0142101
892.724	0.0143225
892.802	0.0143042
892.880	0.0143586
892.958	0.0142895
893.037	0.0143999
893.115	0.0144103
893.193	0.0143744
893.271	0.0143933
893.349	0.0144172
893.427	0.0145110
893.505	0.0146111
893.583	0.0145275
893.662	0.0145196
893.740	0.0145663
893.818	0.0146182
893.896	0.0146703
893.974	0.0146414
894.052	0.0146991
894.130	0.0147569
894.208	0.0148748
894.287	0.0146953
894.365	0.0146059
894.443	0.0146629
894.521	0.0147262
894.599	0.0145543
894.677	0.0143818
894.755	0.0143394
894.833	0.0142747
894.912	0.0142790
894.990	0.0142996
895.068	0.0143432
895.146	0.0142506
895.224	0.0141342
895.302	0.0141438
895.380	0.0141663
895.458	0.0140634
895.537	0.0141055
895.615	0.0141354
895.693	0.0141223
895.771	0.0141850
895.849	0.0142037
895.927	0.0142563
896.005	0.0142223
896.083	0.0144374
896.162	0.0143552
896.240	0.0144791
896.318	0.0147025
896.396	0.0144564
896.474	0.0144482
896.552	0.0145204
896.630	0.0145184
896.708	0.0144104
896.787	0.0144576
896.865	0.0143710
896.943	0.0144637
897.021	0.0144619
897.099	0.0143679
897.177	0.0143990
897.255	0.0143683
897.333	0.0144527
897.412	0.0144643
897.490	0.0143640
897.568	0.0144363
897.646	0.0143559
897.724	0.0144086
897.802	0.0143766
897.880	0.0142165
897.958	0.0144521
898.037	0.0144691
898.115	0.0142110
898.193	0.0143374
898.271	0.0143198
898.349	0.0141767
898.427	0.0141846
898.505	0.0142043
898.583	0.0139939
898.662	0.0140549
898.740	0.0139185
898.818	0.0141695
898.896	0.0141334
898.974	0.0141235
899.052	0.0140708
899.130	0.0141449
899.208	0.0142947
899.287	0.0142048
899.365	0.0143539
899.443	0.0144839
899.521	0.0144739
899.599	0.0146668
899.677	0.0146405
899.755	0.0145875
899.833	0.0147354
899.912	0.0145821
899.990	0.0146036
900.068	0.0148085
900.146	0.0146729
900.224	0.0146343
900.302	0.0146904
900.380	0.0146528
900.458	0.0144826
900.537	0.0144345
900.615	0.0144846
900.693	0.0143550
900.771	0.0142740
900.849	0.0144135
900.927	0.0142599
901.005	0.0141778
901.083	0.0141537
901.162	0.0142091
901.240	0.0142341
901.318	0.0141007
901.396	0.0141240
901.474	0.0140274
901.552	0.0141192
901.630	0.0141669
901.708	0.0142590
901.787	0.0141333
901.865	0.0142565
901.943	0.0142265
902.021	0.0143297
902.099	0.0142961
902.177	0.0142521
902.255	0.0143231
902.333	0.0144350
902.412	0.0144530
902.490	0.0143507
902.568	0.0144022
902.646	0.0144353
902.724	0.0143782
902.802	0.0144524
902.880	0.0144548
902.958	0.0143903
903.037	0.0144731
903.115	0.0143365
903.193	0.0142809
903.271	0.0143542
903.349	0.0144173
903.427	0.0144834
903.505	0.0144007
903.583	0.0143324
903.662	0.0144472
903.740	0.0144936
903.818	0.0144570
903.896	0.0145078
903.974	0.0144971
904.052	0.0145355
904.130	0.0144353
904.208	0.0145407
904.287	0.0144823
904.365	0.0144821
904.443	0.0146391
904.521	0.0145918
904.599	0.0146042
904.677	0.0145394
904.755	0.0145802
904.833	0.0144543
904.912	0.0143143
904.990	0.0144470
905.068	0.0145169
905.146	0.0142703
905.224	0.0144446
905.302	0.0143488
905.380	0.0144074
905.458	0.0143542
905.537	0.0143325
905.615	0.0144523
905.693	0.0144239
905.771	0.0143002
905.849	0.0143177
905.927	0.0142728
906.005	0.0144051
906.083	0.0144383
906.162	0.0145158
906.240	0.0143536
906.318	0.0143967
906.396	0.0143327
906.474	0.0141932
906.552	0.0142809
906.630	0.0142966
906.708	0.0144452
906.787	0.0142976
906.865	0.0144659
906.943	0.0144045
907.021	0.0143235
907.099	0.0145016
907.177	0.0145606
907.255	0.0145276
907.333	0.0147069
907.412	0.0146420
907.490	0.0147801
907.568	0.0146901
907.646	0.0146568
907.724	0.0147906
907.802	0.0147462
907.880	0.0146235
907.958	0.0144713
908.037	0.0145300
908.115	0.0145046
908.193	0.0144842
908.271	0.0143847
908.349	0.0143932
908.427	0.0142000
908.505	0.0141454
908.583	0.0142087
908.662	0.0143899
908.740	0.0143697
908.818	0.0141298
908.896	0.0140784
908.974	0.0141395
909.052	0.0141331
909.130	0.0143074
909.208	0.0142775
909.287	0.0142143
909.365	0.0142319
909.443	0.0141816
909.521	0.0142783
909.599	0.0143320
909.677	0.0144258
909.755	0.0143619
909.833	0.0143318
909.912	0.0143304
909.990	0.0142136
910.068	0.0142954
910.146	0.0143091
910.224	0.0142706
910.302	0.0143966
910.380	0.0144868
910.458	0.0145380
910.537	0.0144148
910.615	0.0143922
910.693	0.0144451
910.771	0.0144604
910.849	0.0144417
910.927	0.0144184
911.005	0.0145338
911.083	0.0144862
911.162	0.0144689
911.240	0.0145296
911.318	0.0145341
911.396	0.0145480
911.474	0.0144227
911.552	0.0142822
911.630	0.0142334
911.708	0.0143130
911.787	0.0142370
911.865	0.0144276
911.943	0.0142303
912.021	0.0141172
912.099	0.0141735
912.177	0.0141654
912.255	0.0140945
912.333	0.0141862
912.412	0.0141805
912.490	0.0143110
912.568	0.0142151
912.646	0.0142467
912.724	0.0142584
912.802	0.0140916
912.880	0.0141661
912.958	0.0143627
913.037	0.0144593
913.115	0.0143642
913.193	0.0144447
913.271	0.0143935
913.349	0.0144635
913.427	0.0144438
913.505	0.0144254
913.583	0.0144585
913.662	0.0144810
913.740	0.0144035
913.818	0.0145200
913.896	0.0145007
913.974	0.0145067
914.052	0.0144769
914.130	0.0145289
914.208	0.0145641
914.287	0.0146780
914.365	0.0145659
914.443	0.0146124
914.521	0.0147491
914.599	0.0145570
914.677	0.0144305
914.755	0.0145317
914.833	0.0144439
914.912	0.0145187
914.990	0.0143097
915.068	0.0143162
915.146	0.0144565
915.224	0.0144071
915.302	0.0144631
915.380	0.0142797
915.458	0.0142381
915.537	0.0143822
915.615	0.0143394
915.693	0.0142431
915.771	0.0141652
915.849	0.0142937
915.927	0.0143314
916.005	0.0142751
916.083	0.0141295
916.162	0.0141959
916.240	0.0143502
916.318	0.0142964
916.396	0.0142355
916.474	0.0142273
916.552	0.0142886
916.630	0.0144857
916.708	0.0143613
916.787	0.0143024
916.865	0.0143245
916.943	0.0142870
917.021	0.0143516
917.099	0.0143367
917.177	0.0142916
917.255	0.0142858
917.333	0.0142630
917.412	0.0143825
917.490	0.0142899
917.568	0.0141835
917.646	0.0143975
917.724	0.0143161
917.802	0.0144434
917.880	0.0144248
917.958	0.0144878
918.037	0.0145276
918.115	0.0144797
918.193	0.0145385
918.271	0.0146682
918.349	0.0146654
918.427	0.0147443
918.505	0.0148127
918.583	0.0146341
918.662	0.0147834
918.740	0.0147308
918.818	0.0146614
918.896	0.0146368
918.974	0.0147681
919.052	0.0146180
919.130	0.0146328
919.208	0.0145597
919.287	0.0145736
919.365	0.0145183
919.443	0.0144093
919.521	0.0143175
919.599	0.0143723
919.677	0.0143214
919.755	0.0142284
919.833	0.0140184
919.912	0.0142749
919.990	0.0141628
920.068	0.0140128
920.146	0.0140240
920.224	0.0140303
920.302	0.0140646
920.380	0.0140156
920.458	0.0139101
920.537	0.0140533
920.615	0.0140846
920.693	0.0141335
920.771	0.0140436
920.849	0.0140633
920.927	0.0141195
921.005	0.0142425
921.083	0.0143289
921.162	0.0143395
921.240	0.0143288
921.318	0.0143742
921.396	0.0145226
921.474	0.0144169
921.552	0.0144565
921.630	0.0144739
921.708	0.0146381
921.787	0.0146649
921.865	0.0145724
921.943	0.0145853
922.021	0.0145724
922.099	0.0144817
922.177	0.0146497
922.255	0.0144389
922.333	0.0145057
922.412	0.0144843
922.490	0.0145551
922.568	0.0144666
922.646	0.0144675
922.724	0.0145181
922.802	0.0145049
922.880	0.0145382
922.958	0.0143845
923.037	0.0144456
923.115	0.0143965
923.193	0.0142702
923.271	0.0143349
923.349	0.0143679
923.427	0.0142239
923.505	0.0142105
923.583	0.0143168
923.662	0.0141550
923.740	0.0141962
923.818	0.0143560
923.896	0.0143347
923.974	0.0142086
924.052	0.0142626
924.130	0.0144310
924.208	0.0143331
924.287	0.0145197
924.365	0.0142947
924.443	0.0145620
924.521	0.0145106
924.599	0.0145544
924.677	0.0144981
924.755	0.0145871
924.833	0.0146585
924.912	0.0145530
924.990	0.0144693
925.068	0.0145088
925.146	0.0146590
925.224	0.0145757
925.302	0.0145403
925.380	0.0145249
925.458	0.0144385
925.537	0.0144016
925.615	0.0144734
925.693	0.0145391
925.771	0.0144274
925.849	0.0145567
925.927	0.0144589
926.005	0.0144354
926.083	0.0144736
926.162	0.0143721
926.240	0.0143884
926.318	0.0144006
926.396	0.0144096
926.474	0.0143391
926.552	0.0143114
926.630	0.0142272
926.708	0.0142450
926.787	0.0142275
926.865	0.0142146
926.943	0.0141516
927.021	0.0142378
927.099	0.0141464
927.177	0.0141043
927.255	0.0141714
927.333	0.0142257
927.412	0.0142146
927.490	0.0142556
927.568	0.0142260
927.646	0.0142980
927.724	0.0142541
927.802	0.0141402
927.880	0.0143758
927.958	0.0144406
928.037	0.0143839
928.115	0.0141906
928.193	0.0144603
928.271	0.0143576
928.349	0.0144543
928.427	0.0145318
928.505	0.0144141
928.583	0.0143980
928.662	0.0145486
928.740	0.0144971
928.818	0.0143500
928.896	0.0145174
928.974	0.0145969
929.052	0.0144657
929.130	0.0145882
929.208	0.0144331
929.287	0.0146450
929.365	0.0145148
929.443	0.0145496
929.521	0.0147433
929.599	0.0147408
929.677	0.0147962
929.755	0.0149060
929.833	0.0146637
929.912	0.0147054
929.990	0.0146770
930.068	0.0148760
930.146	0.0147379
930.224	0.0146348
930.302	0.0145821
930.380	0.0145036
930.458	0.0144247
930.537	0.0143738
930.615	0.0143386
930.693	0.0142596
930.771	0.0142564
930.849	0.0141703
930.927	0.0142081
931.005	0.0141080
931.083	0.0139979
931.162	0.0140018
931.240	0.0139658
931.318	0.0140411
931.396	0.0140933
931.474	0.0139578
931.552	0.0140845
931.630	0.0141556
931.708	0.0141269
931.787	0.0140939
931.865	0.0142136
931.943	0.0143343
932.021	0.0143733
932.099	0.0142999
932.177	0.0141930
932.255	0.0142237
932.333	0.0142973
932.412	0.0143600
932.490	0.0143916
932.568	0.0141706
932.646	0.0144204
932.724	0.0145319
932.802	0.0144678
932.880	0.0144238
932.958	0.0143873
933.037	0.0145125
933.115	0.0144160
933.193	0.0143616
933.271	0.0143935
933.349	0.0145954
933.427	0.0145699
933.505	0.0144650
933.583	0.0146590
933.662	0.0144505
933.740	0.0145840
933.818	0.0144729
933.896	0.0144586
933.974	0.0145655
934.052	0.0145085
934.130	0.0144712
934.208	0.0143926
934.287	0.0143585
934.365	0.0144284
934.443	0.0142382
934.521	0.0143774
934.599	0.0143833
934.677	0.0143811
934.755	0.0143438
934.833	0.0143134
934.912	0.0142196
934.990	0.0141968
935.068	0.0141727
935.146	0.0142600
935.224	0.0142484
935.302	0.0143832
935.380	0.0142804
935.458	0.0142732
935.537	0.0142098
935.615	0.0143037
935.693	0.0142966
935.771	0.0143766
935.849	0.0144395
935.927	0.0143957
936.005	0.0143559
936.083	0.0145320
936.162	0.0145181
936.240	0.0144610
936.318	0.0143999
936.396	0.0145196
936.474	0.0144904
936.552	0.0145238
936.630	0.0145654
936.708	0.0143264
936.787	0.0144033
936.865	0.0144470
936.943	0.0143042
937.021	0.0143360
937.099	0.0144201
937.177	0.0144023
937.255	0.0142821
937.333	0.0142553
937.412	0.0143643
937.490	0.0144131
937.568	0.0142857
937.646	0.0143821
937.724	0.0143314
937.802	0.0144702
937.880	0.0144406
937.958	0.0143912
938.037	0.0143064
938.115	0.0143462
938.193	0.0143672
938.271	0.0144650
938.349	0.0144080
938.427	0.0144437
938.505	0.0143470
938.583	0.0144299
938.662	0.0144227
938.740	0.0143824
938.818	0.0143758
938.896	0.0142382
938.974	0.0143823
939.052	0.0142960
939.130	0.0142963
939.208	0.0142001
939.287	0.0140853
939.365	0.0140067
939.443	0.0141634
939.521	0.0140414
939.599	0.0142017
939.677	0.0141219
939.755	0.0140691
939.833	0.0140594
939.912	0.0140242
939.990	0.0141414
940.068	0.0141299
940.146	0.0141929
940.224	0.0142157
940.302	0.0142292
940.380	0.0142883
940.458	0.0143008
940.537	0.0144182
940.615	0.0142529
940.693	0.0143292
940.771	0.0144113
940.849	0.0143359
940.927	0.0144238
941.005	0.0145045
941.083	0.0143966
941.162	0.0143407
941.240	0.0146059
941.318	0.0145911
941.396	0.0144796
941.474	0.0144914
941.552	0.0146125
941.630	0.0145995
941.708	0.0144930
941.787	0.0146851
941.865	0.0146190
941.943	0.0145843
942.021	0.0145240
942.099	0.0145193
942.177	0.0146663
942.255	0.0145101
942.333	0.0144650
942.412	0.0143838
942.490	0.0144212
942.568	0.0143509
942.646	0.0142735
942.724	0.0142635
942.802	0.0143163
942.880	0.0142696
942.958	0.0141983
943.037	0.0142709
943.115	0.0143343
943.193	0.0142525
943.271	0.0143093
943.349	0.0142725
943.427	0.0140317
943.505	0.0141860
943.583	0.0142702
943.662	0.0141135
943.740	0.0142317
943.818	0.0141656
943.896	0.0142309
943.974	0.0142758
944.052	0.0141714
944.130	0.0142542
944.208	0.0142358
944.287	0.0141723
944.365	0.0143114
944.443	0.0143476
944.521	0.0143794
944.599	0.0143296
944.677	0.0142152
944.755	0.0144276
944.833	0.0144708
944.912	0.0145021
944.990	0.0144803
945.068	0.0145570
945.146	0.0143520
945.224	0.0142767
945.302	0.0143939
945.380	0.0142821
945.458	0.0144834
945.537	0.0144546
945.615	0.0144173
945.693	0.0143306
945.771	0.0144044
945.849	0.0144700
945.927	0.0144411
946.005	0.0144633
946.083	0.0145238
946.162	0.0145322
946.240	0.0145025
946.318	0.0144699
946.396	0.0144036
946.474	0.0144894
946.552	0.0147449
946.630	0.0146662
946.708	0.0144682
946.787	0.0144538
946.865	0.0143762
946.943	0.0143842
947.021	0.0144702
947.099	0.0144291
947.177	0.0143832
947.255	0.0143856
947.333	0.0142352
947.412	0.0143757
947.490	0.0142871
947.568	0.0143171
947.646	0.0143794
947.724	0.0143465
947.802	0.0142349
947.880	0.0144511
947.958	0.0143019
948.037	0.0143587
948.115	0.0143260
948.193	0.0141786
948.271	0.0141894
948.349	0.0141410
948.427	0.0143219
948.505	0.0142424
948.583	0.0141702
948.662	0.0141451
948.740	0.0140961
948.818	0.0140965
948.896	0.0141209
948.974	0.0141225
949.052	0.0142634
949.130	0.0144073
949.208	0.0143875
949.287	0.0143740
949.365	0.0144335
949.443	0.0143987
949.521	0.0143220
949.599	0.0143513
949.677	0.0145250
949.755	0.0144013
949.833	0.0143562
949.912	0.0144318
949.990	0.0144271
950.068	0.0144079
950.146	0.0143171
950.224	0.0143017
950.302	0.0144642
950.380	0.0141801
950.458	0.0143678
950.537	0.0145686
950.615	0.0143490
950.693	0.0144580
950.771	0.0144447
950.849	0.0142216
950.927	0.0143353
951.005	0.0144239
951.083	0.0143536
951.162	0.0143134
951.240	0.0143932
951.318	0.0143650
951.396	0.0143484
951.474	0.0142532
951.552	0.0142254
951.630	0.0144222
951.708	0.0144977
951.787	0.0142204
951.865	0.0142831
951.943	0.0144373
952.021	0.0143681
952.099	0.0143127
952.177	0.0144161
952.255	0.0142605
952.333	0.0142767
952.412	0.0142949
952.490	0.0144249
952.568	0.0144191
952.646	0.0143235
952.724	0.0144105
952.802	0.0145366
952.880	0.0144376
952.958	0.0143803
953.037	0.0143696
953.115	0.0144279
953.193	0.0143686
953.271	0.0144121
953.349	0.0143708
953.427	0.0141922
953.505	0.0143370
953.583	0.0143423
953.662	0.0142941
953.740	0.0143085
953.818	0.0142352
953.896	0.0142381
953.974	0.0143972
954.052	0.0141867
954.130	0.0142684
954.208	0.0143839
954.287	0.0143774
954.365	0.0141671
954.443	0.0142487
954.521	0.0144360
954.599	0.0142743
954.677	0.0141016
954.755	0.0142867
954.833	0.0143839
954.912	0.0142452
954.990	0.0143227
955.068	0.0142181
955.146	0.0143507
955.224	0.0142112
955.302	0.0141882
955.380	0.0142914
955.458	0.0142924
955.537	0.0143098
955.615	0.0143029
955.693	0.0142909
955.771	0.0142784
955.849	0.0143963
955.927	0.0142648
956.005	0.0142841
956.083	0.0143885
956.162	0.0143621
956.240	0.0143909
956.318	0.0143614
956.396	0.0143060
956.474	0.0143217
956.552	0.0143622
956.630	0.0143137
956.708	0.0142989
956.787	0.0144170
956.865	0.0143793
956.943	0.0143024
957.021	0.0144569
957.099	0.0144426
957.177	0.0143131
957.255	0.0144200
957.333	0.0144911
957.412	0.0144216
957.490	0.0143777
957.568	0.0146557
957.646	0.0144776
957.724	0.0145739
957.802	0.0145073
957.880	0.0144794
957.958	0.0144659
958.037	0.0144576
958.115	0.0144867
958.193	0.0143988
958.271	0.0143415
958.349	0.0143714
958.427	0.0142786
958.505	0.0143559
958.583	0.0142418
958.662	0.0141811
958.740	0.0142474
958.818	0.0144207
958.896	0.0143055
958.974	0.0142352
959.052	0.0144153
959.130	0.0143414
959.208	0.0144047
959.287	0.0143172
959.365	0.0144444
959.443	0.0142731
959.521	0.0143451
959.599	0.0144563
959.677	0.0143728
959.755	0.0143661
959.833	0.0142913
959.912	0.0142879
959.990	0.0142831
960.068	0.0143890
960.146	0.0145027
960.224	0.0143597
960.302	0.0143118
960.380	0.0142947
960.458	0.0144082
960.537	0.0145353
960.615	0.0145469
960.693	0.0145683
960.771	0.0144531
960.849	0.0145580
960.927	0.0144569
961.005	0.0144803
961.083	0.0145676
961.162	0.0144295
961.240	0.0146024
961.318	0.0146174
961.396	0.0143877
961.474	0.0144576
961.552	0.0143558
961.630	0.0143828
961.708	0.0143961
961.787	0.0142235
961.865	0.0141469
961.943	0.0141582
962.021	0.0140936
962.099	0.0141428
962.177	0.0141759
962.255	0.0140156
962.333	0.0139056
962.412	0.0139284
962.490	0.0139863
962.568	0.0141286
962.646	0.0142546
962.724	0.0141535
962.802	0.0141190
962.880	0.0142406
962.958	0.0143454
963.037	0.0142863
963.115	0.0142915
963.193	0.0141993
963.271	0.0142802
963.349	0.0143936
963.427	0.0141707
963.505	0.0141216
963.583	0.0142645
963.662	0.0142941
963.740	0.0142464
963.818	0.0143338
963.896	0.0143510
963.974	0.0142700
964.052	0.0144158
964.130	0.0144764
964.208	0.0145333
964.287	0.0144112
964.365	0.0144497
964.443	0.0144523
964.521	0.0145557
964.599	0.0145822
964.677	0.0144592
964.755	0.0145546
964.833	0.0144920
964.912	0.0144630
964.990	0.0143542
965.068	0.0143962
965.146	0.0143891
965.224	0.0143294
965.302	0.0143852
965.380	0.0144189
965.458	0.0144843
965.537	0.0144543
965.615	0.0143951
965.693	0.0143169
965.771	0.0142797
965.849	0.0144308
965.927	0.0142742
966.005	0.0143408
966.083	0.0143822
966.162	0.0143921
966.240	0.0143813
966.318	0.0143550
966.396	0.0143340
966.474	0.0143282
966.552	0.0143107
966.630	0.0141171
966.708	0.0143131
966.787	0.0142299
966.865	0.0141595
966.943	0.0142010
967.021	0.0142104
967.099	0.0142101
967.177	0.0141746
967.255	0.0143220
967.333	0.0142154
967.412	0.0141801
967.490	0.0144505
967.568	0.0142345
967.646	0.0141599
967.724	0.0141309
967.802	0.0143259
967.880	0.0143021
967.958	0.0144212
968.037	0.0142984
968.115	0.0143108
968.193	0.0143487
968.271	0.0144057
968.349	0.0143841
968.427	0.0144136
968.505	0.0144124
968.583	0.0144736
968.662	0.0145098
968.740	0.0145145
968.818	0.0145538
968.896	0.0147614
968.974	0.0146590
969.052	0.0145946
969.130	0.0146659
969.208	0.0146283
969.287	0.0144718
969.365	0.0145107
969.443	0.0145596
969.521	0.0144061
969.599	0.0143962
969.677	0.0142622
969.755	0.0142800
969.833	0.0142734
969.912	0.0142294
