05/08/2022	20:05:26	Ver.	4.1	UNKNOWN
Optical Delay	649.982996	Delta X		0.078125	Sweeps	1	Scan Rate	0/0
Coordinates	Axis 1	NaN	Axis 2	NaN	Axis 3	NaN	Axis 4	NaN	Axis 5	NaN	Axis 6	0.000000
TX Power	0.000000	RX Power	0.000000

649.983	0.0128348
650.061	0.0127087
650.139	0.0126248
650.217	0.0126980
650.295	0.0127256
650.374	0.0127523
650.452	0.0126082
650.530	0.0128167
650.608	0.0128056
650.686	0.0128571
650.764	0.0128843
650.842	0.0129297
650.920	0.0129453
650.999	0.0128492
651.077	0.0129457
651.155	0.0128371
651.233	0.0126914
651.311	0.0127743
651.389	0.0127197
651.467	0.0126990
651.545	0.0126986
651.624	0.0128348
651.702	0.0126540
651.780	0.0125443
651.858	0.0126996
651.936	0.0126373
652.014	0.0126936
652.092	0.0126101
652.170	0.0126047
652.249	0.0125552
652.327	0.0125721
652.405	0.0123591
652.483	0.0125226
652.561	0.0124837
652.639	0.0125565
652.717	0.0125147
652.795	0.0126138
652.874	0.0126514
652.952	0.0126514
653.030	0.0127384
653.108	0.0127368
653.186	0.0129688
653.264	0.0128938
653.342	0.0131553
653.420	0.0132671
653.499	0.0133803
653.577	0.0134885
653.655	0.0133508
653.733	0.0132856
653.811	0.0134684
653.889	0.0135445
653.967	0.0133227
654.045	0.0132328
654.124	0.0132914
654.202	0.0131389
654.280	0.0128299
654.358	0.0126513
654.436	0.0125693
654.514	0.0123968
654.592	0.0122805
654.670	0.0122325
654.749	0.0121283
654.827	0.0119090
654.905	0.0118198
654.983	0.0118060
655.061	0.0116884
655.139	0.0116764
655.217	0.0118172
655.295	0.0116345
655.374	0.0118149
655.452	0.0120539
655.530	0.0121154
655.608	0.0123267
655.686	0.0124904
655.764	0.0126707
655.842	0.0127192
655.920	0.0130463
655.999	0.0132628
656.077	0.0131074
656.155	0.0132166
656.233	0.0133540
656.311	0.0134259
656.389	0.0134963
656.467	0.0135829
656.545	0.0135881
656.624	0.0136910
656.702	0.0137286
656.780	0.0139182
656.858	0.0140712
656.936	0.0141793
657.014	0.0142243
657.092	0.0141472
657.170	0.0142067
657.249	0.0144061
657.327	0.0140657
657.405	0.0138795
657.483	0.0138726
657.561	0.0136546
657.639	0.0133006
657.717	0.0129874
657.795	0.0125317
657.874	0.0122604
657.952	0.0120364
658.030	0.0117368
658.108	0.0114413
658.186	0.0112797
658.264	0.0111739
658.342	0.0108721
658.420	0.0109651
658.499	0.0107257
658.577	0.0104436
658.655	0.0105630
658.733	0.0107677
658.811	0.0107877
658.889	0.0108259
658.967	0.0109487
659.045	0.0112302
659.124	0.0115129
659.202	0.0118028
659.280	0.0119490
659.358	0.0124378
659.436	0.0126837
659.514	0.0129971
659.592	0.0135313
659.670	0.0139462
659.749	0.0141697
659.827	0.0144822
659.905	0.0147607
659.983	0.0151826
660.061	0.0154526
660.139	0.0155907
660.217	0.0159016
660.295	0.0160038
660.374	0.0162543
660.452	0.0162264
660.530	0.0163189
660.608	0.0163559
660.686	0.0159723
660.764	0.0158388
660.842	0.0156212
660.920	0.0150511
660.999	0.0146034
661.077	0.0141099
661.155	0.0135356
661.233	0.0128223
661.311	0.0123672
661.389	0.0117500
661.467	0.0112044
661.545	0.0108066
661.624	0.0103378
661.702	0.0102402
661.780	0.00979080
661.858	0.00951080
661.936	0.00941544
662.014	0.00931236
662.092	0.00932373
662.170	0.00933273
662.249	0.00944496
662.327	0.00965767
662.405	0.00982658
662.483	0.0101764
662.561	0.0103021
662.639	0.0107478
662.717	0.0108534
662.795	0.0112573
662.874	0.0115793
662.952	0.0119938
663.030	0.0124254
663.108	0.0128405
663.186	0.0132938
663.264	0.0136474
663.342	0.0140475
663.420	0.0145941
663.499	0.0151419
663.577	0.0154050
663.655	0.0157062
663.733	0.0160234
663.811	0.0163844
663.889	0.0165417
663.967	0.0165986
664.045	0.0166782
664.124	0.0166339
664.202	0.0166797
664.280	0.0165747
664.358	0.0161777
664.436	0.0159093
664.514	0.0156224
664.592	0.0151268
664.670	0.0147456
664.749	0.0142278
664.827	0.0138145
664.905	0.0132899
664.983	0.0128400
665.061	0.0124686
665.139	0.0118055
665.217	0.0115321
665.295	0.0112243
665.374	0.0109877
665.452	0.0105352
665.530	0.0104115
665.608	0.0103737
665.686	0.0101269
665.764	0.0101093
665.842	0.0100263
665.920	0.00987846
665.999	0.00986748
666.077	0.00975899
666.155	0.00983765
666.233	0.00983345
666.311	0.00992821
666.389	0.0100091
666.467	0.0103611
666.545	0.0104237
666.624	0.0107159
666.702	0.0109898
666.780	0.0113227
666.858	0.0115845
666.936	0.0119633
667.014	0.0123701
667.092	0.0128948
667.170	0.0130845
667.249	0.0134737
667.327	0.0139043
667.405	0.0142503
667.483	0.0145696
667.561	0.0148903
667.639	0.0152239
667.717	0.0154939
667.795	0.0157294
667.874	0.0160049
667.952	0.0161559
668.030	0.0161491
668.108	0.0164832
668.186	0.0162390
668.264	0.0161943
668.342	0.0160874
668.420	0.0158205
668.499	0.0155608
668.577	0.0153403
668.655	0.0148782
668.733	0.0145490
668.811	0.0142120
668.889	0.0136654
668.967	0.0131963
669.045	0.0126511
669.124	0.0123531
669.202	0.0119283
669.280	0.0117563
669.358	0.0113662
669.436	0.0111375
669.514	0.0110555
669.592	0.0108157
669.670	0.0107590
669.749	0.0107258
669.827	0.0105071
669.905	0.0105894
669.983	0.0105504
670.061	0.0104398
670.139	0.0105006
670.217	0.0105666
670.295	0.0106986
670.374	0.0108253
670.452	0.0108188
670.530	0.0110307
670.608	0.0113416
670.686	0.0116460
670.764	0.0119871
670.842	0.0123293
670.920	0.0127094
670.999	0.0129840
671.077	0.0131904
671.155	0.0136158
671.233	0.0138635
671.311	0.0137798
671.389	0.0138928
671.467	0.0138990
671.545	0.0137701
671.624	0.0135679
671.702	0.0134499
671.780	0.0132535
671.858	0.0130397
671.936	0.0128240
672.014	0.0126347
672.092	0.0126405
672.170	0.0125105
672.249	0.0122902
672.327	0.0124661
672.405	0.0127295
672.483	0.0126288
672.561	0.0128032
672.639	0.0129530
672.717	0.0131320
672.795	0.0132701
672.874	0.0134692
672.952	0.0136725
673.030	0.0138102
673.108	0.0140337
673.186	0.0140275
673.264	0.0142299
673.342	0.0143062
673.420	0.0142626
673.499	0.0143020
673.577	0.0142593
673.655	0.0142472
673.733	0.0140362
673.811	0.0139838
673.889	0.0139187
673.967	0.0138010
674.045	0.0136498
674.124	0.0132400
674.202	0.0129246
674.280	0.0127295
674.358	0.0125804
674.436	0.0122816
674.514	0.0120426
674.592	0.0119681
674.670	0.0117877
674.749	0.0115154
674.827	0.0115240
674.905	0.0113181
674.983	0.0113347
675.061	0.0113725
675.139	0.0111867
675.217	0.0112259
675.295	0.0112610
675.374	0.0112556
675.452	0.0113567
675.530	0.0113772
675.608	0.0114121
675.686	0.0115192
675.764	0.0116998
675.842	0.0119879
675.920	0.0121302
675.999	0.0122988
676.077	0.0123930
676.155	0.0127452
676.233	0.0128724
676.311	0.0128740
676.389	0.0130272
676.467	0.0131467
676.545	0.0130801
676.624	0.0130638
676.702	0.0129292
676.780	0.0127595
676.858	0.0126753
676.936	0.0126113
677.014	0.0122932
677.092	0.0122305
677.170	0.0122145
677.249	0.0122803
677.327	0.0123314
677.405	0.0124389
677.483	0.0126462
677.561	0.0129457
677.639	0.0131673
677.717	0.0132655
677.795	0.0134517
677.874	0.0136105
677.952	0.0139589
678.030	0.0141188
678.108	0.0141978
678.186	0.0141618
678.264	0.0143040
678.342	0.0142978
678.420	0.0144350
678.499	0.0146079
678.577	0.0144741
678.655	0.0144750
678.733	0.0144702
678.811	0.0145590
678.889	0.0146742
678.967	0.0145803
679.045	0.0145385
679.124	0.0142704
679.202	0.0142529
679.280	0.0143206
679.358	0.0142827
679.436	0.0139366
679.514	0.0137338
679.592	0.0135885
679.670	0.0133283
679.749	0.0129768
679.827	0.0124915
679.905	0.0122426
679.983	0.0116880
680.061	0.0112415
680.139	0.0108015
680.217	0.0105854
680.295	0.00999054
680.374	0.00960632
680.452	0.00931404
680.530	0.00910149
680.608	0.00907150
680.686	0.00885109
680.764	0.00894989
680.842	0.00924568
680.920	0.00939011
680.999	0.00971313
681.077	0.0100174
681.155	0.0103040
681.233	0.0106784
681.311	0.0110638
681.389	0.0113459
681.467	0.0120945
681.545	0.0123397
681.624	0.0129066
681.702	0.0133309
681.780	0.0139768
681.858	0.0143789
681.936	0.0148872
682.014	0.0151728
682.092	0.0156233
682.170	0.0159534
682.249	0.0162052
682.327	0.0164620
682.405	0.0166183
682.483	0.0165436
682.561	0.0167027
682.639	0.0165724
682.717	0.0161349
682.795	0.0160577
682.874	0.0160033
682.952	0.0154446
683.030	0.0150838
683.108	0.0147861
683.186	0.0143275
683.264	0.0139140
683.342	0.0135390
683.420	0.0131410
683.499	0.0127189
683.577	0.0124025
683.655	0.0120210
683.733	0.0117535
683.811	0.0113826
683.889	0.0113195
683.967	0.0109975
684.045	0.0109483
684.124	0.0106485
684.202	0.0106520
684.280	0.0105611
684.358	0.0106036
684.436	0.0107340
684.514	0.0108545
684.592	0.0111998
684.670	0.0113833
684.749	0.0115804
684.827	0.0118937
684.905	0.0121038
684.983	0.0123597
685.061	0.0124671
685.139	0.0127466
685.217	0.0129230
685.295	0.0128619
685.374	0.0128425
685.452	0.0127203
685.530	0.0125325
685.608	0.0124660
685.686	0.0123790
685.764	0.0122266
685.842	0.0121432
685.920	0.0120147
685.999	0.0120178
686.077	0.0122200
686.155	0.0122205
686.233	0.0122596
686.311	0.0124669
686.389	0.0127248
686.467	0.0131491
686.545	0.0131679
686.624	0.0137466
686.702	0.0140569
686.780	0.0141026
686.858	0.0144950
686.936	0.0146967
687.014	0.0147958
687.092	0.0149046
687.170	0.0149580
687.249	0.0148376
687.327	0.0147225
687.405	0.0145998
687.483	0.0142877
687.561	0.0140841
687.639	0.0139731
687.717	0.0137405
687.795	0.0135114
687.874	0.0133489
687.952	0.0130459
688.030	0.0127512
688.108	0.0127486
688.186	0.0124930
688.264	0.0122529
688.342	0.0120922
688.420	0.0119968
688.499	0.0117427
688.577	0.0117015
688.655	0.0115204
688.733	0.0114829
688.811	0.0114822
688.889	0.0113152
688.967	0.0113685
689.045	0.0114302
689.124	0.0113232
689.202	0.0114073
689.280	0.0116609
689.358	0.0117464
689.436	0.0120724
689.514	0.0119870
689.592	0.0121567
689.670	0.0122784
689.749	0.0124839
689.827	0.0127776
689.905	0.0130448
689.983	0.0132054
690.061	0.0133573
690.139	0.0135866
690.217	0.0135821
690.295	0.0136850
690.374	0.0137365
690.452	0.0137565
690.530	0.0136677
690.608	0.0135744
690.686	0.0133636
690.764	0.0131814
690.842	0.0130682
690.920	0.0129218
690.999	0.0127609
691.077	0.0127512
691.155	0.0125784
691.233	0.0124702
691.311	0.0126714
691.389	0.0128276
691.467	0.0128348
691.545	0.0130306
691.624	0.0132184
691.702	0.0133064
691.780	0.0134618
691.858	0.0137060
691.936	0.0137507
692.014	0.0139969
692.092	0.0141465
692.170	0.0138982
692.249	0.0139905
692.327	0.0139172
692.405	0.0139615
692.483	0.0137823
692.561	0.0135337
692.639	0.0134806
692.717	0.0134243
692.795	0.0132240
692.874	0.0128712
692.952	0.0126990
693.030	0.0125977
693.108	0.0126329
693.186	0.0123431
693.264	0.0122562
693.342	0.0121439
693.420	0.0120741
693.499	0.0121632
693.577	0.0121317
693.655	0.0120129
693.733	0.0119511
693.811	0.0119598
693.889	0.0119524
693.967	0.0120907
694.045	0.0120865
694.124	0.0120972
694.202	0.0121617
694.280	0.0121900
694.358	0.0122883
694.436	0.0122165
694.514	0.0119564
694.592	0.0118772
694.670	0.0118390
694.749	0.0115931
694.827	0.0115026
694.905	0.0113585
694.983	0.0112688
695.061	0.0113475
695.139	0.0112118
695.217	0.0112333
695.295	0.0114560
695.374	0.0115778
695.452	0.0117488
695.530	0.0121520
695.608	0.0126797
695.686	0.0131112
695.764	0.0134131
695.842	0.0138360
695.920	0.0141762
695.999	0.0144065
696.077	0.0147127
696.155	0.0150489
696.233	0.0152692
696.311	0.0152616
696.389	0.0153886
696.467	0.0154646
696.545	0.0154753
696.624	0.0152791
696.702	0.0152152
696.780	0.0152048
696.858	0.0150238
696.936	0.0146377
697.014	0.0145505
697.092	0.0143635
697.170	0.0138668
697.249	0.0136890
697.327	0.0134970
697.405	0.0131240
697.483	0.0126644
697.561	0.0123553
697.639	0.0122002
697.717	0.0117986
697.795	0.0116428
697.874	0.0115636
697.952	0.0115146
698.030	0.0115194
698.108	0.0114771
698.186	0.0113477
698.264	0.0112737
698.342	0.0113628
698.420	0.0114233
698.499	0.0113074
698.577	0.0116051
698.655	0.0113120
698.733	0.0113734
698.811	0.0112009
698.889	0.0113891
698.967	0.0113239
699.045	0.0115412
699.124	0.0114355
699.202	0.0115119
699.280	0.0118256
699.358	0.0117953
699.436	0.0119768
699.514	0.0121585
699.592	0.0123167
699.670	0.0125751
699.749	0.0126492
699.827	0.0126979
699.905	0.0128410
699.983	0.0129716
700.061	0.0130446
700.139	0.0130564
700.217	0.0132680
700.295	0.0133565
700.374	0.0134132
700.452	0.0134319
700.530	0.0134886
700.608	0.0136692
700.686	0.0138529
700.764	0.0138591
700.842	0.0139049
700.920	0.0142260
700.999	0.0141842
701.077	0.0141465
701.155	0.0143928
701.233	0.0143446
701.311	0.0141863
701.389	0.0143270
701.467	0.0144480
701.545	0.0143540
701.624	0.0141501
701.702	0.0139719
701.780	0.0138570
701.858	0.0136721
701.936	0.0134969
702.014	0.0135176
702.092	0.0132298
702.170	0.0130527
702.249	0.0130017
702.327	0.0128133
702.405	0.0127721
702.483	0.0125677
702.561	0.0123743
702.639	0.0124055
702.717	0.0122395
702.795	0.0121629
702.874	0.0120653
702.952	0.0119843
703.030	0.0121185
703.108	0.0118148
703.186	0.0116602
703.264	0.0118459
703.342	0.0117425
703.420	0.0117010
703.499	0.0117450
703.577	0.0117274
703.655	0.0118966
703.733	0.0120686
703.811	0.0121075
703.889	0.0122829
703.967	0.0123634
704.045	0.0126116
704.124	0.0126797
704.202	0.0126240
704.280	0.0127917
704.358	0.0129374
704.436	0.0127815
704.514	0.0127283
704.592	0.0128040
704.670	0.0126389
704.749	0.0125899
704.827	0.0125925
704.905	0.0125119
704.983	0.0126070
705.061	0.0126011
705.139	0.0126154
705.217	0.0126327
705.295	0.0127998
705.374	0.0128600
705.452	0.0128667
705.530	0.0129488
705.608	0.0130999
705.686	0.0131304
705.764	0.0130634
705.842	0.0131493
705.920	0.0130601
705.999	0.0130115
706.077	0.0131039
706.155	0.0130201
706.233	0.0129893
706.311	0.0129416
706.389	0.0130166
706.467	0.0128623
706.545	0.0131651
706.624	0.0131886
706.702	0.0131972
706.780	0.0132498
706.858	0.0133138
706.936	0.0133188
707.014	0.0132959
707.092	0.0133884
707.170	0.0133766
707.249	0.0133588
707.327	0.0133649
707.405	0.0134629
707.483	0.0133992
707.561	0.0131739
707.639	0.0132452
707.717	0.0131726
707.795	0.0128564
707.874	0.0127772
707.952	0.0126276
708.030	0.0126375
708.108	0.0124189
708.186	0.0122379
708.264	0.0120113
708.342	0.0119772
708.420	0.0119727
708.499	0.0118578
708.577	0.0119102
708.655	0.0118437
708.733	0.0119627
708.811	0.0119924
708.889	0.0122318
708.967	0.0124557
709.045	0.0126344
709.124	0.0129749
709.202	0.0130211
709.280	0.0131912
709.358	0.0133927
709.436	0.0135468
709.514	0.0136253
709.592	0.0137524
709.670	0.0138268
709.749	0.0136825
709.827	0.0138145
709.905	0.0135509
709.983	0.0134702
710.061	0.0135394
710.139	0.0134703
710.217	0.0134072
710.295	0.0130841
710.374	0.0130116
710.452	0.0129163
710.530	0.0129196
710.608	0.0127425
710.686	0.0124424
710.764	0.0123181
710.842	0.0122245
710.920	0.0120386
710.999	0.0117426
711.077	0.0117914
711.155	0.0116972
711.233	0.0115746
711.311	0.0116680
711.389	0.0116790
711.467	0.0116187
711.545	0.0118094
711.624	0.0119939
711.702	0.0122015
711.780	0.0122451
711.858	0.0124532
711.936	0.0125727
712.014	0.0125958
712.092	0.0126884
712.170	0.0127434
712.249	0.0129524
712.327	0.0130820
712.405	0.0132600
712.483	0.0132484
712.561	0.0132059
712.639	0.0133785
712.717	0.0135242
712.795	0.0136266
712.874	0.0137493
712.952	0.0138692
713.030	0.0136447
713.108	0.0136581
713.186	0.0137480
713.264	0.0136248
713.342	0.0136288
713.420	0.0135301
713.499	0.0135616
713.577	0.0132215
713.655	0.0131828
713.733	0.0131779
713.811	0.0129316
713.889	0.0129582
713.967	0.0129342
714.045	0.0127080
714.124	0.0127296
714.202	0.0127528
714.280	0.0126801
714.358	0.0125785
714.436	0.0125104
714.514	0.0125798
714.592	0.0124735
714.670	0.0123735
714.749	0.0124508
714.827	0.0123942
714.905	0.0123418
714.983	0.0124355
715.061	0.0124259
715.139	0.0125015
715.217	0.0126418
715.295	0.0127410
715.374	0.0127058
715.452	0.0128409
715.530	0.0128437
715.608	0.0129399
715.686	0.0130097
715.764	0.0130704
715.842	0.0129531
715.920	0.0129656
715.999	0.0129793
716.077	0.0129553
716.155	0.0129247
716.233	0.0128896
716.311	0.0127849
716.389	0.0127585
716.467	0.0128771
716.545	0.0126640
716.624	0.0127107
716.702	0.0127067
716.780	0.0126633
716.858	0.0125826
716.936	0.0125198
717.014	0.0126649
717.092	0.0127597
717.170	0.0127608
717.249	0.0128432
717.327	0.0129387
717.405	0.0129945
717.483	0.0130047
717.561	0.0129679
717.639	0.0131445
717.717	0.0131240
717.795	0.0131450
717.874	0.0132637
717.952	0.0131022
718.030	0.0130361
718.108	0.0132353
718.186	0.0131393
718.264	0.0129216
718.342	0.0130188
718.420	0.0129910
718.499	0.0128616
718.577	0.0128005
718.655	0.0128071
718.733	0.0126772
718.811	0.0127339
718.889	0.0127419
718.967	0.0126131
719.045	0.0127028
719.124	0.0126884
719.202	0.0126342
719.280	0.0125141
719.358	0.0126919
719.436	0.0126788
719.514	0.0128732
719.592	0.0129044
719.670	0.0128799
719.749	0.0129749
719.827	0.0129913
719.905	0.0130893
719.983	0.0132174
720.061	0.0132648
720.139	0.0132552
720.217	0.0133217
720.295	0.0133075
720.374	0.0132524
720.452	0.0132195
720.530	0.0133524
720.608	0.0133932
720.686	0.0131467
720.764	0.0131111
720.842	0.0131029
720.920	0.0127519
720.999	0.0127820
721.077	0.0129048
721.155	0.0127165
721.233	0.0127150
721.311	0.0126488
721.389	0.0127196
721.467	0.0127869
721.545	0.0127341
721.624	0.0128945
721.702	0.0128815
721.780	0.0130896
721.858	0.0131294
721.936	0.0130688
722.014	0.0133470
722.092	0.0134024
722.170	0.0132314
722.249	0.0134357
722.327	0.0135232
722.405	0.0134836
722.483	0.0135084
722.561	0.0135328
722.639	0.0134180
722.717	0.0132416
722.795	0.0131176
722.874	0.0130634
722.952	0.0129364
723.030	0.0127081
723.108	0.0123779
723.186	0.0123891
723.264	0.0123276
723.342	0.0122431
723.420	0.0119693
723.499	0.0120275
723.577	0.0119765
723.655	0.0118774
723.733	0.0118026
723.811	0.0118755
723.889	0.0121533
723.967	0.0120461
724.045	0.0122448
724.124	0.0123253
724.202	0.0125577
724.280	0.0126247
724.358	0.0127644
724.436	0.0127899
724.514	0.0130711
724.592	0.0132681
724.670	0.0135170
724.749	0.0136132
724.827	0.0137134
724.905	0.0137491
724.983	0.0138082
725.061	0.0137376
725.139	0.0138522
725.217	0.0138643
725.295	0.0136782
725.374	0.0136398
725.452	0.0134389
725.530	0.0133717
725.608	0.0133284
725.686	0.0131203
725.764	0.0130271
725.842	0.0128857
725.920	0.0129213
725.999	0.0128075
726.077	0.0127290
726.155	0.0126330
726.233	0.0126340
726.311	0.0125943
726.389	0.0126400
726.467	0.0127054
726.545	0.0126611
726.624	0.0128859
726.702	0.0127119
726.780	0.0128088
726.858	0.0127543
726.936	0.0127497
727.014	0.0126311
727.092	0.0126355
727.170	0.0126262
727.249	0.0125644
727.327	0.0123624
727.405	0.0122211
727.483	0.0120905
727.561	0.0120890
727.639	0.0121646
727.717	0.0120670
727.795	0.0120107
727.874	0.0121096
727.952	0.0122202
728.030	0.0121630
728.108	0.0125332
728.186	0.0126295
728.264	0.0127094
728.342	0.0128830
728.420	0.0130512
728.499	0.0132426
728.577	0.0132926
728.655	0.0134383
728.733	0.0136358
728.811	0.0133759
728.889	0.0134206
728.967	0.0133754
729.045	0.0132629
729.124	0.0132281
729.202	0.0132187
729.280	0.0129377
729.358	0.0127595
729.436	0.0127117
729.514	0.0125105
729.592	0.0126781
729.670	0.0124976
729.749	0.0125199
729.827	0.0124854
729.905	0.0125507
729.983	0.0125252
730.061	0.0124345
730.139	0.0125444
730.217	0.0126604
730.295	0.0126564
730.374	0.0125703
730.452	0.0124869
730.530	0.0125723
730.608	0.0126286
730.686	0.0126650
730.764	0.0126601
730.842	0.0127415
730.920	0.0129049
730.999	0.0129256
731.077	0.0126734
731.155	0.0128453
731.233	0.0129649
731.311	0.0129522
731.389	0.0129250
731.467	0.0127835
731.545	0.0128845
731.624	0.0128870
731.702	0.0130374
731.780	0.0129655
731.858	0.0129636
731.936	0.0126909
732.014	0.0126608
732.092	0.0126736
732.170	0.0127829
732.249	0.0126662
732.327	0.0126950
732.405	0.0127473
732.483	0.0127889
732.561	0.0127097
732.639	0.0129226
732.717	0.0127766
732.795	0.0129105
732.874	0.0129715
732.952	0.0130042
733.030	0.0130627
733.108	0.0129990
733.186	0.0131997
733.264	0.0132231
733.342	0.0131499
733.420	0.0132466
733.499	0.0132090
733.577	0.0131969
733.655	0.0132054
733.733	0.0131635
733.811	0.0130049
733.889	0.0130898
733.967	0.0130035
734.045	0.0128611
734.124	0.0127046
734.202	0.0127190
734.280	0.0125121
734.358	0.0125031
734.436	0.0125211
734.514	0.0123353
734.592	0.0123328
734.670	0.0122383
734.749	0.0122826
734.827	0.0121364
734.905	0.0121938
734.983	0.0123470
735.061	0.0123294
735.139	0.0124082
735.217	0.0123713
735.295	0.0124890
735.374	0.0126692
735.452	0.0126254
735.530	0.0126189
735.608	0.0127713
735.686	0.0129305
735.764	0.0127369
735.842	0.0128857
735.920	0.0130085
735.999	0.0130747
736.077	0.0129454
736.155	0.0128749
736.233	0.0130161
736.311	0.0132223
736.389	0.0132277
736.467	0.0131377
736.545	0.0131741
736.624	0.0132405
736.702	0.0132221
736.780	0.0131720
736.858	0.0132174
736.936	0.0133331
737.014	0.0132517
737.092	0.0132218
737.170	0.0131796
737.249	0.0133654
737.327	0.0133235
737.405	0.0133523
737.483	0.0134067
737.561	0.0134750
737.639	0.0133739
737.717	0.0134605
737.795	0.0134570
737.874	0.0133507
737.952	0.0133512
738.030	0.0131219
738.108	0.0131227
738.186	0.0129903
738.264	0.0128951
738.342	0.0127216
738.420	0.0126153
738.499	0.0126131
738.577	0.0123259
738.655	0.0122794
738.733	0.0119346
738.811	0.0119417
738.889	0.0118745
738.967	0.0118703
739.045	0.0117809
739.124	0.0116781
739.202	0.0117527
739.280	0.0117991
739.358	0.0117944
739.436	0.0119830
739.514	0.0118338
739.592	0.0120340
739.670	0.0122056
739.749	0.0122536
739.827	0.0123521
739.905	0.0127107
739.983	0.0127365
740.061	0.0128645
740.139	0.0130629
740.217	0.0131429
740.295	0.0132465
740.374	0.0133824
740.452	0.0133039
740.530	0.0134362
740.608	0.0134785
740.686	0.0134725
740.764	0.0135339
740.842	0.0133543
740.920	0.0132136
740.999	0.0134285
741.077	0.0132709
741.155	0.0133227
741.233	0.0133028
741.311	0.0132953
741.389	0.0132256
741.467	0.0130951
741.545	0.0133247
741.624	0.0133942
741.702	0.0133436
741.780	0.0133442
741.858	0.0133457
741.936	0.0134035
742.014	0.0133229
742.092	0.0134420
742.170	0.0133536
742.249	0.0132849
742.327	0.0132700
742.405	0.0132201
742.483	0.0130933
742.561	0.0130936
742.639	0.0130822
742.717	0.0129479
742.795	0.0130069
742.874	0.0128545
742.952	0.0129127
743.030	0.0129425
743.108	0.0128439
743.186	0.0129266
743.264	0.0127294
743.342	0.0126965
743.420	0.0127637
743.499	0.0126645
743.577	0.0128159
743.655	0.0127600
743.733	0.0126581
743.811	0.0127480
743.889	0.0128092
743.967	0.0128457
744.045	0.0128033
744.124	0.0127818
744.202	0.0127164
744.280	0.0128036
744.358	0.0128658
744.436	0.0127399
744.514	0.0126961
744.592	0.0126440
744.670	0.0127481
744.749	0.0126578
744.827	0.0125977
744.905	0.0126682
744.983	0.0127077
745.061	0.0125987
745.139	0.0127239
745.217	0.0127907
745.295	0.0127933
745.374	0.0127772
745.452	0.0127966
745.530	0.0128090
745.608	0.0128092
745.686	0.0128210
745.764	0.0128321
745.842	0.0129964
745.920	0.0129340
745.999	0.0128039
746.077	0.0128675
746.155	0.0128089
746.233	0.0129667
746.311	0.0127422
746.389	0.0126902
746.467	0.0127750
746.545	0.0127769
746.624	0.0129195
746.702	0.0128854
746.780	0.0128620
746.858	0.0129118
746.936	0.0129559
747.014	0.0130009
747.092	0.0131610
747.170	0.0129731
747.249	0.0128891
747.327	0.0129802
747.405	0.0130112
747.483	0.0129977
747.561	0.0129765
747.639	0.0130321
747.717	0.0131475
747.795	0.0130524
747.874	0.0131956
747.952	0.0129214
748.030	0.0129310
748.108	0.0130111
748.186	0.0130582
748.264	0.0129517
748.342	0.0130335
748.420	0.0130438
748.499	0.0131713
748.577	0.0131012
748.655	0.0129289
748.733	0.0131219
748.811	0.0131363
748.889	0.0130740
748.967	0.0129917
749.045	0.0131755
749.124	0.0131029
749.202	0.0131542
749.280	0.0131287
749.358	0.0130726
749.436	0.0130681
749.514	0.0130769
749.592	0.0131174
749.670	0.0129557
749.749	0.0128683
749.827	0.0129545
749.905	0.0128445
749.983	0.0127956
750.061	0.0127858
750.139	0.0126112
750.217	0.0125825
750.295	0.0125541
750.374	0.0125990
750.452	0.0125923
750.530	0.0124690
750.608	0.0125663
750.686	0.0125642
750.764	0.0125544
750.842	0.0125108
750.920	0.0124979
750.999	0.0125179
751.077	0.0125264
751.155	0.0125341
751.233	0.0125105
751.311	0.0125055
751.389	0.0124379
751.467	0.0123009
751.545	0.0122925
751.624	0.0124428
751.702	0.0122002
751.780	0.0122235
751.858	0.0122590
751.936	0.0123080
752.014	0.0122208
752.092	0.0121957
752.170	0.0122614
752.249	0.0122894
752.327	0.0123172
752.405	0.0125244
752.483	0.0125475
752.561	0.0127251
752.639	0.0127502
752.717	0.0127691
752.795	0.0128608
752.874	0.0130413
752.952	0.0129297
753.030	0.0129679
753.108	0.0133268
753.186	0.0132006
753.264	0.0131993
753.342	0.0131999
753.420	0.0133519
753.499	0.0133442
753.577	0.0132351
753.655	0.0133325
753.733	0.0133140
753.811	0.0132738
753.889	0.0132904
753.967	0.0132767
754.045	0.0131535
754.124	0.0131872
754.202	0.0131252
754.280	0.0130401
754.358	0.0130705
754.436	0.0129359
754.514	0.0128671
754.592	0.0129384
754.670	0.0129187
754.749	0.0128230
754.827	0.0127285
754.905	0.0127483
754.983	0.0126652
755.061	0.0126158
755.139	0.0126464
755.217	0.0126060
755.295	0.0125021
755.374	0.0127583
755.452	0.0127224
755.530	0.0125941
755.608	0.0125728
755.686	0.0126096
755.764	0.0125010
755.842	0.0125851
755.920	0.0126605
755.999	0.0128218
756.077	0.0127651
756.155	0.0127534
756.233	0.0126972
756.311	0.0128296
756.389	0.0128756
756.467	0.0129961
756.545	0.0128713
756.624	0.0128911
756.702	0.0130556
756.780	0.0130797
756.858	0.0131084
756.936	0.0131463
757.014	0.0131612
757.092	0.0132034
757.170	0.0132103
757.249	0.0132997
757.327	0.0132192
757.405	0.0132889
757.483	0.0131570
757.561	0.0131609
757.639	0.0131268
757.717	0.0131174
757.795	0.0129081
757.874	0.0129803
757.952	0.0128949
758.030	0.0127138
758.108	0.0126132
758.186	0.0125940
758.264	0.0126834
758.342	0.0123836
758.420	0.0123250
758.499	0.0122884
758.577	0.0123859
758.655	0.0123694
758.733	0.0124362
758.811	0.0123277
758.889	0.0122331
758.967	0.0122253
759.045	0.0124307
759.124	0.0122888
759.202	0.0123595
759.280	0.0122816
759.358	0.0124091
759.436	0.0125526
759.514	0.0124788
759.592	0.0125469
759.670	0.0128149
759.749	0.0128508
759.827	0.0129794
759.905	0.0129971
759.983	0.0130585
760.061	0.0130489
760.139	0.0132632
760.217	0.0132717
760.295	0.0131439
760.374	0.0132252
760.452	0.0134158
760.530	0.0133023
760.608	0.0131467
760.686	0.0132668
760.764	0.0134747
760.842	0.0132889
760.920	0.0132439
760.999	0.0133581
761.077	0.0132227
761.155	0.0132744
761.233	0.0134386
761.311	0.0134158
761.389	0.0132596
761.467	0.0132443
761.545	0.0135110
761.624	0.0132527
761.702	0.0133353
761.780	0.0133210
761.858	0.0130883
761.936	0.0131496
762.014	0.0129798
762.092	0.0128039
762.170	0.0128143
762.249	0.0128725
762.327	0.0127312
762.405	0.0125662
762.483	0.0124612
762.561	0.0124826
762.639	0.0126024
762.717	0.0125722
762.795	0.0124986
762.874	0.0126154
762.952	0.0125330
763.030	0.0126067
763.108	0.0126468
763.186	0.0127220
763.264	0.0126871
763.342	0.0126926
763.420	0.0126298
763.499	0.0127372
763.577	0.0127189
763.655	0.0126102
763.733	0.0127463
763.811	0.0127893
763.889	0.0127274
763.967	0.0128190
764.045	0.0129414
764.124	0.0129733
764.202	0.0130823
764.280	0.0131232
764.358	0.0132236
764.436	0.0132506
764.514	0.0133253
764.592	0.0133096
764.670	0.0131653
764.749	0.0133778
764.827	0.0132649
764.905	0.0133558
764.983	0.0131576
765.061	0.0132176
765.139	0.0131873
765.217	0.0130401
765.295	0.0131409
765.374	0.0130733
765.452	0.0131095
765.530	0.0130925
765.608	0.0129163
765.686	0.0130428
765.764	0.0130517
765.842	0.0129376
765.920	0.0129122
765.999	0.0128126
766.077	0.0127842
766.155	0.0127976
766.233	0.0127621
766.311	0.0126818
766.389	0.0126390
766.467	0.0127106
766.545	0.0124711
766.624	0.0127836
766.702	0.0128101
766.780	0.0125888
766.858	0.0126257
766.936	0.0128777
767.014	0.0126758
767.092	0.0127684
767.170	0.0128618
767.249	0.0129608
767.327	0.0129858
767.405	0.0128751
767.483	0.0128311
767.561	0.0127738
767.639	0.0128043
767.717	0.0129472
767.795	0.0128989
767.874	0.0129807
767.952	0.0127868
768.030	0.0129639
768.108	0.0130041
768.186	0.0129050
768.264	0.0129951
768.342	0.0130413
768.420	0.0132472
768.499	0.0132029
768.577	0.0131920
768.655	0.0133283
768.733	0.0132328
768.811	0.0131825
768.889	0.0131220
768.967	0.0131570
769.045	0.0132008
769.124	0.0131468
769.202	0.0130827
769.280	0.0130401
769.358	0.0129398
769.436	0.0128340
769.514	0.0128873
769.592	0.0129067
769.670	0.0128304
769.749	0.0127963
769.827	0.0127601
769.905	0.0126699
769.983	0.0126855
770.061	0.0126346
770.139	0.0126637
770.217	0.0126095
770.295	0.0125349
770.374	0.0127178
770.452	0.0128286
770.530	0.0127951
770.608	0.0126449
770.686	0.0125971
770.764	0.0127491
770.842	0.0128698
770.920	0.0127114
770.999	0.0128393
771.077	0.0128670
771.155	0.0128488
771.233	0.0128471
771.311	0.0128419
771.389	0.0127058
771.467	0.0127359
771.545	0.0128118
771.624	0.0129025
771.702	0.0128738
771.780	0.0129037
771.858	0.0127983
771.936	0.0128677
772.014	0.0127640
772.092	0.0128844
772.170	0.0127383
772.249	0.0127612
772.327	0.0127013
772.405	0.0126703
772.483	0.0126915
772.561	0.0125780
772.639	0.0126974
772.717	0.0124560
772.795	0.0125147
772.874	0.0124333
772.952	0.0125514
773.030	0.0126306
773.108	0.0126862
773.186	0.0126950
773.264	0.0126063
773.342	0.0128382
773.420	0.0125773
773.499	0.0127322
773.577	0.0125939
773.655	0.0127470
773.733	0.0127248
773.811	0.0126267
773.889	0.0127393
773.967	0.0127607
774.045	0.0126362
774.124	0.0128782
774.202	0.0127373
774.280	0.0127802
774.358	0.0127817
774.436	0.0127045
774.514	0.0127780
774.592	0.0129803
774.670	0.0128438
774.749	0.0128501
774.827	0.0129930
774.905	0.0130878
774.983	0.0132369
775.061	0.0131518
775.139	0.0132774
775.217	0.0131975
775.295	0.0132382
775.374	0.0132752
775.452	0.0131697
775.530	0.0132426
775.608	0.0132608
775.686	0.0131557
775.764	0.0131287
775.842	0.0132365
775.920	0.0129926
775.999	0.0129906
776.077	0.0128608
776.155	0.0127717
776.233	0.0128762
776.311	0.0127482
776.389	0.0125557
776.467	0.0126722
776.545	0.0125309
776.624	0.0124443
776.702	0.0124490
776.780	0.0124556
776.858	0.0123782
776.936	0.0122829
777.014	0.0122953
777.092	0.0121544
777.170	0.0122932
777.249	0.0121615
777.327	0.0123225
777.405	0.0123553
777.483	0.0122491
777.561	0.0123757
777.639	0.0123280
777.717	0.0123779
777.795	0.0125898
777.874	0.0126729
777.952	0.0128075
778.030	0.0128336
778.108	0.0127909
778.186	0.0130061
778.264	0.0130020
778.342	0.0127996
778.420	0.0129054
778.499	0.0129627
778.577	0.0129723
778.655	0.0127995
778.733	0.0128089
778.811	0.0129788
778.889	0.0128674
778.967	0.0129277
779.045	0.0130187
779.124	0.0130462
779.202	0.0130027
779.280	0.0129542
779.358	0.0130424
779.436	0.0130420
779.514	0.0130145
779.592	0.0130585
779.670	0.0130402
779.749	0.0129053
779.827	0.0128584
779.905	0.0129539
779.983	0.0130225
780.061	0.0128493
780.139	0.0129665
780.217	0.0129797
780.295	0.0129522
780.374	0.0128664
780.452	0.0129075
780.530	0.0129317
780.608	0.0129179
780.686	0.0128416
780.764	0.0129496
780.842	0.0128632
780.920	0.0128881
780.999	0.0128397
781.077	0.0129133
781.155	0.0127610
781.233	0.0128964
781.311	0.0130985
781.389	0.0129543
781.467	0.0128993
781.545	0.0129033
781.624	0.0130526
781.702	0.0130549
781.780	0.0129810
781.858	0.0129428
781.936	0.0129091
782.014	0.0130674
782.092	0.0130190
782.170	0.0129301
782.249	0.0129462
782.327	0.0129485
782.405	0.0130122
782.483	0.0131047
782.561	0.0130435
782.639	0.0129388
782.717	0.0130144
782.795	0.0130216
782.874	0.0130968
782.952	0.0130010
783.030	0.0130080
783.108	0.0129408
783.186	0.0130250
783.264	0.0129357
783.342	0.0129781
783.420	0.0129708
783.499	0.0129082
783.577	0.0128874
783.655	0.0129757
783.733	0.0129546
783.811	0.0129660
783.889	0.0129155
783.967	0.0129855
784.045	0.0130425
784.124	0.0128891
784.202	0.0131082
784.280	0.0130277
784.358	0.0130817
784.436	0.0129611
784.514	0.0131300
784.592	0.0129801
784.670	0.0130876
784.749	0.0129691
784.827	0.0130515
784.905	0.0129581
784.983	0.0128543
785.061	0.0129255
785.139	0.0128749
785.217	0.0130379
785.295	0.0129498
785.374	0.0128417
785.452	0.0128544
785.530	0.0127992
785.608	0.0127010
785.686	0.0128325
785.764	0.0128364
785.842	0.0128300
785.920	0.0128273
785.999	0.0130395
786.077	0.0129396
786.155	0.0128230
786.233	0.0128616
786.311	0.0129313
786.389	0.0128793
786.467	0.0129202
786.545	0.0128904
786.624	0.0129932
786.702	0.0129647
786.780	0.0128147
786.858	0.0129146
786.936	0.0129346
787.014	0.0129244
787.092	0.0130421
787.170	0.0129342
787.249	0.0128643
787.327	0.0130235
787.405	0.0130682
787.483	0.0130089
787.561	0.0128983
787.639	0.0129139
787.717	0.0128698
787.795	0.0127977
787.874	0.0128056
787.952	0.0128108
788.030	0.0129020
788.108	0.0127777
788.186	0.0128452
788.264	0.0128719
788.342	0.0130490
788.420	0.0128502
788.499	0.0128818
788.577	0.0130019
788.655	0.0131982
788.733	0.0131690
788.811	0.0133355
788.889	0.0133184
788.967	0.0134974
789.045	0.0133538
789.124	0.0133915
789.202	0.0133430
789.280	0.0135135
789.358	0.0135223
789.436	0.0134527
789.514	0.0134103
789.592	0.0134308
789.670	0.0133996
789.749	0.0132658
789.827	0.0132197
789.905	0.0132133
789.983	0.0132970
790.061	0.0131046
790.139	0.0130446
790.217	0.0130653
790.295	0.0129478
790.374	0.0127393
790.452	0.0129257
790.530	0.0128539
790.608	0.0126218
790.686	0.0127148
790.764	0.0126379
790.842	0.0128165
790.920	0.0127586
790.999	0.0125567
791.077	0.0126802
791.155	0.0127742
791.233	0.0127811
791.311	0.0126743
791.389	0.0128391
791.467	0.0127287
791.545	0.0126263
791.624	0.0125900
791.702	0.0127383
791.780	0.0128011
791.858	0.0126437
791.936	0.0127613
792.014	0.0127785
792.092	0.0128710
792.170	0.0126963
792.249	0.0127487
792.327	0.0128039
792.405	0.0127742
792.483	0.0127104
792.561	0.0127058
792.639	0.0127689
792.717	0.0127865
792.795	0.0127859
792.874	0.0126889
792.952	0.0127214
793.030	0.0126167
793.108	0.0127502
793.186	0.0126627
793.264	0.0127208
793.342	0.0127759
793.420	0.0126827
793.499	0.0127992
793.577	0.0127859
793.655	0.0128425
793.733	0.0128141
793.811	0.0127794
793.889	0.0128316
793.967	0.0128434
794.045	0.0128474
794.124	0.0127383
794.202	0.0127525
794.280	0.0128762
794.358	0.0127702
794.436	0.0127254
794.514	0.0128539
794.592	0.0128123
794.670	0.0128178
794.749	0.0127231
794.827	0.0127813
794.905	0.0128709
794.983	0.0128241
795.061	0.0127789
795.139	0.0127798
795.217	0.0127975
795.295	0.0127333
795.374	0.0127939
795.452	0.0126861
795.530	0.0126815
795.608	0.0128030
795.686	0.0127137
795.764	0.0125907
795.842	0.0127629
795.920	0.0126772
795.999	0.0128265
796.077	0.0127051
796.155	0.0126929
796.233	0.0127872
796.311	0.0127737
796.389	0.0127825
796.467	0.0126927
796.545	0.0126837
796.624	0.0125858
796.702	0.0127178
796.780	0.0126906
796.858	0.0126425
796.936	0.0128043
797.014	0.0127235
797.092	0.0127907
797.170	0.0128025
797.249	0.0127974
797.327	0.0128278
797.405	0.0128423
797.483	0.0129666
797.561	0.0128962
797.639	0.0128457
797.717	0.0127151
797.795	0.0127411
797.874	0.0129779
797.952	0.0129320
798.030	0.0129166
798.108	0.0130238
798.186	0.0129372
798.264	0.0128992
798.342	0.0128578
798.420	0.0129964
798.499	0.0129921
798.577	0.0130273
798.655	0.0130600
798.733	0.0128534
798.811	0.0128872
798.889	0.0128053
798.967	0.0127647
799.045	0.0129558
799.124	0.0127312
799.202	0.0126371
799.280	0.0127412
799.358	0.0128004
799.436	0.0127680
799.514	0.0127453
799.592	0.0125741
799.670	0.0127091
799.749	0.0126744
799.827	0.0127284
799.905	0.0127633
799.983	0.0129134
800.061	0.0129905
800.139	0.0127177
800.217	0.0127179
800.295	0.0128275
800.374	0.0128354
800.452	0.0127611
800.530	0.0129026
800.608	0.0130026
800.686	0.0127787
800.764	0.0127973
800.842	0.0128960
800.920	0.0126844
800.999	0.0127882
801.077	0.0126418
801.155	0.0128493
801.233	0.0128555
801.311	0.0126820
801.389	0.0128054
801.467	0.0129085
801.545	0.0128501
801.624	0.0128186
801.702	0.0129225
801.780	0.0128384
801.858	0.0129034
801.936	0.0128802
802.014	0.0126031
802.092	0.0126897
802.170	0.0127562
802.249	0.0128265
802.327	0.0127119
802.405	0.0128020
802.483	0.0128311
802.561	0.0128047
802.639	0.0128664
802.717	0.0128283
802.795	0.0129607
802.874	0.0130144
802.952	0.0130325
803.030	0.0130763
803.108	0.0129937
803.186	0.0131822
803.264	0.0130094
803.342	0.0130497
803.420	0.0130624
803.499	0.0131864
803.577	0.0130752
803.655	0.0129798
803.733	0.0131517
803.811	0.0131116
803.889	0.0131834
803.967	0.0130347
804.045	0.0130197
804.124	0.0130770
804.202	0.0130119
804.280	0.0129790
804.358	0.0129801
804.436	0.0129206
804.514	0.0128994
804.592	0.0128397
804.670	0.0128407
804.749	0.0126717
804.827	0.0127850
804.905	0.0126930
804.983	0.0126321
805.061	0.0127249
805.139	0.0128748
805.217	0.0126962
805.295	0.0127203
805.374	0.0128020
805.452	0.0130231
805.530	0.0128906
805.608	0.0130907
805.686	0.0130930
805.764	0.0130757
805.842	0.0130962
805.920	0.0131834
805.999	0.0130269
806.077	0.0131509
806.155	0.0130345
806.233	0.0130736
806.311	0.0130864
806.389	0.0130420
806.467	0.0131606
806.545	0.0130846
806.624	0.0130980
806.702	0.0130827
806.780	0.0128860
806.858	0.0129540
806.936	0.0129053
807.014	0.0127283
807.092	0.0129114
807.170	0.0128149
807.249	0.0126691
807.327	0.0126283
807.405	0.0126421
807.483	0.0126630
807.561	0.0125599
807.639	0.0125408
807.717	0.0125945
807.795	0.0125554
807.874	0.0123810
807.952	0.0123931
808.030	0.0125015
808.108	0.0124517
808.186	0.0126027
808.264	0.0126166
808.342	0.0126939
808.420	0.0125199
808.499	0.0127610
808.577	0.0128075
808.655	0.0127278
808.733	0.0127754
808.811	0.0129761
808.889	0.0128429
808.967	0.0129662
809.045	0.0129690
809.124	0.0128631
809.202	0.0131355
809.280	0.0131149
809.358	0.0131340
809.436	0.0132027
809.514	0.0131723
809.592	0.0132254
809.670	0.0131853
809.749	0.0131417
809.827	0.0130576
809.905	0.0132601
809.983	0.0130971
810.061	0.0128874
810.139	0.0130642
810.217	0.0129382
810.295	0.0130659
810.374	0.0130738
810.452	0.0130537
810.530	0.0130518
810.608	0.0129716
810.686	0.0129875
810.764	0.0130088
810.842	0.0131600
810.920	0.0130566
810.999	0.0129192
811.077	0.0129990
811.155	0.0129600
811.233	0.0129275
811.311	0.0129105
811.389	0.0128872
811.467	0.0127733
811.545	0.0128156
811.624	0.0128973
811.702	0.0127914
811.780	0.0127508
811.858	0.0127630
811.936	0.0127412
812.014	0.0128532
812.092	0.0129068
812.170	0.0128116
812.249	0.0129106
812.327	0.0129831
812.405	0.0130122
812.483	0.0130145
812.561	0.0128639
812.639	0.0127901
812.717	0.0129997
812.795	0.0131512
812.874	0.0130212
812.952	0.0130441
813.030	0.0130411
813.108	0.0130791
813.186	0.0130094
813.264	0.0128875
813.342	0.0129433
813.420	0.0129166
813.499	0.0129625
813.577	0.0129998
813.655	0.0128077
813.733	0.0128951
813.811	0.0128469
813.889	0.0127222
813.967	0.0127878
814.045	0.0127840
814.124	0.0127876
814.202	0.0128984
814.280	0.0128539
814.358	0.0127884
814.436	0.0128380
814.514	0.0127669
814.592	0.0127175
814.670	0.0128886
814.749	0.0127631
814.827	0.0128591
814.905	0.0128735
814.983	0.0130180
815.061	0.0130953
815.139	0.0130229
815.217	0.0129676
815.295	0.0131312
815.374	0.0131446
815.452	0.0130229
815.530	0.0130029
815.608	0.0130145
815.686	0.0128591
815.764	0.0127939
815.842	0.0130121
815.920	0.0129183
815.999	0.0130618
816.077	0.0130137
816.155	0.0129964
816.233	0.0128719
816.311	0.0129588
816.389	0.0130524
816.467	0.0130807
816.545	0.0131535
816.624	0.0132469
816.702	0.0131321
816.780	0.0132016
816.858	0.0132082
816.936	0.0131296
817.014	0.0131174
817.092	0.0130618
817.170	0.0130325
817.249	0.0129285
817.327	0.0129446
817.405	0.0129160
817.483	0.0129097
817.561	0.0128512
817.639	0.0130428
817.717	0.0128124
817.795	0.0126916
817.874	0.0128408
817.952	0.0126634
818.030	0.0128139
818.108	0.0126742
818.186	0.0126865
818.264	0.0127642
818.342	0.0125529
818.420	0.0127415
818.499	0.0126298
818.577	0.0125506
818.655	0.0126845
818.733	0.0128024
818.811	0.0127581
818.889	0.0127769
818.967	0.0127359
819.045	0.0128841
819.124	0.0129337
819.202	0.0129302
819.280	0.0130076
819.358	0.0128986
819.436	0.0128749
819.514	0.0129979
819.592	0.0131157
819.670	0.0130637
819.749	0.0128778
819.827	0.0130281
819.905	0.0129699
819.983	0.0129602
820.061	0.0127560
820.139	0.0128252
820.217	0.0128333
820.295	0.0129737
820.374	0.0127043
820.452	0.0126394
820.530	0.0128498
820.608	0.0127168
820.686	0.0128049
820.764	0.0129021
820.842	0.0129431
820.920	0.0128339
820.999	0.0128614
821.077	0.0129401
821.155	0.0129728
821.233	0.0129669
821.311	0.0129794
821.389	0.0129364
821.467	0.0130911
821.545	0.0130274
821.624	0.0129058
821.702	0.0130410
821.780	0.0131152
821.858	0.0131106
821.936	0.0129977
822.014	0.0129471
822.092	0.0129540
822.170	0.0129659
822.249	0.0129949
822.327	0.0128225
822.405	0.0130374
822.483	0.0129256
822.561	0.0130042
822.639	0.0128918
822.717	0.0128613
822.795	0.0128860
822.874	0.0128841
822.952	0.0128410
823.030	0.0127660
823.108	0.0128893
823.186	0.0128419
823.264	0.0129028
823.342	0.0128577
823.420	0.0127969
823.499	0.0127559
823.577	0.0129161
823.655	0.0128111
823.733	0.0128648
823.811	0.0128289
823.889	0.0127236
823.967	0.0128623
824.045	0.0128287
824.124	0.0128436
824.202	0.0128788
824.280	0.0128191
824.358	0.0128686
824.436	0.0128243
824.514	0.0128798
824.592	0.0130386
824.670	0.0129806
824.749	0.0130647
824.827	0.0129171
824.905	0.0130713
824.983	0.0129996
825.061	0.0130124
825.139	0.0128344
825.217	0.0130378
825.295	0.0130107
825.374	0.0129185
825.452	0.0128732
825.530	0.0128960
825.608	0.0127378
825.686	0.0129929
825.764	0.0127361
825.842	0.0128500
825.920	0.0127938
825.999	0.0128909
826.077	0.0127859
826.155	0.0128003
826.233	0.0128261
826.311	0.0126960
826.389	0.0127939
826.467	0.0128542
826.545	0.0127570
826.624	0.0126899
826.702	0.0128256
826.780	0.0127931
826.858	0.0125781
826.936	0.0125896
827.014	0.0127478
827.092	0.0127518
827.170	0.0127271
827.249	0.0126781
827.327	0.0127682
827.405	0.0126550
827.483	0.0126918
827.561	0.0126958
827.639	0.0129380
827.717	0.0128584
827.795	0.0128557
827.874	0.0127513
827.952	0.0128891
828.030	0.0128149
828.108	0.0127106
828.186	0.0128748
828.264	0.0128277
828.342	0.0128321
828.420	0.0128680
828.499	0.0128601
828.577	0.0128048
828.655	0.0127613
828.733	0.0128264
828.811	0.0127113
828.889	0.0126447
828.967	0.0127078
829.045	0.0128594
829.124	0.0126078
829.202	0.0126641
829.280	0.0126246
829.358	0.0125211
829.436	0.0125241
829.514	0.0126505
829.592	0.0125522
829.670	0.0126500
829.749	0.0126543
829.827	0.0125534
829.905	0.0125602
829.983	0.0127081
830.061	0.0126927
830.139	0.0127518
830.217	0.0126854
830.295	0.0130239
830.374	0.0128707
830.452	0.0127906
830.530	0.0127885
830.608	0.0130646
830.686	0.0130531
830.764	0.0129417
830.842	0.0130549
830.920	0.0128457
830.999	0.0128175
831.077	0.0128231
831.155	0.0130137
831.233	0.0129133
831.311	0.0129008
831.389	0.0128392
831.467	0.0128345
831.545	0.0129164
831.624	0.0127700
831.702	0.0128223
831.780	0.0127720
831.858	0.0127771
831.936	0.0128777
832.014	0.0127199
832.092	0.0126567
832.170	0.0127023
832.249	0.0126402
832.327	0.0126202
832.405	0.0126634
832.483	0.0127553
832.561	0.0127679
832.639	0.0126560
832.717	0.0127546
832.795	0.0127375
832.874	0.0127776
832.952	0.0128462
833.030	0.0129110
833.108	0.0128304
833.186	0.0128333
833.264	0.0127284
833.342	0.0128535
833.420	0.0129726
833.499	0.0130432
833.577	0.0129848
833.655	0.0130663
833.733	0.0130735
833.811	0.0129639
833.889	0.0130249
833.967	0.0129402
834.045	0.0129467
834.124	0.0129651
834.202	0.0130983
834.280	0.0131180
834.358	0.0128466
834.436	0.0130479
834.514	0.0129779
834.592	0.0129412
834.670	0.0130347
834.749	0.0130834
834.827	0.0130231
834.905	0.0129408
834.983	0.0128771
835.061	0.0128777
835.139	0.0128891
835.217	0.0128497
835.295	0.0128914
835.374	0.0129719
835.452	0.0129185
835.530	0.0128347
835.608	0.0129253
835.686	0.0128108
835.764	0.0127656
835.842	0.0129395
835.920	0.0128049
835.999	0.0128757
836.077	0.0128885
836.155	0.0129047
836.233	0.0130208
836.311	0.0129804
836.389	0.0128974
836.467	0.0128832
836.545	0.0129419
836.624	0.0129073
836.702	0.0129352
836.780	0.0129758
836.858	0.0130122
836.936	0.0128790
837.014	0.0128956
837.092	0.0128164
837.170	0.0127828
837.249	0.0128969
837.327	0.0130255
837.405	0.0128383
837.483	0.0128750
837.561	0.0127198
837.639	0.0125975
837.717	0.0127060
837.795	0.0128761
837.874	0.0128963
837.952	0.0127219
838.030	0.0127345
838.108	0.0129374
838.186	0.0128738
838.264	0.0127081
838.342	0.0129028
838.420	0.0129396
838.499	0.0129645
838.577	0.0130938
838.655	0.0131879
838.733	0.0130907
838.811	0.0131434
838.889	0.0131625
838.967	0.0130901
839.045	0.0133350
839.124	0.0132641
839.202	0.0132503
839.280	0.0132411
839.358	0.0131496
839.436	0.0132282
839.514	0.0131396
839.592	0.0132484
839.670	0.0131683
839.749	0.0133066
839.827	0.0131625
839.905	0.0132097
839.983	0.0130172
840.061	0.0131807
840.139	0.0130580
840.217	0.0128572
840.295	0.0129514
840.374	0.0130595
840.452	0.0129375
840.530	0.0129175
840.608	0.0129108
840.686	0.0129195
840.764	0.0127290
840.842	0.0127863
840.920	0.0127725
840.999	0.0128725
841.077	0.0126791
841.155	0.0127367
841.233	0.0128508
841.311	0.0128185
841.389	0.0128005
841.467	0.0127726
841.545	0.0128020
841.624	0.0128321
841.702	0.0127771
841.780	0.0128479
841.858	0.0128562
841.936	0.0128108
842.014	0.0127480
842.092	0.0128146
842.170	0.0127541
842.249	0.0127795
842.327	0.0127154
842.405	0.0127394
842.483	0.0128378
842.561	0.0127042
842.639	0.0127728
842.717	0.0126432
842.795	0.0126543
842.874	0.0127399
842.952	0.0127909
843.030	0.0127742
843.108	0.0129457
843.186	0.0130055
843.264	0.0128884
843.342	0.0127836
843.420	0.0129478
843.499	0.0130570
843.577	0.0129610
843.655	0.0131074
843.733	0.0131286
843.811	0.0131078
843.889	0.0129984
843.967	0.0130369
844.045	0.0131407
844.124	0.0130712
844.202	0.0130038
844.280	0.0129829
844.358	0.0130968
844.436	0.0130574
844.514	0.0130553
844.592	0.0130000
844.670	0.0130488
844.749	0.0129741
844.827	0.0131183
844.905	0.0130971
844.983	0.0130252
845.061	0.0130521
845.139	0.0131776
845.217	0.0130080
845.295	0.0130615
845.374	0.0130250
845.452	0.0130644
845.530	0.0130412
845.608	0.0129086
845.686	0.0130212
845.764	0.0128716
845.842	0.0128577
845.920	0.0128168
845.999	0.0129652
846.077	0.0128690
846.155	0.0128877
846.233	0.0128239
846.311	0.0126854
846.389	0.0127731
846.467	0.0129082
846.545	0.0129307
846.624	0.0128384
846.702	0.0128884
846.780	0.0128626
846.858	0.0130201
846.936	0.0128828
847.014	0.0129313
847.092	0.0128320
847.170	0.0128650
847.249	0.0130603
847.327	0.0129544
847.405	0.0129739
847.483	0.0129594
847.561	0.0129198
847.639	0.0130965
847.717	0.0130552
847.795	0.0130893
847.874	0.0131541
847.952	0.0131413
848.030	0.0130640
848.108	0.0129165
848.186	0.0130551
848.264	0.0129039
848.342	0.0128890
848.420	0.0129677
848.499	0.0128842
848.577	0.0128244
848.655	0.0128248
848.733	0.0128091
848.811	0.0127881
848.889	0.0126795
848.967	0.0126970
849.045	0.0128014
849.124	0.0128135
849.202	0.0127578
849.280	0.0126633
849.358	0.0127765
849.436	0.0125545
849.514	0.0126263
849.592	0.0126775
849.670	0.0128116
849.749	0.0127090
849.827	0.0124931
849.905	0.0125285
849.983	0.0126102
850.061	0.0127688
850.139	0.0126070
850.217	0.0125864
850.295	0.0127156
850.374	0.0126597
850.452	0.0127764
850.530	0.0127233
850.608	0.0126894
850.686	0.0128214
850.764	0.0126508
850.842	0.0127457
850.920	0.0127258
850.999	0.0128437
851.077	0.0129418
851.155	0.0129338
851.233	0.0128915
851.311	0.0130180
851.389	0.0129392
851.467	0.0128595
851.545	0.0129355
851.624	0.0130373
851.702	0.0129612
851.780	0.0129737
851.858	0.0131287
851.936	0.0131133
852.014	0.0129961
852.092	0.0129690
852.170	0.0129494
852.249	0.0129858
852.327	0.0130713
852.405	0.0129675
852.483	0.0129919
852.561	0.0128835
852.639	0.0127789
852.717	0.0127827
852.795	0.0128619
852.874	0.0127054
852.952	0.0126089
853.030	0.0125521
853.108	0.0125336
853.186	0.0124385
853.264	0.0124475
853.342	0.0122766
853.420	0.0123503
853.499	0.0121765
853.577	0.0121706
853.655	0.0122331
853.733	0.0123071
853.811	0.0122198
853.889	0.0123229
853.967	0.0123772
854.045	0.0123238
854.124	0.0123515
854.202	0.0125610
854.280	0.0126412
854.358	0.0125729
854.436	0.0126984
854.514	0.0126908
854.592	0.0127255
854.670	0.0128241
854.749	0.0128510
854.827	0.0128840
854.905	0.0128481
854.983	0.0128738
855.061	0.0130658
855.139	0.0129350
855.217	0.0129729
855.295	0.0130833
855.374	0.0130912
855.452	0.0131712
855.530	0.0130708
855.608	0.0129534
855.686	0.0129921
855.764	0.0129774
855.842	0.0129859
855.920	0.0130031
855.999	0.0128497
856.077	0.0127186
856.155	0.0127113
856.233	0.0127940
856.311	0.0127133
856.389	0.0126846
856.467	0.0125469
856.545	0.0125017
856.624	0.0125397
856.702	0.0124454
856.780	0.0124260
856.858	0.0124370
856.936	0.0123408
857.014	0.0122961
857.092	0.0123441
857.170	0.0123589
857.249	0.0123705
857.327	0.0124089
857.405	0.0122974
857.483	0.0124971
857.561	0.0125215
857.639	0.0127139
857.717	0.0127347
857.795	0.0127096
857.874	0.0128432
857.952	0.0129044
858.030	0.0127827
858.108	0.0128571
858.186	0.0129785
858.264	0.0129324
858.342	0.0130408
858.420	0.0129703
858.499	0.0130595
858.577	0.0131626
858.655	0.0130933
858.733	0.0131262
858.811	0.0130748
858.889	0.0131059
858.967	0.0130572
859.045	0.0130600
859.124	0.0131899
859.202	0.0130677
859.280	0.0129305
859.358	0.0129418
859.436	0.0131027
859.514	0.0131511
859.592	0.0130167
859.670	0.0130323
859.749	0.0130606
859.827	0.0129975
859.905	0.0130701
859.983	0.0129105
860.061	0.0129073
860.139	0.0128967
860.217	0.0127501
860.295	0.0128993
860.374	0.0126794
860.452	0.0126289
860.530	0.0125723
860.608	0.0125076
860.686	0.0125321
860.764	0.0124229
860.842	0.0125013
860.920	0.0124866
860.999	0.0124248
861.077	0.0124757
861.155	0.0124986
861.233	0.0124860
861.311	0.0125034
861.389	0.0124189
861.467	0.0126270
861.545	0.0125655
861.624	0.0126815
861.702	0.0126915
861.780	0.0126218
861.858	0.0128368
861.936	0.0128587
862.014	0.0127127
862.092	0.0128864
862.170	0.0131183
862.249	0.0131190
862.327	0.0132342
862.405	0.0131489
862.483	0.0132222
862.561	0.0132818
862.639	0.0131440
862.717	0.0133932
862.795	0.0131608
862.874	0.0132196
862.952	0.0132355
863.030	0.0132292
863.108	0.0133304
863.186	0.0130636
863.264	0.0131100
863.342	0.0131086
863.420	0.0130009
863.499	0.0130046
863.577	0.0129935
863.655	0.0128892
863.733	0.0129617
863.811	0.0126816
863.889	0.0127105
863.967	0.0127496
864.045	0.0127679
864.124	0.0127332
864.202	0.0126261
864.280	0.0125488
864.358	0.0127871
864.436	0.0128651
864.514	0.0126942
864.592	0.0128790
864.670	0.0130268
864.749	0.0128657
864.827	0.0128656
864.905	0.0130088
864.983	0.0130751
865.061	0.0130537
865.139	0.0131544
865.217	0.0131905
865.295	0.0131847
865.374	0.0133441
865.452	0.0131723
865.530	0.0130836
865.608	0.0131408
865.686	0.0132685
865.764	0.0132251
865.842	0.0131568
865.920	0.0131200
865.999	0.0129877
866.077	0.0130795
866.155	0.0130775
866.233	0.0130041
866.311	0.0131199
866.389	0.0129058
866.467	0.0129509
866.545	0.0130172
866.624	0.0128874
866.702	0.0128583
866.780	0.0127863
866.858	0.0128642
866.936	0.0128414
867.014	0.0128427
867.092	0.0127364
867.170	0.0127937
867.249	0.0127486
867.327	0.0127761
867.405	0.0127184
867.483	0.0129679
867.561	0.0127886
867.639	0.0127692
867.717	0.0128699
867.795	0.0129114
867.874	0.0128693
867.952	0.0128386
868.030	0.0129260
868.108	0.0127685
868.186	0.0128812
868.264	0.0129572
868.342	0.0128403
868.420	0.0127982
868.499	0.0129170
868.577	0.0128019
868.655	0.0128845
868.733	0.0126837
868.811	0.0127991
868.889	0.0127715
868.967	0.0128907
869.045	0.0129099
869.124	0.0128556
869.202	0.0127981
869.280	0.0129937
869.358	0.0130459
869.436	0.0129020
869.514	0.0129929
869.592	0.0131129
869.670	0.0130354
869.749	0.0129765
869.827	0.0130648
869.905	0.0131894
869.983	0.0131777
870.061	0.0131370
870.139	0.0130093
870.217	0.0130705
870.295	0.0128815
870.374	0.0130124
870.452	0.0129439
870.530	0.0129728
870.608	0.0129137
870.686	0.0129703
870.764	0.0127589
870.842	0.0128015
870.920	0.0127648
870.999	0.0128651
871.077	0.0127595
871.155	0.0127970
871.233	0.0128406
871.311	0.0128426
871.389	0.0124853
871.467	0.0126735
871.545	0.0127412
871.624	0.0128291
871.702	0.0126813
871.780	0.0125659
871.858	0.0126366
871.936	0.0125160
872.014	0.0126036
872.092	0.0125890
872.170	0.0124249
872.249	0.0123179
872.327	0.0124580
872.405	0.0126457
872.483	0.0124988
872.561	0.0124155
872.639	0.0125533
872.717	0.0126398
872.795	0.0127335
872.874	0.0127737
872.952	0.0128307
873.030	0.0127718
873.108	0.0128098
873.186	0.0129048
873.264	0.0129547
873.342	0.0130315
873.420	0.0130232
873.499	0.0131435
873.577	0.0130676
873.655	0.0130977
873.733	0.0131018
873.811	0.0130257
873.889	0.0130209
873.967	0.0130543
874.045	0.0129103
874.124	0.0128876
874.202	0.0129972
874.280	0.0127705
874.358	0.0128012
874.436	0.0128819
874.514	0.0127832
874.592	0.0127605
874.670	0.0127473
874.749	0.0128290
874.827	0.0127941
874.905	0.0126012
874.983	0.0127999
875.061	0.0127475
875.139	0.0126467
875.217	0.0127414
875.295	0.0127030
875.374	0.0125502
875.452	0.0124793
875.530	0.0126148
875.608	0.0126633
875.686	0.0126251
875.764	0.0127541
875.842	0.0126168
875.920	0.0126867
875.999	0.0127095
876.077	0.0127210
876.155	0.0126810
876.233	0.0127801
876.311	0.0128015
876.389	0.0128191
876.467	0.0128307
876.545	0.0129341
876.624	0.0129562
876.702	0.0129360
876.780	0.0127789
876.858	0.0129107
876.936	0.0129024
877.014	0.0129857
877.092	0.0128408
877.170	0.0128092
877.249	0.0127681
877.327	0.0128751
877.405	0.0127346
877.483	0.0126068
877.561	0.0126891
877.639	0.0127245
877.717	0.0125564
877.795	0.0127299
877.874	0.0127674
877.952	0.0126530
878.030	0.0126998
878.108	0.0128090
878.186	0.0126625
878.264	0.0126287
878.342	0.0127788
878.420	0.0127586
878.499	0.0128983
878.577	0.0128802
878.655	0.0127541
878.733	0.0128040
878.811	0.0129662
878.889	0.0127608
878.967	0.0128609
879.045	0.0128996
879.124	0.0128535
879.202	0.0128498
879.280	0.0127659
879.358	0.0128941
879.436	0.0126672
879.514	0.0126843
879.592	0.0127751
879.670	0.0127505
879.749	0.0126881
879.827	0.0125983
879.905	0.0128124
879.983	0.0127121
880.061	0.0126872
880.139	0.0128648
880.217	0.0126480
880.295	0.0126465
880.374	0.0127388
880.452	0.0127612
880.530	0.0127508
880.608	0.0127571
880.686	0.0127186
880.764	0.0128335
880.842	0.0127856
880.920	0.0128008
880.999	0.0127556
881.077	0.0128683
881.155	0.0127952
881.233	0.0128575
881.311	0.0128497
881.389	0.0128111
881.467	0.0129508
881.545	0.0128149
881.624	0.0129046
881.702	0.0129909
881.780	0.0129924
881.858	0.0128318
881.936	0.0128223
882.014	0.0128665
882.092	0.0129151
882.170	0.0128610
882.249	0.0128976
882.327	0.0128535
882.405	0.0129108
882.483	0.0127532
882.561	0.0126102
882.639	0.0127599
882.717	0.0127138
882.795	0.0126892
882.874	0.0126964
882.952	0.0126930
883.030	0.0126432
883.108	0.0127235
883.186	0.0127845
883.264	0.0128944
883.342	0.0128847
883.420	0.0128530
883.499	0.0129689
883.577	0.0130680
883.655	0.0128975
883.733	0.0129784
883.811	0.0130230
883.889	0.0130341
883.967	0.0129507
884.045	0.0130515
884.124	0.0131049
884.202	0.0130968
884.280	0.0130026
884.358	0.0130563
884.436	0.0128564
884.514	0.0128416
884.592	0.0127649
884.670	0.0129029
884.749	0.0127754
884.827	0.0128493
884.905	0.0128416
884.983	0.0128132
885.061	0.0127939
885.139	0.0127568
885.217	0.0127008
885.295	0.0127635
885.374	0.0127982
885.452	0.0127750
885.530	0.0126805
885.608	0.0127914
885.686	0.0128704
885.764	0.0127210
885.842	0.0127139
885.920	0.0128590
885.999	0.0128321
886.077	0.0128307
886.155	0.0129334
886.233	0.0128509
886.311	0.0128735
886.389	0.0128704
886.467	0.0128368
886.545	0.0128682
886.624	0.0128254
886.702	0.0127122
886.780	0.0126331
886.858	0.0127271
886.936	0.0128407
887.014	0.0127541
887.092	0.0128079
887.170	0.0129061
887.249	0.0128517
887.327	0.0128412
887.405	0.0129319
887.483	0.0130234
887.561	0.0130389
887.639	0.0131678
887.717	0.0131476
887.795	0.0130960
887.874	0.0131816
887.952	0.0131374
888.030	0.0131103
888.108	0.0133227
888.186	0.0132136
888.264	0.0129925
888.342	0.0130746
888.420	0.0130766
888.499	0.0130185
888.577	0.0129905
888.655	0.0128031
888.733	0.0128146
888.811	0.0128820
888.889	0.0127144
888.967	0.0128325
889.045	0.0126859
889.124	0.0127303
889.202	0.0128036
889.280	0.0127628
889.358	0.0127276
889.436	0.0126504
889.514	0.0125636
889.592	0.0125463
889.670	0.0127153
889.749	0.0127241
889.827	0.0126698
889.905	0.0128081
889.983	0.0129102
890.061	0.0127835
890.139	0.0126870
890.217	0.0127176
890.295	0.0128500
890.374	0.0128300
890.452	0.0127975
890.530	0.0127673
890.608	0.0127945
890.686	0.0127394
890.764	0.0128423
890.842	0.0129204
890.920	0.0129546
890.999	0.0129811
891.077	0.0129841
891.155	0.0130175
891.233	0.0130216
891.311	0.0129056
891.389	0.0131360
891.467	0.0132187
891.545	0.0130443
891.624	0.0130584
891.702	0.0133049
891.780	0.0132197
891.858	0.0131905
891.936	0.0131575
892.014	0.0130722
892.092	0.0131684
892.170	0.0128190
892.249	0.0130977
892.327	0.0131066
892.405	0.0130208
892.483	0.0130747
892.561	0.0130016
892.639	0.0130302
892.717	0.0130068
892.795	0.0129019
892.874	0.0129472
892.952	0.0129475
893.030	0.0129367
893.108	0.0130116
893.186	0.0127730
893.264	0.0126997
893.342	0.0129101
893.420	0.0128133
893.499	0.0126526
893.577	0.0126846
893.655	0.0127226
893.733	0.0126579
893.811	0.0127482
893.889	0.0127364
893.967	0.0126408
894.045	0.0126329
894.124	0.0125961
894.202	0.0126863
894.280	0.0128554
894.358	0.0128194
894.436	0.0127505
894.514	0.0127259
894.592	0.0128277
894.670	0.0128423
894.749	0.0129102
894.827	0.0128545
894.905	0.0128540
894.983	0.0129597
895.061	0.0129769
895.139	0.0128838
895.217	0.0129736
895.295	0.0128785
895.374	0.0129269
895.452	0.0130219
895.530	0.0129757
895.608	0.0131000
895.686	0.0131316
895.764	0.0130526
895.842	0.0129010
895.920	0.0128639
895.999	0.0129429
896.077	0.0129137
896.155	0.0129106
896.233	0.0129883
896.311	0.0128085
896.389	0.0128653
896.467	0.0127592
896.545	0.0128716
896.624	0.0127933
896.702	0.0128354
896.780	0.0128060
896.858	0.0128078
896.936	0.0127384
897.014	0.0126879
897.092	0.0129634
897.170	0.0128968
897.249	0.0129277
897.327	0.0130381
897.405	0.0128123
897.483	0.0128856
897.561	0.0127888
897.639	0.0130658
897.717	0.0129738
897.795	0.0128241
897.874	0.0129638
897.952	0.0129590
898.030	0.0129616
898.108	0.0129012
898.186	0.0130524
898.264	0.0129131
898.342	0.0129480
898.420	0.0129073
898.499	0.0129227
898.577	0.0129652
898.655	0.0130200
898.733	0.0130451
898.811	0.0129916
898.889	0.0131015
898.967	0.0129704
899.045	0.0129965
899.124	0.0129198
899.202	0.0128888
899.280	0.0129565
899.358	0.0128621
899.436	0.0126279
899.514	0.0128036
899.592	0.0126784
899.670	0.0128081
899.749	0.0127592
899.827	0.0126259
899.905	0.0126492
899.983	0.0126744
900.061	0.0127393
900.139	0.0125920
900.217	0.0124110
900.295	0.0127022
900.374	0.0127000
900.452	0.0126260
900.530	0.0126369
900.608	0.0126302
900.686	0.0126421
900.764	0.0127107
900.842	0.0128176
900.920	0.0126862
900.999	0.0128547
901.077	0.0127380
901.155	0.0128163
901.233	0.0128102
901.311	0.0129048
901.389	0.0127808
901.467	0.0128349
901.545	0.0129619
901.624	0.0129739
901.702	0.0128865
901.780	0.0129227
901.858	0.0128464
901.936	0.0126032
902.014	0.0127669
902.092	0.0128896
902.170	0.0127563
902.249	0.0129166
902.327	0.0127406
902.405	0.0128023
902.483	0.0128655
902.561	0.0127494
902.639	0.0127100
902.717	0.0126500
902.795	0.0127195
902.874	0.0128246
902.952	0.0127031
903.030	0.0127419
903.108	0.0126680
903.186	0.0127709
903.264	0.0128918
903.342	0.0127827
903.420	0.0128889
903.499	0.0128758
903.577	0.0129053
903.655	0.0129902
903.733	0.0127895
903.811	0.0130229
903.889	0.0129263
903.967	0.0131207
904.045	0.0129722
904.124	0.0129202
904.202	0.0130415
904.280	0.0130914
904.358	0.0130560
904.436	0.0129781
904.514	0.0129258
904.592	0.0130606
904.670	0.0131326
904.749	0.0129848
904.827	0.0129133
904.905	0.0129082
904.983	0.0130381
905.061	0.0128666
905.139	0.0128764
905.217	0.0128140
905.295	0.0128122
905.374	0.0128144
905.452	0.0127388
905.530	0.0127525
905.608	0.0128017
905.686	0.0127519
905.764	0.0127112
905.842	0.0127583
905.920	0.0127811
905.999	0.0128013
906.077	0.0127663
906.155	0.0128127
906.233	0.0129332
906.311	0.0129190
906.389	0.0128240
906.467	0.0128998
906.545	0.0128004
906.624	0.0128992
906.702	0.0130559
906.780	0.0128857
906.858	0.0129051
906.936	0.0129906
907.014	0.0129087
907.092	0.0129833
907.170	0.0127575
907.249	0.0129012
907.327	0.0129944
907.405	0.0130692
907.483	0.0128156
907.561	0.0130212
907.639	0.0129539
907.717	0.0129442
907.795	0.0130061
907.874	0.0129057
907.952	0.0128835
908.030	0.0128836
908.108	0.0130220
908.186	0.0129844
908.264	0.0128300
908.342	0.0129109
908.420	0.0127847
908.499	0.0127888
908.577	0.0126948
908.655	0.0128729
908.733	0.0128865
908.811	0.0127225
908.889	0.0126392
908.967	0.0128069
909.045	0.0128126
909.124	0.0129355
909.202	0.0127294
909.280	0.0127039
909.358	0.0128185
909.436	0.0128975
909.514	0.0128416
909.592	0.0128999
909.670	0.0128159
909.749	0.0129250
909.827	0.0128558
909.905	0.0127421
909.983	0.0127768
910.061	0.0128747
910.139	0.0129069
910.217	0.0127853
910.295	0.0129194
910.374	0.0128222
910.452	0.0129462
910.530	0.0129482
910.608	0.0127998
910.686	0.0127613
910.764	0.0130260
910.842	0.0129484
910.920	0.0129070
910.999	0.0129934
911.077	0.0129060
911.155	0.0128920
911.233	0.0128188
911.311	0.0126359
911.389	0.0127687
911.467	0.0128652
911.545	0.0128276
911.624	0.0127689
911.702	0.0128507
911.780	0.0128175
911.858	0.0128720
911.936	0.0127727
912.014	0.0129217
912.092	0.0129479
912.170	0.0128439
912.249	0.0130363
912.327	0.0128765
912.405	0.0128531
912.483	0.0128754
912.561	0.0127661
912.639	0.0128337
912.717	0.0129427
912.795	0.0128368
912.874	0.0128643
912.952	0.0127021
913.030	0.0128155
913.108	0.0128706
913.186	0.0128115
913.264	0.0128442
913.342	0.0128661
913.420	0.0128326
913.499	0.0127001
913.577	0.0128111
913.655	0.0129734
913.733	0.0128004
913.811	0.0128908
913.889	0.0127422
913.967	0.0128551
914.045	0.0129649
914.124	0.0129169
914.202	0.0128008
914.280	0.0127901
914.358	0.0128102
914.436	0.0128377
914.514	0.0129498
914.592	0.0128859
914.670	0.0127711
914.749	0.0127875
914.827	0.0127500
914.905	0.0128224
914.983	0.0127753
915.061	0.0126549
915.139	0.0126105
915.217	0.0127568
915.295	0.0128194
915.374	0.0127261
915.452	0.0127663
915.530	0.0127449
915.608	0.0127547
915.686	0.0127338
915.764	0.0127880
915.842	0.0127817
915.920	0.0128334
915.999	0.0128493
916.077	0.0128678
916.155	0.0129591
916.233	0.0129759
916.311	0.0129601
916.389	0.0129661
916.467	0.0128870
916.545	0.0128181
916.624	0.0128489
916.702	0.0129763
916.780	0.0131149
916.858	0.0128666
916.936	0.0129657
917.014	0.0129971
917.092	0.0130103
917.170	0.0128894
917.249	0.0128986
917.327	0.0129409
917.405	0.0128550
917.483	0.0128077
917.561	0.0129595
917.639	0.0129719
917.717	0.0129075
917.795	0.0129582
917.874	0.0128915
917.952	0.0128371
918.030	0.0128841
918.108	0.0129278
918.186	0.0128427
918.264	0.0127493
918.342	0.0128913
918.420	0.0129482
918.499	0.0127965
918.577	0.0128452
918.655	0.0129127
918.733	0.0128149
918.811	0.0129646
918.889	0.0128152
918.967	0.0128117
919.045	0.0129267
919.124	0.0128060
919.202	0.0128899
919.280	0.0129095
919.358	0.0129736
919.436	0.0129433
919.514	0.0128079
919.592	0.0128642
919.670	0.0128852
919.749	0.0128757
919.827	0.0128974
919.905	0.0127769
919.983	0.0128795
920.061	0.0128556
920.139	0.0128677
920.217	0.0130395
920.295	0.0130089
920.374	0.0129065
920.452	0.0129914
920.530	0.0129592
920.608	0.0130251
920.686	0.0130048
920.764	0.0130327
920.842	0.0128646
920.920	0.0129621
920.999	0.0129224
921.077	0.0128705
921.155	0.0129856
921.233	0.0130898
921.311	0.0129786
921.389	0.0129424
921.467	0.0128861
921.545	0.0129308
921.624	0.0129363
921.702	0.0129230
921.780	0.0128475
921.858	0.0129162
921.936	0.0129043
922.014	0.0128356
922.092	0.0129107
922.170	0.0127827
922.249	0.0128859
922.327	0.0127702
922.405	0.0128019
922.483	0.0128419
922.561	0.0127337
922.639	0.0127936
922.717	0.0128453
922.795	0.0127766
922.874	0.0127212
922.952	0.0128172
923.030	0.0127942
923.108	0.0127936
923.186	0.0128883
923.264	0.0128994
923.342	0.0127758
923.420	0.0127283
923.499	0.0127407
923.577	0.0127617
923.655	0.0126421
923.733	0.0126836
923.811	0.0127206
923.889	0.0127444
923.967	0.0127667
924.045	0.0127506
924.124	0.0127030
924.202	0.0127720
924.280	0.0127509
924.358	0.0127156
924.436	0.0126057
924.514	0.0127968
924.592	0.0127488
924.670	0.0127193
924.749	0.0127616
924.827	0.0128293
924.905	0.0128208
924.983	0.0128957
925.061	0.0129074
925.139	0.0128616
925.217	0.0128831
925.295	0.0130247
925.374	0.0129977
925.452	0.0129502
925.530	0.0129271
925.608	0.0129897
925.686	0.0130630
925.764	0.0131718
925.842	0.0131804
925.920	0.0129683
925.999	0.0130569
926.077	0.0131778
926.155	0.0130592
926.233	0.0129455
926.311	0.0130964
926.389	0.0130764
926.467	0.0129353
926.545	0.0129876
926.624	0.0130811
926.702	0.0130373
926.780	0.0130235
926.858	0.0130530
926.936	0.0129799
927.014	0.0129533
927.092	0.0127789
927.170	0.0129129
927.249	0.0129353
927.327	0.0129737
927.405	0.0129086
927.483	0.0128493
927.561	0.0129451
927.639	0.0126716
927.717	0.0129002
927.795	0.0129004
927.874	0.0126923
927.952	0.0127467
928.030	0.0128371
928.108	0.0128065
928.186	0.0127108
928.264	0.0127585
928.342	0.0128085
928.420	0.0126982
928.499	0.0127584
928.577	0.0127502
928.655	0.0127255
928.733	0.0128316
928.811	0.0127444
928.889	0.0127901
928.967	0.0128919
929.045	0.0129182
929.124	0.0128068
929.202	0.0128333
929.280	0.0128654
929.358	0.0130828
929.436	0.0128855
929.514	0.0128841
929.592	0.0129256
929.670	0.0129953
929.749	0.0128711
929.827	0.0127950
929.905	0.0127779
929.983	0.0129247
930.061	0.0127243
930.139	0.0127653
930.217	0.0128033
930.295	0.0127560
930.374	0.0127108
930.452	0.0127599
930.530	0.0126006
930.608	0.0126823
930.686	0.0127705
930.764	0.0127623
930.842	0.0127244
930.920	0.0126582
930.999	0.0126157
931.077	0.0127271
931.155	0.0126176
931.233	0.0128372
931.311	0.0128880
931.389	0.0127524
931.467	0.0126486
931.545	0.0127281
931.624	0.0128458
931.702	0.0129582
931.780	0.0128680
931.858	0.0129694
931.936	0.0128430
932.014	0.0128804
932.092	0.0129117
932.170	0.0129205
932.249	0.0130105
932.327	0.0129713
932.405	0.0129663
932.483	0.0128968
932.561	0.0129670
932.639	0.0128993
932.717	0.0129166
932.795	0.0128983
932.874	0.0128301
932.952	0.0128751
933.030	0.0129326
933.108	0.0128651
933.186	0.0128336
933.264	0.0129632
933.342	0.0128881
933.420	0.0129733
933.499	0.0128795
933.577	0.0129984
933.655	0.0130220
933.733	0.0129249
933.811	0.0128772
933.889	0.0129136
933.967	0.0128706
934.045	0.0130612
934.124	0.0129800
934.202	0.0129374
934.280	0.0129502
934.358	0.0130039
934.436	0.0129020
934.514	0.0129715
934.592	0.0129463
934.670	0.0128608
934.749	0.0129760
934.827	0.0130242
934.905	0.0129050
934.983	0.0128294
935.061	0.0129797
935.139	0.0129770
935.217	0.0129374
935.295	0.0129135
935.374	0.0128690
935.452	0.0128448
935.530	0.0128062
935.608	0.0128377
935.686	0.0127129
935.764	0.0127837
935.842	0.0127307
935.920	0.0127312
935.999	0.0127614
936.077	0.0126443
936.155	0.0126931
936.233	0.0126482
936.311	0.0126559
936.389	0.0128255
936.467	0.0127522
936.545	0.0126987
936.624	0.0127285
936.702	0.0128489
936.780	0.0126271
936.858	0.0126746
936.936	0.0127872
937.014	0.0127322
937.092	0.0126066
937.170	0.0126530
937.249	0.0127238
937.327	0.0127875
937.405	0.0128590
937.483	0.0126402
937.561	0.0126379
937.639	0.0127519
937.717	0.0128529
937.795	0.0128492
937.874	0.0128511
937.952	0.0128175
938.030	0.0127552
938.108	0.0127692
938.186	0.0129300
938.264	0.0129305
938.342	0.0129449
938.420	0.0130434
938.499	0.0128451
938.577	0.0128095
938.655	0.0127608
938.733	0.0128655
938.811	0.0130628
938.889	0.0129884
938.967	0.0129588
939.045	0.0129099
939.124	0.0129087
939.202	0.0129901
939.280	0.0130217
939.358	0.0129211
939.436	0.0129808
939.514	0.0129028
939.592	0.0128728
939.670	0.0129211
939.749	0.0129398
939.827	0.0128735
939.905	0.0128756
939.983	0.0130601
940.061	0.0129781
940.139	0.0130860
940.217	0.0129019
940.295	0.0128542
940.374	0.0129701
940.452	0.0129379
940.530	0.0130029
940.608	0.0129715
940.686	0.0128793
940.764	0.0129489
940.842	0.0129075
940.920	0.0128884
940.999	0.0129433
941.077	0.0128391
941.155	0.0129778
941.233	0.0128640
941.311	0.0128977
941.389	0.0129950
941.467	0.0128970
941.545	0.0128062
941.624	0.0128433
941.702	0.0129481
941.780	0.0128598
941.858	0.0128069
941.936	0.0128574
942.014	0.0129351
942.092	0.0127923
942.170	0.0129029
942.249	0.0129645
942.327	0.0127911
942.405	0.0128371
942.483	0.0127071
942.561	0.0127188
942.639	0.0128897
942.717	0.0128133
942.795	0.0128357
942.874	0.0128586
942.952	0.0128267
943.030	0.0130309
943.108	0.0129623
943.186	0.0128085
943.264	0.0126563
943.342	0.0128149
943.420	0.0128699
943.499	0.0129053
943.577	0.0128740
943.655	0.0128260
943.733	0.0129479
943.811	0.0127964
943.889	0.0127705
943.967	0.0128123
944.045	0.0129189
944.124	0.0129224
944.202	0.0128227
944.280	0.0127316
944.358	0.0128330
944.436	0.0128178
944.514	0.0128181
944.592	0.0128865
944.670	0.0131027
944.749	0.0129344
944.827	0.0130342
944.905	0.0130143
944.983	0.0129747
945.061	0.0129405
945.139	0.0129097
945.217	0.0129218
945.295	0.0128741
945.374	0.0128402
945.452	0.0128951
945.530	0.0130061
945.608	0.0128859
945.686	0.0128056
945.764	0.0128368
945.842	0.0128403
945.920	0.0128173
945.999	0.0128220
946.077	0.0127343
946.155	0.0126672
946.233	0.0125746
946.311	0.0127843
946.389	0.0126916
946.467	0.0127460
946.545	0.0127242
946.624	0.0126833
946.702	0.0126691
946.780	0.0128648
946.858	0.0127676
946.936	0.0126404
947.014	0.0125961
947.092	0.0125724
947.170	0.0128289
947.249	0.0126411
947.327	0.0125019
947.405	0.0126430
947.483	0.0126445
947.561	0.0126694
947.639	0.0126721
947.717	0.0127098
947.795	0.0127440
947.874	0.0127648
947.952	0.0128658
948.030	0.0128394
948.108	0.0128429
948.186	0.0128788
948.264	0.0129447
948.342	0.0129443
948.420	0.0129383
948.499	0.0130192
948.577	0.0129234
948.655	0.0129220
948.733	0.0128704
948.811	0.0128168
948.889	0.0129543
948.967	0.0129993
949.045	0.0129221
949.124	0.0127850
949.202	0.0128892
949.280	0.0129021
949.358	0.0128011
949.436	0.0129210
949.514	0.0129057
949.592	0.0129098
949.670	0.0126584
949.749	0.0127599
949.827	0.0126824
949.905	0.0125283
949.983	0.0126488
950.061	0.0126347
950.139	0.0126546
950.217	0.0126140
950.295	0.0125336
950.374	0.0125793
950.452	0.0127116
950.530	0.0126065
950.608	0.0124672
950.686	0.0126325
950.764	0.0126455
950.842	0.0127543
950.920	0.0126575
950.999	0.0126498
951.077	0.0125986
951.155	0.0126537
951.233	0.0126643
951.311	0.0127710
951.389	0.0126180
951.467	0.0128500
951.545	0.0127769
951.624	0.0129847
951.702	0.0127911
951.780	0.0128441
951.858	0.0130049
951.936	0.0129658
952.014	0.0130682
952.092	0.0128957
952.170	0.0130140
952.249	0.0130398
952.327	0.0131004
952.405	0.0128638
952.483	0.0130846
952.561	0.0129544
952.639	0.0128152
952.717	0.0128265
952.795	0.0129936
952.874	0.0129955
952.952	0.0129719
953.030	0.0129386
953.108	0.0129063
953.186	0.0129990
953.264	0.0128571
953.342	0.0128471
953.420	0.0129423
953.499	0.0128756
953.577	0.0127463
953.655	0.0127377
953.733	0.0126469
953.811	0.0126463
953.889	0.0126839
953.967	0.0125386
954.045	0.0127135
954.124	0.0125816
954.202	0.0126131
954.280	0.0127490
954.358	0.0127152
954.436	0.0124685
954.514	0.0127090
954.592	0.0127131
954.670	0.0127155
954.749	0.0126476
954.827	0.0127221
954.905	0.0125326
954.983	0.0127428
955.061	0.0127682
955.139	0.0127708
955.217	0.0128330
955.295	0.0128242
955.374	0.0129320
955.452	0.0129551
955.530	0.0129839
955.608	0.0130164
955.686	0.0129317
955.764	0.0128265
955.842	0.0129668
955.920	0.0128597
955.999	0.0129556
956.077	0.0131646
956.155	0.0131674
956.233	0.0129369
956.311	0.0128146
956.389	0.0130317
956.467	0.0129291
956.545	0.0129914
956.624	0.0129792
956.702	0.0130405
956.780	0.0130540
956.858	0.0129317
956.936	0.0128829
957.014	0.0129200
957.092	0.0130048
957.170	0.0129548
957.249	0.0129571
957.327	0.0129423
957.405	0.0129237
957.483	0.0129527
957.561	0.0128891
957.639	0.0128031
957.717	0.0129072
957.795	0.0127927
957.874	0.0127875
957.952	0.0127576
958.030	0.0128352
958.108	0.0127602
958.186	0.0127070
958.264	0.0127911
958.342	0.0126613
958.420	0.0126336
958.499	0.0126921
958.577	0.0126611
958.655	0.0127350
958.733	0.0127258
958.811	0.0128020
958.889	0.0126563
958.967	0.0126891
959.045	0.0127930
959.124	0.0128173
959.202	0.0125879
959.280	0.0127754
959.358	0.0128507
959.436	0.0128823
959.514	0.0127319
959.592	0.0126173
959.670	0.0127062
959.749	0.0128313
959.827	0.0128545
959.905	0.0127843
959.983	0.0127699
960.061	0.0127613
960.139	0.0129741
960.217	0.0129354
960.295	0.0128706
960.374	0.0129128
960.452	0.0130235
960.530	0.0129996
960.608	0.0129565
960.686	0.0130224
960.764	0.0128630
960.842	0.0129419
960.920	0.0130660
960.999	0.0131071
961.077	0.0130188
961.155	0.0130452
961.233	0.0130483
961.311	0.0131540
961.389	0.0130083
961.467	0.0130141
961.545	0.0130862
961.624	0.0130300
961.702	0.0129806
961.780	0.0131342
961.858	0.0131158
961.936	0.0131229
962.014	0.0131367
962.092	0.0130692
962.170	0.0130392
962.249	0.0130981
962.327	0.0130569
962.405	0.0129265
962.483	0.0129081
962.561	0.0130215
962.639	0.0129002
962.717	0.0128586
962.795	0.0128421
962.874	0.0128520
962.952	0.0128496
963.030	0.0129910
963.108	0.0128822
963.186	0.0127193
963.264	0.0127660
963.342	0.0128336
963.420	0.0129000
963.499	0.0127920
963.577	0.0127869
963.655	0.0129175
963.733	0.0128855
963.811	0.0128028
963.889	0.0128545
963.967	0.0128383
964.045	0.0129455
964.124	0.0129023
964.202	0.0127525
964.280	0.0129113
964.358	0.0127759
964.436	0.0126969
964.514	0.0126564
964.592	0.0126642
964.670	0.0128120
964.749	0.0127795
964.827	0.0125882
964.905	0.0126910
964.983	0.0125903
965.061	0.0127489
965.139	0.0125773
965.217	0.0126920
965.295	0.0127098
965.374	0.0128241
965.452	0.0126868
965.530	0.0128456
965.608	0.0128333
965.686	0.0128545
965.764	0.0127917
965.842	0.0127566
965.920	0.0128701
965.999	0.0129317
966.077	0.0127712
966.155	0.0129542
966.233	0.0128687
966.311	0.0128846
966.389	0.0128464
966.467	0.0130267
966.545	0.0128191
966.624	0.0128089
966.702	0.0129905
966.780	0.0130020
966.858	0.0129067
966.936	0.0129643
967.014	0.0127897
967.092	0.0129083
967.170	0.0128247
967.249	0.0128812
967.327	0.0129179
967.405	0.0128840
967.483	0.0128355
967.561	0.0128790
967.639	0.0127266
967.717	0.0127263
967.795	0.0127168
967.874	0.0128730
967.952	0.0128464
968.030	0.0126505
968.108	0.0126180
968.186	0.0125895
968.264	0.0126263
968.342	0.0126251
968.420	0.0127608
968.499	0.0127445
968.577	0.0127193
968.655	0.0126553
968.733	0.0127726
968.811	0.0126250
968.889	0.0126182
968.967	0.0127269
969.045	0.0127405
969.124	0.0127016
969.202	0.0126436
969.280	0.0127899
969.358	0.0126140
969.436	0.0127238
969.514	0.0127427
969.592	0.0126991
969.670	0.0128487
969.749	0.0127444
969.827	0.0126756
969.905	0.0127330
