05/14/2022	19:35:21	Ver.	4.1	UNKNOWN
Optical Delay	650.009681	Delta X		0.078125	Sweeps	1	Scan Rate	0/0
Coordinates	Axis 1	NaN	Axis 2	NaN	Axis 3	NaN	Axis 4	NaN	Axis 5	NaN	Axis 6	0.000000
TX Power	0.000000	RX Power	0.000000

650.010	0.0145182
650.088	0.0144569
650.166	0.0143941
650.244	0.0143867
650.322	0.0145293
650.400	0.0142445
650.478	0.0141499
650.557	0.0142366
650.635	0.0143212
650.713	0.0143230
650.791	0.0143182
650.869	0.0143358
650.947	0.0142342
651.025	0.0142569
651.103	0.0143210
651.182	0.0143141
651.260	0.0144524
651.338	0.0143073
651.416	0.0142812
651.494	0.0143773
651.572	0.0142950
651.650	0.0142916
651.728	0.0143279
651.807	0.0143352
651.885	0.0142915
651.963	0.0144934
652.041	0.0143430
652.119	0.0142883
652.197	0.0143872
652.275	0.0143096
652.353	0.0141277
652.432	0.0142971
652.510	0.0143236
652.588	0.0142630
652.666	0.0144016
652.744	0.0142735
652.822	0.0143428
652.900	0.0144269
652.978	0.0142982
653.057	0.0143627
653.135	0.0141807
653.213	0.0142944
653.291	0.0141945
653.369	0.0142165
653.447	0.0142823
653.525	0.0142632
653.603	0.0142738
653.682	0.0142746
653.760	0.0143839
653.838	0.0144117
653.916	0.0144380
653.994	0.0144509
654.072	0.0144724
654.150	0.0143267
654.228	0.0143920
654.307	0.0145442
654.385	0.0144741
654.463	0.0143914
654.541	0.0144057
654.619	0.0145300
654.697	0.0143655
654.775	0.0143550
654.853	0.0144898
654.932	0.0143614
655.010	0.0144781
655.088	0.0144355
655.166	0.0144232
655.244	0.0143455
655.322	0.0143914
655.400	0.0143875
655.478	0.0144200
655.557	0.0143002
655.635	0.0142813
655.713	0.0143672
655.791	0.0142110
655.869	0.0140617
655.947	0.0142449
656.025	0.0141051
656.103	0.0141230
656.182	0.0142742
656.260	0.0142578
656.338	0.0141943
656.416	0.0143376
656.494	0.0143604
656.572	0.0143812
656.650	0.0144079
656.728	0.0144080
656.807	0.0146256
656.885	0.0144923
656.963	0.0145554
657.041	0.0144672
657.119	0.0143546
657.197	0.0144022
657.275	0.0142626
657.353	0.0143269
657.432	0.0142683
657.510	0.0141643
657.588	0.0142231
657.666	0.0142739
657.744	0.0144099
657.822	0.0143394
657.900	0.0142077
657.978	0.0142601
658.057	0.0143426
658.135	0.0142628
658.213	0.0144223
658.291	0.0144330
658.369	0.0145000
658.447	0.0146097
658.525	0.0143853
658.603	0.0144743
658.682	0.0146452
658.760	0.0146027
658.838	0.0144118
658.916	0.0143996
658.994	0.0143999
659.072	0.0145926
659.150	0.0144646
659.228	0.0144720
659.307	0.0144424
659.385	0.0144896
659.463	0.0144530
659.541	0.0143457
659.619	0.0145574
659.697	0.0144917
659.775	0.0145950
659.853	0.0145680
659.932	0.0144833
660.010	0.0145684
660.088	0.0146623
660.166	0.0146482
660.244	0.0146857
660.322	0.0147561
660.400	0.0147890
660.478	0.0148600
660.557	0.0146854
660.635	0.0148339
660.713	0.0146794
660.791	0.0147066
660.869	0.0146723
660.947	0.0146285
661.025	0.0145635
661.103	0.0142818
661.182	0.0142561
661.260	0.0141101
661.338	0.0140190
661.416	0.0140112
661.494	0.0139439
661.572	0.0139416
661.650	0.0138239
661.728	0.0137347
661.807	0.0136578
661.885	0.0137871
661.963	0.0139185
662.041	0.0139806
662.119	0.0139034
662.197	0.0141761
662.275	0.0141862
662.353	0.0143081
662.432	0.0143990
662.510	0.0145431
662.588	0.0145449
662.666	0.0146798
662.744	0.0148593
662.822	0.0148909
662.900	0.0149883
662.978	0.0151776
663.057	0.0154633
663.135	0.0154211
663.213	0.0156638
663.291	0.0157392
663.369	0.0156767
663.447	0.0156480
663.525	0.0159210
663.603	0.0156445
663.682	0.0154990
663.760	0.0155753
663.838	0.0154910
663.916	0.0151124
663.994	0.0150571
664.072	0.0148055
664.150	0.0145283
664.228	0.0141656
664.307	0.0140397
664.385	0.0136592
664.463	0.0135844
664.541	0.0136214
664.619	0.0131532
664.697	0.0129266
664.775	0.0129649
664.853	0.0128580
664.932	0.0127332
665.010	0.0125753
665.088	0.0125217
665.166	0.0124727
665.244	0.0124271
665.322	0.0124526
665.400	0.0126547
665.478	0.0129024
665.557	0.0129881
665.635	0.0132236
665.713	0.0134784
665.791	0.0137140
665.869	0.0141335
665.947	0.0145686
666.025	0.0148576
666.103	0.0153368
666.182	0.0157294
666.260	0.0160406
666.338	0.0163509
666.416	0.0167532
666.494	0.0170097
666.572	0.0173367
666.650	0.0173822
666.728	0.0177058
666.807	0.0177544
666.885	0.0176617
666.963	0.0176865
667.041	0.0174660
667.119	0.0171419
667.197	0.0169644
667.275	0.0165450
667.353	0.0161331
667.432	0.0158102
667.510	0.0153728
667.588	0.0147029
667.666	0.0141610
667.744	0.0135809
667.822	0.0131045
667.900	0.0128045
667.978	0.0120400
668.057	0.0116305
668.135	0.0114901
668.213	0.0111930
668.291	0.0109486
668.369	0.0106894
668.447	0.0107161
668.525	0.0106030
668.603	0.0105456
668.682	0.0109002
668.760	0.0109911
668.838	0.0112649
668.916	0.0116484
668.994	0.0121860
669.072	0.0126365
669.150	0.0131525
669.228	0.0136045
669.307	0.0142984
669.385	0.0149545
669.463	0.0154387
669.541	0.0160020
669.619	0.0165344
669.697	0.0173460
669.775	0.0177240
669.853	0.0179684
669.932	0.0184446
670.010	0.0187901
670.088	0.0190099
670.166	0.0190874
670.244	0.0190852
670.322	0.0191168
670.400	0.0189271
670.478	0.0188570
670.557	0.0185984
670.635	0.0181943
670.713	0.0178223
670.791	0.0172353
670.869	0.0167239
670.947	0.0160538
671.025	0.0154976
671.103	0.0148459
671.182	0.0141650
671.260	0.0135714
671.338	0.0129087
671.416	0.0123438
671.494	0.0118499
671.572	0.0113384
671.650	0.0108023
671.728	0.0106553
671.807	0.0103575
671.885	0.0102083
671.963	0.00984940
672.041	0.00985237
672.119	0.00993317
672.197	0.0103729
672.275	0.0104755
672.353	0.0106744
672.432	0.0110391
672.510	0.0114285
672.588	0.0118595
672.666	0.0122932
672.744	0.0129644
672.822	0.0134724
672.900	0.0138544
672.978	0.0143875
673.057	0.0148402
673.135	0.0152264
673.213	0.0157457
673.291	0.0160358
673.369	0.0163721
673.447	0.0166889
673.525	0.0167696
673.603	0.0168021
673.682	0.0169077
673.760	0.0170067
673.838	0.0169264
673.916	0.0168312
673.994	0.0167005
674.072	0.0165814
674.150	0.0164780
674.228	0.0161794
674.307	0.0159830
674.385	0.0157493
674.463	0.0155826
674.541	0.0152959
674.619	0.0151754
674.697	0.0149139
674.775	0.0149232
674.853	0.0147665
674.932	0.0146613
675.010	0.0144394
675.088	0.0144312
675.166	0.0146088
675.244	0.0145159
675.322	0.0145780
675.400	0.0147153
675.478	0.0147972
675.557	0.0149459
675.635	0.0152005
675.713	0.0151256
675.791	0.0150060
675.869	0.0150351
675.947	0.0149287
676.025	0.0147093
676.103	0.0145107
676.182	0.0143279
676.260	0.0140852
676.338	0.0138126
676.416	0.0134592
676.494	0.0131322
676.572	0.0129401
676.650	0.0126633
676.728	0.0123126
676.807	0.0120374
676.885	0.0119275
676.963	0.0117672
677.041	0.0114447
677.119	0.0114861
677.197	0.0115519
677.275	0.0115940
677.353	0.0116071
677.432	0.0116500
677.510	0.0117690
677.588	0.0121480
677.666	0.0123883
677.744	0.0125786
677.822	0.0131085
677.900	0.0135069
677.978	0.0137424
678.057	0.0142754
678.135	0.0147019
678.213	0.0152808
678.291	0.0158757
678.369	0.0162761
678.447	0.0166234
678.525	0.0171327
678.603	0.0175988
678.682	0.0177685
678.760	0.0182414
678.838	0.0184829
678.916	0.0186634
678.994	0.0186847
679.072	0.0185949
679.150	0.0185382
679.228	0.0183021
679.307	0.0180000
679.385	0.0176412
679.463	0.0174557
679.541	0.0171773
679.619	0.0165823
679.697	0.0162061
679.775	0.0158632
679.853	0.0154234
679.932	0.0149353
680.010	0.0145126
680.088	0.0140762
680.166	0.0136963
680.244	0.0131382
680.322	0.0126791
680.400	0.0123971
680.478	0.0121987
680.557	0.0118121
680.635	0.0114488
680.713	0.0112358
680.791	0.0113287
680.869	0.0111782
680.947	0.0111178
681.025	0.0109956
681.103	0.0111034
681.182	0.0114674
681.260	0.0113661
681.338	0.0116119
681.416	0.0119246
681.494	0.0121877
681.572	0.0123274
681.650	0.0125315
681.728	0.0129202
681.807	0.0131934
681.885	0.0134798
681.963	0.0138907
682.041	0.0143168
682.119	0.0145124
682.197	0.0148819
682.275	0.0151328
682.353	0.0156537
682.432	0.0158154
682.510	0.0161211
682.588	0.0164683
682.666	0.0167693
682.744	0.0169434
682.822	0.0173341
682.900	0.0174005
682.978	0.0175394
683.057	0.0175618
683.135	0.0175695
683.213	0.0175905
683.291	0.0174198
683.369	0.0172341
683.447	0.0170408
683.525	0.0168022
683.603	0.0164790
683.682	0.0161663
683.760	0.0156910
683.838	0.0151944
683.916	0.0148333
683.994	0.0143469
684.072	0.0139695
684.150	0.0135130
684.228	0.0132580
684.307	0.0128233
684.385	0.0124624
684.463	0.0122028
684.541	0.0122108
684.619	0.0120633
684.697	0.0119582
684.775	0.0117371
684.853	0.0116367
684.932	0.0117861
685.010	0.0119552
685.088	0.0119073
685.166	0.0120947
685.244	0.0122455
685.322	0.0125573
685.400	0.0128829
685.478	0.0130953
685.557	0.0133429
685.635	0.0136221
685.713	0.0138515
685.791	0.0144550
685.869	0.0146985
685.947	0.0149506
686.025	0.0153854
686.103	0.0155705
686.182	0.0159350
686.260	0.0159209
686.338	0.0161728
686.416	0.0163166
686.494	0.0163781
686.572	0.0164440
686.650	0.0162718
686.728	0.0163171
686.807	0.0161360
686.885	0.0159476
686.963	0.0158283
687.041	0.0154104
687.119	0.0151202
687.197	0.0150037
687.275	0.0147178
687.353	0.0143243
687.432	0.0142161
687.510	0.0140729
687.588	0.0139481
687.666	0.0137045
687.744	0.0136705
687.822	0.0135430
687.900	0.0136466
687.978	0.0135773
688.057	0.0136195
688.135	0.0134957
688.213	0.0134285
688.291	0.0134542
688.369	0.0136428
688.447	0.0137043
688.525	0.0137633
688.603	0.0137247
688.682	0.0138527
688.760	0.0137827
688.838	0.0139973
688.916	0.0141789
688.994	0.0140459
689.072	0.0140791
689.150	0.0143077
689.228	0.0143806
689.307	0.0144196
689.385	0.0143262
689.463	0.0144773
689.541	0.0145105
689.619	0.0145629
689.697	0.0144286
689.775	0.0144157
689.853	0.0144757
689.932	0.0145422
690.010	0.0145160
690.088	0.0145052
690.166	0.0145927
690.244	0.0146059
690.322	0.0144749
690.400	0.0146748
690.478	0.0146631
690.557	0.0147019
690.635	0.0148917
690.713	0.0149683
690.791	0.0150474
690.869	0.0149544
690.947	0.0151875
691.025	0.0153299
691.103	0.0152795
691.182	0.0152646
691.260	0.0153174
691.338	0.0152521
691.416	0.0151775
691.494	0.0152888
691.572	0.0152596
691.650	0.0150453
691.728	0.0151204
691.807	0.0150521
691.885	0.0148367
691.963	0.0149142
692.041	0.0148652
692.119	0.0146371
692.197	0.0145650
692.275	0.0144051
692.353	0.0143098
692.432	0.0143073
692.510	0.0141083
692.588	0.0140579
692.666	0.0139323
692.744	0.0139011
692.822	0.0138838
692.900	0.0137070
692.978	0.0136496
693.057	0.0136066
693.135	0.0135538
693.213	0.0136027
693.291	0.0138046
693.369	0.0138596
693.447	0.0138599
693.525	0.0139127
693.603	0.0140734
693.682	0.0140755
693.760	0.0142482
693.838	0.0143008
693.916	0.0144660
693.994	0.0146403
694.072	0.0146716
694.150	0.0145136
694.228	0.0145830
694.307	0.0147141
694.385	0.0146637
694.463	0.0147022
694.541	0.0144947
694.619	0.0144875
694.697	0.0143814
694.775	0.0143171
694.853	0.0141312
694.932	0.0141554
695.010	0.0139256
695.088	0.0140358
695.166	0.0139898
695.244	0.0139523
695.322	0.0139207
695.400	0.0141013
695.478	0.0139938
695.557	0.0141242
695.635	0.0140388
695.713	0.0140475
695.791	0.0141895
695.869	0.0143213
695.947	0.0144723
696.025	0.0143324
696.103	0.0143507
696.182	0.0143269
696.260	0.0143645
696.338	0.0142315
696.416	0.0143363
696.494	0.0142757
696.572	0.0144115
696.650	0.0142815
696.728	0.0143584
696.807	0.0145335
696.885	0.0144810
696.963	0.0147160
697.041	0.0146783
697.119	0.0147827
697.197	0.0148354
697.275	0.0150160
697.353	0.0151260
697.432	0.0151521
697.510	0.0152857
697.588	0.0155249
697.666	0.0156195
697.744	0.0156523
697.822	0.0157285
697.900	0.0160520
697.978	0.0160654
698.057	0.0161865
698.135	0.0164216
698.213	0.0162337
698.291	0.0162720
698.369	0.0163785
698.447	0.0161875
698.525	0.0162482
698.603	0.0159583
698.682	0.0158227
698.760	0.0153588
698.838	0.0152856
698.916	0.0151543
698.994	0.0146984
699.072	0.0142374
699.150	0.0138936
699.228	0.0137771
699.307	0.0133150
699.385	0.0131225
699.463	0.0126778
699.541	0.0125037
699.619	0.0122167
699.697	0.0119938
699.775	0.0116073
699.853	0.0115648
699.932	0.0113625
700.010	0.0111140
700.088	0.0110706
700.166	0.0109927
700.244	0.0110406
700.322	0.0110437
700.400	0.0111583
700.478	0.0112670
700.557	0.0115423
700.635	0.0116975
700.713	0.0120488
700.791	0.0122192
700.869	0.0124899
700.947	0.0129502
701.025	0.0132880
701.103	0.0135157
701.182	0.0140781
701.260	0.0142751
701.338	0.0148029
701.416	0.0150417
701.494	0.0156781
701.572	0.0160654
701.650	0.0164946
701.728	0.0167871
701.807	0.0171572
701.885	0.0176224
701.963	0.0178753
702.041	0.0182161
702.119	0.0184369
702.197	0.0187295
702.275	0.0189010
702.353	0.0188979
702.432	0.0187633
702.510	0.0187674
702.588	0.0187064
702.666	0.0184677
702.744	0.0181429
702.822	0.0177348
702.900	0.0174539
702.978	0.0171255
703.057	0.0167528
703.135	0.0160609
703.213	0.0155064
703.291	0.0150781
703.369	0.0146156
703.447	0.0142414
703.525	0.0136544
703.603	0.0132318
703.682	0.0128907
703.760	0.0125359
703.838	0.0121056
703.916	0.0117590
703.994	0.0116443
704.072	0.0113834
704.150	0.0115032
704.228	0.0112836
704.307	0.0112959
704.385	0.0115098
704.463	0.0113456
704.541	0.0114481
704.619	0.0115588
704.697	0.0117468
704.775	0.0119493
704.853	0.0121191
704.932	0.0123080
705.010	0.0125421
705.088	0.0128090
705.166	0.0130907
705.244	0.0130959
705.322	0.0134050
705.400	0.0137110
705.478	0.0138977
705.557	0.0140281
705.635	0.0145171
705.713	0.0147359
705.791	0.0149675
705.869	0.0150764
705.947	0.0153547
706.025	0.0156071
706.103	0.0158700
706.182	0.0158153
706.260	0.0158693
706.338	0.0161257
706.416	0.0161116
706.494	0.0159785
706.572	0.0159692
706.650	0.0158105
706.728	0.0156622
706.807	0.0154532
706.885	0.0155370
706.963	0.0152828
707.041	0.0151948
707.119	0.0150904
707.197	0.0148804
707.275	0.0145585
707.353	0.0145602
707.432	0.0145387
707.510	0.0143974
707.588	0.0140784
707.666	0.0140955
707.744	0.0140635
707.822	0.0140675
707.900	0.0143238
707.978	0.0141784
708.057	0.0144142
708.135	0.0144991
708.213	0.0144678
708.291	0.0147924
708.369	0.0148956
708.447	0.0148811
708.525	0.0149840
708.603	0.0151263
708.682	0.0150513
708.760	0.0152067
708.838	0.0151535
708.916	0.0151282
708.994	0.0152136
709.072	0.0150905
709.150	0.0151260
709.228	0.0150448
709.307	0.0150713
709.385	0.0149647
709.463	0.0148913
709.541	0.0150028
709.619	0.0149229
709.697	0.0148969
709.775	0.0148799
709.853	0.0147406
709.932	0.0146320
710.010	0.0145399
710.088	0.0144855
710.166	0.0145660
710.244	0.0144246
710.322	0.0145748
710.400	0.0143143
710.478	0.0142213
710.557	0.0142487
710.635	0.0139760
710.713	0.0139555
710.791	0.0138475
710.869	0.0138573
710.947	0.0135665
711.025	0.0134682
711.103	0.0136096
711.182	0.0135040
711.260	0.0132924
711.338	0.0132555
711.416	0.0130886
711.494	0.0132458
711.572	0.0133724
711.650	0.0132457
711.728	0.0132412
711.807	0.0133287
711.885	0.0136040
711.963	0.0136918
712.041	0.0138576
712.119	0.0138083
712.197	0.0138943
712.275	0.0140261
712.353	0.0140736
712.432	0.0141003
712.510	0.0141646
712.588	0.0142319
712.666	0.0141896
712.744	0.0141637
712.822	0.0140872
712.900	0.0141821
712.978	0.0140356
713.057	0.0139850
713.135	0.0139655
713.213	0.0139412
713.291	0.0138194
713.369	0.0138673
713.447	0.0137491
713.525	0.0137113
713.603	0.0137429
713.682	0.0138522
713.760	0.0140528
713.838	0.0142505
713.916	0.0141685
713.994	0.0144518
714.072	0.0146434
714.150	0.0148827
714.228	0.0152155
714.307	0.0154851
714.385	0.0158318
714.463	0.0159621
714.541	0.0161079
714.619	0.0162317
714.697	0.0163749
714.775	0.0163948
714.853	0.0165041
714.932	0.0165666
715.010	0.0163729
715.088	0.0163364
715.166	0.0161705
715.244	0.0159653
715.322	0.0161268
715.400	0.0158826
715.478	0.0154684
715.557	0.0153878
715.635	0.0152923
715.713	0.0152905
715.791	0.0149432
715.869	0.0145802
715.947	0.0144819
716.025	0.0142103
716.103	0.0141367
716.182	0.0140937
716.260	0.0137341
716.338	0.0135551
716.416	0.0135136
716.494	0.0133549
716.572	0.0131789
716.650	0.0132648
716.728	0.0131433
716.807	0.0128430
716.885	0.0128966
716.963	0.0128669
717.041	0.0128726
717.119	0.0126058
717.197	0.0125375
717.275	0.0126317
717.353	0.0126048
717.432	0.0126395
717.510	0.0126546
717.588	0.0125379
717.666	0.0125849
717.744	0.0126504
717.822	0.0128758
717.900	0.0130152
717.978	0.0132019
718.057	0.0132301
718.135	0.0134264
718.213	0.0136456
718.291	0.0138711
718.369	0.0140411
718.447	0.0141647
718.525	0.0142059
718.603	0.0143391
718.682	0.0145393
718.760	0.0145773
718.838	0.0147992
718.916	0.0148366
718.994	0.0147764
719.072	0.0150237
719.150	0.0151012
719.228	0.0152100
719.307	0.0151942
719.385	0.0152681
719.463	0.0153119
719.541	0.0154514
719.619	0.0152929
719.697	0.0155537
719.775	0.0155473
719.853	0.0155045
719.932	0.0155225
720.010	0.0155523
720.088	0.0154273
720.166	0.0155364
720.244	0.0154956
720.322	0.0153811
720.400	0.0155136
720.478	0.0156123
720.557	0.0152547
720.635	0.0152471
720.713	0.0152266
720.791	0.0151289
720.869	0.0150629
720.947	0.0150578
721.025	0.0150414
721.103	0.0150610
721.182	0.0149020
721.260	0.0147977
721.338	0.0149786
721.416	0.0148754
721.494	0.0145786
721.572	0.0145768
721.650	0.0145393
721.728	0.0144180
721.807	0.0143306
721.885	0.0142823
721.963	0.0141814
722.041	0.0141302
722.119	0.0139714
722.197	0.0138230
722.275	0.0138054
722.353	0.0137843
722.432	0.0136998
722.510	0.0137653
722.588	0.0137959
722.666	0.0137971
722.744	0.0137496
722.822	0.0138405
722.900	0.0138553
722.978	0.0138029
723.057	0.0140186
723.135	0.0140588
723.213	0.0141560
723.291	0.0138691
723.369	0.0140713
723.447	0.0140723
723.525	0.0140942
723.603	0.0139303
723.682	0.0140061
723.760	0.0138404
723.838	0.0140232
723.916	0.0139735
723.994	0.0139079
724.072	0.0139224
724.150	0.0141784
724.228	0.0140531
724.307	0.0140141
724.385	0.0142329
724.463	0.0141261
724.541	0.0141547
724.619	0.0143295
724.697	0.0144432
724.775	0.0145102
724.853	0.0145525
724.932	0.0146523
725.010	0.0147723
725.088	0.0147789
725.166	0.0148241
725.244	0.0149928
725.322	0.0150330
725.400	0.0150513
725.478	0.0148174
725.557	0.0150250
725.635	0.0150901
725.713	0.0152321
725.791	0.0151728
725.869	0.0149342
725.947	0.0151048
726.025	0.0151978
726.103	0.0150888
726.182	0.0150077
726.260	0.0149548
726.338	0.0150040
726.416	0.0150213
726.494	0.0151056
726.572	0.0150136
726.650	0.0150857
726.728	0.0149777
726.807	0.0151623
726.885	0.0150633
726.963	0.0150596
727.041	0.0150280
727.119	0.0150542
727.197	0.0151382
727.275	0.0149287
727.353	0.0147916
727.432	0.0148183
727.510	0.0149888
727.588	0.0149174
727.666	0.0148421
727.744	0.0147520
727.822	0.0147018
727.900	0.0146484
727.978	0.0146390
728.057	0.0145526
728.135	0.0144078
728.213	0.0143054
728.291	0.0142753
728.369	0.0140693
728.447	0.0139307
728.525	0.0139989
728.603	0.0139566
728.682	0.0138206
728.760	0.0136872
728.838	0.0136299
728.916	0.0138458
728.994	0.0138135
729.072	0.0138518
729.150	0.0139828
729.228	0.0137932
729.307	0.0138768
729.385	0.0139603
729.463	0.0140843
729.541	0.0139290
729.619	0.0140234
729.697	0.0140606
729.775	0.0141637
729.853	0.0140981
729.932	0.0140315
730.010	0.0139105
730.088	0.0141601
730.166	0.0141461
730.244	0.0140147
730.322	0.0138897
730.400	0.0137217
730.478	0.0137461
730.557	0.0139543
730.635	0.0138753
730.713	0.0139102
730.791	0.0138956
730.869	0.0139074
730.947	0.0139529
731.025	0.0138516
731.103	0.0140096
731.182	0.0140594
731.260	0.0142371
731.338	0.0143363
731.416	0.0143785
731.494	0.0143289
731.572	0.0145020
731.650	0.0145061
731.728	0.0147159
731.807	0.0148293
731.885	0.0148766
731.963	0.0149474
732.041	0.0150642
732.119	0.0151501
732.197	0.0151191
732.275	0.0151055
732.353	0.0150617
732.432	0.0150998
732.510	0.0152505
732.588	0.0151447
732.666	0.0152402
732.744	0.0150919
732.822	0.0151516
732.900	0.0150187
732.978	0.0151456
733.057	0.0150214
733.135	0.0150509
733.213	0.0149547
733.291	0.0149976
733.369	0.0148507
733.447	0.0148058
733.525	0.0147766
733.603	0.0147243
733.682	0.0145582
733.760	0.0145872
733.838	0.0144227
733.916	0.0144473
733.994	0.0143388
734.072	0.0140937
734.150	0.0141484
734.228	0.0139014
734.307	0.0138409
734.385	0.0137595
734.463	0.0137960
734.541	0.0138454
734.619	0.0138504
734.697	0.0137698
734.775	0.0137951
734.853	0.0137070
734.932	0.0139433
735.010	0.0139095
735.088	0.0139935
735.166	0.0139648
735.244	0.0140258
735.322	0.0140664
735.400	0.0141443
735.478	0.0141740
735.557	0.0142465
735.635	0.0144448
735.713	0.0144537
735.791	0.0143951
735.869	0.0146502
735.947	0.0147533
736.025	0.0148273
736.103	0.0147188
736.182	0.0147594
736.260	0.0149059
736.338	0.0148312
736.416	0.0148735
736.494	0.0148286
736.572	0.0147694
736.650	0.0147121
736.728	0.0145271
736.807	0.0145623
736.885	0.0144803
736.963	0.0143880
737.041	0.0141712
737.119	0.0140892
737.197	0.0141780
737.275	0.0141609
737.353	0.0141514
737.432	0.0140375
737.510	0.0139878
737.588	0.0139737
737.666	0.0139201
737.744	0.0141638
737.822	0.0141801
737.900	0.0140835
737.978	0.0139938
738.057	0.0142700
738.135	0.0142305
738.213	0.0143100
738.291	0.0144072
738.369	0.0143219
738.447	0.0143173
738.525	0.0142822
738.603	0.0144550
738.682	0.0143888
738.760	0.0143156
738.838	0.0144582
738.916	0.0146667
738.994	0.0144249
739.072	0.0142430
739.150	0.0145074
739.228	0.0144393
739.307	0.0145773
739.385	0.0145885
739.463	0.0144402
739.541	0.0145499
739.619	0.0145328
739.697	0.0145395
739.775	0.0146780
739.853	0.0145113
739.932	0.0145673
740.010	0.0145299
740.088	0.0145464
740.166	0.0145186
740.244	0.0144714
740.322	0.0144110
740.400	0.0144284
740.478	0.0144444
740.557	0.0145715
740.635	0.0143982
740.713	0.0144030
740.791	0.0143021
740.869	0.0144030
740.947	0.0145097
741.025	0.0144209
741.103	0.0144168
741.182	0.0144756
741.260	0.0144785
741.338	0.0145031
741.416	0.0144859
741.494	0.0144996
741.572	0.0144371
741.650	0.0145757
741.728	0.0145969
741.807	0.0145448
741.885	0.0145138
741.963	0.0146435
742.041	0.0145794
742.119	0.0144583
742.197	0.0145334
742.275	0.0145596
742.353	0.0146071
742.432	0.0144666
742.510	0.0144671
742.588	0.0144702
742.666	0.0144923
742.744	0.0144582
742.822	0.0143874
742.900	0.0144809
742.978	0.0146000
743.057	0.0144711
743.135	0.0143932
743.213	0.0143938
743.291	0.0143996
743.369	0.0144145
743.447	0.0145005
743.525	0.0144308
743.603	0.0143964
743.682	0.0144550
743.760	0.0144432
743.838	0.0143619
743.916	0.0142455
743.994	0.0142645
744.072	0.0143420
744.150	0.0144212
744.228	0.0142248
744.307	0.0142501
744.385	0.0141467
744.463	0.0142619
744.541	0.0142505
744.619	0.0142027
744.697	0.0140812
744.775	0.0141514
744.853	0.0141472
744.932	0.0142027
745.010	0.0140723
745.088	0.0141115
745.166	0.0140532
745.244	0.0142370
745.322	0.0143717
745.400	0.0143969
745.478	0.0143096
745.557	0.0144099
745.635	0.0144625
745.713	0.0144718
745.791	0.0144286
745.869	0.0144650
745.947	0.0146131
746.025	0.0145686
746.103	0.0145685
746.182	0.0145341
746.260	0.0147654
746.338	0.0147264
746.416	0.0147000
746.494	0.0148405
746.572	0.0149863
746.650	0.0148940
746.728	0.0149934
746.807	0.0150019
746.885	0.0149019
746.963	0.0149638
747.041	0.0149806
747.119	0.0150357
747.197	0.0149046
747.275	0.0148811
747.353	0.0147160
747.432	0.0146731
747.510	0.0147113
747.588	0.0146661
747.666	0.0145950
747.744	0.0145330
747.822	0.0144438
747.900	0.0143914
747.978	0.0142649
748.057	0.0144778
748.135	0.0141405
748.213	0.0141031
748.291	0.0141533
748.369	0.0139877
748.447	0.0141042
748.525	0.0140643
748.603	0.0141912
748.682	0.0141167
748.760	0.0141138
748.838	0.0140489
748.916	0.0141512
748.994	0.0142851
749.072	0.0141888
749.150	0.0142421
749.228	0.0141662
749.307	0.0142846
749.385	0.0143316
749.463	0.0143375
749.541	0.0145072
749.619	0.0143414
749.697	0.0144212
749.775	0.0145882
749.853	0.0144992
749.932	0.0143128
750.010	0.0144940
750.088	0.0144759
750.166	0.0145820
750.244	0.0145103
750.322	0.0145248
750.400	0.0146127
750.478	0.0145860
750.557	0.0146683
750.635	0.0145042
750.713	0.0145222
750.791	0.0145324
750.869	0.0145522
750.947	0.0145141
751.025	0.0145229
751.103	0.0145677
751.182	0.0144206
751.260	0.0145213
751.338	0.0144575
751.416	0.0144788
751.494	0.0146053
751.572	0.0144032
751.650	0.0144608
751.728	0.0144221
751.807	0.0142784
751.885	0.0142582
751.963	0.0143085
752.041	0.0141592
752.119	0.0141409
752.197	0.0141360
752.275	0.0140666
752.353	0.0140554
752.432	0.0140131
752.510	0.0139811
752.588	0.0139417
752.666	0.0139182
752.744	0.0137731
752.822	0.0139143
752.900	0.0138790
752.978	0.0138693
753.057	0.0139128
753.135	0.0140217
753.213	0.0139586
753.291	0.0140233
753.369	0.0139624
753.447	0.0140137
753.525	0.0141254
753.603	0.0141162
753.682	0.0140281
753.760	0.0142049
753.838	0.0142546
753.916	0.0143251
753.994	0.0143670
754.072	0.0144623
754.150	0.0144521
754.228	0.0143625
754.307	0.0142678
754.385	0.0144119
754.463	0.0143321
754.541	0.0143867
754.619	0.0144565
754.697	0.0144142
754.775	0.0142300
754.853	0.0143604
754.932	0.0145728
755.010	0.0144373
755.088	0.0145331
755.166	0.0145134
755.244	0.0145022
755.322	0.0145407
755.400	0.0145918
755.478	0.0146394
755.557	0.0145167
755.635	0.0145117
755.713	0.0145590
755.791	0.0146662
755.869	0.0145186
755.947	0.0145834
756.025	0.0146665
756.103	0.0147120
756.182	0.0146808
756.260	0.0147071
756.338	0.0146906
756.416	0.0145947
756.494	0.0145496
756.572	0.0145657
756.650	0.0144475
756.728	0.0144674
756.807	0.0143912
756.885	0.0144196
756.963	0.0145292
757.041	0.0143178
757.119	0.0143011
757.197	0.0143677
757.275	0.0143524
757.353	0.0142160
757.432	0.0143913
757.510	0.0145076
757.588	0.0142346
757.666	0.0142228
757.744	0.0141926
757.822	0.0141367
757.900	0.0142539
757.978	0.0141950
758.057	0.0142552
758.135	0.0142130
758.213	0.0142300
758.291	0.0141948
758.369	0.0141312
758.447	0.0140965
758.525	0.0141470
758.603	0.0141802
758.682	0.0143506
758.760	0.0142379
758.838	0.0142377
758.916	0.0142307
758.994	0.0143533
759.072	0.0144620
759.150	0.0143378
759.228	0.0145001
759.307	0.0144079
759.385	0.0143808
759.463	0.0145260
759.541	0.0145120
759.619	0.0145089
759.697	0.0144532
759.775	0.0145547
759.853	0.0146533
759.932	0.0147329
760.010	0.0148377
760.088	0.0148997
760.166	0.0147044
760.244	0.0148077
760.322	0.0147231
760.400	0.0148870
760.478	0.0149272
760.557	0.0149570
760.635	0.0147649
760.713	0.0147975
760.791	0.0148750
760.869	0.0147871
760.947	0.0147968
761.025	0.0148808
761.103	0.0146540
761.182	0.0146588
761.260	0.0145975
761.338	0.0144641
761.416	0.0144703
761.494	0.0143981
761.572	0.0142795
761.650	0.0144775
761.728	0.0142165
761.807	0.0142410
761.885	0.0142982
761.963	0.0143311
762.041	0.0142725
762.119	0.0143583
762.197	0.0144309
762.275	0.0144686
762.353	0.0145135
762.432	0.0144868
762.510	0.0145463
762.588	0.0145563
762.666	0.0144275
762.744	0.0144945
762.822	0.0146310
762.900	0.0146644
762.978	0.0146936
763.057	0.0146314
763.135	0.0145823
763.213	0.0147047
763.291	0.0147304
763.369	0.0146761
763.447	0.0147353
763.525	0.0146656
763.603	0.0145541
763.682	0.0145564
763.760	0.0146163
763.838	0.0146201
763.916	0.0146275
763.994	0.0144427
764.072	0.0144807
764.150	0.0144854
764.228	0.0143662
764.307	0.0143809
764.385	0.0142980
764.463	0.0143082
764.541	0.0142107
764.619	0.0139685
764.697	0.0141502
764.775	0.0141711
764.853	0.0140746
764.932	0.0140390
765.010	0.0139436
765.088	0.0137686
765.166	0.0138215
765.244	0.0138322
765.322	0.0138494
765.400	0.0139231
765.478	0.0138628
765.557	0.0138541
765.635	0.0139141
765.713	0.0139102
765.791	0.0139396
765.869	0.0142852
765.947	0.0143491
766.025	0.0142566
766.103	0.0143194
766.182	0.0144961
766.260	0.0145013
766.338	0.0146128
766.416	0.0148656
766.494	0.0148359
766.572	0.0148936
766.650	0.0150128
766.728	0.0150311
766.807	0.0149383
766.885	0.0149618
766.963	0.0150387
767.041	0.0150791
767.119	0.0150471
767.197	0.0149312
767.275	0.0149584
767.353	0.0148286
767.432	0.0147321
767.510	0.0146800
767.588	0.0146935
767.666	0.0147179
767.744	0.0144728
767.822	0.0144623
767.900	0.0144621
767.978	0.0143428
768.057	0.0142039
768.135	0.0143980
768.213	0.0140471
768.291	0.0142619
768.369	0.0141763
768.447	0.0140501
768.525	0.0141174
768.603	0.0140671
768.682	0.0140484
768.760	0.0141869
768.838	0.0142488
768.916	0.0142330
768.994	0.0142486
769.072	0.0142295
769.150	0.0143623
769.228	0.0144160
769.307	0.0143761
769.385	0.0145542
769.463	0.0145009
769.541	0.0146288
769.619	0.0147275
769.697	0.0147461
769.775	0.0148426
769.853	0.0147700
769.932	0.0148387
770.010	0.0149039
770.088	0.0149337
770.166	0.0149699
770.244	0.0149110
770.322	0.0150489
770.400	0.0149506
770.478	0.0148773
770.557	0.0149792
770.635	0.0149910
770.713	0.0150311
770.791	0.0148976
770.869	0.0148750
770.947	0.0147271
771.025	0.0148955
771.103	0.0148515
771.182	0.0146072
771.260	0.0146662
771.338	0.0146733
771.416	0.0146791
771.494	0.0144939
771.572	0.0145980
771.650	0.0144933
771.728	0.0144321
771.807	0.0144737
771.885	0.0143705
771.963	0.0143642
772.041	0.0143595
772.119	0.0142053
772.197	0.0142372
772.275	0.0141066
772.353	0.0141951
772.432	0.0142158
772.510	0.0142954
772.588	0.0141921
772.666	0.0142382
772.744	0.0141266
772.822	0.0141749
772.900	0.0140371
772.978	0.0140678
773.057	0.0140360
773.135	0.0140341
773.213	0.0140382
773.291	0.0141666
773.369	0.0139848
773.447	0.0140350
773.525	0.0138957
773.603	0.0138705
773.682	0.0139321
773.760	0.0140283
773.838	0.0139645
773.916	0.0137915
773.994	0.0140093
774.072	0.0139666
774.150	0.0140134
774.228	0.0140200
774.307	0.0140119
774.385	0.0140662
774.463	0.0141111
774.541	0.0142223
774.619	0.0143187
774.697	0.0143821
774.775	0.0144828
774.853	0.0145005
774.932	0.0143812
775.010	0.0145898
775.088	0.0146051
775.166	0.0146472
775.244	0.0147956
775.322	0.0148277
775.400	0.0148879
775.478	0.0148801
775.557	0.0150447
775.635	0.0150153
775.713	0.0150381
775.791	0.0149796
775.869	0.0151516
775.947	0.0151161
776.025	0.0151427
776.103	0.0150548
776.182	0.0149940
776.260	0.0149812
776.338	0.0148987
776.416	0.0148149
776.494	0.0148133
776.572	0.0146277
776.650	0.0147170
776.728	0.0145162
776.807	0.0144820
776.885	0.0143739
776.963	0.0143754
777.041	0.0142358
777.119	0.0140770
777.197	0.0140631
777.275	0.0142081
777.353	0.0139681
777.432	0.0138305
777.510	0.0140292
777.588	0.0140025
777.666	0.0137936
777.744	0.0138918
777.822	0.0138299
777.900	0.0137778
777.978	0.0138017
778.057	0.0137768
778.135	0.0137650
778.213	0.0137669
778.291	0.0139163
778.369	0.0139332
778.447	0.0139924
778.525	0.0141374
778.603	0.0140730
778.682	0.0141130
778.760	0.0142441
778.838	0.0144124
778.916	0.0142051
778.994	0.0144218
779.072	0.0145554
779.150	0.0145109
779.228	0.0146069
779.307	0.0145811
779.385	0.0146163
779.463	0.0147260
779.541	0.0147433
779.619	0.0147417
779.697	0.0146127
779.775	0.0146090
779.853	0.0147086
779.932	0.0147675
780.010	0.0145952
780.088	0.0146964
780.166	0.0146153
780.244	0.0146674
780.322	0.0146049
780.400	0.0145246
780.478	0.0146354
780.557	0.0145336
780.635	0.0144131
780.713	0.0143542
780.791	0.0142690
780.869	0.0142359
780.947	0.0142588
781.025	0.0140268
781.103	0.0142412
781.182	0.0140878
781.260	0.0140218
781.338	0.0141134
781.416	0.0142913
781.494	0.0139524
781.572	0.0140256
781.650	0.0141289
781.728	0.0139584
781.807	0.0141209
781.885	0.0141535
781.963	0.0143748
782.041	0.0144584
782.119	0.0143560
782.197	0.0144793
782.275	0.0145289
782.353	0.0146162
782.432	0.0145100
782.510	0.0144639
782.588	0.0147192
782.666	0.0146071
782.744	0.0147699
782.822	0.0147495
782.900	0.0145808
782.978	0.0145974
783.057	0.0147330
783.135	0.0147198
783.213	0.0146875
783.291	0.0147041
783.369	0.0146053
783.447	0.0145586
783.525	0.0145377
783.603	0.0144527
783.682	0.0145158
783.760	0.0146285
783.838	0.0145895
783.916	0.0145193
783.994	0.0145212
784.072	0.0144107
784.150	0.0144788
784.228	0.0145115
784.307	0.0144997
784.385	0.0144006
784.463	0.0144698
784.541	0.0144946
784.619	0.0145023
784.697	0.0145856
784.775	0.0146611
784.853	0.0145239
784.932	0.0143615
785.010	0.0143928
785.088	0.0144942
785.166	0.0144193
785.244	0.0144434
785.322	0.0145043
785.400	0.0143129
785.478	0.0142624
785.557	0.0141676
785.635	0.0142011
785.713	0.0142146
785.791	0.0140282
785.869	0.0142960
785.947	0.0143336
786.025	0.0140589
786.103	0.0141446
786.182	0.0143253
786.260	0.0141634
786.338	0.0142741
786.416	0.0142245
786.494	0.0143377
786.572	0.0144382
786.650	0.0142904
786.728	0.0142616
786.807	0.0143711
786.885	0.0143943
786.963	0.0145560
787.041	0.0143388
787.119	0.0145272
787.197	0.0145915
787.275	0.0146039
787.353	0.0145861
787.432	0.0146494
787.510	0.0146722
787.588	0.0145571
787.666	0.0145513
787.744	0.0145611
787.822	0.0144590
787.900	0.0145942
787.978	0.0144342
788.057	0.0144815
788.135	0.0145611
788.213	0.0146793
788.291	0.0144889
788.369	0.0145525
788.447	0.0146217
788.525	0.0146739
788.603	0.0145656
788.682	0.0145427
788.760	0.0145815
788.838	0.0145654
788.916	0.0144952
788.994	0.0145402
789.072	0.0145910
789.150	0.0144662
789.228	0.0145351
789.307	0.0145209
789.385	0.0143933
789.463	0.0142834
789.541	0.0143963
789.619	0.0143455
789.697	0.0142931
789.775	0.0145145
789.853	0.0143644
789.932	0.0144386
790.010	0.0146098
790.088	0.0145328
790.166	0.0146716
790.244	0.0146745
790.322	0.0145580
790.400	0.0147646
790.478	0.0147124
790.557	0.0147667
790.635	0.0146600
790.713	0.0147619
790.791	0.0146623
790.869	0.0147905
790.947	0.0146704
791.025	0.0146613
791.103	0.0146555
791.182	0.0145764
791.260	0.0145387
791.338	0.0145493
791.416	0.0146230
791.494	0.0145139
791.572	0.0142175
791.650	0.0143774
791.728	0.0144490
791.807	0.0143922
791.885	0.0143414
791.963	0.0144596
792.041	0.0144086
792.119	0.0145502
792.197	0.0145073
792.275	0.0143890
792.353	0.0145540
792.432	0.0145745
792.510	0.0143341
792.588	0.0144199
792.666	0.0144511
792.744	0.0144365
792.822	0.0144215
792.900	0.0145698
792.978	0.0144209
793.057	0.0144572
793.135	0.0143726
793.213	0.0143500
793.291	0.0144376
793.369	0.0143069
793.447	0.0143888
793.525	0.0144235
793.603	0.0143438
793.682	0.0143747
793.760	0.0145636
793.838	0.0143957
793.916	0.0143089
793.994	0.0145045
794.072	0.0143047
794.150	0.0143594
794.228	0.0143988
794.307	0.0143417
794.385	0.0142736
794.463	0.0143636
794.541	0.0142774
794.619	0.0142719
794.697	0.0144383
794.775	0.0145016
794.853	0.0144976
794.932	0.0144482
795.010	0.0145546
795.088	0.0144997
795.166	0.0145036
795.244	0.0145950
795.322	0.0145507
795.400	0.0145551
795.478	0.0145694
795.557	0.0146896
795.635	0.0145372
795.713	0.0145580
795.791	0.0145238
795.869	0.0145131
795.947	0.0145030
796.025	0.0145841
796.103	0.0143884
796.182	0.0143124
796.260	0.0142818
796.338	0.0141269
796.416	0.0139587
796.494	0.0140405
796.572	0.0139127
796.650	0.0140077
796.728	0.0139037
796.807	0.0136471
796.885	0.0137691
796.963	0.0137725
797.041	0.0137245
797.119	0.0138187
797.197	0.0137002
797.275	0.0137484
797.353	0.0137318
797.432	0.0138350
797.510	0.0139864
797.588	0.0140916
797.666	0.0141801
797.744	0.0140623
797.822	0.0143932
797.900	0.0143216
797.978	0.0143655
798.057	0.0144868
798.135	0.0146028
798.213	0.0147237
798.291	0.0146183
798.369	0.0147384
798.447	0.0148827
798.525	0.0149251
798.603	0.0151080
798.682	0.0150352
798.760	0.0149998
798.838	0.0150147
798.916	0.0150102
798.994	0.0150214
799.072	0.0151406
799.150	0.0150643
799.228	0.0150788
799.307	0.0150136
799.385	0.0148929
799.463	0.0148785
799.541	0.0148157
799.619	0.0148449
799.697	0.0147134
799.775	0.0147491
799.853	0.0146013
799.932	0.0146387
800.010	0.0145381
800.088	0.0146140
800.166	0.0144963
800.244	0.0143836
800.322	0.0145489
800.400	0.0145901
800.478	0.0145836
800.557	0.0144418
800.635	0.0143102
800.713	0.0143284
800.791	0.0142336
800.869	0.0141238
800.947	0.0141043
801.025	0.0140612
801.103	0.0140767
801.182	0.0140238
801.260	0.0139172
801.338	0.0138302
801.416	0.0139462
801.494	0.0139626
801.572	0.0139216
801.650	0.0138885
801.728	0.0139040
801.807	0.0140878
801.885	0.0139928
801.963	0.0139977
802.041	0.0142177
802.119	0.0142178
802.197	0.0141970
802.275	0.0141831
802.353	0.0144082
802.432	0.0143692
802.510	0.0143631
802.588	0.0144529
802.666	0.0145064
802.744	0.0146773
802.822	0.0146843
802.900	0.0146818
802.978	0.0147444
803.057	0.0147086
803.135	0.0147646
803.213	0.0147882
803.291	0.0149342
803.369	0.0149522
803.447	0.0150370
803.525	0.0149320
803.603	0.0148215
803.682	0.0149872
803.760	0.0149368
803.838	0.0150632
803.916	0.0148573
803.994	0.0149792
804.072	0.0149513
804.150	0.0149416
804.228	0.0149834
804.307	0.0149981
804.385	0.0148843
804.463	0.0148076
804.541	0.0148215
804.619	0.0149229
804.697	0.0147940
804.775	0.0146359
804.853	0.0146317
804.932	0.0147733
805.010	0.0146577
805.088	0.0144560
805.166	0.0144313
805.244	0.0145039
805.322	0.0145903
805.400	0.0143832
805.478	0.0144508
805.557	0.0145347
805.635	0.0144387
805.713	0.0144816
805.791	0.0145193
805.869	0.0144650
805.947	0.0144349
806.025	0.0145618
806.103	0.0146073
806.182	0.0145811
806.260	0.0146150
806.338	0.0145895
806.416	0.0145600
806.494	0.0144431
806.572	0.0144205
806.650	0.0144356
806.728	0.0144272
806.807	0.0142660
806.885	0.0143690
806.963	0.0143786
807.041	0.0143156
807.119	0.0141119
807.197	0.0141763
807.275	0.0142007
807.353	0.0142809
807.432	0.0140830
807.510	0.0140689
807.588	0.0139531
807.666	0.0139663
807.744	0.0140359
807.822	0.0139977
807.900	0.0140052
807.978	0.0139276
808.057	0.0139993
808.135	0.0140020
808.213	0.0139795
808.291	0.0139750
808.369	0.0139886
808.447	0.0141191
808.525	0.0141012
808.603	0.0141888
808.682	0.0142699
808.760	0.0141834
808.838	0.0140975
808.916	0.0142811
808.994	0.0142901
809.072	0.0142834
809.150	0.0143388
809.228	0.0143739
809.307	0.0145596
809.385	0.0144038
809.463	0.0143380
809.541	0.0143008
809.619	0.0142750
809.697	0.0144688
809.775	0.0143246
809.853	0.0143027
809.932	0.0143704
810.010	0.0143355
810.088	0.0142695
810.166	0.0144258
810.244	0.0144680
810.322	0.0144546
810.400	0.0144444
810.478	0.0144849
810.557	0.0147449
810.635	0.0147620
810.713	0.0147309
810.791	0.0147804
810.869	0.0149357
810.947	0.0148442
811.025	0.0149850
811.103	0.0151406
811.182	0.0150367
811.260	0.0148240
811.338	0.0148105
811.416	0.0148546
811.494	0.0148248
811.572	0.0147495
811.650	0.0147177
811.728	0.0145000
811.807	0.0144247
811.885	0.0145161
811.963	0.0144657
812.041	0.0142065
812.119	0.0141019
812.197	0.0142587
812.275	0.0143156
812.353	0.0142844
812.432	0.0141470
812.510	0.0140996
812.588	0.0141503
812.666	0.0142625
812.744	0.0142688
812.822	0.0143869
812.900	0.0143912
812.978	0.0144276
813.057	0.0144573
813.135	0.0145739
813.213	0.0144407
813.291	0.0144339
813.369	0.0143159
813.447	0.0144531
813.525	0.0142921
813.603	0.0142823
813.682	0.0143534
813.760	0.0141092
813.838	0.0141415
813.916	0.0141106
813.994	0.0139579
814.072	0.0138988
814.150	0.0138868
814.228	0.0140330
814.307	0.0137527
814.385	0.0138273
814.463	0.0139575
814.541	0.0139819
814.619	0.0139424
814.697	0.0139374
814.775	0.0139577
814.853	0.0139181
814.932	0.0140416
815.010	0.0139516
815.088	0.0140206
815.166	0.0140560
815.244	0.0140101
815.322	0.0139677
815.400	0.0140748
815.478	0.0141496
815.557	0.0141711
815.635	0.0142654
815.713	0.0142274
815.791	0.0143812
815.869	0.0142262
815.947	0.0144498
816.025	0.0145920
816.103	0.0145302
816.182	0.0145766
816.260	0.0147672
816.338	0.0147407
816.416	0.0147473
816.494	0.0147705
816.572	0.0148602
816.650	0.0149126
816.728	0.0149121
816.807	0.0149714
816.885	0.0148605
816.963	0.0149687
817.041	0.0149761
817.119	0.0148871
817.197	0.0148480
817.275	0.0149228
817.353	0.0148385
817.432	0.0145545
817.510	0.0145100
817.588	0.0144952
817.666	0.0143512
817.744	0.0143192
817.822	0.0143263
817.900	0.0142518
817.978	0.0142170
818.057	0.0142587
818.135	0.0142627
818.213	0.0142178
818.291	0.0142120
818.369	0.0142754
818.447	0.0142507
818.525	0.0142615
818.603	0.0142408
818.682	0.0142195
818.760	0.0143000
818.838	0.0140942
818.916	0.0141808
818.994	0.0143543
819.072	0.0142762
819.150	0.0143360
819.228	0.0145401
819.307	0.0145200
819.385	0.0143855
819.463	0.0146921
819.541	0.0146703
819.619	0.0146670
819.697	0.0146597
819.775	0.0145734
819.853	0.0146141
819.932	0.0145924
820.010	0.0144252
820.088	0.0143660
820.166	0.0144514
820.244	0.0141758
820.322	0.0141701
820.400	0.0140871
820.478	0.0140281
820.557	0.0140008
820.635	0.0140591
820.713	0.0140910
820.791	0.0140169
820.869	0.0141042
820.947	0.0141077
821.025	0.0141438
821.103	0.0141331
821.182	0.0143812
821.260	0.0142820
821.338	0.0144673
821.416	0.0145386
821.494	0.0145312
821.572	0.0145772
821.650	0.0145612
821.728	0.0146495
821.807	0.0148124
821.885	0.0146726
821.963	0.0147598
822.041	0.0148174
822.119	0.0148904
822.197	0.0150091
822.275	0.0148113
822.353	0.0148558
822.432	0.0148288
822.510	0.0147815
822.588	0.0148430
822.666	0.0146255
822.744	0.0145705
822.822	0.0143732
822.900	0.0144276
822.978	0.0143944
823.057	0.0142926
823.135	0.0142419
823.213	0.0142137
823.291	0.0140696
823.369	0.0141779
823.447	0.0140923
823.525	0.0141841
823.603	0.0143523
823.682	0.0142139
823.760	0.0142353
823.838	0.0144099
823.916	0.0145785
823.994	0.0147052
824.072	0.0148181
824.150	0.0149265
824.228	0.0150112
824.307	0.0149279
824.385	0.0150829
824.463	0.0151572
824.541	0.0150874
824.619	0.0152414
824.697	0.0151167
824.775	0.0151639
824.853	0.0150505
824.932	0.0150402
825.010	0.0151518
825.088	0.0150180
825.166	0.0150038
825.244	0.0148951
825.322	0.0149863
825.400	0.0147848
825.478	0.0148506
825.557	0.0148547
825.635	0.0146951
825.713	0.0145213
825.791	0.0146679
825.869	0.0145520
825.947	0.0145773
826.025	0.0145081
826.103	0.0142869
826.182	0.0143108
826.260	0.0143243
826.338	0.0140601
826.416	0.0140062
826.494	0.0141692
826.572	0.0140941
826.650	0.0139618
826.728	0.0138613
826.807	0.0140182
826.885	0.0138971
826.963	0.0139151
827.041	0.0141157
827.119	0.0140263
827.197	0.0140805
827.275	0.0141473
827.353	0.0142798
827.432	0.0143116
827.510	0.0144127
827.588	0.0145014
827.666	0.0146352
827.744	0.0145952
827.822	0.0147280
827.900	0.0150424
827.978	0.0148478
828.057	0.0149957
828.135	0.0149504
828.213	0.0149543
828.291	0.0150248
828.369	0.0149758
828.447	0.0148814
828.525	0.0148375
828.603	0.0148997
828.682	0.0145322
828.760	0.0144717
828.838	0.0146809
828.916	0.0146527
828.994	0.0143450
829.072	0.0143749
829.150	0.0143295
829.228	0.0142350
829.307	0.0141351
829.385	0.0141963
829.463	0.0142741
829.541	0.0142863
829.619	0.0142803
829.697	0.0143565
829.775	0.0142029
829.853	0.0141560
829.932	0.0143665
830.010	0.0143571
830.088	0.0143954
830.166	0.0143665
830.244	0.0143447
830.322	0.0144344
830.400	0.0145470
830.478	0.0144713
830.557	0.0144109
830.635	0.0146066
830.713	0.0145909
830.791	0.0144292
830.869	0.0143637
830.947	0.0144405
831.025	0.0144758
831.103	0.0145361
831.182	0.0143930
831.260	0.0142803
831.338	0.0141209
831.416	0.0140343
831.494	0.0140240
831.572	0.0139021
831.650	0.0137695
831.728	0.0136542
831.807	0.0136633
831.885	0.0138355
831.963	0.0138317
832.041	0.0137030
832.119	0.0138224
832.197	0.0138467
832.275	0.0138884
832.353	0.0140660
832.432	0.0141208
832.510	0.0140723
832.588	0.0141360
832.666	0.0144337
832.744	0.0145176
832.822	0.0144119
832.900	0.0144562
832.978	0.0147242
833.057	0.0146615
833.135	0.0147836
833.213	0.0148015
833.291	0.0147802
833.369	0.0147384
833.447	0.0146236
833.525	0.0149007
833.603	0.0146990
833.682	0.0146188
833.760	0.0146610
833.838	0.0145727
833.916	0.0145659
833.994	0.0144459
834.072	0.0144620
834.150	0.0144217
834.228	0.0142655
834.307	0.0141717
834.385	0.0140400
834.463	0.0140134
834.541	0.0139772
834.619	0.0138492
834.697	0.0138655
834.775	0.0139590
834.853	0.0139702
834.932	0.0138715
835.010	0.0140407
835.088	0.0141381
835.166	0.0142220
835.244	0.0142399
835.322	0.0143275
835.400	0.0145619
835.478	0.0144516
835.557	0.0146113
835.635	0.0146288
835.713	0.0146596
835.791	0.0148115
835.869	0.0145950
835.947	0.0147485
836.025	0.0146808
836.103	0.0148164
836.182	0.0149319
836.260	0.0147439
836.338	0.0149439
836.416	0.0147104
836.494	0.0147108
836.572	0.0147245
836.650	0.0144395
836.728	0.0145746
836.807	0.0145235
836.885	0.0144021
836.963	0.0144262
837.041	0.0144250
837.119	0.0142200
837.197	0.0140894
837.275	0.0141403
837.353	0.0140828
837.432	0.0141022
837.510	0.0139840
837.588	0.0139941
837.666	0.0140624
837.744	0.0139742
837.822	0.0139765
837.900	0.0139739
837.978	0.0139868
838.057	0.0139690
838.135	0.0140860
838.213	0.0140627
838.291	0.0141399
838.369	0.0141480
838.447	0.0141600
838.525	0.0142677
838.603	0.0143182
838.682	0.0143999
838.760	0.0145252
838.838	0.0144489
838.916	0.0144427
838.994	0.0145616
839.072	0.0145202
839.150	0.0143601
839.228	0.0144300
839.307	0.0144611
839.385	0.0144494
839.463	0.0144740
839.541	0.0146087
839.619	0.0146027
839.697	0.0144817
839.775	0.0145621
839.853	0.0145469
839.932	0.0144450
840.010	0.0144563
840.088	0.0144244
840.166	0.0144192
840.244	0.0144318
840.322	0.0144286
840.400	0.0145036
840.478	0.0144394
840.557	0.0144724
840.635	0.0145811
840.713	0.0144331
840.791	0.0144694
840.869	0.0142998
840.947	0.0143720
841.025	0.0144574
841.103	0.0145148
841.182	0.0144820
841.260	0.0144659
841.338	0.0143645
841.416	0.0143967
841.494	0.0142226
841.572	0.0143151
841.650	0.0144615
841.728	0.0143305
841.807	0.0144259
841.885	0.0142910
841.963	0.0144862
842.041	0.0143461
842.119	0.0143383
842.197	0.0143456
842.275	0.0144316
842.353	0.0145328
842.432	0.0143655
842.510	0.0144380
842.588	0.0144146
842.666	0.0142961
842.744	0.0143738
842.822	0.0143857
842.900	0.0144431
842.978	0.0143623
843.057	0.0144078
843.135	0.0143689
843.213	0.0144582
843.291	0.0144659
843.369	0.0143683
843.447	0.0143275
843.525	0.0143685
843.603	0.0145294
843.682	0.0144302
843.760	0.0144373
843.838	0.0144006
843.916	0.0143778
843.994	0.0143643
844.072	0.0144671
844.150	0.0145766
844.228	0.0142963
844.307	0.0144121
844.385	0.0145600
844.463	0.0144375
844.541	0.0144040
844.619	0.0145283
844.697	0.0144012
844.775	0.0144273
844.853	0.0142805
844.932	0.0143415
845.010	0.0143428
845.088	0.0141463
845.166	0.0141978
845.244	0.0142870
845.322	0.0144492
845.400	0.0143449
845.478	0.0143870
845.557	0.0143314
845.635	0.0144196
845.713	0.0144789
845.791	0.0144897
845.869	0.0145467
845.947	0.0147279
846.025	0.0146732
846.103	0.0148803
846.182	0.0147704
846.260	0.0148460
846.338	0.0148047
846.416	0.0147823
846.494	0.0147899
846.572	0.0148322
846.650	0.0148399
846.728	0.0147527
846.807	0.0149469
846.885	0.0149096
846.963	0.0149708
847.041	0.0149155
847.119	0.0147873
847.197	0.0149167
847.275	0.0148636
847.353	0.0147820
847.432	0.0145950
847.510	0.0146470
847.588	0.0145068
847.666	0.0145814
847.744	0.0144202
847.822	0.0143689
847.900	0.0145250
847.978	0.0143818
848.057	0.0144239
848.135	0.0144435
848.213	0.0144346
848.291	0.0143176
848.369	0.0142246
848.447	0.0144018
848.525	0.0143505
848.603	0.0143336
848.682	0.0142796
848.760	0.0142618
848.838	0.0144344
848.916	0.0141632
848.994	0.0142006
849.072	0.0142498
849.150	0.0142520
849.228	0.0141895
849.307	0.0140286
849.385	0.0141599
849.463	0.0141816
849.541	0.0142522
849.619	0.0142594
849.697	0.0142161
849.775	0.0141944
849.853	0.0142155
849.932	0.0142869
850.010	0.0144351
850.088	0.0143065
850.166	0.0143159
850.244	0.0146371
850.322	0.0146368
850.400	0.0145406
850.478	0.0146487
850.557	0.0145670
850.635	0.0147090
850.713	0.0146194
850.791	0.0147360
850.869	0.0147041
850.947	0.0148550
851.025	0.0148009
851.103	0.0148474
851.182	0.0148920
851.260	0.0148446
851.338	0.0148473
851.416	0.0147647
851.494	0.0146580
851.572	0.0147314
851.650	0.0147771
851.728	0.0145643
851.807	0.0145140
851.885	0.0144616
851.963	0.0145108
852.041	0.0143897
852.119	0.0142989
852.197	0.0144079
852.275	0.0143919
852.353	0.0143721
852.432	0.0143182
852.510	0.0143351
852.588	0.0143069
852.666	0.0141270
852.744	0.0142839
852.822	0.0143611
852.900	0.0141592
852.978	0.0140649
853.057	0.0143495
853.135	0.0142342
853.213	0.0142773
853.291	0.0142455
853.369	0.0143214
853.447	0.0143971
853.525	0.0143209
853.603	0.0144182
853.682	0.0144221
853.760	0.0142712
853.838	0.0143712
853.916	0.0144370
853.994	0.0144670
854.072	0.0144437
854.150	0.0144037
854.228	0.0143646
854.307	0.0145045
854.385	0.0143797
854.463	0.0142694
854.541	0.0144442
854.619	0.0145039
854.697	0.0143629
854.775	0.0143501
854.853	0.0143340
854.932	0.0142957
855.010	0.0143286
855.088	0.0142689
855.166	0.0144195
855.244	0.0141628
855.322	0.0141041
855.400	0.0143185
855.478	0.0142279
855.557	0.0142870
855.635	0.0142754
855.713	0.0141255
855.791	0.0141217
855.869	0.0140156
855.947	0.0140421
856.025	0.0140637
856.103	0.0140347
856.182	0.0140289
856.260	0.0139820
856.338	0.0137857
856.416	0.0139263
856.494	0.0140749
856.572	0.0139168
856.650	0.0139606
856.728	0.0140792
856.807	0.0141660
856.885	0.0140954
856.963	0.0142132
857.041	0.0142411
857.119	0.0143311
857.197	0.0143058
857.275	0.0144350
857.353	0.0144528
857.432	0.0144613
857.510	0.0145118
857.588	0.0144834
857.666	0.0146566
857.744	0.0146988
857.822	0.0146982
857.900	0.0146416
857.978	0.0147500
858.057	0.0146956
858.135	0.0147746
858.213	0.0147855
858.291	0.0147111
858.369	0.0148049
858.447	0.0147218
858.525	0.0145866
858.603	0.0147876
858.682	0.0146938
858.760	0.0147033
858.838	0.0148943
858.916	0.0147435
858.994	0.0146638
859.072	0.0146625
859.150	0.0147485
859.228	0.0146143
859.307	0.0145414
859.385	0.0145583
859.463	0.0145070
859.541	0.0145738
859.619	0.0144517
859.697	0.0143355
859.775	0.0143695
859.853	0.0142455
859.932	0.0142924
860.010	0.0142247
860.088	0.0142863
860.166	0.0142845
860.244	0.0140346
860.322	0.0142349
860.400	0.0141820
860.478	0.0142094
860.557	0.0142376
860.635	0.0143267
860.713	0.0143990
860.791	0.0143229
860.869	0.0144585
860.947	0.0143776
861.025	0.0144458
861.103	0.0143683
861.182	0.0144221
861.260	0.0144398
861.338	0.0143591
861.416	0.0144576
861.494	0.0144692
861.572	0.0144369
861.650	0.0145806
861.728	0.0146470
861.807	0.0145355
861.885	0.0146159
861.963	0.0145448
862.041	0.0145238
862.119	0.0146555
862.197	0.0145979
862.275	0.0143965
862.353	0.0144063
862.432	0.0145253
862.510	0.0144918
862.588	0.0143858
862.666	0.0144835
862.744	0.0144297
862.822	0.0142388
862.900	0.0143143
862.978	0.0143974
863.057	0.0142606
863.135	0.0142017
863.213	0.0141303
863.291	0.0143668
863.369	0.0142483
863.447	0.0141911
863.525	0.0142719
863.603	0.0142703
863.682	0.0143194
863.760	0.0141711
863.838	0.0143035
863.916	0.0143658
863.994	0.0145240
864.072	0.0145193
864.150	0.0146111
864.228	0.0144917
864.307	0.0144099
864.385	0.0145710
864.463	0.0145878
864.541	0.0146555
864.619	0.0147511
864.697	0.0148163
864.775	0.0146052
864.853	0.0146645
864.932	0.0147581
865.010	0.0146328
865.088	0.0147359
865.166	0.0147003
865.244	0.0146325
865.322	0.0146291
865.400	0.0145740
865.478	0.0146230
865.557	0.0146482
865.635	0.0145459
865.713	0.0146485
865.791	0.0145995
865.869	0.0145864
865.947	0.0147411
866.025	0.0146598
866.103	0.0145449
866.182	0.0146825
866.260	0.0147141
866.338	0.0144563
866.416	0.0146062
866.494	0.0144552
866.572	0.0145172
866.650	0.0145764
866.728	0.0145724
866.807	0.0144647
866.885	0.0143587
866.963	0.0143243
867.041	0.0142894
867.119	0.0141741
867.197	0.0143871
867.275	0.0142403
867.353	0.0143271
867.432	0.0142958
867.510	0.0143450
867.588	0.0142624
867.666	0.0142057
867.744	0.0140865
867.822	0.0141247
867.900	0.0140986
867.978	0.0141628
868.057	0.0140466
868.135	0.0139941
868.213	0.0140329
868.291	0.0141607
868.369	0.0141765
868.447	0.0139547
868.525	0.0140357
868.603	0.0138955
868.682	0.0140491
868.760	0.0142049
868.838	0.0141339
868.916	0.0141228
868.994	0.0144021
869.072	0.0142751
869.150	0.0142110
869.228	0.0141950
869.307	0.0143478
869.385	0.0144338
869.463	0.0143800
869.541	0.0144646
869.619	0.0145538
869.697	0.0144860
869.775	0.0146318
869.853	0.0145426
869.932	0.0146079
870.010	0.0146512
870.088	0.0146140
870.166	0.0145856
870.244	0.0147466
870.322	0.0148183
870.400	0.0146777
870.478	0.0146093
870.557	0.0147808
870.635	0.0146808
870.713	0.0146775
870.791	0.0145297
870.869	0.0145708
870.947	0.0145895
871.025	0.0147225
871.103	0.0144227
871.182	0.0143288
871.260	0.0145050
871.338	0.0144054
871.416	0.0142777
871.494	0.0142542
871.572	0.0142715
871.650	0.0142863
871.728	0.0141495
871.807	0.0141358
871.885	0.0141946
871.963	0.0141745
872.041	0.0141129
872.119	0.0141263
872.197	0.0141028
872.275	0.0141219
872.353	0.0141920
872.432	0.0142458
872.510	0.0142009
872.588	0.0142572
872.666	0.0141586
872.744	0.0143586
872.822	0.0143758
872.900	0.0144653
872.978	0.0144688
873.057	0.0144585
873.135	0.0146107
873.213	0.0147734
873.291	0.0148096
873.369	0.0147309
873.447	0.0147186
873.525	0.0146627
873.603	0.0146886
873.682	0.0146331
873.760	0.0147178
873.838	0.0148496
873.916	0.0146835
873.994	0.0146471
874.072	0.0146872
874.150	0.0147961
874.228	0.0146788
874.307	0.0147762
874.385	0.0146878
874.463	0.0146663
874.541	0.0146616
874.619	0.0146344
874.697	0.0146088
874.775	0.0144978
874.853	0.0145364
874.932	0.0145179
875.010	0.0144067
875.088	0.0145247
875.166	0.0144083
875.244	0.0143118
875.322	0.0143040
875.400	0.0143050
875.478	0.0142027
875.557	0.0140149
875.635	0.0141415
875.713	0.0140120
875.791	0.0140002
875.869	0.0139286
875.947	0.0137185
876.025	0.0139295
876.103	0.0139613
876.182	0.0138593
876.260	0.0139389
876.338	0.0138609
876.416	0.0139314
876.494	0.0140208
876.572	0.0141064
876.650	0.0140141
876.728	0.0142144
876.807	0.0143608
876.885	0.0144186
876.963	0.0145198
877.041	0.0143793
877.119	0.0144997
877.197	0.0145539
877.275	0.0144598
877.353	0.0146132
877.432	0.0146645
877.510	0.0147179
877.588	0.0147363
877.666	0.0146877
877.744	0.0147888
877.822	0.0146587
877.900	0.0147298
877.978	0.0147659
878.057	0.0146999
878.135	0.0147279
878.213	0.0146889
878.291	0.0147385
878.369	0.0147660
878.447	0.0145853
878.525	0.0145818
878.603	0.0144366
878.682	0.0143732
878.760	0.0143674
878.838	0.0142777
878.916	0.0142674
878.994	0.0142219
879.072	0.0141337
879.150	0.0140372
879.228	0.0140194
879.307	0.0140560
879.385	0.0139824
879.463	0.0140805
879.541	0.0141153
879.619	0.0139845
879.697	0.0142136
879.775	0.0141187
879.853	0.0143278
879.932	0.0142101
880.010	0.0142708
880.088	0.0143389
880.166	0.0144350
880.244	0.0144254
880.322	0.0144301
880.400	0.0144044
880.478	0.0145380
880.557	0.0145378
880.635	0.0144600
880.713	0.0143517
880.791	0.0144038
880.869	0.0144807
880.947	0.0144146
881.025	0.0143690
881.103	0.0143828
881.182	0.0144721
881.260	0.0144038
881.338	0.0144412
881.416	0.0143826
881.494	0.0143182
881.572	0.0143182
881.650	0.0142648
881.728	0.0143005
881.807	0.0144785
881.885	0.0144329
881.963	0.0144547
882.041	0.0144656
882.119	0.0143842
882.197	0.0144382
882.275	0.0144854
882.353	0.0146637
882.432	0.0147703
882.510	0.0146265
882.588	0.0144588
882.666	0.0146062
882.744	0.0146788
882.822	0.0146747
882.900	0.0145600
882.978	0.0145856
883.057	0.0145808
883.135	0.0146545
883.213	0.0145021
883.291	0.0144564
883.369	0.0146354
883.447	0.0144971
883.525	0.0143372
883.603	0.0143335
883.682	0.0141671
883.760	0.0144656
883.838	0.0144862
883.916	0.0143421
883.994	0.0143222
884.072	0.0142445
884.150	0.0143781
884.228	0.0142347
884.307	0.0142819
884.385	0.0143478
884.463	0.0142255
884.541	0.0142573
884.619	0.0143528
884.697	0.0142460
884.775	0.0142545
884.853	0.0141717
884.932	0.0144411
885.010	0.0144224
885.088	0.0146052
885.166	0.0144793
885.244	0.0145029
885.322	0.0144621
885.400	0.0145354
885.478	0.0145636
885.557	0.0145912
885.635	0.0146687
885.713	0.0147507
885.791	0.0146737
885.869	0.0146354
885.947	0.0147623
886.025	0.0148161
886.103	0.0147371
886.182	0.0147089
886.260	0.0147401
886.338	0.0148045
886.416	0.0146937
886.494	0.0147780
886.572	0.0147295
886.650	0.0146445
886.728	0.0144720
886.807	0.0146591
886.885	0.0146487
886.963	0.0145558
887.041	0.0145500
887.119	0.0144556
887.197	0.0145256
887.275	0.0145820
887.353	0.0145727
887.432	0.0145584
887.510	0.0144180
887.588	0.0145014
887.666	0.0144744
887.744	0.0144932
887.822	0.0143618
887.900	0.0144711
887.978	0.0142690
888.057	0.0144787
888.135	0.0141956
888.213	0.0144249
888.291	0.0144496
888.369	0.0142473
888.447	0.0143623
888.525	0.0142020
888.603	0.0141821
888.682	0.0143219
888.760	0.0144920
888.838	0.0142416
888.916	0.0143645
888.994	0.0143536
889.072	0.0143067
889.150	0.0143356
889.228	0.0144584
889.307	0.0143642
889.385	0.0142543
889.463	0.0144219
889.541	0.0143378
889.619	0.0144003
889.697	0.0144854
889.775	0.0144084
889.853	0.0145699
889.932	0.0145508
890.010	0.0144217
890.088	0.0143837
890.166	0.0146951
890.244	0.0145335
890.322	0.0143968
890.400	0.0145328
890.478	0.0145515
890.557	0.0144513
890.635	0.0144948
890.713	0.0144382
890.791	0.0145136
890.869	0.0143274
890.947	0.0143439
891.025	0.0144765
891.103	0.0143472
891.182	0.0144644
891.260	0.0143797
891.338	0.0144001
891.416	0.0143545
891.494	0.0141103
891.572	0.0143083
891.650	0.0143705
891.728	0.0142426
891.807	0.0142257
891.885	0.0143646
891.963	0.0143102
892.041	0.0142329
892.119	0.0143839
892.197	0.0142255
892.275	0.0142267
892.353	0.0142719
892.432	0.0143186
892.510	0.0142903
892.588	0.0144268
892.666	0.0143304
892.744	0.0143605
892.822	0.0144085
892.900	0.0144337
892.978	0.0144950
893.057	0.0145050
893.135	0.0146378
893.213	0.0144511
893.291	0.0144639
893.369	0.0146864
893.447	0.0145319
893.525	0.0145490
893.603	0.0147126
893.682	0.0146557
893.760	0.0146836
893.838	0.0145820
893.916	0.0145887
893.994	0.0145404
894.072	0.0145668
894.150	0.0145929
894.228	0.0145348
894.307	0.0145776
894.385	0.0145765
894.463	0.0145242
894.541	0.0144860
894.619	0.0145654
894.697	0.0143262
894.775	0.0144361
894.853	0.0144398
894.932	0.0142712
895.010	0.0144287
895.088	0.0142906
895.166	0.0142212
895.244	0.0142529
895.322	0.0143034
895.400	0.0142621
895.478	0.0141092
895.557	0.0141463
895.635	0.0142252
895.713	0.0141016
895.791	0.0142343
895.869	0.0143085
895.947	0.0140373
896.025	0.0141586
896.103	0.0141296
896.182	0.0140757
896.260	0.0141138
896.338	0.0141173
896.416	0.0141508
896.494	0.0142934
896.572	0.0140587
896.650	0.0140733
896.728	0.0141998
896.807	0.0142014
896.885	0.0141818
896.963	0.0142839
897.041	0.0142511
897.119	0.0142484
897.197	0.0143037
897.275	0.0144483
897.353	0.0143464
897.432	0.0141537
897.510	0.0145273
897.588	0.0144765
897.666	0.0143810
897.744	0.0142620
897.822	0.0142276
897.900	0.0143922
897.978	0.0142728
898.057	0.0143879
898.135	0.0144788
898.213	0.0144079
898.291	0.0144669
898.369	0.0144888
898.447	0.0144167
898.525	0.0143382
898.603	0.0143931
898.682	0.0144644
898.760	0.0143674
898.838	0.0144296
898.916	0.0143456
898.994	0.0144440
899.072	0.0143206
899.150	0.0142562
899.228	0.0142773
899.307	0.0143002
899.385	0.0144769
899.463	0.0144131
899.541	0.0143095
899.619	0.0143507
899.697	0.0142424
899.775	0.0143306
899.853	0.0144391
899.932	0.0143700
900.010	0.0143439
900.088	0.0143652
900.166	0.0143629
900.244	0.0143919
900.322	0.0143845
900.400	0.0144387
900.478	0.0144077
900.557	0.0144489
900.635	0.0143926
900.713	0.0144135
900.791	0.0144032
900.869	0.0143737
900.947	0.0142775
901.025	0.0142467
901.103	0.0142223
901.182	0.0144295
901.260	0.0143133
901.338	0.0143368
901.416	0.0143494
901.494	0.0143211
901.572	0.0143428
901.650	0.0142774
901.728	0.0142003
901.807	0.0142356
901.885	0.0143601
901.963	0.0143795
902.041	0.0144533
902.119	0.0143923
902.197	0.0143528
902.275	0.0143208
902.353	0.0144517
902.432	0.0143431
902.510	0.0144579
902.588	0.0143565
902.666	0.0144601
902.744	0.0145093
902.822	0.0145391
902.900	0.0144000
902.978	0.0144716
903.057	0.0143457
903.135	0.0144043
903.213	0.0144444
903.291	0.0144187
903.369	0.0144160
903.447	0.0144716
903.525	0.0142595
903.603	0.0143180
903.682	0.0143658
903.760	0.0143894
903.838	0.0144830
903.916	0.0143250
903.994	0.0144048
904.072	0.0144993
904.150	0.0143976
904.228	0.0143979
904.307	0.0143732
904.385	0.0142849
904.463	0.0144377
904.541	0.0144420
904.619	0.0144001
904.697	0.0144385
904.775	0.0144259
904.853	0.0143885
904.932	0.0143121
905.010	0.0142862
905.088	0.0142478
905.166	0.0143324
905.244	0.0141884
905.322	0.0143840
905.400	0.0144461
905.478	0.0142921
905.557	0.0143081
905.635	0.0143181
905.713	0.0142999
905.791	0.0144726
905.869	0.0144409
905.947	0.0145165
906.025	0.0143678
906.103	0.0144126
906.182	0.0145847
906.260	0.0145707
906.338	0.0145586
906.416	0.0144525
906.494	0.0145375
906.572	0.0145578
906.650	0.0144837
906.728	0.0145934
906.807	0.0146069
906.885	0.0144332
906.963	0.0144063
907.041	0.0146494
907.119	0.0145727
907.197	0.0146226
907.275	0.0145188
907.353	0.0144552
907.432	0.0144653
907.510	0.0145118
907.588	0.0146394
907.666	0.0144304
907.744	0.0145139
907.822	0.0145899
907.900	0.0146263
907.978	0.0144019
908.057	0.0145425
908.135	0.0146574
908.213	0.0147533
908.291	0.0146113
908.369	0.0144710
908.447	0.0146017
908.525	0.0145558
908.603	0.0145700
908.682	0.0146866
908.760	0.0146893
908.838	0.0147099
908.916	0.0146180
908.994	0.0146111
909.072	0.0145894
909.150	0.0146336
909.228	0.0145155
909.307	0.0144418
909.385	0.0145290
909.463	0.0145940
909.541	0.0145113
909.619	0.0145906
909.697	0.0145885
909.775	0.0144938
909.853	0.0144963
909.932	0.0143658
910.010	0.0143952
910.088	0.0144142
910.166	0.0143893
910.244	0.0145063
910.322	0.0144297
910.400	0.0143033
910.478	0.0143040
910.557	0.0144181
910.635	0.0143498
910.713	0.0143049
910.791	0.0143670
910.869	0.0142274
910.947	0.0141518
911.025	0.0143398
911.103	0.0144528
911.182	0.0142844
911.260	0.0143450
911.338	0.0144559
911.416	0.0142518
911.494	0.0142312
911.572	0.0144840
911.650	0.0143806
911.728	0.0142654
911.807	0.0143228
911.885	0.0143633
911.963	0.0145139
912.041	0.0143111
912.119	0.0143140
912.197	0.0142745
912.275	0.0143577
912.353	0.0145210
912.432	0.0144243
912.510	0.0145074
912.588	0.0143314
912.666	0.0143935
912.744	0.0145447
912.822	0.0144387
912.900	0.0145123
912.978	0.0144769
913.057	0.0144963
913.135	0.0144856
913.213	0.0143736
913.291	0.0145608
913.369	0.0146198
913.447	0.0145996
913.525	0.0145280
913.603	0.0146537
913.682	0.0147031
913.760	0.0146436
913.838	0.0145835
913.916	0.0144957
913.994	0.0145860
914.072	0.0146093
914.150	0.0145021
914.228	0.0144664
914.307	0.0144934
914.385	0.0145551
914.463	0.0145181
914.541	0.0145989
914.619	0.0146712
914.697	0.0144494
914.775	0.0146380
914.853	0.0145745
914.932	0.0145529
915.010	0.0144402
915.088	0.0144595
915.166	0.0143931
915.244	0.0145042
915.322	0.0143369
915.400	0.0144365
915.478	0.0142461
915.557	0.0142424
915.635	0.0142925
915.713	0.0142612
915.791	0.0142123
915.869	0.0142714
915.947	0.0144511
916.025	0.0143470
916.103	0.0143822
916.182	0.0142989
916.260	0.0143011
916.338	0.0143700
916.416	0.0145237
916.494	0.0143819
916.572	0.0144283
916.650	0.0144644
916.728	0.0145093
916.807	0.0144756
916.885	0.0145239
916.963	0.0145770
917.041	0.0144109
917.119	0.0144035
917.197	0.0143450
917.275	0.0143717
917.353	0.0144780
917.432	0.0145197
917.510	0.0143905
917.588	0.0144667
917.666	0.0144172
917.744	0.0144616
917.822	0.0143684
917.900	0.0143059
917.978	0.0142130
918.057	0.0143776
918.135	0.0143652
918.213	0.0142098
918.291	0.0142690
918.369	0.0143639
918.447	0.0142643
918.525	0.0143436
918.603	0.0143202
918.682	0.0141059
918.760	0.0143039
918.838	0.0142722
918.916	0.0142593
918.994	0.0144197
919.072	0.0143562
919.150	0.0142661
919.228	0.0143191
919.307	0.0145056
919.385	0.0144825
919.463	0.0144534
919.541	0.0144218
919.619	0.0146160
919.697	0.0144892
919.775	0.0144959
919.853	0.0145793
919.932	0.0144180
920.010	0.0146252
920.088	0.0145521
920.166	0.0145613
920.244	0.0145279
920.322	0.0144767
920.400	0.0145957
920.478	0.0146581
920.557	0.0145818
920.635	0.0146815
920.713	0.0145521
920.791	0.0144637
920.869	0.0146641
920.947	0.0146084
921.025	0.0145723
921.103	0.0146864
921.182	0.0145129
921.260	0.0145380
921.338	0.0145494
921.416	0.0144571
921.494	0.0144515
921.572	0.0144318
921.650	0.0144041
921.728	0.0145830
921.807	0.0145728
921.885	0.0145689
921.963	0.0143966
922.041	0.0143961
922.119	0.0144460
922.197	0.0146107
922.275	0.0145922
922.353	0.0144824
922.432	0.0145148
922.510	0.0145152
922.588	0.0144957
922.666	0.0145567
922.744	0.0146956
922.822	0.0146617
922.900	0.0144933
922.978	0.0145957
923.057	0.0147377
923.135	0.0146074
923.213	0.0147134
923.291	0.0146947
923.369	0.0145791
923.447	0.0147313
923.525	0.0146297
923.603	0.0147100
923.682	0.0145577
923.760	0.0147254
923.838	0.0146516
923.916	0.0145949
923.994	0.0145988
924.072	0.0146839
924.150	0.0145886
924.228	0.0145258
924.307	0.0145300
924.385	0.0144214
924.463	0.0145751
924.541	0.0145325
924.619	0.0143603
924.697	0.0146038
924.775	0.0145305
924.853	0.0144228
924.932	0.0143732
925.010	0.0145383
925.088	0.0145063
925.166	0.0143365
925.244	0.0144542
925.322	0.0143875
925.400	0.0144162
925.478	0.0142738
925.557	0.0143772
925.635	0.0143622
925.713	0.0143636
925.791	0.0143457
925.869	0.0142502
925.947	0.0143686
926.025	0.0142999
926.103	0.0142799
926.182	0.0143092
926.260	0.0143553
926.338	0.0143932
926.416	0.0142743
926.494	0.0143481
926.572	0.0144011
926.650	0.0143921
926.728	0.0144935
926.807	0.0144576
926.885	0.0145140
926.963	0.0145134
927.041	0.0145309
927.119	0.0145657
927.197	0.0144372
927.275	0.0145198
927.353	0.0145341
927.432	0.0145506
927.510	0.0146200
927.588	0.0147007
927.666	0.0145164
927.744	0.0146095
927.822	0.0145997
927.900	0.0146523
927.978	0.0146046
928.057	0.0146125
928.135	0.0146921
928.213	0.0145613
928.291	0.0145896
928.369	0.0145827
928.447	0.0145506
928.525	0.0145041
928.603	0.0145568
928.682	0.0144783
928.760	0.0144106
928.838	0.0144675
928.916	0.0143655
928.994	0.0143989
929.072	0.0144139
929.150	0.0144724
929.228	0.0144337
929.307	0.0142538
929.385	0.0144076
929.463	0.0145680
929.541	0.0144545
929.619	0.0144355
929.697	0.0143996
929.775	0.0146172
929.853	0.0144932
929.932	0.0145173
930.010	0.0145088
930.088	0.0145033
930.166	0.0145303
930.244	0.0143587
930.322	0.0143276
930.400	0.0143829
930.478	0.0144223
930.557	0.0142960
930.635	0.0143604
930.713	0.0144037
930.791	0.0143536
930.869	0.0142313
930.947	0.0143767
931.025	0.0142156
931.103	0.0141969
931.182	0.0143435
931.260	0.0142149
931.338	0.0141051
931.416	0.0142225
931.494	0.0141905
931.572	0.0143755
931.650	0.0142513
931.728	0.0142667
931.807	0.0142599
931.885	0.0142489
931.963	0.0141424
932.041	0.0140344
932.119	0.0143697
932.197	0.0142565
932.275	0.0143010
932.353	0.0143770
932.432	0.0142748
932.510	0.0143055
932.588	0.0143293
932.666	0.0144920
932.744	0.0145115
932.822	0.0145291
932.900	0.0144688
932.978	0.0145015
933.057	0.0145377
933.135	0.0145445
933.213	0.0144458
933.291	0.0144109
933.369	0.0145230
933.447	0.0145406
933.525	0.0144881
933.603	0.0145789
933.682	0.0144845
933.760	0.0144460
933.838	0.0144657
933.916	0.0142724
933.994	0.0143943
934.072	0.0143560
934.150	0.0143285
934.228	0.0142436
934.307	0.0143597
934.385	0.0143668
934.463	0.0142971
934.541	0.0143320
934.619	0.0143374
934.697	0.0144525
934.775	0.0144437
934.853	0.0142995
934.932	0.0142383
935.010	0.0143511
935.088	0.0143962
935.166	0.0144758
935.244	0.0144846
935.322	0.0143928
935.400	0.0146125
935.478	0.0146454
935.557	0.0146610
935.635	0.0146351
935.713	0.0145863
935.791	0.0145782
935.869	0.0145752
935.947	0.0147528
936.025	0.0146669
936.103	0.0146387
936.182	0.0146095
936.260	0.0146494
936.338	0.0147542
936.416	0.0146365
936.494	0.0145004
936.572	0.0145653
936.650	0.0145676
936.728	0.0145451
936.807	0.0145103
936.885	0.0145228
936.963	0.0145269
937.041	0.0145834
937.119	0.0144476
937.197	0.0144940
937.275	0.0144067
937.353	0.0144273
937.432	0.0143935
937.510	0.0143890
937.588	0.0144915
937.666	0.0144136
937.744	0.0144769
937.822	0.0145554
937.900	0.0144024
937.978	0.0142894
938.057	0.0142859
938.135	0.0143824
938.213	0.0144363
938.291	0.0141524
938.369	0.0144296
938.447	0.0142648
938.525	0.0143649
938.603	0.0143558
938.682	0.0142353
938.760	0.0143606
938.838	0.0142484
938.916	0.0144639
938.994	0.0144429
939.072	0.0144812
939.150	0.0144784
939.228	0.0144262
939.307	0.0144429
939.385	0.0143367
939.463	0.0143733
939.541	0.0143853
939.619	0.0144894
939.697	0.0144466
939.775	0.0145731
939.853	0.0144176
939.932	0.0146257
940.010	0.0144849
940.088	0.0145403
940.166	0.0146558
940.244	0.0148273
940.322	0.0145937
940.400	0.0146957
940.478	0.0146269
940.557	0.0147124
940.635	0.0147279
940.713	0.0147266
940.791	0.0146332
940.869	0.0145530
940.947	0.0147320
941.025	0.0146762
941.103	0.0146368
941.182	0.0146839
941.260	0.0146880
941.338	0.0145538
941.416	0.0145064
941.494	0.0145720
941.572	0.0145663
941.650	0.0143192
941.728	0.0144177
941.807	0.0143933
941.885	0.0142751
941.963	0.0145668
942.041	0.0144402
942.119	0.0143870
942.197	0.0143209
942.275	0.0143447
942.353	0.0142201
942.432	0.0144936
942.510	0.0143755
942.588	0.0143828
942.666	0.0144481
942.744	0.0144064
942.822	0.0144260
942.900	0.0145700
942.978	0.0145944
943.057	0.0144814
943.135	0.0145086
943.213	0.0145296
943.291	0.0145881
943.369	0.0144298
943.447	0.0146352
943.525	0.0144840
943.603	0.0145226
943.682	0.0145743
943.760	0.0146095
943.838	0.0146402
943.916	0.0146626
943.994	0.0143931
944.072	0.0143850
944.150	0.0144791
944.228	0.0146042
944.307	0.0144057
944.385	0.0145455
944.463	0.0144778
944.541	0.0144461
944.619	0.0145660
944.697	0.0145532
944.775	0.0145406
944.853	0.0146302
944.932	0.0146925
945.010	0.0145115
945.088	0.0145824
945.166	0.0146933
945.244	0.0144969
945.322	0.0145620
945.400	0.0144061
945.478	0.0145609
945.557	0.0147729
945.635	0.0146466
945.713	0.0144640
945.791	0.0144377
945.869	0.0144321
945.947	0.0144567
946.025	0.0145134
946.103	0.0145105
946.182	0.0143514
946.260	0.0146143
946.338	0.0146387
946.416	0.0145930
946.494	0.0144511
946.572	0.0146495
946.650	0.0146073
946.728	0.0145600
946.807	0.0146333
946.885	0.0146259
946.963	0.0146079
947.041	0.0146221
947.119	0.0146355
947.197	0.0146535
947.275	0.0146189
947.353	0.0145413
947.432	0.0145387
947.510	0.0146954
947.588	0.0147918
947.666	0.0145478
947.744	0.0145594
947.822	0.0146226
947.900	0.0146307
947.978	0.0145639
948.057	0.0145812
948.135	0.0146868
948.213	0.0146841
948.291	0.0147403
948.369	0.0146181
948.447	0.0146128
948.525	0.0146313
948.603	0.0146706
948.682	0.0146973
948.760	0.0146998
948.838	0.0145806
948.916	0.0146766
948.994	0.0146040
949.072	0.0146404
949.150	0.0146204
949.228	0.0145366
949.307	0.0144704
949.385	0.0145480
949.463	0.0146371
949.541	0.0145348
949.619	0.0146185
949.697	0.0145632
949.775	0.0144580
949.853	0.0145109
949.932	0.0144238
950.010	0.0145692
950.088	0.0145019
950.166	0.0144241
950.244	0.0144158
950.322	0.0144714
950.400	0.0144471
950.478	0.0143827
950.557	0.0143515
950.635	0.0143114
950.713	0.0144509
950.791	0.0145610
950.869	0.0144796
950.947	0.0144460
951.025	0.0144187
951.103	0.0145564
951.182	0.0145258
951.260	0.0146921
951.338	0.0145759
951.416	0.0145128
951.494	0.0147060
951.572	0.0146873
951.650	0.0145563
951.728	0.0145862
951.807	0.0146461
951.885	0.0144869
951.963	0.0144845
952.041	0.0146460
952.119	0.0145632
952.197	0.0144294
952.275	0.0146503
952.353	0.0145267
952.432	0.0145087
952.510	0.0145092
952.588	0.0144972
952.666	0.0145036
952.744	0.0144638
952.822	0.0144952
952.900	0.0146054
952.978	0.0143637
953.057	0.0143461
953.135	0.0144561
953.213	0.0143266
953.291	0.0144642
953.369	0.0145162
953.447	0.0142325
953.525	0.0144050
953.603	0.0145017
953.682	0.0144514
953.760	0.0144312
953.838	0.0143853
953.916	0.0142761
953.994	0.0143307
954.072	0.0141451
954.150	0.0142769
954.228	0.0142489
954.307	0.0142264
954.385	0.0142895
954.463	0.0142043
954.541	0.0141843
954.619	0.0142136
954.697	0.0142738
954.775	0.0141955
954.853	0.0142268
954.932	0.0139429
955.010	0.0140945
955.088	0.0141405
955.166	0.0140450
955.244	0.0141227
955.322	0.0139867
955.400	0.0141650
955.478	0.0141580
955.557	0.0142401
955.635	0.0140874
955.713	0.0140427
955.791	0.0141587
955.869	0.0141528
955.947	0.0143529
956.025	0.0140775
956.103	0.0139992
956.182	0.0142409
956.260	0.0141695
956.338	0.0141717
956.416	0.0141238
956.494	0.0140953
956.572	0.0140895
956.650	0.0140789
956.728	0.0142462
956.807	0.0142111
956.885	0.0140648
956.963	0.0142474
957.041	0.0143150
957.119	0.0142428
957.197	0.0142334
957.275	0.0142776
957.353	0.0143557
957.432	0.0143978
957.510	0.0143779
957.588	0.0143717
957.666	0.0144106
957.744	0.0143903
957.822	0.0145514
957.900	0.0145387
957.978	0.0145267
958.057	0.0143635
958.135	0.0144876
958.213	0.0146912
958.291	0.0144635
958.369	0.0145433
958.447	0.0145076
958.525	0.0144675
958.603	0.0145082
958.682	0.0144827
958.760	0.0144547
958.838	0.0144942
958.916	0.0145970
958.994	0.0145611
959.072	0.0144089
959.150	0.0145489
959.228	0.0144618
959.307	0.0145216
959.385	0.0145995
959.463	0.0145850
959.541	0.0144762
959.619	0.0144118
959.697	0.0145803
959.775	0.0144134
959.853	0.0145210
959.932	0.0145013
960.010	0.0144053
960.088	0.0144110
960.166	0.0144707
960.244	0.0142862
960.322	0.0144495
960.400	0.0145422
960.478	0.0141832
960.557	0.0144019
960.635	0.0144698
960.713	0.0144072
960.791	0.0143739
960.869	0.0143399
960.947	0.0143985
961.025	0.0145315
961.103	0.0143156
961.182	0.0143925
961.260	0.0143672
961.338	0.0142868
961.416	0.0143414
961.494	0.0144977
961.572	0.0144895
961.650	0.0144187
961.728	0.0146002
961.807	0.0145175
961.885	0.0145376
961.963	0.0145267
962.041	0.0144254
962.119	0.0144276
962.197	0.0144022
962.275	0.0145114
962.353	0.0145724
962.432	0.0145509
962.510	0.0145009
962.588	0.0145361
962.666	0.0145436
962.744	0.0145621
962.822	0.0146059
962.900	0.0145747
962.978	0.0144773
963.057	0.0145918
963.135	0.0145707
963.213	0.0146007
963.291	0.0145633
963.369	0.0145247
963.447	0.0144891
963.525	0.0144945
963.603	0.0146088
963.682	0.0144634
963.760	0.0143860
963.838	0.0144346
963.916	0.0143095
963.994	0.0143301
964.072	0.0142043
964.150	0.0142867
964.228	0.0142431
964.307	0.0141628
964.385	0.0142980
964.463	0.0141663
964.541	0.0143056
964.619	0.0141839
964.697	0.0140564
964.775	0.0142125
964.853	0.0141814
964.932	0.0141160
965.010	0.0141563
965.088	0.0141603
965.166	0.0141253
965.244	0.0140730
965.322	0.0143723
965.400	0.0142785
965.478	0.0142243
965.557	0.0142558
965.635	0.0141027
965.713	0.0144763
965.791	0.0144530
965.869	0.0143063
965.947	0.0144566
966.025	0.0145006
966.103	0.0144853
966.182	0.0144209
966.260	0.0145396
966.338	0.0145352
966.416	0.0145471
966.494	0.0145586
966.572	0.0146030
966.650	0.0146773
966.728	0.0145892
966.807	0.0146162
966.885	0.0145356
966.963	0.0146057
967.041	0.0144937
967.119	0.0145598
967.197	0.0145921
967.275	0.0146559
967.353	0.0146925
967.432	0.0144933
967.510	0.0146308
967.588	0.0146613
967.666	0.0146491
967.744	0.0146360
967.822	0.0146950
967.900	0.0146654
967.978	0.0144923
968.057	0.0146777
968.135	0.0145942
968.213	0.0144556
968.291	0.0145119
968.369	0.0144927
968.447	0.0145840
968.525	0.0143925
968.603	0.0144041
968.682	0.0145027
968.760	0.0142983
968.838	0.0142665
968.916	0.0142725
968.994	0.0144672
969.072	0.0143701
969.150	0.0142994
969.228	0.0143845
969.307	0.0144086
969.385	0.0144952
969.463	0.0143754
969.541	0.0143183
969.619	0.0143223
969.697	0.0143325
969.775	0.0144580
969.853	0.0144279
969.932	0.0144440
