05/14/2022	19:35:51	Ver.	4.1	UNKNOWN
Optical Delay	650.009681	Delta X		0.078125	Sweeps	1	Scan Rate	0/0
Coordinates	Axis 1	NaN	Axis 2	NaN	Axis 3	NaN	Axis 4	NaN	Axis 5	NaN	Axis 6	0.000000
TX Power	0.000000	RX Power	0.000000

650.010	0.0141769
650.088	0.0142585
650.166	0.0143382
650.244	0.0142715
650.322	0.0143737
650.400	0.0142987
650.478	0.0144151
650.557	0.0144798
650.635	0.0143806
650.713	0.0144537
650.791	0.0144229
650.869	0.0144997
650.947	0.0144389
651.025	0.0142500
651.103	0.0144518
651.182	0.0143962
651.260	0.0142768
651.338	0.0143340
651.416	0.0143495
651.494	0.0143568
651.572	0.0143356
651.650	0.0143484
651.728	0.0143707
651.807	0.0143035
651.885	0.0142804
651.963	0.0143268
652.041	0.0143681
652.119	0.0142100
652.197	0.0141901
652.275	0.0141110
652.353	0.0143350
652.432	0.0142886
652.510	0.0142020
652.588	0.0142601
652.666	0.0142397
652.744	0.0142538
652.822	0.0143571
652.900	0.0141765
652.978	0.0144002
653.057	0.0142831
653.135	0.0144569
653.213	0.0142905
653.291	0.0143121
653.369	0.0143854
653.447	0.0144489
653.525	0.0143385
653.603	0.0143066
653.682	0.0143752
653.760	0.0144170
653.838	0.0143184
653.916	0.0142850
653.994	0.0143690
654.072	0.0143020
654.150	0.0143734
654.228	0.0143591
654.307	0.0141734
654.385	0.0141857
654.463	0.0142963
654.541	0.0143060
654.619	0.0141335
654.697	0.0143224
654.775	0.0142380
654.853	0.0140797
654.932	0.0142496
655.010	0.0141438
655.088	0.0141800
655.166	0.0140912
655.244	0.0140311
655.322	0.0142507
655.400	0.0142357
655.478	0.0142699
655.557	0.0143347
655.635	0.0141108
655.713	0.0142838
655.791	0.0143359
655.869	0.0143345
655.947	0.0142366
656.025	0.0143559
656.103	0.0144904
656.182	0.0144196
656.260	0.0143540
656.338	0.0144209
656.416	0.0144416
656.494	0.0144495
656.572	0.0144101
656.650	0.0141525
656.728	0.0141989
656.807	0.0143122
656.885	0.0141638
656.963	0.0141554
657.041	0.0141323
657.119	0.0142375
657.197	0.0141152
657.275	0.0140881
657.353	0.0142876
657.432	0.0142802
657.510	0.0143404
657.588	0.0144182
657.666	0.0142648
657.744	0.0144112
657.822	0.0144270
657.900	0.0143871
657.978	0.0144474
658.057	0.0143821
658.135	0.0143629
658.213	0.0143639
658.291	0.0144340
658.369	0.0144118
658.447	0.0143581
658.525	0.0143642
658.603	0.0143991
658.682	0.0144232
658.760	0.0143547
658.838	0.0142490
658.916	0.0144888
658.994	0.0142998
659.072	0.0144584
659.150	0.0144555
659.228	0.0143514
659.307	0.0146046
659.385	0.0146478
659.463	0.0144844
659.541	0.0145764
659.619	0.0146747
659.697	0.0146272
659.775	0.0145421
659.853	0.0146428
659.932	0.0146886
660.010	0.0146582
660.088	0.0147465
660.166	0.0146231
660.244	0.0144120
660.322	0.0144058
660.400	0.0143525
660.478	0.0143047
660.557	0.0142023
660.635	0.0140076
660.713	0.0138683
660.791	0.0138141
660.869	0.0137503
660.947	0.0137450
661.025	0.0136690
661.103	0.0137590
661.182	0.0137458
661.260	0.0138810
661.338	0.0139455
661.416	0.0140286
661.494	0.0140865
661.572	0.0140885
661.650	0.0142394
661.728	0.0143498
661.807	0.0145809
661.885	0.0145165
661.963	0.0146037
662.041	0.0147314
662.119	0.0149754
662.197	0.0149632
662.275	0.0151396
662.353	0.0151414
662.432	0.0153256
662.510	0.0152850
662.588	0.0155061
662.666	0.0155750
662.744	0.0154853
662.822	0.0154712
662.900	0.0155724
662.978	0.0153329
663.057	0.0153241
663.135	0.0152328
663.213	0.0148670
663.291	0.0147777
663.369	0.0145962
663.447	0.0144492
663.525	0.0142136
663.603	0.0139369
663.682	0.0136092
663.760	0.0132872
663.838	0.0131038
663.916	0.0129434
663.994	0.0127606
664.072	0.0124957
664.150	0.0124215
664.228	0.0122787
664.307	0.0121416
664.385	0.0122663
664.463	0.0121216
664.541	0.0121324
664.619	0.0122465
664.697	0.0123507
664.775	0.0125802
664.853	0.0124540
664.932	0.0127663
665.010	0.0131244
665.088	0.0134516
665.166	0.0135818
665.244	0.0141058
665.322	0.0144599
665.400	0.0146500
665.478	0.0149712
665.557	0.0153374
665.635	0.0156474
665.713	0.0159062
665.791	0.0164770
665.869	0.0165012
665.947	0.0167302
666.025	0.0168816
666.103	0.0170557
666.182	0.0171837
666.260	0.0170648
666.338	0.0168944
666.416	0.0170012
666.494	0.0167173
666.572	0.0164175
666.650	0.0161870
666.728	0.0157272
666.807	0.0152693
666.885	0.0147523
666.963	0.0142869
667.041	0.0136868
667.119	0.0132065
667.197	0.0127576
667.275	0.0122170
667.353	0.0118176
667.432	0.0113825
667.510	0.0112069
667.588	0.0108784
667.666	0.0107059
667.744	0.0106502
667.822	0.0105620
667.900	0.0106527
667.978	0.0107321
668.057	0.0107381
668.135	0.0109157
668.213	0.0111834
668.291	0.0114333
668.369	0.0117641
668.447	0.0123637
668.525	0.0128600
668.603	0.0132333
668.682	0.0137647
668.760	0.0145207
668.838	0.0150796
668.916	0.0156051
668.994	0.0163455
669.072	0.0168684
669.150	0.0173517
669.228	0.0176578
669.307	0.0181257
669.385	0.0185452
669.463	0.0185995
669.541	0.0188744
669.619	0.0190112
669.697	0.0187157
669.775	0.0185864
669.853	0.0184648
669.932	0.0183568
670.010	0.0178278
670.088	0.0173876
670.166	0.0170970
670.244	0.0165234
670.322	0.0159955
670.400	0.0154362
670.478	0.0147796
670.557	0.0141810
670.635	0.0136036
670.713	0.0128625
670.791	0.0122919
670.869	0.0117853
670.947	0.0113095
671.025	0.0106925
671.103	0.0104877
671.182	0.0101353
671.260	0.00958618
671.338	0.00959862
671.416	0.00958885
671.494	0.00970207
671.572	0.00979065
671.650	0.0101872
671.728	0.0102239
671.807	0.0106994
671.885	0.0112529
671.963	0.0115208
672.041	0.0119041
672.119	0.0124985
672.197	0.0130530
672.275	0.0134719
672.353	0.0142120
672.432	0.0147381
672.510	0.0153446
672.588	0.0158424
672.666	0.0163153
672.744	0.0168517
672.822	0.0169061
672.900	0.0174140
672.978	0.0175347
673.057	0.0176688
673.135	0.0178826
673.213	0.0176671
673.291	0.0176429
673.369	0.0174622
673.447	0.0173640
673.525	0.0173718
673.603	0.0169843
673.682	0.0167797
673.760	0.0164267
673.838	0.0162457
673.916	0.0158039
673.994	0.0155138
674.072	0.0152661
674.150	0.0151578
674.228	0.0148418
674.307	0.0145210
674.385	0.0140628
674.463	0.0138567
674.541	0.0135793
674.619	0.0134807
674.697	0.0134368
674.775	0.0133450
674.853	0.0132119
674.932	0.0134283
675.010	0.0134099
675.088	0.0133779
675.166	0.0132412
675.244	0.0134408
675.322	0.0136298
675.400	0.0135807
675.478	0.0136250
675.557	0.0137608
675.635	0.0135687
675.713	0.0132800
675.791	0.0132552
675.869	0.0131413
675.947	0.0128990
676.025	0.0127065
676.103	0.0125005
676.182	0.0123757
676.260	0.0121738
676.338	0.0120324
676.416	0.0119751
676.494	0.0119594
676.572	0.0120493
676.650	0.0120021
676.728	0.0119630
676.807	0.0121552
676.885	0.0123371
676.963	0.0124152
677.041	0.0126758
677.119	0.0130616
677.197	0.0132149
677.275	0.0135926
677.353	0.0138351
677.432	0.0141354
677.510	0.0145370
677.588	0.0148991
677.666	0.0153537
677.744	0.0158366
677.822	0.0162104
677.900	0.0165746
677.978	0.0168044
678.057	0.0171763
678.135	0.0174738
678.213	0.0176277
678.291	0.0177451
678.369	0.0180228
678.447	0.0180520
678.525	0.0179199
678.603	0.0177881
678.682	0.0176395
678.760	0.0174487
678.838	0.0171168
678.916	0.0167358
678.994	0.0163536
679.072	0.0158904
679.150	0.0155749
679.228	0.0151889
679.307	0.0146609
679.385	0.0142892
679.463	0.0140334
679.541	0.0133624
679.619	0.0130447
679.697	0.0125611
679.775	0.0122997
679.853	0.0120020
679.932	0.0117025
680.010	0.0114419
680.088	0.0112112
680.166	0.0110371
680.244	0.0109734
680.322	0.0109199
680.400	0.0107301
680.478	0.0107018
680.557	0.0110787
680.635	0.0113055
680.713	0.0113432
680.791	0.0115926
680.869	0.0118475
680.947	0.0121078
681.025	0.0125297
681.103	0.0126427
681.182	0.0130357
681.260	0.0132980
681.338	0.0134861
681.416	0.0138581
681.494	0.0140903
681.572	0.0142261
681.650	0.0146069
681.728	0.0149081
681.807	0.0150735
681.885	0.0154142
681.963	0.0155882
682.041	0.0157958
682.119	0.0159489
682.197	0.0160656
682.275	0.0162653
682.353	0.0164259
682.432	0.0166036
682.510	0.0167617
682.588	0.0167120
682.666	0.0167220
682.744	0.0167702
682.822	0.0166246
682.900	0.0166234
682.978	0.0166792
683.057	0.0165589
683.135	0.0162650
683.213	0.0161584
683.291	0.0159383
683.369	0.0156982
683.447	0.0154165
683.525	0.0151063
683.603	0.0147587
683.682	0.0145131
683.760	0.0142773
683.838	0.0140093
683.916	0.0137834
683.994	0.0135030
684.072	0.0132316
684.150	0.0129954
684.228	0.0128525
684.307	0.0127082
684.385	0.0125735
684.463	0.0124161
684.541	0.0123595
684.619	0.0124913
684.697	0.0124460
684.775	0.0122941
684.853	0.0121107
684.932	0.0122240
685.010	0.0123655
685.088	0.0123581
685.166	0.0125717
685.244	0.0128987
685.322	0.0129034
685.400	0.0132285
685.478	0.0135165
685.557	0.0140397
685.635	0.0142921
685.713	0.0144812
685.791	0.0148345
685.869	0.0151154
685.947	0.0154410
686.025	0.0154952
686.103	0.0155361
686.182	0.0156817
686.260	0.0156532
686.338	0.0156080
686.416	0.0154565
686.494	0.0154451
686.572	0.0153980
686.650	0.0153117
686.728	0.0153460
686.807	0.0152963
686.885	0.0152057
686.963	0.0152657
687.041	0.0149937
687.119	0.0151044
687.197	0.0151813
687.275	0.0149023
687.353	0.0148651
687.432	0.0147890
687.510	0.0144890
687.588	0.0143390
687.666	0.0141708
687.744	0.0140822
687.822	0.0139597
687.900	0.0137221
687.978	0.0134798
688.057	0.0135229
688.135	0.0135364
688.213	0.0134341
688.291	0.0133723
688.369	0.0134399
688.447	0.0134592
688.525	0.0133064
688.603	0.0134382
688.682	0.0135214
688.760	0.0135226
688.838	0.0135371
688.916	0.0135564
688.994	0.0137051
689.072	0.0139598
689.150	0.0139336
689.228	0.0139886
689.307	0.0141726
689.385	0.0142194
689.463	0.0143413
689.541	0.0146578
689.619	0.0147065
689.697	0.0148102
689.775	0.0148910
689.853	0.0149590
689.932	0.0148965
690.010	0.0150831
690.088	0.0152849
690.166	0.0151466
690.244	0.0152333
690.322	0.0152690
690.400	0.0150320
690.478	0.0151591
690.557	0.0151080
690.635	0.0151985
690.713	0.0150300
690.791	0.0149894
690.869	0.0148712
690.947	0.0149199
691.025	0.0146741
691.103	0.0144136
691.182	0.0145346
691.260	0.0143378
691.338	0.0141747
691.416	0.0140520
691.494	0.0139796
691.572	0.0138802
691.650	0.0139552
691.728	0.0138910
691.807	0.0136572
691.885	0.0136433
691.963	0.0136296
692.041	0.0136835
692.119	0.0137239
692.197	0.0135703
692.275	0.0135858
692.353	0.0136449
692.432	0.0135480
692.510	0.0134291
692.588	0.0135632
692.666	0.0139366
692.744	0.0137897
692.822	0.0139169
692.900	0.0140372
692.978	0.0140736
693.057	0.0141257
693.135	0.0142240
693.213	0.0142756
693.291	0.0144865
693.369	0.0145994
693.447	0.0147500
693.525	0.0146214
693.603	0.0146977
693.682	0.0148849
693.760	0.0146503
693.838	0.0146758
693.916	0.0146703
693.994	0.0146182
694.072	0.0146382
694.150	0.0146459
694.228	0.0143609
694.307	0.0143885
694.385	0.0142490
694.463	0.0142459
694.541	0.0141045
694.619	0.0140519
694.697	0.0139614
694.775	0.0139197
694.853	0.0139024
694.932	0.0141091
695.010	0.0139588
695.088	0.0138781
695.166	0.0139531
695.244	0.0141091
695.322	0.0140115
695.400	0.0140672
695.478	0.0141032
695.557	0.0142868
695.635	0.0143575
695.713	0.0144619
695.791	0.0146848
695.869	0.0145831
695.947	0.0148190
696.025	0.0147112
696.103	0.0146650
696.182	0.0146522
696.260	0.0149003
696.338	0.0147837
696.416	0.0145626
696.494	0.0148066
696.572	0.0148088
696.650	0.0146407
696.728	0.0145328
696.807	0.0144829
696.885	0.0145013
696.963	0.0145419
697.041	0.0144419
697.119	0.0143465
697.197	0.0144183
697.275	0.0142989
697.353	0.0143917
697.432	0.0143768
697.510	0.0143345
697.588	0.0144362
697.666	0.0145547
697.744	0.0145691
697.822	0.0144521
697.900	0.0145385
697.978	0.0145837
698.057	0.0147455
698.135	0.0147944
698.213	0.0147310
698.291	0.0148873
698.369	0.0149136
698.447	0.0149237
698.525	0.0150202
698.603	0.0149854
698.682	0.0148788
698.760	0.0148299
698.838	0.0147585
698.916	0.0146124
698.994	0.0146452
699.072	0.0144482
699.150	0.0142634
699.228	0.0141645
699.307	0.0138129
699.385	0.0137888
699.463	0.0135412
699.541	0.0133749
699.619	0.0131459
699.697	0.0128873
699.775	0.0126926
699.853	0.0125259
699.932	0.0121468
700.010	0.0121440
700.088	0.0117464
700.166	0.0117405
700.244	0.0117730
700.322	0.0116213
700.400	0.0115255
700.478	0.0116679
700.557	0.0118261
700.635	0.0119846
700.713	0.0120502
700.791	0.0123886
700.869	0.0126948
700.947	0.0129536
701.025	0.0135313
701.103	0.0138726
701.182	0.0143097
701.260	0.0146418
701.338	0.0150135
701.416	0.0154469
701.494	0.0159543
701.572	0.0162666
701.650	0.0166293
701.728	0.0168423
701.807	0.0171024
701.885	0.0173737
701.963	0.0175657
702.041	0.0176279
702.119	0.0177619
702.197	0.0179540
702.275	0.0180502
702.353	0.0179882
702.432	0.0177702
702.510	0.0177157
702.588	0.0175083
702.666	0.0174727
702.744	0.0172519
702.822	0.0169238
702.900	0.0164769
702.978	0.0160699
703.057	0.0157353
703.135	0.0152798
703.213	0.0148934
703.291	0.0143365
703.369	0.0139369
703.447	0.0135319
703.525	0.0130277
703.603	0.0124917
703.682	0.0121984
703.760	0.0116905
703.838	0.0114822
703.916	0.0112063
703.994	0.0109545
704.072	0.0105972
704.150	0.0106431
704.228	0.0105638
704.307	0.0105016
704.385	0.0105306
704.463	0.0107658
704.541	0.0107671
704.619	0.0109391
704.697	0.0111738
704.775	0.0115657
704.853	0.0118777
704.932	0.0121333
705.010	0.0123203
705.088	0.0126411
705.166	0.0130662
705.244	0.0134711
705.322	0.0136983
705.400	0.0141552
705.478	0.0143191
705.557	0.0145013
705.635	0.0150424
705.713	0.0151143
705.791	0.0153265
705.869	0.0155994
705.947	0.0157245
706.025	0.0157336
706.103	0.0158138
706.182	0.0157092
706.260	0.0158194
706.338	0.0159515
706.416	0.0157758
706.494	0.0157611
706.572	0.0156926
706.650	0.0155505
706.728	0.0155059
706.807	0.0155186
706.885	0.0153406
706.963	0.0152138
707.041	0.0152032
707.119	0.0148891
707.197	0.0147419
707.275	0.0147343
707.353	0.0149155
707.432	0.0145997
707.510	0.0145790
707.588	0.0145733
707.666	0.0145745
707.744	0.0144025
707.822	0.0142732
707.900	0.0142757
707.978	0.0143428
708.057	0.0143295
708.135	0.0140855
708.213	0.0141563
708.291	0.0142143
708.369	0.0142392
708.447	0.0141401
708.525	0.0142137
708.603	0.0142391
708.682	0.0142166
708.760	0.0142437
708.838	0.0143665
708.916	0.0143541
708.994	0.0141267
709.072	0.0142456
709.150	0.0142044
709.228	0.0142885
709.307	0.0141737
709.385	0.0141053
709.463	0.0140260
709.541	0.0138393
709.619	0.0138452
709.697	0.0137901
709.775	0.0136418
709.853	0.0136638
709.932	0.0136102
710.010	0.0136366
710.088	0.0136472
710.166	0.0135004
710.244	0.0134296
710.322	0.0135102
710.400	0.0134424
710.478	0.0133875
710.557	0.0132828
710.635	0.0132542
710.713	0.0131334
710.791	0.0130982
710.869	0.0131840
710.947	0.0132220
711.025	0.0134163
711.103	0.0134782
711.182	0.0135842
711.260	0.0136303
711.338	0.0138586
711.416	0.0139377
711.494	0.0142017
711.572	0.0143336
711.650	0.0144830
711.728	0.0148035
711.807	0.0147314
711.885	0.0147202
711.963	0.0147456
712.041	0.0148864
712.119	0.0149411
712.197	0.0147821
712.275	0.0146442
712.353	0.0145889
712.432	0.0146929
712.510	0.0145206
712.588	0.0144606
712.666	0.0143618
712.744	0.0141643
712.822	0.0140762
712.900	0.0139574
712.978	0.0139971
713.057	0.0139558
713.135	0.0139025
713.213	0.0137457
713.291	0.0138104
713.369	0.0138408
713.447	0.0138937
713.525	0.0139180
713.603	0.0141149
713.682	0.0143715
713.760	0.0144201
713.838	0.0145762
713.916	0.0146295
713.994	0.0148241
714.072	0.0149232
714.150	0.0152080
714.228	0.0151317
714.307	0.0152384
714.385	0.0153416
714.463	0.0154669
714.541	0.0155574
714.619	0.0154935
714.697	0.0156358
714.775	0.0155914
714.853	0.0155699
714.932	0.0154431
715.010	0.0153735
715.088	0.0154572
715.166	0.0153024
715.244	0.0153544
715.322	0.0152696
715.400	0.0151550
715.478	0.0150976
715.557	0.0150787
715.635	0.0149028
715.713	0.0147768
715.791	0.0146922
715.869	0.0146085
715.947	0.0143997
716.025	0.0143060
716.103	0.0140755
716.182	0.0139391
716.260	0.0139529
716.338	0.0137357
716.416	0.0135745
716.494	0.0134809
716.572	0.0134541
716.650	0.0132148
716.728	0.0131069
716.807	0.0130248
716.885	0.0130494
716.963	0.0130029
717.041	0.0129131
717.119	0.0128516
717.197	0.0128956
717.275	0.0129523
717.353	0.0130342
717.432	0.0132027
717.510	0.0133040
717.588	0.0132838
717.666	0.0134987
717.744	0.0136929
717.822	0.0136619
717.900	0.0137534
717.978	0.0137676
718.057	0.0140298
718.135	0.0140137
718.213	0.0141441
718.291	0.0140533
718.369	0.0144078
718.447	0.0143967
718.525	0.0143570
718.603	0.0144077
718.682	0.0144370
718.760	0.0145569
718.838	0.0144311
718.916	0.0146375
718.994	0.0146542
719.072	0.0146849
719.150	0.0147697
719.228	0.0149259
719.307	0.0149375
719.385	0.0150385
719.463	0.0151068
719.541	0.0151460
719.619	0.0152480
719.697	0.0152860
719.775	0.0153438
719.853	0.0153211
719.932	0.0156064
720.010	0.0155686
720.088	0.0155207
720.166	0.0156351
720.244	0.0156593
720.322	0.0156242
720.400	0.0155111
720.478	0.0153662
720.557	0.0154704
720.635	0.0152888
720.713	0.0151772
720.791	0.0149767
720.869	0.0147317
720.947	0.0148301
721.025	0.0146999
721.103	0.0144915
721.182	0.0143555
721.260	0.0142493
721.338	0.0141702
721.416	0.0140498
721.494	0.0140576
721.572	0.0139608
721.650	0.0139349
721.728	0.0138519
721.807	0.0137273
721.885	0.0138280
721.963	0.0136586
722.041	0.0135257
722.119	0.0135928
722.197	0.0134406
722.275	0.0135583
722.353	0.0134689
722.432	0.0135184
722.510	0.0135024
722.588	0.0133799
722.666	0.0133517
722.744	0.0133356
722.822	0.0133717
722.900	0.0132403
722.978	0.0132404
723.057	0.0131998
723.135	0.0131371
723.213	0.0131136
723.291	0.0130386
723.369	0.0130026
723.447	0.0130741
723.525	0.0131580
723.603	0.0131144
723.682	0.0131921
723.760	0.0132564
723.838	0.0135362
723.916	0.0133443
723.994	0.0136192
724.072	0.0136884
724.150	0.0139220
724.228	0.0140780
724.307	0.0141796
724.385	0.0143559
724.463	0.0144428
724.541	0.0145539
724.619	0.0146725
724.697	0.0147810
724.775	0.0149775
724.853	0.0150311
724.932	0.0152049
725.010	0.0152065
725.088	0.0151818
725.166	0.0152763
725.244	0.0152454
725.322	0.0153009
725.400	0.0154623
725.478	0.0154025
725.557	0.0153099
725.635	0.0152614
725.713	0.0151283
725.791	0.0151408
725.869	0.0152083
725.947	0.0151241
726.025	0.0150309
726.103	0.0149413
726.182	0.0148524
726.260	0.0147672
726.338	0.0146709
726.416	0.0148584
726.494	0.0146588
726.572	0.0145409
726.650	0.0145576
726.728	0.0145457
726.807	0.0142783
726.885	0.0143134
726.963	0.0142731
727.041	0.0141299
727.119	0.0141825
727.197	0.0140396
727.275	0.0138710
727.353	0.0136884
727.432	0.0138377
727.510	0.0136230
727.588	0.0135503
727.666	0.0134007
727.744	0.0134600
727.822	0.0134802
727.900	0.0136763
727.978	0.0136462
728.057	0.0135169
728.135	0.0134734
728.213	0.0137027
728.291	0.0136209
728.369	0.0137315
728.447	0.0138518
728.525	0.0138499
728.603	0.0139067
728.682	0.0140541
728.760	0.0140092
728.838	0.0141432
728.916	0.0141061
728.994	0.0142335
729.072	0.0142921
729.150	0.0143974
729.228	0.0142542
729.307	0.0142202
729.385	0.0143404
729.463	0.0142143
729.541	0.0142177
729.619	0.0142279
729.697	0.0139809
729.775	0.0139988
729.853	0.0139661
729.932	0.0139517
730.010	0.0138911
730.088	0.0138792
730.166	0.0138311
730.244	0.0138105
730.322	0.0137922
730.400	0.0138253
730.478	0.0138745
730.557	0.0137856
730.635	0.0138289
730.713	0.0138425
730.791	0.0140656
730.869	0.0141119
730.947	0.0139353
731.025	0.0141588
731.103	0.0141649
731.182	0.0141717
731.260	0.0142048
731.338	0.0141606
731.416	0.0141635
731.494	0.0142761
731.572	0.0141927
731.650	0.0141381
731.728	0.0142191
731.807	0.0142956
731.885	0.0143218
731.963	0.0143099
732.041	0.0144228
732.119	0.0143256
732.197	0.0145687
732.275	0.0143987
732.353	0.0146620
732.432	0.0146015
732.510	0.0146705
732.588	0.0147741
732.666	0.0147816
732.744	0.0149891
732.822	0.0149444
732.900	0.0147988
732.978	0.0147583
733.057	0.0149612
733.135	0.0149865
733.213	0.0149663
733.291	0.0149702
733.369	0.0147910
733.447	0.0147180
733.525	0.0148330
733.603	0.0148428
733.682	0.0146388
733.760	0.0147874
733.838	0.0146181
733.916	0.0144884
733.994	0.0144620
734.072	0.0141486
734.150	0.0141063
734.228	0.0141956
734.307	0.0140510
734.385	0.0139373
734.463	0.0138393
734.541	0.0138654
734.619	0.0138041
734.697	0.0136169
734.775	0.0136686
734.853	0.0138209
734.932	0.0136433
735.010	0.0136969
735.088	0.0138516
735.166	0.0138628
735.244	0.0138441
735.322	0.0140045
735.400	0.0141547
735.478	0.0140882
735.557	0.0141987
735.635	0.0141959
735.713	0.0142202
735.791	0.0144341
735.869	0.0144243
735.947	0.0145657
736.025	0.0144480
736.103	0.0143301
736.182	0.0144292
736.260	0.0144612
736.338	0.0143643
736.416	0.0143940
736.494	0.0145154
736.572	0.0143121
736.650	0.0142420
736.728	0.0141055
736.807	0.0141695
736.885	0.0141494
736.963	0.0141033
737.041	0.0139903
737.119	0.0142497
737.197	0.0142363
737.275	0.0142329
737.353	0.0142599
737.432	0.0142157
737.510	0.0141630
737.588	0.0143024
737.666	0.0143356
737.744	0.0144617
737.822	0.0143832
737.900	0.0141943
737.978	0.0142815
738.057	0.0143406
738.135	0.0143239
738.213	0.0143099
738.291	0.0143117
738.369	0.0143542
738.447	0.0143987
738.525	0.0142620
738.603	0.0143253
738.682	0.0143308
738.760	0.0143288
738.838	0.0144013
738.916	0.0142371
738.994	0.0144157
739.072	0.0144719
739.150	0.0144906
739.228	0.0144193
739.307	0.0145019
739.385	0.0145040
739.463	0.0144476
739.541	0.0144788
739.619	0.0144680
739.697	0.0145716
739.775	0.0144032
739.853	0.0144068
739.932	0.0144108
740.010	0.0144054
740.088	0.0143645
740.166	0.0143404
740.244	0.0143067
740.322	0.0142702
740.400	0.0142912
740.478	0.0142293
740.557	0.0141630
740.635	0.0141241
740.713	0.0141154
740.791	0.0139814
740.869	0.0141029
740.947	0.0141224
741.025	0.0140807
741.103	0.0140045
741.182	0.0140171
741.260	0.0141686
741.338	0.0140533
741.416	0.0141002
741.494	0.0141976
741.572	0.0142312
741.650	0.0141402
741.728	0.0142394
741.807	0.0143014
741.885	0.0142873
741.963	0.0141516
742.041	0.0142614
742.119	0.0143478
742.197	0.0142394
742.275	0.0143735
742.353	0.0143154
742.432	0.0143428
742.510	0.0143626
742.588	0.0141605
742.666	0.0142490
742.744	0.0142905
742.822	0.0142935
742.900	0.0142230
742.978	0.0143027
743.057	0.0143015
743.135	0.0142659
743.213	0.0142503
743.291	0.0141883
743.369	0.0141721
743.447	0.0142548
743.525	0.0143719
743.603	0.0143116
743.682	0.0140743
743.760	0.0141204
743.838	0.0141305
743.916	0.0141147
743.994	0.0141940
744.072	0.0141052
744.150	0.0140339
744.228	0.0141055
744.307	0.0140205
744.385	0.0140070
744.463	0.0140546
744.541	0.0141000
744.619	0.0140570
744.697	0.0139395
744.775	0.0139024
744.853	0.0139827
744.932	0.0139256
745.010	0.0139057
745.088	0.0138766
745.166	0.0138284
745.244	0.0138563
745.322	0.0138424
745.400	0.0139430
745.478	0.0138670
745.557	0.0137027
745.635	0.0137251
745.713	0.0139085
745.791	0.0138915
745.869	0.0139458
745.947	0.0140175
746.025	0.0141261
746.103	0.0141298
746.182	0.0140488
746.260	0.0141874
746.338	0.0140775
746.416	0.0142345
746.494	0.0141878
746.572	0.0142892
746.650	0.0142701
746.728	0.0142556
746.807	0.0142307
746.885	0.0142471
746.963	0.0143825
747.041	0.0143038
747.119	0.0141836
747.197	0.0143073
747.275	0.0141524
747.353	0.0142323
747.432	0.0142651
747.510	0.0143732
747.588	0.0142741
747.666	0.0142114
747.744	0.0143624
747.822	0.0142239
747.900	0.0141711
747.978	0.0143569
748.057	0.0144347
748.135	0.0143642
748.213	0.0144523
748.291	0.0145259
748.369	0.0144069
748.447	0.0144434
748.525	0.0144553
748.603	0.0146442
748.682	0.0144146
748.760	0.0144141
748.838	0.0144576
748.916	0.0144479
748.994	0.0144035
749.072	0.0143608
749.150	0.0143201
749.228	0.0142765
749.307	0.0142323
749.385	0.0142774
749.463	0.0142407
749.541	0.0142245
749.619	0.0141956
749.697	0.0140649
749.775	0.0141023
749.853	0.0141670
749.932	0.0140191
750.010	0.0139209
750.088	0.0139240
750.166	0.0140086
750.244	0.0139413
750.322	0.0138715
750.400	0.0139003
750.478	0.0139104
750.557	0.0139646
750.635	0.0139113
750.713	0.0139095
750.791	0.0138637
750.869	0.0140091
750.947	0.0140922
751.025	0.0140572
751.103	0.0140912
751.182	0.0140105
751.260	0.0140012
751.338	0.0142048
751.416	0.0142617
751.494	0.0141722
751.572	0.0142664
751.650	0.0143189
751.728	0.0144363
751.807	0.0143815
751.885	0.0143539
751.963	0.0143793
752.041	0.0144863
752.119	0.0144504
752.197	0.0144371
752.275	0.0145365
752.353	0.0145205
752.432	0.0145419
752.510	0.0144536
752.588	0.0145752
752.666	0.0144228
752.744	0.0144728
752.822	0.0143107
752.900	0.0144881
752.978	0.0145290
753.057	0.0144676
753.135	0.0144340
753.213	0.0144585
753.291	0.0144501
753.369	0.0146379
753.447	0.0146146
753.525	0.0145924
753.603	0.0145167
753.682	0.0145293
753.760	0.0144822
753.838	0.0145161
753.916	0.0145480
753.994	0.0146049
754.072	0.0145257
754.150	0.0145007
754.228	0.0144968
754.307	0.0144104
754.385	0.0144104
754.463	0.0142323
754.541	0.0143295
754.619	0.0144157
754.697	0.0141718
754.775	0.0142809
754.853	0.0141934
754.932	0.0141946
755.010	0.0139510
755.088	0.0140746
755.166	0.0139923
755.244	0.0140646
755.322	0.0141642
755.400	0.0141079
755.478	0.0140331
755.557	0.0141258
755.635	0.0140414
755.713	0.0140702
755.791	0.0141830
755.869	0.0141478
755.947	0.0140391
756.025	0.0141693
756.103	0.0140727
756.182	0.0142826
756.260	0.0142127
756.338	0.0142525
756.416	0.0143380
756.494	0.0142857
756.572	0.0143410
756.650	0.0142496
756.728	0.0142912
756.807	0.0142601
756.885	0.0144083
756.963	0.0144154
757.041	0.0142866
757.119	0.0142635
757.197	0.0142089
757.275	0.0142833
757.353	0.0142838
757.432	0.0143357
757.510	0.0141503
757.588	0.0141258
757.666	0.0143080
757.744	0.0141692
757.822	0.0141989
757.900	0.0142171
757.978	0.0142292
758.057	0.0142583
758.135	0.0140091
758.213	0.0140539
758.291	0.0141815
758.369	0.0140904
758.447	0.0141238
758.525	0.0141099
758.603	0.0138708
758.682	0.0139220
758.760	0.0139705
758.838	0.0140234
758.916	0.0140036
758.994	0.0137800
759.072	0.0139143
759.150	0.0139212
759.228	0.0139653
759.307	0.0140119
759.385	0.0139603
759.463	0.0140993
759.541	0.0140637
759.619	0.0141948
759.697	0.0142060
759.775	0.0142058
759.853	0.0141737
759.932	0.0143114
760.010	0.0142585
760.088	0.0142382
760.166	0.0143368
760.244	0.0144774
760.322	0.0143719
760.400	0.0144526
760.478	0.0144775
760.557	0.0144649
760.635	0.0144329
760.713	0.0144738
760.791	0.0145134
760.869	0.0144749
760.947	0.0145267
761.025	0.0144562
761.103	0.0144044
761.182	0.0145615
761.260	0.0145609
761.338	0.0144816
761.416	0.0145642
761.494	0.0146158
761.572	0.0145973
761.650	0.0146117
761.728	0.0146384
761.807	0.0147292
761.885	0.0147265
761.963	0.0147102
762.041	0.0146703
762.119	0.0147245
762.197	0.0148954
762.275	0.0146234
762.353	0.0146860
762.432	0.0148578
762.510	0.0148510
762.588	0.0147216
762.666	0.0147897
762.744	0.0147797
762.822	0.0145654
762.900	0.0147247
762.978	0.0145332
763.057	0.0144408
763.135	0.0142718
763.213	0.0142474
763.291	0.0142971
763.369	0.0141701
763.447	0.0140083
763.525	0.0138943
763.603	0.0139944
763.682	0.0138290
763.760	0.0136888
763.838	0.0136038
763.916	0.0136115
763.994	0.0135753
764.072	0.0135056
764.150	0.0134838
764.228	0.0134614
764.307	0.0134977
764.385	0.0136285
764.463	0.0134715
764.541	0.0135262
764.619	0.0136510
764.697	0.0136435
764.775	0.0137737
764.853	0.0137358
764.932	0.0138941
765.010	0.0140623
765.088	0.0139257
765.166	0.0140770
765.244	0.0141640
765.322	0.0143196
765.400	0.0143489
765.478	0.0143753
765.557	0.0144839
765.635	0.0144714
765.713	0.0145280
765.791	0.0146085
765.869	0.0147743
765.947	0.0147933
766.025	0.0149004
766.103	0.0148012
766.182	0.0148553
766.260	0.0147069
766.338	0.0147901
766.416	0.0149173
766.494	0.0149009
766.572	0.0148867
766.650	0.0148428
766.728	0.0148424
766.807	0.0148335
766.885	0.0146278
766.963	0.0146699
767.041	0.0144641
767.119	0.0144395
767.197	0.0143903
767.275	0.0142907
767.353	0.0141640
767.432	0.0138977
767.510	0.0140288
767.588	0.0138586
767.666	0.0137685
767.744	0.0137128
767.822	0.0136826
767.900	0.0136710
767.978	0.0136877
768.057	0.0134605
768.135	0.0135825
768.213	0.0136248
768.291	0.0134402
768.369	0.0133989
768.447	0.0135680
768.525	0.0137268
768.603	0.0137215
768.682	0.0138562
768.760	0.0139416
768.838	0.0141275
768.916	0.0140891
768.994	0.0141790
769.072	0.0143028
769.150	0.0144045
769.228	0.0144586
769.307	0.0144904
769.385	0.0146796
769.463	0.0146940
769.541	0.0147087
769.619	0.0146777
769.697	0.0146847
769.775	0.0147750
769.853	0.0147807
769.932	0.0148032
770.010	0.0148288
770.088	0.0148918
770.166	0.0147218
770.244	0.0147005
770.322	0.0145929
770.400	0.0146532
770.478	0.0146832
770.557	0.0146516
770.635	0.0145090
770.713	0.0145914
770.791	0.0145779
770.869	0.0144984
770.947	0.0142652
771.025	0.0142599
771.103	0.0142075
771.182	0.0141223
771.260	0.0140749
771.338	0.0141330
771.416	0.0141284
771.494	0.0140664
771.572	0.0138764
771.650	0.0139189
771.728	0.0139806
771.807	0.0137176
771.885	0.0138691
771.963	0.0138663
772.041	0.0137340
772.119	0.0137617
772.197	0.0136856
772.275	0.0138602
772.353	0.0138099
772.432	0.0138514
772.510	0.0137286
772.588	0.0139301
772.666	0.0137933
772.744	0.0138207
772.822	0.0138808
772.900	0.0139628
772.978	0.0139323
773.057	0.0139822
773.135	0.0139071
773.213	0.0139503
773.291	0.0140601
773.369	0.0139120
773.447	0.0140890
773.525	0.0140189
773.603	0.0140530
773.682	0.0140827
773.760	0.0139278
773.838	0.0142314
773.916	0.0141091
773.994	0.0141621
774.072	0.0143008
774.150	0.0143769
774.228	0.0142480
774.307	0.0144612
774.385	0.0146074
774.463	0.0144480
774.541	0.0146461
774.619	0.0145954
774.697	0.0145883
774.775	0.0146498
774.853	0.0146725
774.932	0.0148290
775.010	0.0149487
775.088	0.0148463
775.166	0.0149374
775.244	0.0148417
775.322	0.0149116
775.400	0.0149554
775.478	0.0149805
775.557	0.0149945
775.635	0.0148833
775.713	0.0148486
775.791	0.0149299
775.869	0.0146964
775.947	0.0147227
776.025	0.0146624
776.103	0.0144669
776.182	0.0143613
776.260	0.0144763
776.338	0.0141901
776.416	0.0141085
776.494	0.0143592
776.572	0.0141171
776.650	0.0139600
776.728	0.0139927
776.807	0.0139583
776.885	0.0139415
776.963	0.0138075
777.041	0.0138925
777.119	0.0138663
777.197	0.0138692
777.275	0.0139048
777.353	0.0137467
777.432	0.0137507
777.510	0.0138527
777.588	0.0137237
777.666	0.0137606
777.744	0.0138842
777.822	0.0137836
777.900	0.0138995
777.978	0.0138277
778.057	0.0139658
778.135	0.0140811
778.213	0.0141418
778.291	0.0141708
778.369	0.0140948
778.447	0.0139838
778.525	0.0140871
778.603	0.0142535
778.682	0.0141881
778.760	0.0142147
778.838	0.0143732
778.916	0.0141733
778.994	0.0143528
779.072	0.0143081
779.150	0.0144129
779.228	0.0144175
779.307	0.0145192
779.385	0.0146229
779.463	0.0144871
779.541	0.0144776
779.619	0.0144004
779.697	0.0144955
779.775	0.0146003
779.853	0.0145705
779.932	0.0144119
780.010	0.0143340
780.088	0.0144558
780.166	0.0144061
780.244	0.0143494
780.322	0.0143533
780.400	0.0144502
780.478	0.0141946
780.557	0.0141805
780.635	0.0142300
780.713	0.0141690
780.791	0.0141841
780.869	0.0143032
780.947	0.0142789
781.025	0.0141885
781.103	0.0141803
781.182	0.0140778
781.260	0.0142202
781.338	0.0143092
781.416	0.0142482
781.494	0.0143201
781.572	0.0142545
781.650	0.0143098
781.728	0.0143222
781.807	0.0142729
781.885	0.0141734
781.963	0.0141061
782.041	0.0142534
782.119	0.0143436
782.197	0.0143531
782.275	0.0142577
782.353	0.0144302
782.432	0.0143587
782.510	0.0142375
782.588	0.0143687
782.666	0.0143364
782.744	0.0143270
782.822	0.0144260
782.900	0.0144764
782.978	0.0145731
783.057	0.0145866
783.135	0.0146440
783.213	0.0146750
783.291	0.0146334
783.369	0.0145350
783.447	0.0146336
783.525	0.0146967
783.603	0.0147612
783.682	0.0145757
783.760	0.0144896
783.838	0.0145885
783.916	0.0144976
783.994	0.0144653
784.072	0.0143943
784.150	0.0142703
784.228	0.0142058
784.307	0.0142453
784.385	0.0141721
784.463	0.0141586
784.541	0.0140442
784.619	0.0141292
784.697	0.0141296
784.775	0.0140051
784.853	0.0140486
784.932	0.0140332
785.010	0.0140627
785.088	0.0141989
785.166	0.0141405
785.244	0.0142001
785.322	0.0141634
785.400	0.0142342
785.478	0.0142439
785.557	0.0141985
785.635	0.0141972
785.713	0.0141673
785.791	0.0141910
785.869	0.0142458
785.947	0.0142776
786.025	0.0141924
786.103	0.0141748
786.182	0.0142207
786.260	0.0142496
786.338	0.0143185
786.416	0.0141399
786.494	0.0141206
786.572	0.0141512
786.650	0.0141541
786.728	0.0142133
786.807	0.0141542
786.885	0.0141006
786.963	0.0140962
787.041	0.0142317
787.119	0.0143192
787.197	0.0143355
787.275	0.0141550
787.353	0.0142986
787.432	0.0143249
787.510	0.0142486
787.588	0.0143156
787.666	0.0142884
787.744	0.0144009
787.822	0.0143819
787.900	0.0144387
787.978	0.0145419
788.057	0.0145323
788.135	0.0145684
788.213	0.0144498
788.291	0.0142522
788.369	0.0143342
788.447	0.0144518
788.525	0.0143363
788.603	0.0143011
788.682	0.0141756
788.760	0.0140713
788.838	0.0140981
788.916	0.0142010
788.994	0.0140226
789.072	0.0139860
789.150	0.0140849
789.228	0.0140574
789.307	0.0139235
789.385	0.0140531
789.463	0.0139969
789.541	0.0139703
789.619	0.0141394
789.697	0.0140811
789.775	0.0140200
789.853	0.0141249
789.932	0.0141189
790.010	0.0142178
790.088	0.0141905
790.166	0.0141456
790.244	0.0142274
790.322	0.0141643
790.400	0.0140780
790.478	0.0142033
790.557	0.0141248
790.635	0.0142021
790.713	0.0143077
790.791	0.0141407
790.869	0.0142032
790.947	0.0142416
791.025	0.0141460
791.103	0.0143278
791.182	0.0144267
791.260	0.0142835
791.338	0.0142469
791.416	0.0144770
791.494	0.0143810
791.572	0.0142155
791.650	0.0143443
791.728	0.0145506
791.807	0.0144070
791.885	0.0143375
791.963	0.0142305
792.041	0.0143062
792.119	0.0142421
792.197	0.0142754
792.275	0.0141949
792.353	0.0142651
792.432	0.0141364
792.510	0.0140631
792.588	0.0140638
792.666	0.0141061
792.744	0.0142252
792.822	0.0142611
792.900	0.0141846
792.978	0.0142643
793.057	0.0143855
793.135	0.0142023
793.213	0.0142459
793.291	0.0142984
793.369	0.0143064
793.447	0.0142297
793.525	0.0143498
793.603	0.0142149
793.682	0.0144610
793.760	0.0143946
793.838	0.0144543
793.916	0.0144257
793.994	0.0143960
794.072	0.0145439
794.150	0.0146307
794.228	0.0145828
794.307	0.0145885
794.385	0.0145887
794.463	0.0147761
794.541	0.0148754
794.619	0.0147858
794.697	0.0148491
794.775	0.0147602
794.853	0.0147233
794.932	0.0147222
795.010	0.0147643
795.088	0.0145741
795.166	0.0145457
795.244	0.0144289
795.322	0.0146131
795.400	0.0145510
795.478	0.0144577
795.557	0.0143227
795.635	0.0143478
795.713	0.0143412
795.791	0.0143729
795.869	0.0143254
795.947	0.0144012
796.025	0.0143244
796.103	0.0144093
796.182	0.0143155
796.260	0.0144023
796.338	0.0143530
796.416	0.0142141
796.494	0.0144250
796.572	0.0144726
796.650	0.0144414
796.728	0.0142858
796.807	0.0142879
796.885	0.0142140
796.963	0.0143044
797.041	0.0140662
797.119	0.0141985
797.197	0.0141174
797.275	0.0140932
797.353	0.0139898
797.432	0.0139748
797.510	0.0139365
797.588	0.0139548
797.666	0.0140503
797.744	0.0140406
797.822	0.0141360
797.900	0.0141927
797.978	0.0142120
798.057	0.0143771
798.135	0.0142414
798.213	0.0142973
798.291	0.0143806
798.369	0.0143574
798.447	0.0144476
798.525	0.0147433
798.603	0.0147220
798.682	0.0147003
798.760	0.0147967
798.838	0.0148132
798.916	0.0147900
798.994	0.0148814
799.072	0.0148698
799.150	0.0150917
799.228	0.0148729
799.307	0.0148334
799.385	0.0147869
799.463	0.0147897
799.541	0.0147200
799.619	0.0147088
799.697	0.0147028
799.775	0.0145238
799.853	0.0144409
799.932	0.0145387
800.010	0.0143050
800.088	0.0141240
800.166	0.0139674
800.244	0.0141203
800.322	0.0138953
800.400	0.0137300
800.478	0.0136658
800.557	0.0135300
800.635	0.0137328
800.713	0.0136020
800.791	0.0135989
800.869	0.0134504
800.947	0.0135864
801.025	0.0135844
801.103	0.0136033
801.182	0.0135263
801.260	0.0137377
801.338	0.0136362
801.416	0.0137943
801.494	0.0139106
801.572	0.0138436
801.650	0.0139429
801.728	0.0140106
801.807	0.0140173
801.885	0.0141165
801.963	0.0140523
802.041	0.0141170
802.119	0.0141991
802.197	0.0142160
802.275	0.0142365
802.353	0.0143130
802.432	0.0143862
802.510	0.0143645
802.588	0.0143929
802.666	0.0144473
802.744	0.0142623
802.822	0.0143844
802.900	0.0144117
802.978	0.0144256
803.057	0.0143072
803.135	0.0141895
803.213	0.0142657
803.291	0.0142789
803.369	0.0142908
803.447	0.0140881
803.525	0.0142887
803.603	0.0140688
803.682	0.0141519
803.760	0.0141975
803.838	0.0143934
803.916	0.0143436
803.994	0.0145617
804.072	0.0144492
804.150	0.0143684
804.228	0.0145207
804.307	0.0145542
804.385	0.0145274
804.463	0.0146152
804.541	0.0146588
804.619	0.0147678
804.697	0.0146357
804.775	0.0147672
804.853	0.0148260
804.932	0.0147224
805.010	0.0145924
805.088	0.0146867
805.166	0.0147003
805.244	0.0145274
805.322	0.0145764
805.400	0.0145634
805.478	0.0144289
805.557	0.0145706
805.635	0.0143942
805.713	0.0142487
805.791	0.0141361
805.869	0.0140823
805.947	0.0142653
806.025	0.0140968
806.103	0.0140887
806.182	0.0140714
806.260	0.0140300
806.338	0.0138919
806.416	0.0140796
806.494	0.0140328
806.572	0.0138499
806.650	0.0139328
806.728	0.0140475
806.807	0.0140914
806.885	0.0139002
806.963	0.0139163
807.041	0.0140262
807.119	0.0139927
807.197	0.0138145
807.275	0.0138681
807.353	0.0139815
807.432	0.0141522
807.510	0.0139420
807.588	0.0140050
807.666	0.0140959
807.744	0.0141039
807.822	0.0139819
807.900	0.0141360
807.978	0.0141096
808.057	0.0142735
808.135	0.0142902
808.213	0.0142795
808.291	0.0143254
808.369	0.0141953
808.447	0.0143908
808.525	0.0144022
808.603	0.0144004
808.682	0.0144188
808.760	0.0144067
808.838	0.0144118
808.916	0.0144460
808.994	0.0144067
809.072	0.0145612
809.150	0.0144776
809.228	0.0143041
809.307	0.0142239
809.385	0.0142530
809.463	0.0141767
809.541	0.0139853
809.619	0.0139419
809.697	0.0138306
809.775	0.0138528
809.853	0.0139376
809.932	0.0138100
810.010	0.0139390
810.088	0.0139410
810.166	0.0139677
810.244	0.0141581
810.322	0.0140721
810.400	0.0141992
810.478	0.0143138
810.557	0.0146691
810.635	0.0145788
810.713	0.0146400
810.791	0.0148345
810.869	0.0149031
810.947	0.0149935
811.025	0.0149883
811.103	0.0151606
811.182	0.0150640
811.260	0.0150727
811.338	0.0151173
811.416	0.0150303
811.494	0.0150622
811.572	0.0147986
811.650	0.0147016
811.728	0.0146229
811.807	0.0145339
811.885	0.0146323
811.963	0.0143412
812.041	0.0141673
812.119	0.0141025
812.197	0.0139880
812.275	0.0140170
812.353	0.0139648
812.432	0.0140045
812.510	0.0138533
812.588	0.0137875
812.666	0.0137717
812.744	0.0139072
812.822	0.0139520
812.900	0.0139350
812.978	0.0138060
813.057	0.0138102
813.135	0.0138177
813.213	0.0138803
813.291	0.0139719
813.369	0.0139316
813.447	0.0138586
813.525	0.0139986
813.603	0.0140281
813.682	0.0140128
813.760	0.0141298
813.838	0.0141184
813.916	0.0141142
813.994	0.0140522
814.072	0.0140800
814.150	0.0139063
814.228	0.0140680
814.307	0.0141196
814.385	0.0141029
814.463	0.0140802
814.541	0.0139668
814.619	0.0141039
814.697	0.0140602
814.775	0.0140090
814.853	0.0140900
814.932	0.0142382
815.010	0.0142142
815.088	0.0141217
815.166	0.0142464
815.244	0.0142427
815.322	0.0143256
815.400	0.0142529
815.478	0.0143741
815.557	0.0142819
815.635	0.0144338
815.713	0.0144836
815.791	0.0146674
815.869	0.0145014
815.947	0.0145117
816.025	0.0146584
816.103	0.0146243
816.182	0.0145881
816.260	0.0145860
816.338	0.0146732
816.416	0.0147663
816.494	0.0147914
816.572	0.0148455
816.650	0.0148715
816.728	0.0148936
816.807	0.0148679
816.885	0.0149525
816.963	0.0148631
817.041	0.0147737
817.119	0.0149086
817.197	0.0149464
817.275	0.0147891
817.353	0.0147239
817.432	0.0145938
817.510	0.0144482
817.588	0.0143665
817.666	0.0144515
817.744	0.0143050
817.822	0.0143409
817.900	0.0143262
817.978	0.0142103
818.057	0.0141644
818.135	0.0140015
818.213	0.0141043
818.291	0.0138676
818.369	0.0139239
818.447	0.0139101
818.525	0.0139676
818.603	0.0140517
818.682	0.0139999
818.760	0.0141393
818.838	0.0142236
818.916	0.0145200
818.994	0.0145790
819.072	0.0145266
819.150	0.0146568
819.228	0.0147462
819.307	0.0147726
819.385	0.0148172
819.463	0.0149672
819.541	0.0149177
819.619	0.0148068
819.697	0.0148045
819.775	0.0146973
819.853	0.0145384
819.932	0.0144936
820.010	0.0142886
820.088	0.0143069
820.166	0.0141820
820.244	0.0140575
820.322	0.0140430
820.400	0.0139750
820.478	0.0137768
820.557	0.0138450
820.635	0.0136739
820.713	0.0136791
820.791	0.0136815
820.869	0.0137181
820.947	0.0137953
821.025	0.0139252
821.103	0.0140515
821.182	0.0142615
821.260	0.0142093
821.338	0.0142818
821.416	0.0143812
821.494	0.0145078
821.572	0.0145843
821.650	0.0147117
821.728	0.0147380
821.807	0.0147122
821.885	0.0148551
821.963	0.0148104
822.041	0.0147758
822.119	0.0148376
822.197	0.0147377
822.275	0.0146040
822.353	0.0145707
822.432	0.0144323
822.510	0.0144592
822.588	0.0144042
822.666	0.0142140
822.744	0.0140818
822.822	0.0140716
822.900	0.0140977
822.978	0.0141070
823.057	0.0139879
823.135	0.0139770
823.213	0.0138853
823.291	0.0137827
823.369	0.0139209
823.447	0.0137902
823.525	0.0137061
823.603	0.0138313
823.682	0.0136907
823.760	0.0137263
823.838	0.0138030
823.916	0.0139017
823.994	0.0138527
824.072	0.0138712
824.150	0.0138607
824.228	0.0138840
824.307	0.0138883
824.385	0.0140193
824.463	0.0139940
824.541	0.0141299
824.619	0.0141763
824.697	0.0142707
824.775	0.0142431
824.853	0.0142790
824.932	0.0143577
825.010	0.0143331
825.088	0.0143578
825.166	0.0145027
825.244	0.0144151
825.322	0.0146503
825.400	0.0145103
825.478	0.0143804
825.557	0.0143632
825.635	0.0141306
825.713	0.0141653
825.791	0.0140602
825.869	0.0139600
825.947	0.0140209
826.025	0.0137848
826.103	0.0136022
826.182	0.0135738
826.260	0.0134598
826.338	0.0133619
826.416	0.0135300
826.494	0.0134721
826.572	0.0135871
826.650	0.0135526
826.728	0.0135958
826.807	0.0137634
826.885	0.0138173
826.963	0.0138956
827.041	0.0141186
827.119	0.0142947
827.197	0.0143213
827.275	0.0146371
827.353	0.0146623
827.432	0.0146544
827.510	0.0148318
827.588	0.0149629
827.666	0.0149926
827.744	0.0149440
827.822	0.0148472
827.900	0.0148776
827.978	0.0148708
828.057	0.0148773
828.135	0.0147554
828.213	0.0146902
828.291	0.0146857
828.369	0.0144964
828.447	0.0143738
828.525	0.0142467
828.603	0.0139845
828.682	0.0139559
828.760	0.0138785
828.838	0.0138794
828.916	0.0138132
828.994	0.0138731
829.072	0.0138177
829.150	0.0138824
829.228	0.0141248
829.307	0.0141062
829.385	0.0142388
829.463	0.0142517
829.541	0.0143175
829.619	0.0144128
829.697	0.0144740
829.775	0.0146775
829.853	0.0146196
829.932	0.0146693
830.010	0.0147067
830.088	0.0147366
830.166	0.0146811
830.244	0.0146757
830.322	0.0147925
830.400	0.0147275
830.478	0.0146526
830.557	0.0145038
830.635	0.0143839
830.713	0.0144656
830.791	0.0143133
830.869	0.0142326
830.947	0.0140429
831.025	0.0138509
831.103	0.0137830
831.182	0.0136442
831.260	0.0136897
831.338	0.0136964
831.416	0.0135880
831.494	0.0136319
831.572	0.0135847
831.650	0.0135754
831.728	0.0136442
831.807	0.0136179
831.885	0.0137829
831.963	0.0138929
832.041	0.0138350
832.119	0.0142152
832.197	0.0140796
832.275	0.0142493
832.353	0.0144240
832.432	0.0144176
832.510	0.0145314
832.588	0.0146305
832.666	0.0146303
832.744	0.0145721
832.822	0.0146579
832.900	0.0148224
832.978	0.0147204
833.057	0.0145478
833.135	0.0145394
833.213	0.0144874
833.291	0.0147399
833.369	0.0144429
833.447	0.0143405
833.525	0.0144392
833.603	0.0142034
833.682	0.0140785
833.760	0.0139480
833.838	0.0141069
833.916	0.0140384
833.994	0.0140125
834.072	0.0138351
834.150	0.0140276
834.228	0.0142086
834.307	0.0140053
834.385	0.0141200
834.463	0.0141809
834.541	0.0141931
834.619	0.0142684
834.697	0.0144503
834.775	0.0142753
834.853	0.0143671
834.932	0.0143855
835.010	0.0145192
835.088	0.0144382
835.166	0.0145852
835.244	0.0147099
835.322	0.0146055
835.400	0.0146538
835.478	0.0145679
835.557	0.0147991
835.635	0.0147362
835.713	0.0146880
835.791	0.0145245
835.869	0.0145741
835.947	0.0145232
836.025	0.0144456
836.103	0.0144947
836.182	0.0144549
836.260	0.0143880
836.338	0.0142931
836.416	0.0142398
836.494	0.0142061
836.572	0.0141844
836.650	0.0141682
836.728	0.0140688
836.807	0.0139364
836.885	0.0140132
836.963	0.0141090
837.041	0.0141148
837.119	0.0139371
837.197	0.0139268
837.275	0.0139230
837.353	0.0139401
837.432	0.0139118
837.510	0.0140398
837.588	0.0140661
837.666	0.0141432
837.744	0.0142891
837.822	0.0142445
837.900	0.0141704
837.978	0.0143644
838.057	0.0144356
838.135	0.0144156
838.213	0.0144283
838.291	0.0144544
838.369	0.0145120
838.447	0.0143609
838.525	0.0145741
838.603	0.0145674
838.682	0.0144945
838.760	0.0145701
838.838	0.0145322
838.916	0.0144202
838.994	0.0144002
839.072	0.0145218
839.150	0.0145602
839.228	0.0144015
839.307	0.0143999
839.385	0.0142429
839.463	0.0144148
839.541	0.0144653
839.619	0.0144016
839.697	0.0142085
839.775	0.0143199
839.853	0.0144041
839.932	0.0142825
840.010	0.0144006
840.088	0.0145130
840.166	0.0144807
840.244	0.0145465
840.322	0.0146110
840.400	0.0144086
840.478	0.0146014
840.557	0.0145393
840.635	0.0145301
840.713	0.0144806
840.791	0.0144608
840.869	0.0143867
840.947	0.0144420
841.025	0.0143449
841.103	0.0143875
841.182	0.0142583
841.260	0.0142219
841.338	0.0142213
841.416	0.0142077
841.494	0.0141908
841.572	0.0141790
841.650	0.0140985
841.728	0.0140649
841.807	0.0141399
841.885	0.0140532
841.963	0.0139798
842.041	0.0138756
842.119	0.0140694
842.197	0.0139668
842.275	0.0140048
842.353	0.0140445
842.432	0.0142100
842.510	0.0141623
842.588	0.0141582
842.666	0.0141032
842.744	0.0141979
842.822	0.0143084
842.900	0.0144785
842.978	0.0144224
843.057	0.0143810
843.135	0.0142381
843.213	0.0144358
843.291	0.0144837
843.369	0.0142907
843.447	0.0142271
843.525	0.0141080
843.603	0.0142432
843.682	0.0143251
843.760	0.0142165
843.838	0.0141055
843.916	0.0141616
843.994	0.0143111
844.072	0.0140772
844.150	0.0140025
844.228	0.0140266
844.307	0.0141684
844.385	0.0142912
844.463	0.0141316
844.541	0.0141607
844.619	0.0139838
844.697	0.0140626
844.775	0.0141504
844.853	0.0142987
844.932	0.0141581
845.010	0.0141337
845.088	0.0142350
845.166	0.0142926
845.244	0.0141885
845.322	0.0143475
845.400	0.0143755
845.478	0.0143711
845.557	0.0143055
845.635	0.0142804
845.713	0.0144062
845.791	0.0143079
845.869	0.0144077
845.947	0.0143450
846.025	0.0143401
846.103	0.0142973
846.182	0.0143250
846.260	0.0142327
846.338	0.0143166
846.416	0.0142932
846.494	0.0141994
846.572	0.0142773
846.650	0.0143925
846.728	0.0142744
846.807	0.0143354
846.885	0.0142948
846.963	0.0141973
847.041	0.0142749
847.119	0.0142828
847.197	0.0141230
847.275	0.0142532
847.353	0.0143454
847.432	0.0144066
847.510	0.0141759
847.588	0.0143808
847.666	0.0142740
847.744	0.0140529
847.822	0.0141613
847.900	0.0140254
847.978	0.0142341
848.057	0.0141525
848.135	0.0140867
848.213	0.0139047
848.291	0.0140024
848.369	0.0140603
848.447	0.0139378
848.525	0.0139193
848.603	0.0139368
848.682	0.0139973
848.760	0.0140333
848.838	0.0140175
848.916	0.0140759
848.994	0.0139404
849.072	0.0139874
849.150	0.0139815
849.228	0.0140415
849.307	0.0139557
849.385	0.0140719
849.463	0.0140479
849.541	0.0140774
849.619	0.0142068
849.697	0.0141167
849.775	0.0141174
849.853	0.0143475
849.932	0.0143858
850.010	0.0144180
850.088	0.0143891
850.166	0.0143708
850.244	0.0143571
850.322	0.0144658
850.400	0.0144209
850.478	0.0145028
850.557	0.0145312
850.635	0.0145623
850.713	0.0144976
850.791	0.0146679
850.869	0.0146194
850.947	0.0145724
851.025	0.0144659
851.103	0.0144607
851.182	0.0144250
851.260	0.0145922
851.338	0.0144804
851.416	0.0143059
851.494	0.0143863
851.572	0.0143155
851.650	0.0142010
851.728	0.0143646
851.807	0.0144016
851.885	0.0143834
851.963	0.0140150
852.041	0.0141994
852.119	0.0141435
852.197	0.0141449
852.275	0.0142106
852.353	0.0140346
852.432	0.0140896
852.510	0.0140382
852.588	0.0138949
852.666	0.0141584
852.744	0.0141873
852.822	0.0141956
852.900	0.0142221
852.978	0.0142625
853.057	0.0142682
853.135	0.0144012
853.213	0.0144688
853.291	0.0144567
853.369	0.0144383
853.447	0.0143454
853.525	0.0144702
853.603	0.0145580
853.682	0.0144606
853.760	0.0144902
853.838	0.0146341
853.916	0.0144174
853.994	0.0145255
854.072	0.0144325
854.150	0.0143948
854.228	0.0144339
854.307	0.0143481
854.385	0.0143552
854.463	0.0143130
854.541	0.0144131
854.619	0.0144302
854.697	0.0143568
854.775	0.0142163
854.853	0.0143073
854.932	0.0141827
855.010	0.0142688
855.088	0.0140965
855.166	0.0141684
855.244	0.0141490
855.322	0.0140629
855.400	0.0140189
855.478	0.0140176
855.557	0.0140324
855.635	0.0140948
855.713	0.0139713
855.791	0.0139955
855.869	0.0141424
855.947	0.0139954
856.025	0.0140282
856.103	0.0141235
856.182	0.0139478
856.260	0.0140562
856.338	0.0141382
856.416	0.0140672
856.494	0.0142017
856.572	0.0143038
856.650	0.0144685
856.728	0.0144527
856.807	0.0142706
856.885	0.0142558
856.963	0.0144942
857.041	0.0144136
857.119	0.0145971
857.197	0.0145322
857.275	0.0144617
857.353	0.0145706
857.432	0.0146513
857.510	0.0147774
857.588	0.0146841
857.666	0.0145947
857.744	0.0148007
857.822	0.0147688
857.900	0.0146484
857.978	0.0146114
858.057	0.0146268
858.135	0.0145645
858.213	0.0144978
858.291	0.0146005
858.369	0.0146206
858.447	0.0144068
858.525	0.0143180
858.603	0.0142621
858.682	0.0144252
858.760	0.0144926
858.838	0.0142303
858.916	0.0142671
858.994	0.0141899
859.072	0.0141940
859.150	0.0142334
859.228	0.0140887
859.307	0.0141342
859.385	0.0139691
859.463	0.0140106
859.541	0.0140832
859.619	0.0140961
859.697	0.0142098
859.775	0.0140454
859.853	0.0139744
859.932	0.0142000
860.010	0.0142749
860.088	0.0142066
860.166	0.0140012
860.244	0.0140932
860.322	0.0140392
860.400	0.0141962
860.478	0.0142090
860.557	0.0142871
860.635	0.0142269
860.713	0.0142877
860.791	0.0143810
860.869	0.0142066
860.947	0.0141908
861.025	0.0142545
861.103	0.0141586
861.182	0.0142660
861.260	0.0142789
861.338	0.0142220
861.416	0.0143990
861.494	0.0141995
861.572	0.0143076
861.650	0.0142669
861.728	0.0141900
861.807	0.0143026
861.885	0.0143828
861.963	0.0142541
862.041	0.0142445
862.119	0.0144971
862.197	0.0142847
862.275	0.0141930
862.353	0.0144185
862.432	0.0143118
862.510	0.0142347
862.588	0.0141595
862.666	0.0142099
862.744	0.0141359
862.822	0.0140884
862.900	0.0141176
862.978	0.0140662
863.057	0.0140848
863.135	0.0141420
863.213	0.0141093
863.291	0.0142078
863.369	0.0141404
863.447	0.0142150
863.525	0.0142197
863.603	0.0141139
863.682	0.0142065
863.760	0.0142030
863.838	0.0143468
863.916	0.0145018
863.994	0.0143988
864.072	0.0144137
864.150	0.0143887
864.228	0.0143307
864.307	0.0142179
864.385	0.0143790
864.463	0.0143932
864.541	0.0143786
864.619	0.0143223
864.697	0.0144746
864.775	0.0143560
864.853	0.0143307
864.932	0.0142842
865.010	0.0144464
865.088	0.0142419
865.166	0.0141814
865.244	0.0141865
865.322	0.0141371
865.400	0.0141982
865.478	0.0141617
865.557	0.0142683
865.635	0.0141595
865.713	0.0142437
865.791	0.0143963
865.869	0.0143871
865.947	0.0143491
866.025	0.0143545
866.103	0.0142004
866.182	0.0141455
866.260	0.0142767
866.338	0.0144624
866.416	0.0143046
866.494	0.0142231
866.572	0.0141019
866.650	0.0144068
866.728	0.0143077
866.807	0.0143369
866.885	0.0143856
866.963	0.0144051
867.041	0.0142801
867.119	0.0141883
867.197	0.0143102
867.275	0.0143488
867.353	0.0142320
867.432	0.0142569
867.510	0.0143571
867.588	0.0141225
867.666	0.0140402
867.744	0.0141819
867.822	0.0141197
867.900	0.0140990
867.978	0.0142108
868.057	0.0141168
868.135	0.0140713
868.213	0.0140743
868.291	0.0141271
868.369	0.0140935
868.447	0.0142235
868.525	0.0142852
868.603	0.0141965
868.682	0.0143932
868.760	0.0143273
868.838	0.0143715
868.916	0.0144337
868.994	0.0143466
869.072	0.0145106
869.150	0.0144705
869.228	0.0145847
869.307	0.0146301
869.385	0.0146532
869.463	0.0146475
869.541	0.0146448
869.619	0.0146330
869.697	0.0145324
869.775	0.0146654
869.853	0.0145844
869.932	0.0146873
870.010	0.0145644
870.088	0.0144160
870.166	0.0145075
870.244	0.0144654
870.322	0.0144417
870.400	0.0142511
870.478	0.0142262
870.557	0.0143293
870.635	0.0142272
870.713	0.0141691
870.791	0.0141207
870.869	0.0142295
870.947	0.0142030
871.025	0.0140142
871.103	0.0140744
871.182	0.0139761
871.260	0.0140519
871.338	0.0139251
871.416	0.0140585
871.494	0.0138854
871.572	0.0139326
871.650	0.0140777
871.728	0.0139584
871.807	0.0139909
871.885	0.0139831
871.963	0.0140323
872.041	0.0140477
872.119	0.0139980
872.197	0.0141271
872.275	0.0140212
872.353	0.0141957
872.432	0.0143270
872.510	0.0142935
872.588	0.0141425
872.666	0.0143065
872.744	0.0143404
872.822	0.0144275
872.900	0.0143417
872.978	0.0144567
873.057	0.0144181
873.135	0.0145110
873.213	0.0144878
873.291	0.0143880
873.369	0.0145319
873.447	0.0144370
873.525	0.0145148
873.603	0.0146576
873.682	0.0146055
873.760	0.0146261
873.838	0.0147216
873.916	0.0146091
873.994	0.0146783
874.072	0.0145522
874.150	0.0145292
874.228	0.0145869
874.307	0.0145840
874.385	0.0146446
874.463	0.0144530
874.541	0.0143819
874.619	0.0142670
874.697	0.0142143
874.775	0.0142731
874.853	0.0142107
874.932	0.0141016
875.010	0.0140974
875.088	0.0140609
875.166	0.0140472
875.244	0.0140223
875.322	0.0139465
875.400	0.0139867
875.478	0.0137984
875.557	0.0138953
875.635	0.0138131
875.713	0.0138479
875.791	0.0137957
875.869	0.0138697
875.947	0.0139024
876.025	0.0138580
876.103	0.0138335
876.182	0.0139140
876.260	0.0138523
876.338	0.0140296
876.416	0.0140478
876.494	0.0139700
876.572	0.0142458
876.650	0.0143689
876.728	0.0141824
876.807	0.0142354
876.885	0.0142947
876.963	0.0143658
877.041	0.0145425
877.119	0.0143911
877.197	0.0144482
877.275	0.0144524
877.353	0.0145377
877.432	0.0144466
877.510	0.0145698
877.588	0.0145519
877.666	0.0146156
877.744	0.0144585
877.822	0.0144250
877.900	0.0144859
877.978	0.0143610
878.057	0.0144946
878.135	0.0144717
878.213	0.0143360
878.291	0.0142706
878.369	0.0142723
878.447	0.0144009
878.525	0.0142912
878.603	0.0142118
878.682	0.0141821
878.760	0.0142652
878.838	0.0142161
878.916	0.0143402
878.994	0.0142809
879.072	0.0143882
879.150	0.0143557
879.228	0.0141696
879.307	0.0142239
879.385	0.0143920
879.463	0.0142380
879.541	0.0141346
879.619	0.0143290
879.697	0.0143388
879.775	0.0144412
879.853	0.0143264
879.932	0.0142775
880.010	0.0143089
880.088	0.0142640
880.166	0.0142830
880.244	0.0143915
880.322	0.0142368
880.400	0.0142843
880.478	0.0143423
880.557	0.0142968
880.635	0.0143423
880.713	0.0142433
880.791	0.0142407
880.869	0.0140918
880.947	0.0141062
881.025	0.0142839
881.103	0.0142696
881.182	0.0142115
881.260	0.0143059
881.338	0.0143531
881.416	0.0142752
881.494	0.0143459
881.572	0.0143712
881.650	0.0144130
881.728	0.0144682
881.807	0.0145223
881.885	0.0143107
881.963	0.0142491
882.041	0.0143977
882.119	0.0142752
882.197	0.0143272
882.275	0.0143851
882.353	0.0144028
882.432	0.0141941
882.510	0.0142477
882.588	0.0142341
882.666	0.0143518
882.744	0.0142577
882.822	0.0142027
882.900	0.0142892
882.978	0.0142080
883.057	0.0142185
883.135	0.0143025
883.213	0.0142809
883.291	0.0141414
883.369	0.0141890
883.447	0.0141515
883.525	0.0142107
883.603	0.0141277
883.682	0.0141606
883.760	0.0142244
883.838	0.0143281
883.916	0.0142401
883.994	0.0141423
884.072	0.0142241
884.150	0.0141815
884.228	0.0142332
884.307	0.0143520
884.385	0.0143335
884.463	0.0143021
884.541	0.0143368
884.619	0.0144665
884.697	0.0142542
884.775	0.0144766
884.853	0.0144944
884.932	0.0143289
885.010	0.0143904
885.088	0.0144757
885.166	0.0143324
885.244	0.0144387
885.322	0.0144885
885.400	0.0144666
885.478	0.0142548
885.557	0.0145002
885.635	0.0144440
885.713	0.0143054
885.791	0.0143203
885.869	0.0144664
885.947	0.0143878
886.025	0.0144315
886.103	0.0143597
886.182	0.0143853
886.260	0.0143106
886.338	0.0142378
886.416	0.0141258
886.494	0.0142456
886.572	0.0142380
886.650	0.0142687
886.728	0.0143347
886.807	0.0142075
886.885	0.0141500
886.963	0.0141550
887.041	0.0141914
887.119	0.0141930
887.197	0.0142869
887.275	0.0143882
887.353	0.0140941
887.432	0.0140805
887.510	0.0142918
887.588	0.0142294
887.666	0.0140842
887.744	0.0140535
887.822	0.0141750
887.900	0.0141541
887.978	0.0141746
888.057	0.0140250
888.135	0.0142014
888.213	0.0141279
888.291	0.0141203
888.369	0.0142642
888.447	0.0140469
888.525	0.0142339
888.603	0.0141434
888.682	0.0141797
888.760	0.0141398
888.838	0.0142243
888.916	0.0141918
888.994	0.0141155
889.072	0.0142144
889.150	0.0142897
889.228	0.0143584
889.307	0.0143503
889.385	0.0142410
889.463	0.0143746
889.541	0.0143368
889.619	0.0144736
889.697	0.0145348
889.775	0.0144986
889.853	0.0144014
889.932	0.0144205
890.010	0.0144100
890.088	0.0145104
890.166	0.0144221
890.244	0.0143718
890.322	0.0145003
890.400	0.0144976
890.478	0.0144639
890.557	0.0144781
890.635	0.0145113
890.713	0.0145614
890.791	0.0143420
890.869	0.0143440
890.947	0.0143305
891.025	0.0142348
891.103	0.0141688
891.182	0.0140831
891.260	0.0141817
891.338	0.0142835
891.416	0.0140791
891.494	0.0140369
891.572	0.0140624
891.650	0.0139598
891.728	0.0139703
891.807	0.0140462
891.885	0.0140402
891.963	0.0141433
892.041	0.0139236
892.119	0.0141447
892.197	0.0140379
892.275	0.0140971
892.353	0.0141410
892.432	0.0141271
892.510	0.0141186
892.588	0.0141525
892.666	0.0142747
892.744	0.0142531
892.822	0.0141487
892.900	0.0143578
892.978	0.0143812
893.057	0.0144088
893.135	0.0143971
893.213	0.0144874
893.291	0.0143784
893.369	0.0144031
893.447	0.0144798
893.525	0.0144601
893.603	0.0144201
893.682	0.0143679
893.760	0.0144175
893.838	0.0144842
893.916	0.0144675
893.994	0.0142487
894.072	0.0143283
894.150	0.0144735
894.228	0.0144430
894.307	0.0145178
894.385	0.0144125
894.463	0.0142489
894.541	0.0143442
894.619	0.0141137
894.697	0.0141769
894.775	0.0141893
894.853	0.0141649
894.932	0.0141033
895.010	0.0141321
895.088	0.0142738
895.166	0.0141414
895.244	0.0140755
895.322	0.0140439
895.400	0.0140302
895.478	0.0139882
895.557	0.0140312
895.635	0.0140743
895.713	0.0140417
895.791	0.0140228
895.869	0.0141004
895.947	0.0140816
896.025	0.0139999
896.103	0.0141233
896.182	0.0141728
896.260	0.0140836
896.338	0.0141537
896.416	0.0141696
896.494	0.0141975
896.572	0.0142577
896.650	0.0142513
896.728	0.0142972
896.807	0.0143742
896.885	0.0143887
896.963	0.0143200
897.041	0.0142261
897.119	0.0143071
897.197	0.0143658
897.275	0.0143408
897.353	0.0142928
897.432	0.0143198
897.510	0.0144046
897.588	0.0144962
897.666	0.0143743
897.744	0.0144922
897.822	0.0144592
897.900	0.0144544
897.978	0.0144263
898.057	0.0144980
898.135	0.0146093
898.213	0.0145405
898.291	0.0143770
898.369	0.0143501
898.447	0.0144012
898.525	0.0143210
898.603	0.0144080
898.682	0.0145386
898.760	0.0143506
898.838	0.0143182
898.916	0.0143407
898.994	0.0145242
899.072	0.0142173
899.150	0.0144846
899.228	0.0142833
899.307	0.0142896
899.385	0.0143324
899.463	0.0143868
899.541	0.0144765
899.619	0.0144519
899.697	0.0144531
899.775	0.0143430
899.853	0.0141000
899.932	0.0142060
900.010	0.0142169
900.088	0.0142994
900.166	0.0143351
900.244	0.0143274
900.322	0.0142920
900.400	0.0141558
900.478	0.0143547
900.557	0.0143692
900.635	0.0142841
900.713	0.0142741
900.791	0.0142451
900.869	0.0142926
900.947	0.0144144
901.025	0.0142993
901.103	0.0141700
901.182	0.0143829
901.260	0.0144701
901.338	0.0142896
901.416	0.0142673
901.494	0.0143052
901.572	0.0142709
901.650	0.0143285
901.728	0.0144258
901.807	0.0143339
901.885	0.0142764
901.963	0.0143206
902.041	0.0143922
902.119	0.0144498
902.197	0.0143163
902.275	0.0143261
902.353	0.0143622
902.432	0.0143929
902.510	0.0143918
902.588	0.0143237
902.666	0.0143311
902.744	0.0143482
902.822	0.0142692
902.900	0.0142892
902.978	0.0144170
903.057	0.0144259
903.135	0.0145960
903.213	0.0144152
903.291	0.0142831
903.369	0.0142941
903.447	0.0144791
903.525	0.0143272
903.603	0.0143394
903.682	0.0144021
903.760	0.0144483
903.838	0.0142563
903.916	0.0143611
903.994	0.0143066
904.072	0.0141534
904.150	0.0141740
904.228	0.0142688
904.307	0.0141910
904.385	0.0141624
904.463	0.0141579
904.541	0.0139722
904.619	0.0140331
904.697	0.0140277
904.775	0.0140494
904.853	0.0139143
904.932	0.0139328
905.010	0.0139877
905.088	0.0139899
905.166	0.0141965
905.244	0.0140197
905.322	0.0139678
905.400	0.0139210
905.478	0.0140276
905.557	0.0141959
905.635	0.0143237
905.713	0.0142847
905.791	0.0142774
905.869	0.0141678
905.947	0.0143710
906.025	0.0144212
906.103	0.0143297
906.182	0.0144949
906.260	0.0142300
906.338	0.0143156
906.416	0.0144498
906.494	0.0143585
906.572	0.0144482
906.650	0.0145193
906.728	0.0145945
906.807	0.0145119
906.885	0.0144226
906.963	0.0146015
907.041	0.0143923
907.119	0.0144037
907.197	0.0145000
907.275	0.0145132
907.353	0.0145010
907.432	0.0145356
907.510	0.0144713
907.588	0.0145083
907.666	0.0144533
907.744	0.0144908
907.822	0.0146014
907.900	0.0145741
907.978	0.0146023
908.057	0.0144631
908.135	0.0145107
908.213	0.0145166
908.291	0.0143894
908.369	0.0145322
908.447	0.0145136
908.525	0.0143923
908.603	0.0144590
908.682	0.0144749
908.760	0.0145078
908.838	0.0144378
908.916	0.0142442
908.994	0.0143179
909.072	0.0143221
909.150	0.0144759
909.228	0.0143077
909.307	0.0140778
909.385	0.0141729
909.463	0.0142229
909.541	0.0141199
909.619	0.0142065
909.697	0.0139399
909.775	0.0139648
909.853	0.0139580
909.932	0.0140051
910.010	0.0139783
910.088	0.0140765
910.166	0.0138938
910.244	0.0139149
910.322	0.0139782
910.400	0.0138405
910.478	0.0139174
910.557	0.0140067
910.635	0.0140331
910.713	0.0141001
910.791	0.0140081
910.869	0.0139348
910.947	0.0140932
911.025	0.0142612
911.103	0.0141242
911.182	0.0141583
911.260	0.0142890
911.338	0.0143337
911.416	0.0143580
911.494	0.0141891
911.572	0.0143631
911.650	0.0143997
911.728	0.0143509
911.807	0.0144767
911.885	0.0145119
911.963	0.0144263
912.041	0.0144398
912.119	0.0144745
912.197	0.0143186
912.275	0.0144884
912.353	0.0144792
912.432	0.0143853
912.510	0.0143997
912.588	0.0142793
912.666	0.0145402
912.744	0.0144903
912.822	0.0145465
912.900	0.0144482
912.978	0.0144928
913.057	0.0145158
913.135	0.0144792
913.213	0.0143870
913.291	0.0144584
913.369	0.0144785
913.447	0.0144636
913.525	0.0143981
913.603	0.0144341
913.682	0.0145111
913.760	0.0145715
913.838	0.0143948
913.916	0.0143355
913.994	0.0144769
914.072	0.0143758
914.150	0.0142680
914.228	0.0144098
914.307	0.0142938
914.385	0.0142848
914.463	0.0142487
914.541	0.0142462
914.619	0.0142138
914.697	0.0142402
914.775	0.0142603
914.853	0.0141777
914.932	0.0140920
915.010	0.0142664
915.088	0.0142090
915.166	0.0141737
915.244	0.0141342
915.322	0.0141800
915.400	0.0142644
915.478	0.0143349
915.557	0.0143535
915.635	0.0143568
915.713	0.0142406
915.791	0.0144832
915.869	0.0145503
915.947	0.0144974
916.025	0.0144556
916.103	0.0144879
916.182	0.0144184
916.260	0.0144915
916.338	0.0145130
916.416	0.0146436
916.494	0.0145070
916.572	0.0145529
916.650	0.0144882
916.728	0.0144989
916.807	0.0145061
916.885	0.0144979
916.963	0.0144427
917.041	0.0146353
917.119	0.0144746
917.197	0.0144527
917.275	0.0144252
917.353	0.0144018
917.432	0.0143311
917.510	0.0142738
917.588	0.0142332
917.666	0.0141771
917.744	0.0141556
917.822	0.0141179
917.900	0.0141390
917.978	0.0140270
918.057	0.0141345
918.135	0.0140757
918.213	0.0140130
918.291	0.0140240
918.369	0.0141090
918.447	0.0139931
918.525	0.0140313
918.603	0.0140945
918.682	0.0140997
918.760	0.0142293
918.838	0.0140170
918.916	0.0142583
918.994	0.0141483
919.072	0.0143535
919.150	0.0143169
919.228	0.0143110
919.307	0.0144276
919.385	0.0143350
919.463	0.0144360
919.541	0.0143328
919.619	0.0144650
919.697	0.0144695
919.775	0.0144675
919.853	0.0144324
919.932	0.0144258
920.010	0.0144379
920.088	0.0143872
920.166	0.0144343
920.244	0.0145644
920.322	0.0144693
920.400	0.0144808
920.478	0.0144416
920.557	0.0144957
920.635	0.0144988
920.713	0.0143542
920.791	0.0143666
920.869	0.0142900
920.947	0.0143058
921.025	0.0142938
921.103	0.0144379
921.182	0.0143369
921.260	0.0143244
921.338	0.0142899
921.416	0.0141541
921.494	0.0142185
921.572	0.0142445
921.650	0.0142255
921.728	0.0142439
921.807	0.0143320
921.885	0.0145426
921.963	0.0142906
922.041	0.0143468
922.119	0.0142643
922.197	0.0142832
922.275	0.0144212
922.353	0.0144492
922.432	0.0143597
922.510	0.0142569
922.588	0.0143560
922.666	0.0143449
922.744	0.0144599
922.822	0.0142633
922.900	0.0141675
922.978	0.0143763
923.057	0.0144494
923.135	0.0142921
923.213	0.0141370
923.291	0.0142986
923.369	0.0143800
923.447	0.0144093
923.525	0.0142434
923.603	0.0142648
923.682	0.0142125
923.760	0.0140959
923.838	0.0142334
923.916	0.0140928
923.994	0.0142660
924.072	0.0142752
924.150	0.0141313
924.228	0.0141478
924.307	0.0142215
924.385	0.0142250
924.463	0.0142703
924.541	0.0141205
924.619	0.0142368
924.697	0.0142565
924.775	0.0142099
924.853	0.0142734
924.932	0.0141967
925.010	0.0142313
925.088	0.0142805
925.166	0.0141774
925.244	0.0141312
925.322	0.0141650
925.400	0.0142351
925.478	0.0140910
925.557	0.0140647
925.635	0.0140627
925.713	0.0140592
925.791	0.0140875
925.869	0.0142291
925.947	0.0140538
926.025	0.0141563
926.103	0.0141153
926.182	0.0141725
926.260	0.0141281
926.338	0.0140261
926.416	0.0141554
926.494	0.0141400
926.572	0.0142459
926.650	0.0143293
926.728	0.0142178
926.807	0.0141934
926.885	0.0142609
926.963	0.0143393
927.041	0.0143475
927.119	0.0142945
927.197	0.0143808
927.275	0.0143741
927.353	0.0143539
927.432	0.0144188
927.510	0.0143475
927.588	0.0143246
927.666	0.0144562
927.744	0.0145267
927.822	0.0144831
927.900	0.0144096
927.978	0.0142566
928.057	0.0143859
928.135	0.0143460
928.213	0.0143319
928.291	0.0144122
928.369	0.0144119
928.447	0.0143005
928.525	0.0144597
928.603	0.0143491
928.682	0.0143056
928.760	0.0143064
928.838	0.0144240
928.916	0.0143825
928.994	0.0143964
929.072	0.0143542
929.150	0.0144244
929.228	0.0145958
929.307	0.0144833
929.385	0.0143578
929.463	0.0144604
929.541	0.0144675
929.619	0.0146372
929.697	0.0143625
929.775	0.0144823
929.853	0.0144941
929.932	0.0145207
930.010	0.0145979
930.088	0.0145515
930.166	0.0143387
930.244	0.0143717
930.322	0.0145594
930.400	0.0144670
930.478	0.0144150
930.557	0.0143530
930.635	0.0144563
930.713	0.0143863
930.791	0.0143750
930.869	0.0143934
930.947	0.0143202
931.025	0.0141660
931.103	0.0144213
931.182	0.0143220
931.260	0.0142679
931.338	0.0143626
931.416	0.0143827
931.494	0.0143113
931.572	0.0143206
931.650	0.0144276
931.728	0.0142796
931.807	0.0142989
931.885	0.0143465
931.963	0.0144220
932.041	0.0142606
932.119	0.0144796
932.197	0.0144751
932.275	0.0143282
932.353	0.0143610
932.432	0.0144827
932.510	0.0144065
932.588	0.0143364
932.666	0.0145419
932.744	0.0142542
932.822	0.0144187
932.900	0.0144936
932.978	0.0144083
933.057	0.0144380
933.135	0.0144448
933.213	0.0144940
933.291	0.0142959
933.369	0.0143370
933.447	0.0143489
933.525	0.0141923
933.603	0.0142720
933.682	0.0142645
933.760	0.0143171
933.838	0.0142602
933.916	0.0140459
933.994	0.0140234
934.072	0.0141903
934.150	0.0141998
934.228	0.0140597
934.307	0.0141454
934.385	0.0141605
934.463	0.0142271
934.541	0.0141056
934.619	0.0142567
934.697	0.0142986
934.775	0.0143252
934.853	0.0141892
934.932	0.0142037
935.010	0.0141921
935.088	0.0142256
935.166	0.0142602
935.244	0.0143891
935.322	0.0143376
935.400	0.0142601
935.478	0.0144379
935.557	0.0143158
935.635	0.0144603
935.713	0.0144090
935.791	0.0144031
935.869	0.0145145
935.947	0.0145388
936.025	0.0144420
936.103	0.0145152
936.182	0.0144893
936.260	0.0142822
936.338	0.0144495
936.416	0.0145019
936.494	0.0144607
936.572	0.0146087
936.650	0.0145148
936.728	0.0145373
936.807	0.0145107
936.885	0.0145761
936.963	0.0144543
937.041	0.0145090
937.119	0.0144502
937.197	0.0144940
937.275	0.0145552
937.353	0.0145557
937.432	0.0144613
937.510	0.0143488
937.588	0.0144037
937.666	0.0144083
937.744	0.0144984
937.822	0.0142164
937.900	0.0143407
937.978	0.0141943
938.057	0.0142651
938.135	0.0142128
938.213	0.0142506
938.291	0.0141994
938.369	0.0143031
938.447	0.0142108
938.525	0.0140502
938.603	0.0141920
938.682	0.0141926
938.760	0.0142184
938.838	0.0142229
938.916	0.0143357
938.994	0.0143346
939.072	0.0143585
939.150	0.0142533
939.228	0.0143611
939.307	0.0142130
939.385	0.0142633
939.463	0.0143677
939.541	0.0144598
939.619	0.0143681
939.697	0.0143113
939.775	0.0144049
939.853	0.0143858
939.932	0.0145290
940.010	0.0144771
940.088	0.0144829
940.166	0.0144155
940.244	0.0144372
940.322	0.0145657
940.400	0.0145258
940.478	0.0144353
940.557	0.0145569
940.635	0.0143849
940.713	0.0144518
940.791	0.0143050
940.869	0.0144440
940.947	0.0144221
941.025	0.0143356
941.103	0.0143697
941.182	0.0144070
941.260	0.0143999
941.338	0.0144652
941.416	0.0143445
941.494	0.0143430
941.572	0.0142650
941.650	0.0143494
941.728	0.0143530
941.807	0.0144532
941.885	0.0143148
941.963	0.0144020
942.041	0.0141743
942.119	0.0143864
942.197	0.0142314
942.275	0.0143831
942.353	0.0141757
942.432	0.0142666
942.510	0.0142670
942.588	0.0140670
942.666	0.0143069
942.744	0.0144659
942.822	0.0143544
942.900	0.0143971
942.978	0.0143524
943.057	0.0142692
943.135	0.0142869
943.213	0.0143539
943.291	0.0143581
943.369	0.0144685
943.447	0.0144253
943.525	0.0142053
943.603	0.0143684
943.682	0.0143878
943.760	0.0144570
943.838	0.0142108
943.916	0.0142276
943.994	0.0143481
944.072	0.0144655
944.150	0.0144263
944.228	0.0143119
944.307	0.0142853
944.385	0.0142527
944.463	0.0142629
944.541	0.0140858
944.619	0.0141254
944.697	0.0143169
944.775	0.0143338
944.853	0.0142384
944.932	0.0142013
945.010	0.0142534
945.088	0.0142839
945.166	0.0141512
945.244	0.0141824
945.322	0.0141637
945.400	0.0142951
945.478	0.0142815
945.557	0.0142471
945.635	0.0141702
945.713	0.0142257
945.791	0.0141958
945.869	0.0144128
945.947	0.0143085
946.025	0.0143299
946.103	0.0142061
946.182	0.0143021
946.260	0.0141506
946.338	0.0143198
946.416	0.0144369
946.494	0.0140993
946.572	0.0140241
946.650	0.0141871
946.728	0.0141125
946.807	0.0140436
946.885	0.0141123
946.963	0.0141498
947.041	0.0141237
947.119	0.0140795
947.197	0.0140987
947.275	0.0142036
947.353	0.0141966
947.432	0.0141711
947.510	0.0140907
947.588	0.0140652
947.666	0.0141928
947.744	0.0142300
947.822	0.0141680
947.900	0.0141591
947.978	0.0141818
948.057	0.0141371
948.135	0.0141087
948.213	0.0140965
948.291	0.0143703
948.369	0.0143457
948.447	0.0143448
948.525	0.0143206
948.603	0.0141843
948.682	0.0142784
948.760	0.0142126
948.838	0.0143060
948.916	0.0144526
948.994	0.0142578
949.072	0.0142663
949.150	0.0143392
949.228	0.0142316
949.307	0.0142271
949.385	0.0141978
949.463	0.0142341
949.541	0.0143224
949.619	0.0144550
949.697	0.0142844
949.775	0.0141147
949.853	0.0143222
949.932	0.0143385
950.010	0.0142706
950.088	0.0142522
950.166	0.0142638
950.244	0.0142855
950.322	0.0142531
950.400	0.0142427
950.478	0.0141763
950.557	0.0142347
950.635	0.0141971
950.713	0.0141196
950.791	0.0141888
950.869	0.0142417
950.947	0.0141853
951.025	0.0142107
951.103	0.0142719
951.182	0.0141209
951.260	0.0141907
951.338	0.0142113
951.416	0.0142410
951.494	0.0142857
951.572	0.0143012
951.650	0.0143623
951.728	0.0143708
951.807	0.0143187
951.885	0.0143913
951.963	0.0142469
952.041	0.0143353
952.119	0.0143557
952.197	0.0143994
952.275	0.0142792
952.353	0.0144975
952.432	0.0143681
952.510	0.0145036
952.588	0.0145812
952.666	0.0144923
952.744	0.0145676
952.822	0.0145431
952.900	0.0145808
952.978	0.0145651
953.057	0.0146577
953.135	0.0145377
953.213	0.0146881
953.291	0.0145458
953.369	0.0143799
953.447	0.0145449
953.525	0.0145181
953.603	0.0143980
953.682	0.0146493
953.760	0.0144913
953.838	0.0145717
953.916	0.0145518
953.994	0.0144120
954.072	0.0144781
954.150	0.0143909
954.228	0.0144405
954.307	0.0145206
954.385	0.0142693
954.463	0.0143819
954.541	0.0144291
954.619	0.0143710
954.697	0.0143616
954.775	0.0141412
954.853	0.0139867
954.932	0.0142052
955.010	0.0141514
955.088	0.0141515
955.166	0.0141632
955.244	0.0141202
955.322	0.0139700
955.400	0.0142004
955.478	0.0140524
955.557	0.0140180
955.635	0.0140875
955.713	0.0141289
955.791	0.0139587
955.869	0.0141926
955.947	0.0139921
956.025	0.0140188
956.103	0.0140366
956.182	0.0140841
956.260	0.0140818
956.338	0.0141146
956.416	0.0141328
956.494	0.0140232
956.572	0.0141393
956.650	0.0141659
956.728	0.0141322
956.807	0.0141256
956.885	0.0140424
956.963	0.0140289
957.041	0.0143368
957.119	0.0142487
957.197	0.0142200
957.275	0.0142451
957.353	0.0142669
957.432	0.0143295
957.510	0.0143404
957.588	0.0142040
957.666	0.0143314
957.744	0.0143415
957.822	0.0141538
957.900	0.0143800
957.978	0.0143297
958.057	0.0143487
958.135	0.0143932
958.213	0.0144336
958.291	0.0143111
958.369	0.0143522
958.447	0.0141987
958.525	0.0141936
958.603	0.0142479
958.682	0.0142495
958.760	0.0141997
958.838	0.0142466
958.916	0.0140483
958.994	0.0141307
959.072	0.0141488
959.150	0.0142071
959.228	0.0140976
959.307	0.0141196
959.385	0.0140950
959.463	0.0140851
959.541	0.0139509
959.619	0.0139795
959.697	0.0141178
959.775	0.0139018
959.853	0.0139769
959.932	0.0141542
960.010	0.0140803
960.088	0.0141118
960.166	0.0139910
960.244	0.0139819
960.322	0.0141000
960.400	0.0140254
960.478	0.0141119
960.557	0.0141068
960.635	0.0141346
960.713	0.0141628
960.791	0.0140859
960.869	0.0141689
960.947	0.0143019
961.025	0.0143026
961.103	0.0143860
961.182	0.0143295
961.260	0.0143739
961.338	0.0143457
961.416	0.0144903
961.494	0.0145442
961.572	0.0144303
961.650	0.0143649
961.728	0.0144764
961.807	0.0144720
961.885	0.0144646
961.963	0.0144712
962.041	0.0143942
962.119	0.0145107
962.197	0.0144476
962.275	0.0145222
962.353	0.0143907
962.432	0.0143878
962.510	0.0144025
962.588	0.0145650
962.666	0.0143997
962.744	0.0143610
962.822	0.0142252
962.900	0.0144574
962.978	0.0143877
963.057	0.0144140
963.135	0.0143121
963.213	0.0143192
963.291	0.0142813
963.369	0.0143357
963.447	0.0143212
963.525	0.0142024
963.603	0.0142737
963.682	0.0142294
963.760	0.0140911
963.838	0.0142073
963.916	0.0142822
963.994	0.0140617
964.072	0.0142136
964.150	0.0141928
964.228	0.0141298
964.307	0.0140694
964.385	0.0139323
964.463	0.0141264
964.541	0.0142158
964.619	0.0140503
964.697	0.0141801
964.775	0.0141512
964.853	0.0141695
964.932	0.0141889
965.010	0.0141846
965.088	0.0142513
965.166	0.0142894
965.244	0.0142080
965.322	0.0143162
965.400	0.0144823
965.478	0.0144074
965.557	0.0146139
965.635	0.0144616
965.713	0.0143872
965.791	0.0145029
965.869	0.0146031
965.947	0.0145736
966.025	0.0143997
966.103	0.0144830
966.182	0.0147319
966.260	0.0145242
966.338	0.0144860
966.416	0.0145229
966.494	0.0145884
966.572	0.0145856
966.650	0.0145400
966.728	0.0144999
966.807	0.0143534
966.885	0.0143814
966.963	0.0143271
967.041	0.0143251
967.119	0.0144842
967.197	0.0142756
967.275	0.0143292
967.353	0.0142577
967.432	0.0142495
967.510	0.0142687
967.588	0.0142802
967.666	0.0142165
967.744	0.0140659
967.822	0.0142416
967.900	0.0140051
967.978	0.0141393
968.057	0.0140162
968.135	0.0138432
968.213	0.0139203
968.291	0.0140208
968.369	0.0140441
968.447	0.0139407
968.525	0.0138905
968.603	0.0139625
968.682	0.0139323
968.760	0.0139946
968.838	0.0140078
968.916	0.0140157
968.994	0.0139186
969.072	0.0139404
969.150	0.0139685
969.228	0.0139591
969.307	0.0138967
969.385	0.0139944
969.463	0.0139323
969.541	0.0141085
969.619	0.0141193
969.697	0.0140807
969.775	0.0141893
969.853	0.0142546
969.932	0.0142690
