05/14/2022	19:36:51	Ver.	4.1	UNKNOWN
Optical Delay	650.009681	Delta X		0.078125	Sweeps	1	Scan Rate	0/0
Coordinates	Axis 1	NaN	Axis 2	NaN	Axis 3	NaN	Axis 4	NaN	Axis 5	NaN	Axis 6	0.000000
TX Power	0.000000	RX Power	0.000000

650.010	0.0141437
650.088	0.0140585
650.166	0.0140422
650.244	0.0140804
650.322	0.0139573
650.400	0.0139070
650.478	0.0140551
650.557	0.0139714
650.635	0.0140227
650.713	0.0140742
650.791	0.0142051
650.869	0.0139803
650.947	0.0140279
651.025	0.0140903
651.103	0.0140041
651.182	0.0140260
651.260	0.0141441
651.338	0.0140648
651.416	0.0139821
651.494	0.0140988
651.572	0.0140894
651.650	0.0140881
651.728	0.0141026
651.807	0.0141266
651.885	0.0140903
651.963	0.0140273
652.041	0.0141454
652.119	0.0141759
652.197	0.0140196
652.275	0.0141026
652.353	0.0141878
652.432	0.0139862
652.510	0.0139600
652.588	0.0141573
652.666	0.0140423
652.744	0.0139648
652.822	0.0141008
652.900	0.0141181
652.978	0.0140308
653.057	0.0141964
653.135	0.0142181
653.213	0.0140973
653.291	0.0141534
653.369	0.0140653
653.447	0.0142005
653.525	0.0141367
653.603	0.0142340
653.682	0.0141499
653.760	0.0141579
653.838	0.0139133
653.916	0.0139478
653.994	0.0139250
654.072	0.0139974
654.150	0.0139146
654.228	0.0138836
654.307	0.0138856
654.385	0.0139600
654.463	0.0140071
654.541	0.0140799
654.619	0.0140204
654.697	0.0141121
654.775	0.0140968
654.853	0.0141946
654.932	0.0142337
655.010	0.0141468
655.088	0.0141343
655.166	0.0142758
655.244	0.0141821
655.322	0.0140611
655.400	0.0142438
655.478	0.0142891
655.557	0.0141290
655.635	0.0141106
655.713	0.0139465
655.791	0.0141804
655.869	0.0139710
655.947	0.0138554
656.025	0.0138553
656.103	0.0138657
656.182	0.0139098
656.260	0.0140103
656.338	0.0140522
656.416	0.0140582
656.494	0.0141037
656.572	0.0139397
656.650	0.0142382
656.728	0.0143102
656.807	0.0142260
656.885	0.0141060
656.963	0.0141598
657.041	0.0142746
657.119	0.0142941
657.197	0.0143183
657.275	0.0143089
657.353	0.0142256
657.432	0.0143870
657.510	0.0140786
657.588	0.0142384
657.666	0.0141946
657.744	0.0140873
657.822	0.0143127
657.900	0.0142376
657.978	0.0142400
658.057	0.0141990
658.135	0.0140779
658.213	0.0141179
658.291	0.0141067
658.369	0.0141668
658.447	0.0142262
658.525	0.0142864
658.603	0.0143642
658.682	0.0143292
658.760	0.0142048
658.838	0.0142531
658.916	0.0143990
658.994	0.0142507
659.072	0.0143121
659.150	0.0142950
659.228	0.0143092
659.307	0.0142919
659.385	0.0142652
659.463	0.0141602
659.541	0.0139966
659.619	0.0138886
659.697	0.0139207
659.775	0.0137820
659.853	0.0136602
659.932	0.0135783
660.010	0.0134471
660.088	0.0133881
660.166	0.0134477
660.244	0.0135151
660.322	0.0133360
660.400	0.0136492
660.478	0.0136229
660.557	0.0137190
660.635	0.0138675
660.713	0.0139551
660.791	0.0140874
660.869	0.0139668
660.947	0.0142892
661.025	0.0143618
661.103	0.0144814
661.182	0.0143844
661.260	0.0144170
661.338	0.0146385
661.416	0.0147285
661.494	0.0147361
661.572	0.0148293
661.650	0.0148651
661.728	0.0149105
661.807	0.0149098
661.885	0.0146568
661.963	0.0147822
662.041	0.0148045
662.119	0.0148573
662.197	0.0145713
662.275	0.0144825
662.353	0.0144456
662.432	0.0143048
662.510	0.0140996
662.588	0.0140099
662.666	0.0139220
662.744	0.0136275
662.822	0.0134053
662.900	0.0132144
662.978	0.0129449
663.057	0.0130335
663.135	0.0128216
663.213	0.0125388
663.291	0.0126043
663.369	0.0125485
663.447	0.0124655
663.525	0.0125354
663.603	0.0125843
663.682	0.0126499
663.760	0.0127123
663.838	0.0127298
663.916	0.0128669
663.994	0.0129916
664.072	0.0130691
664.150	0.0133786
664.228	0.0136833
664.307	0.0139351
664.385	0.0140407
664.463	0.0142370
664.541	0.0146016
664.619	0.0149567
664.697	0.0151826
664.775	0.0153259
664.853	0.0157242
664.932	0.0159048
665.010	0.0160957
665.088	0.0161254
665.166	0.0163232
665.244	0.0162353
665.322	0.0164668
665.400	0.0165468
665.478	0.0163818
665.557	0.0164075
665.635	0.0162273
665.713	0.0162258
665.791	0.0159097
665.869	0.0156146
665.947	0.0152195
666.025	0.0146526
666.103	0.0143925
666.182	0.0139034
666.260	0.0133698
666.338	0.0129248
666.416	0.0125188
666.494	0.0119820
666.572	0.0114166
666.650	0.0110497
666.728	0.0108016
666.807	0.0105672
666.885	0.0104676
666.963	0.0103825
667.041	0.0102855
667.119	0.0103436
667.197	0.0104739
667.275	0.0105996
667.353	0.0108721
667.432	0.0111591
667.510	0.0114146
667.588	0.0118689
667.666	0.0123106
667.744	0.0128345
667.822	0.0133504
667.900	0.0137816
667.978	0.0144533
668.057	0.0150420
668.135	0.0157037
668.213	0.0161742
668.291	0.0168478
668.369	0.0173908
668.447	0.0178453
668.525	0.0182819
668.603	0.0184236
668.682	0.0186491
668.760	0.0187401
668.838	0.0188361
668.916	0.0187670
668.994	0.0185710
669.072	0.0183418
669.150	0.0179713
669.228	0.0176390
669.307	0.0171955
669.385	0.0166898
669.463	0.0160567
669.541	0.0156262
669.619	0.0149711
669.697	0.0143587
669.775	0.0137800
669.853	0.0131059
669.932	0.0124875
670.010	0.0118765
670.088	0.0113306
670.166	0.0109490
670.244	0.0104198
670.322	0.00999290
670.400	0.00956680
670.478	0.00933212
670.557	0.00942337
670.635	0.00925232
670.713	0.00920578
670.791	0.00940315
670.869	0.00952988
670.947	0.00973701
671.025	0.0101530
671.103	0.0105646
671.182	0.0108743
671.260	0.0115247
671.338	0.0120439
671.416	0.0125726
671.494	0.0132360
671.572	0.0137705
671.650	0.0144689
671.728	0.0150861
671.807	0.0157245
671.885	0.0161938
671.963	0.0165934
672.041	0.0169292
672.119	0.0174006
672.197	0.0177039
672.275	0.0179757
672.353	0.0181355
672.432	0.0181088
672.510	0.0183179
672.588	0.0182104
672.666	0.0180434
672.744	0.0179209
672.822	0.0176367
672.900	0.0175060
672.978	0.0171937
673.057	0.0170348
673.135	0.0166687
673.213	0.0162457
673.291	0.0157366
673.369	0.0153854
673.447	0.0149057
673.525	0.0144361
673.603	0.0140137
673.682	0.0134956
673.760	0.0129713
673.838	0.0126034
673.916	0.0122866
673.994	0.0118830
674.072	0.0118298
674.150	0.0116584
674.228	0.0115411
674.307	0.0114243
674.385	0.0114426
674.463	0.0115063
674.541	0.0115586
674.619	0.0116798
674.697	0.0117525
674.775	0.0118411
674.853	0.0118253
674.932	0.0119514
675.010	0.0119290
675.088	0.0121952
675.166	0.0121886
675.244	0.0123514
675.322	0.0124266
675.400	0.0125263
675.478	0.0126362
675.557	0.0127214
675.635	0.0130277
675.713	0.0131795
675.791	0.0132653
675.869	0.0136588
675.947	0.0137173
676.025	0.0137657
676.103	0.0138521
676.182	0.0141219
676.260	0.0142148
676.338	0.0141380
676.416	0.0145264
676.494	0.0145857
676.572	0.0148957
676.650	0.0149466
676.728	0.0151466
676.807	0.0154467
676.885	0.0158057
676.963	0.0158967
677.041	0.0160007
677.119	0.0162446
677.197	0.0164532
677.275	0.0167130
677.353	0.0167353
677.432	0.0167258
677.510	0.0167983
677.588	0.0168661
677.666	0.0168800
677.744	0.0167754
677.822	0.0166555
677.900	0.0165484
677.978	0.0163365
678.057	0.0162650
678.135	0.0160168
678.213	0.0158433
678.291	0.0153961
678.369	0.0151587
678.447	0.0147598
678.525	0.0145776
678.603	0.0141234
678.682	0.0136314
678.760	0.0133141
678.838	0.0130463
678.916	0.0126650
678.994	0.0123033
679.072	0.0121750
679.150	0.0118360
679.228	0.0116678
679.307	0.0115804
679.385	0.0114611
679.463	0.0114581
679.541	0.0115327
679.619	0.0115041
679.697	0.0115176
679.775	0.0115935
679.853	0.0116309
679.932	0.0118410
680.010	0.0119455
680.088	0.0121567
680.166	0.0123608
680.244	0.0125192
680.322	0.0128401
680.400	0.0130161
680.478	0.0133789
680.557	0.0137852
680.635	0.0138721
680.713	0.0142201
680.791	0.0143439
680.869	0.0146420
680.947	0.0148807
681.025	0.0149628
681.103	0.0151628
681.182	0.0153126
681.260	0.0153355
681.338	0.0154195
681.416	0.0154599
681.494	0.0155506
681.572	0.0156624
681.650	0.0155988
681.728	0.0157124
681.807	0.0157227
681.885	0.0157471
681.963	0.0156241
682.041	0.0155431
682.119	0.0155943
682.197	0.0155433
682.275	0.0154785
682.353	0.0151987
682.432	0.0152770
682.510	0.0152139
682.588	0.0151204
682.666	0.0151469
682.744	0.0151492
682.822	0.0150117
682.900	0.0151003
682.978	0.0149451
683.057	0.0149494
683.135	0.0148851
683.213	0.0149122
683.291	0.0147231
683.369	0.0147615
683.447	0.0146164
683.525	0.0142335
683.603	0.0141037
683.682	0.0140932
683.760	0.0140285
683.838	0.0137496
683.916	0.0134353
683.994	0.0133187
684.072	0.0131158
684.150	0.0127971
684.228	0.0127159
684.307	0.0125027
684.385	0.0123391
684.463	0.0121776
684.541	0.0120441
684.619	0.0120525
684.697	0.0118188
684.775	0.0119149
684.853	0.0118526
684.932	0.0119880
685.010	0.0119269
685.088	0.0120596
685.166	0.0119645
685.244	0.0121062
685.322	0.0122456
685.400	0.0122991
685.478	0.0124636
685.557	0.0125498
685.635	0.0128539
685.713	0.0130753
685.791	0.0133864
685.869	0.0136209
685.947	0.0139697
686.025	0.0141897
686.103	0.0146539
686.182	0.0150912
686.260	0.0152943
686.338	0.0156481
686.416	0.0159991
686.494	0.0163291
686.572	0.0163845
686.650	0.0166006
686.728	0.0165932
686.807	0.0168060
686.885	0.0169372
686.963	0.0168249
687.041	0.0168341
687.119	0.0165385
687.197	0.0163170
687.275	0.0162518
687.353	0.0159747
687.432	0.0157384
687.510	0.0154070
687.588	0.0150494
687.666	0.0147019
687.744	0.0144772
687.822	0.0139777
687.900	0.0139020
687.978	0.0133646
688.057	0.0131521
688.135	0.0130388
688.213	0.0128814
688.291	0.0124191
688.369	0.0121980
688.447	0.0121397
688.525	0.0118941
688.603	0.0117803
688.682	0.0117836
688.760	0.0118130
688.838	0.0118071
688.916	0.0119227
688.994	0.0121053
689.072	0.0121030
689.150	0.0124875
689.228	0.0128619
689.307	0.0129587
689.385	0.0132965
689.463	0.0135273
689.541	0.0139864
689.619	0.0143168
689.697	0.0146323
689.775	0.0147059
689.853	0.0150883
689.932	0.0152445
690.010	0.0155330
690.088	0.0156244
690.166	0.0157215
690.244	0.0157203
690.322	0.0155787
690.400	0.0156046
690.478	0.0153992
690.557	0.0151431
690.635	0.0150022
690.713	0.0150200
690.791	0.0146104
690.869	0.0144786
690.947	0.0141769
691.025	0.0137498
691.103	0.0134870
691.182	0.0133428
691.260	0.0130730
691.338	0.0128563
691.416	0.0125839
691.494	0.0125558
691.572	0.0127433
691.650	0.0125993
691.728	0.0127821
691.807	0.0129880
691.885	0.0129591
691.963	0.0130306
692.041	0.0133761
692.119	0.0135883
692.197	0.0137865
692.275	0.0140811
692.353	0.0142592
692.432	0.0143231
692.510	0.0144625
692.588	0.0147789
692.666	0.0147427
692.744	0.0148567
692.822	0.0148396
692.900	0.0148556
692.978	0.0149863
693.057	0.0148700
693.135	0.0147218
693.213	0.0146091
693.291	0.0145415
693.369	0.0142437
693.447	0.0142772
693.525	0.0142762
693.603	0.0142117
693.682	0.0141035
693.760	0.0139935
693.838	0.0138264
693.916	0.0140137
693.994	0.0138703
694.072	0.0138749
694.150	0.0137014
694.228	0.0138085
694.307	0.0137483
694.385	0.0138139
694.463	0.0136405
694.541	0.0137849
694.619	0.0137525
694.697	0.0138512
694.775	0.0138586
694.853	0.0138367
694.932	0.0138202
695.010	0.0138903
695.088	0.0139828
695.166	0.0140051
695.244	0.0141655
695.322	0.0142854
695.400	0.0141856
695.478	0.0141046
695.557	0.0140342
695.635	0.0142074
695.713	0.0141797
695.791	0.0139341
695.869	0.0139129
695.947	0.0139428
696.025	0.0138137
696.103	0.0135536
696.182	0.0134927
696.260	0.0135940
696.338	0.0136212
696.416	0.0136938
696.494	0.0135551
696.572	0.0135505
696.650	0.0135555
696.728	0.0136044
696.807	0.0136880
696.885	0.0137177
696.963	0.0137258
697.041	0.0137028
697.119	0.0138050
697.197	0.0137966
697.275	0.0138838
697.353	0.0139700
697.432	0.0139665
697.510	0.0140497
697.588	0.0140730
697.666	0.0142106
697.744	0.0141353
697.822	0.0141568
697.900	0.0142459
697.978	0.0143723
698.057	0.0144317
698.135	0.0143039
698.213	0.0143866
698.291	0.0144606
698.369	0.0143163
698.447	0.0142164
698.525	0.0143567
698.603	0.0140601
698.682	0.0140880
698.760	0.0139818
698.838	0.0138507
698.916	0.0139077
698.994	0.0137289
699.072	0.0136474
699.150	0.0135500
699.228	0.0135844
699.307	0.0134637
699.385	0.0134116
699.463	0.0134528
699.541	0.0134360
699.619	0.0134937
699.697	0.0134218
699.775	0.0134809
699.853	0.0134846
699.932	0.0135433
700.010	0.0135515
700.088	0.0136956
700.166	0.0137115
700.244	0.0136835
700.322	0.0138629
700.400	0.0139507
700.478	0.0138291
700.557	0.0139299
700.635	0.0140391
700.713	0.0140025
700.791	0.0140816
700.869	0.0141353
700.947	0.0140524
701.025	0.0144274
701.103	0.0144614
701.182	0.0144661
701.260	0.0144749
701.338	0.0145793
701.416	0.0146604
701.494	0.0146883
701.572	0.0147811
701.650	0.0148971
701.728	0.0148666
701.807	0.0148827
701.885	0.0151575
701.963	0.0149696
702.041	0.0150674
702.119	0.0150345
702.197	0.0151200
702.275	0.0153304
702.353	0.0152565
702.432	0.0153162
702.510	0.0153496
702.588	0.0153959
702.666	0.0152843
702.744	0.0152795
702.822	0.0151867
702.900	0.0151463
702.978	0.0149375
703.057	0.0150105
703.135	0.0147417
703.213	0.0145423
703.291	0.0142930
703.369	0.0139139
703.447	0.0140263
703.525	0.0138438
703.603	0.0136574
703.682	0.0134945
703.760	0.0134751
703.838	0.0132735
703.916	0.0133140
703.994	0.0130789
704.072	0.0131812
704.150	0.0131322
704.228	0.0128717
704.307	0.0129247
704.385	0.0127798
704.463	0.0128033
704.541	0.0127244
704.619	0.0125514
704.697	0.0124051
704.775	0.0122725
704.853	0.0122715
704.932	0.0122485
705.010	0.0122562
705.088	0.0122323
705.166	0.0124071
705.244	0.0124306
705.322	0.0126749
705.400	0.0127258
705.478	0.0128696
705.557	0.0130971
705.635	0.0135085
705.713	0.0136237
705.791	0.0138120
705.869	0.0140777
705.947	0.0141529
706.025	0.0142325
706.103	0.0146201
706.182	0.0146951
706.260	0.0150445
706.338	0.0150171
706.416	0.0150458
706.494	0.0151172
706.572	0.0152493
706.650	0.0154358
706.728	0.0154020
706.807	0.0156167
706.885	0.0155244
706.963	0.0155185
707.041	0.0158030
707.119	0.0157697
707.197	0.0157102
707.275	0.0157069
707.353	0.0158594
707.432	0.0157930
707.510	0.0156864
707.588	0.0155924
707.666	0.0155354
707.744	0.0154906
707.822	0.0153247
707.900	0.0151013
707.978	0.0149813
708.057	0.0149272
708.135	0.0146979
708.213	0.0146304
708.291	0.0142834
708.369	0.0139951
708.447	0.0139226
708.525	0.0138553
708.603	0.0136500
708.682	0.0134786
708.760	0.0132929
708.838	0.0131268
708.916	0.0129911
708.994	0.0128701
709.072	0.0126128
709.150	0.0125687
709.228	0.0125890
709.307	0.0123463
709.385	0.0122586
709.463	0.0122302
709.541	0.0121732
709.619	0.0121204
709.697	0.0120383
709.775	0.0120090
709.853	0.0122372
709.932	0.0123151
710.010	0.0123673
710.088	0.0125272
710.166	0.0126959
710.244	0.0127652
710.322	0.0130244
710.400	0.0131685
710.478	0.0132399
710.557	0.0133615
710.635	0.0137942
710.713	0.0137709
710.791	0.0140187
710.869	0.0141143
710.947	0.0141812
711.025	0.0143646
711.103	0.0145415
711.182	0.0147029
711.260	0.0146498
711.338	0.0149780
711.416	0.0149206
711.494	0.0149639
711.572	0.0152452
711.650	0.0153749
711.728	0.0154153
711.807	0.0155654
711.885	0.0156577
711.963	0.0156319
712.041	0.0156106
712.119	0.0155477
712.197	0.0154020
712.275	0.0154409
712.353	0.0153963
712.432	0.0150319
712.510	0.0150306
712.588	0.0149480
712.666	0.0147034
712.744	0.0146441
712.822	0.0144598
712.900	0.0143636
712.978	0.0143337
713.057	0.0138484
713.135	0.0137676
713.213	0.0139038
713.291	0.0137334
713.369	0.0135736
713.447	0.0135217
713.525	0.0133414
713.603	0.0135854
713.682	0.0133743
713.760	0.0132232
713.838	0.0132183
713.916	0.0132039
713.994	0.0133256
714.072	0.0134052
714.150	0.0132500
714.228	0.0132675
714.307	0.0134077
714.385	0.0135107
714.463	0.0135274
714.541	0.0136918
714.619	0.0136958
714.697	0.0138950
714.775	0.0139162
714.853	0.0139827
714.932	0.0138959
715.010	0.0139944
715.088	0.0141022
715.166	0.0141157
715.244	0.0142049
715.322	0.0141599
715.400	0.0140872
715.478	0.0138969
715.557	0.0139421
715.635	0.0139324
715.713	0.0138762
715.791	0.0137534
715.869	0.0137210
715.947	0.0136907
716.025	0.0137997
716.103	0.0135388
716.182	0.0136208
716.260	0.0136425
716.338	0.0134228
716.416	0.0133585
716.494	0.0134270
716.572	0.0134077
716.650	0.0132884
716.728	0.0134861
716.807	0.0133548
716.885	0.0132754
716.963	0.0134306
717.041	0.0134656
717.119	0.0134214
717.197	0.0134861
717.275	0.0135766
717.353	0.0134974
717.432	0.0135152
717.510	0.0135642
717.588	0.0137421
717.666	0.0137289
717.744	0.0139082
717.822	0.0138847
717.900	0.0138567
717.978	0.0139445
718.057	0.0139661
718.135	0.0140623
718.213	0.0140930
718.291	0.0140827
718.369	0.0141380
718.447	0.0141321
718.525	0.0142025
718.603	0.0141503
718.682	0.0141135
718.760	0.0142141
718.838	0.0144115
718.916	0.0143893
718.994	0.0143476
719.072	0.0144225
719.150	0.0145042
719.228	0.0146381
719.307	0.0146017
719.385	0.0146612
719.463	0.0147605
719.541	0.0146802
719.619	0.0148019
719.697	0.0146908
719.775	0.0145827
719.853	0.0147941
719.932	0.0146207
720.010	0.0145607
720.088	0.0144736
720.166	0.0146031
720.244	0.0143835
720.322	0.0143612
720.400	0.0144799
720.478	0.0144009
720.557	0.0142389
720.635	0.0142487
720.713	0.0143613
720.791	0.0142163
720.869	0.0141667
720.947	0.0141864
721.025	0.0140499
721.103	0.0141516
721.182	0.0143116
721.260	0.0142393
721.338	0.0142252
721.416	0.0141977
721.494	0.0142570
721.572	0.0143421
721.650	0.0141990
721.728	0.0142072
721.807	0.0141027
721.885	0.0141073
721.963	0.0140627
722.041	0.0140591
722.119	0.0140684
722.197	0.0139883
722.275	0.0139700
722.353	0.0137667
722.432	0.0136875
722.510	0.0137952
722.588	0.0137089
722.666	0.0135301
722.744	0.0134389
722.822	0.0134679
722.900	0.0134328
722.978	0.0134467
723.057	0.0134191
723.135	0.0134022
723.213	0.0133513
723.291	0.0134344
723.369	0.0134396
723.447	0.0133549
723.525	0.0132671
723.603	0.0132223
723.682	0.0133114
723.760	0.0132462
723.838	0.0131644
723.916	0.0129691
723.994	0.0132040
724.072	0.0132485
724.150	0.0130894
724.228	0.0132496
724.307	0.0131227
724.385	0.0132198
724.463	0.0131934
724.541	0.0132664
724.619	0.0135712
724.697	0.0134454
724.775	0.0136517
724.853	0.0138783
724.932	0.0140911
725.010	0.0142899
725.088	0.0143706
725.166	0.0144570
725.244	0.0148668
725.322	0.0149506
725.400	0.0151512
725.478	0.0152383
725.557	0.0153351
725.635	0.0153319
725.713	0.0156570
725.791	0.0156842
725.869	0.0157857
725.947	0.0157175
726.025	0.0155937
726.103	0.0154925
726.182	0.0156265
726.260	0.0155771
726.338	0.0155411
726.416	0.0153633
726.494	0.0152937
726.572	0.0150129
726.650	0.0150130
726.728	0.0146804
726.807	0.0145285
726.885	0.0144357
726.963	0.0142609
727.041	0.0140577
727.119	0.0139600
727.197	0.0136602
727.275	0.0134695
727.353	0.0132072
727.432	0.0130879
727.510	0.0130655
727.588	0.0127879
727.666	0.0128430
727.744	0.0127932
727.822	0.0128043
727.900	0.0127957
727.978	0.0126437
728.057	0.0126540
728.135	0.0128029
728.213	0.0129169
728.291	0.0129078
728.369	0.0127943
728.447	0.0130054
728.525	0.0130948
728.603	0.0131767
728.682	0.0132936
728.760	0.0133187
728.838	0.0134039
728.916	0.0134813
728.994	0.0137134
729.072	0.0138026
729.150	0.0138669
729.228	0.0138990
729.307	0.0140850
729.385	0.0142467
729.463	0.0142334
729.541	0.0143410
729.619	0.0144630
729.697	0.0145093
729.775	0.0146289
729.853	0.0146820
729.932	0.0145751
730.010	0.0146445
730.088	0.0144946
730.166	0.0146570
730.244	0.0146449
730.322	0.0145946
730.400	0.0144598
730.478	0.0144917
730.557	0.0145967
730.635	0.0144057
730.713	0.0142947
730.791	0.0142813
730.869	0.0143709
730.947	0.0142344
731.025	0.0141230
731.103	0.0140074
731.182	0.0139337
731.260	0.0138150
731.338	0.0136739
731.416	0.0137818
731.494	0.0136800
731.572	0.0138441
731.650	0.0137542
731.728	0.0135607
731.807	0.0135424
731.885	0.0136585
731.963	0.0136681
732.041	0.0137592
732.119	0.0137783
732.197	0.0137505
732.275	0.0138829
732.353	0.0139334
732.432	0.0140134
732.510	0.0140829
732.588	0.0138531
732.666	0.0139542
732.744	0.0141290
732.822	0.0142486
732.900	0.0140508
732.978	0.0140704
733.057	0.0141466
733.135	0.0141901
733.213	0.0141582
733.291	0.0140987
733.369	0.0141695
733.447	0.0141915
733.525	0.0141228
733.603	0.0142374
733.682	0.0142213
733.760	0.0141758
733.838	0.0142357
733.916	0.0140603
733.994	0.0141650
734.072	0.0142054
734.150	0.0143049
734.228	0.0143294
734.307	0.0141768
734.385	0.0141144
734.463	0.0141874
734.541	0.0139828
734.619	0.0140650
734.697	0.0139639
734.775	0.0139699
734.853	0.0141043
734.932	0.0140753
735.010	0.0139019
735.088	0.0137843
735.166	0.0138727
735.244	0.0140018
735.322	0.0138972
735.400	0.0136227
735.478	0.0137033
735.557	0.0137912
735.635	0.0136116
735.713	0.0136649
735.791	0.0135431
735.869	0.0135500
735.947	0.0134090
736.025	0.0134261
736.103	0.0134651
736.182	0.0135226
736.260	0.0133450
736.338	0.0134203
736.416	0.0134476
736.494	0.0134132
736.572	0.0134369
736.650	0.0134245
736.728	0.0133420
736.807	0.0133801
736.885	0.0134232
736.963	0.0135532
737.041	0.0136612
737.119	0.0137135
737.197	0.0137627
737.275	0.0137576
737.353	0.0139099
737.432	0.0138290
737.510	0.0138388
737.588	0.0139312
737.666	0.0140079
737.744	0.0139723
737.822	0.0140897
737.900	0.0142072
737.978	0.0140853
738.057	0.0141279
738.135	0.0142235
738.213	0.0141714
738.291	0.0142157
738.369	0.0145061
738.447	0.0143542
738.525	0.0144737
738.603	0.0144518
738.682	0.0146268
738.760	0.0145371
738.838	0.0145754
738.916	0.0147551
738.994	0.0146833
739.072	0.0147013
739.150	0.0146738
739.228	0.0147126
739.307	0.0146081
739.385	0.0146052
739.463	0.0145441
739.541	0.0145057
739.619	0.0144628
739.697	0.0143143
739.775	0.0142309
739.853	0.0143506
739.932	0.0141947
740.010	0.0141238
740.088	0.0141179
740.166	0.0139207
740.244	0.0138602
740.322	0.0139365
740.400	0.0137312
740.478	0.0136025
740.557	0.0135889
740.635	0.0134727
740.713	0.0134416
740.791	0.0134445
740.869	0.0134980
740.947	0.0136285
741.025	0.0136103
741.103	0.0134572
741.182	0.0134731
741.260	0.0136117
741.338	0.0137012
741.416	0.0134631
741.494	0.0137074
741.572	0.0138853
741.650	0.0137621
741.728	0.0137679
741.807	0.0138103
741.885	0.0139131
741.963	0.0139412
742.041	0.0139451
742.119	0.0139613
742.197	0.0139485
742.275	0.0139671
742.353	0.0140073
742.432	0.0140356
742.510	0.0139438
742.588	0.0139984
742.666	0.0139147
742.744	0.0140482
742.822	0.0140106
742.900	0.0140213
742.978	0.0140670
743.057	0.0139753
743.135	0.0140311
743.213	0.0141690
743.291	0.0139339
743.369	0.0141971
743.447	0.0140314
743.525	0.0140855
743.603	0.0141315
743.682	0.0141708
743.760	0.0141502
743.838	0.0142687
743.916	0.0141785
743.994	0.0141789
744.072	0.0141715
744.150	0.0141338
744.228	0.0142311
744.307	0.0141861
744.385	0.0139337
744.463	0.0141663
744.541	0.0141830
744.619	0.0140818
744.697	0.0141390
744.775	0.0142786
744.853	0.0140229
744.932	0.0138860
745.010	0.0140015
745.088	0.0141430
745.166	0.0141597
745.244	0.0141198
745.322	0.0140429
745.400	0.0142947
745.478	0.0142387
745.557	0.0142514
745.635	0.0141707
745.713	0.0142546
745.791	0.0141936
745.869	0.0140874
745.947	0.0141687
746.025	0.0142626
746.103	0.0141695
746.182	0.0141126
746.260	0.0142293
746.338	0.0141331
746.416	0.0141371
746.494	0.0139571
746.572	0.0138902
746.650	0.0139944
746.728	0.0139390
746.807	0.0139481
746.885	0.0140399
746.963	0.0140085
747.041	0.0139871
747.119	0.0139874
747.197	0.0141616
747.275	0.0140025
747.353	0.0142033
747.432	0.0141461
747.510	0.0141035
747.588	0.0141977
747.666	0.0141198
747.744	0.0143251
747.822	0.0142620
747.900	0.0141132
747.978	0.0143159
748.057	0.0143436
748.135	0.0143487
748.213	0.0145445
748.291	0.0143974
748.369	0.0144178
748.447	0.0143807
748.525	0.0144503
748.603	0.0143393
748.682	0.0143595
748.760	0.0144244
748.838	0.0141078
748.916	0.0141895
748.994	0.0142932
749.072	0.0142207
749.150	0.0141135
749.228	0.0139832
749.307	0.0138798
749.385	0.0137760
749.463	0.0139645
749.541	0.0138924
749.619	0.0138939
749.697	0.0139556
749.775	0.0138760
749.853	0.0136810
749.932	0.0137124
750.010	0.0137602
750.088	0.0135614
750.166	0.0137537
750.244	0.0138007
750.322	0.0137058
750.400	0.0136505
750.478	0.0136915
750.557	0.0136777
750.635	0.0137772
750.713	0.0138727
750.791	0.0138985
750.869	0.0137912
750.947	0.0139377
751.025	0.0138943
751.103	0.0140913
751.182	0.0139037
751.260	0.0140852
751.338	0.0140560
751.416	0.0142101
751.494	0.0140047
751.572	0.0142399
751.650	0.0142609
751.728	0.0140238
751.807	0.0142682
751.885	0.0141280
751.963	0.0141747
752.041	0.0142377
752.119	0.0141780
752.197	0.0142357
752.275	0.0142680
752.353	0.0143409
752.432	0.0141931
752.510	0.0141805
752.588	0.0141953
752.666	0.0141901
752.744	0.0141305
752.822	0.0142241
752.900	0.0141504
752.978	0.0141625
753.057	0.0141190
753.135	0.0141901
753.213	0.0141087
753.291	0.0140601
753.369	0.0141322
753.447	0.0141953
753.525	0.0142202
753.603	0.0142136
753.682	0.0140703
753.760	0.0142325
753.838	0.0143151
753.916	0.0142344
753.994	0.0141783
754.072	0.0141862
754.150	0.0142947
754.228	0.0140942
754.307	0.0141183
754.385	0.0141183
754.463	0.0142448
754.541	0.0140865
754.619	0.0140791
754.697	0.0143364
754.775	0.0142197
754.853	0.0142096
754.932	0.0141550
755.010	0.0141125
755.088	0.0141467
755.166	0.0141888
755.244	0.0141347
755.322	0.0141531
755.400	0.0140678
755.478	0.0141830
755.557	0.0140683
755.635	0.0140372
755.713	0.0140927
755.791	0.0139248
755.869	0.0140937
755.947	0.0139838
756.025	0.0139550
756.103	0.0138207
756.182	0.0137671
756.260	0.0138299
756.338	0.0138107
756.416	0.0137682
756.494	0.0137595
756.572	0.0136629
756.650	0.0136449
756.728	0.0135197
756.807	0.0136537
756.885	0.0135394
756.963	0.0135519
757.041	0.0134997
757.119	0.0134711
757.197	0.0135600
757.275	0.0135237
757.353	0.0136718
757.432	0.0136182
757.510	0.0135940
757.588	0.0137167
757.666	0.0137803
757.744	0.0136193
757.822	0.0137049
757.900	0.0138586
757.978	0.0138315
758.057	0.0138953
758.135	0.0139222
758.213	0.0139654
758.291	0.0138700
758.369	0.0141283
758.447	0.0138837
758.525	0.0139902
758.603	0.0139848
758.682	0.0140240
758.760	0.0141063
758.838	0.0140726
758.916	0.0140173
758.994	0.0140600
759.072	0.0141618
759.150	0.0141927
759.228	0.0138366
759.307	0.0139629
759.385	0.0139725
759.463	0.0140652
759.541	0.0140517
759.619	0.0139643
759.697	0.0139316
759.775	0.0139807
759.853	0.0140000
759.932	0.0140411
760.010	0.0139851
760.088	0.0139421
760.166	0.0138908
760.244	0.0139851
760.322	0.0139634
760.400	0.0140735
760.478	0.0140926
760.557	0.0142039
760.635	0.0142229
760.713	0.0142027
760.791	0.0141995
760.869	0.0141721
760.947	0.0143649
761.025	0.0143814
761.103	0.0143808
761.182	0.0143628
761.260	0.0143609
761.338	0.0142050
761.416	0.0143994
761.494	0.0143865
761.572	0.0143731
761.650	0.0143634
761.728	0.0142194
761.807	0.0143296
761.885	0.0143565
761.963	0.0141693
762.041	0.0142898
762.119	0.0143526
762.197	0.0141719
762.275	0.0142265
762.353	0.0142016
762.432	0.0139819
762.510	0.0139790
762.588	0.0140322
762.666	0.0138309
762.744	0.0137063
762.822	0.0137848
762.900	0.0137144
762.978	0.0137447
763.057	0.0136211
763.135	0.0136561
763.213	0.0134219
763.291	0.0134713
763.369	0.0135378
763.447	0.0134619
763.525	0.0135748
763.603	0.0134438
763.682	0.0133069
763.760	0.0133342
763.838	0.0135341
763.916	0.0134551
763.994	0.0135617
764.072	0.0135172
764.150	0.0135538
764.228	0.0137035
764.307	0.0138266
764.385	0.0139611
764.463	0.0141563
764.541	0.0140430
764.619	0.0141209
764.697	0.0140891
764.775	0.0142505
764.853	0.0144072
764.932	0.0144021
765.010	0.0144479
765.088	0.0145098
765.166	0.0144305
765.244	0.0144194
765.322	0.0145212
765.400	0.0145428
765.478	0.0145377
765.557	0.0144389
765.635	0.0143730
765.713	0.0144850
765.791	0.0142912
765.869	0.0143067
765.947	0.0142673
766.025	0.0141922
766.103	0.0141341
766.182	0.0139763
766.260	0.0139843
766.338	0.0141470
766.416	0.0139654
766.494	0.0137107
766.572	0.0138284
766.650	0.0137440
766.728	0.0136655
766.807	0.0135647
766.885	0.0136728
766.963	0.0135925
767.041	0.0135732
767.119	0.0134712
767.197	0.0136526
767.275	0.0135587
767.353	0.0133860
767.432	0.0135683
767.510	0.0136237
767.588	0.0137371
767.666	0.0136705
767.744	0.0137119
767.822	0.0138148
767.900	0.0138184
767.978	0.0139855
768.057	0.0140248
768.135	0.0139675
768.213	0.0141745
768.291	0.0142293
768.369	0.0142351
768.447	0.0144957
768.525	0.0144550
768.603	0.0146166
768.682	0.0146689
768.760	0.0147769
768.838	0.0149181
768.916	0.0150092
768.994	0.0150036
769.072	0.0150012
769.150	0.0149887
769.228	0.0149310
769.307	0.0149100
769.385	0.0149654
769.463	0.0150466
769.541	0.0148502
769.619	0.0148057
769.697	0.0147259
769.775	0.0146542
769.853	0.0145219
769.932	0.0144237
770.010	0.0143249
770.088	0.0140153
770.166	0.0140642
770.244	0.0140084
770.322	0.0139558
770.400	0.0138762
770.478	0.0136903
770.557	0.0139132
770.635	0.0137592
770.713	0.0135664
770.791	0.0135652
770.869	0.0134838
770.947	0.0134908
771.025	0.0134174
771.103	0.0134478
771.182	0.0135652
771.260	0.0134421
771.338	0.0134884
771.416	0.0134546
771.494	0.0135577
771.572	0.0136385
771.650	0.0134694
771.728	0.0135718
771.807	0.0136478
771.885	0.0138367
771.963	0.0137376
772.041	0.0139159
772.119	0.0138567
772.197	0.0138090
772.275	0.0139799
772.353	0.0140343
772.432	0.0140073
772.510	0.0140915
772.588	0.0141323
772.666	0.0141187
772.744	0.0142094
772.822	0.0142401
772.900	0.0143084
772.978	0.0141560
773.057	0.0143303
773.135	0.0144133
773.213	0.0145036
773.291	0.0143609
773.369	0.0144417
773.447	0.0145497
773.525	0.0144328
773.603	0.0144971
773.682	0.0144852
773.760	0.0145082
773.838	0.0146539
773.916	0.0144141
773.994	0.0145248
774.072	0.0147143
774.150	0.0145457
774.228	0.0145761
774.307	0.0144613
774.385	0.0144977
774.463	0.0145647
774.541	0.0144897
774.619	0.0143726
774.697	0.0145322
774.775	0.0144623
774.853	0.0142766
774.932	0.0144071
775.010	0.0144016
775.088	0.0144583
775.166	0.0142796
775.244	0.0141157
775.322	0.0141671
775.400	0.0141222
775.478	0.0141515
775.557	0.0141720
775.635	0.0139375
775.713	0.0138682
775.791	0.0139130
775.869	0.0138565
775.947	0.0137390
776.025	0.0136386
776.103	0.0136626
776.182	0.0135979
776.260	0.0134533
776.338	0.0134030
776.416	0.0135373
776.494	0.0135538
776.572	0.0134698
776.650	0.0133575
776.728	0.0134170
776.807	0.0136439
776.885	0.0135815
776.963	0.0135608
777.041	0.0136004
777.119	0.0135403
777.197	0.0137088
777.275	0.0136567
777.353	0.0136383
777.432	0.0137485
777.510	0.0137618
777.588	0.0139453
777.666	0.0138705
777.744	0.0140215
777.822	0.0139422
777.900	0.0140978
777.978	0.0142382
778.057	0.0141543
778.135	0.0142413
778.213	0.0142447
778.291	0.0143464
778.369	0.0142811
778.447	0.0144025
778.525	0.0144742
778.603	0.0144541
778.682	0.0144166
778.760	0.0142504
778.838	0.0144258
778.916	0.0144321
778.994	0.0143663
779.072	0.0143021
779.150	0.0143401
779.228	0.0143182
779.307	0.0143009
779.385	0.0142822
779.463	0.0141960
779.541	0.0140735
779.619	0.0142771
779.697	0.0141956
779.775	0.0141274
779.853	0.0141711
779.932	0.0141420
780.010	0.0141524
780.088	0.0142392
780.166	0.0141612
780.244	0.0141645
780.322	0.0141891
780.400	0.0140404
780.478	0.0139605
780.557	0.0141966
780.635	0.0140366
780.713	0.0139068
780.791	0.0139539
780.869	0.0139421
780.947	0.0139733
781.025	0.0138866
781.103	0.0137164
781.182	0.0138585
781.260	0.0139028
781.338	0.0138715
781.416	0.0139142
781.494	0.0138174
781.572	0.0139835
781.650	0.0139216
781.728	0.0139570
781.807	0.0137918
781.885	0.0139930
781.963	0.0139392
782.041	0.0138940
782.119	0.0140807
782.197	0.0141794
782.275	0.0140485
782.353	0.0140507
782.432	0.0142804
782.510	0.0141325
782.588	0.0142019
782.666	0.0141906
782.744	0.0141497
782.822	0.0141934
782.900	0.0142068
782.978	0.0142436
783.057	0.0141203
783.135	0.0142928
783.213	0.0141874
783.291	0.0141806
783.369	0.0143725
783.447	0.0142014
783.525	0.0140445
783.603	0.0141451
783.682	0.0143658
783.760	0.0141656
783.838	0.0141525
783.916	0.0143147
783.994	0.0140131
784.072	0.0140916
784.150	0.0142970
784.228	0.0141196
784.307	0.0139961
784.385	0.0141800
784.463	0.0140141
784.541	0.0138967
784.619	0.0138354
784.697	0.0137812
784.775	0.0138463
784.853	0.0137560
784.932	0.0137834
785.010	0.0137054
785.088	0.0136003
785.166	0.0136611
785.244	0.0136037
785.322	0.0136343
785.400	0.0135719
785.478	0.0135338
785.557	0.0138325
785.635	0.0137329
785.713	0.0138390
785.791	0.0139184
785.869	0.0139598
785.947	0.0141230
786.025	0.0141182
786.103	0.0143497
786.182	0.0142847
786.260	0.0143080
786.338	0.0144051
786.416	0.0143262
786.494	0.0143824
786.572	0.0143459
786.650	0.0145185
786.728	0.0142709
786.807	0.0143546
786.885	0.0142931
786.963	0.0143093
787.041	0.0143341
787.119	0.0142004
787.197	0.0141803
787.275	0.0140865
787.353	0.0140771
787.432	0.0139349
787.510	0.0140234
787.588	0.0139869
787.666	0.0139157
787.744	0.0139345
787.822	0.0138204
787.900	0.0139467
787.978	0.0138594
788.057	0.0138851
788.135	0.0137503
788.213	0.0138878
788.291	0.0137563
788.369	0.0137945
788.447	0.0138369
788.525	0.0139518
788.603	0.0139822
788.682	0.0139606
788.760	0.0141207
788.838	0.0141452
788.916	0.0141913
788.994	0.0140523
789.072	0.0142109
789.150	0.0143137
789.228	0.0142249
789.307	0.0143250
789.385	0.0142703
789.463	0.0143449
789.541	0.0143416
789.619	0.0142551
789.697	0.0142037
789.775	0.0142056
789.853	0.0141840
789.932	0.0140919
790.010	0.0141317
790.088	0.0140319
790.166	0.0140821
790.244	0.0140260
790.322	0.0139938
790.400	0.0140903
790.478	0.0142004
790.557	0.0139973
790.635	0.0140139
790.713	0.0140488
790.791	0.0139961
790.869	0.0141219
790.947	0.0142754
791.025	0.0142364
791.103	0.0139835
791.182	0.0140435
791.260	0.0141143
791.338	0.0141132
791.416	0.0141112
791.494	0.0140588
791.572	0.0141045
791.650	0.0141324
791.728	0.0139851
791.807	0.0139754
791.885	0.0141316
791.963	0.0139484
792.041	0.0138719
792.119	0.0138508
792.197	0.0140750
792.275	0.0138763
792.353	0.0140129
792.432	0.0139008
792.510	0.0137890
792.588	0.0136604
792.666	0.0137925
792.744	0.0138990
792.822	0.0139075
792.900	0.0139325
792.978	0.0138334
793.057	0.0139001
793.135	0.0139925
793.213	0.0139763
793.291	0.0140465
793.369	0.0140307
793.447	0.0142979
793.525	0.0140865
793.603	0.0140968
793.682	0.0142178
793.760	0.0141895
793.838	0.0141032
793.916	0.0142973
793.994	0.0141891
794.072	0.0143525
794.150	0.0142407
794.228	0.0144375
794.307	0.0145959
794.385	0.0144923
794.463	0.0144814
794.541	0.0143568
794.619	0.0143793
794.697	0.0144182
794.775	0.0144622
794.853	0.0145000
794.932	0.0143571
795.010	0.0141737
795.088	0.0141351
795.166	0.0141819
795.244	0.0141309
795.322	0.0140566
795.400	0.0140855
795.478	0.0139667
795.557	0.0139010
795.635	0.0139598
795.713	0.0139920
795.791	0.0138847
795.869	0.0139935
795.947	0.0141128
796.025	0.0139697
796.103	0.0139277
796.182	0.0140476
796.260	0.0139696
796.338	0.0139771
796.416	0.0139557
796.494	0.0139301
796.572	0.0138258
796.650	0.0139805
796.728	0.0138472
796.807	0.0137415
796.885	0.0138448
796.963	0.0137778
797.041	0.0136490
797.119	0.0136572
797.197	0.0136055
797.275	0.0137769
797.353	0.0137799
797.432	0.0137103
797.510	0.0138169
797.588	0.0136623
797.666	0.0136710
797.744	0.0140074
797.822	0.0139323
797.900	0.0138213
797.978	0.0138582
798.057	0.0139750
798.135	0.0139753
798.213	0.0139578
798.291	0.0139305
798.369	0.0140364
798.447	0.0138787
798.525	0.0139533
798.603	0.0140405
798.682	0.0141189
798.760	0.0140566
798.838	0.0139450
798.916	0.0140723
798.994	0.0140902
799.072	0.0140241
799.150	0.0140076
799.228	0.0140357
799.307	0.0140733
799.385	0.0141135
799.463	0.0141760
799.541	0.0140910
799.619	0.0140009
799.697	0.0139474
799.775	0.0141234
799.853	0.0140000
799.932	0.0138710
800.010	0.0140092
800.088	0.0138857
800.166	0.0139018
800.244	0.0138194
800.322	0.0138464
800.400	0.0137684
800.478	0.0137420
800.557	0.0136735
800.635	0.0136640
800.713	0.0136665
800.791	0.0137399
800.869	0.0136349
800.947	0.0135651
801.025	0.0135134
801.103	0.0136034
801.182	0.0135903
801.260	0.0136539
801.338	0.0136010
801.416	0.0137008
801.494	0.0137212
801.572	0.0135892
801.650	0.0136052
801.728	0.0137852
801.807	0.0137223
801.885	0.0138313
801.963	0.0138132
802.041	0.0137803
802.119	0.0138037
802.197	0.0138647
802.275	0.0138432
802.353	0.0138628
802.432	0.0138902
802.510	0.0138394
802.588	0.0140517
802.666	0.0142172
802.744	0.0140643
802.822	0.0141871
802.900	0.0140760
802.978	0.0141966
803.057	0.0143370
803.135	0.0143713
803.213	0.0142298
803.291	0.0143476
803.369	0.0144880
803.447	0.0143459
803.525	0.0144478
803.603	0.0144235
803.682	0.0144202
803.760	0.0144760
803.838	0.0144901
803.916	0.0144205
803.994	0.0144839
804.072	0.0143939
804.150	0.0144528
804.228	0.0143690
804.307	0.0143291
804.385	0.0144643
804.463	0.0143177
804.541	0.0142712
804.619	0.0144041
804.697	0.0143947
804.775	0.0143860
804.853	0.0142753
804.932	0.0141409
805.010	0.0141612
805.088	0.0140284
805.166	0.0141576
805.244	0.0140318
805.322	0.0140501
805.400	0.0138620
805.478	0.0139761
805.557	0.0139574
805.635	0.0138120
805.713	0.0137013
805.791	0.0138004
805.869	0.0137804
805.947	0.0137537
806.025	0.0137878
806.103	0.0137931
806.182	0.0139175
806.260	0.0136742
806.338	0.0137193
806.416	0.0137733
806.494	0.0137424
806.572	0.0139769
806.650	0.0138715
806.728	0.0138541
806.807	0.0139090
806.885	0.0139824
806.963	0.0140623
807.041	0.0141306
807.119	0.0141232
807.197	0.0140843
807.275	0.0142368
807.353	0.0142826
807.432	0.0142470
807.510	0.0142323
807.588	0.0143057
807.666	0.0145236
807.744	0.0144218
807.822	0.0144087
807.900	0.0143676
807.978	0.0143357
808.057	0.0143472
808.135	0.0141093
808.213	0.0140809
808.291	0.0141595
808.369	0.0140233
808.447	0.0140293
808.525	0.0140856
808.603	0.0139336
808.682	0.0138755
808.760	0.0138155
808.838	0.0139073
808.916	0.0139306
808.994	0.0140863
809.072	0.0140791
809.150	0.0141446
809.228	0.0142834
809.307	0.0143041
809.385	0.0143856
809.463	0.0143632
809.541	0.0144200
809.619	0.0144204
809.697	0.0144004
809.775	0.0144212
809.853	0.0144299
809.932	0.0141460
810.010	0.0142078
810.088	0.0141908
810.166	0.0140858
810.244	0.0140235
810.322	0.0139366
810.400	0.0136780
810.478	0.0137686
810.557	0.0136646
810.635	0.0136156
810.713	0.0136007
810.791	0.0136176
810.869	0.0135210
810.947	0.0136749
811.025	0.0137290
811.103	0.0137242
811.182	0.0137865
811.260	0.0138131
811.338	0.0138682
811.416	0.0141031
811.494	0.0141007
811.572	0.0140858
811.650	0.0141676
811.728	0.0141129
811.807	0.0142384
811.885	0.0141476
811.963	0.0142296
812.041	0.0143027
812.119	0.0142577
812.197	0.0141673
812.275	0.0139773
812.353	0.0140082
812.432	0.0140588
812.510	0.0141095
812.588	0.0139748
812.666	0.0139455
812.744	0.0140493
812.822	0.0139150
812.900	0.0138952
812.978	0.0138205
813.057	0.0136996
813.135	0.0136967
813.213	0.0136339
813.291	0.0137283
813.369	0.0135870
813.447	0.0136211
813.525	0.0136626
813.603	0.0135513
813.682	0.0137344
813.760	0.0136741
813.838	0.0136613
813.916	0.0138004
813.994	0.0137371
814.072	0.0140534
814.150	0.0140960
814.228	0.0141006
814.307	0.0140865
814.385	0.0141679
814.463	0.0144004
814.541	0.0142875
814.619	0.0142870
814.697	0.0144781
814.775	0.0144245
814.853	0.0144456
814.932	0.0144429
815.010	0.0142026
815.088	0.0144090
815.166	0.0144585
815.244	0.0142979
815.322	0.0142471
815.400	0.0142515
815.478	0.0140942
815.557	0.0140590
815.635	0.0138807
815.713	0.0139149
815.791	0.0139745
815.869	0.0138831
815.947	0.0137690
816.025	0.0137050
816.103	0.0138135
816.182	0.0136705
816.260	0.0135675
816.338	0.0138860
816.416	0.0138065
816.494	0.0138264
816.572	0.0139976
816.650	0.0140649
816.728	0.0141225
816.807	0.0142029
816.885	0.0141731
816.963	0.0144849
817.041	0.0143826
817.119	0.0143314
817.197	0.0144346
817.275	0.0142926
817.353	0.0142862
817.432	0.0142982
817.510	0.0142533
817.588	0.0141049
817.666	0.0138262
817.744	0.0138709
817.822	0.0138227
817.900	0.0134832
817.978	0.0133886
818.057	0.0133448
818.135	0.0131769
818.213	0.0131518
818.291	0.0130274
818.369	0.0131114
818.447	0.0131139
818.525	0.0131244
818.603	0.0130579
818.682	0.0131960
818.760	0.0134608
818.838	0.0135665
818.916	0.0138180
818.994	0.0139668
819.072	0.0140882
819.150	0.0141109
819.228	0.0142683
819.307	0.0144647
819.385	0.0144968
819.463	0.0145453
819.541	0.0145609
819.619	0.0145740
819.697	0.0144350
819.775	0.0145353
819.853	0.0142670
819.932	0.0142484
820.010	0.0141668
820.088	0.0142225
820.166	0.0141907
820.244	0.0140551
820.322	0.0140826
820.400	0.0139170
820.478	0.0138227
820.557	0.0137835
820.635	0.0137141
820.713	0.0136900
820.791	0.0137483
820.869	0.0135049
820.947	0.0135175
821.025	0.0134566
821.103	0.0134222
821.182	0.0133098
821.260	0.0133064
821.338	0.0131828
821.416	0.0133729
821.494	0.0133450
821.572	0.0134675
821.650	0.0134679
821.728	0.0135191
821.807	0.0136703
821.885	0.0140564
821.963	0.0141527
822.041	0.0141287
822.119	0.0143565
822.197	0.0145895
822.275	0.0147266
822.353	0.0147327
822.432	0.0149835
822.510	0.0150658
822.588	0.0149811
822.666	0.0149789
822.744	0.0150576
822.822	0.0149642
822.900	0.0150379
822.978	0.0147257
823.057	0.0146888
823.135	0.0144991
823.213	0.0141177
823.291	0.0140821
823.369	0.0140697
823.447	0.0138963
823.525	0.0135691
823.603	0.0135266
823.682	0.0133848
823.760	0.0132352
823.838	0.0130180
823.916	0.0132028
823.994	0.0132944
824.072	0.0132196
824.150	0.0132804
824.228	0.0134095
824.307	0.0134238
824.385	0.0136399
824.463	0.0138289
824.541	0.0138824
824.619	0.0141891
824.697	0.0141444
824.775	0.0142843
824.853	0.0145194
824.932	0.0147102
825.010	0.0145827
825.088	0.0145256
825.166	0.0145601
825.244	0.0145152
825.322	0.0144186
825.400	0.0143528
825.478	0.0143118
825.557	0.0140082
825.635	0.0140551
825.713	0.0138770
825.791	0.0137869
825.869	0.0136204
825.947	0.0135704
826.025	0.0135588
826.103	0.0133704
826.182	0.0135155
826.260	0.0136670
826.338	0.0135204
826.416	0.0135362
826.494	0.0136018
826.572	0.0135256
826.650	0.0136462
826.728	0.0138988
826.807	0.0138886
826.885	0.0139281
826.963	0.0140742
827.041	0.0140864
827.119	0.0140285
827.197	0.0141696
827.275	0.0142759
827.353	0.0141338
827.432	0.0142303
827.510	0.0143289
827.588	0.0142033
827.666	0.0140194
827.744	0.0141685
827.822	0.0141025
827.900	0.0140562
827.978	0.0141342
828.057	0.0139227
828.135	0.0139003
828.213	0.0138663
828.291	0.0138113
828.369	0.0138304
828.447	0.0139463
828.525	0.0138766
828.603	0.0137680
828.682	0.0139375
828.760	0.0138422
828.838	0.0138470
828.916	0.0136944
828.994	0.0137514
829.072	0.0139222
829.150	0.0139201
829.228	0.0138490
829.307	0.0138284
829.385	0.0139602
829.463	0.0140109
829.541	0.0141290
829.619	0.0140669
829.697	0.0141765
829.775	0.0141608
829.853	0.0140807
829.932	0.0140073
830.010	0.0140704
830.088	0.0141605
830.166	0.0141736
830.244	0.0140596
830.322	0.0138218
830.400	0.0140410
830.478	0.0138553
830.557	0.0138702
830.635	0.0138429
830.713	0.0138105
830.791	0.0138648
830.869	0.0136800
830.947	0.0137122
831.025	0.0137524
831.103	0.0138692
831.182	0.0138207
831.260	0.0138148
831.338	0.0138617
831.416	0.0140794
831.494	0.0139612
831.572	0.0139755
831.650	0.0140479
831.728	0.0142592
831.807	0.0141798
831.885	0.0141656
831.963	0.0142174
832.041	0.0142962
832.119	0.0141784
832.197	0.0142534
832.275	0.0143639
832.353	0.0143137
832.432	0.0143012
832.510	0.0142823
832.588	0.0143351
832.666	0.0143700
832.744	0.0142393
832.822	0.0141407
832.900	0.0141550
832.978	0.0143176
833.057	0.0141186
833.135	0.0138409
833.213	0.0137450
833.291	0.0139765
833.369	0.0138213
833.447	0.0137141
833.525	0.0137860
833.603	0.0136256
833.682	0.0137436
833.760	0.0138307
833.838	0.0137891
833.916	0.0136335
833.994	0.0135455
834.072	0.0138327
834.150	0.0139066
834.228	0.0138850
834.307	0.0137727
834.385	0.0138188
834.463	0.0139695
834.541	0.0141601
834.619	0.0141832
834.697	0.0142440
834.775	0.0141019
834.853	0.0140816
834.932	0.0141679
835.010	0.0141520
835.088	0.0141711
835.166	0.0142650
835.244	0.0141222
835.322	0.0142897
835.400	0.0141208
835.478	0.0141578
835.557	0.0142401
835.635	0.0142580
835.713	0.0142742
835.791	0.0142432
835.869	0.0142677
835.947	0.0142100
836.025	0.0140810
836.103	0.0141823
836.182	0.0143082
836.260	0.0143489
836.338	0.0142119
836.416	0.0140926
836.494	0.0142726
836.572	0.0140636
836.650	0.0139626
836.728	0.0140314
836.807	0.0140907
836.885	0.0139120
836.963	0.0138831
837.041	0.0138085
837.119	0.0139340
837.197	0.0140226
837.275	0.0137768
837.353	0.0137566
837.432	0.0137511
837.510	0.0136986
837.588	0.0137410
837.666	0.0136302
837.744	0.0137021
837.822	0.0137039
837.900	0.0136754
837.978	0.0136792
838.057	0.0135902
838.135	0.0137507
838.213	0.0137522
838.291	0.0136950
838.369	0.0138760
838.447	0.0137823
838.525	0.0137926
838.603	0.0138021
838.682	0.0138280
838.760	0.0139754
838.838	0.0137537
838.916	0.0139551
838.994	0.0140116
839.072	0.0141095
839.150	0.0140561
839.228	0.0141097
839.307	0.0141685
839.385	0.0142867
839.463	0.0144592
839.541	0.0142175
839.619	0.0141531
839.697	0.0143228
839.775	0.0142683
839.853	0.0142559
839.932	0.0141293
840.010	0.0141031
840.088	0.0141183
840.166	0.0142018
840.244	0.0140463
840.322	0.0141541
840.400	0.0141191
840.478	0.0140534
840.557	0.0140585
840.635	0.0140379
840.713	0.0140509
840.791	0.0139491
840.869	0.0140298
840.947	0.0142688
841.025	0.0140276
841.103	0.0139088
841.182	0.0139934
841.260	0.0139011
841.338	0.0138908
841.416	0.0138528
841.494	0.0138088
841.572	0.0138020
841.650	0.0137743
841.728	0.0137685
841.807	0.0138195
841.885	0.0138641
841.963	0.0138319
842.041	0.0138337
842.119	0.0137971
842.197	0.0138506
842.275	0.0138160
842.353	0.0137598
842.432	0.0138377
842.510	0.0137647
842.588	0.0138265
842.666	0.0138440
842.744	0.0139159
842.822	0.0140178
842.900	0.0139877
842.978	0.0139824
843.057	0.0140752
843.135	0.0140190
843.213	0.0140532
843.291	0.0140348
843.369	0.0140710
843.447	0.0140218
843.525	0.0142064
843.603	0.0141100
843.682	0.0140931
843.760	0.0140509
843.838	0.0141968
843.916	0.0140353
843.994	0.0141370
844.072	0.0143359
844.150	0.0142602
844.228	0.0141924
844.307	0.0141608
844.385	0.0142049
844.463	0.0141383
844.541	0.0141076
844.619	0.0142662
844.697	0.0141316
844.775	0.0142440
844.853	0.0141512
844.932	0.0142262
845.010	0.0141700
845.088	0.0140858
845.166	0.0141509
845.244	0.0141150
845.322	0.0140239
845.400	0.0140923
845.478	0.0139851
845.557	0.0139632
845.635	0.0140108
845.713	0.0139108
845.791	0.0139312
845.869	0.0139175
845.947	0.0137659
846.025	0.0139665
846.103	0.0139360
846.182	0.0138620
846.260	0.0138881
846.338	0.0138663
846.416	0.0138705
846.494	0.0138651
846.572	0.0141640
846.650	0.0140892
846.728	0.0140250
846.807	0.0140819
846.885	0.0141068
846.963	0.0140793
847.041	0.0141934
847.119	0.0141370
847.197	0.0142198
847.275	0.0140589
847.353	0.0140926
847.432	0.0142500
847.510	0.0142191
847.588	0.0141003
847.666	0.0140823
847.744	0.0139661
847.822	0.0141617
847.900	0.0139545
847.978	0.0141771
848.057	0.0142297
848.135	0.0142127
848.213	0.0141481
848.291	0.0140768
848.369	0.0141456
848.447	0.0141515
848.525	0.0140330
848.603	0.0140942
848.682	0.0140831
848.760	0.0141138
848.838	0.0141177
848.916	0.0140891
848.994	0.0140861
849.072	0.0140252
849.150	0.0140860
849.228	0.0140865
849.307	0.0140820
849.385	0.0140741
849.463	0.0140680
849.541	0.0140940
849.619	0.0141532
849.697	0.0140450
849.775	0.0140569
849.853	0.0139883
849.932	0.0140899
850.010	0.0139250
850.088	0.0139442
850.166	0.0140881
850.244	0.0142131
850.322	0.0141612
850.400	0.0141153
850.478	0.0141649
850.557	0.0141466
850.635	0.0142775
850.713	0.0141809
850.791	0.0140345
850.869	0.0140596
850.947	0.0142222
851.025	0.0142603
851.103	0.0141184
851.182	0.0140857
851.260	0.0140639
851.338	0.0139573
851.416	0.0138567
851.494	0.0139160
851.572	0.0137658
851.650	0.0137564
851.728	0.0137543
851.807	0.0139570
851.885	0.0139288
851.963	0.0139493
852.041	0.0139161
852.119	0.0140797
852.197	0.0141475
852.275	0.0139644
852.353	0.0139680
852.432	0.0140736
852.510	0.0141005
852.588	0.0140352
852.666	0.0140495
852.744	0.0139829
852.822	0.0139807
852.900	0.0141444
852.978	0.0142138
853.057	0.0141996
853.135	0.0141203
853.213	0.0140932
853.291	0.0142184
853.369	0.0141869
853.447	0.0141518
853.525	0.0142464
853.603	0.0140742
853.682	0.0141463
853.760	0.0141164
853.838	0.0140747
853.916	0.0139741
853.994	0.0141325
854.072	0.0140442
854.150	0.0139513
854.228	0.0140205
854.307	0.0140581
854.385	0.0139928
854.463	0.0138668
854.541	0.0138417
854.619	0.0139755
854.697	0.0138487
854.775	0.0137527
854.853	0.0137811
854.932	0.0138844
855.010	0.0139819
855.088	0.0140518
855.166	0.0138670
855.244	0.0138548
855.322	0.0138033
855.400	0.0138730
855.478	0.0139198
855.557	0.0139031
855.635	0.0140974
855.713	0.0139821
855.791	0.0139023
855.869	0.0138851
855.947	0.0139674
856.025	0.0139651
856.103	0.0141367
856.182	0.0141425
856.260	0.0141025
856.338	0.0141780
856.416	0.0141134
856.494	0.0138902
856.572	0.0139981
856.650	0.0141355
856.728	0.0140620
856.807	0.0141164
856.885	0.0139433
856.963	0.0141309
857.041	0.0141015
857.119	0.0140335
857.197	0.0141249
857.275	0.0140581
857.353	0.0140892
857.432	0.0141373
857.510	0.0141468
857.588	0.0142078
857.666	0.0141467
857.744	0.0141664
857.822	0.0141015
857.900	0.0140232
857.978	0.0138692
858.057	0.0139370
858.135	0.0139230
858.213	0.0139910
858.291	0.0137272
858.369	0.0137167
858.447	0.0137926
858.525	0.0138284
858.603	0.0137270
858.682	0.0137463
858.760	0.0137753
858.838	0.0137087
858.916	0.0137182
858.994	0.0137619
859.072	0.0137564
859.150	0.0138326
859.228	0.0138015
859.307	0.0137799
859.385	0.0138892
859.463	0.0137521
859.541	0.0139417
859.619	0.0140338
859.697	0.0138577
859.775	0.0139210
859.853	0.0140716
859.932	0.0139152
860.010	0.0140003
860.088	0.0140630
860.166	0.0140272
860.244	0.0141351
860.322	0.0140742
860.400	0.0139925
860.478	0.0140613
860.557	0.0139948
860.635	0.0140175
860.713	0.0140308
860.791	0.0139235
860.869	0.0137607
860.947	0.0138998
861.025	0.0139153
861.103	0.0138682
861.182	0.0137727
861.260	0.0137003
861.338	0.0136491
861.416	0.0138141
861.494	0.0138557
861.572	0.0138220
861.650	0.0137126
861.728	0.0137006
861.807	0.0137615
861.885	0.0136855
861.963	0.0137389
862.041	0.0138139
862.119	0.0136414
862.197	0.0137163
862.275	0.0137098
862.353	0.0137983
862.432	0.0138297
862.510	0.0138316
862.588	0.0138562
862.666	0.0139532
862.744	0.0138867
862.822	0.0141457
862.900	0.0142117
862.978	0.0141221
863.057	0.0141436
863.135	0.0141090
863.213	0.0143606
863.291	0.0143963
863.369	0.0143056
863.447	0.0143978
863.525	0.0143937
863.603	0.0143742
863.682	0.0142773
863.760	0.0144284
863.838	0.0143565
863.916	0.0141296
863.994	0.0141148
864.072	0.0142354
864.150	0.0142009
864.228	0.0141389
864.307	0.0140827
864.385	0.0142292
864.463	0.0140446
864.541	0.0140566
864.619	0.0139725
864.697	0.0138821
864.775	0.0139696
864.853	0.0140177
864.932	0.0139539
865.010	0.0140527
865.088	0.0139752
865.166	0.0140420
865.244	0.0138840
865.322	0.0139667
865.400	0.0139175
865.478	0.0138154
865.557	0.0136518
865.635	0.0140104
865.713	0.0138713
865.791	0.0138245
865.869	0.0138665
865.947	0.0138248
866.025	0.0140325
866.103	0.0141090
866.182	0.0140428
866.260	0.0139953
866.338	0.0139370
866.416	0.0139764
866.494	0.0141322
866.572	0.0138939
866.650	0.0140832
866.728	0.0139471
866.807	0.0139891
866.885	0.0140289
866.963	0.0140072
867.041	0.0140005
867.119	0.0138354
867.197	0.0140691
867.275	0.0141712
867.353	0.0139210
867.432	0.0140379
867.510	0.0139336
867.588	0.0141582
867.666	0.0141969
867.744	0.0141386
867.822	0.0140229
867.900	0.0141430
867.978	0.0141438
868.057	0.0142730
868.135	0.0141567
868.213	0.0143208
868.291	0.0141988
868.369	0.0142445
868.447	0.0142263
868.525	0.0142822
868.603	0.0142474
868.682	0.0141822
868.760	0.0143694
868.838	0.0144936
868.916	0.0143371
868.994	0.0142530
869.072	0.0142870
869.150	0.0143406
869.228	0.0144204
869.307	0.0143968
869.385	0.0142894
869.463	0.0142951
869.541	0.0143106
869.619	0.0143941
869.697	0.0144163
869.775	0.0142883
869.853	0.0143910
869.932	0.0143194
870.010	0.0142831
870.088	0.0144056
870.166	0.0142195
870.244	0.0141698
870.322	0.0141352
870.400	0.0142736
870.478	0.0141124
870.557	0.0141596
870.635	0.0142508
870.713	0.0142159
870.791	0.0141238
870.869	0.0139993
870.947	0.0140826
871.025	0.0140501
871.103	0.0140594
871.182	0.0140414
871.260	0.0139485
871.338	0.0139523
871.416	0.0140347
871.494	0.0141016
871.572	0.0140376
871.650	0.0140755
871.728	0.0138578
871.807	0.0139579
871.885	0.0140504
871.963	0.0140556
872.041	0.0140224
872.119	0.0139150
872.197	0.0142001
872.275	0.0141267
872.353	0.0141983
872.432	0.0142387
872.510	0.0140210
872.588	0.0141706
872.666	0.0141527
872.744	0.0140685
872.822	0.0141548
872.900	0.0140894
872.978	0.0141264
873.057	0.0139262
873.135	0.0139440
873.213	0.0140361
873.291	0.0141016
873.369	0.0140315
873.447	0.0138979
873.525	0.0139100
873.603	0.0138504
873.682	0.0138951
873.760	0.0140508
873.838	0.0138155
873.916	0.0139182
873.994	0.0139951
874.072	0.0139046
874.150	0.0138063
874.228	0.0137936
874.307	0.0138622
874.385	0.0138317
874.463	0.0138451
874.541	0.0140805
874.619	0.0138638
874.697	0.0139890
874.775	0.0138584
874.853	0.0138762
874.932	0.0138018
875.010	0.0138953
875.088	0.0138631
875.166	0.0139172
875.244	0.0138030
875.322	0.0139703
875.400	0.0140099
875.478	0.0139827
875.557	0.0140379
875.635	0.0139213
875.713	0.0140543
875.791	0.0139980
875.869	0.0140580
875.947	0.0141037
876.025	0.0141148
876.103	0.0140446
876.182	0.0142577
876.260	0.0141872
876.338	0.0142307
876.416	0.0140948
876.494	0.0142660
876.572	0.0142282
876.650	0.0142484
876.728	0.0143013
876.807	0.0141841
876.885	0.0143134
876.963	0.0143518
877.041	0.0143471
877.119	0.0142754
877.197	0.0142852
877.275	0.0141537
877.353	0.0141534
877.432	0.0140974
877.510	0.0140799
877.588	0.0140852
877.666	0.0140633
877.744	0.0139304
877.822	0.0140401
877.900	0.0140183
877.978	0.0139496
878.057	0.0138504
878.135	0.0140379
878.213	0.0140530
878.291	0.0139732
878.369	0.0139535
878.447	0.0140398
878.525	0.0140122
878.603	0.0139829
878.682	0.0139854
878.760	0.0139188
878.838	0.0139391
878.916	0.0139956
878.994	0.0139707
879.072	0.0139139
879.150	0.0139295
879.228	0.0138349
879.307	0.0140408
879.385	0.0140331
879.463	0.0139440
879.541	0.0138463
879.619	0.0139210
879.697	0.0137676
879.775	0.0138947
879.853	0.0139422
879.932	0.0139162
880.010	0.0138687
880.088	0.0139023
880.166	0.0139359
880.244	0.0139837
880.322	0.0138354
880.400	0.0139895
880.478	0.0140336
880.557	0.0139793
880.635	0.0140692
880.713	0.0139800
880.791	0.0140336
880.869	0.0140345
880.947	0.0141431
881.025	0.0141739
881.103	0.0141498
881.182	0.0140866
881.260	0.0140926
881.338	0.0140987
881.416	0.0141050
881.494	0.0141980
881.572	0.0141841
881.650	0.0141160
881.728	0.0140931
881.807	0.0141099
881.885	0.0140787
881.963	0.0139167
882.041	0.0140383
882.119	0.0139060
882.197	0.0139098
882.275	0.0138141
882.353	0.0137743
882.432	0.0137407
882.510	0.0135419
882.588	0.0137329
882.666	0.0138560
882.744	0.0137465
882.822	0.0136429
882.900	0.0136624
882.978	0.0135725
883.057	0.0137693
883.135	0.0138023
883.213	0.0137878
883.291	0.0138761
883.369	0.0138499
883.447	0.0138523
883.525	0.0140264
883.603	0.0139610
883.682	0.0140085
883.760	0.0141675
883.838	0.0141969
883.916	0.0142345
883.994	0.0143987
884.072	0.0143000
884.150	0.0141911
884.228	0.0143093
884.307	0.0142576
884.385	0.0143079
884.463	0.0143516
884.541	0.0143002
884.619	0.0144003
884.697	0.0143489
884.775	0.0142679
884.853	0.0142529
884.932	0.0141760
885.010	0.0142425
885.088	0.0141909
885.166	0.0141008
885.244	0.0141172
885.322	0.0141373
885.400	0.0140781
885.478	0.0141832
885.557	0.0140783
885.635	0.0140569
885.713	0.0141637
885.791	0.0141315
885.869	0.0140357
885.947	0.0139602
886.025	0.0140509
886.103	0.0140182
886.182	0.0138201
886.260	0.0139104
886.338	0.0138665
886.416	0.0139153
886.494	0.0139590
886.572	0.0139812
886.650	0.0138309
886.728	0.0138589
886.807	0.0139873
886.885	0.0139434
886.963	0.0138670
887.041	0.0138261
887.119	0.0139479
887.197	0.0139336
887.275	0.0138418
887.353	0.0138757
887.432	0.0138448
887.510	0.0139826
887.588	0.0138475
887.666	0.0137452
887.744	0.0138475
887.822	0.0140894
887.900	0.0138478
887.978	0.0137897
888.057	0.0137650
888.135	0.0139443
888.213	0.0139375
888.291	0.0140331
888.369	0.0138933
888.447	0.0140081
888.525	0.0140234
888.603	0.0140033
888.682	0.0140469
888.760	0.0141373
888.838	0.0141448
888.916	0.0142129
888.994	0.0140653
889.072	0.0142893
889.150	0.0142491
889.228	0.0142646
889.307	0.0142700
889.385	0.0141442
889.463	0.0141441
889.541	0.0143249
889.619	0.0142447
889.697	0.0142363
889.775	0.0142574
889.853	0.0143217
889.932	0.0143029
890.010	0.0144311
890.088	0.0142673
890.166	0.0141804
890.244	0.0141561
890.322	0.0140752
890.400	0.0140723
890.478	0.0141634
890.557	0.0141245
890.635	0.0139879
890.713	0.0139388
890.791	0.0140182
890.869	0.0139797
890.947	0.0139211
891.025	0.0138940
891.103	0.0137830
891.182	0.0138896
891.260	0.0138445
891.338	0.0138658
891.416	0.0138280
891.494	0.0140003
891.572	0.0139273
891.650	0.0137946
891.728	0.0139639
891.807	0.0140279
891.885	0.0140022
891.963	0.0140498
892.041	0.0141100
892.119	0.0141030
892.197	0.0141010
892.275	0.0140966
892.353	0.0141750
892.432	0.0141614
892.510	0.0141397
892.588	0.0143170
892.666	0.0142995
892.744	0.0143118
892.822	0.0142764
892.900	0.0144596
892.978	0.0144146
893.057	0.0143235
893.135	0.0144371
893.213	0.0144727
893.291	0.0143736
893.369	0.0143043
893.447	0.0142322
893.525	0.0142957
893.603	0.0143378
893.682	0.0142580
893.760	0.0141785
893.838	0.0143485
893.916	0.0142634
893.994	0.0142138
894.072	0.0141689
894.150	0.0142619
894.228	0.0141393
894.307	0.0141277
894.385	0.0140237
894.463	0.0140640
894.541	0.0140962
894.619	0.0140417
894.697	0.0139650
894.775	0.0138734
894.853	0.0139076
894.932	0.0139966
895.010	0.0137466
895.088	0.0138287
895.166	0.0137997
895.244	0.0136514
895.322	0.0137223
895.400	0.0138847
895.478	0.0136958
895.557	0.0138186
895.635	0.0137987
895.713	0.0137215
895.791	0.0137843
895.869	0.0137825
895.947	0.0138203
896.025	0.0138151
896.103	0.0138228
896.182	0.0137643
896.260	0.0138618
896.338	0.0137914
896.416	0.0137752
896.494	0.0138453
896.572	0.0139639
896.650	0.0137877
896.728	0.0138998
896.807	0.0137347
896.885	0.0138111
896.963	0.0138702
897.041	0.0138004
897.119	0.0139230
897.197	0.0139496
897.275	0.0140723
897.353	0.0140549
897.432	0.0138997
897.510	0.0140161
897.588	0.0140970
897.666	0.0141471
897.744	0.0141445
897.822	0.0142427
897.900	0.0141533
897.978	0.0141028
898.057	0.0140910
898.135	0.0140750
898.213	0.0140108
898.291	0.0141808
898.369	0.0142361
898.447	0.0141837
898.525	0.0141766
898.603	0.0141224
898.682	0.0139626
898.760	0.0140920
898.838	0.0141212
898.916	0.0142131
898.994	0.0141750
899.072	0.0141573
899.150	0.0142828
899.228	0.0142364
899.307	0.0141119
899.385	0.0142237
899.463	0.0141983
899.541	0.0140486
899.619	0.0140872
899.697	0.0141171
899.775	0.0140204
899.853	0.0139880
899.932	0.0140720
900.010	0.0140479
900.088	0.0140384
900.166	0.0140543
900.244	0.0140264
900.322	0.0141502
900.400	0.0141252
900.478	0.0139673
900.557	0.0141032
900.635	0.0142520
900.713	0.0139597
900.791	0.0140495
900.869	0.0140446
900.947	0.0139713
901.025	0.0140803
901.103	0.0141193
901.182	0.0141768
901.260	0.0141673
901.338	0.0141716
901.416	0.0142078
901.494	0.0142551
901.572	0.0141872
901.650	0.0141609
901.728	0.0141968
901.807	0.0141653
901.885	0.0142117
901.963	0.0141792
902.041	0.0141490
902.119	0.0142076
902.197	0.0141537
902.275	0.0141579
902.353	0.0143114
902.432	0.0142520
902.510	0.0141552
902.588	0.0143047
902.666	0.0142616
902.744	0.0143773
902.822	0.0142399
902.900	0.0141315
902.978	0.0142216
903.057	0.0141972
903.135	0.0143102
903.213	0.0141859
903.291	0.0140937
903.369	0.0141759
903.447	0.0141643
903.525	0.0142165
903.603	0.0140839
903.682	0.0140231
903.760	0.0140121
903.838	0.0140914
903.916	0.0141685
903.994	0.0139390
904.072	0.0140270
904.150	0.0139427
904.228	0.0139130
904.307	0.0138009
904.385	0.0139639
904.463	0.0138934
904.541	0.0138653
904.619	0.0137738
904.697	0.0137413
904.775	0.0138599
904.853	0.0138990
904.932	0.0137580
905.010	0.0138815
905.088	0.0139550
905.166	0.0140601
905.244	0.0139426
905.322	0.0139711
905.400	0.0140305
905.478	0.0140330
905.557	0.0141603
905.635	0.0140088
905.713	0.0143099
905.791	0.0144312
905.869	0.0143394
905.947	0.0142591
906.025	0.0142773
906.103	0.0143072
906.182	0.0143701
906.260	0.0144839
906.338	0.0144296
906.416	0.0143883
906.494	0.0144445
906.572	0.0143505
906.650	0.0143848
906.728	0.0144676
906.807	0.0143283
906.885	0.0143906
906.963	0.0142176
907.041	0.0141991
907.119	0.0142699
907.197	0.0142689
907.275	0.0141943
907.353	0.0142596
907.432	0.0142297
907.510	0.0141951
907.588	0.0141476
907.666	0.0141971
907.744	0.0141293
907.822	0.0140332
907.900	0.0141833
907.978	0.0141167
908.057	0.0142248
908.135	0.0141824
908.213	0.0140796
908.291	0.0140524
908.369	0.0141399
908.447	0.0140533
908.525	0.0140082
908.603	0.0140376
908.682	0.0139985
908.760	0.0140284
908.838	0.0140683
908.916	0.0139356
908.994	0.0138837
909.072	0.0139838
909.150	0.0139619
909.228	0.0139067
909.307	0.0138410
909.385	0.0139235
909.463	0.0138452
909.541	0.0137255
909.619	0.0140398
909.697	0.0139954
909.775	0.0138436
909.853	0.0138971
909.932	0.0139485
910.010	0.0139227
910.088	0.0139649
910.166	0.0139494
910.244	0.0140249
910.322	0.0139475
910.400	0.0138856
910.478	0.0140690
910.557	0.0140841
910.635	0.0139736
910.713	0.0139642
910.791	0.0142125
910.869	0.0141881
910.947	0.0141920
911.025	0.0142518
911.103	0.0142039
911.182	0.0141547
911.260	0.0142702
911.338	0.0143865
911.416	0.0141364
911.494	0.0141547
911.572	0.0142911
911.650	0.0143291
911.728	0.0143431
911.807	0.0142499
911.885	0.0143240
911.963	0.0141779
912.041	0.0143078
912.119	0.0144418
912.197	0.0142629
912.275	0.0141905
912.353	0.0141798
912.432	0.0140481
912.510	0.0141764
912.588	0.0143228
912.666	0.0140686
912.744	0.0141000
912.822	0.0141586
912.900	0.0141753
912.978	0.0142032
913.057	0.0141493
913.135	0.0141474
913.213	0.0140681
913.291	0.0141767
913.369	0.0141167
913.447	0.0140482
913.525	0.0140839
913.603	0.0139339
913.682	0.0138747
913.760	0.0139950
913.838	0.0140205
913.916	0.0139824
913.994	0.0139737
914.072	0.0138136
914.150	0.0140234
914.228	0.0138274
914.307	0.0138020
914.385	0.0138454
914.463	0.0137141
914.541	0.0137099
914.619	0.0137724
914.697	0.0137991
914.775	0.0137129
914.853	0.0136826
914.932	0.0138094
915.010	0.0137255
915.088	0.0136784
915.166	0.0138028
915.244	0.0137381
915.322	0.0137421
915.400	0.0140078
915.478	0.0139731
915.557	0.0138840
915.635	0.0140063
915.713	0.0140258
915.791	0.0140818
915.869	0.0139587
915.947	0.0140532
916.025	0.0140848
916.103	0.0140933
916.182	0.0141017
916.260	0.0141122
916.338	0.0141142
916.416	0.0140740
916.494	0.0141130
916.572	0.0140192
916.650	0.0139758
916.728	0.0139855
916.807	0.0138717
916.885	0.0139664
916.963	0.0140594
917.041	0.0137663
917.119	0.0139540
917.197	0.0138608
917.275	0.0138220
917.353	0.0139629
917.432	0.0138565
917.510	0.0139182
917.588	0.0139088
917.666	0.0138751
917.744	0.0137822
917.822	0.0139017
917.900	0.0137710
917.978	0.0138599
918.057	0.0139086
918.135	0.0138827
918.213	0.0137974
918.291	0.0139902
918.369	0.0139862
918.447	0.0140668
918.525	0.0140646
918.603	0.0139635
918.682	0.0141125
918.760	0.0141513
918.838	0.0140356
918.916	0.0140837
918.994	0.0141474
919.072	0.0141769
919.150	0.0142189
919.228	0.0141975
919.307	0.0141716
919.385	0.0141513
919.463	0.0140900
919.541	0.0141393
919.619	0.0139928
919.697	0.0140641
919.775	0.0141721
919.853	0.0142128
919.932	0.0140752
920.010	0.0142435
920.088	0.0140657
920.166	0.0140852
920.244	0.0141129
920.322	0.0139516
920.400	0.0141126
920.478	0.0141425
920.557	0.0140101
920.635	0.0141245
920.713	0.0141339
920.791	0.0140009
920.869	0.0139163
920.947	0.0140768
921.025	0.0140654
921.103	0.0140722
921.182	0.0140932
921.260	0.0141148
921.338	0.0141836
921.416	0.0140373
921.494	0.0141571
921.572	0.0141486
921.650	0.0142594
921.728	0.0142819
921.807	0.0141084
921.885	0.0141570
921.963	0.0141788
922.041	0.0141459
922.119	0.0141731
922.197	0.0141897
922.275	0.0140334
922.353	0.0139767
922.432	0.0140197
922.510	0.0139939
922.588	0.0141100
922.666	0.0141037
922.744	0.0140184
922.822	0.0140208
922.900	0.0140127
922.978	0.0139500
923.057	0.0139445
923.135	0.0139591
923.213	0.0139595
923.291	0.0140070
923.369	0.0140669
923.447	0.0140427
923.525	0.0139561
923.603	0.0140082
923.682	0.0140959
923.760	0.0141219
923.838	0.0141618
923.916	0.0141402
923.994	0.0142675
924.072	0.0141347
924.150	0.0141656
924.228	0.0141402
924.307	0.0141653
924.385	0.0140373
924.463	0.0141544
924.541	0.0141232
924.619	0.0140921
924.697	0.0140601
924.775	0.0140749
924.853	0.0139941
924.932	0.0140827
925.010	0.0140234
925.088	0.0140907
925.166	0.0139893
925.244	0.0140570
925.322	0.0141567
925.400	0.0141664
925.478	0.0139974
925.557	0.0139989
925.635	0.0140113
925.713	0.0141465
925.791	0.0142737
925.869	0.0141370
925.947	0.0141907
926.025	0.0142931
926.103	0.0141872
926.182	0.0142232
926.260	0.0143920
926.338	0.0141863
926.416	0.0140598
926.494	0.0141069
926.572	0.0142427
926.650	0.0143055
926.728	0.0142541
926.807	0.0141579
926.885	0.0142079
926.963	0.0141778
927.041	0.0141407
927.119	0.0142426
927.197	0.0141322
927.275	0.0142594
927.353	0.0141345
927.432	0.0141716
927.510	0.0142247
927.588	0.0142089
927.666	0.0141566
927.744	0.0141228
927.822	0.0141161
927.900	0.0142237
927.978	0.0142214
928.057	0.0140611
928.135	0.0142474
928.213	0.0142040
928.291	0.0142526
928.369	0.0141853
928.447	0.0142770
928.525	0.0142960
928.603	0.0141406
928.682	0.0142308
928.760	0.0141824
928.838	0.0141334
928.916	0.0141254
928.994	0.0141226
929.072	0.0140592
929.150	0.0140652
929.228	0.0142213
929.307	0.0141868
929.385	0.0139606
929.463	0.0141244
929.541	0.0140421
929.619	0.0141039
929.697	0.0140409
929.775	0.0141063
929.853	0.0141294
929.932	0.0140298
930.010	0.0140778
930.088	0.0140142
930.166	0.0141727
930.244	0.0139673
930.322	0.0141403
930.400	0.0141264
930.478	0.0141629
930.557	0.0140807
930.635	0.0140185
930.713	0.0139938
930.791	0.0141881
930.869	0.0141971
930.947	0.0140412
931.025	0.0140757
931.103	0.0141432
931.182	0.0140321
931.260	0.0139619
931.338	0.0140554
931.416	0.0140775
931.494	0.0140542
931.572	0.0141743
931.650	0.0141880
931.728	0.0140084
931.807	0.0140814
931.885	0.0141800
931.963	0.0140758
932.041	0.0140504
932.119	0.0140465
932.197	0.0140626
932.275	0.0140096
932.353	0.0139304
932.432	0.0140471
932.510	0.0139759
932.588	0.0140568
932.666	0.0141167
932.744	0.0139199
932.822	0.0140060
932.900	0.0140633
932.978	0.0140215
933.057	0.0140510
933.135	0.0139881
933.213	0.0139861
933.291	0.0139400
933.369	0.0138792
933.447	0.0140006
933.525	0.0139484
933.603	0.0139144
933.682	0.0140260
933.760	0.0138756
933.838	0.0138527
933.916	0.0138583
933.994	0.0138662
934.072	0.0139293
934.150	0.0137928
934.228	0.0138501
934.307	0.0139891
934.385	0.0139075
934.463	0.0138773
934.541	0.0139852
934.619	0.0138747
934.697	0.0139784
934.775	0.0138897
934.853	0.0139565
934.932	0.0141103
935.010	0.0139660
935.088	0.0141037
935.166	0.0140911
935.244	0.0141003
935.322	0.0140841
935.400	0.0140723
935.478	0.0140761
935.557	0.0141163
935.635	0.0139531
935.713	0.0140347
935.791	0.0141002
935.869	0.0141496
935.947	0.0141318
936.025	0.0140316
936.103	0.0140482
936.182	0.0140655
936.260	0.0140672
936.338	0.0140121
936.416	0.0139045
936.494	0.0140529
936.572	0.0139948
936.650	0.0139703
936.728	0.0138618
936.807	0.0139684
936.885	0.0139336
936.963	0.0138950
937.041	0.0138013
937.119	0.0139011
937.197	0.0139760
937.275	0.0138131
937.353	0.0139855
937.432	0.0140240
937.510	0.0140507
937.588	0.0139563
937.666	0.0139216
937.744	0.0139970
937.822	0.0139759
937.900	0.0138629
937.978	0.0140165
938.057	0.0139573
938.135	0.0138836
938.213	0.0138558
938.291	0.0138525
938.369	0.0138634
938.447	0.0138882
938.525	0.0138674
938.603	0.0140509
938.682	0.0140871
938.760	0.0139559
938.838	0.0138306
938.916	0.0138012
938.994	0.0138621
939.072	0.0139939
939.150	0.0140903
939.228	0.0139200
939.307	0.0139914
939.385	0.0139840
939.463	0.0139462
939.541	0.0139410
939.619	0.0139589
939.697	0.0140193
939.775	0.0139863
939.853	0.0138670
939.932	0.0139342
940.010	0.0140308
940.088	0.0140476
940.166	0.0139740
940.244	0.0141512
940.322	0.0140472
940.400	0.0139497
940.478	0.0140211
940.557	0.0138571
940.635	0.0140643
940.713	0.0140664
940.791	0.0139880
940.869	0.0139582
940.947	0.0139847
941.025	0.0139567
941.103	0.0138490
941.182	0.0141219
941.260	0.0140706
941.338	0.0141590
941.416	0.0141748
941.494	0.0140282
941.572	0.0138966
941.650	0.0140793
941.728	0.0141415
941.807	0.0140026
941.885	0.0139446
941.963	0.0139981
942.041	0.0139840
942.119	0.0140637
942.197	0.0140124
942.275	0.0139868
942.353	0.0140393
942.432	0.0140768
942.510	0.0141035
942.588	0.0140797
942.666	0.0139126
942.744	0.0140697
942.822	0.0140353
942.900	0.0140620
942.978	0.0140040
943.057	0.0140685
943.135	0.0140173
943.213	0.0139051
943.291	0.0138203
943.369	0.0140750
943.447	0.0140332
943.525	0.0140038
943.603	0.0139834
943.682	0.0138770
943.760	0.0139175
943.838	0.0139709
943.916	0.0137814
943.994	0.0138834
944.072	0.0138210
944.150	0.0138921
944.228	0.0138651
944.307	0.0138857
944.385	0.0138371
944.463	0.0136999
944.541	0.0139599
944.619	0.0139736
944.697	0.0139240
944.775	0.0137418
944.853	0.0138002
944.932	0.0138879
945.010	0.0139275
945.088	0.0140011
945.166	0.0138962
945.244	0.0140041
945.322	0.0140367
945.400	0.0138016
945.478	0.0139792
945.557	0.0139303
945.635	0.0140461
945.713	0.0139651
945.791	0.0141327
945.869	0.0140802
945.947	0.0138723
946.025	0.0139566
946.103	0.0140253
946.182	0.0140044
946.260	0.0140872
946.338	0.0140645
946.416	0.0138972
946.494	0.0139149
946.572	0.0140262
946.650	0.0140035
946.728	0.0141665
946.807	0.0141086
946.885	0.0140222
946.963	0.0139207
947.041	0.0139878
947.119	0.0141193
947.197	0.0140250
947.275	0.0140439
947.353	0.0141014
947.432	0.0142569
947.510	0.0141736
947.588	0.0140405
947.666	0.0139648
947.744	0.0140414
947.822	0.0141328
947.900	0.0141191
947.978	0.0140044
948.057	0.0140095
948.135	0.0140504
948.213	0.0141809
948.291	0.0140399
948.369	0.0139330
948.447	0.0140390
948.525	0.0140690
948.603	0.0140695
948.682	0.0139536
948.760	0.0140315
948.838	0.0141299
948.916	0.0138712
948.994	0.0139413
949.072	0.0140099
949.150	0.0141229
949.228	0.0140445
949.307	0.0140294
949.385	0.0140422
949.463	0.0141242
949.541	0.0142176
949.619	0.0141338
949.697	0.0140887
949.775	0.0140749
949.853	0.0140926
949.932	0.0141177
950.010	0.0141662
950.088	0.0141505
950.166	0.0142656
950.244	0.0140389
950.322	0.0140720
950.400	0.0140517
950.478	0.0141345
950.557	0.0141651
950.635	0.0141665
950.713	0.0140423
950.791	0.0141222
950.869	0.0141926
950.947	0.0141954
951.025	0.0142045
951.103	0.0140891
951.182	0.0140670
951.260	0.0140527
951.338	0.0140593
951.416	0.0141519
951.494	0.0139924
951.572	0.0141554
951.650	0.0141526
951.728	0.0141302
951.807	0.0141748
951.885	0.0142728
951.963	0.0142144
952.041	0.0141116
952.119	0.0140757
952.197	0.0143642
952.275	0.0143426
952.353	0.0141381
952.432	0.0140756
952.510	0.0141988
952.588	0.0141875
952.666	0.0142253
952.744	0.0141867
952.822	0.0140113
952.900	0.0140944
952.978	0.0142723
953.057	0.0141682
953.135	0.0140411
953.213	0.0140408
953.291	0.0141814
953.369	0.0141232
953.447	0.0139559
953.525	0.0139639
953.603	0.0141145
953.682	0.0138789
953.760	0.0139742
953.838	0.0138011
953.916	0.0139375
953.994	0.0138187
954.072	0.0137257
954.150	0.0138515
954.228	0.0138486
954.307	0.0137976
954.385	0.0138006
954.463	0.0137760
954.541	0.0137031
954.619	0.0136683
954.697	0.0137338
954.775	0.0137836
954.853	0.0139042
954.932	0.0139931
955.010	0.0139231
955.088	0.0138239
955.166	0.0138941
955.244	0.0138223
955.322	0.0137323
955.400	0.0138920
955.478	0.0139459
955.557	0.0139273
955.635	0.0139023
955.713	0.0140099
955.791	0.0140324
955.869	0.0142155
955.947	0.0141682
956.025	0.0141048
956.103	0.0141277
956.182	0.0141747
956.260	0.0140965
956.338	0.0141494
956.416	0.0141457
956.494	0.0142054
956.572	0.0142532
956.650	0.0141489
956.728	0.0142777
956.807	0.0141777
956.885	0.0142349
956.963	0.0142242
957.041	0.0142487
957.119	0.0142261
957.197	0.0142230
957.275	0.0141602
957.353	0.0141279
957.432	0.0141760
957.510	0.0142434
957.588	0.0140395
957.666	0.0141557
957.744	0.0141932
957.822	0.0140816
957.900	0.0139561
957.978	0.0142075
958.057	0.0141580
958.135	0.0141202
958.213	0.0139970
958.291	0.0140706
958.369	0.0140290
958.447	0.0140861
958.525	0.0139360
958.603	0.0139609
958.682	0.0140886
958.760	0.0139509
958.838	0.0138908
958.916	0.0139312
958.994	0.0139887
959.072	0.0140137
959.150	0.0139378
959.228	0.0139624
959.307	0.0140296
959.385	0.0139123
959.463	0.0140216
959.541	0.0138780
959.619	0.0140423
959.697	0.0141035
959.775	0.0139167
959.853	0.0140220
959.932	0.0139151
960.010	0.0139385
960.088	0.0139184
960.166	0.0140038
960.244	0.0139539
960.322	0.0140400
960.400	0.0139206
960.478	0.0139978
960.557	0.0139587
960.635	0.0139278
960.713	0.0138971
960.791	0.0139993
960.869	0.0138915
960.947	0.0138620
961.025	0.0139553
961.103	0.0139397
961.182	0.0138873
961.260	0.0139494
961.338	0.0138404
961.416	0.0138905
961.494	0.0138686
961.572	0.0138409
961.650	0.0138967
961.728	0.0138325
961.807	0.0138528
961.885	0.0138696
961.963	0.0138180
962.041	0.0139280
962.119	0.0139665
962.197	0.0137914
962.275	0.0137280
962.353	0.0138068
962.432	0.0137681
962.510	0.0137260
962.588	0.0138116
962.666	0.0139030
962.744	0.0138319
962.822	0.0137511
962.900	0.0139377
962.978	0.0138924
963.057	0.0137749
963.135	0.0139231
963.213	0.0138331
963.291	0.0138078
963.369	0.0138919
963.447	0.0138770
963.525	0.0137811
963.603	0.0137331
963.682	0.0138108
963.760	0.0136127
963.838	0.0137599
963.916	0.0137762
963.994	0.0138210
964.072	0.0137622
964.150	0.0136784
964.228	0.0136826
964.307	0.0137820
964.385	0.0137318
964.463	0.0137423
964.541	0.0137795
964.619	0.0137707
964.697	0.0138840
964.775	0.0138366
964.853	0.0139361
964.932	0.0139777
965.010	0.0138805
965.088	0.0139016
965.166	0.0139693
965.244	0.0138068
965.322	0.0140127
965.400	0.0141222
965.478	0.0140202
965.557	0.0140097
965.635	0.0140953
965.713	0.0140496
965.791	0.0140540
965.869	0.0140389
965.947	0.0139944
966.025	0.0140395
966.103	0.0140502
966.182	0.0140614
966.260	0.0140696
966.338	0.0140405
966.416	0.0139874
966.494	0.0139595
966.572	0.0139249
966.650	0.0139922
966.728	0.0141586
966.807	0.0139926
966.885	0.0139561
966.963	0.0138599
967.041	0.0139541
967.119	0.0137454
967.197	0.0137505
967.275	0.0139635
967.353	0.0138256
967.432	0.0137518
967.510	0.0137785
967.588	0.0138690
967.666	0.0138346
967.744	0.0137489
967.822	0.0138334
967.900	0.0138280
967.978	0.0138374
968.057	0.0138119
968.135	0.0138708
968.213	0.0138246
968.291	0.0139596
968.369	0.0138757
968.447	0.0138731
968.525	0.0138512
968.603	0.0139420
968.682	0.0139498
968.760	0.0139628
968.838	0.0139918
968.916	0.0140448
968.994	0.0139135
969.072	0.0139030
969.150	0.0139744
969.228	0.0139683
969.307	0.0139451
969.385	0.0141039
969.463	0.0142379
969.541	0.0142068
969.619	0.0140955
969.697	0.0140853
969.775	0.0141589
969.853	0.0141486
969.932	0.0142056
