05/14/2022	19:39:51	Ver.	4.1	UNKNOWN
Optical Delay	650.009681	Delta X		0.078125	Sweeps	1	Scan Rate	0/0
Coordinates	Axis 1	NaN	Axis 2	NaN	Axis 3	NaN	Axis 4	NaN	Axis 5	NaN	Axis 6	0.000000
TX Power	0.000000	RX Power	0.000000

650.010	0.0145715
650.088	0.0144022
650.166	0.0143309
650.244	0.0144939
650.322	0.0143770
650.400	0.0143272
650.478	0.0142644
650.557	0.0142741
650.635	0.0144092
650.713	0.0142617
650.791	0.0143266
650.869	0.0144189
650.947	0.0145000
651.025	0.0145844
651.103	0.0144314
651.182	0.0144823
651.260	0.0145197
651.338	0.0146179
651.416	0.0146827
651.494	0.0145164
651.572	0.0146019
651.650	0.0146584
651.728	0.0144801
651.807	0.0145293
651.885	0.0145969
651.963	0.0147390
652.041	0.0144704
652.119	0.0145667
652.197	0.0145747
652.275	0.0144932
652.353	0.0143972
652.432	0.0144216
652.510	0.0144028
652.588	0.0143591
652.666	0.0144917
652.744	0.0144942
652.822	0.0144476
652.900	0.0144685
652.978	0.0145090
653.057	0.0144844
653.135	0.0145454
653.213	0.0145063
653.291	0.0143494
653.369	0.0143553
653.447	0.0143738
653.525	0.0143212
653.603	0.0141956
653.682	0.0143041
653.760	0.0141870
653.838	0.0140449
653.916	0.0140765
653.994	0.0141174
654.072	0.0139681
654.150	0.0140202
654.228	0.0140477
654.307	0.0141440
654.385	0.0140964
654.463	0.0141574
654.541	0.0142583
654.619	0.0143449
654.697	0.0143306
654.775	0.0143907
654.853	0.0144385
654.932	0.0144465
655.010	0.0146470
655.088	0.0147459
655.166	0.0144816
655.244	0.0146358
655.322	0.0146638
655.400	0.0144418
655.478	0.0144570
655.557	0.0144642
655.635	0.0145477
655.713	0.0144971
655.791	0.0142860
655.869	0.0142359
655.947	0.0142858
656.025	0.0142846
656.103	0.0142556
656.182	0.0143049
656.260	0.0142221
656.338	0.0141789
656.416	0.0142222
656.494	0.0142997
656.572	0.0142792
656.650	0.0142788
656.728	0.0143713
656.807	0.0144363
656.885	0.0145552
656.963	0.0144184
657.041	0.0146123
657.119	0.0146852
657.197	0.0146685
657.275	0.0145735
657.353	0.0146408
657.432	0.0145948
657.510	0.0145798
657.588	0.0145142
657.666	0.0145259
657.744	0.0145434
657.822	0.0144294
657.900	0.0145331
657.978	0.0143819
658.057	0.0142915
658.135	0.0142125
658.213	0.0140355
658.291	0.0139429
658.369	0.0139298
658.447	0.0139108
658.525	0.0139430
658.603	0.0139011
658.682	0.0138087
658.760	0.0138479
658.838	0.0138599
658.916	0.0138999
658.994	0.0140533
659.072	0.0142071
659.150	0.0144493
659.228	0.0144499
659.307	0.0145515
659.385	0.0147287
659.463	0.0148270
659.541	0.0149508
659.619	0.0151360
659.697	0.0150677
659.775	0.0151767
659.853	0.0152547
659.932	0.0152713
660.010	0.0151699
660.088	0.0151311
660.166	0.0152048
660.244	0.0152277
660.322	0.0150712
660.400	0.0148780
660.478	0.0147788
660.557	0.0147451
660.635	0.0147154
660.713	0.0145257
660.791	0.0143743
660.869	0.0140816
660.947	0.0140558
661.025	0.0139877
661.103	0.0138696
661.182	0.0136935
661.260	0.0136323
661.338	0.0135618
661.416	0.0135125
661.494	0.0135153
661.572	0.0134937
661.650	0.0135139
661.728	0.0134106
661.807	0.0136628
661.885	0.0137069
661.963	0.0137560
662.041	0.0139532
662.119	0.0141187
662.197	0.0141922
662.275	0.0143633
662.353	0.0147343
662.432	0.0148453
662.510	0.0151125
662.588	0.0151765
662.666	0.0152462
662.744	0.0156095
662.822	0.0157683
662.900	0.0158350
662.978	0.0159296
663.057	0.0159386
663.135	0.0159882
663.213	0.0159351
663.291	0.0159796
663.369	0.0158207
663.447	0.0159093
663.525	0.0158114
663.603	0.0158752
663.682	0.0157274
663.760	0.0154903
663.838	0.0153240
663.916	0.0153087
663.994	0.0152540
664.072	0.0150600
664.150	0.0148880
664.228	0.0145361
664.307	0.0144694
664.385	0.0142688
664.463	0.0140283
664.541	0.0136679
664.619	0.0135719
664.697	0.0133783
664.775	0.0131647
664.853	0.0128795
664.932	0.0126009
665.010	0.0126076
665.088	0.0124702
665.166	0.0121947
665.244	0.0118986
665.322	0.0119669
665.400	0.0118178
665.478	0.0118369
665.557	0.0119478
665.635	0.0121357
665.713	0.0120719
665.791	0.0122633
665.869	0.0127998
665.947	0.0129679
666.025	0.0130821
666.103	0.0137197
666.182	0.0139685
666.260	0.0144661
666.338	0.0149009
666.416	0.0153165
666.494	0.0159420
666.572	0.0163372
666.650	0.0167807
666.728	0.0172455
666.807	0.0176435
666.885	0.0179243
666.963	0.0182890
667.041	0.0183998
667.119	0.0185272
667.197	0.0184988
667.275	0.0183825
667.353	0.0181604
667.432	0.0180750
667.510	0.0177837
667.588	0.0173565
667.666	0.0168569
667.744	0.0166094
667.822	0.0159315
667.900	0.0155465
667.978	0.0149508
668.057	0.0145454
668.135	0.0139165
668.213	0.0132523
668.291	0.0127537
668.369	0.0121859
668.447	0.0116386
668.525	0.0112571
668.603	0.0109329
668.682	0.0104686
668.760	0.0101331
668.838	0.00997284
668.916	0.00984604
668.994	0.00982063
669.072	0.00999001
669.150	0.0101801
669.228	0.0104550
669.307	0.0106758
669.385	0.0110500
669.463	0.0113497
669.541	0.0117790
669.619	0.0122697
669.697	0.0129216
669.775	0.0133218
669.853	0.0138567
669.932	0.0143662
670.010	0.0146877
670.088	0.0151301
670.166	0.0156383
670.244	0.0158850
670.322	0.0162766
670.400	0.0167280
670.478	0.0170711
670.557	0.0174652
670.635	0.0177151
670.713	0.0177669
670.791	0.0180962
670.869	0.0181211
670.947	0.0184206
671.025	0.0185090
671.103	0.0185606
671.182	0.0185583
671.260	0.0185245
671.338	0.0183578
671.416	0.0181921
671.494	0.0179262
671.572	0.0176357
671.650	0.0174461
671.728	0.0169669
671.807	0.0168094
671.885	0.0163963
671.963	0.0157668
672.041	0.0155688
672.119	0.0150085
672.197	0.0145869
672.275	0.0141486
672.353	0.0136605
672.432	0.0131989
672.510	0.0126839
672.588	0.0121814
672.666	0.0118123
672.744	0.0111292
672.822	0.0107378
672.900	0.0103489
672.978	0.0102526
673.057	0.00984413
673.135	0.00958397
673.213	0.00957970
673.291	0.00941574
673.369	0.00949516
673.447	0.00970200
673.525	0.00977852
673.603	0.0101452
673.682	0.0106220
673.760	0.0108777
673.838	0.0113924
673.916	0.0119572
673.994	0.0124934
674.072	0.0130059
674.150	0.0136271
674.228	0.0141100
674.307	0.0146791
674.385	0.0153848
674.463	0.0158099
674.541	0.0165057
674.619	0.0170792
674.697	0.0174510
674.775	0.0178657
674.853	0.0182815
674.932	0.0185963
675.010	0.0188895
675.088	0.0190941
675.166	0.0191207
675.244	0.0193330
675.322	0.0191952
675.400	0.0189916
675.478	0.0186429
675.557	0.0185732
675.635	0.0181417
675.713	0.0176504
675.791	0.0174126
675.869	0.0169503
675.947	0.0163414
676.025	0.0159836
676.103	0.0156581
676.182	0.0151137
676.260	0.0147511
676.338	0.0143758
676.416	0.0137178
676.494	0.0134517
676.572	0.0130970
676.650	0.0127281
676.728	0.0122037
676.807	0.0118654
676.885	0.0115528
676.963	0.0112451
677.041	0.0110210
677.119	0.0109192
677.197	0.0108937
677.275	0.0109270
677.353	0.0107583
677.432	0.0110575
677.510	0.0112268
677.588	0.0114465
677.666	0.0116534
677.744	0.0119897
677.822	0.0123324
677.900	0.0124876
677.978	0.0129668
678.057	0.0131389
678.135	0.0133886
678.213	0.0137270
678.291	0.0138887
678.369	0.0140845
678.447	0.0143291
678.525	0.0146127
678.603	0.0149544
678.682	0.0151097
678.760	0.0153463
678.838	0.0154210
678.916	0.0155257
678.994	0.0157059
679.072	0.0158504
679.150	0.0160654
679.228	0.0160299
679.307	0.0159349
679.385	0.0159226
679.463	0.0159584
679.541	0.0157687
679.619	0.0156869
679.697	0.0156543
679.775	0.0156523
679.853	0.0154262
679.932	0.0152731
680.010	0.0153244
680.088	0.0151558
680.166	0.0149587
680.244	0.0150477
680.322	0.0148985
680.400	0.0148628
680.478	0.0148141
680.557	0.0148441
680.635	0.0148104
680.713	0.0146575
680.791	0.0146780
680.869	0.0147940
680.947	0.0148056
681.025	0.0147616
681.103	0.0147677
681.182	0.0147414
681.260	0.0148444
681.338	0.0148669
681.416	0.0146777
681.494	0.0146920
681.572	0.0146910
681.650	0.0146428
681.728	0.0147603
681.807	0.0146051
681.885	0.0145795
681.963	0.0147328
682.041	0.0146432
682.119	0.0146256
682.197	0.0146545
682.275	0.0145198
682.353	0.0143629
682.432	0.0143061
682.510	0.0144511
682.588	0.0143057
682.666	0.0142312
682.744	0.0140752
682.822	0.0139727
682.900	0.0140560
682.978	0.0139921
683.057	0.0139470
683.135	0.0139535
683.213	0.0138853
683.291	0.0138582
683.369	0.0138973
683.447	0.0137598
683.525	0.0135100
683.603	0.0135542
683.682	0.0133966
683.760	0.0133303
683.838	0.0131527
683.916	0.0130372
683.994	0.0128883
684.072	0.0129429
684.150	0.0127105
684.228	0.0127318
684.307	0.0128246
684.385	0.0127733
684.463	0.0129356
684.541	0.0130894
684.619	0.0131245
684.697	0.0133781
684.775	0.0137437
684.853	0.0138061
684.932	0.0138702
685.010	0.0142604
685.088	0.0145339
685.166	0.0147371
685.244	0.0149017
685.322	0.0151694
685.400	0.0155373
685.478	0.0155374
685.557	0.0156547
685.635	0.0159620
685.713	0.0161357
685.791	0.0161587
685.869	0.0163643
685.947	0.0166840
686.025	0.0166348
686.103	0.0166250
686.182	0.0166560
686.260	0.0167085
686.338	0.0165531
686.416	0.0165299
686.494	0.0166039
686.572	0.0166064
686.650	0.0161901
686.728	0.0161934
686.807	0.0160142
686.885	0.0157937
686.963	0.0156261
687.041	0.0153730
687.119	0.0152905
687.197	0.0149422
687.275	0.0148463
687.353	0.0145678
687.432	0.0143059
687.510	0.0142249
687.588	0.0140739
687.666	0.0137900
687.744	0.0136353
687.822	0.0134856
687.900	0.0133314
687.978	0.0129772
688.057	0.0128320
688.135	0.0128524
688.213	0.0125613
688.291	0.0124183
688.369	0.0122813
688.447	0.0121016
688.525	0.0120863
688.603	0.0119308
688.682	0.0118079
688.760	0.0115836
688.838	0.0116399
688.916	0.0117023
688.994	0.0118943
689.072	0.0117780
689.150	0.0118848
689.228	0.0119904
689.307	0.0120367
689.385	0.0122711
689.463	0.0124908
689.541	0.0127578
689.619	0.0128668
689.697	0.0132042
689.775	0.0135136
689.853	0.0138689
689.932	0.0141483
690.010	0.0145119
690.088	0.0149527
690.166	0.0152417
690.244	0.0155476
690.322	0.0160785
690.400	0.0163531
690.478	0.0164600
690.557	0.0169651
690.635	0.0173106
690.713	0.0173820
690.791	0.0176307
690.869	0.0176558
690.947	0.0177272
691.025	0.0176805
691.103	0.0177374
691.182	0.0176038
691.260	0.0174929
691.338	0.0172950
691.416	0.0171654
691.494	0.0169731
691.572	0.0166490
691.650	0.0163903
691.728	0.0160603
691.807	0.0157597
691.885	0.0154443
691.963	0.0149915
692.041	0.0147170
692.119	0.0144427
692.197	0.0140513
692.275	0.0137908
692.353	0.0135919
692.432	0.0133088
692.510	0.0130943
692.588	0.0127876
692.666	0.0125656
692.744	0.0124569
692.822	0.0124275
692.900	0.0123802
692.978	0.0122275
693.057	0.0121059
693.135	0.0123820
693.213	0.0123292
693.291	0.0124454
693.369	0.0123854
693.447	0.0125676
693.525	0.0126133
693.603	0.0127888
693.682	0.0130229
693.760	0.0130604
693.838	0.0132652
693.916	0.0135741
693.994	0.0136557
694.072	0.0140337
694.150	0.0141785
694.228	0.0142411
694.307	0.0145775
694.385	0.0148154
694.463	0.0149244
694.541	0.0150223
694.619	0.0151108
694.697	0.0153616
694.775	0.0153448
694.853	0.0152151
694.932	0.0152180
695.010	0.0152193
695.088	0.0149892
695.166	0.0148179
695.244	0.0148125
695.322	0.0147461
695.400	0.0144379
695.478	0.0146055
695.557	0.0144570
695.635	0.0143485
695.713	0.0142194
695.791	0.0143196
695.869	0.0140913
695.947	0.0140136
696.025	0.0141506
696.103	0.0142155
696.182	0.0139794
696.260	0.0140604
696.338	0.0141271
696.416	0.0141332
696.494	0.0142355
696.572	0.0142590
696.650	0.0142987
696.728	0.0144019
696.807	0.0144325
696.885	0.0146942
696.963	0.0148903
697.041	0.0148386
697.119	0.0150082
697.197	0.0149955
697.275	0.0151393
697.353	0.0152799
697.432	0.0154038
697.510	0.0155305
697.588	0.0155405
697.666	0.0157111
697.744	0.0157373
697.822	0.0157440
697.900	0.0157047
697.978	0.0156326
698.057	0.0156596
698.135	0.0154810
698.213	0.0154887
698.291	0.0152871
698.369	0.0151579
698.447	0.0148644
698.525	0.0146793
698.603	0.0144857
698.682	0.0141972
698.760	0.0140813
698.838	0.0139713
698.916	0.0136452
698.994	0.0135577
699.072	0.0134634
699.150	0.0133389
699.228	0.0132835
699.307	0.0133800
699.385	0.0132585
699.463	0.0132269
699.541	0.0133038
699.619	0.0134418
699.697	0.0135252
699.775	0.0136275
699.853	0.0137399
699.932	0.0137482
700.010	0.0138777
700.088	0.0139925
700.166	0.0140759
700.244	0.0139960
700.322	0.0140659
700.400	0.0140505
700.478	0.0140971
700.557	0.0140379
700.635	0.0140572
700.713	0.0140720
700.791	0.0141396
700.869	0.0140936
700.947	0.0142222
701.025	0.0141743
701.103	0.0140659
701.182	0.0143399
701.260	0.0144036
701.338	0.0144196
701.416	0.0144886
701.494	0.0145347
701.572	0.0145476
701.650	0.0148230
701.728	0.0149669
701.807	0.0150704
701.885	0.0150558
701.963	0.0152348
702.041	0.0153762
702.119	0.0153287
702.197	0.0155628
702.275	0.0157002
702.353	0.0156651
702.432	0.0158233
702.510	0.0157191
702.588	0.0157960
702.666	0.0159823
702.744	0.0158185
702.822	0.0156445
702.900	0.0156329
702.978	0.0154387
703.057	0.0151317
703.135	0.0150757
703.213	0.0148704
703.291	0.0146814
703.369	0.0144178
703.447	0.0141142
703.525	0.0141251
703.603	0.0138696
703.682	0.0135916
703.760	0.0134100
703.838	0.0134164
703.916	0.0132514
703.994	0.0131508
704.072	0.0131122
704.150	0.0130934
704.228	0.0128958
704.307	0.0130109
704.385	0.0131875
704.463	0.0133030
704.541	0.0134917
704.619	0.0136091
704.697	0.0138980
704.775	0.0140421
704.853	0.0142352
704.932	0.0144604
705.010	0.0147533
705.088	0.0148392
705.166	0.0151140
705.244	0.0154553
705.322	0.0155444
705.400	0.0154832
705.478	0.0156406
705.557	0.0157113
705.635	0.0156409
705.713	0.0157134
705.791	0.0155069
705.869	0.0153786
705.947	0.0154597
706.025	0.0151709
706.103	0.0151099
706.182	0.0148737
706.260	0.0147510
706.338	0.0145789
706.416	0.0143401
706.494	0.0143799
706.572	0.0140472
706.650	0.0137648
706.728	0.0138243
706.807	0.0136351
706.885	0.0135692
706.963	0.0133711
707.041	0.0132139
707.119	0.0130472
707.197	0.0130670
707.275	0.0129478
707.353	0.0129193
707.432	0.0130685
707.510	0.0129624
707.588	0.0129877
707.666	0.0130389
707.744	0.0130734
707.822	0.0132570
707.900	0.0133670
707.978	0.0135913
708.057	0.0136859
708.135	0.0141235
708.213	0.0142606
708.291	0.0146845
708.369	0.0147479
708.447	0.0149620
708.525	0.0149415
708.603	0.0151864
708.682	0.0153042
708.760	0.0155505
708.838	0.0156155
708.916	0.0157357
708.994	0.0158504
709.072	0.0159500
709.150	0.0159612
709.228	0.0158670
709.307	0.0159164
709.385	0.0159961
709.463	0.0160084
709.541	0.0157951
709.619	0.0159264
709.697	0.0156424
709.775	0.0156657
709.853	0.0154469
709.932	0.0153737
710.010	0.0151918
710.088	0.0150721
710.166	0.0149506
710.244	0.0149227
710.322	0.0146644
710.400	0.0144959
710.478	0.0142173
710.557	0.0141711
710.635	0.0140607
710.713	0.0138219
710.791	0.0136700
710.869	0.0135857
710.947	0.0135411
711.025	0.0133820
711.103	0.0135056
711.182	0.0133485
711.260	0.0131282
711.338	0.0129902
711.416	0.0130217
711.494	0.0130258
711.572	0.0129887
711.650	0.0129890
711.728	0.0130341
711.807	0.0132022
711.885	0.0133039
711.963	0.0132303
712.041	0.0133598
712.119	0.0135159
712.197	0.0137080
712.275	0.0140145
712.353	0.0140868
712.432	0.0141613
712.510	0.0144124
712.588	0.0145034
712.666	0.0146457
712.744	0.0146564
712.822	0.0149706
712.900	0.0150256
712.978	0.0149937
713.057	0.0152125
713.135	0.0152618
713.213	0.0152936
713.291	0.0153595
713.369	0.0152442
713.447	0.0154179
713.525	0.0154289
713.603	0.0153944
713.682	0.0155951
713.760	0.0156104
713.838	0.0155966
713.916	0.0155222
713.994	0.0155653
714.072	0.0154350
714.150	0.0153809
714.228	0.0153866
714.307	0.0153899
714.385	0.0152554
714.463	0.0152532
714.541	0.0150655
714.619	0.0149164
714.697	0.0148042
714.775	0.0146798
714.853	0.0146636
714.932	0.0145289
715.010	0.0143060
715.088	0.0143484
715.166	0.0143623
715.244	0.0143700
715.322	0.0142540
715.400	0.0142305
715.478	0.0140613
715.557	0.0140292
715.635	0.0141685
715.713	0.0139401
715.791	0.0139545
715.869	0.0138397
715.947	0.0137054
716.025	0.0137111
716.103	0.0136341
716.182	0.0136712
716.260	0.0136090
716.338	0.0136265
716.416	0.0136501
716.494	0.0136727
716.572	0.0136196
716.650	0.0137751
716.728	0.0138647
716.807	0.0139144
716.885	0.0139088
716.963	0.0140601
717.041	0.0141161
717.119	0.0140377
717.197	0.0142654
717.275	0.0143447
717.353	0.0143747
717.432	0.0144995
717.510	0.0146864
717.588	0.0147530
717.666	0.0147728
717.744	0.0147323
717.822	0.0150681
717.900	0.0150343
717.978	0.0149397
718.057	0.0151761
718.135	0.0152110
718.213	0.0153220
718.291	0.0153683
718.369	0.0151375
718.447	0.0153024
718.525	0.0153986
718.603	0.0152274
718.682	0.0152544
718.760	0.0151585
718.838	0.0151020
718.916	0.0151377
718.994	0.0149907
719.072	0.0149920
719.150	0.0149117
719.228	0.0147920
719.307	0.0145931
719.385	0.0145906
719.463	0.0145200
719.541	0.0144656
719.619	0.0142782
719.697	0.0141132
719.775	0.0140857
719.853	0.0141376
719.932	0.0140286
720.010	0.0140065
720.088	0.0140305
720.166	0.0138882
720.244	0.0138663
720.322	0.0140726
720.400	0.0139340
720.478	0.0139587
720.557	0.0139156
720.635	0.0138873
720.713	0.0139362
720.791	0.0139632
720.869	0.0138538
720.947	0.0139879
721.025	0.0139508
721.103	0.0139909
721.182	0.0139842
721.260	0.0140105
721.338	0.0142329
721.416	0.0140911
721.494	0.0142001
721.572	0.0143990
721.650	0.0144544
721.728	0.0146423
721.807	0.0145274
721.885	0.0146293
721.963	0.0146729
722.041	0.0147535
722.119	0.0149458
722.197	0.0148952
722.275	0.0149427
722.353	0.0149802
722.432	0.0149519
722.510	0.0149195
722.588	0.0149931
722.666	0.0149710
722.744	0.0149622
722.822	0.0150732
722.900	0.0149530
722.978	0.0149940
723.057	0.0149595
723.135	0.0150615
723.213	0.0149796
723.291	0.0148569
723.369	0.0147979
723.447	0.0148041
723.525	0.0149161
723.603	0.0148411
723.682	0.0147408
723.760	0.0145977
723.838	0.0146178
723.916	0.0146812
723.994	0.0146102
724.072	0.0145722
724.150	0.0146561
724.228	0.0145937
724.307	0.0146508
724.385	0.0145546
724.463	0.0144294
724.541	0.0144299
724.619	0.0143465
724.697	0.0142442
724.775	0.0143573
724.853	0.0141090
724.932	0.0142597
725.010	0.0141084
725.088	0.0142163
725.166	0.0141230
725.244	0.0140711
725.322	0.0141240
725.400	0.0140756
725.478	0.0142653
725.557	0.0141131
725.635	0.0141013
725.713	0.0143698
725.791	0.0144621
725.869	0.0144485
725.947	0.0146003
726.025	0.0145708
726.103	0.0146383
726.182	0.0145677
726.260	0.0146568
726.338	0.0146748
726.416	0.0144592
726.494	0.0147060
726.572	0.0146318
726.650	0.0145027
726.728	0.0144515
726.807	0.0146515
726.885	0.0145635
726.963	0.0143762
727.041	0.0144064
727.119	0.0143803
727.197	0.0145435
727.275	0.0145500
727.353	0.0142931
727.432	0.0141224
727.510	0.0142642
727.588	0.0141183
727.666	0.0142197
727.744	0.0141402
727.822	0.0141163
727.900	0.0142263
727.978	0.0142838
728.057	0.0142358
728.135	0.0144054
728.213	0.0144534
728.291	0.0144553
728.369	0.0144582
728.447	0.0146223
728.525	0.0147977
728.603	0.0145628
728.682	0.0149001
728.760	0.0149167
728.838	0.0150330
728.916	0.0149471
728.994	0.0150720
729.072	0.0149642
729.150	0.0150456
729.228	0.0151568
729.307	0.0150554
729.385	0.0149979
729.463	0.0147894
729.541	0.0147900
729.619	0.0147713
729.697	0.0147073
729.775	0.0148473
729.853	0.0146027
729.932	0.0145281
730.010	0.0145302
730.088	0.0143359
730.166	0.0141963
730.244	0.0141811
730.322	0.0141193
730.400	0.0141060
730.478	0.0138864
730.557	0.0138689
730.635	0.0137144
730.713	0.0136218
730.791	0.0136152
730.869	0.0137244
730.947	0.0137576
731.025	0.0135697
731.103	0.0136849
731.182	0.0135878
731.260	0.0136882
731.338	0.0137528
731.416	0.0138883
731.494	0.0139224
731.572	0.0141895
731.650	0.0141309
731.728	0.0140782
731.807	0.0143778
731.885	0.0142604
731.963	0.0144122
732.041	0.0144438
732.119	0.0145967
732.197	0.0147973
732.275	0.0147750
732.353	0.0148852
732.432	0.0149574
732.510	0.0150335
732.588	0.0149648
732.666	0.0151065
732.744	0.0152464
732.822	0.0153319
732.900	0.0152979
732.978	0.0153555
733.057	0.0152710
733.135	0.0153345
733.213	0.0151892
733.291	0.0152265
733.369	0.0152406
733.447	0.0152333
733.525	0.0151659
733.603	0.0150719
733.682	0.0151665
733.760	0.0149969
733.838	0.0150542
733.916	0.0148515
733.994	0.0147323
734.072	0.0147243
734.150	0.0146786
734.228	0.0146415
734.307	0.0146189
734.385	0.0146000
734.463	0.0145118
734.541	0.0144485
734.619	0.0143750
734.697	0.0142474
734.775	0.0142949
734.853	0.0141233
734.932	0.0141971
735.010	0.0141062
735.088	0.0141093
735.166	0.0139212
735.244	0.0139375
735.322	0.0139729
735.400	0.0137863
735.478	0.0139687
735.557	0.0139871
735.635	0.0138643
735.713	0.0138607
735.791	0.0139700
735.869	0.0138848
735.947	0.0138920
736.025	0.0141071
736.103	0.0139638
736.182	0.0139502
736.260	0.0140244
736.338	0.0140874
736.416	0.0140901
736.494	0.0141879
736.572	0.0140292
736.650	0.0141499
736.728	0.0141190
736.807	0.0142071
736.885	0.0140717
736.963	0.0142009
737.041	0.0142270
737.119	0.0142428
737.197	0.0141931
737.275	0.0140295
737.353	0.0142004
737.432	0.0142672
737.510	0.0142764
737.588	0.0144122
737.666	0.0143759
737.744	0.0144183
737.822	0.0145525
737.900	0.0145672
737.978	0.0145528
738.057	0.0146766
738.135	0.0146772
738.213	0.0149065
738.291	0.0149726
738.369	0.0148383
738.447	0.0150308
738.525	0.0150768
738.603	0.0151511
738.682	0.0150739
738.760	0.0150876
738.838	0.0153093
738.916	0.0153137
738.994	0.0153430
739.072	0.0154602
739.150	0.0154349
739.228	0.0153797
739.307	0.0153530
739.385	0.0154911
739.463	0.0153704
739.541	0.0153049
739.619	0.0152592
739.697	0.0151021
739.775	0.0150037
739.853	0.0149854
739.932	0.0148677
740.010	0.0147696
740.088	0.0147201
740.166	0.0146781
740.244	0.0145491
740.322	0.0144904
740.400	0.0144458
740.478	0.0144669
740.557	0.0144508
740.635	0.0142751
740.713	0.0141476
740.791	0.0142461
740.869	0.0140958
740.947	0.0141381
741.025	0.0141330
741.103	0.0140642
741.182	0.0141542
741.260	0.0140289
741.338	0.0141596
741.416	0.0141128
741.494	0.0141113
741.572	0.0142314
741.650	0.0142056
741.728	0.0142513
741.807	0.0143795
741.885	0.0142810
741.963	0.0143353
742.041	0.0142637
742.119	0.0142075
742.197	0.0142722
742.275	0.0143547
742.353	0.0142745
742.432	0.0142768
742.510	0.0142394
742.588	0.0142753
742.666	0.0142941
742.744	0.0142976
742.822	0.0143339
742.900	0.0143180
742.978	0.0143230
743.057	0.0142944
743.135	0.0145043
743.213	0.0143157
743.291	0.0144346
743.369	0.0145107
743.447	0.0144351
743.525	0.0145645
743.603	0.0146722
743.682	0.0146159
743.760	0.0147197
743.838	0.0148631
743.916	0.0146781
743.994	0.0147334
744.072	0.0148045
744.150	0.0147059
744.228	0.0145692
744.307	0.0147622
744.385	0.0147881
744.463	0.0147475
744.541	0.0146137
744.619	0.0147654
744.697	0.0146339
744.775	0.0146620
744.853	0.0147041
744.932	0.0147305
745.010	0.0146128
745.088	0.0147216
745.166	0.0147267
745.244	0.0146227
745.322	0.0146288
745.400	0.0146368
745.478	0.0146901
745.557	0.0147545
745.635	0.0146757
745.713	0.0147501
745.791	0.0145919
745.869	0.0145714
745.947	0.0146391
746.025	0.0146216
746.103	0.0145721
746.182	0.0145235
746.260	0.0145573
746.338	0.0145009
746.416	0.0145035
746.494	0.0145590
746.572	0.0144189
746.650	0.0145650
746.728	0.0145173
746.807	0.0144305
746.885	0.0143859
746.963	0.0143449
747.041	0.0142375
747.119	0.0143105
747.197	0.0142105
747.275	0.0142339
747.353	0.0142096
747.432	0.0140910
747.510	0.0141319
747.588	0.0139951
747.666	0.0141351
747.744	0.0141964
747.822	0.0142364
747.900	0.0140839
747.978	0.0141048
748.057	0.0141367
748.135	0.0142277
748.213	0.0140326
748.291	0.0139654
748.369	0.0140709
748.447	0.0141277
748.525	0.0139408
748.603	0.0141088
748.682	0.0142084
748.760	0.0141486
748.838	0.0141231
748.916	0.0141070
748.994	0.0140263
749.072	0.0141409
749.150	0.0141581
749.228	0.0141515
749.307	0.0141349
749.385	0.0141276
749.463	0.0141493
749.541	0.0143427
749.619	0.0142364
749.697	0.0142008
749.775	0.0142291
749.853	0.0141447
749.932	0.0141909
750.010	0.0142233
750.088	0.0142983
750.166	0.0142271
750.244	0.0141686
750.322	0.0142477
750.400	0.0142664
750.478	0.0142379
750.557	0.0141986
750.635	0.0141441
750.713	0.0141171
750.791	0.0141714
750.869	0.0142963
750.947	0.0143829
751.025	0.0142879
751.103	0.0142837
751.182	0.0144788
751.260	0.0143783
751.338	0.0145142
751.416	0.0146424
751.494	0.0146145
751.572	0.0145714
751.650	0.0147248
751.728	0.0148074
751.807	0.0147481
751.885	0.0148095
751.963	0.0146944
752.041	0.0148810
752.119	0.0148797
752.197	0.0147711
752.275	0.0149346
752.353	0.0149631
752.432	0.0148544
752.510	0.0147540
752.588	0.0149335
752.666	0.0147810
752.744	0.0148880
752.822	0.0147459
752.900	0.0149330
752.978	0.0147879
753.057	0.0147383
753.135	0.0148129
753.213	0.0146889
753.291	0.0147579
753.369	0.0148312
753.447	0.0147073
753.525	0.0147547
753.603	0.0146662
753.682	0.0146393
753.760	0.0146455
753.838	0.0146548
753.916	0.0147800
753.994	0.0147724
754.072	0.0146948
754.150	0.0145810
754.228	0.0145963
754.307	0.0145196
754.385	0.0146086
754.463	0.0146527
754.541	0.0144994
754.619	0.0143928
754.697	0.0143932
754.775	0.0144670
754.853	0.0144698
754.932	0.0143539
755.010	0.0142680
755.088	0.0141983
755.166	0.0141212
755.244	0.0141248
755.322	0.0141209
755.400	0.0141417
755.478	0.0141325
755.557	0.0141475
755.635	0.0141440
755.713	0.0142072
755.791	0.0141714
755.869	0.0141811
755.947	0.0142203
756.025	0.0143195
756.103	0.0143436
756.182	0.0143395
756.260	0.0141935
756.338	0.0143024
756.416	0.0144153
756.494	0.0142869
756.572	0.0143402
756.650	0.0143684
756.728	0.0142933
756.807	0.0143146
756.885	0.0143204
756.963	0.0142743
757.041	0.0143410
757.119	0.0145610
757.197	0.0144061
757.275	0.0144395
757.353	0.0144902
757.432	0.0143958
757.510	0.0144204
757.588	0.0144478
757.666	0.0144161
757.744	0.0143978
757.822	0.0143799
757.900	0.0143601
757.978	0.0145514
758.057	0.0144866
758.135	0.0143678
758.213	0.0144390
758.291	0.0144968
758.369	0.0145346
758.447	0.0144205
758.525	0.0145329
758.603	0.0145044
758.682	0.0145789
758.760	0.0146839
758.838	0.0146956
758.916	0.0147884
758.994	0.0146906
759.072	0.0145931
759.150	0.0146763
759.228	0.0148000
759.307	0.0148627
759.385	0.0148309
759.463	0.0147803
759.541	0.0148978
759.619	0.0148383
759.697	0.0148097
759.775	0.0149492
759.853	0.0148620
759.932	0.0147740
760.010	0.0148692
760.088	0.0150140
760.166	0.0149602
760.244	0.0148698
760.322	0.0148688
760.400	0.0147482
760.478	0.0146195
760.557	0.0148257
760.635	0.0146307
760.713	0.0146432
760.791	0.0144767
760.869	0.0144952
760.947	0.0144958
761.025	0.0143338
761.103	0.0143209
761.182	0.0142486
761.260	0.0141257
761.338	0.0140791
761.416	0.0140575
761.494	0.0140569
761.572	0.0140006
761.650	0.0140423
761.728	0.0140243
761.807	0.0138741
761.885	0.0139048
761.963	0.0141026
762.041	0.0140350
762.119	0.0141744
762.197	0.0140919
762.275	0.0139602
762.353	0.0142213
762.432	0.0143486
762.510	0.0142886
762.588	0.0142408
762.666	0.0143399
762.744	0.0143461
762.822	0.0144437
762.900	0.0144684
762.978	0.0144699
763.057	0.0145860
763.135	0.0148440
763.213	0.0148328
763.291	0.0148315
763.369	0.0149028
763.447	0.0148779
763.525	0.0148183
763.603	0.0148277
763.682	0.0147232
763.760	0.0148713
763.838	0.0147593
763.916	0.0146871
763.994	0.0147551
764.072	0.0145816
764.150	0.0145554
764.228	0.0146440
764.307	0.0145566
764.385	0.0144836
764.463	0.0144714
764.541	0.0143266
764.619	0.0144223
764.697	0.0142734
764.775	0.0142167
764.853	0.0142138
764.932	0.0140392
765.010	0.0140966
765.088	0.0141112
765.166	0.0140659
765.244	0.0140794
765.322	0.0139803
765.400	0.0138932
765.478	0.0140520
765.557	0.0139879
765.635	0.0140041
765.713	0.0139240
765.791	0.0140207
765.869	0.0140613
765.947	0.0142683
766.025	0.0141846
766.103	0.0141260
766.182	0.0142021
766.260	0.0142657
766.338	0.0143533
766.416	0.0145135
766.494	0.0144067
766.572	0.0145949
766.650	0.0146992
766.728	0.0145503
766.807	0.0145720
766.885	0.0147619
766.963	0.0148316
767.041	0.0148454
767.119	0.0147462
767.197	0.0150461
767.275	0.0150364
767.353	0.0150212
767.432	0.0150301
767.510	0.0149377
767.588	0.0151147
767.666	0.0151493
767.744	0.0151419
767.822	0.0150443
767.900	0.0150774
767.978	0.0149667
768.057	0.0147614
768.135	0.0147298
768.213	0.0147566
768.291	0.0146178
768.369	0.0144827
768.447	0.0145469
768.525	0.0143391
768.603	0.0143232
768.682	0.0141437
768.760	0.0141689
768.838	0.0140536
768.916	0.0139890
768.994	0.0138496
769.072	0.0138985
769.150	0.0136759
769.228	0.0136166
769.307	0.0137070
769.385	0.0136703
769.463	0.0136749
769.541	0.0134617
769.619	0.0135654
769.697	0.0134978
769.775	0.0134228
769.853	0.0136029
769.932	0.0136040
770.010	0.0134882
770.088	0.0134547
770.166	0.0135772
770.244	0.0136215
770.322	0.0136455
770.400	0.0136752
770.478	0.0138988
770.557	0.0138783
770.635	0.0138336
770.713	0.0139247
770.791	0.0138824
770.869	0.0140282
770.947	0.0141464
771.025	0.0142392
771.103	0.0143607
771.182	0.0142321
771.260	0.0144548
771.338	0.0145885
771.416	0.0146278
771.494	0.0147749
771.572	0.0148840
771.650	0.0149415
771.728	0.0148676
771.807	0.0149482
771.885	0.0149998
771.963	0.0149248
772.041	0.0152272
772.119	0.0152179
772.197	0.0152035
772.275	0.0152425
772.353	0.0150777
772.432	0.0151133
772.510	0.0151120
772.588	0.0150807
772.666	0.0150278
772.744	0.0150112
772.822	0.0149038
772.900	0.0146947
772.978	0.0147079
773.057	0.0147478
773.135	0.0146248
773.213	0.0145728
773.291	0.0144848
773.369	0.0146098
773.447	0.0143584
773.525	0.0143743
773.603	0.0143186
773.682	0.0142936
773.760	0.0141459
773.838	0.0141237
773.916	0.0141676
773.994	0.0141711
774.072	0.0140824
774.150	0.0141206
774.228	0.0140759
774.307	0.0141609
774.385	0.0140874
774.463	0.0142064
774.541	0.0142244
774.619	0.0140449
774.697	0.0141262
774.775	0.0142676
774.853	0.0142088
774.932	0.0142656
775.010	0.0143668
775.088	0.0143939
775.166	0.0143998
775.244	0.0144296
775.322	0.0144607
775.400	0.0144535
775.478	0.0143669
775.557	0.0145707
775.635	0.0146580
775.713	0.0145183
775.791	0.0145975
775.869	0.0146111
775.947	0.0145303
776.025	0.0145586
776.103	0.0146996
776.182	0.0145389
776.260	0.0145428
776.338	0.0147025
776.416	0.0145316
776.494	0.0146519
776.572	0.0146358
776.650	0.0145027
776.728	0.0144927
776.807	0.0145737
776.885	0.0144360
776.963	0.0145174
777.041	0.0143743
777.119	0.0144516
777.197	0.0144340
777.275	0.0142549
777.353	0.0143060
777.432	0.0143835
777.510	0.0142417
777.588	0.0143969
777.666	0.0144027
777.744	0.0144514
777.822	0.0143636
777.900	0.0142284
777.978	0.0141978
778.057	0.0143983
778.135	0.0143009
778.213	0.0144489
778.291	0.0143453
778.369	0.0143259
778.447	0.0143591
778.525	0.0142838
778.603	0.0142431
778.682	0.0143902
778.760	0.0145390
778.838	0.0144297
778.916	0.0144078
778.994	0.0143020
779.072	0.0144058
779.150	0.0145657
779.228	0.0145597
779.307	0.0145303
779.385	0.0143877
779.463	0.0145766
779.541	0.0145558
779.619	0.0145264
779.697	0.0145795
779.775	0.0145348
779.853	0.0145286
779.932	0.0145170
780.010	0.0144666
780.088	0.0145378
780.166	0.0145794
780.244	0.0144592
780.322	0.0144287
780.400	0.0144550
780.478	0.0143234
780.557	0.0142027
780.635	0.0142079
780.713	0.0143021
780.791	0.0142376
780.869	0.0143156
780.947	0.0142086
781.025	0.0142875
781.103	0.0142139
781.182	0.0144493
781.260	0.0143163
781.338	0.0143438
781.416	0.0143237
781.494	0.0144070
781.572	0.0145326
781.650	0.0145179
781.728	0.0145049
781.807	0.0143535
781.885	0.0145270
781.963	0.0146046
782.041	0.0146520
782.119	0.0147157
782.197	0.0145653
782.275	0.0145744
782.353	0.0145741
782.432	0.0145748
782.510	0.0146467
782.588	0.0145107
782.666	0.0145650
782.744	0.0146571
782.822	0.0146246
782.900	0.0145187
782.978	0.0144495
783.057	0.0144871
783.135	0.0146233
783.213	0.0146783
783.291	0.0145095
783.369	0.0145367
783.447	0.0146261
783.525	0.0144127
783.603	0.0144172
783.682	0.0144212
783.760	0.0142580
783.838	0.0144543
783.916	0.0144770
783.994	0.0144009
784.072	0.0142786
784.150	0.0142009
784.228	0.0143513
784.307	0.0143019
784.385	0.0141164
784.463	0.0142540
784.541	0.0142728
784.619	0.0142656
784.697	0.0143658
784.775	0.0142943
784.853	0.0140661
784.932	0.0141191
785.010	0.0141771
785.088	0.0140866
785.166	0.0139640
785.244	0.0140918
785.322	0.0140177
785.400	0.0139323
785.478	0.0139910
785.557	0.0138358
785.635	0.0139084
785.713	0.0139677
785.791	0.0138343
785.869	0.0137624
785.947	0.0140492
786.025	0.0141521
786.103	0.0140509
786.182	0.0140662
786.260	0.0140795
786.338	0.0142146
786.416	0.0142240
786.494	0.0142233
786.572	0.0145229
786.650	0.0143979
786.728	0.0145052
786.807	0.0145379
786.885	0.0145241
786.963	0.0146655
787.041	0.0148048
787.119	0.0148447
787.197	0.0147855
787.275	0.0148800
787.353	0.0148575
787.432	0.0147414
787.510	0.0150060
787.588	0.0151273
787.666	0.0150627
787.744	0.0149986
787.822	0.0150832
787.900	0.0150419
787.978	0.0149684
788.057	0.0150948
788.135	0.0151048
788.213	0.0149983
788.291	0.0151213
788.369	0.0149845
788.447	0.0150031
788.525	0.0149259
788.603	0.0149766
788.682	0.0147137
788.760	0.0146875
788.838	0.0146429
788.916	0.0145538
788.994	0.0143761
789.072	0.0142857
789.150	0.0142828
789.228	0.0140717
789.307	0.0139418
789.385	0.0139922
789.463	0.0138796
789.541	0.0139032
789.619	0.0138540
789.697	0.0137073
789.775	0.0138434
789.853	0.0137583
789.932	0.0138410
790.010	0.0138001
790.088	0.0139216
790.166	0.0137692
790.244	0.0136317
790.322	0.0136221
790.400	0.0137152
790.478	0.0137936
790.557	0.0136497
790.635	0.0137349
790.713	0.0138128
790.791	0.0137907
790.869	0.0139024
790.947	0.0139857
791.025	0.0138927
791.103	0.0140778
791.182	0.0141379
791.260	0.0142663
791.338	0.0143860
791.416	0.0143900
791.494	0.0144272
791.572	0.0145042
791.650	0.0144860
791.728	0.0144810
791.807	0.0145041
791.885	0.0146477
791.963	0.0147012
792.041	0.0146799
792.119	0.0144975
792.197	0.0145206
792.275	0.0147062
792.353	0.0146576
792.432	0.0146165
792.510	0.0145249
792.588	0.0146594
792.666	0.0147227
792.744	0.0146133
792.822	0.0146224
792.900	0.0147052
792.978	0.0146966
793.057	0.0147215
793.135	0.0145831
793.213	0.0146458
793.291	0.0147275
793.369	0.0148457
793.447	0.0148774
793.525	0.0147786
793.603	0.0149072
793.682	0.0149401
793.760	0.0149605
793.838	0.0148505
793.916	0.0151241
793.994	0.0150796
794.072	0.0150928
794.150	0.0151093
794.228	0.0150676
794.307	0.0150266
794.385	0.0149935
794.463	0.0149267
794.541	0.0147681
794.619	0.0148257
794.697	0.0147205
794.775	0.0146407
794.853	0.0145319
794.932	0.0143261
795.010	0.0143609
795.088	0.0142292
795.166	0.0140080
795.244	0.0139846
795.322	0.0139882
795.400	0.0141052
795.478	0.0140321
795.557	0.0143206
795.635	0.0141354
795.713	0.0140905
795.791	0.0142107
795.869	0.0142921
795.947	0.0143254
796.025	0.0142757
796.103	0.0142807
796.182	0.0144540
796.260	0.0144151
796.338	0.0143369
796.416	0.0143526
796.494	0.0144124
796.572	0.0143449
796.650	0.0143375
796.728	0.0141912
796.807	0.0141734
796.885	0.0141170
796.963	0.0141280
797.041	0.0142336
797.119	0.0141244
797.197	0.0140706
797.275	0.0139294
797.353	0.0139929
797.432	0.0139777
797.510	0.0139655
797.588	0.0139975
797.666	0.0139520
797.744	0.0140013
797.822	0.0139220
797.900	0.0141210
797.978	0.0142405
798.057	0.0142130
798.135	0.0143040
798.213	0.0143649
798.291	0.0144661
798.369	0.0146355
798.447	0.0146122
798.525	0.0145486
798.603	0.0146565
798.682	0.0146899
798.760	0.0147037
798.838	0.0147236
798.916	0.0148838
798.994	0.0147414
799.072	0.0145859
799.150	0.0147803
799.228	0.0147289
799.307	0.0146708
799.385	0.0146752
799.463	0.0145849
799.541	0.0145587
799.619	0.0144902
799.697	0.0145020
799.775	0.0144985
799.853	0.0144062
799.932	0.0142865
800.010	0.0142671
800.088	0.0143527
800.166	0.0143144
800.244	0.0143453
800.322	0.0144683
800.400	0.0143456
800.478	0.0144128
800.557	0.0145784
800.635	0.0145583
800.713	0.0143851
800.791	0.0144722
800.869	0.0145840
800.947	0.0146151
801.025	0.0146638
801.103	0.0146739
801.182	0.0147219
801.260	0.0145493
801.338	0.0145964
801.416	0.0147031
801.494	0.0147469
801.572	0.0145538
801.650	0.0144796
801.728	0.0145638
801.807	0.0145426
801.885	0.0143826
801.963	0.0144360
802.041	0.0143518
802.119	0.0143427
802.197	0.0143909
802.275	0.0144178
802.353	0.0144552
802.432	0.0143890
802.510	0.0143678
802.588	0.0142797
802.666	0.0145599
802.744	0.0144717
802.822	0.0146754
802.900	0.0147218
802.978	0.0146169
803.057	0.0147693
803.135	0.0148995
803.213	0.0147569
803.291	0.0148225
803.369	0.0147880
803.447	0.0147416
803.525	0.0146611
803.603	0.0147215
803.682	0.0146010
803.760	0.0147618
803.838	0.0144154
803.916	0.0143778
803.994	0.0143240
804.072	0.0143366
804.150	0.0142986
804.228	0.0141823
804.307	0.0142249
804.385	0.0142184
804.463	0.0143005
804.541	0.0142523
804.619	0.0143536
804.697	0.0143783
804.775	0.0143806
804.853	0.0144448
804.932	0.0145723
805.010	0.0144889
805.088	0.0144959
805.166	0.0144962
805.244	0.0147700
805.322	0.0146870
805.400	0.0146551
805.478	0.0147198
805.557	0.0148401
805.635	0.0147475
805.713	0.0149161
805.791	0.0150249
805.869	0.0147115
805.947	0.0147404
806.025	0.0148363
806.103	0.0148407
806.182	0.0147570
806.260	0.0146606
806.338	0.0146436
806.416	0.0144984
806.494	0.0144413
806.572	0.0143745
806.650	0.0142886
806.728	0.0140894
806.807	0.0140773
806.885	0.0141113
806.963	0.0140910
807.041	0.0138774
807.119	0.0140085
807.197	0.0139947
807.275	0.0141060
807.353	0.0139475
807.432	0.0140931
807.510	0.0142062
807.588	0.0143118
807.666	0.0144427
807.744	0.0145367
807.822	0.0146944
807.900	0.0146794
807.978	0.0146926
808.057	0.0146718
808.135	0.0146681
808.213	0.0147459
808.291	0.0146389
808.369	0.0145193
808.447	0.0146095
808.525	0.0145805
808.603	0.0146634
808.682	0.0144238
808.760	0.0145493
808.838	0.0145156
808.916	0.0145691
808.994	0.0146215
809.072	0.0144182
809.150	0.0145393
809.228	0.0144907
809.307	0.0145505
809.385	0.0146096
809.463	0.0145512
809.541	0.0144124
809.619	0.0146579
809.697	0.0147395
809.775	0.0146333
809.853	0.0145296
809.932	0.0146214
810.010	0.0144775
810.088	0.0144524
810.166	0.0145979
810.244	0.0147159
810.322	0.0143936
810.400	0.0145263
810.478	0.0144501
810.557	0.0145789
810.635	0.0143795
810.713	0.0145223
810.791	0.0143926
810.869	0.0142310
810.947	0.0142576
811.025	0.0143179
811.103	0.0143003
811.182	0.0142867
811.260	0.0142786
811.338	0.0141337
811.416	0.0143896
811.494	0.0144107
811.572	0.0144198
811.650	0.0143316
811.728	0.0145333
811.807	0.0145145
811.885	0.0143803
811.963	0.0141969
812.041	0.0141547
812.119	0.0139851
812.197	0.0141183
812.275	0.0141818
812.353	0.0140788
812.432	0.0139584
812.510	0.0139950
812.588	0.0139881
812.666	0.0140781
812.744	0.0141255
812.822	0.0141916
812.900	0.0142544
812.978	0.0141189
813.057	0.0143735
813.135	0.0143847
813.213	0.0145332
813.291	0.0147030
813.369	0.0147974
813.447	0.0149696
813.525	0.0149125
813.603	0.0149060
813.682	0.0150076
813.760	0.0151164
813.838	0.0150652
813.916	0.0151887
813.994	0.0150830
814.072	0.0149628
814.150	0.0149545
814.228	0.0148981
814.307	0.0147626
814.385	0.0147170
814.463	0.0146746
814.541	0.0146158
814.619	0.0141212
814.697	0.0141901
814.775	0.0141957
814.853	0.0140400
814.932	0.0141341
815.010	0.0141005
815.088	0.0139586
815.166	0.0139334
815.244	0.0140704
815.322	0.0139390
815.400	0.0141905
815.478	0.0142240
815.557	0.0144077
815.635	0.0144096
815.713	0.0144405
815.791	0.0144842
815.869	0.0145726
815.947	0.0147481
816.025	0.0148347
816.103	0.0149007
816.182	0.0149438
816.260	0.0150570
816.338	0.0151001
816.416	0.0149329
816.494	0.0149501
816.572	0.0148158
816.650	0.0147952
816.728	0.0146861
816.807	0.0146702
816.885	0.0146214
816.963	0.0146002
817.041	0.0144384
817.119	0.0145246
817.197	0.0144425
817.275	0.0142943
817.353	0.0145042
817.432	0.0145093
817.510	0.0143851
817.588	0.0144316
817.666	0.0146719
817.744	0.0146957
817.822	0.0144917
817.900	0.0146284
817.978	0.0147204
818.057	0.0145603
818.135	0.0147883
818.213	0.0147308
818.291	0.0148711
818.369	0.0148804
818.447	0.0147591
818.525	0.0149044
818.603	0.0147616
818.682	0.0148338
818.760	0.0148620
818.838	0.0149155
818.916	0.0147523
818.994	0.0147144
819.072	0.0148425
819.150	0.0148690
819.228	0.0146927
819.307	0.0146934
819.385	0.0147778
819.463	0.0146841
819.541	0.0145857
819.619	0.0145947
819.697	0.0143918
819.775	0.0143331
819.853	0.0141896
819.932	0.0141108
820.010	0.0141099
820.088	0.0140438
820.166	0.0140206
820.244	0.0139807
820.322	0.0140713
820.400	0.0141018
820.478	0.0142724
820.557	0.0143346
820.635	0.0143291
820.713	0.0144286
820.791	0.0145518
820.869	0.0148289
820.947	0.0148112
821.025	0.0148306
821.103	0.0148120
821.182	0.0148419
821.260	0.0149239
821.338	0.0149692
821.416	0.0147256
821.494	0.0147317
821.572	0.0147374
821.650	0.0146341
821.728	0.0143092
821.807	0.0142293
821.885	0.0143188
821.963	0.0140206
822.041	0.0140723
822.119	0.0140367
822.197	0.0138878
822.275	0.0139955
822.353	0.0139085
822.432	0.0140990
822.510	0.0139938
822.588	0.0142048
822.666	0.0142027
822.744	0.0144058
822.822	0.0143181
822.900	0.0144979
822.978	0.0146146
823.057	0.0147219
823.135	0.0147449
823.213	0.0146899
823.291	0.0146343
823.369	0.0146133
823.447	0.0148346
823.525	0.0147726
823.603	0.0145969
823.682	0.0147426
823.760	0.0147646
823.838	0.0145951
823.916	0.0146170
823.994	0.0146826
824.072	0.0146882
824.150	0.0146597
824.228	0.0145930
824.307	0.0147763
824.385	0.0148151
824.463	0.0147515
824.541	0.0147337
824.619	0.0147463
824.697	0.0147486
824.775	0.0145773
824.853	0.0146602
824.932	0.0145743
825.010	0.0145711
825.088	0.0144469
825.166	0.0144096
825.244	0.0142162
825.322	0.0141512
825.400	0.0142002
825.478	0.0141851
825.557	0.0143080
825.635	0.0142913
825.713	0.0143022
825.791	0.0143787
825.869	0.0143324
825.947	0.0143121
826.025	0.0143675
826.103	0.0144421
826.182	0.0144392
826.260	0.0145057
826.338	0.0143764
826.416	0.0144191
826.494	0.0144470
826.572	0.0142794
826.650	0.0142464
826.728	0.0141804
826.807	0.0140668
826.885	0.0141115
826.963	0.0141996
827.041	0.0140098
827.119	0.0141380
827.197	0.0140551
827.275	0.0139822
827.353	0.0141068
827.432	0.0140034
827.510	0.0139606
827.588	0.0141612
827.666	0.0140008
827.744	0.0140483
827.822	0.0141219
827.900	0.0141411
827.978	0.0141412
828.057	0.0143391
828.135	0.0142954
828.213	0.0144611
828.291	0.0144573
828.369	0.0145393
828.447	0.0146177
828.525	0.0145040
828.603	0.0146831
828.682	0.0147272
828.760	0.0147914
828.838	0.0146935
828.916	0.0147673
828.994	0.0146313
829.072	0.0148323
829.150	0.0148421
829.228	0.0148140
829.307	0.0149002
829.385	0.0150210
829.463	0.0149399
829.541	0.0148939
829.619	0.0149151
829.697	0.0148772
829.775	0.0147929
829.853	0.0147679
829.932	0.0147015
830.010	0.0145643
830.088	0.0144712
830.166	0.0145486
830.244	0.0143235
830.322	0.0144655
830.400	0.0142402
830.478	0.0142082
830.557	0.0142676
830.635	0.0142471
830.713	0.0142614
830.791	0.0143250
830.869	0.0140941
830.947	0.0141399
831.025	0.0143146
831.103	0.0144135
831.182	0.0144253
831.260	0.0142421
831.338	0.0143647
831.416	0.0145277
831.494	0.0146397
831.572	0.0145779
831.650	0.0146350
831.728	0.0145492
831.807	0.0148464
831.885	0.0150662
831.963	0.0148492
832.041	0.0148262
832.119	0.0150185
832.197	0.0150024
832.275	0.0149685
832.353	0.0148241
832.432	0.0147648
832.510	0.0148342
832.588	0.0146747
832.666	0.0146043
832.744	0.0144363
832.822	0.0143439
832.900	0.0142616
832.978	0.0141749
833.057	0.0140810
833.135	0.0140677
833.213	0.0139034
833.291	0.0138081
833.369	0.0137299
833.447	0.0135977
833.525	0.0137193
833.603	0.0136269
833.682	0.0133849
833.760	0.0135912
833.838	0.0137372
833.916	0.0136591
833.994	0.0136118
834.072	0.0136675
834.150	0.0137373
834.228	0.0140137
834.307	0.0140958
834.385	0.0141943
834.463	0.0144324
834.541	0.0145842
834.619	0.0144772
834.697	0.0146963
834.775	0.0148864
834.853	0.0150597
834.932	0.0148621
835.010	0.0150138
835.088	0.0150840
835.166	0.0151151
835.244	0.0150301
835.322	0.0150363
835.400	0.0149154
835.478	0.0149959
835.557	0.0149357
835.635	0.0150037
835.713	0.0147922
835.791	0.0147138
835.869	0.0146909
835.947	0.0146654
836.025	0.0146635
836.103	0.0145449
836.182	0.0145522
836.260	0.0145523
836.338	0.0145797
836.416	0.0145569
836.494	0.0145444
836.572	0.0145470
836.650	0.0144727
836.728	0.0145484
836.807	0.0146692
836.885	0.0145142
836.963	0.0145438
837.041	0.0144180
837.119	0.0144572
837.197	0.0145029
837.275	0.0144855
837.353	0.0144739
837.432	0.0145183
837.510	0.0145863
837.588	0.0145303
837.666	0.0145649
837.744	0.0146111
837.822	0.0145365
837.900	0.0146729
837.978	0.0145139
838.057	0.0146709
838.135	0.0145300
838.213	0.0146233
838.291	0.0144675
838.369	0.0145599
838.447	0.0144716
838.525	0.0145734
838.603	0.0143732
838.682	0.0143235
838.760	0.0144089
838.838	0.0143183
838.916	0.0143542
838.994	0.0143468
839.072	0.0144121
839.150	0.0145071
839.228	0.0144768
839.307	0.0145223
839.385	0.0147144
839.463	0.0145860
839.541	0.0147763
839.619	0.0147333
839.697	0.0148648
839.775	0.0148783
839.853	0.0150012
839.932	0.0148747
840.010	0.0148982
840.088	0.0149238
840.166	0.0147816
840.244	0.0146563
840.322	0.0146375
840.400	0.0147176
840.478	0.0146666
840.557	0.0144939
840.635	0.0144949
840.713	0.0144900
840.791	0.0144547
840.869	0.0144844
840.947	0.0145462
841.025	0.0145134
841.103	0.0145119
841.182	0.0143816
841.260	0.0143676
841.338	0.0143874
841.416	0.0142965
841.494	0.0143231
841.572	0.0142704
841.650	0.0141901
841.728	0.0142198
841.807	0.0142078
841.885	0.0141051
841.963	0.0140897
842.041	0.0141423
842.119	0.0141137
842.197	0.0142131
842.275	0.0142398
842.353	0.0143102
842.432	0.0143246
842.510	0.0143990
842.588	0.0144536
842.666	0.0146142
842.744	0.0146017
842.822	0.0145701
842.900	0.0146798
842.978	0.0146638
843.057	0.0147821
843.135	0.0146849
843.213	0.0148083
843.291	0.0146356
843.369	0.0147343
843.447	0.0146934
843.525	0.0146558
843.603	0.0145058
843.682	0.0145589
843.760	0.0146081
843.838	0.0144600
843.916	0.0144554
843.994	0.0144885
844.072	0.0144872
844.150	0.0145528
844.228	0.0143558
844.307	0.0143958
844.385	0.0143822
844.463	0.0143237
844.541	0.0143633
844.619	0.0143142
844.697	0.0142979
844.775	0.0143437
844.853	0.0142813
844.932	0.0143751
845.010	0.0143256
845.088	0.0141632
845.166	0.0142160
845.244	0.0142294
845.322	0.0142780
845.400	0.0143935
845.478	0.0142141
845.557	0.0143547
845.635	0.0144627
845.713	0.0143381
845.791	0.0143465
845.869	0.0144102
845.947	0.0143429
846.025	0.0144868
846.103	0.0146062
846.182	0.0147031
846.260	0.0144461
846.338	0.0145566
846.416	0.0148128
846.494	0.0146738
846.572	0.0147383
846.650	0.0147171
846.728	0.0148516
846.807	0.0149480
846.885	0.0147349
846.963	0.0146538
847.041	0.0147376
847.119	0.0148774
847.197	0.0148551
847.275	0.0147626
847.353	0.0147049
847.432	0.0145273
847.510	0.0145552
847.588	0.0145160
847.666	0.0143613
847.744	0.0143826
847.822	0.0144357
847.900	0.0141699
847.978	0.0141437
848.057	0.0142675
848.135	0.0143047
848.213	0.0142224
848.291	0.0139278
848.369	0.0139574
848.447	0.0140814
848.525	0.0141177
848.603	0.0140991
848.682	0.0141934
848.760	0.0142561
848.838	0.0142931
848.916	0.0143324
848.994	0.0141589
849.072	0.0142970
849.150	0.0144138
849.228	0.0144813
849.307	0.0143983
849.385	0.0143667
849.463	0.0144164
849.541	0.0142458
849.619	0.0142929
849.697	0.0143947
849.775	0.0144441
849.853	0.0145688
849.932	0.0144717
850.010	0.0142659
850.088	0.0143277
850.166	0.0144052
850.244	0.0144297
850.322	0.0144540
850.400	0.0143756
850.478	0.0143569
850.557	0.0144559
850.635	0.0145425
850.713	0.0144562
850.791	0.0143757
850.869	0.0144742
850.947	0.0144262
851.025	0.0145242
851.103	0.0144692
851.182	0.0143812
851.260	0.0145008
851.338	0.0144822
851.416	0.0144985
851.494	0.0145634
851.572	0.0144228
851.650	0.0143417
851.728	0.0145470
851.807	0.0142685
851.885	0.0143264
851.963	0.0143972
852.041	0.0142850
852.119	0.0142638
852.197	0.0141217
852.275	0.0141475
852.353	0.0140113
852.432	0.0140983
852.510	0.0140695
852.588	0.0141087
852.666	0.0139117
852.744	0.0139313
852.822	0.0140220
852.900	0.0140118
852.978	0.0139445
853.057	0.0140782
853.135	0.0140399
853.213	0.0141228
853.291	0.0139494
853.369	0.0142207
853.447	0.0142787
853.525	0.0141340
853.603	0.0143626
853.682	0.0143788
853.760	0.0145760
853.838	0.0144669
853.916	0.0146300
853.994	0.0145908
854.072	0.0147360
854.150	0.0148587
854.228	0.0147604
854.307	0.0148203
854.385	0.0149676
854.463	0.0147285
854.541	0.0148835
854.619	0.0148241
854.697	0.0148849
854.775	0.0147365
854.853	0.0147392
854.932	0.0146363
855.010	0.0145584
855.088	0.0145720
855.166	0.0145000
855.244	0.0145887
855.322	0.0145042
855.400	0.0144367
855.478	0.0144159
855.557	0.0144308
855.635	0.0144456
855.713	0.0145133
855.791	0.0144687
855.869	0.0144875
855.947	0.0143839
856.025	0.0145998
856.103	0.0145229
856.182	0.0144440
856.260	0.0144620
856.338	0.0144781
856.416	0.0143484
856.494	0.0142564
856.572	0.0143099
856.650	0.0143205
856.728	0.0144218
856.807	0.0143623
856.885	0.0142293
856.963	0.0142943
857.041	0.0143745
857.119	0.0143654
857.197	0.0143394
857.275	0.0144256
857.353	0.0144144
857.432	0.0143843
857.510	0.0144541
857.588	0.0143671
857.666	0.0143793
857.744	0.0144218
857.822	0.0143774
857.900	0.0142941
857.978	0.0143826
858.057	0.0144457
858.135	0.0144107
858.213	0.0147019
858.291	0.0146394
858.369	0.0144159
858.447	0.0143948
858.525	0.0145460
858.603	0.0146070
858.682	0.0144540
858.760	0.0144676
858.838	0.0143916
858.916	0.0144347
858.994	0.0143288
859.072	0.0145152
859.150	0.0141837
859.228	0.0141716
859.307	0.0142097
859.385	0.0141247
859.463	0.0141759
859.541	0.0141632
859.619	0.0140774
859.697	0.0140547
859.775	0.0141834
859.853	0.0140170
859.932	0.0141699
860.010	0.0141493
860.088	0.0141625
860.166	0.0140608
860.244	0.0141320
860.322	0.0142392
860.400	0.0142736
860.478	0.0142725
860.557	0.0143719
860.635	0.0143179
860.713	0.0145098
860.791	0.0145889
860.869	0.0146200
860.947	0.0147549
861.025	0.0148017
861.103	0.0147210
861.182	0.0148735
861.260	0.0148580
861.338	0.0148457
861.416	0.0149677
861.494	0.0149768
861.572	0.0149593
861.650	0.0148968
861.728	0.0150099
861.807	0.0149449
861.885	0.0148797
861.963	0.0148184
862.041	0.0148032
862.119	0.0147210
862.197	0.0148306
862.275	0.0147790
862.353	0.0149328
862.432	0.0148615
862.510	0.0149144
862.588	0.0148475
862.666	0.0147794
862.744	0.0147780
862.822	0.0149068
862.900	0.0148119
862.978	0.0147164
863.057	0.0147122
863.135	0.0146866
863.213	0.0146880
863.291	0.0146276
863.369	0.0146857
863.447	0.0145503
863.525	0.0144604
863.603	0.0144975
863.682	0.0143340
863.760	0.0144936
863.838	0.0142869
863.916	0.0143241
863.994	0.0141654
864.072	0.0143601
864.150	0.0142961
864.228	0.0142059
864.307	0.0141441
864.385	0.0140752
864.463	0.0140606
864.541	0.0140385
864.619	0.0140584
864.697	0.0140985
864.775	0.0141412
864.853	0.0141086
864.932	0.0141850
865.010	0.0142466
865.088	0.0142564
865.166	0.0142289
865.244	0.0143204
865.322	0.0142825
865.400	0.0145085
865.478	0.0145660
865.557	0.0145292
865.635	0.0144136
865.713	0.0145950
865.791	0.0147182
865.869	0.0145823
865.947	0.0144076
866.025	0.0146989
866.103	0.0146701
866.182	0.0145990
866.260	0.0146624
866.338	0.0147001
866.416	0.0147543
866.494	0.0148174
866.572	0.0147684
866.650	0.0147688
866.728	0.0147527
866.807	0.0147696
866.885	0.0147311
866.963	0.0148046
867.041	0.0146956
867.119	0.0144973
867.197	0.0145212
867.275	0.0144774
867.353	0.0144803
867.432	0.0142217
867.510	0.0142896
867.588	0.0142693
867.666	0.0142809
867.744	0.0141985
867.822	0.0141419
867.900	0.0139883
867.978	0.0141557
868.057	0.0140896
868.135	0.0140971
868.213	0.0140998
868.291	0.0140498
868.369	0.0142139
868.447	0.0141275
868.525	0.0139852
868.603	0.0141689
868.682	0.0141891
868.760	0.0141940
868.838	0.0140199
868.916	0.0139519
868.994	0.0141134
869.072	0.0143148
869.150	0.0142039
869.228	0.0141797
869.307	0.0143913
869.385	0.0143313
869.463	0.0145033
869.541	0.0145710
869.619	0.0144823
869.697	0.0144830
869.775	0.0145263
869.853	0.0145035
869.932	0.0147480
870.010	0.0145876
870.088	0.0145422
870.166	0.0145974
870.244	0.0147369
870.322	0.0146128
870.400	0.0145934
870.478	0.0146758
870.557	0.0147487
870.635	0.0146693
870.713	0.0146220
870.791	0.0145212
870.869	0.0146408
870.947	0.0145112
871.025	0.0144987
871.103	0.0145473
871.182	0.0145176
871.260	0.0145099
871.338	0.0142657
871.416	0.0143270
871.494	0.0145151
871.572	0.0144035
871.650	0.0143293
871.728	0.0144070
871.807	0.0143407
871.885	0.0144411
871.963	0.0143701
872.041	0.0142699
872.119	0.0143651
872.197	0.0143495
872.275	0.0144344
872.353	0.0144216
872.432	0.0143303
872.510	0.0143598
872.588	0.0143127
872.666	0.0143697
872.744	0.0144297
872.822	0.0143320
872.900	0.0144460
872.978	0.0143901
873.057	0.0143399
873.135	0.0142323
873.213	0.0144849
873.291	0.0144568
873.369	0.0144061
873.447	0.0145378
873.525	0.0147070
873.603	0.0146272
873.682	0.0144631
873.760	0.0146838
873.838	0.0146529
873.916	0.0146581
873.994	0.0146881
874.072	0.0147034
874.150	0.0145638
874.228	0.0146954
874.307	0.0146727
874.385	0.0143618
874.463	0.0145079
874.541	0.0145844
874.619	0.0145992
874.697	0.0145508
874.775	0.0145559
874.853	0.0144096
874.932	0.0144406
875.010	0.0144775
875.088	0.0144616
875.166	0.0144497
875.244	0.0142395
875.322	0.0142747
875.400	0.0144003
875.478	0.0142482
875.557	0.0141389
875.635	0.0142152
875.713	0.0143382
875.791	0.0140758
875.869	0.0141195
875.947	0.0143019
876.025	0.0141621
876.103	0.0142149
876.182	0.0142608
876.260	0.0142116
876.338	0.0140937
876.416	0.0140834
876.494	0.0142037
876.572	0.0141943
876.650	0.0141277
876.728	0.0142580
876.807	0.0143095
876.885	0.0142287
876.963	0.0142548
877.041	0.0144333
877.119	0.0144237
877.197	0.0144064
877.275	0.0145048
877.353	0.0145779
877.432	0.0146149
877.510	0.0147048
877.588	0.0146140
877.666	0.0146037
877.744	0.0145869
877.822	0.0147787
877.900	0.0147529
877.978	0.0147683
878.057	0.0147144
878.135	0.0146515
878.213	0.0147525
878.291	0.0146057
878.369	0.0146064
878.447	0.0145524
878.525	0.0145514
878.603	0.0146082
878.682	0.0144964
878.760	0.0144927
878.838	0.0144737
878.916	0.0144743
878.994	0.0145016
879.072	0.0143662
879.150	0.0145982
879.228	0.0144409
879.307	0.0143524
879.385	0.0144883
879.463	0.0143774
879.541	0.0143146
879.619	0.0144198
879.697	0.0143754
879.775	0.0142335
879.853	0.0141801
879.932	0.0142815
880.010	0.0143213
880.088	0.0142793
880.166	0.0143659
880.244	0.0141004
880.322	0.0143304
880.400	0.0142132
880.478	0.0141333
880.557	0.0141008
880.635	0.0141513
880.713	0.0143224
880.791	0.0143044
880.869	0.0142771
880.947	0.0143055
881.025	0.0142480
881.103	0.0144000
881.182	0.0144890
881.260	0.0145013
881.338	0.0145674
881.416	0.0144838
881.494	0.0144736
881.572	0.0146429
881.650	0.0145882
881.728	0.0145670
881.807	0.0146947
881.885	0.0145106
881.963	0.0146373
882.041	0.0147295
882.119	0.0146199
882.197	0.0147324
882.275	0.0147296
882.353	0.0147764
882.432	0.0147646
882.510	0.0146970
882.588	0.0146432
882.666	0.0147692
882.744	0.0150640
882.822	0.0146964
882.900	0.0146922
882.978	0.0147675
883.057	0.0146436
883.135	0.0146478
883.213	0.0146523
883.291	0.0144865
883.369	0.0146597
883.447	0.0145914
883.525	0.0145487
883.603	0.0144643
883.682	0.0143087
883.760	0.0143385
883.838	0.0144334
883.916	0.0142709
883.994	0.0143624
884.072	0.0143089
884.150	0.0142630
884.228	0.0142817
884.307	0.0142480
884.385	0.0143885
884.463	0.0143069
884.541	0.0142331
884.619	0.0142210
884.697	0.0143466
884.775	0.0140809
884.853	0.0142611
884.932	0.0142891
885.010	0.0142619
885.088	0.0142714
885.166	0.0143066
885.244	0.0144141
885.322	0.0142840
885.400	0.0142282
885.478	0.0143201
885.557	0.0142096
885.635	0.0143659
885.713	0.0143944
885.791	0.0144339
885.869	0.0144520
885.947	0.0144090
886.025	0.0144775
886.103	0.0144744
886.182	0.0144429
886.260	0.0144078
886.338	0.0145419
886.416	0.0144588
886.494	0.0145395
886.572	0.0143583
886.650	0.0144873
886.728	0.0144236
886.807	0.0144586
886.885	0.0144171
886.963	0.0144352
887.041	0.0143825
887.119	0.0144066
887.197	0.0143969
887.275	0.0143698
887.353	0.0144412
887.432	0.0142857
887.510	0.0143584
887.588	0.0144138
887.666	0.0144054
887.744	0.0143320
887.822	0.0144583
887.900	0.0143252
887.978	0.0143880
888.057	0.0143217
888.135	0.0145219
888.213	0.0146113
888.291	0.0143553
888.369	0.0142479
888.447	0.0144218
888.525	0.0145300
888.603	0.0144305
888.682	0.0144799
888.760	0.0144163
888.838	0.0145207
888.916	0.0143707
888.994	0.0143008
889.072	0.0144583
889.150	0.0144968
889.228	0.0145671
889.307	0.0143443
889.385	0.0145708
889.463	0.0145615
889.541	0.0145938
889.619	0.0146653
889.697	0.0147241
889.775	0.0146286
889.853	0.0147377
889.932	0.0146616
890.010	0.0146646
890.088	0.0145081
890.166	0.0146397
890.244	0.0145688
890.322	0.0146426
890.400	0.0145975
890.478	0.0144761
890.557	0.0144794
890.635	0.0146231
890.713	0.0144624
890.791	0.0145337
890.869	0.0146958
890.947	0.0146062
891.025	0.0146560
891.103	0.0145514
891.182	0.0146547
891.260	0.0147083
891.338	0.0144485
891.416	0.0147356
891.494	0.0147591
891.572	0.0146654
891.650	0.0147745
891.728	0.0147402
891.807	0.0147676
891.885	0.0147405
891.963	0.0146426
892.041	0.0145538
892.119	0.0146073
892.197	0.0145525
892.275	0.0146397
892.353	0.0146736
892.432	0.0145502
892.510	0.0144979
892.588	0.0144973
892.666	0.0144196
892.744	0.0145676
892.822	0.0146023
892.900	0.0144189
892.978	0.0144435
893.057	0.0144458
893.135	0.0144910
893.213	0.0145448
893.291	0.0143420
893.369	0.0144196
893.447	0.0144088
893.525	0.0143692
893.603	0.0145340
893.682	0.0145827
893.760	0.0144857
893.838	0.0145655
893.916	0.0145366
893.994	0.0145576
894.072	0.0144764
894.150	0.0145896
894.228	0.0146377
894.307	0.0146120
894.385	0.0144539
894.463	0.0144827
894.541	0.0144279
894.619	0.0145153
894.697	0.0144942
894.775	0.0143990
894.853	0.0143861
894.932	0.0143410
895.010	0.0143781
895.088	0.0144205
895.166	0.0142564
895.244	0.0142783
895.322	0.0144325
895.400	0.0142049
895.478	0.0142883
895.557	0.0143198
895.635	0.0145149
895.713	0.0145203
895.791	0.0142833
895.869	0.0143984
895.947	0.0146171
896.025	0.0143707
896.103	0.0144643
896.182	0.0146146
896.260	0.0145230
896.338	0.0146668
896.416	0.0147582
896.494	0.0147752
896.572	0.0146857
896.650	0.0145878
896.728	0.0147679
896.807	0.0147021
896.885	0.0147765
896.963	0.0147515
897.041	0.0148643
897.119	0.0148294
897.197	0.0147676
897.275	0.0147021
897.353	0.0145181
897.432	0.0147887
897.510	0.0146773
897.588	0.0146211
897.666	0.0147870
897.744	0.0145621
897.822	0.0144487
897.900	0.0146237
897.978	0.0146171
898.057	0.0144822
898.135	0.0142678
898.213	0.0143366
898.291	0.0143483
898.369	0.0143475
898.447	0.0143535
898.525	0.0142060
898.603	0.0143335
898.682	0.0143162
898.760	0.0142076
898.838	0.0142906
898.916	0.0142789
898.994	0.0144908
899.072	0.0144955
899.150	0.0145464
899.228	0.0144643
899.307	0.0144095
899.385	0.0144759
899.463	0.0144539
899.541	0.0146828
899.619	0.0145892
899.697	0.0144691
899.775	0.0144669
899.853	0.0143942
899.932	0.0146056
900.010	0.0145915
900.088	0.0145584
900.166	0.0145072
900.244	0.0145847
900.322	0.0144911
900.400	0.0145183
900.478	0.0144550
900.557	0.0145353
900.635	0.0145111
900.713	0.0144709
900.791	0.0146095
900.869	0.0145761
900.947	0.0144840
901.025	0.0144486
901.103	0.0144720
901.182	0.0143470
901.260	0.0145335
901.338	0.0144189
901.416	0.0144324
901.494	0.0145197
901.572	0.0144308
901.650	0.0143671
901.728	0.0143530
901.807	0.0144481
901.885	0.0143630
901.963	0.0144424
902.041	0.0142180
902.119	0.0143394
902.197	0.0142448
902.275	0.0143848
902.353	0.0142134
902.432	0.0144505
902.510	0.0142800
902.588	0.0144306
902.666	0.0144383
902.744	0.0144324
902.822	0.0143018
902.900	0.0145057
902.978	0.0143967
903.057	0.0143561
903.135	0.0144487
903.213	0.0143815
903.291	0.0144216
903.369	0.0144753
903.447	0.0145325
903.525	0.0144662
903.603	0.0143109
903.682	0.0144379
903.760	0.0144859
903.838	0.0146797
903.916	0.0146231
903.994	0.0145951
904.072	0.0145659
904.150	0.0145609
904.228	0.0145572
904.307	0.0146835
904.385	0.0146764
904.463	0.0147844
904.541	0.0147268
904.619	0.0147166
904.697	0.0145920
904.775	0.0145902
904.853	0.0145470
904.932	0.0145341
905.010	0.0147015
905.088	0.0146371
905.166	0.0146976
905.244	0.0145723
905.322	0.0144840
905.400	0.0145413
905.478	0.0146971
905.557	0.0145461
905.635	0.0143935
905.713	0.0144807
905.791	0.0146513
905.869	0.0145097
905.947	0.0145248
906.025	0.0144298
906.103	0.0145128
906.182	0.0145212
906.260	0.0144338
906.338	0.0144615
906.416	0.0145186
906.494	0.0145528
906.572	0.0144279
906.650	0.0143807
906.728	0.0143824
906.807	0.0144360
906.885	0.0142979
906.963	0.0142327
907.041	0.0144337
907.119	0.0143626
907.197	0.0142671
907.275	0.0142987
907.353	0.0142857
907.432	0.0141605
907.510	0.0141147
907.588	0.0142139
907.666	0.0141193
907.744	0.0141642
907.822	0.0143001
907.900	0.0142753
907.978	0.0141159
908.057	0.0141410
908.135	0.0141810
908.213	0.0141541
908.291	0.0142014
908.369	0.0142200
908.447	0.0141785
908.525	0.0142202
908.603	0.0141740
908.682	0.0143384
908.760	0.0142113
908.838	0.0141897
908.916	0.0143512
908.994	0.0144093
909.072	0.0144438
909.150	0.0145019
909.228	0.0144062
909.307	0.0144877
909.385	0.0144135
909.463	0.0144563
909.541	0.0147048
909.619	0.0146213
909.697	0.0145062
909.775	0.0145850
909.853	0.0146287
909.932	0.0144655
910.010	0.0145965
910.088	0.0145123
910.166	0.0145343
910.244	0.0145547
910.322	0.0146427
910.400	0.0146415
910.478	0.0145911
910.557	0.0148030
910.635	0.0145912
910.713	0.0147060
910.791	0.0148580
910.869	0.0146552
910.947	0.0146236
911.025	0.0147646
911.103	0.0147479
911.182	0.0145943
911.260	0.0146461
911.338	0.0146306
911.416	0.0145029
911.494	0.0145648
911.572	0.0146558
911.650	0.0144654
911.728	0.0146140
911.807	0.0146114
911.885	0.0144553
911.963	0.0145418
912.041	0.0142235
912.119	0.0143756
912.197	0.0143669
912.275	0.0144533
912.353	0.0143762
912.432	0.0144119
912.510	0.0143078
912.588	0.0143239
912.666	0.0144500
912.744	0.0144959
912.822	0.0144171
912.900	0.0143819
912.978	0.0143759
913.057	0.0144592
913.135	0.0144819
913.213	0.0144870
913.291	0.0144516
913.369	0.0145246
913.447	0.0144693
913.525	0.0145766
913.603	0.0145523
913.682	0.0145022
913.760	0.0143495
913.838	0.0145429
913.916	0.0145434
913.994	0.0144662
914.072	0.0145374
914.150	0.0143758
914.228	0.0144664
914.307	0.0145345
914.385	0.0145926
914.463	0.0144512
914.541	0.0144525
914.619	0.0143111
914.697	0.0144987
914.775	0.0144747
914.853	0.0144261
914.932	0.0142729
915.010	0.0143892
915.088	0.0145743
915.166	0.0144192
915.244	0.0143581
915.322	0.0144262
915.400	0.0144759
915.478	0.0144735
915.557	0.0144887
915.635	0.0143344
915.713	0.0143310
915.791	0.0144046
915.869	0.0145799
915.947	0.0144218
916.025	0.0143964
916.103	0.0144936
916.182	0.0143874
916.260	0.0143448
916.338	0.0144051
916.416	0.0144537
916.494	0.0143765
916.572	0.0144437
916.650	0.0144273
916.728	0.0143684
916.807	0.0144823
916.885	0.0144563
916.963	0.0143906
917.041	0.0146067
917.119	0.0144859
917.197	0.0145812
917.275	0.0145410
917.353	0.0144241
917.432	0.0144873
917.510	0.0145007
917.588	0.0143540
917.666	0.0143829
917.744	0.0145364
917.822	0.0144505
917.900	0.0144946
917.978	0.0144485
918.057	0.0143925
918.135	0.0145399
918.213	0.0144456
918.291	0.0145084
918.369	0.0144444
918.447	0.0145119
918.525	0.0144553
918.603	0.0142503
918.682	0.0144460
918.760	0.0144122
918.838	0.0144349
918.916	0.0144987
918.994	0.0143057
919.072	0.0144337
919.150	0.0145518
919.228	0.0145263
919.307	0.0143903
919.385	0.0144968
919.463	0.0145011
919.541	0.0146129
919.619	0.0146131
919.697	0.0145474
919.775	0.0146154
919.853	0.0145669
919.932	0.0146486
920.010	0.0146864
920.088	0.0146561
920.166	0.0146595
920.244	0.0147061
920.322	0.0147301
920.400	0.0145881
920.478	0.0145576
920.557	0.0145097
920.635	0.0147033
920.713	0.0146500
920.791	0.0145623
920.869	0.0144888
920.947	0.0145091
921.025	0.0147305
921.103	0.0144376
921.182	0.0145464
921.260	0.0145319
921.338	0.0145280
921.416	0.0145702
921.494	0.0144820
921.572	0.0145579
921.650	0.0144280
921.728	0.0144894
921.807	0.0143144
921.885	0.0144495
921.963	0.0144901
922.041	0.0145689
922.119	0.0145867
922.197	0.0144844
922.275	0.0143707
922.353	0.0144337
922.432	0.0146021
922.510	0.0146000
922.588	0.0145085
922.666	0.0145296
922.744	0.0145026
922.822	0.0143996
922.900	0.0144840
922.978	0.0146398
923.057	0.0145570
923.135	0.0144535
923.213	0.0145914
923.291	0.0144791
923.369	0.0144752
923.447	0.0143498
923.525	0.0143837
923.603	0.0144017
923.682	0.0143166
923.760	0.0142934
923.838	0.0143052
923.916	0.0143443
923.994	0.0142978
924.072	0.0143840
924.150	0.0144769
924.228	0.0142041
924.307	0.0145267
924.385	0.0144134
924.463	0.0144690
924.541	0.0145620
924.619	0.0145471
924.697	0.0143859
924.775	0.0144021
924.853	0.0145518
924.932	0.0144816
925.010	0.0145388
925.088	0.0145652
925.166	0.0144870
925.244	0.0144579
925.322	0.0145790
925.400	0.0146075
925.478	0.0144723
925.557	0.0146545
925.635	0.0147063
925.713	0.0145803
925.791	0.0144819
925.869	0.0146164
925.947	0.0146379
926.025	0.0146422
926.103	0.0146737
926.182	0.0146108
926.260	0.0145716
926.338	0.0147385
926.416	0.0145895
926.494	0.0145685
926.572	0.0146590
926.650	0.0145858
926.728	0.0144051
926.807	0.0145287
926.885	0.0144207
926.963	0.0144833
927.041	0.0144614
927.119	0.0144044
927.197	0.0142834
927.275	0.0142342
927.353	0.0143253
927.432	0.0143817
927.510	0.0142420
927.588	0.0141953
927.666	0.0142692
927.744	0.0143295
927.822	0.0143115
927.900	0.0142181
927.978	0.0143252
928.057	0.0142840
928.135	0.0145473
928.213	0.0142108
928.291	0.0142516
928.369	0.0142271
928.447	0.0143280
928.525	0.0144079
928.603	0.0142892
928.682	0.0143596
928.760	0.0143023
928.838	0.0143977
928.916	0.0144164
928.994	0.0143918
929.072	0.0141013
929.150	0.0143213
929.228	0.0143221
929.307	0.0143973
929.385	0.0145308
929.463	0.0144845
929.541	0.0144832
929.619	0.0144457
929.697	0.0144477
929.775	0.0143653
929.853	0.0144151
929.932	0.0144622
930.010	0.0144801
930.088	0.0145315
930.166	0.0145706
930.244	0.0144527
930.322	0.0144408
930.400	0.0145273
930.478	0.0145832
930.557	0.0144800
930.635	0.0145049
930.713	0.0143791
930.791	0.0143871
930.869	0.0145105
930.947	0.0145005
931.025	0.0143694
931.103	0.0144796
931.182	0.0141969
931.260	0.0142251
931.338	0.0144196
931.416	0.0143718
931.494	0.0142627
931.572	0.0143690
931.650	0.0143147
931.728	0.0142656
931.807	0.0142149
931.885	0.0143708
931.963	0.0145168
932.041	0.0145089
932.119	0.0142754
932.197	0.0143121
932.275	0.0144801
932.353	0.0143990
932.432	0.0144445
932.510	0.0144460
932.588	0.0145423
932.666	0.0145620
932.744	0.0145200
932.822	0.0144485
932.900	0.0144815
932.978	0.0146413
933.057	0.0146021
933.135	0.0144675
933.213	0.0145157
933.291	0.0146741
933.369	0.0144501
933.447	0.0144276
933.525	0.0143893
933.603	0.0145639
933.682	0.0144761
933.760	0.0144293
933.838	0.0144547
933.916	0.0144403
933.994	0.0145129
934.072	0.0144977
934.150	0.0145360
934.228	0.0143484
934.307	0.0143065
934.385	0.0143021
934.463	0.0143562
934.541	0.0144202
934.619	0.0142835
934.697	0.0142983
934.775	0.0142524
934.853	0.0142564
934.932	0.0142567
935.010	0.0142004
935.088	0.0141759
935.166	0.0141843
935.244	0.0143266
935.322	0.0144069
935.400	0.0142228
935.478	0.0142930
935.557	0.0142698
935.635	0.0141821
935.713	0.0141523
935.791	0.0142681
935.869	0.0143033
935.947	0.0141924
936.025	0.0141681
936.103	0.0141834
936.182	0.0142680
936.260	0.0141621
936.338	0.0142595
936.416	0.0143008
936.494	0.0142020
936.572	0.0142838
936.650	0.0141654
936.728	0.0142664
936.807	0.0143429
936.885	0.0144205
936.963	0.0144279
937.041	0.0143130
937.119	0.0142889
937.197	0.0144203
937.275	0.0144282
937.353	0.0142355
937.432	0.0144509
937.510	0.0144595
937.588	0.0143675
937.666	0.0142126
937.744	0.0143608
937.822	0.0142954
937.900	0.0142928
937.978	0.0143113
938.057	0.0144310
938.135	0.0143334
938.213	0.0142571
938.291	0.0143689
938.369	0.0144434
938.447	0.0141928
938.525	0.0142803
938.603	0.0142859
938.682	0.0145877
938.760	0.0145287
938.838	0.0143600
938.916	0.0144387
938.994	0.0145068
939.072	0.0145029
939.150	0.0144548
939.228	0.0144637
939.307	0.0145115
939.385	0.0145203
939.463	0.0145327
939.541	0.0144878
939.619	0.0146185
939.697	0.0145528
939.775	0.0145442
939.853	0.0144934
939.932	0.0145292
940.010	0.0145076
940.088	0.0145482
940.166	0.0145209
940.244	0.0146312
940.322	0.0146214
940.400	0.0146206
940.478	0.0146652
940.557	0.0145043
940.635	0.0145638
940.713	0.0145930
940.791	0.0146812
940.869	0.0147414
940.947	0.0146848
941.025	0.0145341
941.103	0.0145309
941.182	0.0146684
941.260	0.0146209
941.338	0.0144196
941.416	0.0144748
941.494	0.0145267
941.572	0.0145409
941.650	0.0144793
941.728	0.0144513
941.807	0.0144942
941.885	0.0143690
941.963	0.0143731
942.041	0.0144918
942.119	0.0144193
942.197	0.0144423
942.275	0.0144016
942.353	0.0143672
942.432	0.0142431
942.510	0.0144201
942.588	0.0143907
942.666	0.0143250
942.744	0.0143992
942.822	0.0144091
942.900	0.0143848
942.978	0.0144185
943.057	0.0144250
943.135	0.0144000
943.213	0.0143504
943.291	0.0143579
943.369	0.0145116
943.447	0.0145362
943.525	0.0143369
943.603	0.0144473
943.682	0.0143858
943.760	0.0143426
943.838	0.0143787
943.916	0.0144116
943.994	0.0144571
944.072	0.0145294
944.150	0.0144752
944.228	0.0145762
944.307	0.0144045
944.385	0.0144178
944.463	0.0144717
944.541	0.0143172
944.619	0.0144215
944.697	0.0145415
944.775	0.0144942
944.853	0.0144682
944.932	0.0144277
945.010	0.0143337
945.088	0.0143861
945.166	0.0145515
945.244	0.0144164
945.322	0.0144140
945.400	0.0145761
945.478	0.0144135
945.557	0.0143675
945.635	0.0145907
945.713	0.0144653
945.791	0.0146052
945.869	0.0145023
945.947	0.0145435
946.025	0.0144788
946.103	0.0144159
946.182	0.0144875
946.260	0.0143343
946.338	0.0143535
946.416	0.0144328
946.494	0.0143956
946.572	0.0144279
946.650	0.0146091
946.728	0.0145366
946.807	0.0145139
946.885	0.0144614
946.963	0.0143038
947.041	0.0144868
947.119	0.0144696
947.197	0.0144932
947.275	0.0144675
947.353	0.0143679
947.432	0.0145079
947.510	0.0145687
947.588	0.0146377
947.666	0.0144006
947.744	0.0144784
947.822	0.0144464
947.900	0.0144901
947.978	0.0142682
948.057	0.0144051
948.135	0.0143610
948.213	0.0144105
948.291	0.0145049
948.369	0.0143066
948.447	0.0142254
948.525	0.0142712
948.603	0.0142248
948.682	0.0141438
948.760	0.0142610
948.838	0.0142736
948.916	0.0142675
948.994	0.0141996
949.072	0.0141886
949.150	0.0142696
949.228	0.0142267
949.307	0.0141851
949.385	0.0143829
949.463	0.0142379
949.541	0.0141113
949.619	0.0143919
949.697	0.0143974
949.775	0.0142036
949.853	0.0144959
949.932	0.0143955
950.010	0.0143970
950.088	0.0144377
950.166	0.0144917
950.244	0.0144884
950.322	0.0143565
950.400	0.0144771
950.478	0.0146797
950.557	0.0147375
950.635	0.0144791
950.713	0.0144636
950.791	0.0145663
950.869	0.0146448
950.947	0.0146064
951.025	0.0144743
951.103	0.0146735
951.182	0.0145944
951.260	0.0146660
951.338	0.0146275
951.416	0.0145627
951.494	0.0146796
951.572	0.0148560
951.650	0.0147458
951.728	0.0146564
951.807	0.0146103
951.885	0.0146503
951.963	0.0147466
952.041	0.0147264
952.119	0.0146631
952.197	0.0145412
952.275	0.0146194
952.353	0.0146238
952.432	0.0146152
952.510	0.0145592
952.588	0.0145744
952.666	0.0145132
952.744	0.0146814
952.822	0.0145113
952.900	0.0147327
952.978	0.0146427
953.057	0.0145891
953.135	0.0144500
953.213	0.0146100
953.291	0.0146645
953.369	0.0145422
953.447	0.0145416
953.525	0.0146074
953.603	0.0145783
953.682	0.0144998
953.760	0.0143765
953.838	0.0144689
953.916	0.0144140
953.994	0.0144527
954.072	0.0144674
954.150	0.0144297
954.228	0.0144054
954.307	0.0143285
954.385	0.0145555
954.463	0.0145358
954.541	0.0143979
954.619	0.0144984
954.697	0.0146031
954.775	0.0145424
954.853	0.0143948
954.932	0.0145713
955.010	0.0145746
955.088	0.0145014
955.166	0.0144852
955.244	0.0145776
955.322	0.0145123
955.400	0.0144834
955.478	0.0144991
955.557	0.0144788
955.635	0.0144038
955.713	0.0143140
955.791	0.0142323
955.869	0.0142137
955.947	0.0142977
956.025	0.0143076
956.103	0.0141994
956.182	0.0142159
956.260	0.0142397
956.338	0.0142065
956.416	0.0141578
956.494	0.0142043
956.572	0.0142074
956.650	0.0142030
956.728	0.0141000
956.807	0.0141359
956.885	0.0141891
956.963	0.0142279
957.041	0.0142474
957.119	0.0142337
957.197	0.0144171
957.275	0.0142619
957.353	0.0143575
957.432	0.0142799
957.510	0.0142210
957.588	0.0141907
957.666	0.0142725
957.744	0.0142013
957.822	0.0143163
957.900	0.0144362
957.978	0.0144589
958.057	0.0143063
958.135	0.0143578
958.213	0.0143467
958.291	0.0143842
958.369	0.0144514
958.447	0.0144567
958.525	0.0145519
958.603	0.0145125
958.682	0.0145147
958.760	0.0145492
958.838	0.0144892
958.916	0.0146972
958.994	0.0146191
959.072	0.0146072
959.150	0.0146413
959.228	0.0146724
959.307	0.0146269
959.385	0.0147043
959.463	0.0147408
959.541	0.0145995
959.619	0.0145678
959.697	0.0147082
959.775	0.0147032
959.853	0.0146268
959.932	0.0146455
960.010	0.0145431
960.088	0.0145720
960.166	0.0146322
960.244	0.0145441
960.322	0.0145982
960.400	0.0145834
960.478	0.0146376
960.557	0.0145285
960.635	0.0144977
960.713	0.0144869
960.791	0.0144012
960.869	0.0144157
960.947	0.0144113
961.025	0.0144866
961.103	0.0142722
961.182	0.0143048
961.260	0.0143684
961.338	0.0142684
961.416	0.0143825
961.494	0.0144828
961.572	0.0145128
961.650	0.0143394
961.728	0.0142404
961.807	0.0143370
961.885	0.0143990
961.963	0.0144633
962.041	0.0143021
962.119	0.0143262
962.197	0.0144250
962.275	0.0144250
962.353	0.0144542
962.432	0.0142643
962.510	0.0144923
962.588	0.0144302
962.666	0.0144923
962.744	0.0144140
962.822	0.0146074
962.900	0.0145128
962.978	0.0145670
963.057	0.0145985
963.135	0.0145953
963.213	0.0147272
963.291	0.0145827
963.369	0.0144476
963.447	0.0146045
963.525	0.0146339
963.603	0.0145348
963.682	0.0145520
963.760	0.0145699
963.838	0.0145772
963.916	0.0145812
963.994	0.0145541
964.072	0.0145362
964.150	0.0145310
964.228	0.0144594
964.307	0.0145136
964.385	0.0144785
964.463	0.0143840
964.541	0.0144066
964.619	0.0144129
964.697	0.0143494
964.775	0.0143503
964.853	0.0142091
964.932	0.0142359
965.010	0.0143062
965.088	0.0141653
965.166	0.0142580
965.244	0.0144138
965.322	0.0142786
965.400	0.0140997
965.478	0.0142338
965.557	0.0142744
965.635	0.0144058
965.713	0.0142934
965.791	0.0142878
965.869	0.0142783
965.947	0.0142249
966.025	0.0143607
966.103	0.0141603
966.182	0.0143604
966.260	0.0143616
966.338	0.0142911
966.416	0.0144898
966.494	0.0145597
966.572	0.0145157
966.650	0.0143963
966.728	0.0145592
966.807	0.0144841
966.885	0.0144050
966.963	0.0144737
967.041	0.0145348
967.119	0.0145363
967.197	0.0144772
967.275	0.0144750
967.353	0.0143466
967.432	0.0143610
967.510	0.0145162
967.588	0.0145994
967.666	0.0144643
967.744	0.0143823
967.822	0.0145780
967.900	0.0145223
967.978	0.0145377
968.057	0.0146012
968.135	0.0144199
968.213	0.0144009
968.291	0.0145315
968.369	0.0146537
968.447	0.0146666
968.525	0.0146896
968.603	0.0145601
968.682	0.0146133
968.760	0.0146114
968.838	0.0146883
968.916	0.0145336
968.994	0.0145517
969.072	0.0145808
969.150	0.0144923
969.228	0.0146166
969.307	0.0145686
969.385	0.0145975
969.463	0.0143521
969.541	0.0145026
969.619	0.0145123
969.697	0.0144890
969.775	0.0143972
969.853	0.0144991
969.932	0.0144473
