05/14/2022	19:42:01	Ver.	4.1	UNKNOWN
Optical Delay	650.009681	Delta X		0.078125	Sweeps	1	Scan Rate	0/0
Coordinates	Axis 1	NaN	Axis 2	NaN	Axis 3	NaN	Axis 4	NaN	Axis 5	NaN	Axis 6	0.000000
TX Power	0.000000	RX Power	0.000000

650.010	0.0139859
650.088	0.0138580
650.166	0.0137919
650.244	0.0138465
650.322	0.0139558
650.400	0.0141233
650.478	0.0138052
650.557	0.0138083
650.635	0.0138961
650.713	0.0139914
650.791	0.0140073
650.869	0.0139390
650.947	0.0139596
651.025	0.0139364
651.103	0.0139361
651.182	0.0139146
651.260	0.0136529
651.338	0.0137125
651.416	0.0137714
651.494	0.0137791
651.572	0.0137602
651.650	0.0137196
651.728	0.0136315
651.807	0.0137978
651.885	0.0136618
651.963	0.0137141
652.041	0.0136847
652.119	0.0138340
652.197	0.0138511
652.275	0.0138506
652.353	0.0138757
652.432	0.0140414
652.510	0.0140054
652.588	0.0140710
652.666	0.0140865
652.744	0.0140356
652.822	0.0140895
652.900	0.0140429
652.978	0.0141709
653.057	0.0141598
653.135	0.0141044
653.213	0.0138000
653.291	0.0139333
653.369	0.0138939
653.447	0.0138577
653.525	0.0137459
653.603	0.0137706
653.682	0.0137550
653.760	0.0135739
653.838	0.0135020
653.916	0.0135366
653.994	0.0135247
654.072	0.0136481
654.150	0.0137492
654.228	0.0136387
654.307	0.0137832
654.385	0.0138434
654.463	0.0137608
654.541	0.0139308
654.619	0.0139551
654.697	0.0140550
654.775	0.0141312
654.853	0.0141116
654.932	0.0141261
655.010	0.0141598
655.088	0.0141852
655.166	0.0143137
655.244	0.0142760
655.322	0.0141582
655.400	0.0140675
655.478	0.0141260
655.557	0.0140736
655.635	0.0141160
655.713	0.0139783
655.791	0.0140187
655.869	0.0138935
655.947	0.0137495
656.025	0.0137113
656.103	0.0135947
656.182	0.0136112
656.260	0.0135038
656.338	0.0135518
656.416	0.0133310
656.494	0.0135005
656.572	0.0134607
656.650	0.0134409
656.728	0.0135215
656.807	0.0135316
656.885	0.0134621
656.963	0.0138998
657.041	0.0141336
657.119	0.0141128
657.197	0.0142964
657.275	0.0143423
657.353	0.0145200
657.432	0.0148490
657.510	0.0147171
657.588	0.0149612
657.666	0.0150839
657.744	0.0148924
657.822	0.0148556
657.900	0.0148895
657.978	0.0149438
658.057	0.0147024
658.135	0.0146081
658.213	0.0145146
658.291	0.0143269
658.369	0.0141586
658.447	0.0139902
658.525	0.0138848
658.603	0.0135571
658.682	0.0134518
658.760	0.0132620
658.838	0.0132066
658.916	0.0129650
658.994	0.0129179
659.072	0.0129478
659.150	0.0129435
659.228	0.0129414
659.307	0.0129278
659.385	0.0127303
659.463	0.0128889
659.541	0.0130873
659.619	0.0131010
659.697	0.0132714
659.775	0.0134225
659.853	0.0135820
659.932	0.0137267
660.010	0.0140320
660.088	0.0140985
660.166	0.0143964
660.244	0.0144167
660.322	0.0145731
660.400	0.0148019
660.478	0.0148909
660.557	0.0151013
660.635	0.0150632
660.713	0.0153168
660.791	0.0153170
660.869	0.0153778
660.947	0.0152206
661.025	0.0152548
661.103	0.0151762
661.182	0.0148500
661.260	0.0147672
661.338	0.0146844
661.416	0.0147090
661.494	0.0143504
661.572	0.0142301
661.650	0.0142954
661.728	0.0141028
661.807	0.0140166
661.885	0.0138407
661.963	0.0137200
662.041	0.0138588
662.119	0.0135894
662.197	0.0134884
662.275	0.0133844
662.353	0.0132190
662.432	0.0131047
662.510	0.0131394
662.588	0.0130370
662.666	0.0127944
662.744	0.0127104
662.822	0.0128254
662.900	0.0126608
662.978	0.0124685
663.057	0.0125018
663.135	0.0124593
663.213	0.0124963
663.291	0.0125578
663.369	0.0125561
663.447	0.0125291
663.525	0.0125397
663.603	0.0126834
663.682	0.0129134
663.760	0.0130216
663.838	0.0133121
663.916	0.0134426
663.994	0.0137926
664.072	0.0140043
664.150	0.0143368
664.228	0.0148206
664.307	0.0150980
664.385	0.0154086
664.463	0.0155654
664.541	0.0158584
664.619	0.0161520
664.697	0.0163676
664.775	0.0165437
664.853	0.0167204
664.932	0.0170139
665.010	0.0168719
665.088	0.0167976
665.166	0.0167562
665.244	0.0166908
665.322	0.0164777
665.400	0.0163313
665.478	0.0161537
665.557	0.0158247
665.635	0.0154352
665.713	0.0149877
665.791	0.0145618
665.869	0.0140503
665.947	0.0135004
666.025	0.0131733
666.103	0.0124996
666.182	0.0120607
666.260	0.0115141
666.338	0.0110609
666.416	0.0107210
666.494	0.0105066
666.572	0.0100520
666.650	0.00976463
666.728	0.00983185
666.807	0.00981850
666.885	0.00982567
666.963	0.00988594
667.041	0.0101637
667.119	0.0103645
667.197	0.0107285
667.275	0.0110176
667.353	0.0114925
667.432	0.0119742
667.510	0.0123743
667.588	0.0128117
667.666	0.0133173
667.744	0.0137441
667.822	0.0141541
667.900	0.0146956
667.978	0.0151563
668.057	0.0154562
668.135	0.0159050
668.213	0.0161446
668.291	0.0163802
668.369	0.0167171
668.447	0.0170546
668.525	0.0172713
668.603	0.0173043
668.682	0.0174967
668.760	0.0176601
668.838	0.0175680
668.916	0.0174210
668.994	0.0173947
669.072	0.0172271
669.150	0.0169318
669.228	0.0167363
669.307	0.0164605
669.385	0.0162536
669.463	0.0158729
669.541	0.0156573
669.619	0.0153918
669.697	0.0150134
669.775	0.0147711
669.853	0.0143844
669.932	0.0141392
670.010	0.0136856
670.088	0.0135844
670.166	0.0131455
670.244	0.0130550
670.322	0.0126583
670.400	0.0122710
670.478	0.0119913
670.557	0.0118135
670.635	0.0114528
670.713	0.0111380
670.791	0.0108528
670.869	0.0105777
670.947	0.0103609
671.025	0.0102686
671.103	0.0100584
671.182	0.0100022
671.260	0.0100208
671.338	0.00993690
671.416	0.0102187
671.494	0.0103503
671.572	0.0107681
671.650	0.0109543
671.728	0.0112925
671.807	0.0116758
671.885	0.0120808
671.963	0.0125199
672.041	0.0131217
672.119	0.0134457
672.197	0.0137756
672.275	0.0143291
672.353	0.0147711
672.432	0.0152530
672.510	0.0156551
672.588	0.0162254
672.666	0.0166325
672.744	0.0171343
672.822	0.0173428
672.900	0.0179224
672.978	0.0180479
673.057	0.0181618
673.135	0.0183908
673.213	0.0184009
673.291	0.0186257
673.369	0.0185315
673.447	0.0184506
673.525	0.0181953
673.603	0.0180334
673.682	0.0177325
673.760	0.0173849
673.838	0.0170808
673.916	0.0166267
673.994	0.0162531
674.072	0.0156972
674.150	0.0151042
674.228	0.0146684
674.307	0.0141869
674.385	0.0137646
674.463	0.0131624
674.541	0.0126168
674.619	0.0121940
674.697	0.0118616
674.775	0.0112987
674.853	0.0110751
674.932	0.0107036
675.010	0.0104870
675.088	0.0102135
675.166	0.0100533
675.244	0.00990921
675.322	0.00981438
675.400	0.00991714
675.478	0.00987450
675.557	0.00989502
675.635	0.0100846
675.713	0.0101868
675.791	0.0105153
675.869	0.0107417
675.947	0.0110670
676.025	0.0112267
676.103	0.0115647
676.182	0.0119040
676.260	0.0123637
676.338	0.0129092
676.416	0.0133086
676.494	0.0137823
676.572	0.0141965
676.650	0.0146967
676.728	0.0150500
676.807	0.0153185
676.885	0.0157944
676.963	0.0161475
677.041	0.0164539
677.119	0.0166997
677.197	0.0169636
677.275	0.0171417
677.353	0.0174273
677.432	0.0173183
677.510	0.0174928
677.588	0.0174508
677.666	0.0173574
677.744	0.0171862
677.822	0.0170770
677.900	0.0170508
677.978	0.0167290
678.057	0.0164504
678.135	0.0160151
678.213	0.0158774
678.291	0.0154786
678.369	0.0151103
678.447	0.0146581
678.525	0.0143896
678.603	0.0139885
678.682	0.0136578
678.760	0.0135078
678.838	0.0132025
678.916	0.0129330
678.994	0.0126731
679.072	0.0123997
679.150	0.0122926
679.228	0.0121304
679.307	0.0120230
679.385	0.0119662
679.463	0.0118846
679.541	0.0118203
679.619	0.0118819
679.697	0.0118839
679.775	0.0121255
679.853	0.0121020
679.932	0.0122047
680.010	0.0123944
680.088	0.0125173
680.166	0.0128954
680.244	0.0130828
680.322	0.0133630
680.400	0.0135326
680.478	0.0138188
680.557	0.0140750
680.635	0.0142920
680.713	0.0145908
680.791	0.0145930
680.869	0.0146760
680.947	0.0146967
681.025	0.0146848
681.103	0.0147587
681.182	0.0146634
681.260	0.0146980
681.338	0.0145842
681.416	0.0145270
681.494	0.0144531
681.572	0.0143908
681.650	0.0142519
681.728	0.0141252
681.807	0.0139175
681.885	0.0138602
681.963	0.0138654
682.041	0.0136533
682.119	0.0135043
682.197	0.0133480
682.275	0.0133927
682.353	0.0130807
682.432	0.0130162
682.510	0.0130034
682.588	0.0127940
682.666	0.0130135
682.744	0.0129768
682.822	0.0128693
682.900	0.0130406
682.978	0.0131100
683.057	0.0133315
683.135	0.0134921
683.213	0.0136602
683.291	0.0139565
683.369	0.0142824
683.447	0.0144476
683.525	0.0146827
683.603	0.0148529
683.682	0.0150991
683.760	0.0152097
683.838	0.0152209
683.916	0.0154482
683.994	0.0154850
684.072	0.0155990
684.150	0.0156950
684.228	0.0158283
684.307	0.0158862
684.385	0.0157122
684.463	0.0157051
684.541	0.0155866
684.619	0.0156047
684.697	0.0155167
684.775	0.0153375
684.853	0.0152848
684.932	0.0149254
685.010	0.0148467
685.088	0.0147530
685.166	0.0144857
685.244	0.0141551
685.322	0.0138739
685.400	0.0136668
685.478	0.0134799
685.557	0.0131389
685.635	0.0129317
685.713	0.0128229
685.791	0.0126319
685.869	0.0123711
685.947	0.0123296
686.025	0.0122618
686.103	0.0120361
686.182	0.0120850
686.260	0.0121454
686.338	0.0122379
686.416	0.0122261
686.494	0.0123833
686.572	0.0123763
686.650	0.0126871
686.728	0.0126734
686.807	0.0128795
686.885	0.0131501
686.963	0.0131962
687.041	0.0133002
687.119	0.0134361
687.197	0.0135062
687.275	0.0136613
687.353	0.0139287
687.432	0.0138879
687.510	0.0139909
687.588	0.0141394
687.666	0.0142717
687.744	0.0143159
687.822	0.0143417
687.900	0.0144072
687.978	0.0144721
688.057	0.0146457
688.135	0.0145126
688.213	0.0146300
688.291	0.0146931
688.369	0.0147005
688.447	0.0146162
688.525	0.0146493
688.603	0.0145760
688.682	0.0146278
688.760	0.0146869
688.838	0.0145542
688.916	0.0146088
688.994	0.0145285
689.072	0.0144906
689.150	0.0145004
689.228	0.0145734
689.307	0.0143764
689.385	0.0146702
689.463	0.0146095
689.541	0.0146235
689.619	0.0148595
689.697	0.0147967
689.775	0.0148788
689.853	0.0149361
689.932	0.0149859
690.010	0.0151134
690.088	0.0149936
690.166	0.0149496
690.244	0.0150487
690.322	0.0149303
690.400	0.0149364
690.478	0.0149874
690.557	0.0147476
690.635	0.0147965
690.713	0.0144984
690.791	0.0146189
690.869	0.0144897
690.947	0.0143819
691.025	0.0142593
691.103	0.0140878
691.182	0.0140073
691.260	0.0138252
691.338	0.0137576
691.416	0.0134806
691.494	0.0133094
691.572	0.0132478
691.650	0.0131157
691.728	0.0128951
691.807	0.0126725
691.885	0.0123756
691.963	0.0123602
692.041	0.0121901
692.119	0.0120605
692.197	0.0121155
692.275	0.0121810
692.353	0.0119947
692.432	0.0120042
692.510	0.0121156
692.588	0.0121114
692.666	0.0123409
692.744	0.0123129
692.822	0.0124780
692.900	0.0125188
692.978	0.0125871
693.057	0.0127522
693.135	0.0128440
693.213	0.0131149
693.291	0.0131597
693.369	0.0134019
693.447	0.0136263
693.525	0.0136639
693.603	0.0137032
693.682	0.0141676
693.760	0.0143855
693.838	0.0146737
693.916	0.0149459
693.994	0.0151408
694.072	0.0154297
694.150	0.0155399
694.228	0.0157856
694.307	0.0159602
694.385	0.0160880
694.463	0.0161798
694.541	0.0164142
694.619	0.0164158
694.697	0.0165094
694.775	0.0164366
694.853	0.0165663
694.932	0.0165327
695.010	0.0165742
695.088	0.0163723
695.166	0.0163850
695.244	0.0161115
695.322	0.0158321
695.400	0.0156862
695.478	0.0153977
695.557	0.0150824
695.635	0.0148590
695.713	0.0144152
695.791	0.0138968
695.869	0.0138658
695.947	0.0133386
696.025	0.0129819
696.103	0.0126460
696.182	0.0122871
696.260	0.0121487
696.338	0.0119686
696.416	0.0118252
696.494	0.0117051
696.572	0.0115836
696.650	0.0115553
696.728	0.0119267
696.807	0.0118419
696.885	0.0118932
696.963	0.0121183
697.041	0.0124581
697.119	0.0125594
697.197	0.0129600
697.275	0.0132123
697.353	0.0133837
697.432	0.0136769
697.510	0.0138178
697.588	0.0141446
697.666	0.0143505
697.744	0.0145524
697.822	0.0146720
697.900	0.0147955
697.978	0.0149899
698.057	0.0148531
698.135	0.0149892
698.213	0.0149834
698.291	0.0149052
698.369	0.0148848
698.447	0.0148479
698.525	0.0145908
698.603	0.0145023
698.682	0.0142692
698.760	0.0140026
698.838	0.0140077
698.916	0.0138300
698.994	0.0135966
699.072	0.0134045
699.150	0.0132700
699.228	0.0130352
699.307	0.0130661
699.385	0.0129557
699.463	0.0126377
699.541	0.0127626
699.619	0.0127849
699.697	0.0128923
699.775	0.0127915
699.853	0.0130539
699.932	0.0132309
700.010	0.0132957
700.088	0.0136523
700.166	0.0138328
700.244	0.0139663
700.322	0.0143196
700.400	0.0144964
700.478	0.0147871
700.557	0.0149171
700.635	0.0152930
700.713	0.0153230
700.791	0.0153812
700.869	0.0154206
700.947	0.0154166
701.025	0.0154906
701.103	0.0155179
701.182	0.0154448
701.260	0.0154879
701.338	0.0153728
701.416	0.0151212
701.494	0.0152129
701.572	0.0148711
701.650	0.0148306
701.728	0.0146368
701.807	0.0144790
701.885	0.0140855
701.963	0.0139872
702.041	0.0139882
702.119	0.0138615
702.197	0.0135825
702.275	0.0135593
702.353	0.0133383
702.432	0.0135397
702.510	0.0134722
702.588	0.0134219
702.666	0.0136140
702.744	0.0134400
702.822	0.0135944
702.900	0.0135803
702.978	0.0136370
703.057	0.0135667
703.135	0.0135004
703.213	0.0135674
703.291	0.0137971
703.369	0.0136252
703.447	0.0134357
703.525	0.0136161
703.603	0.0134329
703.682	0.0133543
703.760	0.0133488
703.838	0.0134917
703.916	0.0133959
703.994	0.0133654
704.072	0.0132662
704.150	0.0132199
704.228	0.0134349
704.307	0.0134039
704.385	0.0132683
704.463	0.0131432
704.541	0.0131857
704.619	0.0134081
704.697	0.0133361
704.775	0.0135017
704.853	0.0133801
704.932	0.0136044
705.010	0.0138853
705.088	0.0139397
705.166	0.0141376
705.244	0.0142876
705.322	0.0143040
705.400	0.0145284
705.478	0.0145536
705.557	0.0146770
705.635	0.0148560
705.713	0.0147952
705.791	0.0149653
705.869	0.0150904
705.947	0.0150148
706.025	0.0150089
706.103	0.0151599
706.182	0.0152203
706.260	0.0150002
706.338	0.0151162
706.416	0.0150315
706.494	0.0150411
706.572	0.0148841
706.650	0.0148107
706.728	0.0147411
706.807	0.0145872
706.885	0.0143372
706.963	0.0143449
707.041	0.0142838
707.119	0.0141058
707.197	0.0138902
707.275	0.0139678
707.353	0.0137848
707.432	0.0136768
707.510	0.0136578
707.588	0.0136710
707.666	0.0135490
707.744	0.0136333
707.822	0.0136449
707.900	0.0136500
707.978	0.0136794
708.057	0.0136877
708.135	0.0137592
708.213	0.0137261
708.291	0.0138900
708.369	0.0138627
708.447	0.0139146
708.525	0.0139105
708.603	0.0139081
708.682	0.0139394
708.760	0.0138612
708.838	0.0138733
708.916	0.0138860
708.994	0.0138269
709.072	0.0137177
709.150	0.0137053
709.228	0.0138912
709.307	0.0137518
709.385	0.0138151
709.463	0.0135738
709.541	0.0136440
709.619	0.0137642
709.697	0.0136662
709.775	0.0137890
709.853	0.0138929
709.932	0.0140186
710.010	0.0140208
710.088	0.0139776
710.166	0.0140382
710.244	0.0141843
710.322	0.0141737
710.400	0.0140301
710.478	0.0141132
710.557	0.0142252
710.635	0.0141457
710.713	0.0139589
710.791	0.0138620
710.869	0.0138922
710.947	0.0138004
711.025	0.0137737
711.103	0.0135896
711.182	0.0135046
711.260	0.0134721
711.338	0.0133324
711.416	0.0133131
711.494	0.0132229
711.572	0.0131889
711.650	0.0131270
711.728	0.0131059
711.807	0.0132295
711.885	0.0130836
711.963	0.0131746
712.041	0.0132199
712.119	0.0131238
712.197	0.0133312
712.275	0.0135595
712.353	0.0135029
712.432	0.0135930
712.510	0.0138826
712.588	0.0139001
712.666	0.0141380
712.744	0.0143130
712.822	0.0145785
712.900	0.0146539
712.978	0.0146672
713.057	0.0148174
713.135	0.0150127
713.213	0.0150346
713.291	0.0152923
713.369	0.0154327
713.447	0.0153809
713.525	0.0155496
713.603	0.0154747
713.682	0.0156327
713.760	0.0157212
713.838	0.0155915
713.916	0.0155357
713.994	0.0155292
714.072	0.0156174
714.150	0.0155219
714.228	0.0154008
714.307	0.0152719
714.385	0.0150417
714.463	0.0148089
714.541	0.0147283
714.619	0.0145020
714.697	0.0141376
714.775	0.0139813
714.853	0.0138551
714.932	0.0135934
715.010	0.0134959
715.088	0.0131736
715.166	0.0129350
715.244	0.0127917
715.322	0.0128017
715.400	0.0126371
715.478	0.0126305
715.557	0.0125862
715.635	0.0124644
715.713	0.0126832
715.791	0.0125407
715.869	0.0125153
715.947	0.0126237
716.025	0.0126508
716.103	0.0128612
716.182	0.0128898
716.260	0.0129147
716.338	0.0129861
716.416	0.0132581
716.494	0.0133630
716.572	0.0135384
716.650	0.0136549
716.728	0.0137244
716.807	0.0138921
716.885	0.0139722
716.963	0.0140736
717.041	0.0143751
717.119	0.0143320
717.197	0.0142374
717.275	0.0145314
717.353	0.0147144
717.432	0.0148468
717.510	0.0149040
717.588	0.0148040
717.666	0.0147794
717.744	0.0150154
717.822	0.0148228
717.900	0.0148992
717.978	0.0147366
718.057	0.0147617
718.135	0.0148900
718.213	0.0147871
718.291	0.0147939
718.369	0.0148457
718.447	0.0150243
718.525	0.0147907
718.603	0.0148035
718.682	0.0147207
718.760	0.0146400
718.838	0.0146645
718.916	0.0148878
718.994	0.0146830
719.072	0.0145438
719.150	0.0146720
719.228	0.0145695
719.307	0.0145357
719.385	0.0143867
719.463	0.0142689
719.541	0.0143279
719.619	0.0143959
719.697	0.0139959
719.775	0.0138213
719.853	0.0138710
719.932	0.0137108
720.010	0.0135676
720.088	0.0135922
720.166	0.0134226
720.244	0.0133208
720.322	0.0131981
720.400	0.0130634
720.478	0.0130805
720.557	0.0129063
720.635	0.0130083
720.713	0.0128738
720.791	0.0128489
720.869	0.0128133
720.947	0.0128356
721.025	0.0127096
721.103	0.0127031
721.182	0.0125879
721.260	0.0127806
721.338	0.0128951
721.416	0.0129733
721.494	0.0128843
721.572	0.0129765
721.650	0.0130398
721.728	0.0132074
721.807	0.0133681
721.885	0.0134219
721.963	0.0137930
722.041	0.0138355
722.119	0.0137211
722.197	0.0140142
722.275	0.0139745
722.353	0.0142731
722.432	0.0142765
722.510	0.0144209
722.588	0.0145695
722.666	0.0145562
722.744	0.0146728
722.822	0.0147089
722.900	0.0149187
722.978	0.0148858
723.057	0.0149796
723.135	0.0147866
723.213	0.0148554
723.291	0.0148903
723.369	0.0150509
723.447	0.0148679
723.525	0.0146614
723.603	0.0146912
723.682	0.0145847
723.760	0.0146131
723.838	0.0145361
723.916	0.0141247
723.994	0.0143013
724.072	0.0141271
724.150	0.0140967
724.228	0.0141106
724.307	0.0141351
724.385	0.0140813
724.463	0.0141170
724.541	0.0141229
724.619	0.0140715
724.697	0.0140329
724.775	0.0140502
724.853	0.0140168
724.932	0.0139687
725.010	0.0140538
725.088	0.0139677
725.166	0.0139730
725.244	0.0139739
725.322	0.0139572
725.400	0.0137997
725.478	0.0138621
725.557	0.0137929
725.635	0.0137063
725.713	0.0137681
725.791	0.0136634
725.869	0.0136996
725.947	0.0135232
726.025	0.0136919
726.103	0.0137378
726.182	0.0136836
726.260	0.0134624
726.338	0.0135548
726.416	0.0136798
726.494	0.0136005
726.572	0.0136694
726.650	0.0136271
726.728	0.0136216
726.807	0.0136761
726.885	0.0139038
726.963	0.0138461
727.041	0.0136623
727.119	0.0138000
727.197	0.0138467
727.275	0.0138585
727.353	0.0137274
727.432	0.0137874
727.510	0.0138306
727.588	0.0137624
727.666	0.0136433
727.744	0.0138379
727.822	0.0139013
727.900	0.0136847
727.978	0.0136358
728.057	0.0137579
728.135	0.0137006
728.213	0.0137611
728.291	0.0138345
728.369	0.0139306
728.447	0.0139418
728.525	0.0139675
728.603	0.0142313
728.682	0.0140621
728.760	0.0141079
728.838	0.0140459
728.916	0.0141862
728.994	0.0141770
729.072	0.0142651
729.150	0.0143156
729.228	0.0140842
729.307	0.0141537
729.385	0.0143839
729.463	0.0141286
729.541	0.0141219
729.619	0.0141897
729.697	0.0142239
729.775	0.0142497
729.853	0.0142242
729.932	0.0144128
730.010	0.0143187
730.088	0.0143959
730.166	0.0143954
730.244	0.0142771
730.322	0.0142580
730.400	0.0143833
730.478	0.0143029
730.557	0.0143144
730.635	0.0141125
730.713	0.0141785
730.791	0.0139350
730.869	0.0139873
730.947	0.0140558
731.025	0.0140215
731.103	0.0139989
731.182	0.0140926
731.260	0.0138086
731.338	0.0139783
731.416	0.0138992
731.494	0.0138911
731.572	0.0138209
731.650	0.0138457
731.728	0.0137354
731.807	0.0136909
731.885	0.0138570
731.963	0.0136514
732.041	0.0136353
732.119	0.0136707
732.197	0.0136425
732.275	0.0137916
732.353	0.0136649
732.432	0.0138937
732.510	0.0139281
732.588	0.0139603
732.666	0.0139781
732.744	0.0140906
732.822	0.0141657
732.900	0.0142447
732.978	0.0143437
733.057	0.0144824
733.135	0.0143541
733.213	0.0145010
733.291	0.0144388
733.369	0.0144798
733.447	0.0144378
733.525	0.0142798
733.603	0.0142264
733.682	0.0141913
733.760	0.0141547
733.838	0.0139298
733.916	0.0138611
733.994	0.0138377
734.072	0.0136263
734.150	0.0136980
734.228	0.0138041
734.307	0.0136734
734.385	0.0135832
734.463	0.0136900
734.541	0.0136377
734.619	0.0136230
734.697	0.0136845
734.775	0.0137892
734.853	0.0138243
734.932	0.0136327
735.010	0.0138194
735.088	0.0139287
735.166	0.0138755
735.244	0.0139235
735.322	0.0139371
735.400	0.0140347
735.478	0.0141599
735.557	0.0141793
735.635	0.0141135
735.713	0.0142126
735.791	0.0142947
735.869	0.0142321
735.947	0.0143307
736.025	0.0141278
736.103	0.0142648
736.182	0.0142824
736.260	0.0141996
736.338	0.0142519
736.416	0.0142182
736.494	0.0141321
736.572	0.0141757
736.650	0.0141973
736.728	0.0141464
736.807	0.0142035
736.885	0.0141283
736.963	0.0139973
737.041	0.0140643
737.119	0.0140647
737.197	0.0140485
737.275	0.0140183
737.353	0.0140321
737.432	0.0140409
737.510	0.0139420
737.588	0.0138606
737.666	0.0140312
737.744	0.0140066
737.822	0.0139503
737.900	0.0138376
737.978	0.0139522
738.057	0.0138664
738.135	0.0137350
738.213	0.0139864
738.291	0.0138783
738.369	0.0138265
738.447	0.0138046
738.525	0.0138401
738.603	0.0138329
738.682	0.0138557
738.760	0.0139629
738.838	0.0139769
738.916	0.0139579
738.994	0.0138985
739.072	0.0140112
739.150	0.0141050
739.228	0.0140691
739.307	0.0140615
739.385	0.0141097
739.463	0.0141019
739.541	0.0140562
739.619	0.0141605
739.697	0.0141862
739.775	0.0140820
739.853	0.0141756
739.932	0.0142235
740.010	0.0141327
740.088	0.0141960
740.166	0.0141444
740.244	0.0139650
740.322	0.0141140
740.400	0.0140783
740.478	0.0139593
740.557	0.0138680
740.635	0.0137366
740.713	0.0137550
740.791	0.0137337
740.869	0.0136957
740.947	0.0136219
741.025	0.0135368
741.103	0.0135284
741.182	0.0135625
741.260	0.0136444
741.338	0.0137230
741.416	0.0135705
741.494	0.0135600
741.572	0.0134167
741.650	0.0135744
741.728	0.0137192
741.807	0.0136913
741.885	0.0137144
741.963	0.0137651
742.041	0.0136966
742.119	0.0136163
742.197	0.0137881
742.275	0.0138725
742.353	0.0139643
742.432	0.0139571
742.510	0.0139863
742.588	0.0140277
742.666	0.0141004
742.744	0.0141598
742.822	0.0141274
742.900	0.0142048
742.978	0.0143011
743.057	0.0142988
743.135	0.0143097
743.213	0.0143939
743.291	0.0144009
743.369	0.0143667
743.447	0.0144542
743.525	0.0143810
743.603	0.0143251
743.682	0.0143120
743.760	0.0143134
743.838	0.0144062
743.916	0.0142860
743.994	0.0143480
744.072	0.0143185
744.150	0.0144608
744.228	0.0145705
744.307	0.0143641
744.385	0.0143971
744.463	0.0144913
744.541	0.0144387
744.619	0.0143200
744.697	0.0143101
744.775	0.0142950
744.853	0.0142250
744.932	0.0141735
745.010	0.0141501
745.088	0.0140527
745.166	0.0140289
745.244	0.0142136
745.322	0.0139488
745.400	0.0139198
745.478	0.0139798
745.557	0.0138774
745.635	0.0137077
745.713	0.0137437
745.791	0.0137759
745.869	0.0136368
745.947	0.0135463
746.025	0.0134872
746.103	0.0136546
746.182	0.0135571
746.260	0.0135451
746.338	0.0133717
746.416	0.0134798
746.494	0.0133476
746.572	0.0133099
746.650	0.0134348
746.728	0.0134568
746.807	0.0134464
746.885	0.0132741
746.963	0.0134637
747.041	0.0134012
747.119	0.0134435
747.197	0.0134396
747.275	0.0133478
747.353	0.0133381
747.432	0.0133512
747.510	0.0133760
747.588	0.0133404
747.666	0.0133250
747.744	0.0134302
747.822	0.0133642
747.900	0.0133037
747.978	0.0133315
748.057	0.0132885
748.135	0.0134655
748.213	0.0135104
748.291	0.0134476
748.369	0.0133658
748.447	0.0134812
748.525	0.0134322
748.603	0.0135713
748.682	0.0136374
748.760	0.0134245
748.838	0.0136787
748.916	0.0136768
748.994	0.0138286
749.072	0.0139500
749.150	0.0138651
749.228	0.0140232
749.307	0.0139878
749.385	0.0139660
749.463	0.0139897
749.541	0.0143477
749.619	0.0143345
749.697	0.0141380
749.775	0.0142623
749.853	0.0143897
749.932	0.0143636
750.010	0.0143625
750.088	0.0144351
750.166	0.0143969
750.244	0.0145078
750.322	0.0145490
750.400	0.0143858
750.478	0.0145037
750.557	0.0146286
750.635	0.0146146
750.713	0.0145303
750.791	0.0144336
750.869	0.0145345
750.947	0.0145192
751.025	0.0144100
751.103	0.0143526
751.182	0.0144501
751.260	0.0142580
751.338	0.0142425
751.416	0.0142199
751.494	0.0141281
751.572	0.0140372
751.650	0.0138992
751.728	0.0140145
751.807	0.0140858
751.885	0.0139328
751.963	0.0138624
752.041	0.0138554
752.119	0.0138128
752.197	0.0137352
752.275	0.0138192
752.353	0.0138824
752.432	0.0137919
752.510	0.0137661
752.588	0.0138209
752.666	0.0139177
752.744	0.0138361
752.822	0.0137175
752.900	0.0138364
752.978	0.0137186
753.057	0.0137580
753.135	0.0136610
753.213	0.0136929
753.291	0.0138768
753.369	0.0137928
753.447	0.0136385
753.525	0.0138640
753.603	0.0138567
753.682	0.0138650
753.760	0.0138767
753.838	0.0139310
753.916	0.0139227
753.994	0.0139140
754.072	0.0140273
754.150	0.0140257
754.228	0.0140051
754.307	0.0139479
754.385	0.0139871
754.463	0.0140140
754.541	0.0139681
754.619	0.0139773
754.697	0.0137489
754.775	0.0137723
754.853	0.0138876
754.932	0.0138811
755.010	0.0137679
755.088	0.0139140
755.166	0.0138282
755.244	0.0138354
755.322	0.0138576
755.400	0.0139156
755.478	0.0138534
755.557	0.0138546
755.635	0.0138089
755.713	0.0138638
755.791	0.0138882
755.869	0.0138663
755.947	0.0138491
756.025	0.0138750
756.103	0.0139369
756.182	0.0139996
756.260	0.0140453
756.338	0.0140630
756.416	0.0142379
756.494	0.0142610
756.572	0.0142281
756.650	0.0142651
756.728	0.0141206
756.807	0.0142580
756.885	0.0143276
756.963	0.0140756
757.041	0.0142360
757.119	0.0143314
757.197	0.0142536
757.275	0.0142717
757.353	0.0142518
757.432	0.0142159
757.510	0.0141782
757.588	0.0142877
757.666	0.0142755
757.744	0.0142399
757.822	0.0143402
757.900	0.0143585
757.978	0.0142992
758.057	0.0142734
758.135	0.0141917
758.213	0.0141675
758.291	0.0142043
758.369	0.0141605
758.447	0.0141051
758.525	0.0140627
758.603	0.0141022
758.682	0.0140741
758.760	0.0140339
758.838	0.0140140
758.916	0.0138937
758.994	0.0138949
759.072	0.0138023
759.150	0.0137259
759.228	0.0137730
759.307	0.0137671
759.385	0.0136915
759.463	0.0136904
759.541	0.0136647
759.619	0.0136502
759.697	0.0135987
759.775	0.0136295
759.853	0.0136855
759.932	0.0135870
760.010	0.0135648
760.088	0.0136410
760.166	0.0135548
760.244	0.0136242
760.322	0.0136903
760.400	0.0137208
760.478	0.0138430
760.557	0.0136378
760.635	0.0137720
760.713	0.0139254
760.791	0.0140046
760.869	0.0139373
760.947	0.0140741
761.025	0.0140912
761.103	0.0141080
761.182	0.0143267
761.260	0.0143324
761.338	0.0140701
761.416	0.0141621
761.494	0.0143134
761.572	0.0141873
761.650	0.0140767
761.728	0.0140085
761.807	0.0141885
761.885	0.0139858
761.963	0.0141051
762.041	0.0140277
762.119	0.0139646
762.197	0.0140896
762.275	0.0137746
762.353	0.0139195
762.432	0.0138605
762.510	0.0138371
762.588	0.0139428
762.666	0.0139073
762.744	0.0136121
762.822	0.0137702
762.900	0.0137646
762.978	0.0138145
763.057	0.0138505
763.135	0.0138383
763.213	0.0139242
763.291	0.0138651
763.369	0.0139894
763.447	0.0138102
763.525	0.0139436
763.603	0.0140406
763.682	0.0140535
763.760	0.0141277
763.838	0.0140877
763.916	0.0140097
763.994	0.0139282
764.072	0.0140503
764.150	0.0139662
764.228	0.0142080
764.307	0.0140287
764.385	0.0139493
764.463	0.0141803
764.541	0.0141211
764.619	0.0141412
764.697	0.0142571
764.775	0.0143608
764.853	0.0144646
764.932	0.0143269
765.010	0.0143995
765.088	0.0144094
765.166	0.0143981
765.244	0.0144781
765.322	0.0143672
765.400	0.0144608
765.478	0.0144692
765.557	0.0141182
765.635	0.0142860
765.713	0.0143064
765.791	0.0142303
765.869	0.0140228
765.947	0.0141483
766.025	0.0140836
766.103	0.0140442
766.182	0.0140191
766.260	0.0140824
766.338	0.0138732
766.416	0.0138358
766.494	0.0136491
766.572	0.0138111
766.650	0.0136601
766.728	0.0135139
766.807	0.0135693
766.885	0.0135873
766.963	0.0133165
767.041	0.0135283
767.119	0.0132822
767.197	0.0133004
767.275	0.0133243
767.353	0.0133810
767.432	0.0132236
767.510	0.0131594
767.588	0.0131875
767.666	0.0134301
767.744	0.0134274
767.822	0.0132231
767.900	0.0134981
767.978	0.0132969
768.057	0.0132954
768.135	0.0132941
768.213	0.0133860
768.291	0.0133881
768.369	0.0133685
768.447	0.0133744
768.525	0.0133897
768.603	0.0136244
768.682	0.0134829
768.760	0.0134974
768.838	0.0135749
768.916	0.0136871
768.994	0.0137395
769.072	0.0138605
769.150	0.0139213
769.228	0.0138952
769.307	0.0140111
769.385	0.0141611
769.463	0.0140344
769.541	0.0142144
769.619	0.0143232
769.697	0.0142848
769.775	0.0143887
769.853	0.0145218
769.932	0.0144426
770.010	0.0145492
770.088	0.0146352
770.166	0.0145286
770.244	0.0146200
770.322	0.0147889
770.400	0.0146996
770.478	0.0145452
770.557	0.0146725
770.635	0.0146182
770.713	0.0145808
770.791	0.0146344
770.869	0.0144981
770.947	0.0144299
771.025	0.0145444
771.103	0.0144335
771.182	0.0141959
771.260	0.0141084
771.338	0.0141734
771.416	0.0140945
771.494	0.0139249
771.572	0.0138338
771.650	0.0138435
771.728	0.0138832
771.807	0.0137322
771.885	0.0136283
771.963	0.0134935
772.041	0.0136354
772.119	0.0134779
772.197	0.0134309
772.275	0.0135549
772.353	0.0134510
772.432	0.0134726
772.510	0.0133619
772.588	0.0135754
772.666	0.0134351
772.744	0.0134330
772.822	0.0134541
772.900	0.0136159
772.978	0.0137222
773.057	0.0136720
773.135	0.0138624
773.213	0.0138936
773.291	0.0139128
773.369	0.0140659
773.447	0.0140495
773.525	0.0141878
773.603	0.0143145
773.682	0.0142275
773.760	0.0142834
773.838	0.0143631
773.916	0.0145760
773.994	0.0144426
774.072	0.0144341
774.150	0.0145812
774.228	0.0145496
774.307	0.0144169
774.385	0.0144939
774.463	0.0145673
774.541	0.0145364
774.619	0.0144958
774.697	0.0144118
774.775	0.0144524
774.853	0.0141486
774.932	0.0141246
775.010	0.0141355
775.088	0.0139730
775.166	0.0139790
775.244	0.0140378
775.322	0.0138165
775.400	0.0136311
775.478	0.0135725
775.557	0.0135806
775.635	0.0133832
775.713	0.0133674
775.791	0.0134060
775.869	0.0133328
775.947	0.0132765
776.025	0.0133920
776.103	0.0133105
776.182	0.0132272
776.260	0.0132873
776.338	0.0133275
776.416	0.0132671
776.494	0.0133525
776.572	0.0134128
776.650	0.0134264
776.728	0.0133332
776.807	0.0135303
776.885	0.0135258
776.963	0.0136267
777.041	0.0136225
777.119	0.0136514
777.197	0.0136978
777.275	0.0137202
777.353	0.0139199
777.432	0.0139469
777.510	0.0138862
777.588	0.0140092
777.666	0.0138094
777.744	0.0140314
777.822	0.0140496
777.900	0.0139686
777.978	0.0139516
778.057	0.0139738
778.135	0.0138653
778.213	0.0139256
778.291	0.0140586
778.369	0.0141383
778.447	0.0139256
778.525	0.0139674
778.603	0.0140392
778.682	0.0141035
778.760	0.0139884
778.838	0.0140182
778.916	0.0140130
778.994	0.0141674
779.072	0.0139563
779.150	0.0140587
779.228	0.0139967
779.307	0.0140733
779.385	0.0141570
779.463	0.0139417
779.541	0.0142146
779.619	0.0141180
779.697	0.0141207
779.775	0.0141642
779.853	0.0141988
779.932	0.0140368
780.010	0.0141712
780.088	0.0141676
780.166	0.0141136
780.244	0.0141917
780.322	0.0141084
780.400	0.0142484
780.478	0.0139719
780.557	0.0140459
780.635	0.0141806
780.713	0.0141611
780.791	0.0140307
780.869	0.0140072
780.947	0.0139686
781.025	0.0138932
781.103	0.0138643
781.182	0.0138752
781.260	0.0138425
781.338	0.0139378
781.416	0.0138604
781.494	0.0138573
781.572	0.0139125
781.650	0.0138476
781.728	0.0138657
781.807	0.0138996
781.885	0.0139075
781.963	0.0139545
782.041	0.0138167
782.119	0.0138094
782.197	0.0138185
782.275	0.0137799
782.353	0.0137379
782.432	0.0136835
782.510	0.0137959
782.588	0.0137422
782.666	0.0137144
782.744	0.0137309
782.822	0.0137090
782.900	0.0137376
782.978	0.0136187
783.057	0.0137427
783.135	0.0137258
783.213	0.0136285
783.291	0.0137659
783.369	0.0137573
783.447	0.0137874
783.525	0.0138084
783.603	0.0139296
783.682	0.0137843
783.760	0.0137627
783.838	0.0138847
783.916	0.0140008
783.994	0.0139800
784.072	0.0140664
784.150	0.0140140
784.228	0.0139426
784.307	0.0141965
784.385	0.0140765
784.463	0.0141204
784.541	0.0141795
784.619	0.0142505
784.697	0.0142165
784.775	0.0142697
784.853	0.0142914
784.932	0.0142353
785.010	0.0144119
785.088	0.0143460
785.166	0.0142039
785.244	0.0142171
785.322	0.0143496
785.400	0.0145860
785.478	0.0144769
785.557	0.0143976
785.635	0.0143675
785.713	0.0145086
785.791	0.0145872
785.869	0.0144866
785.947	0.0146005
786.025	0.0146106
786.103	0.0145585
786.182	0.0146631
786.260	0.0145739
786.338	0.0146234
786.416	0.0145749
786.494	0.0147475
786.572	0.0147419
786.650	0.0146106
786.728	0.0144772
786.807	0.0143336
786.885	0.0143478
786.963	0.0143433
787.041	0.0144112
787.119	0.0143742
787.197	0.0141425
787.275	0.0141666
787.353	0.0142690
787.432	0.0141251
787.510	0.0139733
787.588	0.0138153
787.666	0.0138110
787.744	0.0138700
787.822	0.0137816
787.900	0.0136467
787.978	0.0136127
788.057	0.0135409
788.135	0.0135880
788.213	0.0134187
788.291	0.0133502
788.369	0.0135367
788.447	0.0134995
788.525	0.0135108
788.603	0.0134957
788.682	0.0135374
788.760	0.0134430
788.838	0.0134666
788.916	0.0134365
788.994	0.0135376
789.072	0.0134953
789.150	0.0134467
789.228	0.0135026
789.307	0.0135764
789.385	0.0137410
789.463	0.0134290
789.541	0.0135626
789.619	0.0136050
789.697	0.0135771
789.775	0.0136486
789.853	0.0136018
789.932	0.0136066
790.010	0.0135390
790.088	0.0136809
790.166	0.0136537
790.244	0.0137389
790.322	0.0138066
790.400	0.0138458
790.478	0.0138717
790.557	0.0139030
790.635	0.0138439
790.713	0.0140158
790.791	0.0141656
790.869	0.0141619
790.947	0.0142735
791.025	0.0143752
791.103	0.0143204
791.182	0.0144151
791.260	0.0143996
791.338	0.0144025
791.416	0.0143443
791.494	0.0142960
791.572	0.0144665
791.650	0.0146394
791.728	0.0145361
791.807	0.0143580
791.885	0.0145587
791.963	0.0144347
792.041	0.0143483
792.119	0.0143715
792.197	0.0143438
792.275	0.0142810
792.353	0.0141813
792.432	0.0141633
792.510	0.0139926
792.588	0.0138606
792.666	0.0138292
792.744	0.0136757
792.822	0.0137282
792.900	0.0136610
792.978	0.0137521
793.057	0.0137669
793.135	0.0136453
793.213	0.0138034
793.291	0.0138956
793.369	0.0137955
793.447	0.0139625
793.525	0.0138604
793.603	0.0139114
793.682	0.0139188
793.760	0.0138507
793.838	0.0139017
793.916	0.0139337
793.994	0.0139634
794.072	0.0138546
794.150	0.0140216
794.228	0.0139464
794.307	0.0138759
794.385	0.0139883
794.463	0.0138535
794.541	0.0138703
794.619	0.0138512
794.697	0.0138244
794.775	0.0138364
794.853	0.0139433
794.932	0.0139645
795.010	0.0139113
795.088	0.0139448
795.166	0.0139877
795.244	0.0138669
795.322	0.0139337
795.400	0.0139577
795.478	0.0140843
795.557	0.0140702
795.635	0.0140681
795.713	0.0140076
795.791	0.0140211
795.869	0.0140499
795.947	0.0138223
796.025	0.0140114
796.103	0.0139572
796.182	0.0141019
796.260	0.0140073
796.338	0.0139968
796.416	0.0140525
796.494	0.0137659
796.572	0.0139935
796.650	0.0141266
796.728	0.0142371
796.807	0.0141787
796.885	0.0142647
796.963	0.0140482
797.041	0.0142003
797.119	0.0143293
797.197	0.0142067
797.275	0.0143114
797.353	0.0142110
797.432	0.0143249
797.510	0.0143091
797.588	0.0142213
797.666	0.0143539
797.744	0.0143465
797.822	0.0144384
797.900	0.0143527
797.978	0.0142744
798.057	0.0143474
798.135	0.0141757
798.213	0.0143150
798.291	0.0142438
798.369	0.0143009
798.447	0.0143443
798.525	0.0141695
798.603	0.0141531
798.682	0.0141147
798.760	0.0139754
798.838	0.0140775
798.916	0.0141138
798.994	0.0140130
799.072	0.0140559
799.150	0.0139378
799.228	0.0137736
799.307	0.0138251
799.385	0.0138185
799.463	0.0137704
799.541	0.0137502
799.619	0.0136789
799.697	0.0137129
799.775	0.0136152
799.853	0.0136419
799.932	0.0135967
800.010	0.0136058
800.088	0.0136429
800.166	0.0136359
800.244	0.0135755
800.322	0.0136699
800.400	0.0138137
800.478	0.0136620
800.557	0.0135678
800.635	0.0136658
800.713	0.0137433
800.791	0.0138505
800.869	0.0139143
800.947	0.0139747
801.025	0.0141878
801.103	0.0141574
801.182	0.0141339
801.260	0.0142173
801.338	0.0142510
801.416	0.0142941
801.494	0.0143477
801.572	0.0142336
801.650	0.0141801
801.728	0.0141296
801.807	0.0139798
801.885	0.0139275
801.963	0.0138320
802.041	0.0137754
802.119	0.0138182
802.197	0.0138866
802.275	0.0135532
802.353	0.0136625
802.432	0.0138383
802.510	0.0139091
802.588	0.0140863
802.666	0.0139590
802.744	0.0141136
802.822	0.0140919
802.900	0.0140713
802.978	0.0140911
803.057	0.0144121
803.135	0.0143357
803.213	0.0143733
803.291	0.0143620
803.369	0.0143256
803.447	0.0143230
803.525	0.0143875
803.603	0.0142242
803.682	0.0142588
803.760	0.0141447
803.838	0.0140787
803.916	0.0140627
803.994	0.0139522
804.072	0.0138042
804.150	0.0139219
804.228	0.0136539
804.307	0.0136459
804.385	0.0136153
804.463	0.0135063
804.541	0.0136880
804.619	0.0137128
804.697	0.0136541
804.775	0.0137799
804.853	0.0137940
804.932	0.0138585
805.010	0.0138885
805.088	0.0139097
805.166	0.0140741
805.244	0.0139843
805.322	0.0139175
805.400	0.0139013
805.478	0.0139875
805.557	0.0138802
805.635	0.0137960
805.713	0.0137312
805.791	0.0138506
805.869	0.0136673
805.947	0.0139515
806.025	0.0139056
806.103	0.0140630
806.182	0.0140324
806.260	0.0141085
806.338	0.0140248
806.416	0.0141770
806.494	0.0144481
806.572	0.0141430
806.650	0.0142289
806.728	0.0141605
806.807	0.0140256
806.885	0.0142455
806.963	0.0141278
807.041	0.0139755
807.119	0.0139539
807.197	0.0140659
807.275	0.0140923
807.353	0.0139303
807.432	0.0140019
807.510	0.0139321
807.588	0.0139273
807.666	0.0140154
807.744	0.0139148
807.822	0.0139805
807.900	0.0139796
807.978	0.0139452
808.057	0.0139478
808.135	0.0139268
808.213	0.0138253
808.291	0.0136463
808.369	0.0136708
808.447	0.0135926
808.525	0.0136790
808.603	0.0134792
808.682	0.0133708
808.760	0.0133641
808.838	0.0133575
808.916	0.0133807
808.994	0.0133246
809.072	0.0135068
809.150	0.0135433
809.228	0.0136394
809.307	0.0137182
809.385	0.0137553
809.463	0.0140211
809.541	0.0140797
809.619	0.0140503
809.697	0.0142643
809.775	0.0143167
809.853	0.0144390
809.932	0.0145374
810.010	0.0143382
810.088	0.0143697
810.166	0.0143484
810.244	0.0141881
810.322	0.0142152
810.400	0.0141204
810.478	0.0140155
810.557	0.0138515
810.635	0.0140124
810.713	0.0138368
810.791	0.0138940
810.869	0.0138180
810.947	0.0139827
811.025	0.0141100
811.103	0.0140977
811.182	0.0140988
811.260	0.0141415
811.338	0.0141464
811.416	0.0141813
811.494	0.0140378
811.572	0.0140847
811.650	0.0141734
811.728	0.0143562
811.807	0.0140575
811.885	0.0140508
811.963	0.0140442
812.041	0.0139610
812.119	0.0139103
812.197	0.0138566
812.275	0.0137264
812.353	0.0138420
812.432	0.0138733
812.510	0.0136590
812.588	0.0137517
812.666	0.0138485
812.744	0.0138509
812.822	0.0137682
812.900	0.0137624
812.978	0.0138263
813.057	0.0138233
813.135	0.0139271
813.213	0.0139325
813.291	0.0140845
813.369	0.0142248
813.447	0.0140221
813.525	0.0140955
813.603	0.0140697
813.682	0.0140739
813.760	0.0140241
813.838	0.0139344
813.916	0.0139846
813.994	0.0141618
814.072	0.0139995
814.150	0.0140399
814.228	0.0142362
814.307	0.0140475
814.385	0.0140885
814.463	0.0141286
814.541	0.0140879
814.619	0.0141287
814.697	0.0141383
814.775	0.0142382
814.853	0.0142467
814.932	0.0140971
815.010	0.0142127
815.088	0.0141615
815.166	0.0141779
815.244	0.0142426
815.322	0.0141566
815.400	0.0141810
815.478	0.0143504
815.557	0.0144302
815.635	0.0145666
815.713	0.0144533
815.791	0.0143818
815.869	0.0144534
815.947	0.0144069
816.025	0.0144789
816.103	0.0143604
816.182	0.0142712
816.260	0.0141862
816.338	0.0140923
816.416	0.0140427
816.494	0.0138388
816.572	0.0137237
816.650	0.0134898
816.728	0.0134588
816.807	0.0133743
816.885	0.0133299
816.963	0.0133089
817.041	0.0131804
817.119	0.0133014
817.197	0.0133915
817.275	0.0135597
817.353	0.0136468
817.432	0.0137067
817.510	0.0138897
817.588	0.0139687
817.666	0.0140746
817.744	0.0140637
817.822	0.0140482
817.900	0.0141286
817.978	0.0139011
818.057	0.0139386
818.135	0.0138828
818.213	0.0139983
818.291	0.0139699
818.369	0.0139430
818.447	0.0137095
818.525	0.0136393
818.603	0.0137292
818.682	0.0138097
818.760	0.0137947
818.838	0.0139378
818.916	0.0138525
818.994	0.0138964
819.072	0.0139585
819.150	0.0138748
819.228	0.0138902
819.307	0.0138618
819.385	0.0139226
819.463	0.0138864
819.541	0.0139594
819.619	0.0140865
819.697	0.0140161
819.775	0.0140777
819.853	0.0138740
819.932	0.0140955
820.010	0.0142516
820.088	0.0142253
820.166	0.0143579
820.244	0.0144396
820.322	0.0143248
820.400	0.0145360
820.478	0.0144041
820.557	0.0144827
820.635	0.0144118
820.713	0.0143221
820.791	0.0144962
820.869	0.0143221
820.947	0.0142745
821.025	0.0141840
821.103	0.0138734
821.182	0.0136720
821.260	0.0136990
821.338	0.0135611
821.416	0.0133779
821.494	0.0134242
821.572	0.0134746
821.650	0.0134367
821.728	0.0134118
821.807	0.0134195
821.885	0.0135099
821.963	0.0137001
822.041	0.0140105
822.119	0.0140881
822.197	0.0142979
822.275	0.0144785
822.353	0.0144421
822.432	0.0143848
822.510	0.0144148
822.588	0.0146743
822.666	0.0145008
822.744	0.0145773
822.822	0.0145248
822.900	0.0143984
822.978	0.0142523
823.057	0.0141791
823.135	0.0140861
823.213	0.0139228
823.291	0.0137418
823.369	0.0135995
823.447	0.0135835
823.525	0.0136922
823.603	0.0135305
823.682	0.0135197
823.760	0.0134171
823.838	0.0134296
823.916	0.0134457
823.994	0.0135385
824.072	0.0135151
824.150	0.0135542
824.228	0.0136102
824.307	0.0136724
824.385	0.0137106
824.463	0.0136777
824.541	0.0138745
824.619	0.0138287
824.697	0.0138610
824.775	0.0138926
824.853	0.0137895
824.932	0.0137970
825.010	0.0139572
825.088	0.0138499
825.166	0.0138020
825.244	0.0137138
825.322	0.0137499
825.400	0.0136594
825.478	0.0138022
825.557	0.0140263
825.635	0.0139017
825.713	0.0138113
825.791	0.0138132
825.869	0.0137491
825.947	0.0140416
826.025	0.0140997
826.103	0.0139355
826.182	0.0140131
826.260	0.0139432
826.338	0.0139443
826.416	0.0141242
826.494	0.0140570
826.572	0.0140855
826.650	0.0141913
826.728	0.0140463
826.807	0.0141206
826.885	0.0141327
826.963	0.0144067
827.041	0.0142686
827.119	0.0141958
827.197	0.0144324
827.275	0.0143015
827.353	0.0142251
827.432	0.0141083
827.510	0.0140050
827.588	0.0140850
827.666	0.0141655
827.744	0.0138032
827.822	0.0136644
827.900	0.0136177
827.978	0.0136471
828.057	0.0135155
828.135	0.0135045
828.213	0.0135838
828.291	0.0133511
828.369	0.0136138
828.447	0.0137229
828.525	0.0137553
828.603	0.0139021
828.682	0.0139478
828.760	0.0141528
828.838	0.0143059
828.916	0.0143575
828.994	0.0144795
829.072	0.0146033
829.150	0.0144791
829.228	0.0145587
829.307	0.0144321
829.385	0.0145837
829.463	0.0145993
829.541	0.0145138
829.619	0.0144592
829.697	0.0146075
829.775	0.0145338
829.853	0.0143345
829.932	0.0142648
830.010	0.0142767
830.088	0.0142198
830.166	0.0140817
830.244	0.0140375
830.322	0.0138213
830.400	0.0137346
830.478	0.0137550
830.557	0.0135552
830.635	0.0134990
830.713	0.0135336
830.791	0.0132246
830.869	0.0131654
830.947	0.0133514
831.025	0.0133309
831.103	0.0133279
831.182	0.0134073
831.260	0.0132239
831.338	0.0134174
831.416	0.0134821
831.494	0.0136179
831.572	0.0135798
831.650	0.0136430
831.728	0.0137742
831.807	0.0136192
831.885	0.0138190
831.963	0.0139231
832.041	0.0139776
832.119	0.0140240
832.197	0.0139078
832.275	0.0140113
832.353	0.0140634
832.432	0.0140275
832.510	0.0140557
832.588	0.0140963
832.666	0.0141456
832.744	0.0141261
832.822	0.0141594
832.900	0.0141194
832.978	0.0140435
833.057	0.0141383
833.135	0.0141753
833.213	0.0139775
833.291	0.0140448
833.369	0.0140280
833.447	0.0139065
833.525	0.0140923
833.603	0.0140335
833.682	0.0139146
833.760	0.0138320
833.838	0.0139008
833.916	0.0139038
833.994	0.0138460
834.072	0.0138309
834.150	0.0137228
834.228	0.0137798
834.307	0.0137357
834.385	0.0135857
834.463	0.0138041
834.541	0.0136320
834.619	0.0137183
834.697	0.0135828
834.775	0.0137328
834.853	0.0138369
834.932	0.0137579
835.010	0.0138090
835.088	0.0139483
835.166	0.0139016
835.244	0.0139303
835.322	0.0139830
835.400	0.0140165
835.478	0.0139834
835.557	0.0142366
835.635	0.0141409
835.713	0.0141403
835.791	0.0143031
835.869	0.0142475
835.947	0.0144791
836.025	0.0143462
836.103	0.0143475
836.182	0.0142652
836.260	0.0142252
836.338	0.0141378
836.416	0.0141705
836.494	0.0141553
836.572	0.0140138
836.650	0.0139650
836.728	0.0138512
836.807	0.0140337
836.885	0.0139931
836.963	0.0138264
837.041	0.0138426
837.119	0.0138851
837.197	0.0140655
837.275	0.0140481
837.353	0.0140267
837.432	0.0140031
837.510	0.0140009
837.588	0.0141297
837.666	0.0142156
837.744	0.0141310
837.822	0.0141311
837.900	0.0141331
837.978	0.0142085
838.057	0.0141207
838.135	0.0140238
838.213	0.0139235
838.291	0.0137603
838.369	0.0136639
838.447	0.0135667
838.525	0.0137144
838.603	0.0136266
838.682	0.0136124
838.760	0.0135846
838.838	0.0136118
838.916	0.0135654
838.994	0.0134986
839.072	0.0134420
839.150	0.0134809
839.228	0.0135209
839.307	0.0135304
839.385	0.0134724
839.463	0.0136346
839.541	0.0136438
839.619	0.0136927
839.697	0.0138354
839.775	0.0139521
839.853	0.0140322
839.932	0.0139545
840.010	0.0140111
840.088	0.0141026
840.166	0.0143301
840.244	0.0142566
840.322	0.0141677
840.400	0.0142137
840.478	0.0143137
840.557	0.0142619
840.635	0.0143651
840.713	0.0144891
840.791	0.0143665
840.869	0.0144707
840.947	0.0144290
841.025	0.0143906
841.103	0.0144916
841.182	0.0143767
841.260	0.0142849
841.338	0.0144246
841.416	0.0143576
841.494	0.0142016
841.572	0.0142275
841.650	0.0141419
841.728	0.0140388
841.807	0.0140832
841.885	0.0139340
841.963	0.0137305
842.041	0.0139382
842.119	0.0137268
842.197	0.0138765
842.275	0.0138905
842.353	0.0138189
842.432	0.0137584
842.510	0.0138413
842.588	0.0137161
842.666	0.0136867
842.744	0.0136408
842.822	0.0137807
842.900	0.0137480
842.978	0.0136858
843.057	0.0136756
843.135	0.0137167
843.213	0.0136736
843.291	0.0136855
843.369	0.0136732
843.447	0.0138706
843.525	0.0138223
843.603	0.0138259
843.682	0.0139083
843.760	0.0140628
843.838	0.0139960
843.916	0.0139767
843.994	0.0142576
844.072	0.0142499
844.150	0.0142753
844.228	0.0141807
844.307	0.0143445
844.385	0.0143926
844.463	0.0145217
844.541	0.0145911
844.619	0.0146416
844.697	0.0145768
844.775	0.0145943
844.853	0.0146774
844.932	0.0145257
845.010	0.0146188
845.088	0.0144665
845.166	0.0143700
845.244	0.0144623
845.322	0.0142739
845.400	0.0141881
845.478	0.0140414
845.557	0.0140561
845.635	0.0140530
845.713	0.0137728
845.791	0.0138489
845.869	0.0137154
845.947	0.0137311
846.025	0.0137676
846.103	0.0136676
846.182	0.0135598
846.260	0.0137506
846.338	0.0134319
846.416	0.0134116
846.494	0.0135447
846.572	0.0134736
846.650	0.0135772
846.728	0.0135148
846.807	0.0134721
846.885	0.0135259
846.963	0.0136507
847.041	0.0134377
847.119	0.0136206
847.197	0.0135536
847.275	0.0135558
847.353	0.0135325
847.432	0.0136640
847.510	0.0136968
847.588	0.0136024
847.666	0.0135735
847.744	0.0136849
847.822	0.0137434
847.900	0.0137807
847.978	0.0137200
848.057	0.0137881
848.135	0.0139027
848.213	0.0140334
848.291	0.0140136
848.369	0.0142104
848.447	0.0140665
848.525	0.0141194
848.603	0.0142713
848.682	0.0141933
848.760	0.0142932
848.838	0.0140971
848.916	0.0141164
848.994	0.0142831
849.072	0.0141788
849.150	0.0141839
849.228	0.0142848
849.307	0.0140842
849.385	0.0142160
849.463	0.0141171
849.541	0.0141420
849.619	0.0140679
849.697	0.0140511
849.775	0.0139695
849.853	0.0139216
849.932	0.0138741
850.010	0.0137307
850.088	0.0138366
850.166	0.0138893
850.244	0.0137489
850.322	0.0136696
850.400	0.0135654
850.478	0.0136158
850.557	0.0136427
850.635	0.0136374
850.713	0.0136908
850.791	0.0137370
850.869	0.0136705
850.947	0.0138054
851.025	0.0136717
851.103	0.0137371
851.182	0.0136974
851.260	0.0136919
851.338	0.0136335
851.416	0.0137074
851.494	0.0138065
851.572	0.0137779
851.650	0.0138389
851.728	0.0139150
851.807	0.0138923
851.885	0.0139735
851.963	0.0141082
852.041	0.0140929
852.119	0.0142152
852.197	0.0144983
852.275	0.0144428
852.353	0.0144189
852.432	0.0143982
852.510	0.0144280
852.588	0.0143359
852.666	0.0143569
852.744	0.0143910
852.822	0.0142416
852.900	0.0142865
852.978	0.0141720
853.057	0.0140344
853.135	0.0139748
853.213	0.0140591
853.291	0.0139936
853.369	0.0141023
853.447	0.0140189
853.525	0.0139576
853.603	0.0140444
853.682	0.0138476
853.760	0.0140010
853.838	0.0139149
853.916	0.0137505
853.994	0.0136743
854.072	0.0136809
854.150	0.0136427
854.228	0.0137417
854.307	0.0135629
854.385	0.0135995
854.463	0.0134255
854.541	0.0133394
854.619	0.0132696
854.697	0.0133411
854.775	0.0133390
854.853	0.0132210
854.932	0.0133531
855.010	0.0132932
855.088	0.0133934
855.166	0.0134996
855.244	0.0135255
855.322	0.0135629
855.400	0.0136369
855.478	0.0137215
855.557	0.0138685
855.635	0.0138681
855.713	0.0141251
855.791	0.0140583
855.869	0.0141431
855.947	0.0142615
856.025	0.0142599
856.103	0.0142123
856.182	0.0142456
856.260	0.0144653
856.338	0.0144169
856.416	0.0142394
856.494	0.0143587
856.572	0.0142918
856.650	0.0143384
856.728	0.0143198
856.807	0.0143083
856.885	0.0143858
856.963	0.0143638
857.041	0.0143037
857.119	0.0143362
857.197	0.0141334
857.275	0.0141132
857.353	0.0142062
857.432	0.0141339
857.510	0.0138825
857.588	0.0139308
857.666	0.0140495
857.744	0.0138255
857.822	0.0138015
857.900	0.0137936
857.978	0.0139363
858.057	0.0136520
858.135	0.0137666
858.213	0.0137067
858.291	0.0136970
858.369	0.0137111
858.447	0.0136629
858.525	0.0137273
858.603	0.0137437
858.682	0.0138628
858.760	0.0138583
858.838	0.0138542
858.916	0.0138101
858.994	0.0139230
859.072	0.0139728
859.150	0.0139637
859.228	0.0139820
859.307	0.0143176
859.385	0.0141194
859.463	0.0141785
859.541	0.0142471
859.619	0.0141856
859.697	0.0142908
859.775	0.0144248
859.853	0.0142190
859.932	0.0143144
860.010	0.0143320
860.088	0.0143791
860.166	0.0143459
860.244	0.0143509
860.322	0.0141845
860.400	0.0141716
860.478	0.0142203
860.557	0.0143356
860.635	0.0143524
860.713	0.0141677
860.791	0.0140890
860.869	0.0141801
860.947	0.0142342
861.025	0.0141290
861.103	0.0141210
861.182	0.0140477
861.260	0.0139375
861.338	0.0140721
861.416	0.0141120
861.494	0.0140997
861.572	0.0139692
861.650	0.0138795
861.728	0.0138804
861.807	0.0139849
861.885	0.0138210
861.963	0.0136987
862.041	0.0137221
862.119	0.0136884
862.197	0.0137988
862.275	0.0137038
862.353	0.0136447
862.432	0.0135664
862.510	0.0136832
862.588	0.0136546
862.666	0.0136665
862.744	0.0136153
862.822	0.0134980
862.900	0.0135164
862.978	0.0135972
863.057	0.0136588
863.135	0.0136206
863.213	0.0137231
863.291	0.0136758
863.369	0.0137168
863.447	0.0137974
863.525	0.0137070
863.603	0.0139554
863.682	0.0140137
863.760	0.0140392
863.838	0.0140746
863.916	0.0141051
863.994	0.0142695
864.072	0.0141482
864.150	0.0142613
864.228	0.0142030
864.307	0.0141765
864.385	0.0141978
864.463	0.0141692
864.541	0.0141326
864.619	0.0141870
864.697	0.0142796
864.775	0.0141287
864.853	0.0140800
864.932	0.0141706
865.010	0.0142717
865.088	0.0140255
865.166	0.0141141
865.244	0.0140945
865.322	0.0140039
865.400	0.0139828
865.478	0.0139845
865.557	0.0140329
865.635	0.0139008
865.713	0.0139986
865.791	0.0139719
865.869	0.0139063
865.947	0.0138995
866.025	0.0138523
866.103	0.0138444
866.182	0.0137356
866.260	0.0138876
866.338	0.0138026
866.416	0.0138127
866.494	0.0138100
866.572	0.0137012
866.650	0.0137757
866.728	0.0138582
866.807	0.0138206
866.885	0.0138474
866.963	0.0136362
867.041	0.0137025
867.119	0.0138937
867.197	0.0138813
867.275	0.0137418
867.353	0.0137589
867.432	0.0137574
867.510	0.0138611
867.588	0.0137799
867.666	0.0138496
867.744	0.0139531
867.822	0.0139862
867.900	0.0140199
867.978	0.0139352
868.057	0.0141630
868.135	0.0143163
868.213	0.0140955
868.291	0.0141051
868.369	0.0144533
868.447	0.0143620
868.525	0.0144170
868.603	0.0143373
868.682	0.0143539
868.760	0.0142663
868.838	0.0141318
868.916	0.0141899
868.994	0.0140974
869.072	0.0141325
869.150	0.0139967
869.228	0.0138773
869.307	0.0140173
869.385	0.0138895
869.463	0.0137402
869.541	0.0138196
869.619	0.0137524
869.697	0.0136588
869.775	0.0136098
869.853	0.0138686
869.932	0.0137124
870.010	0.0136323
870.088	0.0136291
870.166	0.0137779
870.244	0.0137283
870.322	0.0136816
870.400	0.0136902
870.478	0.0136374
870.557	0.0137413
870.635	0.0136236
870.713	0.0137939
870.791	0.0137024
870.869	0.0137349
870.947	0.0138010
871.025	0.0137917
871.103	0.0138933
871.182	0.0138380
871.260	0.0139005
871.338	0.0139558
871.416	0.0140209
871.494	0.0139760
871.572	0.0140467
871.650	0.0139530
871.728	0.0140761
871.807	0.0140713
871.885	0.0142088
871.963	0.0139816
872.041	0.0141965
872.119	0.0141742
872.197	0.0141541
872.275	0.0142596
872.353	0.0141637
872.432	0.0140971
872.510	0.0141089
872.588	0.0140002
872.666	0.0141821
872.744	0.0141508
872.822	0.0142091
872.900	0.0141302
872.978	0.0140135
873.057	0.0141154
873.135	0.0139146
873.213	0.0139066
873.291	0.0139243
873.369	0.0139608
873.447	0.0138716
873.525	0.0138960
873.603	0.0139129
873.682	0.0137579
873.760	0.0137048
873.838	0.0136259
873.916	0.0138746
873.994	0.0137782
874.072	0.0138334
874.150	0.0138911
874.228	0.0137369
874.307	0.0137836
874.385	0.0138831
874.463	0.0138554
874.541	0.0138834
874.619	0.0140253
874.697	0.0139435
874.775	0.0139071
874.853	0.0138802
874.932	0.0139275
875.010	0.0140308
875.088	0.0139859
875.166	0.0141190
875.244	0.0140549
875.322	0.0140324
875.400	0.0139864
875.478	0.0140656
875.557	0.0140623
875.635	0.0142187
875.713	0.0141074
875.791	0.0142854
875.869	0.0141191
875.947	0.0140712
876.025	0.0141919
876.103	0.0141387
876.182	0.0142771
876.260	0.0142016
876.338	0.0142141
876.416	0.0143170
876.494	0.0141866
876.572	0.0141983
876.650	0.0141765
876.728	0.0142522
876.807	0.0141872
876.885	0.0139565
876.963	0.0141410
877.041	0.0141657
877.119	0.0140463
877.197	0.0140419
877.275	0.0139748
877.353	0.0140308
877.432	0.0138783
877.510	0.0140140
877.588	0.0140367
877.666	0.0137950
877.744	0.0139199
877.822	0.0137847
877.900	0.0138688
877.978	0.0139405
878.057	0.0139455
878.135	0.0139521
878.213	0.0138580
878.291	0.0138842
878.369	0.0139583
878.447	0.0139085
878.525	0.0139345
878.603	0.0139422
878.682	0.0139490
878.760	0.0140240
878.838	0.0140541
878.916	0.0141254
878.994	0.0140680
879.072	0.0140812
879.150	0.0141064
879.228	0.0141021
879.307	0.0141754
879.385	0.0140916
879.463	0.0139912
879.541	0.0140447
879.619	0.0140339
879.697	0.0140417
879.775	0.0141312
879.853	0.0140353
879.932	0.0139635
880.010	0.0141313
880.088	0.0140654
880.166	0.0141467
880.244	0.0139039
880.322	0.0140200
880.400	0.0139189
880.478	0.0140092
880.557	0.0139173
880.635	0.0140047
880.713	0.0139268
880.791	0.0140081
880.869	0.0139255
880.947	0.0138645
881.025	0.0139770
881.103	0.0140044
881.182	0.0138119
881.260	0.0139966
881.338	0.0140304
881.416	0.0139383
881.494	0.0139947
881.572	0.0139915
881.650	0.0139281
881.728	0.0139574
881.807	0.0139436
881.885	0.0139307
881.963	0.0138856
882.041	0.0138754
882.119	0.0140136
882.197	0.0139348
882.275	0.0138471
882.353	0.0137251
882.432	0.0138310
882.510	0.0136950
882.588	0.0138163
882.666	0.0138898
882.744	0.0137704
882.822	0.0139361
882.900	0.0137628
882.978	0.0137104
883.057	0.0138186
883.135	0.0138174
883.213	0.0136772
883.291	0.0137624
883.369	0.0138516
883.447	0.0138194
883.525	0.0139132
883.603	0.0139814
883.682	0.0138753
883.760	0.0139624
883.838	0.0139381
883.916	0.0138844
883.994	0.0140964
884.072	0.0139874
884.150	0.0141615
884.228	0.0141348
884.307	0.0141267
884.385	0.0141606
884.463	0.0141824
884.541	0.0142368
884.619	0.0141944
884.697	0.0142207
884.775	0.0141640
884.853	0.0143513
884.932	0.0142214
885.010	0.0142632
885.088	0.0142603
885.166	0.0142336
885.244	0.0142801
885.322	0.0142142
885.400	0.0142196
885.478	0.0141950
885.557	0.0141118
885.635	0.0141928
885.713	0.0142396
885.791	0.0142250
885.869	0.0141882
885.947	0.0140568
886.025	0.0140439
886.103	0.0140551
886.182	0.0139506
886.260	0.0138589
886.338	0.0138792
886.416	0.0139662
886.494	0.0137830
886.572	0.0137952
886.650	0.0137599
886.728	0.0138672
886.807	0.0137951
886.885	0.0136126
886.963	0.0136684
887.041	0.0137169
887.119	0.0136634
887.197	0.0136090
887.275	0.0135884
887.353	0.0135480
887.432	0.0135632
887.510	0.0136996
887.588	0.0135838
887.666	0.0136089
887.744	0.0135561
887.822	0.0135723
887.900	0.0136253
887.978	0.0138184
888.057	0.0137819
888.135	0.0137180
888.213	0.0139019
888.291	0.0138721
888.369	0.0138647
888.447	0.0140858
888.525	0.0140680
888.603	0.0140047
888.682	0.0142786
888.760	0.0141271
888.838	0.0141475
888.916	0.0141477
888.994	0.0142271
889.072	0.0142546
889.150	0.0143275
889.228	0.0144485
889.307	0.0142522
889.385	0.0143412
889.463	0.0142950
889.541	0.0143494
889.619	0.0142128
889.697	0.0140151
889.775	0.0141730
889.853	0.0140600
889.932	0.0140771
890.010	0.0142176
890.088	0.0140594
890.166	0.0139563
890.244	0.0138396
890.322	0.0138855
890.400	0.0137634
890.478	0.0137112
890.557	0.0136993
890.635	0.0138649
890.713	0.0138760
890.791	0.0135829
890.869	0.0135336
890.947	0.0135796
891.025	0.0136193
891.103	0.0136576
891.182	0.0137656
891.260	0.0137597
891.338	0.0136721
891.416	0.0137102
891.494	0.0137856
891.572	0.0138575
891.650	0.0138890
891.728	0.0138335
891.807	0.0138252
891.885	0.0139677
891.963	0.0140345
892.041	0.0139819
892.119	0.0141158
892.197	0.0140580
892.275	0.0141944
892.353	0.0141092
892.432	0.0141196
892.510	0.0141891
892.588	0.0141442
892.666	0.0142070
892.744	0.0141978
892.822	0.0141104
892.900	0.0142465
892.978	0.0143124
893.057	0.0141732
893.135	0.0140794
893.213	0.0141193
893.291	0.0143097
893.369	0.0141501
893.447	0.0142068
893.525	0.0141992
893.603	0.0139946
893.682	0.0140369
893.760	0.0139744
893.838	0.0141075
893.916	0.0140215
893.994	0.0140199
894.072	0.0140543
894.150	0.0140811
894.228	0.0140549
894.307	0.0141077
894.385	0.0141038
894.463	0.0140446
894.541	0.0141017
894.619	0.0141163
894.697	0.0139368
894.775	0.0140606
894.853	0.0140694
894.932	0.0140282
895.010	0.0139863
895.088	0.0141119
895.166	0.0139919
895.244	0.0139053
895.322	0.0139109
895.400	0.0140210
895.478	0.0139395
895.557	0.0139539
895.635	0.0140255
895.713	0.0137779
895.791	0.0137266
895.869	0.0136817
895.947	0.0138913
896.025	0.0139677
896.103	0.0136922
896.182	0.0136401
896.260	0.0137066
896.338	0.0137252
896.416	0.0138377
896.494	0.0137594
896.572	0.0138428
896.650	0.0138949
896.728	0.0138694
896.807	0.0137229
896.885	0.0137781
896.963	0.0137202
897.041	0.0139225
897.119	0.0137811
897.197	0.0138699
897.275	0.0138423
897.353	0.0139286
897.432	0.0139357
897.510	0.0139312
897.588	0.0139747
897.666	0.0139880
897.744	0.0139062
897.822	0.0140195
897.900	0.0140685
897.978	0.0140995
898.057	0.0140175
898.135	0.0141209
898.213	0.0141444
898.291	0.0140128
898.369	0.0141911
898.447	0.0141658
898.525	0.0141734
898.603	0.0140549
898.682	0.0142604
898.760	0.0143490
898.838	0.0142178
898.916	0.0142636
898.994	0.0141683
899.072	0.0141792
899.150	0.0144016
899.228	0.0143148
899.307	0.0143861
899.385	0.0143077
899.463	0.0141723
899.541	0.0142593
899.619	0.0141795
899.697	0.0141193
899.775	0.0142242
899.853	0.0141971
899.932	0.0141018
900.010	0.0140005
900.088	0.0140860
900.166	0.0142035
900.244	0.0141628
900.322	0.0139651
900.400	0.0139439
900.478	0.0138624
900.557	0.0139286
900.635	0.0138808
900.713	0.0139657
900.791	0.0138295
900.869	0.0138406
900.947	0.0137231
901.025	0.0137620
901.103	0.0139391
901.182	0.0137223
901.260	0.0137469
901.338	0.0137661
901.416	0.0138233
901.494	0.0136938
901.572	0.0138062
901.650	0.0139155
901.728	0.0137930
901.807	0.0139320
901.885	0.0139716
901.963	0.0138585
902.041	0.0138821
902.119	0.0140495
902.197	0.0138834
902.275	0.0139270
902.353	0.0138565
902.432	0.0139336
902.510	0.0138952
902.588	0.0140036
902.666	0.0139124
902.744	0.0140286
902.822	0.0140255
902.900	0.0140543
902.978	0.0138991
903.057	0.0139720
903.135	0.0140418
903.213	0.0140083
903.291	0.0141025
903.369	0.0140491
903.447	0.0140109
903.525	0.0140726
903.603	0.0140960
903.682	0.0141913
903.760	0.0141577
903.838	0.0142245
903.916	0.0141669
903.994	0.0142715
904.072	0.0142538
904.150	0.0141644
904.228	0.0142652
904.307	0.0143587
904.385	0.0142451
904.463	0.0142475
904.541	0.0144744
904.619	0.0142987
904.697	0.0142033
904.775	0.0142156
904.853	0.0141902
904.932	0.0141125
905.010	0.0142981
905.088	0.0142116
905.166	0.0140964
905.244	0.0140884
905.322	0.0140742
905.400	0.0140791
905.478	0.0139632
905.557	0.0138820
905.635	0.0139044
905.713	0.0138322
905.791	0.0136588
905.869	0.0137388
905.947	0.0138613
906.025	0.0138206
906.103	0.0136758
906.182	0.0137145
906.260	0.0136380
906.338	0.0136435
906.416	0.0136046
906.494	0.0137339
906.572	0.0136716
906.650	0.0137151
906.728	0.0136356
906.807	0.0137804
906.885	0.0138106
906.963	0.0137108
907.041	0.0136487
907.119	0.0137703
907.197	0.0137551
907.275	0.0136957
907.353	0.0138739
907.432	0.0138435
907.510	0.0138702
907.588	0.0139054
907.666	0.0139635
907.744	0.0139989
907.822	0.0139807
907.900	0.0139304
907.978	0.0140328
908.057	0.0140012
908.135	0.0139139
908.213	0.0140178
908.291	0.0140203
908.369	0.0139556
908.447	0.0140692
908.525	0.0140684
908.603	0.0140328
908.682	0.0139114
908.760	0.0140451
908.838	0.0139489
908.916	0.0140396
908.994	0.0138979
909.072	0.0139479
909.150	0.0139419
909.228	0.0138359
909.307	0.0138795
909.385	0.0140285
909.463	0.0139357
909.541	0.0137550
909.619	0.0137074
909.697	0.0137618
909.775	0.0138902
909.853	0.0138982
909.932	0.0139159
910.010	0.0138056
910.088	0.0138670
910.166	0.0138655
910.244	0.0138248
910.322	0.0138993
910.400	0.0139431
910.478	0.0138102
910.557	0.0139889
910.635	0.0138347
910.713	0.0138893
910.791	0.0138691
910.869	0.0138023
910.947	0.0140107
911.025	0.0139687
911.103	0.0137782
911.182	0.0138194
911.260	0.0138531
911.338	0.0138972
911.416	0.0138725
911.494	0.0138210
911.572	0.0139051
911.650	0.0139561
911.728	0.0140105
911.807	0.0138470
911.885	0.0138830
911.963	0.0138676
912.041	0.0138630
912.119	0.0139727
912.197	0.0138289
912.275	0.0138882
912.353	0.0138477
912.432	0.0138363
912.510	0.0137949
912.588	0.0138596
912.666	0.0139486
912.744	0.0138531
912.822	0.0138094
912.900	0.0138433
912.978	0.0137633
913.057	0.0137291
913.135	0.0138725
913.213	0.0137804
913.291	0.0136646
913.369	0.0137836
913.447	0.0138197
913.525	0.0137551
913.603	0.0138553
913.682	0.0138320
913.760	0.0139581
913.838	0.0138361
913.916	0.0138980
913.994	0.0138506
914.072	0.0140871
914.150	0.0138864
914.228	0.0138850
914.307	0.0139178
914.385	0.0139478
914.463	0.0139628
914.541	0.0138592
914.619	0.0139705
914.697	0.0138847
914.775	0.0139172
914.853	0.0140351
914.932	0.0140195
915.010	0.0140579
915.088	0.0141622
915.166	0.0139785
915.244	0.0139989
915.322	0.0140077
915.400	0.0140574
915.478	0.0140179
915.557	0.0139620
915.635	0.0138380
915.713	0.0139757
915.791	0.0139846
915.869	0.0140055
915.947	0.0138993
916.025	0.0139410
916.103	0.0140105
916.182	0.0138510
916.260	0.0139297
916.338	0.0139572
916.416	0.0139499
916.494	0.0139191
916.572	0.0139407
916.650	0.0139989
916.728	0.0139307
916.807	0.0140429
916.885	0.0138749
916.963	0.0139040
917.041	0.0139374
917.119	0.0140456
917.197	0.0139500
917.275	0.0138020
917.353	0.0140725
917.432	0.0140019
917.510	0.0139101
917.588	0.0139696
917.666	0.0140617
917.744	0.0139536
917.822	0.0139561
917.900	0.0141964
917.978	0.0142429
918.057	0.0141527
918.135	0.0139763
918.213	0.0141849
918.291	0.0140947
918.369	0.0141026
918.447	0.0141415
918.525	0.0141122
918.603	0.0141022
918.682	0.0140632
918.760	0.0142296
918.838	0.0141414
918.916	0.0140811
918.994	0.0141133
919.072	0.0142330
919.150	0.0141898
919.228	0.0140460
919.307	0.0141602
919.385	0.0140913
919.463	0.0142139
919.541	0.0141049
919.619	0.0140852
919.697	0.0141023
919.775	0.0141344
919.853	0.0139375
919.932	0.0140552
920.010	0.0140397
920.088	0.0140069
920.166	0.0139301
920.244	0.0140035
920.322	0.0141196
920.400	0.0139411
920.478	0.0141013
920.557	0.0139983
920.635	0.0139865
920.713	0.0140862
920.791	0.0139305
920.869	0.0140807
920.947	0.0141347
921.025	0.0141174
921.103	0.0140462
921.182	0.0139399
921.260	0.0140086
921.338	0.0139529
921.416	0.0139622
921.494	0.0138320
921.572	0.0139563
921.650	0.0138241
921.728	0.0138950
921.807	0.0137564
921.885	0.0137756
921.963	0.0138851
922.041	0.0137267
922.119	0.0137352
922.197	0.0137214
922.275	0.0138012
922.353	0.0136732
922.432	0.0137345
922.510	0.0137315
922.588	0.0137028
922.666	0.0138076
922.744	0.0137882
922.822	0.0139702
922.900	0.0138412
922.978	0.0138152
923.057	0.0139213
923.135	0.0138844
923.213	0.0139853
923.291	0.0140057
923.369	0.0141559
923.447	0.0141112
923.525	0.0141414
923.603	0.0141714
923.682	0.0141485
923.760	0.0141580
923.838	0.0141476
923.916	0.0142096
923.994	0.0142551
924.072	0.0141398
924.150	0.0142558
924.228	0.0141862
924.307	0.0141770
924.385	0.0142001
924.463	0.0142687
924.541	0.0141035
924.619	0.0141424
924.697	0.0139695
924.775	0.0140643
924.853	0.0140462
924.932	0.0139962
925.010	0.0140159
925.088	0.0139211
925.166	0.0137689
925.244	0.0137745
925.322	0.0138006
925.400	0.0138363
925.478	0.0137868
925.557	0.0137323
925.635	0.0137635
925.713	0.0137495
925.791	0.0135962
925.869	0.0135936
925.947	0.0136523
926.025	0.0137557
926.103	0.0137685
926.182	0.0137424
926.260	0.0137878
926.338	0.0136620
926.416	0.0137418
926.494	0.0137108
926.572	0.0136764
926.650	0.0138132
926.728	0.0137601
926.807	0.0137198
926.885	0.0138423
926.963	0.0138138
927.041	0.0139051
927.119	0.0137598
927.197	0.0138060
927.275	0.0139804
927.353	0.0137847
927.432	0.0138557
927.510	0.0139789
927.588	0.0139961
927.666	0.0139581
927.744	0.0139513
927.822	0.0140934
927.900	0.0140318
927.978	0.0140874
928.057	0.0140948
928.135	0.0139777
928.213	0.0140331
928.291	0.0141936
928.369	0.0140755
928.447	0.0141164
928.525	0.0141968
928.603	0.0140488
928.682	0.0141292
928.760	0.0140833
928.838	0.0141672
928.916	0.0141747
928.994	0.0142727
929.072	0.0141339
929.150	0.0141297
929.228	0.0141468
929.307	0.0141716
929.385	0.0141419
929.463	0.0141118
929.541	0.0140571
929.619	0.0140322
929.697	0.0141925
929.775	0.0140693
929.853	0.0139774
929.932	0.0140831
930.010	0.0140511
930.088	0.0141628
930.166	0.0141470
930.244	0.0140442
930.322	0.0142462
930.400	0.0141209
930.478	0.0141766
930.557	0.0141907
930.635	0.0141615
930.713	0.0140220
930.791	0.0142332
930.869	0.0141275
930.947	0.0140778
931.025	0.0140445
931.103	0.0141719
931.182	0.0141199
931.260	0.0140998
931.338	0.0142342
931.416	0.0141955
931.494	0.0142387
931.572	0.0141615
931.650	0.0141897
931.728	0.0141332
931.807	0.0139751
931.885	0.0142177
931.963	0.0140428
932.041	0.0140451
932.119	0.0141296
932.197	0.0138458
932.275	0.0137879
932.353	0.0139588
932.432	0.0137561
932.510	0.0137589
932.588	0.0138424
932.666	0.0138183
932.744	0.0137709
932.822	0.0135328
932.900	0.0137160
932.978	0.0138500
933.057	0.0136751
933.135	0.0136698
933.213	0.0136371
933.291	0.0136134
933.369	0.0135730
933.447	0.0136879
933.525	0.0137859
933.603	0.0137590
933.682	0.0138368
933.760	0.0137616
933.838	0.0136957
933.916	0.0138728
933.994	0.0138634
934.072	0.0138010
934.150	0.0138636
934.228	0.0139397
934.307	0.0139803
934.385	0.0140115
934.463	0.0139923
934.541	0.0139957
934.619	0.0139354
934.697	0.0138633
934.775	0.0138807
934.853	0.0140559
934.932	0.0139529
935.010	0.0139306
935.088	0.0140364
935.166	0.0140004
935.244	0.0140473
935.322	0.0139719
935.400	0.0139856
935.478	0.0140020
935.557	0.0139861
935.635	0.0138982
935.713	0.0140871
935.791	0.0138641
935.869	0.0138268
935.947	0.0139685
936.025	0.0140514
936.103	0.0139768
936.182	0.0139763
936.260	0.0139168
936.338	0.0140088
936.416	0.0139025
936.494	0.0139455
936.572	0.0139878
936.650	0.0138255
936.728	0.0138309
936.807	0.0139375
936.885	0.0138021
936.963	0.0138716
937.041	0.0139642
937.119	0.0137382
937.197	0.0138560
937.275	0.0139430
937.353	0.0138695
937.432	0.0136780
937.510	0.0138486
937.588	0.0137486
937.666	0.0136403
937.744	0.0138293
937.822	0.0137741
937.900	0.0138983
937.978	0.0138763
938.057	0.0138292
938.135	0.0138908
938.213	0.0138512
938.291	0.0140724
938.369	0.0139867
938.447	0.0140545
938.525	0.0140182
938.603	0.0139580
938.682	0.0140253
938.760	0.0141001
938.838	0.0140910
938.916	0.0141340
938.994	0.0140935
939.072	0.0140029
939.150	0.0140324
939.228	0.0140586
939.307	0.0141628
939.385	0.0142698
939.463	0.0141389
939.541	0.0142199
939.619	0.0141770
939.697	0.0142052
939.775	0.0140557
939.853	0.0140356
939.932	0.0142669
940.010	0.0140765
940.088	0.0141082
940.166	0.0140663
940.244	0.0141454
940.322	0.0141715
940.400	0.0140221
940.478	0.0139980
940.557	0.0140932
940.635	0.0140688
940.713	0.0140495
940.791	0.0140685
940.869	0.0140117
940.947	0.0140164
941.025	0.0139792
941.103	0.0139333
941.182	0.0141604
941.260	0.0141096
941.338	0.0140704
941.416	0.0139716
941.494	0.0139615
941.572	0.0140810
941.650	0.0140011
941.728	0.0141338
941.807	0.0139278
941.885	0.0138272
941.963	0.0142101
942.041	0.0141384
942.119	0.0140128
942.197	0.0139922
942.275	0.0141195
942.353	0.0141305
942.432	0.0140836
942.510	0.0140904
942.588	0.0140764
942.666	0.0139737
942.744	0.0140239
942.822	0.0138953
942.900	0.0140078
942.978	0.0140461
943.057	0.0140326
943.135	0.0140504
943.213	0.0141195
943.291	0.0139951
943.369	0.0138508
943.447	0.0138644
943.525	0.0140406
943.603	0.0139146
943.682	0.0139046
943.760	0.0139740
943.838	0.0140112
943.916	0.0139184
943.994	0.0139445
944.072	0.0139285
944.150	0.0138129
944.228	0.0140556
944.307	0.0137877
944.385	0.0141046
944.463	0.0140440
944.541	0.0137981
944.619	0.0137976
944.697	0.0137834
944.775	0.0139751
944.853	0.0138895
944.932	0.0139813
945.010	0.0138596
945.088	0.0139144
945.166	0.0138338
945.244	0.0138450
945.322	0.0139887
945.400	0.0138578
945.478	0.0138842
945.557	0.0138926
945.635	0.0138568
945.713	0.0137998
945.791	0.0137675
945.869	0.0139054
945.947	0.0139841
946.025	0.0139138
946.103	0.0138872
946.182	0.0137125
946.260	0.0137521
946.338	0.0136949
946.416	0.0138908
946.494	0.0139076
946.572	0.0138258
946.650	0.0138109
946.728	0.0138413
946.807	0.0138848
946.885	0.0137710
946.963	0.0137405
947.041	0.0139070
947.119	0.0139120
947.197	0.0138477
947.275	0.0138998
947.353	0.0140178
947.432	0.0140849
947.510	0.0140139
947.588	0.0139915
947.666	0.0140762
947.744	0.0141366
947.822	0.0141629
947.900	0.0141377
947.978	0.0140923
948.057	0.0141074
948.135	0.0141263
948.213	0.0141268
948.291	0.0140814
948.369	0.0141219
948.447	0.0140209
948.525	0.0140413
948.603	0.0140755
948.682	0.0141416
948.760	0.0140826
948.838	0.0139110
948.916	0.0140530
948.994	0.0140046
949.072	0.0140011
949.150	0.0139799
949.228	0.0139456
949.307	0.0140824
949.385	0.0141348
949.463	0.0140604
949.541	0.0138862
949.619	0.0140637
949.697	0.0139701
949.775	0.0138924
949.853	0.0140307
949.932	0.0141163
950.010	0.0140739
950.088	0.0139986
950.166	0.0139751
950.244	0.0139749
950.322	0.0138871
950.400	0.0140281
950.478	0.0141185
950.557	0.0140272
950.635	0.0139677
950.713	0.0139773
950.791	0.0141595
950.869	0.0140325
950.947	0.0138493
951.025	0.0141257
951.103	0.0138992
951.182	0.0139924
951.260	0.0139779
951.338	0.0138378
951.416	0.0137872
951.494	0.0139241
951.572	0.0138467
951.650	0.0138752
951.728	0.0138593
951.807	0.0138590
951.885	0.0139427
951.963	0.0139246
952.041	0.0139019
952.119	0.0138103
952.197	0.0139803
952.275	0.0140367
952.353	0.0139610
952.432	0.0140891
952.510	0.0141998
952.588	0.0141306
952.666	0.0140759
952.744	0.0141087
952.822	0.0141398
952.900	0.0142467
952.978	0.0141878
953.057	0.0141816
953.135	0.0142451
953.213	0.0142042
953.291	0.0141920
953.369	0.0141919
953.447	0.0142168
953.525	0.0142009
953.603	0.0143088
953.682	0.0141082
953.760	0.0140851
953.838	0.0140479
953.916	0.0141885
953.994	0.0141679
954.072	0.0140240
954.150	0.0139045
954.228	0.0139114
954.307	0.0139096
954.385	0.0138574
954.463	0.0138727
954.541	0.0137628
954.619	0.0137768
954.697	0.0138076
954.775	0.0138703
954.853	0.0138489
954.932	0.0137557
955.010	0.0138248
955.088	0.0139359
955.166	0.0138725
955.244	0.0139426
955.322	0.0138895
955.400	0.0138053
955.478	0.0138636
955.557	0.0138796
955.635	0.0138776
955.713	0.0138634
955.791	0.0138878
955.869	0.0137723
955.947	0.0139796
956.025	0.0139900
956.103	0.0138191
956.182	0.0140115
956.260	0.0140070
956.338	0.0139240
956.416	0.0141240
956.494	0.0141216
956.572	0.0140880
956.650	0.0141904
956.728	0.0141277
956.807	0.0140817
956.885	0.0141431
956.963	0.0141330
957.041	0.0141367
957.119	0.0140907
957.197	0.0142882
957.275	0.0142801
957.353	0.0142625
957.432	0.0141896
957.510	0.0140662
957.588	0.0140260
957.666	0.0142215
957.744	0.0141480
957.822	0.0142606
957.900	0.0141678
957.978	0.0140361
958.057	0.0141414
958.135	0.0141476
958.213	0.0141849
958.291	0.0140405
958.369	0.0139787
958.447	0.0139008
958.525	0.0140218
958.603	0.0139647
958.682	0.0139233
958.760	0.0140202
958.838	0.0138428
958.916	0.0138982
958.994	0.0139268
959.072	0.0137979
959.150	0.0138287
959.228	0.0137837
959.307	0.0137352
959.385	0.0137728
959.463	0.0138792
959.541	0.0137750
959.619	0.0138950
959.697	0.0137584
959.775	0.0138485
959.853	0.0139381
959.932	0.0138134
960.010	0.0138261
960.088	0.0139541
960.166	0.0138838
960.244	0.0138672
960.322	0.0139232
960.400	0.0139946
960.478	0.0139410
960.557	0.0140314
960.635	0.0142006
960.713	0.0141387
960.791	0.0140488
960.869	0.0141393
960.947	0.0142294
961.025	0.0143018
961.103	0.0141907
961.182	0.0142065
961.260	0.0141833
961.338	0.0141560
961.416	0.0141438
961.494	0.0142062
961.572	0.0141235
961.650	0.0142325
961.728	0.0142220
961.807	0.0143068
961.885	0.0141703
961.963	0.0141105
962.041	0.0142574
962.119	0.0140809
962.197	0.0140382
962.275	0.0141043
962.353	0.0139927
962.432	0.0139504
962.510	0.0139579
962.588	0.0138787
962.666	0.0139818
962.744	0.0138264
962.822	0.0137414
962.900	0.0138416
962.978	0.0137604
963.057	0.0137279
963.135	0.0138177
963.213	0.0137998
963.291	0.0137859
963.369	0.0138822
963.447	0.0137884
963.525	0.0137139
963.603	0.0137960
963.682	0.0139457
963.760	0.0138838
963.838	0.0138126
963.916	0.0138100
963.994	0.0139820
964.072	0.0137714
964.150	0.0138762
964.228	0.0139893
964.307	0.0138598
964.385	0.0138419
964.463	0.0138374
964.541	0.0138138
964.619	0.0139725
964.697	0.0138340
964.775	0.0139523
964.853	0.0139806
964.932	0.0140187
965.010	0.0139307
965.088	0.0139375
965.166	0.0139552
965.244	0.0139851
965.322	0.0140066
965.400	0.0140353
965.478	0.0138479
965.557	0.0141631
965.635	0.0140141
965.713	0.0140643
965.791	0.0140279
965.869	0.0140983
965.947	0.0141342
966.025	0.0142028
966.103	0.0140719
966.182	0.0141766
966.260	0.0141843
966.338	0.0140614
966.416	0.0141525
966.494	0.0141315
966.572	0.0141288
966.650	0.0141515
966.728	0.0141450
966.807	0.0141500
966.885	0.0140803
966.963	0.0140323
967.041	0.0140561
967.119	0.0140242
967.197	0.0140575
967.275	0.0140361
967.353	0.0140252
967.432	0.0138765
967.510	0.0141281
967.588	0.0140196
967.666	0.0140070
967.744	0.0138739
967.822	0.0140821
967.900	0.0140112
967.978	0.0141045
968.057	0.0140612
968.135	0.0140472
968.213	0.0140005
968.291	0.0140128
968.369	0.0141655
968.447	0.0143023
968.525	0.0141020
968.603	0.0141510
968.682	0.0141308
968.760	0.0141273
968.838	0.0141521
968.916	0.0141121
968.994	0.0140999
969.072	0.0140525
969.150	0.0142432
969.228	0.0141352
969.307	0.0140956
969.385	0.0140861
969.463	0.0140383
969.541	0.0141484
969.619	0.0140629
969.697	0.0139452
969.775	0.0139550
969.853	0.0139708
969.932	0.0139732
