05/14/2022	19:19:30	Ver.	4.1	UNKNOWN
Optical Delay	650.009681	Delta X		0.078125	Sweeps	1	Scan Rate	0/0
Coordinates	Axis 1	NaN	Axis 2	NaN	Axis 3	NaN	Axis 4	NaN	Axis 5	NaN	Axis 6	0.000000
TX Power	0.000000	RX Power	0.000000

650.010	0.0140793
650.088	0.0139246
650.166	0.0140973
650.244	0.0142464
650.322	0.0141183
650.400	0.0140097
650.478	0.0141095
650.557	0.0140562
650.635	0.0139698
650.713	0.0141318
650.791	0.0140995
650.869	0.0140508
650.947	0.0139323
651.025	0.0139996
651.103	0.0141383
651.182	0.0140878
651.260	0.0140009
651.338	0.0142014
651.416	0.0139687
651.494	0.0140587
651.572	0.0140389
651.650	0.0140185
651.728	0.0140218
651.807	0.0141254
651.885	0.0140716
651.963	0.0140529
652.041	0.0140336
652.119	0.0141017
652.197	0.0139777
652.275	0.0140405
652.353	0.0140298
652.432	0.0140328
652.510	0.0140688
652.588	0.0141060
652.666	0.0140616
652.744	0.0141196
652.822	0.0140363
652.900	0.0141137
652.978	0.0139210
653.057	0.0141346
653.135	0.0140989
653.213	0.0140443
653.291	0.0138625
653.369	0.0140331
653.447	0.0140733
653.525	0.0141219
653.603	0.0139305
653.682	0.0141316
653.760	0.0140587
653.838	0.0138766
653.916	0.0140633
653.994	0.0141916
654.072	0.0139703
654.150	0.0139348
654.228	0.0139817
654.307	0.0139785
654.385	0.0140448
654.463	0.0140726
654.541	0.0140429
654.619	0.0139394
654.697	0.0140999
654.775	0.0141026
654.853	0.0140324
654.932	0.0140815
655.010	0.0141817
655.088	0.0138979
655.166	0.0139244
655.244	0.0140299
655.322	0.0139941
655.400	0.0140863
655.478	0.0140593
655.557	0.0140785
655.635	0.0139466
655.713	0.0139021
655.791	0.0141232
655.869	0.0140556
655.947	0.0139050
656.025	0.0140191
656.103	0.0141142
656.182	0.0139246
656.260	0.0141086
656.338	0.0139353
656.416	0.0140333
656.494	0.0140823
656.572	0.0140668
656.650	0.0139513
656.728	0.0140195
656.807	0.0139899
656.885	0.0139696
656.963	0.0140318
657.041	0.0140079
657.119	0.0141470
657.197	0.0140311
657.275	0.0139256
657.353	0.0139067
657.432	0.0140082
657.510	0.0140202
657.588	0.0139596
657.666	0.0139944
657.744	0.0139926
657.822	0.0140606
657.900	0.0140154
657.978	0.0139124
658.057	0.0140144
658.135	0.0139442
658.213	0.0138969
658.291	0.0139645
658.369	0.0139268
658.447	0.0139794
658.525	0.0140602
658.603	0.0139775
658.682	0.0139223
658.760	0.0139703
658.838	0.0138296
658.916	0.0139346
658.994	0.0141000
659.072	0.0139812
659.150	0.0139544
659.228	0.0140028
659.307	0.0139008
659.385	0.0138319
659.463	0.0139141
659.541	0.0138817
659.619	0.0139217
659.697	0.0139630
659.775	0.0139339
659.853	0.0139610
659.932	0.0139754
660.010	0.0139706
660.088	0.0139874
660.166	0.0139185
660.244	0.0139959
660.322	0.0139097
660.400	0.0140528
660.478	0.0139953
660.557	0.0139265
660.635	0.0139491
660.713	0.0138814
660.791	0.0139810
660.869	0.0141323
660.947	0.0140460
661.025	0.0140417
661.103	0.0139011
661.182	0.0139931
661.260	0.0141524
661.338	0.0138867
661.416	0.0140114
661.494	0.0140860
661.572	0.0139919
661.650	0.0139998
661.728	0.0139500
661.807	0.0140223
661.885	0.0141302
661.963	0.0138686
662.041	0.0140861
662.119	0.0139863
662.197	0.0140050
662.275	0.0140706
662.353	0.0137936
662.432	0.0139879
662.510	0.0140185
662.588	0.0139745
662.666	0.0140007
662.744	0.0139759
662.822	0.0140997
662.900	0.0140365
662.978	0.0138988
663.057	0.0139882
663.135	0.0140134
663.213	0.0140496
663.291	0.0139670
663.369	0.0140613
663.447	0.0140837
663.525	0.0139541
663.603	0.0141042
663.682	0.0141054
663.760	0.0139944
663.838	0.0140208
663.916	0.0141117
663.994	0.0141541
664.072	0.0139810
664.150	0.0140475
664.228	0.0140146
664.307	0.0140051
664.385	0.0140292
664.463	0.0141496
664.541	0.0142116
664.619	0.0140385
664.697	0.0139352
664.775	0.0140411
664.853	0.0140054
664.932	0.0140802
665.010	0.0141454
665.088	0.0142070
665.166	0.0140825
665.244	0.0140579
665.322	0.0140371
665.400	0.0139976
665.478	0.0141257
665.557	0.0141024
665.635	0.0142027
665.713	0.0142039
665.791	0.0140956
665.869	0.0140327
665.947	0.0140713
666.025	0.0140920
666.103	0.0140716
666.182	0.0141812
666.260	0.0143442
666.338	0.0141570
666.416	0.0140139
666.494	0.0141496
666.572	0.0141888
666.650	0.0142850
666.728	0.0141331
666.807	0.0140794
666.885	0.0140871
666.963	0.0142765
667.041	0.0141145
667.119	0.0141064
667.197	0.0141087
667.275	0.0141373
667.353	0.0139280
667.432	0.0140068
667.510	0.0140845
667.588	0.0141064
667.666	0.0139801
667.744	0.0140506
667.822	0.0140710
667.900	0.0141752
667.978	0.0141286
668.057	0.0140279
668.135	0.0140334
668.213	0.0139133
668.291	0.0141956
668.369	0.0140926
668.447	0.0141266
668.525	0.0141480
668.603	0.0142004
668.682	0.0141045
668.760	0.0141116
668.838	0.0142995
668.916	0.0141889
668.994	0.0141222
669.072	0.0143361
669.150	0.0142333
669.228	0.0141494
669.307	0.0141708
669.385	0.0140646
669.463	0.0140780
669.541	0.0142352
669.619	0.0142328
669.697	0.0141933
669.775	0.0140842
669.853	0.0140697
669.932	0.0140592
670.010	0.0140912
670.088	0.0140661
670.166	0.0140778
670.244	0.0141803
670.322	0.0141625
670.400	0.0141553
670.478	0.0143192
670.557	0.0140420
670.635	0.0141343
670.713	0.0140518
670.791	0.0141328
670.869	0.0142324
670.947	0.0142395
671.025	0.0140934
671.103	0.0141561
671.182	0.0141119
671.260	0.0141027
671.338	0.0141514
671.416	0.0141375
671.494	0.0141533
671.572	0.0142166
671.650	0.0141433
671.728	0.0141376
671.807	0.0141917
671.885	0.0140754
671.963	0.0142091
672.041	0.0142448
672.119	0.0140991
672.197	0.0141117
672.275	0.0140741
672.353	0.0141074
672.432	0.0141551
672.510	0.0141132
672.588	0.0141357
672.666	0.0142255
672.744	0.0140511
672.822	0.0141213
672.900	0.0141691
672.978	0.0141624
673.057	0.0140855
673.135	0.0142035
673.213	0.0140560
673.291	0.0142194
673.369	0.0141333
673.447	0.0140755
673.525	0.0141791
673.603	0.0140908
673.682	0.0141733
673.760	0.0142130
673.838	0.0142185
673.916	0.0141332
673.994	0.0140511
674.072	0.0140793
674.150	0.0140694
674.228	0.0141061
674.307	0.0141102
674.385	0.0139710
674.463	0.0142300
674.541	0.0141718
674.619	0.0140416
674.697	0.0140174
674.775	0.0140392
674.853	0.0140745
674.932	0.0140425
675.010	0.0139677
675.088	0.0140586
675.166	0.0141026
675.244	0.0140018
675.322	0.0141817
675.400	0.0139545
675.478	0.0139298
675.557	0.0139999
675.635	0.0140614
675.713	0.0139079
675.791	0.0138711
675.869	0.0140615
675.947	0.0141013
676.025	0.0140672
676.103	0.0140211
676.182	0.0139342
676.260	0.0139384
676.338	0.0138859
676.416	0.0139297
676.494	0.0140481
676.572	0.0140420
676.650	0.0139359
676.728	0.0140676
676.807	0.0140376
676.885	0.0138726
676.963	0.0140018
677.041	0.0140937
677.119	0.0138306
677.197	0.0139420
677.275	0.0139879
677.353	0.0139526
677.432	0.0138589
677.510	0.0138615
677.588	0.0139541
677.666	0.0138821
677.744	0.0139156
677.822	0.0140039
677.900	0.0140430
677.978	0.0142407
678.057	0.0140878
678.135	0.0142874
678.213	0.0141943
678.291	0.0141943
678.369	0.0143604
678.447	0.0141753
678.525	0.0139146
678.603	0.0138261
678.682	0.0138803
678.760	0.0135548
678.838	0.0135155
678.916	0.0134338
678.994	0.0134945
679.072	0.0135544
679.150	0.0137064
679.228	0.0136534
679.307	0.0136926
679.385	0.0138922
679.463	0.0138989
679.541	0.0140948
679.619	0.0140742
679.697	0.0141076
679.775	0.0141792
679.853	0.0141365
679.932	0.0143124
680.010	0.0146494
680.088	0.0144432
680.166	0.0143987
680.244	0.0144221
680.322	0.0145012
680.400	0.0143876
680.478	0.0143439
680.557	0.0141520
680.635	0.0140508
680.713	0.0140850
680.791	0.0137046
680.869	0.0133831
680.947	0.0130839
681.025	0.0129676
681.103	0.0125993
681.182	0.0125118
681.260	0.0125958
681.338	0.0124715
681.416	0.0125070
681.494	0.0127924
681.572	0.0132250
681.650	0.0134327
681.728	0.0138473
681.807	0.0142249
681.885	0.0147583
681.963	0.0151298
682.041	0.0151855
682.119	0.0155484
682.197	0.0154947
682.275	0.0157489
682.353	0.0157679
682.432	0.0155253
682.510	0.0152401
682.588	0.0150474
682.666	0.0147936
682.744	0.0146239
682.822	0.0143687
682.900	0.0141643
682.978	0.0138925
683.057	0.0136880
683.135	0.0133598
683.213	0.0131320
683.291	0.0129859
683.369	0.0128478
683.447	0.0127251
683.525	0.0127670
683.603	0.0126144
683.682	0.0125716
683.760	0.0126674
683.838	0.0127261
683.916	0.0128557
683.994	0.0128870
684.072	0.0128748
684.150	0.0129987
684.228	0.0130376
684.307	0.0132996
684.385	0.0134147
684.463	0.0136601
684.541	0.0138448
684.619	0.0139310
684.697	0.0143815
684.775	0.0148468
684.853	0.0152887
684.932	0.0154043
685.010	0.0157446
685.088	0.0160732
685.166	0.0161483
685.244	0.0160851
685.322	0.0161174
685.400	0.0158672
685.478	0.0154190
685.557	0.0152892
685.635	0.0147823
685.713	0.0143896
685.791	0.0141622
685.869	0.0137566
685.947	0.0135313
686.025	0.0134312
686.103	0.0135638
686.182	0.0134077
686.260	0.0135876
686.338	0.0136636
686.416	0.0137040
686.494	0.0136115
686.572	0.0137247
686.650	0.0134806
686.728	0.0133750
686.807	0.0131224
686.885	0.0128416
686.963	0.0125986
687.041	0.0122866
687.119	0.0120706
687.197	0.0119415
687.275	0.0119339
687.353	0.0119619
687.432	0.0122829
687.510	0.0123209
687.588	0.0126276
687.666	0.0129947
687.744	0.0134222
687.822	0.0138871
687.900	0.0142130
687.978	0.0148081
688.057	0.0152798
688.135	0.0153840
688.213	0.0157295
688.291	0.0160065
688.369	0.0160918
688.447	0.0163766
688.525	0.0164175
688.603	0.0163479
688.682	0.0163335
688.760	0.0164464
688.838	0.0162753
688.916	0.0159380
688.994	0.0158158
689.072	0.0156269
689.150	0.0154040
689.228	0.0150074
689.307	0.0147014
689.385	0.0140961
689.463	0.0138277
689.541	0.0134236
689.619	0.0131252
689.697	0.0128438
689.775	0.0123560
689.853	0.0123716
689.932	0.0120403
690.010	0.0119080
690.088	0.0121223
690.166	0.0120477
690.244	0.0122449
690.322	0.0124026
690.400	0.0127225
690.478	0.0130192
690.557	0.0132713
690.635	0.0135593
690.713	0.0137741
690.791	0.0140751
690.869	0.0144140
690.947	0.0146947
691.025	0.0147819
691.103	0.0148938
691.182	0.0148763
691.260	0.0149721
691.338	0.0149943
691.416	0.0150018
691.494	0.0149118
691.572	0.0146753
691.650	0.0145663
691.728	0.0143201
691.807	0.0139761
691.885	0.0137595
691.963	0.0134164
692.041	0.0132828
692.119	0.0128677
692.197	0.0128191
692.275	0.0127538
692.353	0.0127245
692.432	0.0128449
692.510	0.0129928
692.588	0.0132018
692.666	0.0134016
692.744	0.0136787
692.822	0.0140776
692.900	0.0142869
692.978	0.0146198
693.057	0.0149034
693.135	0.0150768
693.213	0.0154205
693.291	0.0157085
693.369	0.0156854
693.447	0.0159045
693.525	0.0159747
693.603	0.0159965
693.682	0.0160802
693.760	0.0160969
693.838	0.0160057
693.916	0.0159868
693.994	0.0159557
694.072	0.0156654
694.150	0.0154873
694.228	0.0151552
694.307	0.0150651
694.385	0.0146985
694.463	0.0143755
694.541	0.0142103
694.619	0.0140588
694.697	0.0138509
694.775	0.0135917
694.853	0.0134665
694.932	0.0132840
695.010	0.0131260
695.088	0.0129973
695.166	0.0127513
695.244	0.0125803
695.322	0.0123329
695.400	0.0119808
695.478	0.0117022
695.557	0.0115231
695.635	0.0113007
695.713	0.0107597
695.791	0.0107655
695.869	0.0106615
695.947	0.0105322
696.025	0.0105446
696.103	0.0106467
696.182	0.0110154
696.260	0.0112132
696.338	0.0114859
696.416	0.0119361
696.494	0.0122301
696.572	0.0127059
696.650	0.0131985
696.728	0.0137029
696.807	0.0143272
696.885	0.0148248
696.963	0.0153316
697.041	0.0160049
697.119	0.0166225
697.197	0.0170001
697.275	0.0175265
697.353	0.0178965
697.432	0.0182970
697.510	0.0185569
697.588	0.0186800
697.666	0.0188621
697.744	0.0188605
697.822	0.0187318
697.900	0.0187499
697.978	0.0182796
698.057	0.0180128
698.135	0.0177216
698.213	0.0172979
698.291	0.0169137
698.369	0.0162859
698.447	0.0159685
698.525	0.0157317
698.603	0.0152842
698.682	0.0148074
698.760	0.0145274
698.838	0.0141360
698.916	0.0138866
698.994	0.0136073
699.072	0.0131492
699.150	0.0129032
699.228	0.0124764
699.307	0.0122144
699.385	0.0120373
699.463	0.0117116
699.541	0.0113456
699.619	0.0110851
699.697	0.0106739
699.775	0.0103388
699.853	0.00999916
699.932	0.00984428
700.010	0.00940697
700.088	0.00903526
700.166	0.00878937
700.244	0.00854034
700.322	0.00838562
700.400	0.00825996
700.478	0.00817581
700.557	0.00814255
700.635	0.00813423
700.713	0.00857666
700.791	0.00900436
700.869	0.00952049
700.947	0.0102713
701.025	0.0109346
701.103	0.0119414
701.182	0.0130286
701.260	0.0139779
701.338	0.0151294
701.416	0.0161559
701.494	0.0173307
701.572	0.0183008
701.650	0.0191445
701.728	0.0198521
701.807	0.0204345
701.885	0.0209919
701.963	0.0214812
702.041	0.0217765
702.119	0.0218890
702.197	0.0219258
702.275	0.0219994
702.353	0.0219314
702.432	0.0216545
702.510	0.0214597
702.588	0.0210812
702.666	0.0205826
702.744	0.0201669
702.822	0.0194688
702.900	0.0190569
702.978	0.0181995
703.057	0.0173418
703.135	0.0163448
703.213	0.0154179
703.291	0.0143632
703.369	0.0133016
703.447	0.0123570
703.525	0.0111967
703.603	0.0103814
703.682	0.00957504
703.760	0.00869019
703.838	0.00803696
703.916	0.00750496
703.994	0.00690964
704.072	0.00679138
704.150	0.00646637
704.228	0.00620743
704.307	0.00624641
704.385	0.00657013
704.463	0.00684937
704.541	0.00740677
704.619	0.00778893
704.697	0.00820801
704.775	0.00892761
704.853	0.00956154
704.932	0.0101571
705.010	0.0109005
705.088	0.0116919
705.166	0.0122312
705.244	0.0126835
705.322	0.0134118
705.400	0.0140527
705.478	0.0143485
705.557	0.0148442
705.635	0.0151285
705.713	0.0152856
705.791	0.0158746
705.869	0.0160785
705.947	0.0163087
706.025	0.0165647
706.103	0.0166988
706.182	0.0168748
706.260	0.0170409
706.338	0.0171281
706.416	0.0171495
706.494	0.0171821
706.572	0.0172612
706.650	0.0172293
706.728	0.0171236
706.807	0.0169806
706.885	0.0170716
706.963	0.0169955
707.041	0.0169086
707.119	0.0168758
707.197	0.0169172
707.275	0.0167661
707.353	0.0168501
707.432	0.0166875
707.510	0.0168230
707.588	0.0168595
707.666	0.0167650
707.744	0.0168335
707.822	0.0168993
707.900	0.0169447
707.978	0.0168381
708.057	0.0169547
708.135	0.0169098
708.213	0.0166314
708.291	0.0162602
708.369	0.0158157
708.447	0.0149290
708.525	0.0145362
708.603	0.0137151
708.682	0.0127660
708.760	0.0119592
708.838	0.0111977
708.916	0.0105596
708.994	0.00982880
709.072	0.00930077
709.150	0.00881836
709.228	0.00874138
709.307	0.00863243
709.385	0.00857391
709.463	0.00878883
709.541	0.00908356
709.619	0.00937645
709.697	0.00983910
709.775	0.0105577
709.853	0.0109534
709.932	0.0115598
710.010	0.0119133
710.088	0.0125493
710.166	0.0128386
710.244	0.0134474
710.322	0.0136878
710.400	0.0139449
710.478	0.0140079
710.557	0.0139871
710.635	0.0139859
710.713	0.0137109
710.791	0.0134672
710.869	0.0133366
710.947	0.0130486
711.025	0.0126096
711.103	0.0124598
711.182	0.0123826
711.260	0.0123361
711.338	0.0123521
711.416	0.0123289
711.494	0.0124918
711.572	0.0126981
711.650	0.0130760
711.728	0.0134214
711.807	0.0139501
711.885	0.0145493
711.963	0.0150278
712.041	0.0158144
712.119	0.0162591
712.197	0.0167058
712.275	0.0173666
712.353	0.0178634
712.432	0.0185362
712.510	0.0188775
712.588	0.0192881
712.666	0.0196614
712.744	0.0199596
712.822	0.0202820
712.900	0.0202325
712.978	0.0204387
713.057	0.0204062
713.135	0.0203493
713.213	0.0201617
713.291	0.0198230
713.369	0.0195223
713.447	0.0192535
713.525	0.0187050
713.603	0.0179700
713.682	0.0172205
713.760	0.0164012
713.838	0.0155429
713.916	0.0145420
713.994	0.0135129
714.072	0.0124299
714.150	0.0115396
714.228	0.0105030
714.307	0.00975754
714.385	0.00894012
714.463	0.00827103
714.541	0.00783257
714.619	0.00747704
714.697	0.00721367
714.775	0.00706650
714.853	0.00726891
714.932	0.00735245
715.010	0.00744110
715.088	0.00777176
715.166	0.00819893
715.244	0.00863533
715.322	0.00899918
715.400	0.00945122
715.478	0.0100421
715.557	0.0106592
715.635	0.0112163
715.713	0.0114881
715.791	0.0121267
715.869	0.0125484
715.947	0.0131982
716.025	0.0135876
716.103	0.0139011
716.182	0.0142693
716.260	0.0144133
716.338	0.0146441
716.416	0.0148460
716.494	0.0148571
716.572	0.0149762
716.650	0.0149561
716.728	0.0149992
716.807	0.0150374
716.885	0.0151661
716.963	0.0150758
717.041	0.0152790
717.119	0.0155564
717.197	0.0157204
717.275	0.0161649
717.353	0.0165466
717.432	0.0166724
717.510	0.0169753
717.588	0.0173419
717.666	0.0177434
717.744	0.0178802
717.822	0.0180650
717.900	0.0182877
717.978	0.0184721
718.057	0.0186107
718.135	0.0185156
718.213	0.0185434
718.291	0.0184777
718.369	0.0184457
718.447	0.0183638
718.525	0.0182938
718.603	0.0182779
718.682	0.0180788
718.760	0.0179573
718.838	0.0177542
718.916	0.0172147
718.994	0.0168693
719.072	0.0161894
719.150	0.0155846
719.228	0.0148328
719.307	0.0142056
719.385	0.0135854
719.463	0.0128873
719.541	0.0122932
719.619	0.0117174
719.697	0.0109724
719.775	0.0106129
719.853	0.0103426
719.932	0.00983025
720.010	0.00976715
720.088	0.00979187
720.166	0.00965179
720.244	0.00983566
720.322	0.00990036
720.400	0.0101745
720.478	0.0102058
720.557	0.0102232
720.635	0.0105800
720.713	0.0107191
720.791	0.0108350
720.869	0.0109974
720.947	0.0110278
721.025	0.0111140
721.103	0.0112566
721.182	0.0112917
721.260	0.0113114
721.338	0.0113281
721.416	0.0117351
721.494	0.0118041
721.572	0.0118651
721.650	0.0120692
721.728	0.0122440
721.807	0.0124529
721.885	0.0126898
721.963	0.0129185
722.041	0.0132497
722.119	0.0135847
722.197	0.0140396
722.275	0.0143573
722.353	0.0147419
722.432	0.0149985
722.510	0.0153048
722.588	0.0156887
722.666	0.0159208
722.744	0.0161775
722.822	0.0162688
722.900	0.0164587
722.978	0.0167234
723.057	0.0168451
723.135	0.0169497
723.213	0.0172470
723.291	0.0173382
723.369	0.0175690
723.447	0.0176746
723.525	0.0178153
723.603	0.0180726
723.682	0.0181498
723.760	0.0181693
723.838	0.0182099
723.916	0.0184809
723.994	0.0183389
724.072	0.0182735
724.150	0.0181232
724.228	0.0179321
724.307	0.0176097
724.385	0.0173095
724.463	0.0167714
724.541	0.0163334
724.619	0.0158291
724.697	0.0153465
724.775	0.0149304
724.853	0.0142834
724.932	0.0137616
725.010	0.0133129
725.088	0.0129427
725.166	0.0124877
725.244	0.0120703
725.322	0.0119344
725.400	0.0117871
725.478	0.0116386
725.557	0.0113523
725.635	0.0114459
725.713	0.0113490
725.791	0.0111714
725.869	0.0111817
725.947	0.0111095
726.025	0.0107949
726.103	0.0107257
726.182	0.0106595
726.260	0.0106004
726.338	0.0103748
726.416	0.0103259
726.494	0.0103362
726.572	0.0103333
726.650	0.0103587
726.728	0.0104248
726.807	0.0105669
726.885	0.0107256
726.963	0.0107969
727.041	0.0111189
727.119	0.0112776
727.197	0.0116035
727.275	0.0120130
727.353	0.0122784
727.432	0.0123661
727.510	0.0127382
727.588	0.0130846
727.666	0.0135255
727.744	0.0138801
727.822	0.0142506
727.900	0.0144815
727.978	0.0147426
728.057	0.0150005
728.135	0.0153956
728.213	0.0157195
728.291	0.0159069
728.369	0.0161916
728.447	0.0163407
728.525	0.0165855
728.603	0.0166443
728.682	0.0169318
728.760	0.0170732
728.838	0.0171069
728.916	0.0173746
728.994	0.0174122
729.072	0.0173116
729.150	0.0173553
729.228	0.0174831
729.307	0.0172982
729.385	0.0171794
729.463	0.0170456
729.541	0.0167828
729.619	0.0166425
729.697	0.0164150
729.775	0.0162180
729.853	0.0159362
729.932	0.0156975
730.010	0.0154110
730.088	0.0151535
730.166	0.0149324
730.244	0.0145742
730.322	0.0143790
730.400	0.0141609
730.478	0.0139248
730.557	0.0138042
730.635	0.0137380
730.713	0.0136223
730.791	0.0135210
730.869	0.0133819
730.947	0.0132505
731.025	0.0132152
731.103	0.0130988
731.182	0.0131123
731.260	0.0128786
731.338	0.0126946
731.416	0.0126989
731.494	0.0124570
731.572	0.0123347
731.650	0.0122772
731.728	0.0121787
731.807	0.0120624
731.885	0.0119798
731.963	0.0119062
732.041	0.0118406
732.119	0.0120238
732.197	0.0120207
732.275	0.0119817
732.353	0.0119906
732.432	0.0121805
732.510	0.0122300
732.588	0.0121391
732.666	0.0120915
732.744	0.0121928
732.822	0.0123833
732.900	0.0122310
732.978	0.0121394
733.057	0.0122318
733.135	0.0121340
733.213	0.0122434
733.291	0.0123000
733.369	0.0125745
733.447	0.0126700
733.525	0.0129872
733.603	0.0132735
733.682	0.0134932
733.760	0.0137784
733.838	0.0140237
733.916	0.0144633
733.994	0.0148468
734.072	0.0152293
734.150	0.0156348
734.228	0.0159873
734.307	0.0161787
734.385	0.0164900
734.463	0.0166479
734.541	0.0167241
734.619	0.0167477
734.697	0.0167223
734.775	0.0168090
734.853	0.0166929
734.932	0.0164050
735.010	0.0160904
735.088	0.0158800
735.166	0.0156229
735.244	0.0152774
735.322	0.0148177
735.400	0.0146371
735.478	0.0143967
735.557	0.0141492
735.635	0.0140525
735.713	0.0138592
735.791	0.0136691
735.869	0.0135601
735.947	0.0135857
736.025	0.0136474
736.103	0.0136763
736.182	0.0137335
736.260	0.0139357
736.338	0.0139393
736.416	0.0140283
736.494	0.0143197
736.572	0.0143898
736.650	0.0144196
736.728	0.0144910
736.807	0.0146320
736.885	0.0145699
736.963	0.0145484
737.041	0.0146013
737.119	0.0146278
737.197	0.0145359
737.275	0.0145074
737.353	0.0144160
737.432	0.0144138
737.510	0.0144244
737.588	0.0142838
737.666	0.0142249
737.744	0.0141880
737.822	0.0140411
737.900	0.0140894
737.978	0.0138465
738.057	0.0136900
738.135	0.0134377
738.213	0.0134615
738.291	0.0134705
738.369	0.0132098
738.447	0.0131171
738.525	0.0128374
738.603	0.0126920
738.682	0.0127610
738.760	0.0125730
738.838	0.0124356
738.916	0.0124421
738.994	0.0124202
739.072	0.0123916
739.150	0.0124997
739.228	0.0124875
739.307	0.0126201
739.385	0.0126472
739.463	0.0127320
739.541	0.0128095
739.619	0.0129420
739.697	0.0130310
739.775	0.0132131
739.853	0.0133490
739.932	0.0133548
740.010	0.0135360
740.088	0.0137989
740.166	0.0137296
740.244	0.0138641
740.322	0.0139800
740.400	0.0140168
740.478	0.0140875
740.557	0.0141386
740.635	0.0144092
740.713	0.0145098
740.791	0.0143905
740.869	0.0145293
740.947	0.0146585
741.025	0.0146239
741.103	0.0146910
741.182	0.0147808
741.260	0.0149245
741.338	0.0149603
741.416	0.0150182
741.494	0.0150747
741.572	0.0150141
741.650	0.0151823
741.728	0.0152087
741.807	0.0152427
741.885	0.0152966
741.963	0.0153934
742.041	0.0154061
742.119	0.0153502
742.197	0.0153976
742.275	0.0156661
742.353	0.0155402
742.432	0.0154659
742.510	0.0154823
742.588	0.0156187
742.666	0.0153922
742.744	0.0154048
742.822	0.0154440
742.900	0.0154382
742.978	0.0153214
743.057	0.0151781
743.135	0.0150213
743.213	0.0150612
743.291	0.0148767
743.369	0.0145672
743.447	0.0143295
743.525	0.0141379
743.603	0.0140788
743.682	0.0137807
743.760	0.0135577
743.838	0.0135298
743.916	0.0131699
743.994	0.0131287
744.072	0.0130235
744.150	0.0128595
744.228	0.0127281
744.307	0.0128168
744.385	0.0128778
744.463	0.0131057
744.541	0.0131176
744.619	0.0132510
744.697	0.0132527
744.775	0.0133437
744.853	0.0135069
744.932	0.0135719
745.010	0.0136433
745.088	0.0135361
745.166	0.0134353
745.244	0.0133884
745.322	0.0133959
745.400	0.0133043
745.478	0.0132124
745.557	0.0130660
745.635	0.0131467
745.713	0.0128941
745.791	0.0129185
745.869	0.0128658
745.947	0.0128509
746.025	0.0127609
746.103	0.0127913
746.182	0.0126260
746.260	0.0127097
746.338	0.0128420
746.416	0.0130714
746.494	0.0132006
746.572	0.0132189
746.650	0.0134361
746.728	0.0137518
746.807	0.0137867
746.885	0.0141053
746.963	0.0141516
747.041	0.0144421
747.119	0.0144557
747.197	0.0145013
747.275	0.0147840
747.353	0.0148276
747.432	0.0149550
747.510	0.0149918
747.588	0.0152879
747.666	0.0154237
747.744	0.0153725
747.822	0.0153435
747.900	0.0155751
747.978	0.0154321
748.057	0.0154284
748.135	0.0154188
748.213	0.0154211
748.291	0.0153815
748.369	0.0153637
748.447	0.0153622
748.525	0.0153018
748.603	0.0151895
748.682	0.0152490
748.760	0.0151643
748.838	0.0151967
748.916	0.0149358
748.994	0.0148499
749.072	0.0147443
749.150	0.0146083
749.228	0.0147357
749.307	0.0144291
749.385	0.0143107
749.463	0.0144370
749.541	0.0144035
749.619	0.0143358
749.697	0.0142596
749.775	0.0143394
749.853	0.0142690
749.932	0.0143847
750.010	0.0143979
750.088	0.0143793
750.166	0.0142873
750.244	0.0142886
750.322	0.0142399
750.400	0.0141487
750.478	0.0140307
750.557	0.0138631
750.635	0.0136594
750.713	0.0134800
750.791	0.0134740
750.869	0.0132960
750.947	0.0130497
751.025	0.0128909
751.103	0.0128320
751.182	0.0128963
751.260	0.0128421
751.338	0.0128442
751.416	0.0127861
751.494	0.0127470
751.572	0.0128210
751.650	0.0128223
751.728	0.0130328
751.807	0.0131046
751.885	0.0131533
751.963	0.0130319
752.041	0.0132784
752.119	0.0134670
752.197	0.0135404
752.275	0.0135439
752.353	0.0137172
752.432	0.0137048
752.510	0.0136977
752.588	0.0137852
752.666	0.0140244
752.744	0.0138770
752.822	0.0138715
752.900	0.0137668
752.978	0.0138423
753.057	0.0138702
753.135	0.0139179
753.213	0.0139278
753.291	0.0138924
753.369	0.0139550
753.447	0.0140190
753.525	0.0140678
753.603	0.0140714
753.682	0.0142100
753.760	0.0142032
753.838	0.0143857
753.916	0.0144450
753.994	0.0144675
754.072	0.0144230
754.150	0.0146421
754.228	0.0146256
754.307	0.0147875
754.385	0.0146707
754.463	0.0145231
754.541	0.0145152
754.619	0.0145819
754.697	0.0145654
754.775	0.0145347
754.853	0.0144534
754.932	0.0146166
755.010	0.0144144
755.088	0.0144908
755.166	0.0146201
755.244	0.0145240
755.322	0.0146271
755.400	0.0148283
755.478	0.0147972
755.557	0.0146654
755.635	0.0147446
755.713	0.0148556
755.791	0.0147755
755.869	0.0147115
755.947	0.0146603
756.025	0.0147250
756.103	0.0146921
756.182	0.0145859
756.260	0.0145911
756.338	0.0143558
756.416	0.0143378
756.494	0.0142651
756.572	0.0141734
756.650	0.0141420
756.728	0.0141115
756.807	0.0138737
756.885	0.0138384
756.963	0.0136785
757.041	0.0138031
757.119	0.0136642
757.197	0.0134911
757.275	0.0134469
757.353	0.0134812
757.432	0.0132795
757.510	0.0133846
757.588	0.0134485
757.666	0.0134009
757.744	0.0133380
757.822	0.0133693
757.900	0.0135590
757.978	0.0134296
758.057	0.0135347
758.135	0.0136055
758.213	0.0136040
758.291	0.0134309
758.369	0.0135440
758.447	0.0135586
758.525	0.0135936
758.603	0.0135883
758.682	0.0135501
758.760	0.0135397
758.838	0.0134338
758.916	0.0134339
758.994	0.0133593
759.072	0.0135803
759.150	0.0135101
759.228	0.0134251
759.307	0.0133546
759.385	0.0135342
759.463	0.0134692
759.541	0.0135043
759.619	0.0136468
759.697	0.0135944
759.775	0.0136282
759.853	0.0137160
759.932	0.0135570
760.010	0.0137054
760.088	0.0136170
760.166	0.0138324
760.244	0.0138815
760.322	0.0138528
760.400	0.0138187
760.478	0.0141237
760.557	0.0143301
760.635	0.0143046
760.713	0.0142960
760.791	0.0144157
760.869	0.0145973
760.947	0.0146262
761.025	0.0145839
761.103	0.0147433
761.182	0.0148122
761.260	0.0147714
761.338	0.0149976
761.416	0.0147867
761.494	0.0150131
761.572	0.0149578
761.650	0.0150245
761.728	0.0150865
761.807	0.0150629
761.885	0.0149519
761.963	0.0149092
762.041	0.0148653
762.119	0.0149068
762.197	0.0147208
762.275	0.0147367
762.353	0.0146764
762.432	0.0145649
762.510	0.0145956
762.588	0.0143874
762.666	0.0144432
762.744	0.0143983
762.822	0.0145422
762.900	0.0144079
762.978	0.0143427
763.057	0.0143863
763.135	0.0143788
763.213	0.0142681
763.291	0.0142150
763.369	0.0142467
763.447	0.0142601
763.525	0.0140338
763.603	0.0139366
763.682	0.0140260
763.760	0.0140378
763.838	0.0138914
763.916	0.0137306
763.994	0.0135425
764.072	0.0135038
764.150	0.0135298
764.228	0.0133833
764.307	0.0133389
764.385	0.0133309
764.463	0.0132713
764.541	0.0133311
764.619	0.0134037
764.697	0.0133426
764.775	0.0131812
764.853	0.0133964
764.932	0.0135957
765.010	0.0134941
765.088	0.0135061
765.166	0.0134843
765.244	0.0134437
765.322	0.0135297
765.400	0.0135444
765.478	0.0134945
765.557	0.0136021
765.635	0.0137574
765.713	0.0136497
765.791	0.0135838
765.869	0.0137115
765.947	0.0137186
766.025	0.0139285
766.103	0.0139754
766.182	0.0138500
766.260	0.0139988
766.338	0.0140817
766.416	0.0138570
766.494	0.0140746
766.572	0.0140549
766.650	0.0141992
766.728	0.0140683
766.807	0.0141892
766.885	0.0141607
766.963	0.0142950
767.041	0.0141340
767.119	0.0141204
767.197	0.0143002
767.275	0.0142233
767.353	0.0142833
767.432	0.0142594
767.510	0.0143786
767.588	0.0145650
767.666	0.0145796
767.744	0.0145378
767.822	0.0146876
767.900	0.0145676
767.978	0.0147186
768.057	0.0147759
768.135	0.0147009
768.213	0.0146202
768.291	0.0146752
768.369	0.0147232
768.447	0.0148374
768.525	0.0147517
768.603	0.0148848
768.682	0.0147307
768.760	0.0147010
768.838	0.0145325
768.916	0.0145098
768.994	0.0145644
769.072	0.0144889
769.150	0.0144260
769.228	0.0144946
769.307	0.0142793
769.385	0.0142414
769.463	0.0141670
769.541	0.0142563
769.619	0.0143462
769.697	0.0141185
769.775	0.0141956
769.853	0.0142822
769.932	0.0142379
770.010	0.0141215
770.088	0.0141385
770.166	0.0141658
770.244	0.0142224
770.322	0.0141251
770.400	0.0139621
770.478	0.0139516
770.557	0.0137508
770.635	0.0139855
770.713	0.0137241
770.791	0.0137261
770.869	0.0136060
770.947	0.0134603
771.025	0.0136561
771.103	0.0136438
771.182	0.0134320
771.260	0.0135181
771.338	0.0135307
771.416	0.0135317
771.494	0.0135945
771.572	0.0135695
771.650	0.0137423
771.728	0.0136951
771.807	0.0136513
771.885	0.0135482
771.963	0.0136671
772.041	0.0137643
772.119	0.0136916
772.197	0.0137862
772.275	0.0137468
772.353	0.0138534
772.432	0.0137952
772.510	0.0139382
772.588	0.0138758
772.666	0.0138409
772.744	0.0139063
772.822	0.0138849
772.900	0.0140733
772.978	0.0141217
773.057	0.0139257
773.135	0.0141610
773.213	0.0141959
773.291	0.0141383
773.369	0.0141809
773.447	0.0143497
773.525	0.0144312
773.603	0.0144126
773.682	0.0143540
773.760	0.0143655
773.838	0.0143900
773.916	0.0143333
773.994	0.0143800
774.072	0.0142860
774.150	0.0143262
774.228	0.0144186
774.307	0.0142972
774.385	0.0142400
774.463	0.0141795
774.541	0.0141119
774.619	0.0141409
774.697	0.0142503
774.775	0.0140821
774.853	0.0140340
774.932	0.0140948
775.010	0.0141620
775.088	0.0141641
775.166	0.0142194
775.244	0.0140755
775.322	0.0141389
775.400	0.0143414
775.478	0.0144051
775.557	0.0143983
775.635	0.0143842
775.713	0.0143887
775.791	0.0143401
775.869	0.0144131
775.947	0.0143539
776.025	0.0143741
776.103	0.0143047
776.182	0.0143324
776.260	0.0143641
776.338	0.0144260
776.416	0.0142200
776.494	0.0143112
776.572	0.0143187
776.650	0.0142799
776.728	0.0142411
776.807	0.0142612
776.885	0.0141278
776.963	0.0139972
777.041	0.0139420
777.119	0.0139771
777.197	0.0139863
777.275	0.0138185
777.353	0.0139135
777.432	0.0139236
777.510	0.0136678
777.588	0.0136834
777.666	0.0136251
777.744	0.0136015
777.822	0.0136318
777.900	0.0136452
777.978	0.0135522
778.057	0.0136687
778.135	0.0136546
778.213	0.0137549
778.291	0.0136961
778.369	0.0136664
778.447	0.0137849
778.525	0.0138772
778.603	0.0138898
778.682	0.0138523
778.760	0.0138005
778.838	0.0139177
778.916	0.0138961
778.994	0.0139391
779.072	0.0139419
779.150	0.0139219
779.228	0.0139648
779.307	0.0138223
779.385	0.0137479
779.463	0.0137157
779.541	0.0138630
779.619	0.0137254
779.697	0.0137138
779.775	0.0136938
779.853	0.0136393
779.932	0.0136230
780.010	0.0136481
780.088	0.0137259
780.166	0.0137740
780.244	0.0137147
780.322	0.0137551
780.400	0.0138171
780.478	0.0139729
780.557	0.0139883
780.635	0.0140918
780.713	0.0141139
780.791	0.0141741
780.869	0.0144772
780.947	0.0144464
781.025	0.0145327
781.103	0.0144788
781.182	0.0146087
781.260	0.0146365
781.338	0.0146255
781.416	0.0146887
781.494	0.0145617
781.572	0.0146980
781.650	0.0147198
781.728	0.0146605
781.807	0.0146400
781.885	0.0147693
781.963	0.0147546
782.041	0.0146712
782.119	0.0145365
782.197	0.0144434
782.275	0.0145938
782.353	0.0145830
782.432	0.0142716
782.510	0.0143120
782.588	0.0143748
782.666	0.0140836
782.744	0.0140956
782.822	0.0139803
782.900	0.0139555
782.978	0.0138755
783.057	0.0135632
783.135	0.0136749
783.213	0.0134314
783.291	0.0135329
783.369	0.0134084
783.447	0.0134843
783.525	0.0134954
783.603	0.0133968
783.682	0.0133138
783.760	0.0134019
783.838	0.0135447
783.916	0.0134119
783.994	0.0136240
784.072	0.0136819
784.150	0.0135677
784.228	0.0137014
784.307	0.0138573
784.385	0.0139583
784.463	0.0138517
784.541	0.0138634
784.619	0.0140735
784.697	0.0140030
784.775	0.0141912
784.853	0.0142152
784.932	0.0142043
785.010	0.0143009
785.088	0.0141751
785.166	0.0142898
785.244	0.0142017
785.322	0.0142297
785.400	0.0141885
785.478	0.0141989
785.557	0.0142627
785.635	0.0142299
785.713	0.0141333
785.791	0.0140497
785.869	0.0141109
785.947	0.0141064
786.025	0.0141473
786.103	0.0140893
786.182	0.0141016
786.260	0.0138914
786.338	0.0140832
786.416	0.0142121
786.494	0.0140422
786.572	0.0140935
786.650	0.0139481
786.728	0.0138924
786.807	0.0139672
786.885	0.0140272
786.963	0.0138779
787.041	0.0139095
787.119	0.0137730
787.197	0.0136658
787.275	0.0139011
787.353	0.0138302
787.432	0.0138296
787.510	0.0137067
787.588	0.0139486
787.666	0.0137596
787.744	0.0138911
787.822	0.0139446
787.900	0.0140287
787.978	0.0140598
788.057	0.0141375
788.135	0.0139944
788.213	0.0139513
788.291	0.0140500
788.369	0.0139718
788.447	0.0139944
788.525	0.0139275
788.603	0.0138243
788.682	0.0138829
788.760	0.0140257
788.838	0.0139188
788.916	0.0139841
788.994	0.0139548
789.072	0.0138937
789.150	0.0140007
789.228	0.0139871
789.307	0.0141064
789.385	0.0140527
789.463	0.0141256
789.541	0.0140266
789.619	0.0142128
789.697	0.0142511
789.775	0.0142736
789.853	0.0142335
789.932	0.0142224
790.010	0.0143727
790.088	0.0143057
790.166	0.0142686
790.244	0.0142599
790.322	0.0142708
790.400	0.0141116
790.478	0.0141734
790.557	0.0141576
790.635	0.0140321
790.713	0.0141526
790.791	0.0142489
790.869	0.0140989
790.947	0.0142085
791.025	0.0142673
791.103	0.0141567
791.182	0.0141531
791.260	0.0141407
791.338	0.0142319
791.416	0.0143555
791.494	0.0142598
791.572	0.0141834
791.650	0.0141026
791.728	0.0140771
791.807	0.0140807
791.885	0.0141239
791.963	0.0139128
792.041	0.0140221
792.119	0.0140360
792.197	0.0138872
792.275	0.0138807
792.353	0.0139327
792.432	0.0138278
792.510	0.0137482
792.588	0.0138578
792.666	0.0137996
792.744	0.0137151
792.822	0.0137251
792.900	0.0136775
792.978	0.0136995
793.057	0.0137706
793.135	0.0137588
793.213	0.0138802
793.291	0.0138253
793.369	0.0141432
793.447	0.0140438
793.525	0.0139850
793.603	0.0140931
793.682	0.0141998
793.760	0.0142139
793.838	0.0142999
793.916	0.0142870
793.994	0.0143427
794.072	0.0144084
794.150	0.0144592
794.228	0.0145235
794.307	0.0144186
794.385	0.0144493
794.463	0.0142823
794.541	0.0143493
794.619	0.0144353
794.697	0.0144328
794.775	0.0143546
794.853	0.0143695
794.932	0.0144620
795.010	0.0144022
795.088	0.0144377
795.166	0.0144705
795.244	0.0143177
795.322	0.0143307
795.400	0.0141387
795.478	0.0141958
795.557	0.0141555
795.635	0.0140572
795.713	0.0139759
795.791	0.0137590
795.869	0.0137008
795.947	0.0136886
796.025	0.0134771
796.103	0.0135120
796.182	0.0134184
796.260	0.0133350
796.338	0.0133477
796.416	0.0132367
796.494	0.0132751
796.572	0.0134165
796.650	0.0135151
796.728	0.0134760
796.807	0.0134767
796.885	0.0135612
796.963	0.0137424
797.041	0.0136861
797.119	0.0138255
797.197	0.0139117
797.275	0.0139622
797.353	0.0140767
797.432	0.0141047
797.510	0.0141138
797.588	0.0142953
797.666	0.0143229
797.744	0.0143992
797.822	0.0144953
797.900	0.0144147
797.978	0.0145197
798.057	0.0145829
798.135	0.0147292
798.213	0.0148790
798.291	0.0147705
798.369	0.0148496
798.447	0.0148350
798.525	0.0146773
798.603	0.0147806
798.682	0.0148147
798.760	0.0147809
798.838	0.0147001
798.916	0.0147479
798.994	0.0146591
799.072	0.0144978
799.150	0.0147143
799.228	0.0144626
799.307	0.0144746
799.385	0.0143816
799.463	0.0145302
799.541	0.0144266
799.619	0.0140276
799.697	0.0140008
799.775	0.0140891
799.853	0.0138924
799.932	0.0136695
800.010	0.0136024
800.088	0.0135006
800.166	0.0134532
800.244	0.0134084
800.322	0.0133552
800.400	0.0132478
800.478	0.0131591
800.557	0.0131155
800.635	0.0130886
800.713	0.0130901
800.791	0.0130542
800.869	0.0128749
800.947	0.0129233
801.025	0.0130414
801.103	0.0131905
801.182	0.0131503
801.260	0.0131339
801.338	0.0130695
801.416	0.0132741
801.494	0.0132288
801.572	0.0132468
801.650	0.0135601
801.728	0.0135865
801.807	0.0135358
801.885	0.0137997
801.963	0.0139877
802.041	0.0140139
802.119	0.0141520
802.197	0.0142071
802.275	0.0143446
802.353	0.0143319
802.432	0.0142397
802.510	0.0143428
802.588	0.0143935
802.666	0.0144726
802.744	0.0144352
802.822	0.0144236
802.900	0.0144911
802.978	0.0145737
803.057	0.0145701
803.135	0.0145091
803.213	0.0145754
803.291	0.0145720
803.369	0.0147076
803.447	0.0147923
803.525	0.0145971
803.603	0.0145455
803.682	0.0148546
803.760	0.0148611
803.838	0.0147917
803.916	0.0147743
803.994	0.0147414
804.072	0.0147739
804.150	0.0147015
804.228	0.0146928
804.307	0.0148254
804.385	0.0147781
804.463	0.0145262
804.541	0.0144379
804.619	0.0145751
804.697	0.0144632
804.775	0.0142873
804.853	0.0142710
804.932	0.0140936
805.010	0.0141156
805.088	0.0139886
805.166	0.0138137
805.244	0.0137881
805.322	0.0136426
805.400	0.0134097
805.478	0.0135641
805.557	0.0132865
805.635	0.0133408
805.713	0.0131321
805.791	0.0132115
805.869	0.0129906
805.947	0.0132400
806.025	0.0133122
806.103	0.0131182
806.182	0.0130748
806.260	0.0132192
806.338	0.0133867
806.416	0.0132772
806.494	0.0133520
806.572	0.0134209
806.650	0.0134088
806.728	0.0134370
806.807	0.0135683
806.885	0.0135010
806.963	0.0135634
807.041	0.0135629
807.119	0.0136919
807.197	0.0137122
807.275	0.0137209
807.353	0.0137151
807.432	0.0136427
807.510	0.0138610
807.588	0.0138656
807.666	0.0138985
807.744	0.0139317
807.822	0.0141852
807.900	0.0139536
807.978	0.0141225
808.057	0.0141444
808.135	0.0141170
808.213	0.0141670
808.291	0.0142640
808.369	0.0143656
808.447	0.0142465
808.525	0.0142251
808.603	0.0143670
808.682	0.0145351
808.760	0.0143677
808.838	0.0143468
808.916	0.0145343
808.994	0.0147481
809.072	0.0146507
809.150	0.0146136
809.228	0.0148605
809.307	0.0149648
809.385	0.0148946
809.463	0.0149117
809.541	0.0148805
809.619	0.0149707
809.697	0.0148782
809.775	0.0149480
809.853	0.0148726
809.932	0.0148739
810.010	0.0147614
810.088	0.0147412
810.166	0.0146957
810.244	0.0146309
810.322	0.0144651
810.400	0.0143963
810.478	0.0143163
810.557	0.0140996
810.635	0.0140563
810.713	0.0140018
810.791	0.0137837
810.869	0.0138090
810.947	0.0137669
811.025	0.0136231
811.103	0.0134418
811.182	0.0133736
811.260	0.0132676
811.338	0.0133385
811.416	0.0132143
811.494	0.0130204
811.572	0.0131479
811.650	0.0130637
811.728	0.0130270
811.807	0.0129208
811.885	0.0130886
811.963	0.0132459
812.041	0.0132410
812.119	0.0131515
812.197	0.0132318
812.275	0.0133615
812.353	0.0133013
812.432	0.0134820
812.510	0.0134401
812.588	0.0135234
812.666	0.0135195
812.744	0.0137442
812.822	0.0138123
812.900	0.0137877
812.978	0.0140731
813.057	0.0138971
813.135	0.0139778
813.213	0.0140302
813.291	0.0141752
813.369	0.0141902
813.447	0.0142757
813.525	0.0143365
813.603	0.0144144
813.682	0.0143092
813.760	0.0144833
813.838	0.0143958
813.916	0.0143876
813.994	0.0144627
814.072	0.0144613
814.150	0.0145753
814.228	0.0147026
814.307	0.0146791
814.385	0.0146208
814.463	0.0147212
814.541	0.0147916
814.619	0.0148074
814.697	0.0149072
814.775	0.0149088
814.853	0.0150623
814.932	0.0148846
815.010	0.0149871
815.088	0.0150045
815.166	0.0151599
815.244	0.0150609
815.322	0.0149514
815.400	0.0149278
815.478	0.0148046
815.557	0.0147918
815.635	0.0148492
815.713	0.0147002
815.791	0.0144734
815.869	0.0145151
815.947	0.0144576
816.025	0.0141852
816.103	0.0141682
816.182	0.0139796
816.260	0.0138354
816.338	0.0137002
816.416	0.0135997
816.494	0.0133862
816.572	0.0133447
816.650	0.0131948
816.728	0.0130653
816.807	0.0130448
816.885	0.0130563
816.963	0.0128392
817.041	0.0126266
817.119	0.0128774
817.197	0.0129416
817.275	0.0128297
817.353	0.0127745
817.432	0.0129272
817.510	0.0129713
817.588	0.0129906
817.666	0.0131316
817.744	0.0131328
817.822	0.0132433
817.900	0.0133756
817.978	0.0135336
818.057	0.0134734
818.135	0.0136163
818.213	0.0137109
818.291	0.0138503
818.369	0.0140843
818.447	0.0140665
818.525	0.0139900
818.603	0.0139920
818.682	0.0142101
818.760	0.0143709
818.838	0.0143421
818.916	0.0143999
818.994	0.0144453
819.072	0.0145152
819.150	0.0144518
819.228	0.0146190
819.307	0.0146719
819.385	0.0145879
819.463	0.0147157
819.541	0.0148714
819.619	0.0148727
819.697	0.0148342
819.775	0.0149083
819.853	0.0150686
819.932	0.0149373
820.010	0.0149230
820.088	0.0150468
820.166	0.0151239
820.244	0.0150010
820.322	0.0150478
820.400	0.0149548
820.478	0.0151165
820.557	0.0149059
820.635	0.0147850
820.713	0.0147788
820.791	0.0148653
820.869	0.0147172
820.947	0.0146773
821.025	0.0146405
821.103	0.0145096
821.182	0.0145123
821.260	0.0143549
821.338	0.0142197
821.416	0.0142136
821.494	0.0140788
821.572	0.0139162
821.650	0.0139097
821.728	0.0137897
821.807	0.0136734
821.885	0.0136256
821.963	0.0135020
822.041	0.0134037
822.119	0.0134528
822.197	0.0132432
822.275	0.0131981
822.353	0.0130633
822.432	0.0129665
822.510	0.0129279
822.588	0.0129720
822.666	0.0129052
822.744	0.0128905
822.822	0.0128358
822.900	0.0127897
822.978	0.0128678
823.057	0.0126926
823.135	0.0129354
823.213	0.0129640
823.291	0.0130042
823.369	0.0131114
823.447	0.0131757
823.525	0.0132680
823.603	0.0133472
823.682	0.0134566
823.760	0.0136080
823.838	0.0136837
823.916	0.0138020
823.994	0.0140159
824.072	0.0141148
824.150	0.0142055
824.228	0.0143072
824.307	0.0143439
824.385	0.0144792
824.463	0.0145731
824.541	0.0147684
824.619	0.0148138
824.697	0.0148284
824.775	0.0148225
824.853	0.0149470
824.932	0.0149198
825.010	0.0147858
825.088	0.0149802
825.166	0.0150851
825.244	0.0148795
825.322	0.0148579
825.400	0.0148705
825.478	0.0148664
825.557	0.0148110
825.635	0.0148622
825.713	0.0147709
825.791	0.0147723
825.869	0.0146114
825.947	0.0145811
826.025	0.0146592
826.103	0.0145665
826.182	0.0142708
826.260	0.0144186
826.338	0.0142587
826.416	0.0141235
826.494	0.0141163
826.572	0.0139940
826.650	0.0141875
826.728	0.0140778
826.807	0.0139920
826.885	0.0138682
826.963	0.0139539
827.041	0.0138558
827.119	0.0139834
827.197	0.0139091
827.275	0.0138158
827.353	0.0136913
827.432	0.0137859
827.510	0.0138294
827.588	0.0137257
827.666	0.0136433
827.744	0.0136175
827.822	0.0136405
827.900	0.0136219
827.978	0.0137737
828.057	0.0137154
828.135	0.0136665
828.213	0.0136401
828.291	0.0137207
828.369	0.0138214
828.447	0.0138026
828.525	0.0136208
828.603	0.0137501
828.682	0.0139600
828.760	0.0138136
828.838	0.0137823
828.916	0.0138775
828.994	0.0139861
829.072	0.0137795
829.150	0.0138740
829.228	0.0138556
829.307	0.0139719
829.385	0.0139130
829.463	0.0138500
829.541	0.0137426
829.619	0.0137293
829.697	0.0138023
829.775	0.0137209
829.853	0.0137646
829.932	0.0136785
830.010	0.0137540
830.088	0.0136450
830.166	0.0137695
830.244	0.0138308
830.322	0.0141052
830.400	0.0139861
830.478	0.0141212
830.557	0.0140079
830.635	0.0142150
830.713	0.0142023
830.791	0.0141894
830.869	0.0143053
830.947	0.0143941
831.025	0.0143985
831.103	0.0144480
831.182	0.0145133
831.260	0.0145882
831.338	0.0145352
831.416	0.0146649
831.494	0.0146809
831.572	0.0145081
831.650	0.0144730
831.728	0.0146117
831.807	0.0146541
831.885	0.0144947
831.963	0.0146722
832.041	0.0145449
832.119	0.0144641
832.197	0.0143362
832.275	0.0144888
832.353	0.0144173
832.432	0.0144621
832.510	0.0142978
832.588	0.0142561
832.666	0.0142643
832.744	0.0142654
832.822	0.0140900
832.900	0.0140121
832.978	0.0140028
833.057	0.0140826
833.135	0.0138700
833.213	0.0137530
833.291	0.0138519
833.369	0.0138203
833.447	0.0138530
833.525	0.0137685
833.603	0.0139496
833.682	0.0139083
833.760	0.0137854
833.838	0.0138900
833.916	0.0138324
833.994	0.0139360
834.072	0.0138814
834.150	0.0137899
834.228	0.0138238
834.307	0.0137821
834.385	0.0138773
834.463	0.0138737
834.541	0.0139555
834.619	0.0140005
834.697	0.0139043
834.775	0.0140138
834.853	0.0139294
834.932	0.0140446
835.010	0.0140168
835.088	0.0140191
835.166	0.0139793
835.244	0.0140375
835.322	0.0140072
835.400	0.0138371
835.478	0.0139720
835.557	0.0139968
835.635	0.0140205
835.713	0.0139314
835.791	0.0139514
835.869	0.0140002
835.947	0.0140090
836.025	0.0137962
836.103	0.0140299
836.182	0.0139495
836.260	0.0138614
836.338	0.0139391
836.416	0.0139525
836.494	0.0140048
836.572	0.0139883
836.650	0.0140487
836.728	0.0140315
836.807	0.0138872
836.885	0.0138249
836.963	0.0139735
837.041	0.0139657
837.119	0.0138940
837.197	0.0140064
837.275	0.0139849
837.353	0.0138815
837.432	0.0138561
837.510	0.0139207
837.588	0.0139297
837.666	0.0140307
837.744	0.0140534
837.822	0.0139030
837.900	0.0140109
837.978	0.0140424
838.057	0.0140617
838.135	0.0140761
838.213	0.0141230
838.291	0.0141775
838.369	0.0142374
838.447	0.0141618
838.525	0.0141786
838.603	0.0142115
838.682	0.0142595
838.760	0.0142809
838.838	0.0141568
838.916	0.0142636
838.994	0.0143886
839.072	0.0142358
839.150	0.0144473
839.228	0.0144228
839.307	0.0143718
839.385	0.0142979
839.463	0.0143324
839.541	0.0144614
839.619	0.0143250
839.697	0.0142677
839.775	0.0144272
839.853	0.0143597
839.932	0.0144364
840.010	0.0143191
840.088	0.0142774
840.166	0.0142317
840.244	0.0143300
840.322	0.0141561
840.400	0.0142321
840.478	0.0142821
840.557	0.0142299
840.635	0.0141051
840.713	0.0141802
840.791	0.0142938
840.869	0.0142626
840.947	0.0140317
841.025	0.0139292
841.103	0.0140223
841.182	0.0139117
841.260	0.0138750
841.338	0.0139536
841.416	0.0138909
841.494	0.0138921
841.572	0.0136357
841.650	0.0136722
841.728	0.0136478
841.807	0.0135867
841.885	0.0134414
841.963	0.0135020
842.041	0.0133749
842.119	0.0134026
842.197	0.0133868
842.275	0.0134217
842.353	0.0133475
842.432	0.0134504
842.510	0.0134346
842.588	0.0134287
842.666	0.0133944
842.744	0.0134217
842.822	0.0134229
842.900	0.0135865
842.978	0.0136423
843.057	0.0137300
843.135	0.0136700
843.213	0.0137124
843.291	0.0138033
843.369	0.0139002
843.447	0.0140147
843.525	0.0140114
843.603	0.0139907
843.682	0.0139986
843.760	0.0140710
843.838	0.0141930
843.916	0.0142588
843.994	0.0142860
844.072	0.0143385
844.150	0.0142352
844.228	0.0142780
844.307	0.0143579
844.385	0.0143285
844.463	0.0142429
844.541	0.0144353
844.619	0.0143588
844.697	0.0145287
844.775	0.0143957
844.853	0.0144122
844.932	0.0144792
845.010	0.0144329
845.088	0.0144453
845.166	0.0144698
845.244	0.0145107
845.322	0.0145438
845.400	0.0143526
845.478	0.0144041
845.557	0.0145274
845.635	0.0145308
845.713	0.0145872
845.791	0.0145110
845.869	0.0145307
845.947	0.0146013
846.025	0.0145845
846.103	0.0144844
846.182	0.0144823
846.260	0.0142241
846.338	0.0142959
846.416	0.0142943
846.494	0.0142564
846.572	0.0141084
846.650	0.0139713
846.728	0.0139490
846.807	0.0139133
846.885	0.0139296
846.963	0.0137946
847.041	0.0138258
847.119	0.0136510
847.197	0.0135368
847.275	0.0136648
847.353	0.0134714
847.432	0.0133475
847.510	0.0133675
847.588	0.0134961
847.666	0.0135995
847.744	0.0133179
847.822	0.0132979
847.900	0.0133349
847.978	0.0135284
848.057	0.0134917
848.135	0.0134569
848.213	0.0134909
848.291	0.0135536
848.369	0.0135808
848.447	0.0135494
848.525	0.0136371
848.603	0.0137807
848.682	0.0137463
848.760	0.0138760
848.838	0.0137453
848.916	0.0140300
848.994	0.0139953
849.072	0.0137553
849.150	0.0138911
849.228	0.0140041
849.307	0.0140585
849.385	0.0141586
849.463	0.0141832
849.541	0.0143352
849.619	0.0141324
849.697	0.0142088
849.775	0.0142013
849.853	0.0141808
849.932	0.0143338
850.010	0.0143034
850.088	0.0142441
850.166	0.0142873
850.244	0.0142507
850.322	0.0142988
850.400	0.0143269
850.478	0.0143237
850.557	0.0143317
850.635	0.0142633
850.713	0.0143473
850.791	0.0144794
850.869	0.0145313
850.947	0.0145294
851.025	0.0144028
851.103	0.0145036
851.182	0.0143443
851.260	0.0145405
851.338	0.0143006
851.416	0.0144936
851.494	0.0144105
851.572	0.0143623
851.650	0.0144696
851.728	0.0145113
851.807	0.0143429
851.885	0.0144160
851.963	0.0143046
852.041	0.0143231
852.119	0.0142165
852.197	0.0142149
852.275	0.0140685
852.353	0.0141254
852.432	0.0140649
852.510	0.0139803
852.588	0.0138365
852.666	0.0138917
852.744	0.0140163
852.822	0.0139294
852.900	0.0139053
852.978	0.0138882
853.057	0.0137312
853.135	0.0138314
853.213	0.0139224
853.291	0.0135532
853.369	0.0136089
853.447	0.0138278
853.525	0.0138868
853.603	0.0137138
853.682	0.0135815
853.760	0.0136544
853.838	0.0136807
853.916	0.0136242
853.994	0.0137328
854.072	0.0137817
854.150	0.0136560
854.228	0.0135524
854.307	0.0133974
854.385	0.0136786
854.463	0.0137988
854.541	0.0136227
854.619	0.0136713
854.697	0.0137115
854.775	0.0136830
854.853	0.0137054
854.932	0.0137857
855.010	0.0138158
855.088	0.0137933
855.166	0.0139770
855.244	0.0139837
855.322	0.0139615
855.400	0.0140958
855.478	0.0141982
855.557	0.0141273
855.635	0.0141654
855.713	0.0144434
855.791	0.0143739
855.869	0.0144307
855.947	0.0145195
856.025	0.0144544
856.103	0.0145626
856.182	0.0145816
856.260	0.0144460
856.338	0.0144682
856.416	0.0143980
856.494	0.0145506
856.572	0.0145367
856.650	0.0145486
856.728	0.0144930
856.807	0.0146027
856.885	0.0143494
856.963	0.0145450
857.041	0.0146043
857.119	0.0144545
857.197	0.0144977
857.275	0.0144270
857.353	0.0144632
857.432	0.0142323
857.510	0.0142134
857.588	0.0142856
857.666	0.0140227
857.744	0.0139205
857.822	0.0140733
857.900	0.0140543
857.978	0.0140478
858.057	0.0140874
858.135	0.0138703
858.213	0.0139063
858.291	0.0139603
858.369	0.0138692
858.447	0.0139462
858.525	0.0138596
858.603	0.0138245
858.682	0.0138433
858.760	0.0137935
858.838	0.0137396
858.916	0.0136586
858.994	0.0136736
859.072	0.0136666
859.150	0.0135722
859.228	0.0135367
859.307	0.0134924
859.385	0.0134485
859.463	0.0134708
859.541	0.0136020
859.619	0.0135989
859.697	0.0136640
859.775	0.0136164
859.853	0.0137606
859.932	0.0138144
860.010	0.0137310
860.088	0.0138567
860.166	0.0141039
860.244	0.0139128
860.322	0.0139431
860.400	0.0138917
860.478	0.0140543
860.557	0.0141606
860.635	0.0141956
860.713	0.0142719
860.791	0.0141692
860.869	0.0142937
860.947	0.0144214
861.025	0.0143329
861.103	0.0142558
861.182	0.0144839
861.260	0.0142549
861.338	0.0143154
861.416	0.0143166
861.494	0.0144027
861.572	0.0142843
861.650	0.0143478
861.728	0.0143192
861.807	0.0143140
861.885	0.0142056
861.963	0.0142097
862.041	0.0143459
862.119	0.0141904
862.197	0.0141069
862.275	0.0140517
862.353	0.0141873
862.432	0.0142725
862.510	0.0141241
862.588	0.0141238
862.666	0.0139948
862.744	0.0140966
862.822	0.0139772
862.900	0.0140183
862.978	0.0140318
863.057	0.0139644
863.135	0.0140269
863.213	0.0141292
863.291	0.0140551
863.369	0.0140563
863.447	0.0140302
863.525	0.0140814
863.603	0.0140377
863.682	0.0140572
863.760	0.0141003
863.838	0.0140944
863.916	0.0140137
863.994	0.0140668
864.072	0.0140620
864.150	0.0140256
864.228	0.0138899
864.307	0.0143099
864.385	0.0141653
864.463	0.0139845
864.541	0.0140987
864.619	0.0140572
864.697	0.0140312
864.775	0.0140738
864.853	0.0141128
864.932	0.0140255
865.010	0.0139818
865.088	0.0140897
865.166	0.0140134
865.244	0.0140000
865.322	0.0140776
865.400	0.0139366
865.478	0.0140067
865.557	0.0139481
865.635	0.0140068
865.713	0.0138309
865.791	0.0138230
865.869	0.0138095
865.947	0.0138123
866.025	0.0139601
866.103	0.0139078
866.182	0.0138474
866.260	0.0137385
866.338	0.0138334
866.416	0.0138801
866.494	0.0137698
866.572	0.0138631
866.650	0.0140018
866.728	0.0139211
866.807	0.0139128
866.885	0.0138757
866.963	0.0139281
867.041	0.0139645
867.119	0.0140182
867.197	0.0139075
867.275	0.0140595
867.353	0.0140535
867.432	0.0140247
867.510	0.0141396
867.588	0.0144053
867.666	0.0145072
867.744	0.0143884
867.822	0.0142659
867.900	0.0144884
867.978	0.0145536
868.057	0.0144633
868.135	0.0145038
868.213	0.0145779
868.291	0.0145219
868.369	0.0143034
868.447	0.0144818
868.525	0.0141974
868.603	0.0142801
868.682	0.0141596
868.760	0.0141568
868.838	0.0140405
868.916	0.0139215
868.994	0.0140580
869.072	0.0139467
869.150	0.0139806
869.228	0.0137972
869.307	0.0137833
869.385	0.0138456
869.463	0.0139178
869.541	0.0137050
869.619	0.0137646
869.697	0.0138931
869.775	0.0139941
869.853	0.0137764
869.932	0.0138403
870.010	0.0138191
870.088	0.0138853
870.166	0.0137849
870.244	0.0138350
870.322	0.0137919
870.400	0.0138275
870.478	0.0138059
870.557	0.0138002
870.635	0.0137312
870.713	0.0137978
870.791	0.0136912
870.869	0.0137981
870.947	0.0138364
871.025	0.0139413
871.103	0.0138724
871.182	0.0138412
871.260	0.0139153
871.338	0.0139561
871.416	0.0140047
871.494	0.0140057
871.572	0.0141127
871.650	0.0140083
871.728	0.0141061
871.807	0.0141190
871.885	0.0140182
871.963	0.0140479
872.041	0.0140474
872.119	0.0140568
872.197	0.0141749
872.275	0.0140818
872.353	0.0140297
872.432	0.0140140
872.510	0.0141369
872.588	0.0140529
872.666	0.0140808
872.744	0.0141895
872.822	0.0141862
872.900	0.0141356
872.978	0.0142388
873.057	0.0141425
873.135	0.0142414
873.213	0.0142139
873.291	0.0143141
873.369	0.0142941
873.447	0.0143373
873.525	0.0142240
873.603	0.0142682
873.682	0.0142561
873.760	0.0143702
873.838	0.0143408
873.916	0.0142059
873.994	0.0142516
874.072	0.0141551
874.150	0.0141288
874.228	0.0142138
874.307	0.0140049
874.385	0.0140839
874.463	0.0140926
874.541	0.0140396
874.619	0.0141648
874.697	0.0140961
874.775	0.0141206
874.853	0.0141421
874.932	0.0139425
875.010	0.0140701
875.088	0.0141409
875.166	0.0139813
875.244	0.0141362
875.322	0.0140558
875.400	0.0140926
875.478	0.0140863
875.557	0.0140116
875.635	0.0140875
875.713	0.0140131
875.791	0.0137938
875.869	0.0138606
875.947	0.0137642
876.025	0.0139108
876.103	0.0138000
876.182	0.0138030
876.260	0.0139228
876.338	0.0138998
876.416	0.0137231
876.494	0.0136984
876.572	0.0139528
876.650	0.0138918
876.728	0.0138389
876.807	0.0140514
876.885	0.0139870
876.963	0.0140368
877.041	0.0139687
877.119	0.0139296
877.197	0.0140874
877.275	0.0140228
877.353	0.0139783
877.432	0.0140096
877.510	0.0140294
877.588	0.0140809
877.666	0.0139395
877.744	0.0140464
877.822	0.0139690
877.900	0.0140546
877.978	0.0140545
878.057	0.0141788
878.135	0.0142574
878.213	0.0143705
878.291	0.0142979
878.369	0.0143108
878.447	0.0143739
878.525	0.0143674
878.603	0.0143134
878.682	0.0142709
878.760	0.0143224
878.838	0.0142329
878.916	0.0141237
878.994	0.0140936
879.072	0.0141593
879.150	0.0141780
879.228	0.0140598
879.307	0.0141011
879.385	0.0141085
879.463	0.0141198
879.541	0.0141109
879.619	0.0141293
879.697	0.0140411
879.775	0.0140781
879.853	0.0141482
879.932	0.0142684
880.010	0.0140902
880.088	0.0138816
880.166	0.0141087
880.244	0.0142851
880.322	0.0139774
880.400	0.0140214
880.478	0.0139462
880.557	0.0139217
880.635	0.0140041
880.713	0.0138833
880.791	0.0138407
880.869	0.0137975
880.947	0.0137873
881.025	0.0137675
881.103	0.0137492
881.182	0.0140031
881.260	0.0138150
881.338	0.0138712
881.416	0.0139175
881.494	0.0138858
881.572	0.0140759
881.650	0.0139190
881.728	0.0139103
881.807	0.0140010
881.885	0.0140368
881.963	0.0141642
882.041	0.0140970
882.119	0.0141611
882.197	0.0141081
882.275	0.0141059
882.353	0.0140965
882.432	0.0141075
882.510	0.0141610
882.588	0.0142862
882.666	0.0143351
882.744	0.0141367
882.822	0.0141731
882.900	0.0142442
882.978	0.0141416
883.057	0.0141776
883.135	0.0141445
883.213	0.0142337
883.291	0.0140894
883.369	0.0140813
883.447	0.0140125
883.525	0.0138861
883.603	0.0141464
883.682	0.0139300
883.760	0.0138516
883.838	0.0138927
883.916	0.0139258
883.994	0.0139081
884.072	0.0138705
884.150	0.0138808
884.228	0.0138042
884.307	0.0138423
884.385	0.0139465
884.463	0.0139830
884.541	0.0139079
884.619	0.0141051
884.697	0.0139547
884.775	0.0139274
884.853	0.0141120
884.932	0.0140058
885.010	0.0141085
885.088	0.0140211
885.166	0.0142655
885.244	0.0142159
885.322	0.0141866
885.400	0.0141998
885.478	0.0141119
885.557	0.0141248
885.635	0.0140910
885.713	0.0143031
885.791	0.0142213
885.869	0.0141386
885.947	0.0140608
886.025	0.0140897
886.103	0.0141393
886.182	0.0140655
886.260	0.0139867
886.338	0.0140006
886.416	0.0139993
886.494	0.0138779
886.572	0.0139059
886.650	0.0138467
886.728	0.0140598
886.807	0.0138952
886.885	0.0138745
886.963	0.0137971
887.041	0.0136585
887.119	0.0136893
887.197	0.0135352
887.275	0.0135620
887.353	0.0135373
887.432	0.0135770
887.510	0.0134587
887.588	0.0134974
887.666	0.0135667
887.744	0.0135818
887.822	0.0137443
887.900	0.0137540
887.978	0.0137699
888.057	0.0138819
888.135	0.0140769
888.213	0.0142041
888.291	0.0140689
888.369	0.0141564
888.447	0.0142927
888.525	0.0144158
888.603	0.0144226
888.682	0.0145373
888.760	0.0143966
888.838	0.0144057
888.916	0.0145591
888.994	0.0145347
889.072	0.0144725
889.150	0.0143933
889.228	0.0144008
889.307	0.0144432
889.385	0.0144220
889.463	0.0143290
889.541	0.0144202
889.619	0.0142281
889.697	0.0142302
889.775	0.0142060
889.853	0.0141183
889.932	0.0141538
890.010	0.0140108
890.088	0.0138985
890.166	0.0139864
890.244	0.0139787
890.322	0.0138246
890.400	0.0139175
890.478	0.0138984
890.557	0.0139404
890.635	0.0137771
890.713	0.0138534
890.791	0.0138287
890.869	0.0137086
890.947	0.0138720
891.025	0.0138527
891.103	0.0136040
891.182	0.0136916
891.260	0.0136841
891.338	0.0136583
891.416	0.0136491
891.494	0.0136621
891.572	0.0135535
891.650	0.0137153
891.728	0.0136330
891.807	0.0138400
891.885	0.0136338
891.963	0.0137479
892.041	0.0138521
892.119	0.0137424
892.197	0.0140221
892.275	0.0140405
892.353	0.0138851
892.432	0.0139413
892.510	0.0140445
892.588	0.0139686
892.666	0.0141091
892.744	0.0140691
892.822	0.0140538
892.900	0.0142303
892.978	0.0142671
893.057	0.0144755
893.135	0.0144513
893.213	0.0143535
893.291	0.0145274
893.369	0.0146178
893.447	0.0145723
893.525	0.0145802
893.603	0.0146745
893.682	0.0146167
893.760	0.0146475
893.838	0.0145220
893.916	0.0145798
893.994	0.0145953
894.072	0.0146586
894.150	0.0144847
894.228	0.0144559
894.307	0.0145123
894.385	0.0143441
894.463	0.0143872
894.541	0.0144080
894.619	0.0142020
894.697	0.0140798
894.775	0.0141921
894.853	0.0141385
894.932	0.0141564
895.010	0.0138412
895.088	0.0137080
895.166	0.0137347
895.244	0.0136707
895.322	0.0135265
895.400	0.0135268
895.478	0.0135856
895.557	0.0134634
895.635	0.0134914
895.713	0.0132944
895.791	0.0134566
895.869	0.0134464
895.947	0.0136442
896.025	0.0136289
896.103	0.0137856
896.182	0.0135948
896.260	0.0138091
896.338	0.0139021
896.416	0.0138257
896.494	0.0138696
896.572	0.0140878
896.650	0.0139625
896.728	0.0140062
896.807	0.0142061
896.885	0.0144316
896.963	0.0142897
897.041	0.0142158
897.119	0.0143168
897.197	0.0143508
897.275	0.0141947
897.353	0.0142793
897.432	0.0141547
897.510	0.0141191
897.588	0.0142215
897.666	0.0140541
897.744	0.0139348
897.822	0.0139883
897.900	0.0139878
897.978	0.0138525
898.057	0.0138571
898.135	0.0139860
898.213	0.0138844
898.291	0.0138684
898.369	0.0139372
898.447	0.0140109
898.525	0.0139540
898.603	0.0140344
898.682	0.0140457
898.760	0.0140307
898.838	0.0142310
898.916	0.0141557
898.994	0.0142576
899.072	0.0142004
899.150	0.0142378
899.228	0.0143272
899.307	0.0143739
899.385	0.0144038
899.463	0.0144099
899.541	0.0143047
899.619	0.0144559
899.697	0.0144133
899.775	0.0144132
899.853	0.0143804
899.932	0.0143344
900.010	0.0142794
900.088	0.0143720
900.166	0.0141993
900.244	0.0142259
900.322	0.0140330
900.400	0.0138924
900.478	0.0139654
900.557	0.0139324
900.635	0.0138808
900.713	0.0136992
900.791	0.0135836
900.869	0.0137206
900.947	0.0137626
901.025	0.0137263
901.103	0.0137450
901.182	0.0139594
901.260	0.0140758
901.338	0.0140396
901.416	0.0142495
901.494	0.0141892
901.572	0.0142163
901.650	0.0142109
901.728	0.0143036
901.807	0.0144536
901.885	0.0143150
901.963	0.0141507
902.041	0.0142211
902.119	0.0142222
902.197	0.0142259
902.275	0.0140981
902.353	0.0139892
902.432	0.0140614
902.510	0.0139233
902.588	0.0137790
902.666	0.0137757
902.744	0.0137051
902.822	0.0136699
902.900	0.0136021
902.978	0.0135036
903.057	0.0134660
903.135	0.0135159
903.213	0.0135117
903.291	0.0133923
903.369	0.0133944
903.447	0.0135412
903.525	0.0135332
903.603	0.0136597
903.682	0.0136437
903.760	0.0137438
903.838	0.0137160
903.916	0.0139986
903.994	0.0139722
904.072	0.0140907
904.150	0.0141376
904.228	0.0143203
904.307	0.0144406
904.385	0.0145980
904.463	0.0145782
904.541	0.0148877
904.619	0.0147597
904.697	0.0148281
904.775	0.0149105
904.853	0.0149079
904.932	0.0148405
905.010	0.0148201
905.088	0.0149795
905.166	0.0148582
905.244	0.0146607
905.322	0.0147639
905.400	0.0145811
905.478	0.0146021
905.557	0.0145154
905.635	0.0142372
905.713	0.0141356
905.791	0.0139860
905.869	0.0140629
905.947	0.0138783
906.025	0.0137820
906.103	0.0137617
906.182	0.0136265
906.260	0.0135965
906.338	0.0135913
906.416	0.0136549
906.494	0.0136662
906.572	0.0138135
906.650	0.0138036
906.728	0.0138268
906.807	0.0138944
906.885	0.0139550
906.963	0.0141215
907.041	0.0139381
907.119	0.0141277
907.197	0.0140874
907.275	0.0141134
907.353	0.0141669
907.432	0.0141669
907.510	0.0141702
907.588	0.0142869
907.666	0.0141026
907.744	0.0140800
907.822	0.0139764
907.900	0.0139917
907.978	0.0139802
908.057	0.0139376
908.135	0.0137073
908.213	0.0137218
908.291	0.0135889
908.369	0.0135357
908.447	0.0134173
908.525	0.0134868
908.603	0.0135417
908.682	0.0135441
908.760	0.0134062
908.838	0.0134390
908.916	0.0136272
908.994	0.0135421
909.072	0.0137485
909.150	0.0138267
909.228	0.0139778
909.307	0.0141440
909.385	0.0139943
909.463	0.0143207
909.541	0.0144173
909.619	0.0144814
909.697	0.0145150
909.775	0.0146938
909.853	0.0146957
909.932	0.0147543
910.010	0.0147658
910.088	0.0147856
910.166	0.0148369
910.244	0.0147570
910.322	0.0146970
910.400	0.0147542
910.478	0.0146027
910.557	0.0146702
910.635	0.0144981
910.713	0.0144816
910.791	0.0143674
910.869	0.0143171
910.947	0.0143361
911.025	0.0140958
911.103	0.0139612
911.182	0.0140928
911.260	0.0138322
911.338	0.0136929
911.416	0.0137506
911.494	0.0135791
911.572	0.0135496
911.650	0.0136567
911.728	0.0133845
911.807	0.0136223
911.885	0.0135198
911.963	0.0136083
912.041	0.0137345
912.119	0.0138068
912.197	0.0137920
912.275	0.0137808
912.353	0.0139052
912.432	0.0139345
912.510	0.0142371
912.588	0.0141438
912.666	0.0140833
912.744	0.0142090
912.822	0.0142532
912.900	0.0142538
912.978	0.0141983
913.057	0.0140562
913.135	0.0141815
913.213	0.0142042
913.291	0.0141943
913.369	0.0140983
913.447	0.0141519
913.525	0.0139999
913.603	0.0140929
913.682	0.0140903
913.760	0.0139807
913.838	0.0140596
913.916	0.0139539
913.994	0.0140230
914.072	0.0140064
914.150	0.0140688
914.228	0.0141514
914.307	0.0141000
914.385	0.0141043
914.463	0.0141409
914.541	0.0142207
914.619	0.0141701
914.697	0.0142068
914.775	0.0141180
914.853	0.0141323
914.932	0.0141901
915.010	0.0141750
915.088	0.0141286
915.166	0.0140990
915.244	0.0142775
915.322	0.0142709
915.400	0.0140830
915.478	0.0140977
915.557	0.0140666
915.635	0.0141425
915.713	0.0141426
915.791	0.0140586
915.869	0.0141735
915.947	0.0140558
916.025	0.0139276
916.103	0.0139768
916.182	0.0138784
916.260	0.0139888
916.338	0.0138357
916.416	0.0137181
916.494	0.0137556
916.572	0.0137119
916.650	0.0136594
916.728	0.0136069
916.807	0.0137213
916.885	0.0137565
916.963	0.0137044
917.041	0.0136658
917.119	0.0139351
917.197	0.0137679
917.275	0.0138367
917.353	0.0139321
917.432	0.0139714
917.510	0.0140093
917.588	0.0141571
917.666	0.0142219
917.744	0.0142391
917.822	0.0143329
917.900	0.0144278
917.978	0.0144130
918.057	0.0144984
918.135	0.0146211
918.213	0.0146575
918.291	0.0145221
918.369	0.0144814
918.447	0.0145504
918.525	0.0145121
918.603	0.0145309
918.682	0.0145557
918.760	0.0145357
918.838	0.0143141
918.916	0.0143502
918.994	0.0142625
919.072	0.0141623
919.150	0.0141261
919.228	0.0142726
919.307	0.0142851
919.385	0.0141773
919.463	0.0140005
919.541	0.0140661
919.619	0.0139993
919.697	0.0138564
919.775	0.0138107
919.853	0.0139506
919.932	0.0139463
920.010	0.0136672
920.088	0.0138254
920.166	0.0137675
920.244	0.0137806
920.322	0.0139692
920.400	0.0139893
920.478	0.0138692
920.557	0.0140659
920.635	0.0142039
920.713	0.0140752
920.791	0.0140705
920.869	0.0140048
920.947	0.0141334
921.025	0.0140765
921.103	0.0139648
921.182	0.0140053
921.260	0.0140330
921.338	0.0139439
921.416	0.0141688
921.494	0.0141377
921.572	0.0139957
921.650	0.0141050
921.728	0.0139624
921.807	0.0140012
921.885	0.0141164
921.963	0.0139670
922.041	0.0140831
922.119	0.0140626
922.197	0.0140598
922.275	0.0139349
922.353	0.0138280
922.432	0.0139859
922.510	0.0139806
922.588	0.0139133
922.666	0.0140047
922.744	0.0142294
922.822	0.0141441
922.900	0.0141171
922.978	0.0141808
923.057	0.0140942
923.135	0.0141283
923.213	0.0141863
923.291	0.0142706
923.369	0.0141069
923.447	0.0142124
923.525	0.0142667
923.603	0.0141483
923.682	0.0140880
923.760	0.0141746
923.838	0.0141853
923.916	0.0141453
923.994	0.0140713
924.072	0.0140935
924.150	0.0140807
924.228	0.0140017
924.307	0.0139622
924.385	0.0138725
924.463	0.0138419
924.541	0.0137323
924.619	0.0138173
924.697	0.0137391
924.775	0.0138075
924.853	0.0137843
924.932	0.0136937
925.010	0.0137035
925.088	0.0138339
925.166	0.0137403
925.244	0.0138603
925.322	0.0138787
925.400	0.0140386
925.478	0.0140139
925.557	0.0142418
925.635	0.0142355
925.713	0.0142455
925.791	0.0142892
925.869	0.0142792
925.947	0.0142063
926.025	0.0143942
926.103	0.0143858
926.182	0.0143692
926.260	0.0144582
926.338	0.0143486
926.416	0.0143885
926.494	0.0144016
926.572	0.0143006
926.650	0.0142299
926.728	0.0141167
926.807	0.0140591
926.885	0.0142047
926.963	0.0141592
927.041	0.0139588
927.119	0.0140266
927.197	0.0139790
927.275	0.0138813
927.353	0.0138667
927.432	0.0137594
927.510	0.0139018
927.588	0.0138300
927.666	0.0138432
927.744	0.0139521
927.822	0.0139409
927.900	0.0139966
927.978	0.0139898
928.057	0.0141117
928.135	0.0142498
928.213	0.0141880
928.291	0.0142964
928.369	0.0142629
928.447	0.0143742
928.525	0.0143376
928.603	0.0143408
928.682	0.0143007
928.760	0.0143481
928.838	0.0142603
928.916	0.0141390
928.994	0.0142014
929.072	0.0141639
929.150	0.0141096
929.228	0.0140471
929.307	0.0140947
929.385	0.0139317
929.463	0.0139146
929.541	0.0138262
929.619	0.0139249
929.697	0.0138879
929.775	0.0137418
929.853	0.0137608
929.932	0.0137036
930.010	0.0138296
930.088	0.0136884
930.166	0.0137064
930.244	0.0136980
930.322	0.0137508
930.400	0.0137704
930.478	0.0138794
930.557	0.0136720
930.635	0.0137698
930.713	0.0139767
930.791	0.0141228
930.869	0.0141168
930.947	0.0140990
931.025	0.0141216
931.103	0.0142752
931.182	0.0142613
931.260	0.0144591
931.338	0.0144292
931.416	0.0144658
931.494	0.0144981
931.572	0.0143797
931.650	0.0145361
931.728	0.0145068
931.807	0.0144569
931.885	0.0144552
931.963	0.0142845
932.041	0.0144409
932.119	0.0144714
932.197	0.0143454
932.275	0.0142135
932.353	0.0142136
932.432	0.0142080
932.510	0.0142149
932.588	0.0140737
932.666	0.0140515
932.744	0.0140567
932.822	0.0141650
932.900	0.0140675
932.978	0.0141724
933.057	0.0140789
933.135	0.0142092
933.213	0.0141850
933.291	0.0141697
933.369	0.0139391
933.447	0.0140594
933.525	0.0141855
933.603	0.0139617
933.682	0.0140369
933.760	0.0141430
933.838	0.0141237
933.916	0.0139761
933.994	0.0142242
934.072	0.0141278
934.150	0.0140655
934.228	0.0140262
934.307	0.0141113
934.385	0.0141035
934.463	0.0140211
934.541	0.0139439
934.619	0.0138602
934.697	0.0138486
934.775	0.0139107
934.853	0.0141026
934.932	0.0138742
935.010	0.0137651
935.088	0.0138830
935.166	0.0139107
935.244	0.0139158
935.322	0.0139389
935.400	0.0139288
935.478	0.0139581
935.557	0.0138641
935.635	0.0137801
935.713	0.0139747
935.791	0.0139957
935.869	0.0139493
935.947	0.0139986
936.025	0.0142152
936.103	0.0141100
936.182	0.0142164
936.260	0.0143426
936.338	0.0144358
936.416	0.0143549
936.494	0.0143159
936.572	0.0144693
936.650	0.0144379
936.728	0.0143465
936.807	0.0145203
936.885	0.0145446
936.963	0.0143257
937.041	0.0143147
937.119	0.0142757
937.197	0.0142816
937.275	0.0142196
937.353	0.0141346
937.432	0.0140638
937.510	0.0141478
937.588	0.0141459
937.666	0.0140664
937.744	0.0140523
937.822	0.0140181
937.900	0.0139017
937.978	0.0138647
938.057	0.0140129
938.135	0.0140694
938.213	0.0139765
938.291	0.0140253
938.369	0.0139890
938.447	0.0138873
938.525	0.0141005
938.603	0.0141061
938.682	0.0140385
938.760	0.0140409
938.838	0.0141280
938.916	0.0142022
938.994	0.0140905
939.072	0.0140936
939.150	0.0140807
939.228	0.0140984
939.307	0.0141682
939.385	0.0140842
939.463	0.0141242
939.541	0.0140737
939.619	0.0138702
939.697	0.0139513
939.775	0.0138747
939.853	0.0139124
939.932	0.0139154
940.010	0.0138461
940.088	0.0138668
940.166	0.0138518
940.244	0.0138557
940.322	0.0137682
940.400	0.0137161
940.478	0.0136926
940.557	0.0138867
940.635	0.0136919
940.713	0.0138825
940.791	0.0139027
940.869	0.0138279
940.947	0.0139057
941.025	0.0139739
941.103	0.0141144
941.182	0.0141875
941.260	0.0142978
941.338	0.0143423
941.416	0.0143333
941.494	0.0143799
941.572	0.0144975
941.650	0.0144996
941.728	0.0145849
941.807	0.0144151
941.885	0.0145791
941.963	0.0144608
942.041	0.0145248
942.119	0.0145564
942.197	0.0144002
942.275	0.0143287
942.353	0.0142956
942.432	0.0142574
942.510	0.0142298
942.588	0.0140346
942.666	0.0140893
942.744	0.0141476
942.822	0.0140028
942.900	0.0139355
942.978	0.0139178
943.057	0.0139857
943.135	0.0138737
943.213	0.0139240
943.291	0.0138508
943.369	0.0139875
943.447	0.0139732
943.525	0.0138261
943.603	0.0139117
943.682	0.0139027
943.760	0.0140003
943.838	0.0140288
943.916	0.0140139
943.994	0.0139890
944.072	0.0140929
944.150	0.0138878
944.228	0.0139944
944.307	0.0140085
944.385	0.0140551
944.463	0.0140499
944.541	0.0141011
944.619	0.0141070
944.697	0.0140300
944.775	0.0141685
944.853	0.0140026
944.932	0.0139030
945.010	0.0139926
945.088	0.0138780
945.166	0.0138931
945.244	0.0137329
945.322	0.0137740
945.400	0.0136532
945.478	0.0135910
945.557	0.0136752
945.635	0.0137936
945.713	0.0136044
945.791	0.0136550
945.869	0.0135777
945.947	0.0136404
946.025	0.0136745
946.103	0.0137968
946.182	0.0138638
946.260	0.0139957
946.338	0.0139317
946.416	0.0138202
946.494	0.0140868
946.572	0.0140820
946.650	0.0140444
946.728	0.0143029
946.807	0.0141850
946.885	0.0141295
946.963	0.0143213
947.041	0.0142278
947.119	0.0142627
947.197	0.0143091
947.275	0.0144483
947.353	0.0143564
947.432	0.0143605
947.510	0.0144720
947.588	0.0143391
947.666	0.0142416
947.744	0.0144078
947.822	0.0143639
947.900	0.0142155
947.978	0.0141959
948.057	0.0143044
948.135	0.0141135
948.213	0.0140320
948.291	0.0140872
948.369	0.0140487
948.447	0.0139770
948.525	0.0140533
948.603	0.0140401
948.682	0.0139249
948.760	0.0138435
948.838	0.0140705
948.916	0.0140231
948.994	0.0141575
949.072	0.0140130
949.150	0.0140179
949.228	0.0140060
949.307	0.0139801
949.385	0.0140389
949.463	0.0139975
949.541	0.0139629
949.619	0.0140778
949.697	0.0140866
949.775	0.0140969
949.853	0.0138817
949.932	0.0139982
950.010	0.0138567
950.088	0.0139874
950.166	0.0140330
950.244	0.0138267
950.322	0.0137537
950.400	0.0139462
950.478	0.0137550
950.557	0.0138072
950.635	0.0137406
950.713	0.0137478
950.791	0.0137218
950.869	0.0137538
950.947	0.0136636
951.025	0.0138718
951.103	0.0137994
951.182	0.0137267
951.260	0.0138577
951.338	0.0138946
951.416	0.0139288
951.494	0.0140125
951.572	0.0140247
951.650	0.0139888
951.728	0.0141262
951.807	0.0141071
951.885	0.0141418
951.963	0.0142229
952.041	0.0141757
952.119	0.0142847
952.197	0.0142422
952.275	0.0142574
952.353	0.0142762
952.432	0.0144144
952.510	0.0144171
952.588	0.0145113
952.666	0.0143100
952.744	0.0142710
952.822	0.0142551
952.900	0.0141951
952.978	0.0141322
953.057	0.0140771
953.135	0.0139676
953.213	0.0141040
953.291	0.0139996
953.369	0.0139230
953.447	0.0139677
953.525	0.0138773
953.603	0.0138424
953.682	0.0138556
953.760	0.0138490
953.838	0.0139214
953.916	0.0137431
953.994	0.0138640
954.072	0.0139388
954.150	0.0139570
954.228	0.0140708
954.307	0.0139307
954.385	0.0140266
954.463	0.0141375
954.541	0.0142235
954.619	0.0142538
954.697	0.0140751
954.775	0.0141035
954.853	0.0140672
954.932	0.0140456
955.010	0.0142294
955.088	0.0141416
955.166	0.0139462
955.244	0.0141831
955.322	0.0140336
955.400	0.0141824
955.478	0.0140338
955.557	0.0138609
955.635	0.0140704
955.713	0.0140450
955.791	0.0139372
955.869	0.0140031
955.947	0.0139085
956.025	0.0138042
956.103	0.0138332
956.182	0.0138985
956.260	0.0138258
956.338	0.0138700
956.416	0.0138279
956.494	0.0139505
956.572	0.0139426
956.650	0.0139425
956.728	0.0141003
956.807	0.0141969
956.885	0.0142004
956.963	0.0142657
957.041	0.0142413
957.119	0.0142126
957.197	0.0142163
957.275	0.0142321
957.353	0.0143069
957.432	0.0144343
957.510	0.0145259
957.588	0.0144771
957.666	0.0144273
957.744	0.0144656
957.822	0.0144808
957.900	0.0144128
957.978	0.0143826
958.057	0.0142548
958.135	0.0142995
958.213	0.0142011
958.291	0.0143288
958.369	0.0142527
958.447	0.0139226
958.525	0.0141731
958.603	0.0140678
958.682	0.0139268
958.760	0.0140939
958.838	0.0140653
958.916	0.0138860
958.994	0.0139028
959.072	0.0139513
959.150	0.0137666
959.228	0.0137391
959.307	0.0138002
959.385	0.0136668
959.463	0.0137180
959.541	0.0137417
959.619	0.0137530
959.697	0.0139032
959.775	0.0138773
959.853	0.0138939
959.932	0.0138528
960.010	0.0138921
960.088	0.0141074
960.166	0.0139942
960.244	0.0140387
960.322	0.0141664
960.400	0.0142406
960.478	0.0141943
960.557	0.0142321
960.635	0.0142458
960.713	0.0141589
960.791	0.0141669
960.869	0.0141994
960.947	0.0141239
961.025	0.0139094
961.103	0.0139395
961.182	0.0138906
961.260	0.0138241
961.338	0.0138902
961.416	0.0138152
961.494	0.0138017
961.572	0.0137790
961.650	0.0139569
961.728	0.0139379
961.807	0.0139579
961.885	0.0140619
961.963	0.0139872
962.041	0.0139973
962.119	0.0139261
962.197	0.0141432
962.275	0.0141125
962.353	0.0141872
962.432	0.0142029
962.510	0.0140553
962.588	0.0143070
962.666	0.0144050
962.744	0.0143622
962.822	0.0142239
962.900	0.0144414
962.978	0.0144452
963.057	0.0142336
963.135	0.0140667
963.213	0.0143280
963.291	0.0143346
963.369	0.0141893
963.447	0.0142546
963.525	0.0142590
963.603	0.0141713
963.682	0.0140452
963.760	0.0140754
963.838	0.0140019
963.916	0.0139697
963.994	0.0138849
964.072	0.0139254
964.150	0.0139972
964.228	0.0139076
964.307	0.0138096
964.385	0.0138151
964.463	0.0139128
964.541	0.0138203
964.619	0.0138867
964.697	0.0137775
964.775	0.0139088
964.853	0.0138386
964.932	0.0138591
965.010	0.0138454
965.088	0.0139925
965.166	0.0139953
965.244	0.0140278
965.322	0.0138093
965.400	0.0139048
965.478	0.0139079
965.557	0.0140632
965.635	0.0139354
965.713	0.0138170
965.791	0.0139267
965.869	0.0137633
965.947	0.0138929
966.025	0.0139375
966.103	0.0137726
966.182	0.0138329
966.260	0.0137135
966.338	0.0137456
966.416	0.0137475
966.494	0.0135983
966.572	0.0138276
966.650	0.0137755
966.728	0.0136514
966.807	0.0136617
966.885	0.0137421
966.963	0.0139254
967.041	0.0138308
967.119	0.0139716
967.197	0.0139723
967.275	0.0140164
967.353	0.0140431
967.432	0.0141039
967.510	0.0142860
967.588	0.0143069
967.666	0.0142603
967.744	0.0143663
967.822	0.0143826
967.900	0.0144122
967.978	0.0144124
968.057	0.0144447
968.135	0.0144136
968.213	0.0142948
968.291	0.0144376
968.369	0.0145297
968.447	0.0144084
968.525	0.0141895
968.603	0.0142743
968.682	0.0142536
968.760	0.0141988
968.838	0.0141315
968.916	0.0144207
968.994	0.0142202
969.072	0.0141103
969.150	0.0141186
969.228	0.0139037
969.307	0.0141156
969.385	0.0142341
969.463	0.0139748
969.541	0.0140475
969.619	0.0138838
969.697	0.0139445
969.775	0.0140764
969.853	0.0139478
969.932	0.0138844
