05/14/2022	19:21:05	Ver.	4.1	UNKNOWN
Optical Delay	650.009681	Delta X		0.078125	Sweeps	1	Scan Rate	0/0
Coordinates	Axis 1	NaN	Axis 2	NaN	Axis 3	NaN	Axis 4	NaN	Axis 5	NaN	Axis 6	0.000000
TX Power	0.000000	RX Power	0.000000

650.010	0.0146872
650.088	0.0148099
650.166	0.0147322
650.244	0.0146169
650.322	0.0147621
650.400	0.0147863
650.478	0.0148566
650.557	0.0146868
650.635	0.0146969
650.713	0.0145358
650.791	0.0145392
650.869	0.0146559
650.947	0.0146969
651.025	0.0145039
651.103	0.0146306
651.182	0.0144879
651.260	0.0144899
651.338	0.0146047
651.416	0.0145419
651.494	0.0145168
651.572	0.0145528
651.650	0.0146104
651.728	0.0146043
651.807	0.0145651
651.885	0.0144330
651.963	0.0145462
652.041	0.0146198
652.119	0.0145225
652.197	0.0147555
652.275	0.0144684
652.353	0.0144906
652.432	0.0145518
652.510	0.0144398
652.588	0.0144139
652.666	0.0144753
652.744	0.0145564
652.822	0.0145504
652.900	0.0143886
652.978	0.0145309
653.057	0.0145619
653.135	0.0144947
653.213	0.0145607
653.291	0.0145634
653.369	0.0144086
653.447	0.0143717
653.525	0.0143773
653.603	0.0144212
653.682	0.0145294
653.760	0.0145211
653.838	0.0144504
653.916	0.0143763
653.994	0.0143407
654.072	0.0144353
654.150	0.0145391
654.228	0.0144247
654.307	0.0143969
654.385	0.0144310
654.463	0.0144814
654.541	0.0144541
654.619	0.0144935
654.697	0.0146093
654.775	0.0144871
654.853	0.0144456
654.932	0.0144801
655.010	0.0143987
655.088	0.0142849
655.166	0.0144893
655.244	0.0145547
655.322	0.0144418
655.400	0.0143655
655.478	0.0144289
655.557	0.0143357
655.635	0.0144035
655.713	0.0144269
655.791	0.0143680
655.869	0.0144353
655.947	0.0144757
656.025	0.0143495
656.103	0.0144534
656.182	0.0143578
656.260	0.0144419
656.338	0.0144088
656.416	0.0142994
656.494	0.0144282
656.572	0.0143396
656.650	0.0143932
656.728	0.0143604
656.807	0.0144058
656.885	0.0142841
656.963	0.0143551
657.041	0.0142900
657.119	0.0144446
657.197	0.0143829
657.275	0.0145265
657.353	0.0143498
657.432	0.0144683
657.510	0.0144796
657.588	0.0143861
657.666	0.0143504
657.744	0.0144746
657.822	0.0144296
657.900	0.0145661
657.978	0.0145437
658.057	0.0142462
658.135	0.0143350
658.213	0.0143906
658.291	0.0144569
658.369	0.0144260
658.447	0.0143971
658.525	0.0145762
658.603	0.0143927
658.682	0.0142617
658.760	0.0145323
658.838	0.0146264
658.916	0.0143505
658.994	0.0143768
659.072	0.0144955
659.150	0.0144024
659.228	0.0143614
659.307	0.0144875
659.385	0.0144653
659.463	0.0143864
659.541	0.0145165
659.619	0.0144991
659.697	0.0144415
659.775	0.0144415
659.853	0.0145767
659.932	0.0145995
660.010	0.0144202
660.088	0.0146143
660.166	0.0144724
660.244	0.0145707
660.322	0.0144552
660.400	0.0145079
660.478	0.0145369
660.557	0.0146111
660.635	0.0145123
660.713	0.0146754
660.791	0.0144866
660.869	0.0144910
660.947	0.0146484
661.025	0.0145498
661.103	0.0145943
661.182	0.0145169
661.260	0.0146148
661.338	0.0146244
661.416	0.0145357
661.494	0.0144976
661.572	0.0145105
661.650	0.0144782
661.728	0.0145375
661.807	0.0144748
661.885	0.0144709
661.963	0.0144334
662.041	0.0146317
662.119	0.0145543
662.197	0.0145447
662.275	0.0145699
662.353	0.0147007
662.432	0.0145096
662.510	0.0145328
662.588	0.0145219
662.666	0.0145257
662.744	0.0145607
662.822	0.0145100
662.900	0.0145184
662.978	0.0146691
663.057	0.0146069
663.135	0.0146610
663.213	0.0145419
663.291	0.0144615
663.369	0.0146246
663.447	0.0145536
663.525	0.0145521
663.603	0.0145877
663.682	0.0146323
663.760	0.0145296
663.838	0.0145263
663.916	0.0145890
663.994	0.0145338
664.072	0.0146545
664.150	0.0147089
664.228	0.0145189
664.307	0.0146040
664.385	0.0145414
664.463	0.0146029
664.541	0.0145690
664.619	0.0145584
664.697	0.0145281
664.775	0.0145292
664.853	0.0146942
664.932	0.0147012
665.010	0.0145354
665.088	0.0146089
665.166	0.0146597
665.244	0.0145727
665.322	0.0145937
665.400	0.0144885
665.478	0.0147340
665.557	0.0145543
665.635	0.0144566
665.713	0.0146169
665.791	0.0145640
665.869	0.0145821
665.947	0.0147066
666.025	0.0146421
666.103	0.0145805
666.182	0.0146673
666.260	0.0146830
666.338	0.0145634
666.416	0.0146897
666.494	0.0147488
666.572	0.0146005
666.650	0.0145099
666.728	0.0145961
666.807	0.0145995
666.885	0.0146967
666.963	0.0146127
667.041	0.0145049
667.119	0.0145822
667.197	0.0146943
667.275	0.0146757
667.353	0.0145798
667.432	0.0146525
667.510	0.0146763
667.588	0.0145031
667.666	0.0146037
667.744	0.0147223
667.822	0.0145480
667.900	0.0147279
667.978	0.0146639
668.057	0.0145544
668.135	0.0147106
668.213	0.0146222
668.291	0.0146675
668.369	0.0145174
668.447	0.0146228
668.525	0.0146371
668.603	0.0146368
668.682	0.0147136
668.760	0.0147153
668.838	0.0145715
668.916	0.0146070
668.994	0.0146006
669.072	0.0145398
669.150	0.0146734
669.228	0.0146987
669.307	0.0147095
669.385	0.0146187
669.463	0.0146745
669.541	0.0146201
669.619	0.0146103
669.697	0.0147363
669.775	0.0145863
669.853	0.0145392
669.932	0.0144564
670.010	0.0145502
670.088	0.0146138
670.166	0.0147318
670.244	0.0146150
670.322	0.0146528
670.400	0.0145386
670.478	0.0146487
670.557	0.0145591
670.635	0.0147250
670.713	0.0145902
670.791	0.0146624
670.869	0.0147040
670.947	0.0145882
671.025	0.0145550
671.103	0.0145225
671.182	0.0145796
671.260	0.0146151
671.338	0.0145127
671.416	0.0147289
671.494	0.0147009
671.572	0.0147183
671.650	0.0145912
671.728	0.0147276
671.807	0.0146542
671.885	0.0145403
671.963	0.0145663
672.041	0.0145776
672.119	0.0145474
672.197	0.0145871
672.275	0.0146535
672.353	0.0147108
672.432	0.0146042
672.510	0.0145919
672.588	0.0146552
672.666	0.0145363
672.744	0.0145873
672.822	0.0145927
672.900	0.0144836
672.978	0.0145775
673.057	0.0146025
673.135	0.0146040
673.213	0.0145496
673.291	0.0143724
673.369	0.0145758
673.447	0.0146315
673.525	0.0144373
673.603	0.0145467
673.682	0.0145950
673.760	0.0144444
673.838	0.0144347
673.916	0.0146009
673.994	0.0145093
674.072	0.0146758
674.150	0.0146643
674.228	0.0144881
674.307	0.0144594
674.385	0.0145061
674.463	0.0145469
674.541	0.0145798
674.619	0.0145923
674.697	0.0144869
674.775	0.0146970
674.853	0.0145592
674.932	0.0146420
675.010	0.0145518
675.088	0.0145565
675.166	0.0146630
675.244	0.0146307
675.322	0.0143524
675.400	0.0145239
675.478	0.0146198
675.557	0.0147492
675.635	0.0146950
675.713	0.0146834
675.791	0.0147333
675.869	0.0146265
675.947	0.0145945
676.025	0.0145417
676.103	0.0145258
676.182	0.0145022
676.260	0.0142046
676.338	0.0141708
676.416	0.0142323
676.494	0.0140913
676.572	0.0141027
676.650	0.0141850
676.728	0.0143431
676.807	0.0145193
676.885	0.0144561
676.963	0.0146852
677.041	0.0147574
677.119	0.0149230
677.197	0.0149186
677.275	0.0151107
677.353	0.0151019
677.432	0.0149854
677.510	0.0150738
677.588	0.0148074
677.666	0.0148711
677.744	0.0149075
677.822	0.0145495
677.900	0.0146480
677.978	0.0145520
678.057	0.0144426
678.135	0.0143136
678.213	0.0143491
678.291	0.0143179
678.369	0.0141514
678.447	0.0141703
678.525	0.0140302
678.603	0.0137473
678.682	0.0138274
678.760	0.0139308
678.838	0.0139535
678.916	0.0138290
678.994	0.0137922
679.072	0.0140723
679.150	0.0140464
679.228	0.0141362
679.307	0.0142905
679.385	0.0144998
679.463	0.0146435
679.541	0.0149635
679.619	0.0150359
679.697	0.0152558
679.775	0.0153871
679.853	0.0154903
679.932	0.0157663
680.010	0.0158360
680.088	0.0159182
680.166	0.0157516
680.244	0.0157230
680.322	0.0157006
680.400	0.0153651
680.478	0.0151070
680.557	0.0149503
680.635	0.0145814
680.713	0.0144721
680.791	0.0140652
680.869	0.0136846
680.947	0.0134001
681.025	0.0131330
681.103	0.0128745
681.182	0.0127770
681.260	0.0127034
681.338	0.0126384
681.416	0.0125616
681.494	0.0129312
681.572	0.0130202
681.650	0.0132247
681.728	0.0134601
681.807	0.0138351
681.885	0.0140982
681.963	0.0144508
682.041	0.0146151
682.119	0.0148697
682.197	0.0153014
682.275	0.0155203
682.353	0.0157110
682.432	0.0160131
682.510	0.0161618
682.588	0.0163811
682.666	0.0163984
682.744	0.0165303
682.822	0.0165225
682.900	0.0162706
682.978	0.0162155
683.057	0.0161259
683.135	0.0158560
683.213	0.0155099
683.291	0.0152604
683.369	0.0150072
683.447	0.0146455
683.525	0.0143303
683.603	0.0140860
683.682	0.0138709
683.760	0.0135664
683.838	0.0133986
683.916	0.0131988
683.994	0.0130888
684.072	0.0128493
684.150	0.0128197
684.228	0.0128397
684.307	0.0126137
684.385	0.0126924
684.463	0.0128858
684.541	0.0127827
684.619	0.0130465
684.697	0.0132681
684.775	0.0135157
684.853	0.0136949
684.932	0.0140040
685.010	0.0140667
685.088	0.0143620
685.166	0.0147901
685.244	0.0149206
685.322	0.0151770
685.400	0.0154033
685.478	0.0154240
685.557	0.0156912
685.635	0.0158618
685.713	0.0158857
685.791	0.0158876
685.869	0.0158978
685.947	0.0159888
686.025	0.0158982
686.103	0.0157130
686.182	0.0156858
686.260	0.0154090
686.338	0.0154085
686.416	0.0151588
686.494	0.0150832
686.572	0.0147496
686.650	0.0144753
686.728	0.0142269
686.807	0.0141396
686.885	0.0142529
686.963	0.0141573
687.041	0.0140063
687.119	0.0140446
687.197	0.0141467
687.275	0.0142574
687.353	0.0143909
687.432	0.0143120
687.510	0.0142801
687.588	0.0144614
687.666	0.0144276
687.744	0.0145362
687.822	0.0146498
687.900	0.0146531
687.978	0.0144949
688.057	0.0144652
688.135	0.0144904
688.213	0.0143937
688.291	0.0141098
688.369	0.0140116
688.447	0.0139496
688.525	0.0137740
688.603	0.0135595
688.682	0.0134485
688.760	0.0132472
688.838	0.0131818
688.916	0.0130572
688.994	0.0129788
689.072	0.0131136
689.150	0.0132012
689.228	0.0134290
689.307	0.0135301
689.385	0.0138737
689.463	0.0140642
689.541	0.0143559
689.619	0.0147564
689.697	0.0150067
689.775	0.0152081
689.853	0.0155596
689.932	0.0157575
690.010	0.0159329
690.088	0.0160506
690.166	0.0163675
690.244	0.0164183
690.322	0.0164386
690.400	0.0165386
690.478	0.0165024
690.557	0.0164194
690.635	0.0163188
690.713	0.0161921
690.791	0.0159440
690.869	0.0157796
690.947	0.0155376
691.025	0.0154398
691.103	0.0153122
691.182	0.0148454
691.260	0.0146226
691.338	0.0143454
691.416	0.0139524
691.494	0.0135385
691.572	0.0132805
691.650	0.0132668
691.728	0.0130584
691.807	0.0128870
691.885	0.0128074
691.963	0.0128770
692.041	0.0130894
692.119	0.0132159
692.197	0.0134543
692.275	0.0136269
692.353	0.0140096
692.432	0.0142481
692.510	0.0143602
692.588	0.0143232
692.666	0.0145805
692.744	0.0145670
692.822	0.0145440
692.900	0.0143910
692.978	0.0145804
693.057	0.0144236
693.135	0.0146120
693.213	0.0146251
693.291	0.0146047
693.369	0.0146835
693.447	0.0148221
693.525	0.0147822
693.603	0.0149525
693.682	0.0148647
693.760	0.0147555
693.838	0.0146688
693.916	0.0145657
693.994	0.0142184
694.072	0.0139904
694.150	0.0139549
694.228	0.0137192
694.307	0.0134948
694.385	0.0132912
694.463	0.0134066
694.541	0.0136947
694.619	0.0139222
694.697	0.0142950
694.775	0.0146960
694.853	0.0151173
694.932	0.0154755
695.010	0.0158784
695.088	0.0162202
695.166	0.0164333
695.244	0.0165907
695.322	0.0167805
695.400	0.0168872
695.478	0.0168703
695.557	0.0168736
695.635	0.0169099
695.713	0.0168094
695.791	0.0167987
695.869	0.0166482
695.947	0.0165205
696.025	0.0162510
696.103	0.0160974
696.182	0.0158530
696.260	0.0155748
696.338	0.0150607
696.416	0.0147939
696.494	0.0143206
696.572	0.0141161
696.650	0.0136520
696.728	0.0133429
696.807	0.0130701
696.885	0.0126177
696.963	0.0123475
697.041	0.0124184
697.119	0.0122310
697.197	0.0121088
697.275	0.0120837
697.353	0.0122567
697.432	0.0122221
697.510	0.0124172
697.588	0.0124865
697.666	0.0126674
697.744	0.0126958
697.822	0.0127591
697.900	0.0129745
697.978	0.0130127
698.057	0.0132423
698.135	0.0134592
698.213	0.0136095
698.291	0.0137406
698.369	0.0139265
698.447	0.0142321
698.525	0.0146217
698.603	0.0148698
698.682	0.0150723
698.760	0.0152647
698.838	0.0154366
698.916	0.0154713
698.994	0.0155732
699.072	0.0155630
699.150	0.0155437
699.228	0.0156807
699.307	0.0157877
699.385	0.0157468
699.463	0.0157655
699.541	0.0157661
699.619	0.0155930
699.697	0.0157034
699.775	0.0157318
699.853	0.0158469
699.932	0.0157887
700.010	0.0158934
700.088	0.0162524
700.166	0.0160800
700.244	0.0161942
700.322	0.0162737
700.400	0.0163620
700.478	0.0162710
700.557	0.0162627
700.635	0.0162665
700.713	0.0160864
700.791	0.0157578
700.869	0.0155905
700.947	0.0155556
701.025	0.0151106
701.103	0.0149152
701.182	0.0146265
701.260	0.0143291
701.338	0.0142832
701.416	0.0142717
701.494	0.0138840
701.572	0.0136622
701.650	0.0135339
701.728	0.0133317
701.807	0.0132777
701.885	0.0132363
701.963	0.0131776
702.041	0.0132016
702.119	0.0132127
702.197	0.0132465
702.275	0.0132986
702.353	0.0132359
702.432	0.0131926
702.510	0.0134262
702.588	0.0132741
702.666	0.0131696
702.744	0.0132499
702.822	0.0131693
702.900	0.0130144
702.978	0.0130285
703.057	0.0130025
703.135	0.0129163
703.213	0.0129309
703.291	0.0128861
703.369	0.0127573
703.447	0.0129403
703.525	0.0130068
703.603	0.0131046
703.682	0.0130663
703.760	0.0130289
703.838	0.0130839
703.916	0.0131748
703.994	0.0131927
704.072	0.0132536
704.150	0.0136153
704.228	0.0135100
704.307	0.0135518
704.385	0.0138232
704.463	0.0139396
704.541	0.0139648
704.619	0.0142360
704.697	0.0144766
704.775	0.0147080
704.853	0.0151175
704.932	0.0152905
705.010	0.0155878
705.088	0.0160316
705.166	0.0164033
705.244	0.0167159
705.322	0.0172130
705.400	0.0177174
705.478	0.0184047
705.557	0.0188440
705.635	0.0192400
705.713	0.0196987
705.791	0.0200951
705.869	0.0203690
705.947	0.0204198
706.025	0.0204913
706.103	0.0205109
706.182	0.0201138
706.260	0.0197308
706.338	0.0192755
706.416	0.0185313
706.494	0.0178059
706.572	0.0168452
706.650	0.0160865
706.728	0.0151864
706.807	0.0141876
706.885	0.0133640
706.963	0.0123823
707.041	0.0115322
707.119	0.0107332
707.197	0.0101187
707.275	0.00932411
707.353	0.00864250
707.432	0.00830544
707.510	0.00788673
707.588	0.00744057
707.666	0.00743950
707.744	0.00734818
707.822	0.00745743
707.900	0.00744019
707.978	0.00772110
708.057	0.00825172
708.135	0.00873741
708.213	0.00926949
708.291	0.00991394
708.369	0.0105829
708.447	0.0110442
708.525	0.0118338
708.603	0.0124831
708.682	0.0131287
708.760	0.0139736
708.838	0.0145518
708.916	0.0152454
708.994	0.0158526
709.072	0.0163689
709.150	0.0169787
709.228	0.0173586
709.307	0.0178439
709.385	0.0180856
709.463	0.0184885
709.541	0.0187442
709.619	0.0188947
709.697	0.0190714
709.775	0.0191364
709.853	0.0191137
709.932	0.0191905
710.010	0.0190898
710.088	0.0190262
710.166	0.0190808
710.244	0.0188117
710.322	0.0186721
710.400	0.0184978
710.478	0.0183167
710.557	0.0180231
710.635	0.0175827
710.713	0.0171536
710.791	0.0167947
710.869	0.0163067
710.947	0.0159290
711.025	0.0155836
711.103	0.0153864
711.182	0.0150249
711.260	0.0147368
711.338	0.0146165
711.416	0.0146880
711.494	0.0145097
711.572	0.0145099
711.650	0.0144511
711.728	0.0144300
711.807	0.0142476
711.885	0.0141328
711.963	0.0137430
712.041	0.0133641
712.119	0.0129935
712.197	0.0126870
712.275	0.0122830
712.353	0.0118610
712.432	0.0113959
712.510	0.0108197
712.588	0.0105893
712.666	0.0104005
712.744	0.0101479
712.822	0.0100622
712.900	0.0100300
712.978	0.0102014
713.057	0.0103266
713.135	0.0106728
713.213	0.0109070
713.291	0.0115272
713.369	0.0119662
713.447	0.0126252
713.525	0.0131113
713.603	0.0137122
713.682	0.0141264
713.760	0.0147025
713.838	0.0150475
713.916	0.0155128
713.994	0.0158031
714.072	0.0160492
714.150	0.0162275
714.228	0.0161517
714.307	0.0159637
714.385	0.0160707
714.463	0.0158439
714.541	0.0157220
714.619	0.0155399
714.697	0.0152532
714.775	0.0152567
714.853	0.0150569
714.932	0.0147720
715.010	0.0147897
715.088	0.0147747
715.166	0.0147180
715.244	0.0148816
715.322	0.0150051
715.400	0.0151266
715.478	0.0152071
715.557	0.0153181
715.635	0.0157197
715.713	0.0159521
715.791	0.0161690
715.869	0.0162426
715.947	0.0163978
716.025	0.0167058
716.103	0.0168961
716.182	0.0169203
716.260	0.0167339
716.338	0.0167900
716.416	0.0168764
716.494	0.0166257
716.572	0.0165705
716.650	0.0163930
716.728	0.0161719
716.807	0.0160564
716.885	0.0160056
716.963	0.0158642
717.041	0.0157454
717.119	0.0157710
717.197	0.0158144
717.275	0.0158752
717.353	0.0157449
717.432	0.0155077
717.510	0.0153675
717.588	0.0152135
717.666	0.0149841
717.744	0.0147395
717.822	0.0143030
717.900	0.0137653
717.978	0.0133599
718.057	0.0130292
718.135	0.0125103
718.213	0.0120700
718.291	0.0115958
718.369	0.0113178
718.447	0.0109257
718.525	0.0108051
718.603	0.0107419
718.682	0.0107918
718.760	0.0109543
718.838	0.0110352
718.916	0.0113605
718.994	0.0118370
719.072	0.0122314
719.150	0.0126242
719.228	0.0129610
719.307	0.0135876
719.385	0.0139863
719.463	0.0143797
719.541	0.0146708
719.619	0.0150992
719.697	0.0152789
719.775	0.0154364
719.853	0.0152963
719.932	0.0152318
720.010	0.0151898
720.088	0.0150032
720.166	0.0147382
720.244	0.0144315
720.322	0.0142796
720.400	0.0140427
720.478	0.0138052
720.557	0.0136678
720.635	0.0136443
720.713	0.0136641
720.791	0.0136251
720.869	0.0139262
720.947	0.0140400
721.025	0.0141904
721.103	0.0143825
721.182	0.0146946
721.260	0.0149660
721.338	0.0152242
721.416	0.0153965
721.494	0.0156054
721.572	0.0158483
721.650	0.0161086
721.728	0.0161900
721.807	0.0163419
721.885	0.0166230
721.963	0.0167238
722.041	0.0169534
722.119	0.0171761
722.197	0.0173459
722.275	0.0174040
722.353	0.0174256
722.432	0.0175784
722.510	0.0176493
722.588	0.0175964
722.666	0.0177091
722.744	0.0177694
722.822	0.0175563
722.900	0.0175510
722.978	0.0174483
723.057	0.0173524
723.135	0.0172271
723.213	0.0170937
723.291	0.0166737
723.369	0.0163805
723.447	0.0161832
723.525	0.0157983
723.603	0.0153185
723.682	0.0148013
723.760	0.0143291
723.838	0.0137404
723.916	0.0132442
723.994	0.0127090
724.072	0.0123411
724.150	0.0118825
724.228	0.0114976
724.307	0.0109697
724.385	0.0106629
724.463	0.0104544
724.541	0.0102458
724.619	0.0101422
724.697	0.0102575
724.775	0.0101781
724.853	0.0102467
724.932	0.0104785
725.010	0.0106767
725.088	0.0110969
725.166	0.0114404
725.244	0.0117031
725.322	0.0119582
725.400	0.0123528
725.478	0.0126426
725.557	0.0128598
725.635	0.0132066
725.713	0.0134921
725.791	0.0136172
725.869	0.0137543
725.947	0.0138527
726.025	0.0140256
726.103	0.0140466
726.182	0.0143108
726.260	0.0143015
726.338	0.0144424
726.416	0.0144884
726.494	0.0145464
726.572	0.0147169
726.650	0.0148503
726.728	0.0150513
726.807	0.0151946
726.885	0.0154971
726.963	0.0157487
727.041	0.0159642
727.119	0.0162257
727.197	0.0166262
727.275	0.0168060
727.353	0.0170235
727.432	0.0171973
727.510	0.0173032
727.588	0.0175973
727.666	0.0176074
727.744	0.0177414
727.822	0.0179114
727.900	0.0177740
727.978	0.0177379
728.057	0.0177740
728.135	0.0178534
728.213	0.0175717
728.291	0.0174979
728.369	0.0174589
728.447	0.0172908
728.525	0.0171299
728.603	0.0170406
728.682	0.0170312
728.760	0.0168211
728.838	0.0164763
728.916	0.0163720
728.994	0.0162115
729.072	0.0159365
729.150	0.0156033
729.228	0.0153696
729.307	0.0150661
729.385	0.0146185
729.463	0.0144633
729.541	0.0140076
729.619	0.0137039
729.697	0.0133289
729.775	0.0130154
729.853	0.0126403
729.932	0.0123577
730.010	0.0121004
730.088	0.0117721
730.166	0.0116174
730.244	0.0114857
730.322	0.0113538
730.400	0.0111915
730.478	0.0111296
730.557	0.0111758
730.635	0.0113396
730.713	0.0115489
730.791	0.0115114
730.869	0.0115607
730.947	0.0117249
731.025	0.0120382
731.103	0.0121095
731.182	0.0122005
731.260	0.0123154
731.338	0.0124398
731.416	0.0125618
731.494	0.0127733
731.572	0.0127836
731.650	0.0128156
731.728	0.0128547
731.807	0.0130537
731.885	0.0131004
731.963	0.0132327
732.041	0.0133624
732.119	0.0136401
732.197	0.0137531
732.275	0.0140772
732.353	0.0143403
732.432	0.0145135
732.510	0.0149146
732.588	0.0152474
732.666	0.0154876
732.744	0.0158484
732.822	0.0162913
732.900	0.0163601
732.978	0.0166080
733.057	0.0167430
733.135	0.0168369
733.213	0.0172095
733.291	0.0173709
733.369	0.0173524
733.447	0.0171702
733.525	0.0173913
733.603	0.0173882
733.682	0.0173573
733.760	0.0173094
733.838	0.0174110
733.916	0.0174238
733.994	0.0173075
734.072	0.0173569
734.150	0.0171669
734.228	0.0169829
734.307	0.0170935
734.385	0.0170187
734.463	0.0167544
734.541	0.0165684
734.619	0.0167368
734.697	0.0165261
734.775	0.0161597
734.853	0.0159665
734.932	0.0158315
735.010	0.0155721
735.088	0.0153304
735.166	0.0150246
735.244	0.0147468
735.322	0.0147134
735.400	0.0142135
735.478	0.0141719
735.557	0.0139425
735.635	0.0136714
735.713	0.0133805
735.791	0.0131095
735.869	0.0130192
735.947	0.0128452
736.025	0.0127901
736.103	0.0125783
736.182	0.0124625
736.260	0.0124382
736.338	0.0123418
736.416	0.0122968
736.494	0.0121686
736.572	0.0121986
736.650	0.0122202
736.728	0.0120850
736.807	0.0120097
736.885	0.0119794
736.963	0.0119184
737.041	0.0118374
737.119	0.0117065
737.197	0.0118248
737.275	0.0117962
737.353	0.0117541
737.432	0.0119776
737.510	0.0119792
737.588	0.0120605
737.666	0.0121516
737.744	0.0124384
737.822	0.0125599
737.900	0.0129828
737.978	0.0131540
738.057	0.0133892
738.135	0.0140091
738.213	0.0143393
738.291	0.0146344
738.369	0.0148793
738.447	0.0153221
738.525	0.0155854
738.603	0.0158180
738.682	0.0161922
738.760	0.0163567
738.838	0.0164629
738.916	0.0167274
738.994	0.0168301
739.072	0.0168346
739.150	0.0170980
739.228	0.0170519
739.307	0.0170974
739.385	0.0169653
739.463	0.0170676
739.541	0.0169415
739.619	0.0170137
739.697	0.0168153
739.775	0.0166946
739.853	0.0165024
739.932	0.0163531
740.010	0.0165039
740.088	0.0162601
740.166	0.0161639
740.244	0.0161243
740.322	0.0161002
740.400	0.0160658
740.478	0.0159091
740.557	0.0157604
740.635	0.0157244
740.713	0.0155826
740.791	0.0154565
740.869	0.0154051
740.947	0.0152183
741.025	0.0150942
741.103	0.0149665
741.182	0.0147365
741.260	0.0145551
741.338	0.0145379
741.416	0.0144520
741.494	0.0140736
741.572	0.0139209
741.650	0.0139196
741.728	0.0137255
741.807	0.0137685
741.885	0.0136261
741.963	0.0136153
742.041	0.0134337
742.119	0.0134096
742.197	0.0135160
742.275	0.0133991
742.353	0.0133555
742.432	0.0134349
742.510	0.0132671
742.588	0.0133681
742.666	0.0131702
742.744	0.0132078
742.822	0.0130859
742.900	0.0130705
742.978	0.0131222
743.057	0.0130062
743.135	0.0129306
743.213	0.0128491
743.291	0.0128260
743.369	0.0128889
743.447	0.0127458
743.525	0.0128864
743.603	0.0128761
743.682	0.0130283
743.760	0.0131396
743.838	0.0131435
743.916	0.0133041
743.994	0.0135863
744.072	0.0137215
744.150	0.0138581
744.228	0.0138747
744.307	0.0141955
744.385	0.0144679
744.463	0.0146722
744.541	0.0147348
744.619	0.0150101
744.697	0.0152180
744.775	0.0153656
744.853	0.0153244
744.932	0.0155285
745.010	0.0156498
745.088	0.0156730
745.166	0.0157820
745.244	0.0158531
745.322	0.0159156
745.400	0.0159718
745.478	0.0159997
745.557	0.0160246
745.635	0.0159578
745.713	0.0159859
745.791	0.0160940
745.869	0.0159568
745.947	0.0159833
746.025	0.0159296
746.103	0.0158655
746.182	0.0159871
746.260	0.0159618
746.338	0.0159184
746.416	0.0158740
746.494	0.0160384
746.572	0.0157426
746.650	0.0156024
746.728	0.0154379
746.807	0.0155173
746.885	0.0153863
746.963	0.0152303
747.041	0.0151319
747.119	0.0151192
747.197	0.0151125
747.275	0.0150270
747.353	0.0148849
747.432	0.0147529
747.510	0.0145808
747.588	0.0145689
747.666	0.0146230
747.744	0.0146121
747.822	0.0145393
747.900	0.0144193
747.978	0.0142971
748.057	0.0145119
748.135	0.0143410
748.213	0.0142184
748.291	0.0141306
748.369	0.0141658
748.447	0.0139145
748.525	0.0140369
748.603	0.0140810
748.682	0.0138589
748.760	0.0138063
748.838	0.0137755
748.916	0.0136275
748.994	0.0135034
749.072	0.0134853
749.150	0.0134815
749.228	0.0133011
749.307	0.0134481
749.385	0.0135638
749.463	0.0134793
749.541	0.0135146
749.619	0.0135909
749.697	0.0136446
749.775	0.0136313
749.853	0.0138233
749.932	0.0137307
750.010	0.0138734
750.088	0.0139050
750.166	0.0138341
750.244	0.0139937
750.322	0.0140912
750.400	0.0141058
750.478	0.0140714
750.557	0.0140760
750.635	0.0140823
750.713	0.0143050
750.791	0.0141971
750.869	0.0142234
750.947	0.0143281
751.025	0.0142654
751.103	0.0144527
751.182	0.0145354
751.260	0.0146773
751.338	0.0145827
751.416	0.0147516
751.494	0.0148878
751.572	0.0148878
751.650	0.0149669
751.728	0.0151540
751.807	0.0151773
751.885	0.0151863
751.963	0.0152377
752.041	0.0151495
752.119	0.0152334
752.197	0.0153061
752.275	0.0151821
752.353	0.0153425
752.432	0.0153677
752.510	0.0153603
752.588	0.0153957
752.666	0.0153132
752.744	0.0152778
752.822	0.0151892
752.900	0.0151762
752.978	0.0150722
753.057	0.0150713
753.135	0.0150085
753.213	0.0150347
753.291	0.0148261
753.369	0.0148862
753.447	0.0150505
753.525	0.0149692
753.603	0.0150191
753.682	0.0152069
753.760	0.0152475
753.838	0.0153236
753.916	0.0154282
753.994	0.0151707
754.072	0.0153255
754.150	0.0155168
754.228	0.0153078
754.307	0.0151508
754.385	0.0152282
754.463	0.0150792
754.541	0.0150662
754.619	0.0149576
754.697	0.0148354
754.775	0.0146265
754.853	0.0145239
754.932	0.0143829
755.010	0.0142872
755.088	0.0141977
755.166	0.0139766
755.244	0.0140090
755.322	0.0137362
755.400	0.0137963
755.478	0.0138730
755.557	0.0136567
755.635	0.0138030
755.713	0.0138454
755.791	0.0139947
755.869	0.0138657
755.947	0.0137588
756.025	0.0139249
756.103	0.0140083
756.182	0.0140549
756.260	0.0139639
756.338	0.0139845
756.416	0.0139596
756.494	0.0138988
756.572	0.0138020
756.650	0.0138348
756.728	0.0135638
756.807	0.0136357
756.885	0.0137012
756.963	0.0134315
757.041	0.0134861
757.119	0.0132693
757.197	0.0134299
757.275	0.0134772
757.353	0.0134501
757.432	0.0135269
757.510	0.0135954
757.588	0.0136958
757.666	0.0137398
757.744	0.0138468
757.822	0.0140153
757.900	0.0141451
757.978	0.0143951
758.057	0.0145692
758.135	0.0147000
758.213	0.0150143
758.291	0.0150191
758.369	0.0151506
758.447	0.0153149
758.525	0.0154150
758.603	0.0154431
758.682	0.0153732
758.760	0.0154695
758.838	0.0156094
758.916	0.0156270
758.994	0.0153572
759.072	0.0153086
759.150	0.0153411
759.228	0.0152306
759.307	0.0152923
759.385	0.0152890
759.463	0.0153220
759.541	0.0152094
759.619	0.0152442
759.697	0.0151332
759.775	0.0149926
759.853	0.0152615
759.932	0.0150323
760.010	0.0150615
760.088	0.0150973
760.166	0.0151142
760.244	0.0150921
760.322	0.0150438
760.400	0.0150642
760.478	0.0151443
760.557	0.0151745
760.635	0.0150919
760.713	0.0151380
760.791	0.0149866
760.869	0.0150027
760.947	0.0148824
761.025	0.0148913
761.103	0.0147015
761.182	0.0145936
761.260	0.0145468
761.338	0.0145668
761.416	0.0144781
761.494	0.0145397
761.572	0.0144158
761.650	0.0141418
761.728	0.0141582
761.807	0.0141384
761.885	0.0141461
761.963	0.0139858
762.041	0.0139403
762.119	0.0140621
762.197	0.0139355
762.275	0.0139157
762.353	0.0138631
762.432	0.0139978
762.510	0.0138026
762.588	0.0139260
762.666	0.0138655
762.744	0.0139061
762.822	0.0139437
762.900	0.0139358
762.978	0.0138577
763.057	0.0140159
763.135	0.0139429
763.213	0.0138596
763.291	0.0140160
763.369	0.0138791
763.447	0.0141158
763.525	0.0139634
763.603	0.0138743
763.682	0.0139670
763.760	0.0139470
763.838	0.0139759
763.916	0.0141394
763.994	0.0140791
764.072	0.0140835
764.150	0.0141944
764.228	0.0143629
764.307	0.0141167
764.385	0.0143583
764.463	0.0144659
764.541	0.0143425
764.619	0.0143892
764.697	0.0145464
764.775	0.0144441
764.853	0.0145687
764.932	0.0146737
765.010	0.0146606
765.088	0.0146420
765.166	0.0146796
765.244	0.0146863
765.322	0.0146270
765.400	0.0149359
765.478	0.0147729
765.557	0.0148215
765.635	0.0147968
765.713	0.0149194
765.791	0.0148862
765.869	0.0150373
765.947	0.0150135
766.025	0.0150612
766.103	0.0150860
766.182	0.0149976
766.260	0.0150840
766.338	0.0152191
766.416	0.0151514
766.494	0.0152153
766.572	0.0152679
766.650	0.0151237
766.728	0.0153164
766.807	0.0151733
766.885	0.0150518
766.963	0.0150052
767.041	0.0150983
767.119	0.0150985
767.197	0.0148967
767.275	0.0148772
767.353	0.0148317
767.432	0.0146828
767.510	0.0146412
767.588	0.0147182
767.666	0.0146666
767.744	0.0145591
767.822	0.0145798
767.900	0.0144596
767.978	0.0146458
768.057	0.0144664
768.135	0.0146734
768.213	0.0145399
768.291	0.0145300
768.369	0.0145335
768.447	0.0145522
768.525	0.0144675
768.603	0.0144344
768.682	0.0144450
768.760	0.0145464
768.838	0.0145578
768.916	0.0144341
768.994	0.0145236
769.072	0.0143584
769.150	0.0145088
769.228	0.0143948
769.307	0.0142634
769.385	0.0141036
769.463	0.0142731
769.541	0.0142161
769.619	0.0142447
769.697	0.0141527
769.775	0.0141946
769.853	0.0140361
769.932	0.0142252
770.010	0.0141431
770.088	0.0139996
770.166	0.0140709
770.244	0.0140487
770.322	0.0141564
770.400	0.0141315
770.478	0.0139845
770.557	0.0140559
770.635	0.0140479
770.713	0.0139555
770.791	0.0140892
770.869	0.0140434
770.947	0.0140582
771.025	0.0141577
771.103	0.0139908
771.182	0.0142284
771.260	0.0142159
771.338	0.0142851
771.416	0.0143675
771.494	0.0144881
771.572	0.0145673
771.650	0.0147966
771.728	0.0147174
771.807	0.0146152
771.885	0.0148173
771.963	0.0149285
772.041	0.0150356
772.119	0.0149336
772.197	0.0150732
772.275	0.0149294
772.353	0.0151559
772.432	0.0151454
772.510	0.0150510
772.588	0.0150150
772.666	0.0148792
772.744	0.0149536
772.822	0.0149860
772.900	0.0148574
772.978	0.0146772
773.057	0.0149730
773.135	0.0147374
773.213	0.0146828
773.291	0.0146825
773.369	0.0147803
773.447	0.0147526
773.525	0.0146961
773.603	0.0146767
773.682	0.0149504
773.760	0.0147957
773.838	0.0149669
773.916	0.0148751
773.994	0.0149828
774.072	0.0151186
774.150	0.0151662
774.228	0.0150478
774.307	0.0149710
774.385	0.0152128
774.463	0.0152177
774.541	0.0151240
774.619	0.0151101
774.697	0.0150398
774.775	0.0150484
774.853	0.0149138
774.932	0.0149954
775.010	0.0149105
775.088	0.0147514
775.166	0.0148015
775.244	0.0147684
775.322	0.0144530
775.400	0.0145001
775.478	0.0144570
775.557	0.0144037
775.635	0.0143581
775.713	0.0143195
775.791	0.0141788
775.869	0.0141345
775.947	0.0141710
776.025	0.0140630
776.103	0.0140514
776.182	0.0140693
776.260	0.0140775
776.338	0.0140218
776.416	0.0140684
776.494	0.0142704
776.572	0.0140434
776.650	0.0141903
776.728	0.0142062
776.807	0.0141183
776.885	0.0143498
776.963	0.0142637
777.041	0.0142166
777.119	0.0141657
777.197	0.0140240
777.275	0.0142033
777.353	0.0141108
777.432	0.0140221
777.510	0.0140337
777.588	0.0141344
777.666	0.0141141
777.744	0.0141840
777.822	0.0140580
777.900	0.0141305
777.978	0.0141410
778.057	0.0142513
778.135	0.0141621
778.213	0.0142044
778.291	0.0142263
778.369	0.0141558
778.447	0.0143605
778.525	0.0144775
778.603	0.0145529
778.682	0.0146049
778.760	0.0146238
778.838	0.0147858
778.916	0.0148480
778.994	0.0150940
779.072	0.0150371
779.150	0.0150359
779.228	0.0151364
779.307	0.0151376
779.385	0.0151410
779.463	0.0151950
779.541	0.0152725
779.619	0.0151632
779.697	0.0150317
779.775	0.0149549
779.853	0.0150845
779.932	0.0150298
780.010	0.0149773
780.088	0.0150500
780.166	0.0149831
780.244	0.0148158
780.322	0.0147806
780.400	0.0146528
780.478	0.0145851
780.557	0.0145891
780.635	0.0144891
780.713	0.0146522
780.791	0.0143550
780.869	0.0144102
780.947	0.0144601
781.025	0.0144464
781.103	0.0144228
781.182	0.0143087
781.260	0.0142415
781.338	0.0144000
781.416	0.0143084
781.494	0.0143932
781.572	0.0143020
781.650	0.0143154
781.728	0.0144799
781.807	0.0143888
781.885	0.0143913
781.963	0.0143723
782.041	0.0144270
782.119	0.0146184
782.197	0.0144833
782.275	0.0144122
782.353	0.0145045
782.432	0.0145644
782.510	0.0145713
782.588	0.0145211
782.666	0.0146350
782.744	0.0146021
782.822	0.0146433
782.900	0.0146175
782.978	0.0145745
783.057	0.0145103
783.135	0.0144164
783.213	0.0143198
783.291	0.0144128
783.369	0.0144540
783.447	0.0144105
783.525	0.0143932
783.603	0.0142674
783.682	0.0141776
783.760	0.0142321
783.838	0.0141891
783.916	0.0141122
783.994	0.0140807
784.072	0.0140852
784.150	0.0140880
784.228	0.0140626
784.307	0.0139156
784.385	0.0140423
784.463	0.0140652
784.541	0.0142154
784.619	0.0141145
784.697	0.0141554
784.775	0.0142472
784.853	0.0142190
784.932	0.0141096
785.010	0.0142903
785.088	0.0143568
785.166	0.0143343
785.244	0.0144199
785.322	0.0145316
785.400	0.0143806
785.478	0.0143118
785.557	0.0143428
785.635	0.0144630
785.713	0.0145712
785.791	0.0146632
785.869	0.0147826
785.947	0.0146908
786.025	0.0147501
786.103	0.0148095
786.182	0.0147495
786.260	0.0149163
786.338	0.0149892
786.416	0.0151751
786.494	0.0149646
786.572	0.0150518
786.650	0.0151208
786.728	0.0151305
786.807	0.0150274
786.885	0.0151354
786.963	0.0151289
787.041	0.0151556
787.119	0.0150774
787.197	0.0150349
787.275	0.0149741
787.353	0.0150282
787.432	0.0150492
787.510	0.0147977
787.588	0.0149004
787.666	0.0146951
787.744	0.0146661
787.822	0.0144603
787.900	0.0147002
787.978	0.0145284
788.057	0.0145564
788.135	0.0143940
788.213	0.0143159
788.291	0.0144024
788.369	0.0143469
788.447	0.0142708
788.525	0.0142785
788.603	0.0141854
788.682	0.0142010
788.760	0.0143213
788.838	0.0142920
788.916	0.0142805
788.994	0.0142984
789.072	0.0144103
789.150	0.0144946
789.228	0.0145275
789.307	0.0143764
789.385	0.0144711
789.463	0.0146267
789.541	0.0147160
789.619	0.0146997
789.697	0.0146251
789.775	0.0148376
789.853	0.0147752
789.932	0.0146915
790.010	0.0147709
790.088	0.0145862
790.166	0.0146339
790.244	0.0145826
790.322	0.0143767
790.400	0.0145339
790.478	0.0144568
790.557	0.0143520
790.635	0.0145729
790.713	0.0143506
790.791	0.0142825
790.869	0.0142781
790.947	0.0142898
791.025	0.0142535
791.103	0.0143339
791.182	0.0144462
791.260	0.0144205
791.338	0.0144629
791.416	0.0145447
791.494	0.0145747
791.572	0.0145436
791.650	0.0145058
791.728	0.0144661
791.807	0.0146064
791.885	0.0146240
791.963	0.0145557
792.041	0.0146254
792.119	0.0146283
792.197	0.0144550
792.275	0.0145767
792.353	0.0146513
792.432	0.0146018
792.510	0.0145085
792.588	0.0146605
792.666	0.0145746
792.744	0.0145586
792.822	0.0144565
792.900	0.0144500
792.978	0.0144923
793.057	0.0144709
793.135	0.0143678
793.213	0.0143884
793.291	0.0144565
793.369	0.0143697
793.447	0.0144274
793.525	0.0144284
793.603	0.0145043
793.682	0.0144038
793.760	0.0145742
793.838	0.0145984
793.916	0.0145206
793.994	0.0144905
794.072	0.0145345
794.150	0.0146984
794.228	0.0145400
794.307	0.0144646
794.385	0.0145470
794.463	0.0146522
794.541	0.0146744
794.619	0.0148335
794.697	0.0147869
794.775	0.0148132
794.853	0.0148366
794.932	0.0149417
795.010	0.0148157
795.088	0.0148803
795.166	0.0149056
795.244	0.0149470
795.322	0.0149004
795.400	0.0148585
795.478	0.0148201
795.557	0.0148411
795.635	0.0146918
795.713	0.0148244
795.791	0.0148594
795.869	0.0148205
795.947	0.0146250
796.025	0.0146226
796.103	0.0147243
796.182	0.0147131
796.260	0.0146430
796.338	0.0145701
796.416	0.0146688
796.494	0.0145818
796.572	0.0145518
796.650	0.0145731
796.728	0.0144645
796.807	0.0144707
796.885	0.0144000
796.963	0.0143371
797.041	0.0144170
797.119	0.0143400
797.197	0.0143777
797.275	0.0144182
797.353	0.0144241
797.432	0.0145401
797.510	0.0145248
797.588	0.0143894
797.666	0.0145118
797.744	0.0144746
797.822	0.0144515
797.900	0.0144502
797.978	0.0144019
798.057	0.0144917
798.135	0.0144678
798.213	0.0144516
798.291	0.0145161
798.369	0.0143995
798.447	0.0144808
798.525	0.0143110
798.603	0.0143829
798.682	0.0143317
798.760	0.0142406
798.838	0.0143817
798.916	0.0143760
798.994	0.0140179
799.072	0.0141656
799.150	0.0141974
799.228	0.0142295
799.307	0.0142203
799.385	0.0143981
799.463	0.0143952
799.541	0.0142049
799.619	0.0143233
799.697	0.0143248
799.775	0.0143596
799.853	0.0143854
799.932	0.0142995
800.010	0.0143243
800.088	0.0144504
800.166	0.0142792
800.244	0.0144521
800.322	0.0145000
800.400	0.0144717
800.478	0.0144087
800.557	0.0144484
800.635	0.0144039
800.713	0.0144279
800.791	0.0144303
800.869	0.0143478
800.947	0.0144756
801.025	0.0144032
801.103	0.0144567
801.182	0.0146440
801.260	0.0145522
801.338	0.0145393
801.416	0.0147593
801.494	0.0148227
801.572	0.0148765
801.650	0.0150298
801.728	0.0149347
801.807	0.0150865
801.885	0.0152020
801.963	0.0151090
802.041	0.0152441
802.119	0.0153719
802.197	0.0153174
802.275	0.0153185
802.353	0.0154025
802.432	0.0155180
802.510	0.0152891
802.588	0.0152360
802.666	0.0152073
802.744	0.0151373
802.822	0.0149868
802.900	0.0150423
802.978	0.0148857
803.057	0.0147145
803.135	0.0146583
803.213	0.0146164
803.291	0.0144718
803.369	0.0142686
803.447	0.0142917
803.525	0.0142826
803.603	0.0140674
803.682	0.0140475
803.760	0.0139220
803.838	0.0139117
803.916	0.0138741
803.994	0.0137343
804.072	0.0137747
804.150	0.0136900
804.228	0.0135944
804.307	0.0135219
804.385	0.0136911
804.463	0.0136636
804.541	0.0136770
804.619	0.0137901
804.697	0.0137766
804.775	0.0138514
804.853	0.0139877
804.932	0.0139941
805.010	0.0141164
805.088	0.0143086
805.166	0.0142562
805.244	0.0142644
805.322	0.0145316
805.400	0.0145956
805.478	0.0145131
805.557	0.0146679
805.635	0.0147553
805.713	0.0147600
805.791	0.0149186
805.869	0.0148441
805.947	0.0148468
806.025	0.0149638
806.103	0.0148780
806.182	0.0148577
806.260	0.0148341
806.338	0.0149896
806.416	0.0149187
806.494	0.0149333
806.572	0.0149561
806.650	0.0150394
806.728	0.0149226
806.807	0.0150087
806.885	0.0150288
806.963	0.0149850
807.041	0.0152092
807.119	0.0151736
807.197	0.0150283
807.275	0.0149447
807.353	0.0151279
807.432	0.0149850
807.510	0.0150092
807.588	0.0149960
807.666	0.0150247
807.744	0.0150402
807.822	0.0149640
807.900	0.0149589
807.978	0.0149300
808.057	0.0148717
808.135	0.0148617
808.213	0.0149191
808.291	0.0147866
808.369	0.0147038
808.447	0.0146457
808.525	0.0146425
808.603	0.0145443
808.682	0.0145127
808.760	0.0145486
808.838	0.0142863
808.916	0.0141319
808.994	0.0142125
809.072	0.0142525
809.150	0.0141057
809.228	0.0141054
809.307	0.0139857
809.385	0.0139271
809.463	0.0139856
809.541	0.0139438
809.619	0.0139420
809.697	0.0138154
809.775	0.0138379
809.853	0.0140255
809.932	0.0138821
810.010	0.0138815
810.088	0.0140756
810.166	0.0139564
810.244	0.0142282
810.322	0.0142756
810.400	0.0143717
810.478	0.0146554
810.557	0.0145934
810.635	0.0146568
810.713	0.0148094
810.791	0.0147542
810.869	0.0148746
810.947	0.0149588
811.025	0.0147740
811.103	0.0149704
811.182	0.0150947
811.260	0.0148757
811.338	0.0148402
811.416	0.0148563
811.494	0.0147541
811.572	0.0148953
811.650	0.0149553
811.728	0.0150168
811.807	0.0148980
811.885	0.0148792
811.963	0.0148231
812.041	0.0147440
812.119	0.0147750
812.197	0.0148577
812.275	0.0148109
812.353	0.0147780
812.432	0.0148373
812.510	0.0149694
812.588	0.0151105
812.666	0.0149443
812.744	0.0148772
812.822	0.0149560
812.900	0.0149614
812.978	0.0149877
813.057	0.0149113
813.135	0.0150864
813.213	0.0152401
813.291	0.0150993
813.369	0.0149630
813.447	0.0151204
813.525	0.0150438
813.603	0.0149380
813.682	0.0149117
813.760	0.0149041
813.838	0.0149209
813.916	0.0147052
813.994	0.0147592
814.072	0.0145766
814.150	0.0145506
814.228	0.0146432
814.307	0.0145633
814.385	0.0143915
814.463	0.0142302
814.541	0.0142048
814.619	0.0141711
814.697	0.0141974
814.775	0.0140774
814.853	0.0140356
814.932	0.0141615
815.010	0.0140142
815.088	0.0141062
815.166	0.0139555
815.244	0.0141299
815.322	0.0142146
815.400	0.0140695
815.478	0.0139697
815.557	0.0141665
815.635	0.0140911
815.713	0.0141078
815.791	0.0142097
815.869	0.0142431
815.947	0.0141695
816.025	0.0141552
816.103	0.0142143
816.182	0.0141231
816.260	0.0141985
816.338	0.0140919
816.416	0.0141344
816.494	0.0141840
816.572	0.0143183
816.650	0.0143270
816.728	0.0142548
816.807	0.0144119
816.885	0.0143903
816.963	0.0145466
817.041	0.0144307
817.119	0.0144748
817.197	0.0146090
817.275	0.0147207
817.353	0.0147840
817.432	0.0150488
817.510	0.0147570
817.588	0.0149583
817.666	0.0150490
817.744	0.0151600
817.822	0.0151379
817.900	0.0151443
817.978	0.0153771
818.057	0.0151950
818.135	0.0151380
818.213	0.0152287
818.291	0.0153640
818.369	0.0151844
818.447	0.0153677
818.525	0.0151564
818.603	0.0151998
818.682	0.0151913
818.760	0.0150275
818.838	0.0149940
818.916	0.0151745
818.994	0.0150643
819.072	0.0149417
819.150	0.0149753
819.228	0.0149544
819.307	0.0148978
819.385	0.0147155
819.463	0.0148822
819.541	0.0146702
819.619	0.0145238
819.697	0.0145407
819.775	0.0144590
819.853	0.0144390
819.932	0.0144823
820.010	0.0145502
820.088	0.0143904
820.166	0.0144132
820.244	0.0144415
820.322	0.0143211
820.400	0.0142449
820.478	0.0143137
820.557	0.0143068
820.635	0.0142110
820.713	0.0142290
820.791	0.0141885
820.869	0.0141290
820.947	0.0139482
821.025	0.0140753
821.103	0.0138225
821.182	0.0137344
821.260	0.0136651
821.338	0.0136468
821.416	0.0136404
821.494	0.0136581
821.572	0.0136125
821.650	0.0135992
821.728	0.0137450
821.807	0.0136958
821.885	0.0137854
821.963	0.0138242
822.041	0.0139162
822.119	0.0139915
822.197	0.0141541
822.275	0.0141488
822.353	0.0140725
822.432	0.0141788
822.510	0.0142290
822.588	0.0145255
822.666	0.0144309
822.744	0.0146299
822.822	0.0146714
822.900	0.0147062
822.978	0.0146120
823.057	0.0148721
823.135	0.0148690
823.213	0.0147106
823.291	0.0149194
823.369	0.0149802
823.447	0.0147499
823.525	0.0149744
823.603	0.0148824
823.682	0.0150174
823.760	0.0149532
823.838	0.0149548
823.916	0.0148940
823.994	0.0148550
824.072	0.0150055
824.150	0.0151057
824.228	0.0149827
824.307	0.0150536
824.385	0.0150562
824.463	0.0151003
824.541	0.0151940
824.619	0.0151775
824.697	0.0152062
824.775	0.0151530
824.853	0.0154053
824.932	0.0154144
825.010	0.0152644
825.088	0.0154623
825.166	0.0152166
825.244	0.0152087
825.322	0.0153678
825.400	0.0154081
825.478	0.0152792
825.557	0.0151971
825.635	0.0152621
825.713	0.0150510
825.791	0.0150282
825.869	0.0148969
825.947	0.0147842
826.025	0.0146869
826.103	0.0144862
826.182	0.0143793
826.260	0.0142142
826.338	0.0141782
826.416	0.0140272
826.494	0.0138338
826.572	0.0137472
826.650	0.0137012
826.728	0.0135217
826.807	0.0137270
826.885	0.0134079
826.963	0.0133443
827.041	0.0134205
827.119	0.0134933
827.197	0.0134594
827.275	0.0134801
827.353	0.0134840
827.432	0.0134869
827.510	0.0135497
827.588	0.0136383
827.666	0.0138248
827.744	0.0136681
827.822	0.0139509
827.900	0.0139610
827.978	0.0141827
828.057	0.0143356
828.135	0.0143662
828.213	0.0145286
828.291	0.0145921
828.369	0.0145759
828.447	0.0145887
828.525	0.0148027
828.603	0.0147853
828.682	0.0148154
828.760	0.0148130
828.838	0.0149117
828.916	0.0147321
828.994	0.0148393
829.072	0.0148401
829.150	0.0147731
829.228	0.0146943
829.307	0.0147285
829.385	0.0148318
829.463	0.0148154
829.541	0.0147584
829.619	0.0146133
829.697	0.0147251
829.775	0.0147430
829.853	0.0147652
829.932	0.0148291
830.010	0.0148212
830.088	0.0148697
830.166	0.0148061
830.244	0.0148360
830.322	0.0147726
830.400	0.0149501
830.478	0.0150642
830.557	0.0150014
830.635	0.0149114
830.713	0.0150295
830.791	0.0150539
830.869	0.0150929
830.947	0.0150443
831.025	0.0150203
831.103	0.0151068
831.182	0.0149995
831.260	0.0148613
831.338	0.0149466
831.416	0.0148195
831.494	0.0149066
831.572	0.0148727
831.650	0.0148156
831.728	0.0148396
831.807	0.0148060
831.885	0.0145100
831.963	0.0145361
832.041	0.0147289
832.119	0.0147105
832.197	0.0145254
832.275	0.0146808
832.353	0.0145999
832.432	0.0146415
832.510	0.0145736
832.588	0.0144350
832.666	0.0145290
832.744	0.0144654
832.822	0.0143845
832.900	0.0144248
832.978	0.0142709
833.057	0.0144157
833.135	0.0144250
833.213	0.0143033
833.291	0.0142058
833.369	0.0141844
833.447	0.0141058
833.525	0.0141422
833.603	0.0141944
833.682	0.0141125
833.760	0.0141905
833.838	0.0141740
833.916	0.0141090
833.994	0.0141212
834.072	0.0140990
834.150	0.0141199
834.228	0.0140765
834.307	0.0141550
834.385	0.0141694
834.463	0.0140945
834.541	0.0140495
834.619	0.0140997
834.697	0.0140039
834.775	0.0140144
834.853	0.0141081
834.932	0.0141908
835.010	0.0142164
835.088	0.0142757
835.166	0.0144170
835.244	0.0143847
835.322	0.0143226
835.400	0.0145233
835.478	0.0145992
835.557	0.0146690
835.635	0.0148006
835.713	0.0147002
835.791	0.0146352
835.869	0.0148685
835.947	0.0150613
836.025	0.0150847
836.103	0.0150446
836.182	0.0151778
836.260	0.0152287
836.338	0.0152637
836.416	0.0152619
836.494	0.0151999
836.572	0.0152853
836.650	0.0153027
836.728	0.0152699
836.807	0.0150888
836.885	0.0150903
836.963	0.0150822
837.041	0.0149648
837.119	0.0148983
837.197	0.0149528
837.275	0.0147997
837.353	0.0146573
837.432	0.0147075
837.510	0.0147112
837.588	0.0146066
837.666	0.0145631
837.744	0.0146153
837.822	0.0145860
837.900	0.0144952
837.978	0.0143927
838.057	0.0145851
838.135	0.0146104
838.213	0.0145379
838.291	0.0145605
838.369	0.0146607
838.447	0.0145490
838.525	0.0145112
838.603	0.0145757
838.682	0.0145454
838.760	0.0144963
838.838	0.0145573
838.916	0.0144854
838.994	0.0145574
839.072	0.0145031
839.150	0.0143829
839.228	0.0144689
839.307	0.0144149
839.385	0.0143300
839.463	0.0143954
839.541	0.0141494
839.619	0.0141792
839.697	0.0142147
839.775	0.0142974
839.853	0.0142686
839.932	0.0142111
840.010	0.0140723
840.088	0.0142157
840.166	0.0142072
840.244	0.0142733
840.322	0.0142261
840.400	0.0141739
840.478	0.0142101
840.557	0.0143215
840.635	0.0142853
840.713	0.0143188
840.791	0.0143793
840.869	0.0143307
840.947	0.0142497
841.025	0.0144286
841.103	0.0143353
841.182	0.0143559
841.260	0.0143179
841.338	0.0143578
841.416	0.0144997
841.494	0.0144770
841.572	0.0145824
841.650	0.0144239
841.728	0.0143578
841.807	0.0145815
841.885	0.0144473
841.963	0.0146709
842.041	0.0145095
842.119	0.0145163
842.197	0.0147073
842.275	0.0146482
842.353	0.0145650
842.432	0.0146574
842.510	0.0146183
842.588	0.0145791
842.666	0.0145483
842.744	0.0145760
842.822	0.0146311
842.900	0.0146622
842.978	0.0147044
843.057	0.0146365
843.135	0.0146124
843.213	0.0147803
843.291	0.0146672
843.369	0.0147089
843.447	0.0148144
843.525	0.0147450
843.603	0.0148373
843.682	0.0148750
843.760	0.0149406
843.838	0.0150964
843.916	0.0150037
843.994	0.0150391
844.072	0.0150124
844.150	0.0149812
844.228	0.0149625
844.307	0.0150362
844.385	0.0148857
844.463	0.0148753
844.541	0.0146807
844.619	0.0147358
844.697	0.0147844
844.775	0.0145743
844.853	0.0145413
844.932	0.0146030
845.010	0.0144009
845.088	0.0142831
845.166	0.0142553
845.244	0.0142108
845.322	0.0141785
845.400	0.0141842
845.478	0.0141317
845.557	0.0140992
845.635	0.0140017
845.713	0.0139168
845.791	0.0140177
845.869	0.0140430
845.947	0.0139654
846.025	0.0140608
846.103	0.0141047
846.182	0.0141458
846.260	0.0140209
846.338	0.0140022
846.416	0.0142461
846.494	0.0142249
846.572	0.0142875
846.650	0.0142947
846.728	0.0140949
846.807	0.0142868
846.885	0.0142995
846.963	0.0142649
847.041	0.0142240
847.119	0.0143609
847.197	0.0144892
847.275	0.0145517
847.353	0.0145713
847.432	0.0145623
847.510	0.0145345
847.588	0.0146812
847.666	0.0146903
847.744	0.0149019
847.822	0.0148324
847.900	0.0148208
847.978	0.0148633
848.057	0.0148998
848.135	0.0150909
848.213	0.0150536
848.291	0.0151065
848.369	0.0149290
848.447	0.0150031
848.525	0.0150079
848.603	0.0150721
848.682	0.0150674
848.760	0.0149496
848.838	0.0149513
848.916	0.0148195
848.994	0.0147583
849.072	0.0146860
849.150	0.0147141
849.228	0.0148848
849.307	0.0146576
849.385	0.0146017
849.463	0.0145052
849.541	0.0145039
849.619	0.0145844
849.697	0.0144913
849.775	0.0144062
849.853	0.0143240
849.932	0.0142665
850.010	0.0143045
850.088	0.0142751
850.166	0.0142906
850.244	0.0143040
850.322	0.0141346
850.400	0.0142439
850.478	0.0140707
850.557	0.0141872
850.635	0.0142547
850.713	0.0142442
850.791	0.0142233
850.869	0.0142058
850.947	0.0143129
851.025	0.0142042
851.103	0.0142043
851.182	0.0143088
851.260	0.0143145
851.338	0.0142625
851.416	0.0144195
851.494	0.0143590
851.572	0.0143539
851.650	0.0143991
851.728	0.0146016
851.807	0.0146310
851.885	0.0144708
851.963	0.0145658
852.041	0.0147221
852.119	0.0144266
852.197	0.0145740
852.275	0.0146331
852.353	0.0146425
852.432	0.0146830
852.510	0.0146172
852.588	0.0146933
852.666	0.0146684
852.744	0.0145847
852.822	0.0147012
852.900	0.0145373
852.978	0.0144948
853.057	0.0144915
853.135	0.0146351
853.213	0.0146362
853.291	0.0145698
853.369	0.0147211
853.447	0.0147652
853.525	0.0145232
853.603	0.0147615
853.682	0.0146927
853.760	0.0145988
853.838	0.0148370
853.916	0.0147432
853.994	0.0147002
854.072	0.0145942
854.150	0.0145657
854.228	0.0146584
854.307	0.0146219
854.385	0.0147378
854.463	0.0146619
854.541	0.0145695
854.619	0.0146925
854.697	0.0146194
854.775	0.0145377
854.853	0.0146053
854.932	0.0146187
855.010	0.0147109
855.088	0.0147111
855.166	0.0146175
855.244	0.0146883
855.322	0.0146171
855.400	0.0146712
855.478	0.0146736
855.557	0.0146449
855.635	0.0146474
855.713	0.0147551
855.791	0.0146584
855.869	0.0145827
855.947	0.0147237
856.025	0.0145822
856.103	0.0146507
856.182	0.0145766
856.260	0.0145375
856.338	0.0143860
856.416	0.0145449
856.494	0.0144092
856.572	0.0144569
856.650	0.0143640
856.728	0.0143607
856.807	0.0142429
856.885	0.0143163
856.963	0.0141052
857.041	0.0141508
857.119	0.0141767
857.197	0.0140189
857.275	0.0139812
857.353	0.0141441
857.432	0.0139822
857.510	0.0140508
857.588	0.0141131
857.666	0.0140255
857.744	0.0140330
857.822	0.0142149
857.900	0.0141547
857.978	0.0143253
858.057	0.0143465
858.135	0.0144221
858.213	0.0142576
858.291	0.0143594
858.369	0.0143256
858.447	0.0145086
858.525	0.0144704
858.603	0.0146023
858.682	0.0147414
858.760	0.0145755
858.838	0.0145802
858.916	0.0147989
858.994	0.0147834
859.072	0.0147159
859.150	0.0146733
859.228	0.0149702
859.307	0.0149109
859.385	0.0147380
859.463	0.0147768
859.541	0.0149875
859.619	0.0147649
859.697	0.0148998
859.775	0.0148574
859.853	0.0147028
859.932	0.0147801
860.010	0.0150342
860.088	0.0148980
860.166	0.0149220
860.244	0.0146922
860.322	0.0149193
860.400	0.0148194
860.478	0.0147182
860.557	0.0147566
860.635	0.0148672
860.713	0.0147398
860.791	0.0148364
860.869	0.0148096
860.947	0.0147094
861.025	0.0146710
861.103	0.0147490
861.182	0.0146040
861.260	0.0147318
861.338	0.0147108
861.416	0.0146546
861.494	0.0147347
861.572	0.0144377
861.650	0.0144856
861.728	0.0145506
861.807	0.0144954
861.885	0.0144910
861.963	0.0144122
862.041	0.0145446
862.119	0.0142370
862.197	0.0142954
862.275	0.0141920
862.353	0.0144241
862.432	0.0142257
862.510	0.0141099
862.588	0.0142265
862.666	0.0142001
862.744	0.0140891
862.822	0.0141772
862.900	0.0141926
862.978	0.0141956
863.057	0.0140476
863.135	0.0140881
863.213	0.0139664
863.291	0.0141121
863.369	0.0141509
863.447	0.0143128
863.525	0.0142319
863.603	0.0141959
863.682	0.0142107
863.760	0.0142158
863.838	0.0142749
863.916	0.0143882
863.994	0.0144259
864.072	0.0144566
864.150	0.0143536
864.228	0.0143893
864.307	0.0143752
864.385	0.0143427
864.463	0.0144354
864.541	0.0142647
864.619	0.0143936
864.697	0.0144086
864.775	0.0145325
864.853	0.0145651
864.932	0.0143763
865.010	0.0144437
865.088	0.0146175
865.166	0.0145596
865.244	0.0145410
865.322	0.0146475
865.400	0.0148515
865.478	0.0147957
865.557	0.0146568
865.635	0.0148517
865.713	0.0149043
865.791	0.0150572
865.869	0.0150138
865.947	0.0150512
866.025	0.0148737
866.103	0.0149433
866.182	0.0150930
866.260	0.0150214
866.338	0.0150542
866.416	0.0150757
866.494	0.0149356
866.572	0.0149178
866.650	0.0149150
866.728	0.0149314
866.807	0.0148164
866.885	0.0148931
866.963	0.0148086
867.041	0.0146589
867.119	0.0146493
867.197	0.0148267
867.275	0.0145596
867.353	0.0145334
867.432	0.0145419
867.510	0.0143835
867.588	0.0145583
867.666	0.0144112
867.744	0.0144647
867.822	0.0145007
867.900	0.0142502
867.978	0.0144950
868.057	0.0143882
868.135	0.0143969
868.213	0.0143231
868.291	0.0142263
868.369	0.0141463
868.447	0.0142947
868.525	0.0143790
868.603	0.0142371
868.682	0.0142406
868.760	0.0143190
868.838	0.0143886
868.916	0.0144060
868.994	0.0143546
869.072	0.0143831
869.150	0.0143559
869.228	0.0143543
869.307	0.0143757
869.385	0.0143772
869.463	0.0144080
869.541	0.0143675
869.619	0.0143865
869.697	0.0142957
869.775	0.0144641
869.853	0.0145142
869.932	0.0144170
870.010	0.0144392
870.088	0.0143716
870.166	0.0143192
870.244	0.0145085
870.322	0.0145686
870.400	0.0144429
870.478	0.0145401
870.557	0.0144519
870.635	0.0145360
870.713	0.0144749
870.791	0.0144923
870.869	0.0145064
870.947	0.0146896
871.025	0.0145132
871.103	0.0145655
871.182	0.0145576
871.260	0.0145821
871.338	0.0148667
871.416	0.0147396
871.494	0.0148574
871.572	0.0148943
871.650	0.0147234
871.728	0.0147861
871.807	0.0147333
871.885	0.0148045
871.963	0.0148547
872.041	0.0148421
872.119	0.0149068
872.197	0.0149476
872.275	0.0148574
872.353	0.0147694
872.432	0.0148483
872.510	0.0148717
872.588	0.0149078
872.666	0.0148473
872.744	0.0147475
872.822	0.0147555
872.900	0.0148196
872.978	0.0146676
873.057	0.0147230
873.135	0.0148733
873.213	0.0147678
873.291	0.0147146
873.369	0.0146095
873.447	0.0148009
873.525	0.0148394
873.603	0.0147425
873.682	0.0145611
873.760	0.0146252
873.838	0.0144890
873.916	0.0144856
873.994	0.0144832
874.072	0.0146695
874.150	0.0143766
874.228	0.0144067
874.307	0.0144496
874.385	0.0143687
874.463	0.0143516
874.541	0.0143270
874.619	0.0143506
874.697	0.0143064
874.775	0.0142195
874.853	0.0143230
874.932	0.0141552
875.010	0.0142119
875.088	0.0143814
875.166	0.0142964
875.244	0.0143842
875.322	0.0142668
875.400	0.0142983
875.478	0.0142946
875.557	0.0142886
875.635	0.0143902
875.713	0.0143859
875.791	0.0143460
875.869	0.0143818
875.947	0.0145316
876.025	0.0143648
876.103	0.0142789
876.182	0.0145194
876.260	0.0144270
876.338	0.0145533
876.416	0.0146228
876.494	0.0145951
876.572	0.0148157
876.650	0.0147877
876.728	0.0149222
876.807	0.0148472
876.885	0.0149165
876.963	0.0148785
877.041	0.0148341
877.119	0.0150835
877.197	0.0148383
877.275	0.0148571
877.353	0.0148830
877.432	0.0148967
877.510	0.0148685
877.588	0.0148320
877.666	0.0148148
877.744	0.0146619
877.822	0.0147314
877.900	0.0147672
877.978	0.0147084
878.057	0.0146006
878.135	0.0145679
878.213	0.0144421
878.291	0.0143572
878.369	0.0144595
878.447	0.0144922
878.525	0.0143481
878.603	0.0144345
878.682	0.0144928
878.760	0.0144635
878.838	0.0145880
878.916	0.0144097
878.994	0.0144487
879.072	0.0145316
879.150	0.0145979
879.228	0.0145552
879.307	0.0143609
879.385	0.0144127
879.463	0.0144381
879.541	0.0144790
879.619	0.0144097
879.697	0.0144154
879.775	0.0143977
879.853	0.0143878
879.932	0.0142287
880.010	0.0143896
880.088	0.0141277
880.166	0.0142585
880.244	0.0143729
880.322	0.0142777
880.400	0.0142725
880.478	0.0143377
880.557	0.0143112
880.635	0.0143024
880.713	0.0142617
880.791	0.0143232
880.869	0.0143661
880.947	0.0145196
881.025	0.0144029
881.103	0.0145242
881.182	0.0145992
881.260	0.0144592
881.338	0.0145502
881.416	0.0145911
881.494	0.0145593
881.572	0.0147575
881.650	0.0148103
881.728	0.0146898
881.807	0.0146761
881.885	0.0146976
881.963	0.0148169
882.041	0.0147443
882.119	0.0148077
882.197	0.0147351
882.275	0.0145292
882.353	0.0146896
882.432	0.0147015
882.510	0.0146021
882.588	0.0146393
882.666	0.0146216
882.744	0.0146173
882.822	0.0146865
882.900	0.0146636
882.978	0.0145492
883.057	0.0144864
883.135	0.0145074
883.213	0.0144588
883.291	0.0144887
883.369	0.0144937
883.447	0.0144679
883.525	0.0144437
883.603	0.0142667
883.682	0.0144288
883.760	0.0143996
883.838	0.0145242
883.916	0.0142911
883.994	0.0145058
884.072	0.0146671
884.150	0.0145913
884.228	0.0145567
884.307	0.0146291
884.385	0.0145790
884.463	0.0147346
884.541	0.0148016
884.619	0.0147119
884.697	0.0146454
884.775	0.0147204
884.853	0.0148784
884.932	0.0146835
885.010	0.0145871
885.088	0.0147372
885.166	0.0147331
885.244	0.0146024
885.322	0.0146395
885.400	0.0145952
885.478	0.0146924
885.557	0.0145823
885.635	0.0144592
885.713	0.0144507
885.791	0.0144110
885.869	0.0143507
885.947	0.0144292
886.025	0.0143512
886.103	0.0144106
886.182	0.0143306
886.260	0.0143510
886.338	0.0143040
886.416	0.0144808
886.494	0.0146852
886.572	0.0146467
886.650	0.0147116
886.728	0.0147044
886.807	0.0148138
886.885	0.0149178
886.963	0.0147986
887.041	0.0147418
887.119	0.0147530
887.197	0.0147138
887.275	0.0146594
887.353	0.0146365
887.432	0.0148235
887.510	0.0146304
887.588	0.0145508
887.666	0.0146386
887.744	0.0146020
887.822	0.0145580
887.900	0.0146339
887.978	0.0144584
888.057	0.0144674
888.135	0.0144253
888.213	0.0144949
888.291	0.0143082
888.369	0.0145380
888.447	0.0144162
888.525	0.0144537
888.603	0.0144114
888.682	0.0144838
888.760	0.0143770
888.838	0.0144345
888.916	0.0145213
888.994	0.0143494
889.072	0.0144042
889.150	0.0144817
889.228	0.0145508
889.307	0.0144439
889.385	0.0146257
889.463	0.0145115
889.541	0.0146246
889.619	0.0145753
889.697	0.0145660
889.775	0.0145065
889.853	0.0145088
889.932	0.0145139
890.010	0.0146204
890.088	0.0144964
890.166	0.0145473
890.244	0.0145545
890.322	0.0146550
890.400	0.0146365
890.478	0.0145209
890.557	0.0144958
890.635	0.0146387
890.713	0.0146458
890.791	0.0146024
890.869	0.0144968
890.947	0.0144413
891.025	0.0144989
891.103	0.0143870
891.182	0.0144228
891.260	0.0145058
891.338	0.0146052
891.416	0.0145739
891.494	0.0146658
891.572	0.0147024
891.650	0.0147061
891.728	0.0149265
891.807	0.0149518
891.885	0.0149418
891.963	0.0149671
892.041	0.0150626
892.119	0.0148663
892.197	0.0148112
892.275	0.0149171
892.353	0.0149628
892.432	0.0148522
892.510	0.0148563
892.588	0.0147956
892.666	0.0146712
892.744	0.0147847
892.822	0.0147033
892.900	0.0146011
892.978	0.0145974
893.057	0.0146926
893.135	0.0146172
893.213	0.0145785
893.291	0.0144861
893.369	0.0143606
893.447	0.0144468
893.525	0.0144890
893.603	0.0146467
893.682	0.0145337
893.760	0.0144157
893.838	0.0144672
893.916	0.0144023
893.994	0.0143488
894.072	0.0144323
894.150	0.0143101
894.228	0.0143677
894.307	0.0143147
894.385	0.0143152
894.463	0.0142620
894.541	0.0142033
894.619	0.0143327
894.697	0.0143305
894.775	0.0142328
894.853	0.0142326
894.932	0.0142758
895.010	0.0142174
895.088	0.0143447
895.166	0.0144024
895.244	0.0144033
895.322	0.0142903
895.400	0.0143768
895.478	0.0143275
895.557	0.0144668
895.635	0.0143890
895.713	0.0145689
895.791	0.0146491
895.869	0.0143590
895.947	0.0143095
896.025	0.0146182
896.103	0.0146344
896.182	0.0147421
896.260	0.0146420
896.338	0.0145517
896.416	0.0145435
896.494	0.0147341
896.572	0.0146052
896.650	0.0145705
896.728	0.0147108
896.807	0.0145630
896.885	0.0146586
896.963	0.0148083
897.041	0.0146938
897.119	0.0146858
897.197	0.0148253
897.275	0.0148990
897.353	0.0150526
897.432	0.0148470
897.510	0.0149947
897.588	0.0150439
897.666	0.0148303
897.744	0.0150394
897.822	0.0148212
897.900	0.0149485
897.978	0.0150763
898.057	0.0148968
898.135	0.0148363
898.213	0.0147920
898.291	0.0147414
898.369	0.0145411
898.447	0.0146243
898.525	0.0145174
898.603	0.0144801
898.682	0.0143936
898.760	0.0144233
898.838	0.0144324
898.916	0.0143395
898.994	0.0144476
899.072	0.0143968
899.150	0.0144514
899.228	0.0143821
899.307	0.0144168
899.385	0.0143603
899.463	0.0144896
899.541	0.0144451
899.619	0.0144270
899.697	0.0143555
899.775	0.0145568
899.853	0.0146049
899.932	0.0145942
900.010	0.0144769
900.088	0.0145806
900.166	0.0145319
900.244	0.0145508
900.322	0.0146375
900.400	0.0146337
900.478	0.0144682
900.557	0.0145811
900.635	0.0145061
900.713	0.0145331
900.791	0.0145534
900.869	0.0145201
900.947	0.0145022
901.025	0.0144324
901.103	0.0144815
901.182	0.0144904
901.260	0.0143026
901.338	0.0143657
901.416	0.0144267
901.494	0.0144009
901.572	0.0142462
901.650	0.0142044
901.728	0.0143154
901.807	0.0143384
901.885	0.0142240
901.963	0.0143474
902.041	0.0143539
902.119	0.0143043
902.197	0.0145214
902.275	0.0144302
902.353	0.0145515
902.432	0.0144154
902.510	0.0143872
902.588	0.0145695
902.666	0.0145263
902.744	0.0147324
902.822	0.0146790
902.900	0.0149018
902.978	0.0148587
903.057	0.0148723
903.135	0.0148000
903.213	0.0149910
903.291	0.0148332
903.369	0.0149007
903.447	0.0149269
903.525	0.0149553
903.603	0.0148608
903.682	0.0148309
903.760	0.0147295
903.838	0.0148181
903.916	0.0146078
903.994	0.0145908
904.072	0.0145044
904.150	0.0143993
904.228	0.0145663
904.307	0.0144662
904.385	0.0143287
904.463	0.0144557
904.541	0.0145915
904.619	0.0144973
904.697	0.0145027
904.775	0.0144668
904.853	0.0145444
904.932	0.0146124
905.010	0.0146249
905.088	0.0147861
905.166	0.0147512
905.244	0.0148235
905.322	0.0146578
905.400	0.0147886
905.478	0.0146378
905.557	0.0147266
905.635	0.0146922
905.713	0.0147301
905.791	0.0145979
905.869	0.0145523
905.947	0.0143952
906.025	0.0144257
906.103	0.0144806
906.182	0.0143037
906.260	0.0140941
906.338	0.0142116
906.416	0.0142377
906.494	0.0142007
906.572	0.0141348
906.650	0.0141326
906.728	0.0141866
906.807	0.0141936
906.885	0.0142058
906.963	0.0143055
907.041	0.0142861
907.119	0.0143659
907.197	0.0142875
907.275	0.0145253
907.353	0.0144877
907.432	0.0145210
907.510	0.0146996
907.588	0.0146814
907.666	0.0146149
907.744	0.0146586
907.822	0.0148291
907.900	0.0148511
907.978	0.0150097
908.057	0.0150517
908.135	0.0151237
908.213	0.0149213
908.291	0.0150569
908.369	0.0150677
908.447	0.0150458
908.525	0.0150227
908.603	0.0150702
908.682	0.0150004
908.760	0.0149988
908.838	0.0148174
908.916	0.0146884
908.994	0.0146501
909.072	0.0145439
909.150	0.0146148
909.228	0.0145134
909.307	0.0143587
909.385	0.0144273
909.463	0.0142391
909.541	0.0142747
909.619	0.0142239
909.697	0.0140903
909.775	0.0140629
909.853	0.0141607
909.932	0.0142234
910.010	0.0143121
910.088	0.0140802
910.166	0.0140321
910.244	0.0141312
910.322	0.0144245
910.400	0.0143653
910.478	0.0144675
910.557	0.0142917
910.635	0.0145567
910.713	0.0147531
910.791	0.0148363
910.869	0.0147623
910.947	0.0148802
911.025	0.0148315
911.103	0.0149107
911.182	0.0148148
911.260	0.0148357
911.338	0.0150004
911.416	0.0150415
911.494	0.0149339
911.572	0.0148335
911.650	0.0149168
911.728	0.0148222
911.807	0.0147183
911.885	0.0145845
911.963	0.0146003
912.041	0.0146037
912.119	0.0145626
912.197	0.0144792
912.275	0.0142625
912.353	0.0143592
912.432	0.0145172
912.510	0.0143760
912.588	0.0144662
912.666	0.0144302
912.744	0.0145192
912.822	0.0145049
912.900	0.0144341
912.978	0.0145037
913.057	0.0145670
913.135	0.0145294
913.213	0.0146440
913.291	0.0145950
913.369	0.0146546
913.447	0.0145390
913.525	0.0147346
913.603	0.0146445
913.682	0.0146836
913.760	0.0148692
913.838	0.0146746
913.916	0.0146748
913.994	0.0147958
914.072	0.0147043
914.150	0.0147446
914.228	0.0147634
914.307	0.0147851
914.385	0.0147857
914.463	0.0147784
914.541	0.0146246
914.619	0.0145164
914.697	0.0146644
914.775	0.0145345
914.853	0.0144520
914.932	0.0144849
915.010	0.0144840
915.088	0.0144782
915.166	0.0144045
915.244	0.0144015
915.322	0.0145107
915.400	0.0142985
915.478	0.0142720
915.557	0.0143468
915.635	0.0143092
915.713	0.0142352
915.791	0.0143947
915.869	0.0143120
915.947	0.0143473
916.025	0.0144121
916.103	0.0144334
916.182	0.0144720
916.260	0.0144687
916.338	0.0146513
916.416	0.0145145
916.494	0.0145125
916.572	0.0145883
916.650	0.0145657
916.728	0.0147462
916.807	0.0147729
916.885	0.0147411
916.963	0.0148148
917.041	0.0148039
917.119	0.0149642
917.197	0.0148644
917.275	0.0148505
917.353	0.0148836
917.432	0.0150890
917.510	0.0148742
917.588	0.0147114
917.666	0.0146826
917.744	0.0147736
917.822	0.0147777
917.900	0.0147841
917.978	0.0146310
918.057	0.0145142
918.135	0.0145528
918.213	0.0143304
918.291	0.0143569
918.369	0.0144109
918.447	0.0145081
918.525	0.0143874
918.603	0.0144151
918.682	0.0143475
918.760	0.0143723
918.838	0.0144104
918.916	0.0145628
918.994	0.0145221
919.072	0.0143285
919.150	0.0145885
919.228	0.0145692
919.307	0.0145597
919.385	0.0145277
919.463	0.0146352
919.541	0.0146278
919.619	0.0147565
919.697	0.0146744
919.775	0.0146344
919.853	0.0145703
919.932	0.0146883
920.010	0.0146748
920.088	0.0146654
920.166	0.0146843
920.244	0.0145097
920.322	0.0145142
920.400	0.0147009
920.478	0.0145193
920.557	0.0143415
920.635	0.0143955
920.713	0.0145379
920.791	0.0144033
920.869	0.0145430
920.947	0.0145118
921.025	0.0145327
921.103	0.0145486
921.182	0.0144906
921.260	0.0144924
921.338	0.0145196
921.416	0.0144882
921.494	0.0145499
921.572	0.0145551
921.650	0.0145304
921.728	0.0144605
921.807	0.0145992
921.885	0.0146965
921.963	0.0145660
922.041	0.0145080
922.119	0.0144428
922.197	0.0144126
922.275	0.0145793
922.353	0.0145238
922.432	0.0146120
922.510	0.0146299
922.588	0.0145765
922.666	0.0144542
922.744	0.0145605
922.822	0.0146217
922.900	0.0145895
922.978	0.0146599
923.057	0.0145388
923.135	0.0145513
923.213	0.0143740
923.291	0.0143990
923.369	0.0144848
923.447	0.0145248
923.525	0.0144425
923.603	0.0144557
923.682	0.0142524
923.760	0.0143412
923.838	0.0144845
923.916	0.0146046
923.994	0.0145108
924.072	0.0144389
924.150	0.0143690
924.228	0.0143912
924.307	0.0145029
924.385	0.0144482
924.463	0.0145518
924.541	0.0144943
924.619	0.0143802
924.697	0.0145885
924.775	0.0144093
924.853	0.0143755
924.932	0.0144203
925.010	0.0144436
925.088	0.0144978
925.166	0.0145422
925.244	0.0144222
925.322	0.0143974
925.400	0.0144748
925.478	0.0144668
925.557	0.0144258
925.635	0.0144090
925.713	0.0144199
925.791	0.0144466
925.869	0.0144238
925.947	0.0143459
926.025	0.0144180
926.103	0.0144375
926.182	0.0144217
926.260	0.0145065
926.338	0.0145058
926.416	0.0146422
926.494	0.0146844
926.572	0.0147060
926.650	0.0145396
926.728	0.0146687
926.807	0.0147742
926.885	0.0147006
926.963	0.0146387
927.041	0.0147178
927.119	0.0148392
927.197	0.0147993
927.275	0.0147762
927.353	0.0147405
927.432	0.0147039
927.510	0.0146301
927.588	0.0147133
927.666	0.0145877
927.744	0.0146597
927.822	0.0146877
927.900	0.0145446
927.978	0.0145745
928.057	0.0147215
928.135	0.0145686
928.213	0.0145067
928.291	0.0145852
928.369	0.0146546
928.447	0.0146722
928.525	0.0145668
928.603	0.0145361
928.682	0.0145786
928.760	0.0144611
928.838	0.0146384
928.916	0.0145558
928.994	0.0146290
929.072	0.0145283
929.150	0.0146107
929.228	0.0146353
929.307	0.0145718
929.385	0.0145581
929.463	0.0145559
929.541	0.0145961
929.619	0.0145900
929.697	0.0145746
929.775	0.0145459
929.853	0.0146730
929.932	0.0145245
930.010	0.0146108
930.088	0.0145869
930.166	0.0145779
930.244	0.0147426
930.322	0.0145560
930.400	0.0145612
930.478	0.0146510
930.557	0.0146362
930.635	0.0145257
930.713	0.0144487
930.791	0.0145096
930.869	0.0145376
930.947	0.0144204
931.025	0.0144566
931.103	0.0145045
931.182	0.0144606
931.260	0.0144509
931.338	0.0143984
931.416	0.0145602
931.494	0.0144870
931.572	0.0146137
931.650	0.0144063
931.728	0.0146212
931.807	0.0146034
931.885	0.0144487
931.963	0.0146423
932.041	0.0147555
932.119	0.0145317
932.197	0.0144263
932.275	0.0145925
932.353	0.0146335
932.432	0.0146577
932.510	0.0147277
932.588	0.0147060
932.666	0.0146832
932.744	0.0146455
932.822	0.0146609
932.900	0.0147096
932.978	0.0146722
933.057	0.0146760
933.135	0.0145631
933.213	0.0145771
933.291	0.0146098
933.369	0.0145297
933.447	0.0146109
933.525	0.0146104
933.603	0.0144563
933.682	0.0146033
933.760	0.0145271
933.838	0.0146133
933.916	0.0145136
933.994	0.0146636
934.072	0.0146461
934.150	0.0145715
934.228	0.0146990
934.307	0.0145975
934.385	0.0145747
934.463	0.0146120
934.541	0.0147063
934.619	0.0145937
934.697	0.0146896
934.775	0.0147855
934.853	0.0146032
934.932	0.0146185
935.010	0.0146921
935.088	0.0146680
935.166	0.0145630
935.244	0.0146787
935.322	0.0146655
935.400	0.0147204
935.478	0.0146493
935.557	0.0146978
935.635	0.0145972
935.713	0.0146550
935.791	0.0146292
935.869	0.0146009
935.947	0.0146745
936.025	0.0147913
936.103	0.0146465
936.182	0.0147147
936.260	0.0145746
936.338	0.0147337
936.416	0.0146608
936.494	0.0146015
936.572	0.0146329
936.650	0.0146877
936.728	0.0146041
936.807	0.0145354
936.885	0.0143771
936.963	0.0143849
937.041	0.0143032
937.119	0.0143165
937.197	0.0144145
937.275	0.0143414
937.353	0.0143786
937.432	0.0142911
937.510	0.0142897
937.588	0.0141878
937.666	0.0143674
937.744	0.0143523
937.822	0.0142828
937.900	0.0143774
937.978	0.0142438
938.057	0.0142986
938.135	0.0141773
938.213	0.0141936
938.291	0.0142570
938.369	0.0141735
938.447	0.0141957
938.525	0.0141944
938.603	0.0141363
938.682	0.0141250
938.760	0.0143017
938.838	0.0143172
938.916	0.0142244
938.994	0.0141192
939.072	0.0142767
939.150	0.0145186
939.228	0.0143941
939.307	0.0145500
939.385	0.0145041
939.463	0.0147466
939.541	0.0148305
939.619	0.0147191
939.697	0.0147774
939.775	0.0148026
939.853	0.0149049
939.932	0.0148789
940.010	0.0149072
940.088	0.0150935
940.166	0.0148954
940.244	0.0148816
940.322	0.0148557
940.400	0.0147829
940.478	0.0149390
940.557	0.0148200
940.635	0.0147608
940.713	0.0148380
940.791	0.0147218
940.869	0.0147173
940.947	0.0146436
941.025	0.0145614
941.103	0.0146970
941.182	0.0146854
941.260	0.0145831
941.338	0.0146641
941.416	0.0144943
941.494	0.0145081
941.572	0.0145341
941.650	0.0145219
941.728	0.0145578
941.807	0.0144916
941.885	0.0144952
941.963	0.0144724
942.041	0.0144932
942.119	0.0144177
942.197	0.0143172
942.275	0.0143659
942.353	0.0144219
942.432	0.0143840
942.510	0.0142946
942.588	0.0144714
942.666	0.0143425
942.744	0.0143520
942.822	0.0143587
942.900	0.0144406
942.978	0.0144001
943.057	0.0143444
943.135	0.0142793
943.213	0.0143887
943.291	0.0143226
943.369	0.0143358
943.447	0.0143744
943.525	0.0142536
943.603	0.0144250
943.682	0.0144798
943.760	0.0143698
943.838	0.0142942
943.916	0.0142547
943.994	0.0143745
944.072	0.0143417
944.150	0.0142457
944.228	0.0142107
944.307	0.0143336
944.385	0.0143498
944.463	0.0142793
944.541	0.0143006
944.619	0.0144081
944.697	0.0143164
944.775	0.0143558
944.853	0.0143280
944.932	0.0144286
945.010	0.0146206
945.088	0.0144364
945.166	0.0144380
945.244	0.0145612
945.322	0.0144894
945.400	0.0145501
945.478	0.0147692
945.557	0.0146735
945.635	0.0145767
945.713	0.0147329
945.791	0.0146094
945.869	0.0145999
945.947	0.0146223
946.025	0.0145973
946.103	0.0145471
946.182	0.0145333
946.260	0.0145184
946.338	0.0145763
946.416	0.0144253
946.494	0.0143679
946.572	0.0144429
946.650	0.0144189
946.728	0.0143807
946.807	0.0143692
946.885	0.0143405
946.963	0.0145221
947.041	0.0144385
947.119	0.0145222
947.197	0.0145864
947.275	0.0145909
947.353	0.0145008
947.432	0.0146785
947.510	0.0146712
947.588	0.0145260
947.666	0.0146551
947.744	0.0147340
947.822	0.0145986
947.900	0.0145614
947.978	0.0148101
948.057	0.0147798
948.135	0.0146160
948.213	0.0147585
948.291	0.0146843
948.369	0.0146471
948.447	0.0146860
948.525	0.0147992
948.603	0.0145842
948.682	0.0145130
948.760	0.0146480
948.838	0.0147264
948.916	0.0147161
948.994	0.0147474
949.072	0.0147712
949.150	0.0146043
949.228	0.0145794
949.307	0.0145071
949.385	0.0145203
949.463	0.0146562
949.541	0.0146912
949.619	0.0146080
949.697	0.0146439
949.775	0.0145732
949.853	0.0146624
949.932	0.0146478
950.010	0.0147544
950.088	0.0146049
950.166	0.0144809
950.244	0.0147305
950.322	0.0146690
950.400	0.0145893
950.478	0.0145624
950.557	0.0144098
950.635	0.0145511
950.713	0.0145336
950.791	0.0145740
950.869	0.0143519
950.947	0.0144542
951.025	0.0143352
951.103	0.0142716
951.182	0.0144956
951.260	0.0144864
951.338	0.0144513
951.416	0.0142938
951.494	0.0143486
951.572	0.0145765
951.650	0.0145016
951.728	0.0143929
951.807	0.0143658
951.885	0.0145611
951.963	0.0145290
952.041	0.0144954
952.119	0.0144503
952.197	0.0144991
952.275	0.0145582
952.353	0.0144774
952.432	0.0145093
952.510	0.0145774
952.588	0.0145378
952.666	0.0145419
952.744	0.0144082
952.822	0.0145250
952.900	0.0146127
952.978	0.0144321
953.057	0.0145603
953.135	0.0145446
953.213	0.0145673
953.291	0.0144164
953.369	0.0145628
953.447	0.0145410
953.525	0.0144071
953.603	0.0146069
953.682	0.0145914
953.760	0.0145206
953.838	0.0145677
953.916	0.0144713
953.994	0.0144348
954.072	0.0145148
954.150	0.0144904
954.228	0.0145120
954.307	0.0145448
954.385	0.0145594
954.463	0.0144917
954.541	0.0145812
954.619	0.0145314
954.697	0.0145305
954.775	0.0146838
954.853	0.0145941
954.932	0.0144824
955.010	0.0145573
955.088	0.0146303
955.166	0.0147318
955.244	0.0148430
955.322	0.0147929
955.400	0.0146111
955.478	0.0147490
955.557	0.0145907
955.635	0.0146498
955.713	0.0147591
955.791	0.0146641
955.869	0.0145960
955.947	0.0147652
956.025	0.0147674
956.103	0.0147474
956.182	0.0147438
956.260	0.0147258
956.338	0.0147478
956.416	0.0145296
956.494	0.0146056
956.572	0.0145515
956.650	0.0145850
956.728	0.0145447
956.807	0.0145673
956.885	0.0145043
956.963	0.0145991
957.041	0.0143464
957.119	0.0144786
957.197	0.0143408
957.275	0.0144214
957.353	0.0143507
957.432	0.0142386
957.510	0.0142880
957.588	0.0143349
957.666	0.0143346
957.744	0.0143709
957.822	0.0142824
957.900	0.0142876
957.978	0.0144331
958.057	0.0143366
958.135	0.0143185
958.213	0.0144329
958.291	0.0143448
958.369	0.0144392
958.447	0.0144440
958.525	0.0143974
958.603	0.0143745
958.682	0.0143814
958.760	0.0142946
958.838	0.0144086
958.916	0.0143364
958.994	0.0144656
959.072	0.0144160
959.150	0.0144874
959.228	0.0144801
959.307	0.0144075
959.385	0.0144413
959.463	0.0144048
959.541	0.0145132
959.619	0.0145800
959.697	0.0145509
959.775	0.0145158
959.853	0.0144955
959.932	0.0145874
960.010	0.0146825
960.088	0.0146671
960.166	0.0147495
960.244	0.0146380
960.322	0.0144638
960.400	0.0146805
960.478	0.0145992
960.557	0.0146085
960.635	0.0146552
960.713	0.0146869
960.791	0.0146404
960.869	0.0146693
960.947	0.0146889
961.025	0.0146932
961.103	0.0145400
961.182	0.0146934
961.260	0.0146690
961.338	0.0147007
961.416	0.0147404
961.494	0.0148302
961.572	0.0147566
961.650	0.0146030
961.728	0.0147395
961.807	0.0148236
961.885	0.0149002
961.963	0.0146158
962.041	0.0148056
962.119	0.0147525
962.197	0.0147508
962.275	0.0146681
962.353	0.0146043
962.432	0.0146127
962.510	0.0147356
962.588	0.0146235
962.666	0.0146400
962.744	0.0146205
962.822	0.0144898
962.900	0.0144163
962.978	0.0146752
963.057	0.0145649
963.135	0.0146213
963.213	0.0146198
963.291	0.0146042
963.369	0.0146984
963.447	0.0144272
963.525	0.0143774
963.603	0.0145866
963.682	0.0146566
963.760	0.0145937
963.838	0.0145562
963.916	0.0146587
963.994	0.0146085
964.072	0.0144373
964.150	0.0145757
964.228	0.0145417
964.307	0.0144115
964.385	0.0144808
964.463	0.0144280
964.541	0.0143289
964.619	0.0145509
964.697	0.0145190
964.775	0.0143819
964.853	0.0144016
964.932	0.0145399
965.010	0.0143959
965.088	0.0143651
965.166	0.0143965
965.244	0.0144221
965.322	0.0143469
965.400	0.0145579
965.478	0.0144712
965.557	0.0143190
965.635	0.0143671
965.713	0.0143956
965.791	0.0146001
965.869	0.0145084
965.947	0.0144377
966.025	0.0144971
966.103	0.0145986
966.182	0.0146943
966.260	0.0146342
966.338	0.0146385
966.416	0.0145938
966.494	0.0146951
966.572	0.0147130
966.650	0.0147748
966.728	0.0149604
966.807	0.0147415
966.885	0.0146986
966.963	0.0148101
967.041	0.0147475
967.119	0.0148447
967.197	0.0146870
967.275	0.0148262
967.353	0.0147903
967.432	0.0146445
967.510	0.0147309
967.588	0.0146555
967.666	0.0147221
967.744	0.0147607
967.822	0.0147807
967.900	0.0147166
967.978	0.0146020
968.057	0.0147830
968.135	0.0146213
968.213	0.0146880
968.291	0.0145655
968.369	0.0146173
968.447	0.0146606
968.525	0.0145789
968.603	0.0146468
968.682	0.0146555
968.760	0.0145135
968.838	0.0145132
968.916	0.0145586
968.994	0.0146034
969.072	0.0145992
969.150	0.0146718
969.228	0.0146996
969.307	0.0147442
969.385	0.0146995
969.463	0.0145977
969.541	0.0146059
969.619	0.0146645
969.697	0.0145522
969.775	0.0146730
969.853	0.0147253
969.932	0.0146750
