05/14/2022	19:22:25	Ver.	4.1	UNKNOWN
Optical Delay	650.009681	Delta X		0.078125	Sweeps	1	Scan Rate	0/0
Coordinates	Axis 1	NaN	Axis 2	NaN	Axis 3	NaN	Axis 4	NaN	Axis 5	NaN	Axis 6	0.000000
TX Power	0.000000	RX Power	0.000000

650.010	0.0143102
650.088	0.0142949
650.166	0.0143582
650.244	0.0142947
650.322	0.0142363
650.400	0.0143925
650.478	0.0141616
650.557	0.0142709
650.635	0.0142845
650.713	0.0143266
650.791	0.0142535
650.869	0.0141416
650.947	0.0143092
651.025	0.0143415
651.103	0.0141988
651.182	0.0142577
651.260	0.0141419
651.338	0.0142503
651.416	0.0142229
651.494	0.0142104
651.572	0.0142485
651.650	0.0143355
651.728	0.0142266
651.807	0.0142853
651.885	0.0141903
651.963	0.0142928
652.041	0.0143422
652.119	0.0144156
652.197	0.0143459
652.275	0.0142168
652.353	0.0143604
652.432	0.0142674
652.510	0.0143104
652.588	0.0143055
652.666	0.0143473
652.744	0.0143352
652.822	0.0142777
652.900	0.0141351
652.978	0.0143318
653.057	0.0142825
653.135	0.0142538
653.213	0.0143858
653.291	0.0143716
653.369	0.0143185
653.447	0.0143192
653.525	0.0143250
653.603	0.0142322
653.682	0.0143043
653.760	0.0143698
653.838	0.0142465
653.916	0.0142736
653.994	0.0142546
654.072	0.0142495
654.150	0.0143208
654.228	0.0142774
654.307	0.0143115
654.385	0.0141402
654.463	0.0142155
654.541	0.0143098
654.619	0.0143732
654.697	0.0141110
654.775	0.0142671
654.853	0.0144797
654.932	0.0143288
655.010	0.0142735
655.088	0.0142678
655.166	0.0141565
655.244	0.0142491
655.322	0.0142216
655.400	0.0142467
655.478	0.0141854
655.557	0.0139943
655.635	0.0142382
655.713	0.0142821
655.791	0.0142048
655.869	0.0142251
655.947	0.0141309
656.025	0.0142284
656.103	0.0141893
656.182	0.0141663
656.260	0.0140965
656.338	0.0140546
656.416	0.0141587
656.494	0.0141479
656.572	0.0141280
656.650	0.0141673
656.728	0.0141531
656.807	0.0141677
656.885	0.0141391
656.963	0.0141309
657.041	0.0141815
657.119	0.0140561
657.197	0.0141273
657.275	0.0141568
657.353	0.0142264
657.432	0.0142558
657.510	0.0140191
657.588	0.0143457
657.666	0.0141644
657.744	0.0140880
657.822	0.0142100
657.900	0.0141323
657.978	0.0140376
658.057	0.0142270
658.135	0.0142041
658.213	0.0141530
658.291	0.0142674
658.369	0.0142092
658.447	0.0141891
658.525	0.0141524
658.603	0.0142429
658.682	0.0142190
658.760	0.0141645
658.838	0.0141695
658.916	0.0140958
658.994	0.0142428
659.072	0.0142145
659.150	0.0141898
659.228	0.0142343
659.307	0.0142658
659.385	0.0142987
659.463	0.0143188
659.541	0.0141843
659.619	0.0141901
659.697	0.0143068
659.775	0.0142144
659.853	0.0141969
659.932	0.0141897
660.010	0.0141492
660.088	0.0142936
660.166	0.0141605
660.244	0.0142013
660.322	0.0142764
660.400	0.0142385
660.478	0.0143394
660.557	0.0141468
660.635	0.0141273
660.713	0.0141750
660.791	0.0141199
660.869	0.0141538
660.947	0.0142427
661.025	0.0141901
661.103	0.0143726
661.182	0.0141932
661.260	0.0141591
661.338	0.0141578
661.416	0.0141314
661.494	0.0143143
661.572	0.0142448
661.650	0.0141143
661.728	0.0141864
661.807	0.0142230
661.885	0.0142377
661.963	0.0141940
662.041	0.0143195
662.119	0.0141289
662.197	0.0142071
662.275	0.0143435
662.353	0.0140728
662.432	0.0141283
662.510	0.0142510
662.588	0.0140195
662.666	0.0142033
662.744	0.0143274
662.822	0.0141222
662.900	0.0142033
662.978	0.0141971
663.057	0.0142055
663.135	0.0141856
663.213	0.0140537
663.291	0.0142409
663.369	0.0141682
663.447	0.0141879
663.525	0.0142845
663.603	0.0142342
663.682	0.0142278
663.760	0.0141468
663.838	0.0142230
663.916	0.0142230
663.994	0.0142648
664.072	0.0141348
664.150	0.0141360
664.228	0.0141708
664.307	0.0142903
664.385	0.0141013
664.463	0.0142310
664.541	0.0142358
664.619	0.0141629
664.697	0.0141718
664.775	0.0143771
664.853	0.0142536
664.932	0.0141788
665.010	0.0142477
665.088	0.0142429
665.166	0.0142479
665.244	0.0144117
665.322	0.0143961
665.400	0.0143280
665.478	0.0143234
665.557	0.0143658
665.635	0.0141322
665.713	0.0142509
665.791	0.0142013
665.869	0.0143233
665.947	0.0141759
666.025	0.0141908
666.103	0.0142167
666.182	0.0142493
666.260	0.0141185
666.338	0.0142667
666.416	0.0142096
666.494	0.0143119
666.572	0.0141583
666.650	0.0142123
666.728	0.0143235
666.807	0.0143160
666.885	0.0141573
666.963	0.0141540
667.041	0.0143158
667.119	0.0141737
667.197	0.0141972
667.275	0.0141277
667.353	0.0142164
667.432	0.0142971
667.510	0.0142871
667.588	0.0142185
667.666	0.0141366
667.744	0.0141702
667.822	0.0141587
667.900	0.0141229
667.978	0.0142400
668.057	0.0140919
668.135	0.0142222
668.213	0.0142875
668.291	0.0142310
668.369	0.0141270
668.447	0.0141524
668.525	0.0142753
668.603	0.0141435
668.682	0.0140962
668.760	0.0141140
668.838	0.0143275
668.916	0.0142133
668.994	0.0142205
669.072	0.0141039
669.150	0.0142768
669.228	0.0141520
669.307	0.0143285
669.385	0.0142143
669.463	0.0142194
669.541	0.0141579
669.619	0.0142651
669.697	0.0143751
669.775	0.0142831
669.853	0.0142165
669.932	0.0141544
670.010	0.0142772
670.088	0.0142046
670.166	0.0141991
670.244	0.0142751
670.322	0.0142350
670.400	0.0141890
670.478	0.0143071
670.557	0.0144448
670.635	0.0144453
670.713	0.0142187
670.791	0.0142771
670.869	0.0142908
670.947	0.0143456
671.025	0.0142610
671.103	0.0142822
671.182	0.0142522
671.260	0.0143082
671.338	0.0143530
671.416	0.0144521
671.494	0.0142490
671.572	0.0142220
671.650	0.0143143
671.728	0.0142731
671.807	0.0143630
671.885	0.0142305
671.963	0.0142862
672.041	0.0142337
672.119	0.0142838
672.197	0.0142912
672.275	0.0143614
672.353	0.0143908
672.432	0.0142867
672.510	0.0143123
672.588	0.0143542
672.666	0.0143842
672.744	0.0142782
672.822	0.0143570
672.900	0.0144212
672.978	0.0143355
673.057	0.0142818
673.135	0.0144538
673.213	0.0143866
673.291	0.0143503
673.369	0.0143835
673.447	0.0142982
673.525	0.0142001
673.603	0.0144812
673.682	0.0144077
673.760	0.0144324
673.838	0.0143597
673.916	0.0143050
673.994	0.0144920
674.072	0.0143517
674.150	0.0143670
674.228	0.0143486
674.307	0.0142470
674.385	0.0142739
674.463	0.0141131
674.541	0.0140890
674.619	0.0140202
674.697	0.0138057
674.775	0.0139444
674.853	0.0139400
674.932	0.0139586
675.010	0.0143323
675.088	0.0144569
675.166	0.0144917
675.244	0.0145895
675.322	0.0149110
675.400	0.0149389
675.478	0.0149615
675.557	0.0150587
675.635	0.0151449
675.713	0.0150075
675.791	0.0148733
675.869	0.0146939
675.947	0.0143549
676.025	0.0141930
676.103	0.0139472
676.182	0.0136069
676.260	0.0134713
676.338	0.0134879
676.416	0.0132880
676.494	0.0132635
676.572	0.0134851
676.650	0.0133969
676.728	0.0135487
676.807	0.0135651
676.885	0.0137217
676.963	0.0137945
677.041	0.0139590
677.119	0.0140322
677.197	0.0142148
677.275	0.0144040
677.353	0.0145294
677.432	0.0144727
677.510	0.0147402
677.588	0.0148512
677.666	0.0150264
677.744	0.0149421
677.822	0.0153260
677.900	0.0152270
677.978	0.0153220
678.057	0.0152017
678.135	0.0152927
678.213	0.0152242
678.291	0.0150478
678.369	0.0149875
678.447	0.0147976
678.525	0.0146861
678.603	0.0144855
678.682	0.0144205
678.760	0.0141649
678.838	0.0140136
678.916	0.0136817
678.994	0.0138232
679.072	0.0136423
679.150	0.0133737
679.228	0.0133824
679.307	0.0132104
679.385	0.0130022
679.463	0.0130197
679.541	0.0129937
679.619	0.0126349
679.697	0.0127010
679.775	0.0127297
679.853	0.0129845
679.932	0.0129937
680.010	0.0132409
680.088	0.0133361
680.166	0.0135680
680.244	0.0139857
680.322	0.0144834
680.400	0.0146619
680.478	0.0151321
680.557	0.0155016
680.635	0.0156724
680.713	0.0161304
680.791	0.0164648
680.869	0.0164526
680.947	0.0165123
681.025	0.0165043
681.103	0.0162707
681.182	0.0159321
681.260	0.0157980
681.338	0.0155588
681.416	0.0152325
681.494	0.0149046
681.572	0.0145121
681.650	0.0142250
681.728	0.0141512
681.807	0.0140009
681.885	0.0138589
681.963	0.0137005
682.041	0.0136044
682.119	0.0134723
682.197	0.0132460
682.275	0.0131625
682.353	0.0127545
682.432	0.0123071
682.510	0.0119321
682.588	0.0114875
682.666	0.0112071
682.744	0.0110925
682.822	0.0110704
682.900	0.0111559
682.978	0.0113740
683.057	0.0117133
683.135	0.0122196
683.213	0.0129082
683.291	0.0134974
683.369	0.0142504
683.447	0.0147387
683.525	0.0153784
683.603	0.0159824
683.682	0.0163591
683.760	0.0166205
683.838	0.0167587
683.916	0.0166368
683.994	0.0167431
684.072	0.0168257
684.150	0.0166382
684.228	0.0166771
684.307	0.0166607
684.385	0.0165724
684.463	0.0164261
684.541	0.0161890
684.619	0.0160999
684.697	0.0158854
684.775	0.0155476
684.853	0.0151636
684.932	0.0148521
685.010	0.0143781
685.088	0.0139242
685.166	0.0135896
685.244	0.0132150
685.322	0.0128178
685.400	0.0126434
685.478	0.0126810
685.557	0.0123084
685.635	0.0123468
685.713	0.0121598
685.791	0.0121337
685.869	0.0121545
685.947	0.0121294
686.025	0.0120552
686.103	0.0122270
686.182	0.0122694
686.260	0.0122971
686.338	0.0125459
686.416	0.0125932
686.494	0.0131181
686.572	0.0134371
686.650	0.0137531
686.728	0.0143520
686.807	0.0148139
686.885	0.0152536
686.963	0.0157500
687.041	0.0161488
687.119	0.0165253
687.197	0.0166303
687.275	0.0168562
687.353	0.0167195
687.432	0.0164260
687.510	0.0160158
687.588	0.0157997
687.666	0.0153416
687.744	0.0147906
687.822	0.0143557
687.900	0.0140681
687.978	0.0136471
688.057	0.0135208
688.135	0.0133052
688.213	0.0133286
688.291	0.0133524
688.369	0.0134914
688.447	0.0138110
688.525	0.0141053
688.603	0.0143703
688.682	0.0145867
688.760	0.0147424
688.838	0.0148528
688.916	0.0149113
688.994	0.0148760
689.072	0.0148219
689.150	0.0149434
689.228	0.0145757
689.307	0.0146128
689.385	0.0147362
689.463	0.0145684
689.541	0.0146851
689.619	0.0147231
689.697	0.0148336
689.775	0.0149119
689.853	0.0150174
689.932	0.0150370
690.010	0.0147954
690.088	0.0146823
690.166	0.0147514
690.244	0.0144677
690.322	0.0142389
690.400	0.0140465
690.478	0.0138596
690.557	0.0137114
690.635	0.0135956
690.713	0.0135920
690.791	0.0133993
690.869	0.0132048
690.947	0.0131300
691.025	0.0130166
691.103	0.0130357
691.182	0.0129663
691.260	0.0130840
691.338	0.0128911
691.416	0.0126897
691.494	0.0126260
691.572	0.0127043
691.650	0.0128074
691.728	0.0127214
691.807	0.0127200
691.885	0.0128981
691.963	0.0133176
692.041	0.0134785
692.119	0.0137961
692.197	0.0140829
692.275	0.0146764
692.353	0.0149406
692.432	0.0152753
692.510	0.0155707
692.588	0.0159491
692.666	0.0162148
692.744	0.0162672
692.822	0.0164729
692.900	0.0165420
692.978	0.0162257
693.057	0.0160936
693.135	0.0159138
693.213	0.0158006
693.291	0.0154832
693.369	0.0155375
693.447	0.0153877
693.525	0.0152873
693.603	0.0153033
693.682	0.0154315
693.760	0.0154154
693.838	0.0154721
693.916	0.0154443
693.994	0.0153651
694.072	0.0153801
694.150	0.0150219
694.228	0.0147404
694.307	0.0144892
694.385	0.0139529
694.463	0.0137325
694.541	0.0133318
694.619	0.0130475
694.697	0.0128518
694.775	0.0127103
694.853	0.0124740
694.932	0.0123580
695.010	0.0125815
695.088	0.0124886
695.166	0.0125101
695.244	0.0125285
695.322	0.0122778
695.400	0.0123514
695.478	0.0123212
695.557	0.0120699
695.635	0.0120874
695.713	0.0119440
695.791	0.0118300
695.869	0.0120881
695.947	0.0121165
696.025	0.0122538
696.103	0.0125771
696.182	0.0129503
696.260	0.0132990
696.338	0.0136285
696.416	0.0140398
696.494	0.0144196
696.572	0.0148251
696.650	0.0150890
696.728	0.0154556
696.807	0.0155492
696.885	0.0158062
696.963	0.0159670
697.041	0.0160882
697.119	0.0163470
697.197	0.0163824
697.275	0.0163818
697.353	0.0164719
697.432	0.0165094
697.510	0.0165179
697.588	0.0163699
697.666	0.0162814
697.744	0.0162202
697.822	0.0160230
697.900	0.0160246
697.978	0.0157716
698.057	0.0157348
698.135	0.0157312
698.213	0.0155387
698.291	0.0156140
698.369	0.0155088
698.447	0.0152299
698.525	0.0151570
698.603	0.0148411
698.682	0.0145919
698.760	0.0141682
698.838	0.0137539
698.916	0.0132222
698.994	0.0129197
699.072	0.0124756
699.150	0.0120345
699.228	0.0119251
699.307	0.0115865
699.385	0.0116406
699.463	0.0116920
699.541	0.0117648
699.619	0.0118526
699.697	0.0121017
699.775	0.0122894
699.853	0.0125440
699.932	0.0128935
700.010	0.0133482
700.088	0.0135303
700.166	0.0137895
700.244	0.0142657
700.322	0.0147601
700.400	0.0150962
700.478	0.0156774
700.557	0.0158052
700.635	0.0160659
700.713	0.0163422
700.791	0.0163293
700.869	0.0164128
700.947	0.0162218
701.025	0.0158202
701.103	0.0155706
701.182	0.0152003
701.260	0.0147356
701.338	0.0143259
701.416	0.0138072
701.494	0.0131870
701.572	0.0126952
701.650	0.0125133
701.728	0.0120311
701.807	0.0119234
701.885	0.0116316
701.963	0.0116967
702.041	0.0118211
702.119	0.0119216
702.197	0.0120775
702.275	0.0122667
702.353	0.0127789
702.432	0.0130842
702.510	0.0134099
702.588	0.0137894
702.666	0.0141017
702.744	0.0145709
702.822	0.0148672
702.900	0.0152685
702.978	0.0155429
703.057	0.0158404
703.135	0.0162088
703.213	0.0164346
703.291	0.0166192
703.369	0.0168949
703.447	0.0172511
703.525	0.0173168
703.603	0.0172556
703.682	0.0173821
703.760	0.0175246
703.838	0.0174947
703.916	0.0171356
703.994	0.0170963
704.072	0.0169897
704.150	0.0166342
704.228	0.0163380
704.307	0.0159842
704.385	0.0157766
704.463	0.0153643
704.541	0.0150523
704.619	0.0145843
704.697	0.0141901
704.775	0.0139674
704.853	0.0135914
704.932	0.0134282
705.010	0.0131387
705.088	0.0127467
705.166	0.0124679
705.244	0.0120949
705.322	0.0119800
705.400	0.0116642
705.478	0.0115229
705.557	0.0110223
705.635	0.0110664
705.713	0.0110293
705.791	0.0110063
705.869	0.0110659
705.947	0.0110409
706.025	0.0112383
706.103	0.0115408
706.182	0.0119028
706.260	0.0121796
706.338	0.0123364
706.416	0.0127842
706.494	0.0129683
706.572	0.0133013
706.650	0.0134534
706.728	0.0137446
706.807	0.0138030
706.885	0.0141455
706.963	0.0143030
707.041	0.0143082
707.119	0.0146188
707.197	0.0149773
707.275	0.0151947
707.353	0.0153470
707.432	0.0154668
707.510	0.0157484
707.588	0.0159313
707.666	0.0158385
707.744	0.0159863
707.822	0.0160773
707.900	0.0160448
707.978	0.0158816
708.057	0.0157119
708.135	0.0156133
708.213	0.0156033
708.291	0.0154597
708.369	0.0154634
708.447	0.0154391
708.525	0.0154152
708.603	0.0152419
708.682	0.0153298
708.760	0.0154377
708.838	0.0152408
708.916	0.0154155
708.994	0.0153413
709.072	0.0154265
709.150	0.0153667
709.228	0.0152290
709.307	0.0151821
709.385	0.0150418
709.463	0.0149522
709.541	0.0150580
709.619	0.0149672
709.697	0.0151254
709.775	0.0152036
709.853	0.0151188
709.932	0.0153069
710.010	0.0153493
710.088	0.0151253
710.166	0.0150649
710.244	0.0149599
710.322	0.0148189
710.400	0.0146403
710.478	0.0144035
710.557	0.0139942
710.635	0.0136621
710.713	0.0132915
710.791	0.0129108
710.869	0.0126067
710.947	0.0123093
711.025	0.0121387
711.103	0.0119311
711.182	0.0116479
711.260	0.0116315
711.338	0.0116011
711.416	0.0117757
711.494	0.0118389
711.572	0.0118450
711.650	0.0120840
711.728	0.0120524
711.807	0.0122215
711.885	0.0124502
711.963	0.0126556
712.041	0.0130682
712.119	0.0132806
712.197	0.0134055
712.275	0.0133485
712.353	0.0136403
712.432	0.0137333
712.510	0.0139187
712.588	0.0141570
712.666	0.0141244
712.744	0.0141052
712.822	0.0142668
712.900	0.0142996
712.978	0.0141534
713.057	0.0141730
713.135	0.0142737
713.213	0.0142992
713.291	0.0143641
713.369	0.0143690
713.447	0.0144213
713.525	0.0143289
713.603	0.0143121
713.682	0.0144880
713.760	0.0146555
713.838	0.0147910
713.916	0.0148537
713.994	0.0150117
714.072	0.0151437
714.150	0.0153899
714.228	0.0157653
714.307	0.0160801
714.385	0.0162624
714.463	0.0164616
714.541	0.0165696
714.619	0.0167879
714.697	0.0170261
714.775	0.0169653
714.853	0.0168232
714.932	0.0168233
715.010	0.0166005
715.088	0.0164621
715.166	0.0161112
715.244	0.0161749
715.322	0.0160637
715.400	0.0158683
715.478	0.0158315
715.557	0.0156481
715.635	0.0153599
715.713	0.0154352
715.791	0.0154047
715.869	0.0153156
715.947	0.0151701
716.025	0.0149146
716.103	0.0145998
716.182	0.0142698
716.260	0.0136414
716.338	0.0132973
716.416	0.0129923
716.494	0.0124549
716.572	0.0119110
716.650	0.0115304
716.728	0.0109043
716.807	0.0104982
716.885	0.0101987
716.963	0.00998695
717.041	0.00992157
717.119	0.00987793
717.197	0.00965981
717.275	0.00992210
717.353	0.00998970
717.432	0.0103615
717.510	0.0106607
717.588	0.0110808
717.666	0.0116512
717.744	0.0121524
717.822	0.0128027
717.900	0.0133463
717.978	0.0138588
718.057	0.0144710
718.135	0.0149089
718.213	0.0153903
718.291	0.0154868
718.369	0.0158598
718.447	0.0161368
718.525	0.0161468
718.603	0.0161163
718.682	0.0159498
718.760	0.0158355
718.838	0.0156362
718.916	0.0154738
718.994	0.0152579
719.072	0.0150900
719.150	0.0149513
719.228	0.0149060
719.307	0.0149518
719.385	0.0149661
719.463	0.0150161
719.541	0.0150407
719.619	0.0151616
719.697	0.0151041
719.775	0.0152401
719.853	0.0153593
719.932	0.0154524
720.010	0.0155019
720.088	0.0155140
720.166	0.0154269
720.244	0.0153635
720.322	0.0153633
720.400	0.0154245
720.478	0.0154516
720.557	0.0153462
720.635	0.0152946
720.713	0.0153713
720.791	0.0153078
720.869	0.0152461
720.947	0.0151025
721.025	0.0151568
721.103	0.0151625
721.182	0.0150678
721.260	0.0150764
721.338	0.0151068
721.416	0.0150784
721.494	0.0150589
721.572	0.0152466
721.650	0.0153236
721.728	0.0152340
721.807	0.0152972
721.885	0.0155232
721.963	0.0154105
722.041	0.0154310
722.119	0.0152667
722.197	0.0149438
722.275	0.0148808
722.353	0.0143193
722.432	0.0138631
722.510	0.0134253
722.588	0.0130126
722.666	0.0124377
722.744	0.0118069
722.822	0.0113043
722.900	0.0111371
722.978	0.0107158
723.057	0.0104982
723.135	0.0102415
723.213	0.0102322
723.291	0.0105418
723.369	0.0107194
723.447	0.0109398
723.525	0.0113883
723.603	0.0119264
723.682	0.0125543
723.760	0.0129472
723.838	0.0133922
723.916	0.0137738
723.994	0.0143120
724.072	0.0148433
724.150	0.0149878
724.228	0.0154243
724.307	0.0153098
724.385	0.0154598
724.463	0.0155587
724.541	0.0152534
724.619	0.0150584
724.697	0.0150481
724.775	0.0146804
724.853	0.0145291
724.932	0.0144084
725.010	0.0142544
725.088	0.0142663
725.166	0.0139953
725.244	0.0140685
725.322	0.0142179
725.400	0.0144299
725.478	0.0145449
725.557	0.0145876
725.635	0.0148989
725.713	0.0148746
725.791	0.0151089
725.869	0.0152971
725.947	0.0154700
726.025	0.0153779
726.103	0.0155853
726.182	0.0157916
726.260	0.0156740
726.338	0.0157005
726.416	0.0157481
726.494	0.0156937
726.572	0.0156821
726.650	0.0157410
726.728	0.0156881
726.807	0.0156315
726.885	0.0155093
726.963	0.0154765
727.041	0.0153192
727.119	0.0152348
727.197	0.0150813
727.275	0.0150952
727.353	0.0150893
727.432	0.0150692
727.510	0.0151955
727.588	0.0152493
727.666	0.0153811
727.744	0.0153326
727.822	0.0153345
727.900	0.0155190
727.978	0.0155373
728.057	0.0155482
728.135	0.0155673
728.213	0.0154665
728.291	0.0151061
728.369	0.0149767
728.447	0.0144433
728.525	0.0141682
728.603	0.0137398
728.682	0.0133476
728.760	0.0129051
728.838	0.0123260
728.916	0.0120142
728.994	0.0117838
729.072	0.0114607
729.150	0.0112167
729.228	0.0113131
729.307	0.0114099
729.385	0.0114639
729.463	0.0116599
729.541	0.0118383
729.619	0.0120020
729.697	0.0120711
729.775	0.0125558
729.853	0.0128235
729.932	0.0132133
730.010	0.0135118
730.088	0.0137669
730.166	0.0138604
730.244	0.0140786
730.322	0.0140453
730.400	0.0140852
730.478	0.0141916
730.557	0.0141837
730.635	0.0140878
730.713	0.0140381
730.791	0.0140111
730.869	0.0137585
730.947	0.0135492
731.025	0.0134448
731.103	0.0132892
731.182	0.0132236
731.260	0.0131598
731.338	0.0132214
731.416	0.0134502
731.494	0.0135706
731.572	0.0138482
731.650	0.0141087
731.728	0.0142918
731.807	0.0147709
731.885	0.0150323
731.963	0.0153693
732.041	0.0156229
732.119	0.0159271
732.197	0.0159431
732.275	0.0160861
732.353	0.0163162
732.432	0.0162627
732.510	0.0162568
732.588	0.0163881
732.666	0.0163213
732.744	0.0162872
732.822	0.0163667
732.900	0.0163718
732.978	0.0164301
733.057	0.0163406
733.135	0.0163126
733.213	0.0162564
733.291	0.0160925
733.369	0.0162083
733.447	0.0160294
733.525	0.0162601
733.603	0.0161480
733.682	0.0158342
733.760	0.0158440
733.838	0.0158671
733.916	0.0157687
733.994	0.0156770
734.072	0.0153854
734.150	0.0153526
734.228	0.0151012
734.307	0.0148672
734.385	0.0146784
734.463	0.0143162
734.541	0.0141826
734.619	0.0137409
734.697	0.0132886
734.775	0.0128758
734.853	0.0124795
734.932	0.0120957
735.010	0.0117041
735.088	0.0113150
735.166	0.0110661
735.244	0.0109102
735.322	0.0107104
735.400	0.0104945
735.478	0.0105444
735.557	0.0106000
735.635	0.0106426
735.713	0.0106827
735.791	0.0108006
735.869	0.0109039
735.947	0.0112198
736.025	0.0112476
736.103	0.0115900
736.182	0.0119174
736.260	0.0121864
736.338	0.0123493
736.416	0.0128264
736.494	0.0130425
736.572	0.0135285
736.650	0.0139422
736.728	0.0141158
736.807	0.0143194
736.885	0.0145123
736.963	0.0145918
737.041	0.0147828
737.119	0.0150174
737.197	0.0149854
737.275	0.0150504
737.353	0.0150130
737.432	0.0151048
737.510	0.0150468
737.588	0.0150483
737.666	0.0151018
737.744	0.0151466
737.822	0.0151031
737.900	0.0151297
737.978	0.0152575
738.057	0.0154709
738.135	0.0155344
738.213	0.0157133
738.291	0.0158384
738.369	0.0159996
738.447	0.0160072
738.525	0.0160410
738.603	0.0162408
738.682	0.0162210
738.760	0.0162014
738.838	0.0162249
738.916	0.0162284
738.994	0.0161734
739.072	0.0159928
739.150	0.0160342
739.228	0.0159934
739.307	0.0159364
739.385	0.0158053
739.463	0.0157632
739.541	0.0157410
739.619	0.0155997
739.697	0.0155592
739.775	0.0154990
739.853	0.0154311
739.932	0.0154635
740.010	0.0155159
740.088	0.0153239
740.166	0.0150739
740.244	0.0150237
740.322	0.0147668
740.400	0.0146912
740.478	0.0145599
740.557	0.0141489
740.635	0.0140048
740.713	0.0136883
740.791	0.0135828
740.869	0.0132527
740.947	0.0129668
741.025	0.0128838
741.103	0.0125867
741.182	0.0123369
741.260	0.0120806
741.338	0.0118481
741.416	0.0117023
741.494	0.0115018
741.572	0.0114483
741.650	0.0113666
741.728	0.0112128
741.807	0.0112662
741.885	0.0110985
741.963	0.0111085
742.041	0.0113461
742.119	0.0114076
742.197	0.0115521
742.275	0.0115272
742.353	0.0120159
742.432	0.0121487
742.510	0.0124407
742.588	0.0126830
742.666	0.0131113
742.744	0.0132890
742.822	0.0135557
742.900	0.0138374
742.978	0.0143122
743.057	0.0144398
743.135	0.0146188
743.213	0.0147166
743.291	0.0149130
743.369	0.0148501
743.447	0.0149224
743.525	0.0150346
743.603	0.0151519
743.682	0.0150630
743.760	0.0151414
743.838	0.0151043
743.916	0.0153438
743.994	0.0156030
744.072	0.0155576
744.150	0.0154623
744.228	0.0156183
744.307	0.0157076
744.385	0.0156673
744.463	0.0158472
744.541	0.0158578
744.619	0.0159240
744.697	0.0158381
744.775	0.0158612
744.853	0.0160585
744.932	0.0159329
745.010	0.0159200
745.088	0.0158543
745.166	0.0157432
745.244	0.0157078
745.322	0.0157008
745.400	0.0155629
745.478	0.0155749
745.557	0.0155883
745.635	0.0155522
745.713	0.0153527
745.791	0.0153174
745.869	0.0151382
745.947	0.0149789
746.025	0.0151098
746.103	0.0150445
746.182	0.0149509
746.260	0.0148958
746.338	0.0147890
746.416	0.0146387
746.494	0.0145839
746.572	0.0144708
746.650	0.0142184
746.728	0.0140409
746.807	0.0138908
746.885	0.0137276
746.963	0.0135600
747.041	0.0132506
747.119	0.0131731
747.197	0.0130013
747.275	0.0128438
747.353	0.0129209
747.432	0.0127993
747.510	0.0126089
747.588	0.0126510
747.666	0.0126392
747.744	0.0127163
747.822	0.0127338
747.900	0.0127275
747.978	0.0126743
748.057	0.0127016
748.135	0.0127579
748.213	0.0126362
748.291	0.0126132
748.369	0.0127639
748.447	0.0128119
748.525	0.0128551
748.603	0.0128844
748.682	0.0129885
748.760	0.0131521
748.838	0.0131686
748.916	0.0131995
748.994	0.0134286
749.072	0.0137177
749.150	0.0137746
749.228	0.0139695
749.307	0.0140605
749.385	0.0140300
749.463	0.0143053
749.541	0.0143736
749.619	0.0144231
749.697	0.0145440
749.775	0.0146880
749.853	0.0146515
749.932	0.0146841
750.010	0.0148363
750.088	0.0149335
750.166	0.0150933
750.244	0.0152361
750.322	0.0154089
750.400	0.0154588
750.478	0.0154684
750.557	0.0157848
750.635	0.0158139
750.713	0.0157721
750.791	0.0155978
750.869	0.0158181
750.947	0.0158582
751.025	0.0157440
751.103	0.0155913
751.182	0.0156750
751.260	0.0156795
751.338	0.0155810
751.416	0.0153936
751.494	0.0154065
751.572	0.0154227
751.650	0.0153242
751.728	0.0152900
751.807	0.0152162
751.885	0.0150732
751.963	0.0151938
752.041	0.0152435
752.119	0.0151456
752.197	0.0151869
752.275	0.0151315
752.353	0.0150588
752.432	0.0149739
752.510	0.0150404
752.588	0.0148060
752.666	0.0147424
752.744	0.0144866
752.822	0.0143990
752.900	0.0143838
752.978	0.0142809
753.057	0.0140308
753.135	0.0137840
753.213	0.0139335
753.291	0.0138407
753.369	0.0136902
753.447	0.0136171
753.525	0.0134916
753.603	0.0132542
753.682	0.0133825
753.760	0.0134149
753.838	0.0134031
753.916	0.0134077
753.994	0.0133005
754.072	0.0132870
754.150	0.0134020
754.228	0.0133467
754.307	0.0131897
754.385	0.0131742
754.463	0.0132332
754.541	0.0131647
754.619	0.0132083
754.697	0.0132009
754.775	0.0131636
754.853	0.0131585
754.932	0.0131240
755.010	0.0131834
755.088	0.0130979
755.166	0.0133187
755.244	0.0131709
755.322	0.0131280
755.400	0.0133663
755.478	0.0133797
755.557	0.0135487
755.635	0.0136725
755.713	0.0136662
755.791	0.0137881
755.869	0.0139282
755.947	0.0139796
756.025	0.0141226
756.103	0.0140934
756.182	0.0141459
756.260	0.0144072
756.338	0.0144980
756.416	0.0144131
756.494	0.0145663
756.572	0.0145886
756.650	0.0147346
756.728	0.0147112
756.807	0.0146680
756.885	0.0148054
756.963	0.0149706
757.041	0.0149440
757.119	0.0149139
757.197	0.0149157
757.275	0.0150185
757.353	0.0150440
757.432	0.0150631
757.510	0.0148740
757.588	0.0148777
757.666	0.0147748
757.744	0.0149070
757.822	0.0147624
757.900	0.0148205
757.978	0.0148022
758.057	0.0148421
758.135	0.0149622
758.213	0.0149775
758.291	0.0149400
758.369	0.0150388
758.447	0.0150283
758.525	0.0148779
758.603	0.0150173
758.682	0.0149019
758.760	0.0149240
758.838	0.0147158
758.916	0.0148103
758.994	0.0145651
759.072	0.0144930
759.150	0.0142274
759.228	0.0141270
759.307	0.0140118
759.385	0.0140334
759.463	0.0139012
759.541	0.0138201
759.619	0.0138474
759.697	0.0140675
759.775	0.0139059
759.853	0.0138939
759.932	0.0140412
760.010	0.0140808
760.088	0.0139960
760.166	0.0140562
760.244	0.0140443
760.322	0.0140056
760.400	0.0140514
760.478	0.0139681
760.557	0.0139668
760.635	0.0140751
760.713	0.0138249
760.791	0.0138103
760.869	0.0139504
760.947	0.0138011
761.025	0.0137708
761.103	0.0137407
761.182	0.0136816
761.260	0.0136012
761.338	0.0136144
761.416	0.0135365
761.494	0.0135198
761.572	0.0134346
761.650	0.0134272
761.728	0.0133984
761.807	0.0133485
761.885	0.0134131
761.963	0.0134203
762.041	0.0133076
762.119	0.0132947
762.197	0.0133604
762.275	0.0135464
762.353	0.0134148
762.432	0.0135522
762.510	0.0135014
762.588	0.0136276
762.666	0.0135943
762.744	0.0137705
762.822	0.0139462
762.900	0.0139237
762.978	0.0140604
763.057	0.0140945
763.135	0.0142098
763.213	0.0140868
763.291	0.0140473
763.369	0.0142029
763.447	0.0143109
763.525	0.0144695
763.603	0.0143669
763.682	0.0145656
763.760	0.0145567
763.838	0.0145418
763.916	0.0146222
763.994	0.0146031
764.072	0.0145741
764.150	0.0145525
764.228	0.0146508
764.307	0.0147969
764.385	0.0148428
764.463	0.0149953
764.541	0.0150115
764.619	0.0149564
764.697	0.0148260
764.775	0.0147571
764.853	0.0149478
764.932	0.0149539
765.010	0.0148410
765.088	0.0148119
765.166	0.0147727
765.244	0.0148057
765.322	0.0148405
765.400	0.0146999
765.478	0.0147996
765.557	0.0145400
765.635	0.0146808
765.713	0.0146099
765.791	0.0146122
765.869	0.0145103
765.947	0.0148613
766.025	0.0146304
766.103	0.0146464
766.182	0.0147063
766.260	0.0147278
766.338	0.0148209
766.416	0.0147037
766.494	0.0147266
766.572	0.0146017
766.650	0.0146517
766.728	0.0146392
766.807	0.0144587
766.885	0.0142641
766.963	0.0142769
767.041	0.0141998
767.119	0.0141859
767.197	0.0141302
767.275	0.0140609
767.353	0.0137936
767.432	0.0137968
767.510	0.0137336
767.588	0.0138063
767.666	0.0136589
767.744	0.0138112
767.822	0.0136966
767.900	0.0138245
767.978	0.0137206
768.057	0.0136755
768.135	0.0138660
768.213	0.0135736
768.291	0.0136573
768.369	0.0138229
768.447	0.0138046
768.525	0.0136023
768.603	0.0138443
768.682	0.0138353
768.760	0.0138443
768.838	0.0136966
768.916	0.0136717
768.994	0.0136756
769.072	0.0137589
769.150	0.0135562
769.228	0.0137561
769.307	0.0137775
769.385	0.0137383
769.463	0.0136888
769.541	0.0137653
769.619	0.0138200
769.697	0.0137650
769.775	0.0137730
769.853	0.0137917
769.932	0.0137510
770.010	0.0139454
770.088	0.0140533
770.166	0.0141471
770.244	0.0144065
770.322	0.0143571
770.400	0.0146149
770.478	0.0146829
770.557	0.0147614
770.635	0.0148782
770.713	0.0149252
770.791	0.0151537
770.869	0.0152253
770.947	0.0153211
771.025	0.0153047
771.103	0.0153978
771.182	0.0152689
771.260	0.0151392
771.338	0.0151250
771.416	0.0149877
771.494	0.0148828
771.572	0.0150043
771.650	0.0146375
771.728	0.0145322
771.807	0.0145580
771.885	0.0145560
771.963	0.0145260
772.041	0.0144872
772.119	0.0145412
772.197	0.0145069
772.275	0.0145818
772.353	0.0144139
772.432	0.0144421
772.510	0.0144276
772.588	0.0144530
772.666	0.0145129
772.744	0.0145371
772.822	0.0146418
772.900	0.0147057
772.978	0.0147189
773.057	0.0147499
773.135	0.0146494
773.213	0.0146526
773.291	0.0147901
773.369	0.0144871
773.447	0.0145947
773.525	0.0146867
773.603	0.0144866
773.682	0.0144798
773.760	0.0143446
773.838	0.0143856
773.916	0.0141932
773.994	0.0141207
774.072	0.0141276
774.150	0.0140087
774.228	0.0139236
774.307	0.0137218
774.385	0.0139666
774.463	0.0137675
774.541	0.0138198
774.619	0.0136977
774.697	0.0139308
774.775	0.0137273
774.853	0.0137775
774.932	0.0136657
775.010	0.0135734
775.088	0.0137675
775.166	0.0137978
775.244	0.0135798
775.322	0.0134843
775.400	0.0138482
775.478	0.0137730
775.557	0.0137077
775.635	0.0138080
775.713	0.0136403
775.791	0.0135376
775.869	0.0136279
775.947	0.0136909
776.025	0.0136671
776.103	0.0135994
776.182	0.0136163
776.260	0.0137012
776.338	0.0137933
776.416	0.0139249
776.494	0.0138612
776.572	0.0139179
776.650	0.0140317
776.728	0.0141290
776.807	0.0142663
776.885	0.0143583
776.963	0.0144454
777.041	0.0144901
777.119	0.0145655
777.197	0.0147246
777.275	0.0147615
777.353	0.0148580
777.432	0.0149239
777.510	0.0148209
777.588	0.0148274
777.666	0.0150246
777.744	0.0150315
777.822	0.0150548
777.900	0.0149570
777.978	0.0148682
778.057	0.0148466
778.135	0.0149125
778.213	0.0148409
778.291	0.0148339
778.369	0.0146178
778.447	0.0147088
778.525	0.0146227
778.603	0.0144134
778.682	0.0144667
778.760	0.0144146
778.838	0.0141872
778.916	0.0144384
778.994	0.0142992
779.072	0.0142144
779.150	0.0142100
779.228	0.0140538
779.307	0.0141027
779.385	0.0142590
779.463	0.0141269
779.541	0.0140752
779.619	0.0141926
779.697	0.0140562
779.775	0.0141431
779.853	0.0142631
779.932	0.0143778
780.010	0.0143011
780.088	0.0142482
780.166	0.0142612
780.244	0.0142660
780.322	0.0143188
780.400	0.0142543
780.478	0.0143327
780.557	0.0141836
780.635	0.0140670
780.713	0.0142159
780.791	0.0141781
780.869	0.0141196
780.947	0.0141123
781.025	0.0141422
781.103	0.0141692
781.182	0.0141151
781.260	0.0142163
781.338	0.0141405
781.416	0.0140675
781.494	0.0139085
781.572	0.0139555
781.650	0.0140461
781.728	0.0139123
781.807	0.0139484
781.885	0.0138105
781.963	0.0139645
782.041	0.0139630
782.119	0.0136546
782.197	0.0137842
782.275	0.0136986
782.353	0.0135741
782.432	0.0135027
782.510	0.0135067
782.588	0.0133723
782.666	0.0133082
782.744	0.0133604
782.822	0.0133947
782.900	0.0134137
782.978	0.0135398
783.057	0.0135509
783.135	0.0136279
783.213	0.0137455
783.291	0.0138168
783.369	0.0139231
783.447	0.0140195
783.525	0.0141690
783.603	0.0143675
783.682	0.0144508
783.760	0.0145595
783.838	0.0145902
783.916	0.0145860
783.994	0.0147838
784.072	0.0147917
784.150	0.0148494
784.228	0.0147531
784.307	0.0147870
784.385	0.0147611
784.463	0.0147470
784.541	0.0146118
784.619	0.0146899
784.697	0.0145712
784.775	0.0146413
784.853	0.0146210
784.932	0.0146853
785.010	0.0146751
785.088	0.0146745
785.166	0.0146289
785.244	0.0144892
785.322	0.0147843
785.400	0.0145775
785.478	0.0145918
785.557	0.0145599
785.635	0.0144079
785.713	0.0144803
785.791	0.0143983
785.869	0.0143781
785.947	0.0143255
786.025	0.0143651
786.103	0.0142574
786.182	0.0142834
786.260	0.0143238
786.338	0.0141987
786.416	0.0142610
786.494	0.0141556
786.572	0.0142069
786.650	0.0141679
786.728	0.0141154
786.807	0.0142921
786.885	0.0141082
786.963	0.0142570
787.041	0.0142113
787.119	0.0141685
787.197	0.0142918
787.275	0.0143036
787.353	0.0142761
787.432	0.0143382
787.510	0.0143127
787.588	0.0142031
787.666	0.0140605
787.744	0.0142970
787.822	0.0142204
787.900	0.0142121
787.978	0.0141498
788.057	0.0141525
788.135	0.0142543
788.213	0.0140412
788.291	0.0139967
788.369	0.0141076
788.447	0.0141219
788.525	0.0141335
788.603	0.0140331
788.682	0.0141318
788.760	0.0141180
788.838	0.0141914
788.916	0.0141952
788.994	0.0141530
789.072	0.0141639
789.150	0.0142516
789.228	0.0140883
789.307	0.0143420
789.385	0.0144328
789.463	0.0142297
789.541	0.0142345
789.619	0.0143071
789.697	0.0144003
789.775	0.0144235
789.853	0.0145351
789.932	0.0145181
790.010	0.0142413
790.088	0.0143063
790.166	0.0144083
790.244	0.0144285
790.322	0.0143357
790.400	0.0143085
790.478	0.0143083
790.557	0.0142458
790.635	0.0142220
790.713	0.0141518
790.791	0.0142994
790.869	0.0142068
790.947	0.0141052
791.025	0.0141293
791.103	0.0139722
791.182	0.0139833
791.260	0.0140208
791.338	0.0140703
791.416	0.0140656
791.494	0.0141679
791.572	0.0139722
791.650	0.0141012
791.728	0.0141185
791.807	0.0140858
791.885	0.0141174
791.963	0.0141831
792.041	0.0142068
792.119	0.0141797
792.197	0.0142395
792.275	0.0142210
792.353	0.0143020
792.432	0.0142921
792.510	0.0144530
792.588	0.0144062
792.666	0.0143990
792.744	0.0144589
792.822	0.0145182
792.900	0.0146616
792.978	0.0146364
793.057	0.0145341
793.135	0.0146059
793.213	0.0145707
793.291	0.0146041
793.369	0.0145031
793.447	0.0146075
793.525	0.0146058
793.603	0.0146679
793.682	0.0145857
793.760	0.0146420
793.838	0.0147715
793.916	0.0147425
793.994	0.0146658
794.072	0.0145161
794.150	0.0147684
794.228	0.0146117
794.307	0.0145692
794.385	0.0146811
794.463	0.0144526
794.541	0.0144142
794.619	0.0144218
794.697	0.0142977
794.775	0.0142900
794.853	0.0142622
794.932	0.0141965
795.010	0.0140028
795.088	0.0140588
795.166	0.0140142
795.244	0.0140348
795.322	0.0139592
795.400	0.0139359
795.478	0.0140252
795.557	0.0138068
795.635	0.0140325
795.713	0.0138908
795.791	0.0139754
795.869	0.0140332
795.947	0.0139056
796.025	0.0140830
796.103	0.0139946
796.182	0.0140209
796.260	0.0139980
796.338	0.0139361
796.416	0.0138860
796.494	0.0140826
796.572	0.0141251
796.650	0.0139265
796.728	0.0139700
796.807	0.0139562
796.885	0.0139370
796.963	0.0139522
797.041	0.0139294
797.119	0.0138847
797.197	0.0137133
797.275	0.0137888
797.353	0.0138087
797.432	0.0137864
797.510	0.0137926
797.588	0.0139764
797.666	0.0139275
797.744	0.0138880
797.822	0.0139092
797.900	0.0140863
797.978	0.0140989
798.057	0.0140886
798.135	0.0141714
798.213	0.0142197
798.291	0.0142565
798.369	0.0142757
798.447	0.0143084
798.525	0.0143158
798.603	0.0143141
798.682	0.0144097
798.760	0.0144138
798.838	0.0143272
798.916	0.0144057
798.994	0.0144032
799.072	0.0144483
799.150	0.0141885
799.228	0.0143762
799.307	0.0143723
799.385	0.0143932
799.463	0.0144148
799.541	0.0142249
799.619	0.0143336
799.697	0.0144046
799.775	0.0143797
799.853	0.0144162
799.932	0.0144020
800.010	0.0144244
800.088	0.0144580
800.166	0.0145850
800.244	0.0144889
800.322	0.0144959
800.400	0.0145376
800.478	0.0145991
800.557	0.0146006
800.635	0.0148256
800.713	0.0148911
800.791	0.0146492
800.869	0.0147137
800.947	0.0147475
801.025	0.0147212
801.103	0.0147414
801.182	0.0145872
801.260	0.0145979
801.338	0.0144717
801.416	0.0143872
801.494	0.0143122
801.572	0.0142609
801.650	0.0140459
801.728	0.0140263
801.807	0.0139812
801.885	0.0139565
801.963	0.0137782
802.041	0.0138123
802.119	0.0138586
802.197	0.0138406
802.275	0.0137074
802.353	0.0138549
802.432	0.0137510
802.510	0.0138132
802.588	0.0137711
802.666	0.0138637
802.744	0.0138489
802.822	0.0138399
802.900	0.0138632
802.978	0.0139298
803.057	0.0139674
803.135	0.0140942
803.213	0.0139632
803.291	0.0139400
803.369	0.0141193
803.447	0.0140035
803.525	0.0139824
803.603	0.0139426
803.682	0.0139207
803.760	0.0139974
803.838	0.0140939
803.916	0.0140881
803.994	0.0140791
804.072	0.0140000
804.150	0.0140974
804.228	0.0138553
804.307	0.0137974
804.385	0.0139336
804.463	0.0139887
804.541	0.0139343
804.619	0.0139133
804.697	0.0140122
804.775	0.0140388
804.853	0.0141459
804.932	0.0142307
805.010	0.0142034
805.088	0.0142648
805.166	0.0143824
805.244	0.0145419
805.322	0.0144125
805.400	0.0144412
805.478	0.0144904
805.557	0.0145982
805.635	0.0144410
805.713	0.0145835
805.791	0.0146482
805.869	0.0146854
805.947	0.0146287
806.025	0.0146584
806.103	0.0145972
806.182	0.0146751
806.260	0.0147228
806.338	0.0145856
806.416	0.0145573
806.494	0.0146499
806.572	0.0146704
806.650	0.0145741
806.728	0.0146110
806.807	0.0144993
806.885	0.0143324
806.963	0.0144871
807.041	0.0143954
807.119	0.0142817
807.197	0.0144463
807.275	0.0142957
807.353	0.0142915
807.432	0.0142840
807.510	0.0141237
807.588	0.0141946
807.666	0.0140166
807.744	0.0142925
807.822	0.0143370
807.900	0.0139882
807.978	0.0139977
808.057	0.0141233
808.135	0.0141456
808.213	0.0141006
808.291	0.0139708
808.369	0.0139828
808.447	0.0138873
808.525	0.0139774
808.603	0.0139693
808.682	0.0140662
808.760	0.0139866
808.838	0.0140314
808.916	0.0140890
808.994	0.0141606
809.072	0.0139853
809.150	0.0140190
809.228	0.0140834
809.307	0.0140721
809.385	0.0142593
809.463	0.0142818
809.541	0.0142507
809.619	0.0141698
809.697	0.0142513
809.775	0.0143134
809.853	0.0144777
809.932	0.0144920
810.010	0.0144936
810.088	0.0144244
810.166	0.0144874
810.244	0.0144996
810.322	0.0145860
810.400	0.0144960
810.478	0.0145712
810.557	0.0144455
810.635	0.0143671
810.713	0.0143866
810.791	0.0143616
810.869	0.0143146
810.947	0.0142714
811.025	0.0141381
811.103	0.0142384
811.182	0.0142754
811.260	0.0142496
811.338	0.0142319
811.416	0.0140343
811.494	0.0141830
811.572	0.0141930
811.650	0.0142505
811.728	0.0142559
811.807	0.0143317
811.885	0.0144438
811.963	0.0144746
812.041	0.0145736
812.119	0.0145766
812.197	0.0144512
812.275	0.0145230
812.353	0.0144983
812.432	0.0144083
812.510	0.0145877
812.588	0.0146326
812.666	0.0146262
812.744	0.0144341
812.822	0.0143864
812.900	0.0143253
812.978	0.0144052
813.057	0.0143129
813.135	0.0142648
813.213	0.0142783
813.291	0.0142622
813.369	0.0142328
813.447	0.0141624
813.525	0.0140732
813.603	0.0139508
813.682	0.0138786
813.760	0.0138753
813.838	0.0138341
813.916	0.0139483
813.994	0.0138575
814.072	0.0138225
814.150	0.0139749
814.228	0.0139754
814.307	0.0138489
814.385	0.0137543
814.463	0.0139963
814.541	0.0140175
814.619	0.0140459
814.697	0.0140327
814.775	0.0141486
814.853	0.0142771
814.932	0.0142754
815.010	0.0142782
815.088	0.0142210
815.166	0.0144360
815.244	0.0143532
815.322	0.0144827
815.400	0.0145113
815.478	0.0146158
815.557	0.0147626
815.635	0.0147721
815.713	0.0147243
815.791	0.0147070
815.869	0.0147454
815.947	0.0145713
816.025	0.0145355
816.103	0.0144846
816.182	0.0144266
816.260	0.0143944
816.338	0.0142594
816.416	0.0143003
816.494	0.0141708
816.572	0.0142071
816.650	0.0141698
816.728	0.0140816
816.807	0.0141297
816.885	0.0141184
816.963	0.0140367
817.041	0.0140705
817.119	0.0143166
817.197	0.0143684
817.275	0.0144662
817.353	0.0145468
817.432	0.0145512
817.510	0.0145418
817.588	0.0145455
817.666	0.0148368
817.744	0.0148224
817.822	0.0147572
817.900	0.0147526
817.978	0.0148118
818.057	0.0149285
818.135	0.0147077
818.213	0.0146722
818.291	0.0145856
818.369	0.0145477
818.447	0.0145301
818.525	0.0143416
818.603	0.0143499
818.682	0.0141885
818.760	0.0140984
818.838	0.0139973
818.916	0.0139175
818.994	0.0137907
819.072	0.0137661
819.150	0.0136358
819.228	0.0135777
819.307	0.0134715
819.385	0.0135775
819.463	0.0134933
819.541	0.0135892
819.619	0.0135860
819.697	0.0136761
819.775	0.0136868
819.853	0.0137492
819.932	0.0138918
820.010	0.0136851
820.088	0.0138824
820.166	0.0139182
820.244	0.0139694
820.322	0.0140718
820.400	0.0141125
820.478	0.0140780
820.557	0.0142074
820.635	0.0142425
820.713	0.0143324
820.791	0.0142870
820.869	0.0143951
820.947	0.0144212
821.025	0.0144949
821.103	0.0144803
821.182	0.0144612
821.260	0.0144952
821.338	0.0144085
821.416	0.0145497
821.494	0.0145044
821.572	0.0143453
821.650	0.0144904
821.728	0.0144527
821.807	0.0143269
821.885	0.0144344
821.963	0.0143352
822.041	0.0143579
822.119	0.0144487
822.197	0.0143656
822.275	0.0143552
822.353	0.0143970
822.432	0.0142792
822.510	0.0143625
822.588	0.0143765
822.666	0.0143281
822.744	0.0144598
822.822	0.0144434
822.900	0.0145050
822.978	0.0146383
823.057	0.0146122
823.135	0.0146809
823.213	0.0146427
823.291	0.0144444
823.369	0.0145692
823.447	0.0144162
823.525	0.0144633
823.603	0.0144388
823.682	0.0143990
823.760	0.0144122
823.838	0.0143460
823.916	0.0142516
823.994	0.0143224
824.072	0.0142215
824.150	0.0141066
824.228	0.0141895
824.307	0.0142553
824.385	0.0141502
824.463	0.0141209
824.541	0.0142297
824.619	0.0142895
824.697	0.0142060
824.775	0.0141171
824.853	0.0141023
824.932	0.0143504
825.010	0.0140971
825.088	0.0140474
825.166	0.0140821
825.244	0.0141817
825.322	0.0140318
825.400	0.0139612
825.478	0.0141415
825.557	0.0140211
825.635	0.0139500
825.713	0.0137723
825.791	0.0137972
825.869	0.0137868
825.947	0.0138241
826.025	0.0136407
826.103	0.0136957
826.182	0.0136626
826.260	0.0136617
826.338	0.0135606
826.416	0.0134734
826.494	0.0135625
826.572	0.0134734
826.650	0.0134859
826.728	0.0136581
826.807	0.0135934
826.885	0.0136803
826.963	0.0136771
827.041	0.0138427
827.119	0.0139262
827.197	0.0140365
827.275	0.0140981
827.353	0.0140128
827.432	0.0143345
827.510	0.0142156
827.588	0.0142645
827.666	0.0142377
827.744	0.0143581
827.822	0.0145259
827.900	0.0143743
827.978	0.0143450
828.057	0.0144097
828.135	0.0143727
828.213	0.0144417
828.291	0.0142779
828.369	0.0143575
828.447	0.0144993
828.525	0.0143172
828.603	0.0144061
828.682	0.0144675
828.760	0.0143765
828.838	0.0145045
828.916	0.0145654
828.994	0.0145524
829.072	0.0146038
829.150	0.0146226
829.228	0.0147178
829.307	0.0147739
829.385	0.0148831
829.463	0.0148820
829.541	0.0148448
829.619	0.0149652
829.697	0.0149458
829.775	0.0149503
829.853	0.0148370
829.932	0.0149159
830.010	0.0150383
830.088	0.0148405
830.166	0.0148685
830.244	0.0149489
830.322	0.0148712
830.400	0.0148814
830.478	0.0148401
830.557	0.0147916
830.635	0.0148431
830.713	0.0147876
830.791	0.0145451
830.869	0.0145615
830.947	0.0144523
831.025	0.0144215
831.103	0.0142511
831.182	0.0140073
831.260	0.0139735
831.338	0.0138623
831.416	0.0138982
831.494	0.0137290
831.572	0.0134433
831.650	0.0134718
831.728	0.0134573
831.807	0.0134056
831.885	0.0132445
831.963	0.0132820
832.041	0.0131712
832.119	0.0132577
832.197	0.0133018
832.275	0.0134028
832.353	0.0135647
832.432	0.0134853
832.510	0.0136649
832.588	0.0136483
832.666	0.0138183
832.744	0.0138409
832.822	0.0140038
832.900	0.0139639
832.978	0.0141707
833.057	0.0141792
833.135	0.0143325
833.213	0.0143781
833.291	0.0144593
833.369	0.0143295
833.447	0.0143903
833.525	0.0145219
833.603	0.0144927
833.682	0.0143031
833.760	0.0144226
833.838	0.0143336
833.916	0.0142722
833.994	0.0141589
834.072	0.0144424
834.150	0.0144074
834.228	0.0141993
834.307	0.0143590
834.385	0.0142740
834.463	0.0143232
834.541	0.0142722
834.619	0.0145074
834.697	0.0146378
834.775	0.0144747
834.853	0.0144724
834.932	0.0145856
835.010	0.0145900
835.088	0.0147199
835.166	0.0147224
835.244	0.0145772
835.322	0.0146929
835.400	0.0146613
835.478	0.0147544
835.557	0.0146628
835.635	0.0146341
835.713	0.0146429
835.791	0.0146796
835.869	0.0146696
835.947	0.0147707
836.025	0.0148164
836.103	0.0147665
836.182	0.0148032
836.260	0.0147579
836.338	0.0146429
836.416	0.0145776
836.494	0.0146588
836.572	0.0145034
836.650	0.0145007
836.728	0.0145613
836.807	0.0145277
836.885	0.0143965
836.963	0.0142921
837.041	0.0144704
837.119	0.0142773
837.197	0.0142082
837.275	0.0140608
837.353	0.0140367
837.432	0.0138441
837.510	0.0138789
837.588	0.0138542
837.666	0.0136784
837.744	0.0136532
837.822	0.0135844
837.900	0.0135157
837.978	0.0133165
838.057	0.0133213
838.135	0.0134929
838.213	0.0133711
838.291	0.0134531
838.369	0.0134969
838.447	0.0133956
838.525	0.0134340
838.603	0.0134431
838.682	0.0135613
838.760	0.0135284
838.838	0.0136282
838.916	0.0134717
838.994	0.0136213
839.072	0.0138378
839.150	0.0137376
839.228	0.0137850
839.307	0.0138357
839.385	0.0138770
839.463	0.0141041
839.541	0.0140877
839.619	0.0142303
839.697	0.0142236
839.775	0.0142945
839.853	0.0144737
839.932	0.0146206
840.010	0.0145010
840.088	0.0146493
840.166	0.0148073
840.244	0.0148090
840.322	0.0147874
840.400	0.0148383
840.478	0.0148519
840.557	0.0149392
840.635	0.0151330
840.713	0.0149274
840.791	0.0149802
840.869	0.0149832
840.947	0.0149165
841.025	0.0146748
841.103	0.0148401
841.182	0.0147845
841.260	0.0147596
841.338	0.0146492
841.416	0.0144808
841.494	0.0145284
841.572	0.0144393
841.650	0.0145039
841.728	0.0142625
841.807	0.0142691
841.885	0.0144345
841.963	0.0141333
842.041	0.0140780
842.119	0.0143123
842.197	0.0141547
842.275	0.0141543
842.353	0.0141956
842.432	0.0140218
842.510	0.0141451
842.588	0.0142477
842.666	0.0143681
842.744	0.0141750
842.822	0.0141306
842.900	0.0142336
842.978	0.0142016
843.057	0.0142947
843.135	0.0141496
843.213	0.0141250
843.291	0.0142376
843.369	0.0141143
843.447	0.0141141
843.525	0.0140594
843.603	0.0141226
843.682	0.0141575
843.760	0.0140757
843.838	0.0138971
843.916	0.0140499
843.994	0.0140598
844.072	0.0140616
844.150	0.0139050
844.228	0.0139175
844.307	0.0139700
844.385	0.0140100
844.463	0.0139804
844.541	0.0139426
844.619	0.0140013
844.697	0.0140057
844.775	0.0139739
844.853	0.0138802
844.932	0.0139103
845.010	0.0139448
845.088	0.0140247
845.166	0.0139280
845.244	0.0140263
845.322	0.0140025
845.400	0.0139099
845.478	0.0139629
845.557	0.0139220
845.635	0.0137956
845.713	0.0139382
845.791	0.0138342
845.869	0.0137968
845.947	0.0138914
846.025	0.0138023
846.103	0.0138982
846.182	0.0138049
846.260	0.0139249
846.338	0.0139833
846.416	0.0140823
846.494	0.0143065
846.572	0.0143032
846.650	0.0144628
846.728	0.0145895
846.807	0.0147154
846.885	0.0148029
846.963	0.0147998
847.041	0.0149776
847.119	0.0150896
847.197	0.0148744
847.275	0.0149362
847.353	0.0151437
847.432	0.0150827
847.510	0.0149652
847.588	0.0149865
847.666	0.0149810
847.744	0.0148868
847.822	0.0147795
847.900	0.0149403
847.978	0.0147288
848.057	0.0147920
848.135	0.0147239
848.213	0.0147566
848.291	0.0145556
848.369	0.0143491
848.447	0.0144570
848.525	0.0144198
848.603	0.0143234
848.682	0.0142903
848.760	0.0141920
848.838	0.0141875
848.916	0.0141353
848.994	0.0141763
849.072	0.0141153
849.150	0.0140422
849.228	0.0139748
849.307	0.0140041
849.385	0.0139180
849.463	0.0139358
849.541	0.0139748
849.619	0.0138862
849.697	0.0138304
849.775	0.0138047
849.853	0.0137510
849.932	0.0138695
850.010	0.0137330
850.088	0.0137342
850.166	0.0138642
850.244	0.0138653
850.322	0.0136885
850.400	0.0138982
850.478	0.0139384
850.557	0.0138068
850.635	0.0139146
850.713	0.0141102
850.791	0.0139946
850.869	0.0139815
850.947	0.0140813
851.025	0.0141824
851.103	0.0142621
851.182	0.0140823
851.260	0.0141026
851.338	0.0143293
851.416	0.0143067
851.494	0.0142649
851.572	0.0143438
851.650	0.0145157
851.728	0.0143257
851.807	0.0143987
851.885	0.0144711
851.963	0.0142864
852.041	0.0143900
852.119	0.0144118
852.197	0.0144839
852.275	0.0143831
852.353	0.0144376
852.432	0.0143804
852.510	0.0142712
852.588	0.0143751
852.666	0.0143819
852.744	0.0144463
852.822	0.0144301
852.900	0.0145576
852.978	0.0144555
853.057	0.0144455
853.135	0.0144192
853.213	0.0145687
853.291	0.0145149
853.369	0.0145555
853.447	0.0146053
853.525	0.0146781
853.603	0.0145267
853.682	0.0146372
853.760	0.0145903
853.838	0.0145620
853.916	0.0145506
853.994	0.0146401
854.072	0.0146864
854.150	0.0147675
854.228	0.0146949
854.307	0.0146837
854.385	0.0145196
854.463	0.0146002
854.541	0.0146201
854.619	0.0145383
854.697	0.0145215
854.775	0.0145426
854.853	0.0145556
854.932	0.0145988
855.010	0.0145779
855.088	0.0143111
855.166	0.0143829
855.244	0.0143820
855.322	0.0142099
855.400	0.0141580
855.478	0.0139846
855.557	0.0139500
855.635	0.0139018
855.713	0.0138571
855.791	0.0137691
855.869	0.0137711
855.947	0.0136387
856.025	0.0134646
856.103	0.0135992
856.182	0.0135941
856.260	0.0137408
856.338	0.0136025
856.416	0.0135611
856.494	0.0135508
856.572	0.0136016
856.650	0.0138000
856.728	0.0137444
856.807	0.0137849
856.885	0.0138361
856.963	0.0139632
857.041	0.0139332
857.119	0.0139615
857.197	0.0141215
857.275	0.0140499
857.353	0.0141467
857.432	0.0141814
857.510	0.0142393
857.588	0.0141959
857.666	0.0143097
857.744	0.0142507
857.822	0.0141827
857.900	0.0142455
857.978	0.0141528
858.057	0.0143727
858.135	0.0141010
858.213	0.0141148
858.291	0.0141363
858.369	0.0140860
858.447	0.0139963
858.525	0.0140844
858.603	0.0141074
858.682	0.0141025
858.760	0.0140240
858.838	0.0141113
858.916	0.0139709
858.994	0.0140807
859.072	0.0141783
859.150	0.0140544
859.228	0.0141281
859.307	0.0142358
859.385	0.0142122
859.463	0.0142242
859.541	0.0142740
859.619	0.0143497
859.697	0.0144991
859.775	0.0143525
859.853	0.0144380
859.932	0.0145589
860.010	0.0144233
860.088	0.0144786
860.166	0.0144581
860.244	0.0146070
860.322	0.0145702
860.400	0.0146024
860.478	0.0146197
860.557	0.0143260
860.635	0.0146101
860.713	0.0145659
860.791	0.0144603
860.869	0.0145567
860.947	0.0144830
861.025	0.0142025
861.103	0.0144850
861.182	0.0144100
861.260	0.0142399
861.338	0.0142345
861.416	0.0142412
861.494	0.0141769
861.572	0.0142180
861.650	0.0140340
861.728	0.0140141
861.807	0.0141084
861.885	0.0140277
861.963	0.0139581
862.041	0.0140895
862.119	0.0140533
862.197	0.0140971
862.275	0.0139982
862.353	0.0138902
862.432	0.0139090
862.510	0.0139410
862.588	0.0138799
862.666	0.0139841
862.744	0.0140749
862.822	0.0138821
862.900	0.0138485
862.978	0.0138038
863.057	0.0139251
863.135	0.0138860
863.213	0.0139449
863.291	0.0139738
863.369	0.0139621
863.447	0.0140399
863.525	0.0141920
863.603	0.0139983
863.682	0.0141652
863.760	0.0142004
863.838	0.0141488
863.916	0.0140916
863.994	0.0143050
864.072	0.0144034
864.150	0.0142715
864.228	0.0142308
864.307	0.0143552
864.385	0.0142853
864.463	0.0143841
864.541	0.0145473
864.619	0.0144027
864.697	0.0145033
864.775	0.0143493
864.853	0.0144774
864.932	0.0143981
865.010	0.0144263
865.088	0.0143815
865.166	0.0144659
865.244	0.0142915
865.322	0.0143091
865.400	0.0144486
865.478	0.0144843
865.557	0.0142524
865.635	0.0144174
865.713	0.0144277
865.791	0.0142052
865.869	0.0143006
865.947	0.0143015
866.025	0.0142512
866.103	0.0141859
866.182	0.0142151
866.260	0.0142209
866.338	0.0142539
866.416	0.0143316
866.494	0.0142057
866.572	0.0141850
866.650	0.0142763
866.728	0.0143318
866.807	0.0142851
866.885	0.0143662
866.963	0.0143926
867.041	0.0144526
867.119	0.0144862
867.197	0.0145472
867.275	0.0143490
867.353	0.0145082
867.432	0.0145340
867.510	0.0144430
867.588	0.0142715
867.666	0.0144077
867.744	0.0143475
867.822	0.0143920
867.900	0.0142622
867.978	0.0142071
868.057	0.0143804
868.135	0.0143884
868.213	0.0142645
868.291	0.0143343
868.369	0.0142804
868.447	0.0143283
868.525	0.0142718
868.603	0.0143552
868.682	0.0142912
868.760	0.0143101
868.838	0.0142995
868.916	0.0143355
868.994	0.0143277
869.072	0.0142646
869.150	0.0143909
869.228	0.0143616
869.307	0.0143707
869.385	0.0142664
869.463	0.0141898
869.541	0.0140368
869.619	0.0141724
869.697	0.0141907
869.775	0.0143191
869.853	0.0141547
869.932	0.0141031
870.010	0.0140688
870.088	0.0141053
870.166	0.0140961
870.244	0.0141490
870.322	0.0139173
870.400	0.0140070
870.478	0.0139158
870.557	0.0140748
870.635	0.0138756
870.713	0.0140649
870.791	0.0141301
870.869	0.0140652
870.947	0.0140421
871.025	0.0140421
871.103	0.0141787
871.182	0.0141869
871.260	0.0142007
871.338	0.0142287
871.416	0.0143497
871.494	0.0142713
871.572	0.0142657
871.650	0.0143819
871.728	0.0143459
871.807	0.0143099
871.885	0.0144447
871.963	0.0144286
872.041	0.0145139
872.119	0.0145510
872.197	0.0145232
872.275	0.0144076
872.353	0.0144878
872.432	0.0144707
872.510	0.0145215
872.588	0.0142746
872.666	0.0143703
872.744	0.0143016
872.822	0.0144122
872.900	0.0143086
872.978	0.0142398
873.057	0.0142316
873.135	0.0143434
873.213	0.0141116
873.291	0.0141934
873.369	0.0141750
873.447	0.0141767
873.525	0.0142948
873.603	0.0141138
873.682	0.0141437
873.760	0.0141442
873.838	0.0143801
873.916	0.0140877
873.994	0.0141879
874.072	0.0142403
874.150	0.0142080
874.228	0.0140026
874.307	0.0138984
874.385	0.0140094
874.463	0.0140304
874.541	0.0138811
874.619	0.0140340
874.697	0.0141138
874.775	0.0142105
874.853	0.0142373
874.932	0.0143436
875.010	0.0143790
875.088	0.0144567
875.166	0.0146402
875.244	0.0148046
875.322	0.0146954
875.400	0.0148112
875.478	0.0149134
875.557	0.0146411
875.635	0.0149023
875.713	0.0148514
875.791	0.0146396
875.869	0.0146140
875.947	0.0146028
876.025	0.0146006
876.103	0.0143134
876.182	0.0143742
876.260	0.0142515
876.338	0.0142817
876.416	0.0143218
876.494	0.0140868
876.572	0.0141586
876.650	0.0140772
876.728	0.0141018
876.807	0.0139189
876.885	0.0139157
876.963	0.0139005
877.041	0.0138814
877.119	0.0138894
877.197	0.0138005
877.275	0.0138791
877.353	0.0138684
877.432	0.0138904
877.510	0.0138856
877.588	0.0138003
877.666	0.0140244
877.744	0.0141157
877.822	0.0140032
877.900	0.0139732
877.978	0.0139577
878.057	0.0140452
878.135	0.0139594
878.213	0.0140683
878.291	0.0140910
878.369	0.0141832
878.447	0.0141936
878.525	0.0141312
878.603	0.0142796
878.682	0.0142084
878.760	0.0143429
878.838	0.0142953
878.916	0.0143049
878.994	0.0143114
879.072	0.0142615
879.150	0.0142697
879.228	0.0140554
879.307	0.0140453
879.385	0.0140643
879.463	0.0141652
879.541	0.0140013
879.619	0.0141113
879.697	0.0141711
879.775	0.0139854
879.853	0.0140768
879.932	0.0140468
880.010	0.0141133
880.088	0.0141730
880.166	0.0141988
880.244	0.0143029
880.322	0.0141931
880.400	0.0142296
880.478	0.0143088
880.557	0.0142684
880.635	0.0144447
880.713	0.0143316
880.791	0.0142691
880.869	0.0145200
880.947	0.0144355
881.025	0.0143534
881.103	0.0144143
881.182	0.0144051
881.260	0.0144006
881.338	0.0144303
881.416	0.0143004
881.494	0.0143707
881.572	0.0143259
881.650	0.0143334
881.728	0.0143803
881.807	0.0144210
881.885	0.0142915
881.963	0.0142673
882.041	0.0142558
882.119	0.0142361
882.197	0.0141460
882.275	0.0143021
882.353	0.0141185
882.432	0.0141197
882.510	0.0140855
882.588	0.0140885
882.666	0.0140046
882.744	0.0141592
882.822	0.0142070
882.900	0.0142985
882.978	0.0141525
883.057	0.0140472
883.135	0.0142429
883.213	0.0143508
883.291	0.0142218
883.369	0.0142650
883.447	0.0143244
883.525	0.0142177
883.603	0.0141690
883.682	0.0141856
883.760	0.0143211
883.838	0.0142377
883.916	0.0143661
883.994	0.0143792
884.072	0.0143514
884.150	0.0143004
884.228	0.0141721
884.307	0.0142453
884.385	0.0141568
884.463	0.0141682
884.541	0.0141650
884.619	0.0140531
884.697	0.0140468
884.775	0.0138840
884.853	0.0141100
884.932	0.0139059
885.010	0.0140012
885.088	0.0139436
885.166	0.0139183
885.244	0.0140923
885.322	0.0139445
885.400	0.0141515
885.478	0.0140558
885.557	0.0140587
885.635	0.0140226
885.713	0.0139474
885.791	0.0140176
885.869	0.0140119
885.947	0.0139352
886.025	0.0140008
886.103	0.0139399
886.182	0.0138958
886.260	0.0137316
886.338	0.0137492
886.416	0.0138448
886.494	0.0139216
886.572	0.0139294
886.650	0.0139774
886.728	0.0139648
886.807	0.0140793
886.885	0.0142614
886.963	0.0142927
887.041	0.0143195
887.119	0.0143338
887.197	0.0143292
887.275	0.0144551
887.353	0.0144662
887.432	0.0141879
887.510	0.0144325
887.588	0.0144822
887.666	0.0144267
887.744	0.0144478
887.822	0.0144819
887.900	0.0144775
887.978	0.0144834
888.057	0.0145301
888.135	0.0146462
888.213	0.0145037
888.291	0.0144993
888.369	0.0145901
888.447	0.0146124
888.525	0.0146793
888.603	0.0146397
888.682	0.0145592
888.760	0.0144180
888.838	0.0143968
888.916	0.0144402
888.994	0.0143455
889.072	0.0143332
889.150	0.0143834
889.228	0.0143629
889.307	0.0142186
889.385	0.0141291
889.463	0.0142976
889.541	0.0142618
889.619	0.0142948
889.697	0.0142722
889.775	0.0141740
889.853	0.0142447
889.932	0.0142673
890.010	0.0141408
890.088	0.0142435
890.166	0.0142449
890.244	0.0143291
890.322	0.0143105
890.400	0.0142982
890.478	0.0141836
890.557	0.0141068
890.635	0.0143638
890.713	0.0142267
890.791	0.0140727
890.869	0.0140421
890.947	0.0141776
891.025	0.0141269
891.103	0.0141282
891.182	0.0141751
891.260	0.0142109
891.338	0.0140261
891.416	0.0141597
891.494	0.0141383
891.572	0.0142369
891.650	0.0142286
891.728	0.0142902
891.807	0.0142675
891.885	0.0143654
891.963	0.0141554
892.041	0.0142890
892.119	0.0141293
892.197	0.0143513
892.275	0.0142236
892.353	0.0141491
892.432	0.0142106
892.510	0.0142088
892.588	0.0142551
892.666	0.0142125
892.744	0.0141592
892.822	0.0140795
892.900	0.0140528
892.978	0.0141025
893.057	0.0141687
893.135	0.0139926
893.213	0.0139663
893.291	0.0140524
893.369	0.0141904
893.447	0.0140159
893.525	0.0139963
893.603	0.0140618
893.682	0.0141537
893.760	0.0141779
893.838	0.0141576
893.916	0.0141724
893.994	0.0141968
894.072	0.0142970
894.150	0.0144505
894.228	0.0143922
894.307	0.0143558
894.385	0.0143947
894.463	0.0144066
894.541	0.0145242
894.619	0.0143970
894.697	0.0145443
894.775	0.0143382
894.853	0.0145115
894.932	0.0145435
895.010	0.0145996
895.088	0.0146519
895.166	0.0144849
895.244	0.0145502
895.322	0.0146365
895.400	0.0144845
895.478	0.0145837
895.557	0.0144330
895.635	0.0144833
895.713	0.0144859
895.791	0.0145239
895.869	0.0142579
895.947	0.0143275
896.025	0.0144464
896.103	0.0142839
896.182	0.0142261
896.260	0.0142043
896.338	0.0142819
896.416	0.0141548
896.494	0.0140925
896.572	0.0142213
896.650	0.0144513
896.728	0.0142589
896.807	0.0143354
896.885	0.0142715
896.963	0.0143706
897.041	0.0144093
897.119	0.0144342
897.197	0.0142315
897.275	0.0143663
897.353	0.0142803
897.432	0.0143020
897.510	0.0144963
897.588	0.0143427
897.666	0.0145032
897.744	0.0142421
897.822	0.0143886
897.900	0.0143365
897.978	0.0143533
898.057	0.0144755
898.135	0.0143359
898.213	0.0143034
898.291	0.0142574
898.369	0.0141544
898.447	0.0142319
898.525	0.0141814
898.603	0.0142056
898.682	0.0140426
898.760	0.0140274
898.838	0.0139748
898.916	0.0139079
898.994	0.0138356
899.072	0.0139993
899.150	0.0139437
899.228	0.0139047
899.307	0.0139752
899.385	0.0140170
899.463	0.0139183
899.541	0.0138995
899.619	0.0140522
899.697	0.0139574
899.775	0.0140588
899.853	0.0140482
899.932	0.0140804
900.010	0.0141179
900.088	0.0141933
900.166	0.0141380
900.244	0.0141791
900.322	0.0141726
900.400	0.0141406
900.478	0.0142253
900.557	0.0142285
900.635	0.0141193
900.713	0.0142461
900.791	0.0141876
900.869	0.0141804
900.947	0.0140795
901.025	0.0141245
901.103	0.0141755
901.182	0.0139859
901.260	0.0141031
901.338	0.0142854
901.416	0.0141972
901.494	0.0141940
901.572	0.0142742
901.650	0.0142471
901.728	0.0142724
901.807	0.0142467
901.885	0.0142509
901.963	0.0143363
902.041	0.0141811
902.119	0.0141542
902.197	0.0142191
902.275	0.0142548
902.353	0.0141746
902.432	0.0141427
902.510	0.0140415
902.588	0.0140668
902.666	0.0141997
902.744	0.0141959
902.822	0.0142500
902.900	0.0141261
902.978	0.0142094
903.057	0.0143026
903.135	0.0141547
903.213	0.0142036
903.291	0.0143431
903.369	0.0143503
903.447	0.0142524
903.525	0.0142996
903.603	0.0144052
903.682	0.0142575
903.760	0.0142843
903.838	0.0142174
903.916	0.0143108
903.994	0.0141858
904.072	0.0142918
904.150	0.0142336
904.228	0.0140506
904.307	0.0141940
904.385	0.0141772
904.463	0.0142350
904.541	0.0142119
904.619	0.0141168
904.697	0.0141185
904.775	0.0139530
904.853	0.0140607
904.932	0.0140827
905.010	0.0140193
905.088	0.0139243
905.166	0.0139619
905.244	0.0139436
905.322	0.0139569
905.400	0.0139397
905.478	0.0139983
905.557	0.0139647
905.635	0.0141399
905.713	0.0141232
905.791	0.0140887
905.869	0.0139733
905.947	0.0140882
906.025	0.0142019
906.103	0.0142206
906.182	0.0142233
906.260	0.0142574
906.338	0.0143214
906.416	0.0143808
906.494	0.0144604
906.572	0.0144485
906.650	0.0143436
906.728	0.0143429
906.807	0.0143199
906.885	0.0143092
906.963	0.0144375
907.041	0.0142702
907.119	0.0143005
907.197	0.0141467
907.275	0.0143190
907.353	0.0141779
907.432	0.0141917
907.510	0.0142645
907.588	0.0141647
907.666	0.0141029
907.744	0.0139809
907.822	0.0140806
907.900	0.0140407
907.978	0.0141425
908.057	0.0141157
908.135	0.0141211
908.213	0.0142014
908.291	0.0138896
908.369	0.0139812
908.447	0.0139991
908.525	0.0141077
908.603	0.0141560
908.682	0.0142007
908.760	0.0141682
908.838	0.0143037
908.916	0.0143822
908.994	0.0144391
909.072	0.0144111
909.150	0.0142986
909.228	0.0144823
909.307	0.0144691
909.385	0.0145288
909.463	0.0145675
909.541	0.0146217
909.619	0.0145014
909.697	0.0145705
909.775	0.0145535
909.853	0.0145911
909.932	0.0145685
910.010	0.0144418
910.088	0.0145210
910.166	0.0144762
910.244	0.0144025
910.322	0.0144764
910.400	0.0144257
910.478	0.0143986
910.557	0.0144401
910.635	0.0142854
910.713	0.0143213
910.791	0.0143922
910.869	0.0142465
910.947	0.0142642
911.025	0.0142496
911.103	0.0143135
911.182	0.0143599
911.260	0.0142458
911.338	0.0142271
911.416	0.0142326
911.494	0.0143371
911.572	0.0143062
911.650	0.0143390
911.728	0.0142570
911.807	0.0143754
911.885	0.0143344
911.963	0.0144503
912.041	0.0143476
912.119	0.0142887
912.197	0.0143330
912.275	0.0143584
912.353	0.0143988
912.432	0.0144421
912.510	0.0143694
912.588	0.0144566
912.666	0.0144197
912.744	0.0143889
912.822	0.0143219
912.900	0.0143062
912.978	0.0143719
913.057	0.0142892
913.135	0.0140743
913.213	0.0141240
913.291	0.0141380
913.369	0.0142107
913.447	0.0141977
913.525	0.0141564
913.603	0.0140350
913.682	0.0141181
913.760	0.0141286
913.838	0.0140830
913.916	0.0141268
913.994	0.0141061
914.072	0.0140130
914.150	0.0139286
914.228	0.0141152
914.307	0.0140234
914.385	0.0139311
914.463	0.0141100
914.541	0.0141834
914.619	0.0142496
914.697	0.0140441
914.775	0.0140887
914.853	0.0141843
914.932	0.0141113
915.010	0.0142505
915.088	0.0143625
915.166	0.0144333
915.244	0.0144987
915.322	0.0143770
915.400	0.0146185
915.478	0.0146869
915.557	0.0145940
915.635	0.0147195
915.713	0.0147602
915.791	0.0146385
915.869	0.0144492
915.947	0.0146082
916.025	0.0145515
916.103	0.0145061
916.182	0.0145116
916.260	0.0144382
916.338	0.0142973
916.416	0.0141924
916.494	0.0142536
916.572	0.0143163
916.650	0.0143137
916.728	0.0140599
916.807	0.0140994
916.885	0.0139548
916.963	0.0139007
917.041	0.0138197
917.119	0.0139161
917.197	0.0139320
917.275	0.0140541
917.353	0.0139451
917.432	0.0140007
917.510	0.0141122
917.588	0.0141000
917.666	0.0142756
917.744	0.0141933
917.822	0.0140873
917.900	0.0141903
917.978	0.0142693
918.057	0.0142262
918.135	0.0140490
918.213	0.0141740
918.291	0.0141160
918.369	0.0142474
918.447	0.0140839
918.525	0.0142014
918.603	0.0142979
918.682	0.0141677
918.760	0.0142224
918.838	0.0142165
918.916	0.0140842
918.994	0.0142454
919.072	0.0143357
919.150	0.0141568
919.228	0.0142458
919.307	0.0142010
919.385	0.0143309
919.463	0.0142501
919.541	0.0142120
919.619	0.0143831
919.697	0.0142628
919.775	0.0141216
919.853	0.0142433
919.932	0.0143436
920.010	0.0142120
920.088	0.0141206
920.166	0.0140726
920.244	0.0140757
920.322	0.0139799
920.400	0.0140029
920.478	0.0138903
920.557	0.0138826
920.635	0.0139620
920.713	0.0139114
920.791	0.0139075
920.869	0.0140256
920.947	0.0142747
921.025	0.0141936
921.103	0.0141816
921.182	0.0142918
921.260	0.0144077
921.338	0.0143085
921.416	0.0142997
921.494	0.0143375
921.572	0.0143424
921.650	0.0142822
921.728	0.0143491
921.807	0.0144936
921.885	0.0144053
921.963	0.0143745
922.041	0.0145068
922.119	0.0142149
922.197	0.0143489
922.275	0.0143815
922.353	0.0143037
922.432	0.0142742
922.510	0.0141801
922.588	0.0141991
922.666	0.0141766
922.744	0.0140724
922.822	0.0139722
922.900	0.0141419
922.978	0.0138796
923.057	0.0137699
923.135	0.0138910
923.213	0.0138086
923.291	0.0139198
923.369	0.0139848
923.447	0.0138248
923.525	0.0136958
923.603	0.0139594
923.682	0.0141033
923.760	0.0139712
923.838	0.0140112
923.916	0.0139136
923.994	0.0139787
924.072	0.0140168
924.150	0.0139892
924.228	0.0139633
924.307	0.0140360
924.385	0.0139542
924.463	0.0139649
924.541	0.0138898
924.619	0.0140545
924.697	0.0140279
924.775	0.0140948
924.853	0.0140958
924.932	0.0141777
925.010	0.0141942
925.088	0.0142268
925.166	0.0142793
925.244	0.0142467
925.322	0.0142587
925.400	0.0143349
925.478	0.0143658
925.557	0.0143375
925.635	0.0143625
925.713	0.0143582
925.791	0.0144817
925.869	0.0142825
925.947	0.0144772
926.025	0.0144471
926.103	0.0144913
926.182	0.0143446
926.260	0.0143098
926.338	0.0143799
926.416	0.0144022
926.494	0.0142383
926.572	0.0140340
926.650	0.0143042
926.728	0.0142697
926.807	0.0142186
926.885	0.0143269
926.963	0.0142964
927.041	0.0141680
927.119	0.0142439
927.197	0.0143062
927.275	0.0143853
927.353	0.0141967
927.432	0.0142614
927.510	0.0143169
927.588	0.0142764
927.666	0.0142428
927.744	0.0144402
927.822	0.0143031
927.900	0.0143851
927.978	0.0143209
928.057	0.0142615
928.135	0.0143052
928.213	0.0143331
928.291	0.0144878
928.369	0.0143115
928.447	0.0142380
928.525	0.0141470
928.603	0.0141495
928.682	0.0142256
928.760	0.0142919
928.838	0.0142699
928.916	0.0142036
928.994	0.0139524
929.072	0.0140343
929.150	0.0140660
929.228	0.0139890
929.307	0.0140592
929.385	0.0137686
929.463	0.0138538
929.541	0.0139481
929.619	0.0139384
929.697	0.0139986
929.775	0.0141473
929.853	0.0140003
929.932	0.0140508
930.010	0.0140639
930.088	0.0140992
930.166	0.0139565
930.244	0.0141190
930.322	0.0142071
930.400	0.0141745
930.478	0.0143087
930.557	0.0142593
930.635	0.0143369
930.713	0.0142011
930.791	0.0141628
930.869	0.0142843
930.947	0.0144035
931.025	0.0142518
931.103	0.0144037
931.182	0.0143238
931.260	0.0143182
931.338	0.0142870
931.416	0.0142998
931.494	0.0142423
931.572	0.0143912
931.650	0.0142616
931.728	0.0143567
931.807	0.0143790
931.885	0.0144256
931.963	0.0143671
932.041	0.0143115
932.119	0.0145189
932.197	0.0144563
932.275	0.0143656
932.353	0.0143707
932.432	0.0142327
932.510	0.0142484
932.588	0.0143093
932.666	0.0142753
932.744	0.0142825
932.822	0.0142626
932.900	0.0142677
932.978	0.0140915
933.057	0.0141845
933.135	0.0143956
933.213	0.0141250
933.291	0.0141232
933.369	0.0142218
933.447	0.0142380
933.525	0.0142879
933.603	0.0143272
933.682	0.0143060
933.760	0.0143375
933.838	0.0144047
933.916	0.0143314
933.994	0.0142959
934.072	0.0144634
934.150	0.0144923
934.228	0.0144281
934.307	0.0143988
934.385	0.0144709
934.463	0.0144164
934.541	0.0143541
934.619	0.0144250
934.697	0.0143587
934.775	0.0143805
934.853	0.0144453
934.932	0.0143680
935.010	0.0142383
935.088	0.0140913
935.166	0.0140988
935.244	0.0141195
935.322	0.0141454
935.400	0.0140203
935.478	0.0139516
935.557	0.0139875
935.635	0.0138422
935.713	0.0137946
935.791	0.0138412
935.869	0.0138285
935.947	0.0137685
936.025	0.0138829
936.103	0.0139123
936.182	0.0138816
936.260	0.0140497
936.338	0.0140698
936.416	0.0140829
936.494	0.0141375
936.572	0.0142192
936.650	0.0142337
936.728	0.0141638
936.807	0.0142889
936.885	0.0143641
936.963	0.0143275
937.041	0.0142941
937.119	0.0143259
937.197	0.0143913
937.275	0.0143822
937.353	0.0142959
937.432	0.0143168
937.510	0.0144275
937.588	0.0143799
937.666	0.0144019
937.744	0.0144989
937.822	0.0143085
937.900	0.0143671
937.978	0.0142844
938.057	0.0142997
938.135	0.0144442
938.213	0.0144221
938.291	0.0143191
938.369	0.0143594
938.447	0.0142361
938.525	0.0141355
938.603	0.0141737
938.682	0.0141720
938.760	0.0143665
938.838	0.0140327
938.916	0.0141667
938.994	0.0142963
939.072	0.0142266
939.150	0.0142758
939.228	0.0140704
939.307	0.0142178
939.385	0.0141956
939.463	0.0141763
939.541	0.0140436
939.619	0.0142389
939.697	0.0142538
939.775	0.0142517
939.853	0.0142294
939.932	0.0142726
940.010	0.0141958
940.088	0.0142548
940.166	0.0142490
940.244	0.0144186
940.322	0.0143881
940.400	0.0143233
940.478	0.0143020
940.557	0.0142384
940.635	0.0144141
940.713	0.0144099
940.791	0.0142171
940.869	0.0142989
940.947	0.0143315
941.025	0.0143265
941.103	0.0142534
941.182	0.0142764
941.260	0.0143993
941.338	0.0141124
941.416	0.0142606
941.494	0.0142244
941.572	0.0142761
941.650	0.0141739
941.728	0.0141577
941.807	0.0141988
941.885	0.0141524
941.963	0.0140862
942.041	0.0143365
942.119	0.0141101
942.197	0.0141882
942.275	0.0141109
942.353	0.0141863
942.432	0.0141105
942.510	0.0141685
942.588	0.0141613
942.666	0.0141227
942.744	0.0142060
942.822	0.0142802
942.900	0.0141660
942.978	0.0141752
943.057	0.0142371
943.135	0.0142971
943.213	0.0142152
943.291	0.0142969
943.369	0.0141811
943.447	0.0142349
943.525	0.0144118
943.603	0.0144179
943.682	0.0142490
943.760	0.0143813
943.838	0.0144489
943.916	0.0143445
943.994	0.0144331
944.072	0.0145386
944.150	0.0144595
944.228	0.0143109
944.307	0.0144463
944.385	0.0145910
944.463	0.0143418
944.541	0.0143646
944.619	0.0144276
944.697	0.0143769
944.775	0.0145465
944.853	0.0142819
944.932	0.0143545
945.010	0.0144073
945.088	0.0143722
945.166	0.0142586
945.244	0.0142682
945.322	0.0141383
945.400	0.0141317
945.478	0.0141051
945.557	0.0140080
945.635	0.0140055
945.713	0.0140648
945.791	0.0141052
945.869	0.0140211
945.947	0.0139520
946.025	0.0140231
946.103	0.0140610
946.182	0.0139966
946.260	0.0139574
946.338	0.0139531
946.416	0.0140813
946.494	0.0140466
946.572	0.0140693
946.650	0.0140903
946.728	0.0141455
946.807	0.0141747
946.885	0.0141952
946.963	0.0143971
947.041	0.0141961
947.119	0.0144717
947.197	0.0144636
947.275	0.0143642
947.353	0.0143624
947.432	0.0144733
947.510	0.0144041
947.588	0.0145513
947.666	0.0146162
947.744	0.0144449
947.822	0.0144900
947.900	0.0145384
947.978	0.0146725
948.057	0.0146324
948.135	0.0145412
948.213	0.0143872
948.291	0.0142912
948.369	0.0143228
948.447	0.0143562
948.525	0.0143402
948.603	0.0143204
948.682	0.0141496
948.760	0.0142287
948.838	0.0142030
948.916	0.0142198
948.994	0.0141029
949.072	0.0141695
949.150	0.0140178
949.228	0.0141061
949.307	0.0140785
949.385	0.0141965
949.463	0.0140598
949.541	0.0139956
949.619	0.0140717
949.697	0.0141116
949.775	0.0140946
949.853	0.0140790
949.932	0.0140011
950.010	0.0141223
950.088	0.0141371
950.166	0.0141454
950.244	0.0141606
950.322	0.0142368
950.400	0.0141600
950.478	0.0140797
950.557	0.0140554
950.635	0.0140611
950.713	0.0141278
950.791	0.0142420
950.869	0.0142101
950.947	0.0141858
951.025	0.0141163
951.103	0.0142146
951.182	0.0141728
951.260	0.0142023
951.338	0.0142504
951.416	0.0142169
951.494	0.0141988
951.572	0.0140353
951.650	0.0142459
951.728	0.0141610
951.807	0.0140514
951.885	0.0140464
951.963	0.0140392
952.041	0.0140142
952.119	0.0141596
952.197	0.0140899
952.275	0.0139359
952.353	0.0140305
952.432	0.0141856
952.510	0.0141209
952.588	0.0141508
952.666	0.0140968
952.744	0.0142078
952.822	0.0141482
952.900	0.0141042
952.978	0.0141761
953.057	0.0143096
953.135	0.0142571
953.213	0.0143224
953.291	0.0142850
953.369	0.0143554
953.447	0.0143845
953.525	0.0144944
953.603	0.0144299
953.682	0.0142494
953.760	0.0143372
953.838	0.0144198
953.916	0.0145464
953.994	0.0144153
954.072	0.0143620
954.150	0.0143195
954.228	0.0144039
954.307	0.0145135
954.385	0.0144685
954.463	0.0143150
954.541	0.0144276
954.619	0.0144700
954.697	0.0143127
954.775	0.0142594
954.853	0.0143282
954.932	0.0142840
955.010	0.0141998
955.088	0.0141414
955.166	0.0141473
955.244	0.0141321
955.322	0.0143075
955.400	0.0141650
955.478	0.0141541
955.557	0.0142351
955.635	0.0140894
955.713	0.0139733
955.791	0.0139913
955.869	0.0142092
955.947	0.0141438
956.025	0.0140408
956.103	0.0140684
956.182	0.0141819
956.260	0.0140714
956.338	0.0140958
956.416	0.0140321
956.494	0.0140140
956.572	0.0141617
956.650	0.0140892
956.728	0.0140104
956.807	0.0140645
956.885	0.0140378
956.963	0.0140762
957.041	0.0140765
957.119	0.0140738
957.197	0.0140568
957.275	0.0140844
957.353	0.0140559
957.432	0.0141474
957.510	0.0142139
957.588	0.0141383
957.666	0.0140449
957.744	0.0140631
957.822	0.0140997
957.900	0.0141685
957.978	0.0141888
958.057	0.0141913
958.135	0.0141715
958.213	0.0141860
958.291	0.0141903
958.369	0.0141913
958.447	0.0141676
958.525	0.0142879
958.603	0.0142183
958.682	0.0142989
958.760	0.0141955
958.838	0.0142422
958.916	0.0142924
958.994	0.0141499
959.072	0.0142573
959.150	0.0144234
959.228	0.0142772
959.307	0.0142860
959.385	0.0141462
959.463	0.0143511
959.541	0.0142731
959.619	0.0143497
959.697	0.0142606
959.775	0.0143034
959.853	0.0142558
959.932	0.0142666
960.010	0.0142591
960.088	0.0142342
960.166	0.0143099
960.244	0.0142463
960.322	0.0142126
960.400	0.0143444
960.478	0.0143293
960.557	0.0142709
960.635	0.0142802
960.713	0.0142782
960.791	0.0143624
960.869	0.0143653
960.947	0.0142883
961.025	0.0142004
961.103	0.0142712
961.182	0.0142362
961.260	0.0141936
961.338	0.0141500
961.416	0.0141390
961.494	0.0141845
961.572	0.0139835
961.650	0.0142152
961.728	0.0140829
961.807	0.0141327
961.885	0.0141676
961.963	0.0142031
962.041	0.0142258
962.119	0.0142316
962.197	0.0142101
962.275	0.0142089
962.353	0.0142988
962.432	0.0143219
962.510	0.0144043
962.588	0.0143017
962.666	0.0142609
962.744	0.0143637
962.822	0.0142134
962.900	0.0142921
962.978	0.0142967
963.057	0.0142063
963.135	0.0141843
963.213	0.0142173
963.291	0.0142173
963.369	0.0142220
963.447	0.0142254
963.525	0.0143175
963.603	0.0141698
963.682	0.0142278
963.760	0.0142737
963.838	0.0142119
963.916	0.0142358
963.994	0.0141845
964.072	0.0143211
964.150	0.0143666
964.228	0.0142417
964.307	0.0143136
964.385	0.0142886
964.463	0.0144174
964.541	0.0142876
964.619	0.0142010
964.697	0.0143003
964.775	0.0142357
964.853	0.0143497
964.932	0.0144566
965.010	0.0142384
965.088	0.0143111
965.166	0.0142535
965.244	0.0144321
965.322	0.0144560
965.400	0.0144167
965.478	0.0142767
965.557	0.0144325
965.635	0.0143930
965.713	0.0144032
965.791	0.0143422
965.869	0.0143899
965.947	0.0145570
966.025	0.0144812
966.103	0.0144558
966.182	0.0144569
966.260	0.0144265
966.338	0.0145535
966.416	0.0144838
966.494	0.0143023
966.572	0.0143340
966.650	0.0144684
966.728	0.0143704
966.807	0.0142184
966.885	0.0142348
966.963	0.0143760
967.041	0.0142970
967.119	0.0141048
967.197	0.0141776
967.275	0.0141926
967.353	0.0141232
967.432	0.0142001
967.510	0.0141645
967.588	0.0142055
967.666	0.0142630
967.744	0.0142551
967.822	0.0139927
967.900	0.0142104
967.978	0.0142239
968.057	0.0141790
968.135	0.0142638
968.213	0.0142333
968.291	0.0144218
968.369	0.0144466
968.447	0.0143638
968.525	0.0143423
968.603	0.0143975
968.682	0.0144256
968.760	0.0144930
968.838	0.0143448
968.916	0.0143412
968.994	0.0143050
969.072	0.0143661
969.150	0.0143819
969.228	0.0141911
969.307	0.0142726
969.385	0.0142606
969.463	0.0143293
969.541	0.0142368
969.619	0.0141684
969.697	0.0141212
969.775	0.0143000
969.853	0.0142777
969.932	0.0141942
