05/14/2022	19:33:15	Ver.	4.1	UNKNOWN
Optical Delay	650.009681	Delta X		0.078125	Sweeps	1	Scan Rate	0/0
Coordinates	Axis 1	NaN	Axis 2	NaN	Axis 3	NaN	Axis 4	NaN	Axis 5	NaN	Axis 6	0.000000
TX Power	0.000000	RX Power	0.000000

650.010	0.0141131
650.088	0.0141624
650.166	0.0140823
650.244	0.0142131
650.322	0.0140931
650.400	0.0140702
650.478	0.0141589
650.557	0.0141370
650.635	0.0140521
650.713	0.0140704
650.791	0.0140901
650.869	0.0140858
650.947	0.0141349
651.025	0.0143752
651.103	0.0140590
651.182	0.0142397
651.260	0.0140450
651.338	0.0141218
651.416	0.0142048
651.494	0.0141785
651.572	0.0141910
651.650	0.0142126
651.728	0.0142449
651.807	0.0141746
651.885	0.0142496
651.963	0.0143401
652.041	0.0141380
652.119	0.0142972
652.197	0.0143882
652.275	0.0143130
652.353	0.0142924
652.432	0.0143539
652.510	0.0141943
652.588	0.0142287
652.666	0.0144177
652.744	0.0143353
652.822	0.0144315
652.900	0.0144598
652.978	0.0144334
653.057	0.0143747
653.135	0.0145637
653.213	0.0144762
653.291	0.0143872
653.369	0.0145084
653.447	0.0143775
653.525	0.0143486
653.603	0.0145985
653.682	0.0145710
653.760	0.0144416
653.838	0.0145238
653.916	0.0144170
653.994	0.0143859
654.072	0.0145372
654.150	0.0144739
654.228	0.0144539
654.307	0.0144404
654.385	0.0145431
654.463	0.0142999
654.541	0.0145500
654.619	0.0144428
654.697	0.0145279
654.775	0.0145373
654.853	0.0144537
654.932	0.0144433
655.010	0.0145751
655.088	0.0144666
655.166	0.0144096
655.244	0.0144793
655.322	0.0144598
655.400	0.0145615
655.478	0.0142364
655.557	0.0143067
655.635	0.0144855
655.713	0.0144400
655.791	0.0144716
655.869	0.0143828
655.947	0.0143595
656.025	0.0142776
656.103	0.0143394
656.182	0.0142529
656.260	0.0142890
656.338	0.0143906
656.416	0.0143290
656.494	0.0143899
656.572	0.0142750
656.650	0.0142490
656.728	0.0142154
656.807	0.0142921
656.885	0.0143701
656.963	0.0143606
657.041	0.0143712
657.119	0.0141840
657.197	0.0141726
657.275	0.0143266
657.353	0.0142921
657.432	0.0142732
657.510	0.0144102
657.588	0.0143713
657.666	0.0142570
657.744	0.0144081
657.822	0.0144124
657.900	0.0144262
657.978	0.0144933
658.057	0.0144220
658.135	0.0143103
658.213	0.0145087
658.291	0.0143462
658.369	0.0143311
658.447	0.0142680
658.525	0.0141848
658.603	0.0142878
658.682	0.0142566
658.760	0.0141566
658.838	0.0141816
658.916	0.0141399
658.994	0.0141279
659.072	0.0140879
659.150	0.0142171
659.228	0.0143002
659.307	0.0141575
659.385	0.0141874
659.463	0.0143295
659.541	0.0142830
659.619	0.0143060
659.697	0.0142542
659.775	0.0142645
659.853	0.0142060
659.932	0.0142423
660.010	0.0140919
660.088	0.0140657
660.166	0.0141628
660.244	0.0140540
660.322	0.0143073
660.400	0.0141718
660.478	0.0142769
660.557	0.0143527
660.635	0.0142442
660.713	0.0141774
660.791	0.0143198
660.869	0.0144112
660.947	0.0143298
661.025	0.0141970
661.103	0.0141585
661.182	0.0141815
661.260	0.0141553
661.338	0.0141914
661.416	0.0141815
661.494	0.0141019
661.572	0.0140065
661.650	0.0142410
661.728	0.0141094
661.807	0.0140382
661.885	0.0139883
661.963	0.0140673
662.041	0.0142397
662.119	0.0142760
662.197	0.0144485
662.275	0.0145045
662.353	0.0143056
662.432	0.0146159
662.510	0.0145103
662.588	0.0146548
662.666	0.0147643
662.744	0.0147009
662.822	0.0147375
662.900	0.0148309
662.978	0.0146329
663.057	0.0146518
663.135	0.0147686
663.213	0.0146002
663.291	0.0144161
663.369	0.0144416
663.447	0.0142263
663.525	0.0140601
663.603	0.0138868
663.682	0.0139934
663.760	0.0138984
663.838	0.0136239
663.916	0.0134527
663.994	0.0134494
664.072	0.0132053
664.150	0.0132079
664.228	0.0132104
664.307	0.0131831
664.385	0.0130920
664.463	0.0131207
664.541	0.0131871
664.619	0.0132964
664.697	0.0133791
664.775	0.0135323
664.853	0.0137543
664.932	0.0139689
665.010	0.0140549
665.088	0.0143836
665.166	0.0145537
665.244	0.0147795
665.322	0.0150341
665.400	0.0153798
665.478	0.0154829
665.557	0.0157607
665.635	0.0158960
665.713	0.0159155
665.791	0.0158118
665.869	0.0158829
665.947	0.0159098
666.025	0.0157872
666.103	0.0156960
666.182	0.0153774
666.260	0.0153134
666.338	0.0151624
666.416	0.0147845
666.494	0.0144483
666.572	0.0140730
666.650	0.0137189
666.728	0.0133012
666.807	0.0129579
666.885	0.0125651
666.963	0.0123242
667.041	0.0120396
667.119	0.0117485
667.197	0.0116010
667.275	0.0114352
667.353	0.0113566
667.432	0.0113297
667.510	0.0112297
667.588	0.0113614
667.666	0.0115340
667.744	0.0117878
667.822	0.0120135
667.900	0.0122543
667.978	0.0126646
668.057	0.0130538
668.135	0.0134391
668.213	0.0139938
668.291	0.0143891
668.369	0.0148324
668.447	0.0153407
668.525	0.0158935
668.603	0.0163091
668.682	0.0165588
668.760	0.0170155
668.838	0.0171844
668.916	0.0174571
668.994	0.0176792
669.072	0.0175480
669.150	0.0174405
669.228	0.0172828
669.307	0.0171719
669.385	0.0167547
669.463	0.0165308
669.541	0.0161936
669.619	0.0156651
669.697	0.0151109
669.775	0.0143876
669.853	0.0137505
669.932	0.0131064
670.010	0.0124297
670.088	0.0120493
670.166	0.0114995
670.244	0.0110980
670.322	0.0105555
670.400	0.0104040
670.478	0.0101398
670.557	0.00998543
670.635	0.00990433
670.713	0.00995644
670.791	0.0101173
670.869	0.0101103
670.947	0.0106919
671.025	0.0109016
671.103	0.0114966
671.182	0.0119149
671.260	0.0124455
671.338	0.0130444
671.416	0.0136541
671.494	0.0142754
671.572	0.0148572
671.650	0.0156122
671.728	0.0160247
671.807	0.0164364
671.885	0.0169488
671.963	0.0173460
672.041	0.0175565
672.119	0.0176603
672.197	0.0178413
672.275	0.0180250
672.353	0.0180688
672.432	0.0178206
672.510	0.0177038
672.588	0.0175901
672.666	0.0173100
672.744	0.0170895
672.822	0.0165821
672.900	0.0162338
672.978	0.0156645
673.057	0.0151606
673.135	0.0148540
673.213	0.0144414
673.291	0.0140565
673.369	0.0137558
673.447	0.0133054
673.525	0.0131076
673.603	0.0127823
673.682	0.0126258
673.760	0.0126384
673.838	0.0124733
673.916	0.0123801
673.994	0.0125040
674.072	0.0125507
674.150	0.0126511
674.228	0.0127229
674.307	0.0129494
674.385	0.0129989
674.463	0.0132947
674.541	0.0131994
674.619	0.0133419
674.697	0.0134766
674.775	0.0136406
674.853	0.0136503
674.932	0.0139657
675.010	0.0139084
675.088	0.0140469
675.166	0.0142516
675.244	0.0141553
675.322	0.0142764
675.400	0.0141489
675.478	0.0141473
675.557	0.0143596
675.635	0.0140596
675.713	0.0141987
675.791	0.0141957
675.869	0.0142730
675.947	0.0142763
676.025	0.0141368
676.103	0.0142641
676.182	0.0142989
676.260	0.0146094
676.338	0.0147963
676.416	0.0148783
676.494	0.0150069
676.572	0.0150895
676.650	0.0151349
676.728	0.0155314
676.807	0.0155818
676.885	0.0157489
676.963	0.0158678
677.041	0.0162035
677.119	0.0161922
677.197	0.0164718
677.275	0.0164925
677.353	0.0165680
677.432	0.0165485
677.510	0.0167742
677.588	0.0166019
677.666	0.0165453
677.744	0.0162247
677.822	0.0161152
677.900	0.0158098
677.978	0.0155447
678.057	0.0152616
678.135	0.0147984
678.213	0.0143393
678.291	0.0139703
678.369	0.0134383
678.447	0.0130241
678.525	0.0124200
678.603	0.0121041
678.682	0.0117005
678.760	0.0112482
678.838	0.0108823
678.916	0.0104812
678.994	0.0102889
679.072	0.0102040
679.150	0.0101060
679.228	0.0101763
679.307	0.0103564
679.385	0.0104617
679.463	0.0107761
679.541	0.0112995
679.619	0.0116903
679.697	0.0119392
679.775	0.0124790
679.853	0.0130453
679.932	0.0135296
680.010	0.0142505
680.088	0.0146071
680.166	0.0151872
680.244	0.0157189
680.322	0.0161237
680.400	0.0165385
680.478	0.0169303
680.557	0.0173395
680.635	0.0175253
680.713	0.0177464
680.791	0.0179682
680.869	0.0178750
680.947	0.0178731
681.025	0.0176353
681.103	0.0175486
681.182	0.0174635
681.260	0.0169482
681.338	0.0165886
681.416	0.0161839
681.494	0.0155443
681.572	0.0152100
681.650	0.0146977
681.728	0.0142232
681.807	0.0137464
681.885	0.0130510
681.963	0.0125231
682.041	0.0123087
682.119	0.0118973
682.197	0.0116714
682.275	0.0114484
682.353	0.0113395
682.432	0.0111884
682.510	0.0112734
682.588	0.0112593
682.666	0.0114653
682.744	0.0116288
682.822	0.0117247
682.900	0.0119590
682.978	0.0122875
683.057	0.0126434
683.135	0.0130399
683.213	0.0134096
683.291	0.0136920
683.369	0.0140825
683.447	0.0144546
683.525	0.0148650
683.603	0.0151191
683.682	0.0155878
683.760	0.0157806
683.838	0.0160442
683.916	0.0162902
683.994	0.0162897
684.072	0.0164716
684.150	0.0165376
684.228	0.0166592
684.307	0.0165855
684.385	0.0163438
684.463	0.0163287
684.541	0.0161962
684.619	0.0159439
684.697	0.0157965
684.775	0.0155551
684.853	0.0154401
684.932	0.0152904
685.010	0.0149490
685.088	0.0149030
685.166	0.0145546
685.244	0.0144108
685.322	0.0142783
685.400	0.0141614
685.478	0.0137332
685.557	0.0134209
685.635	0.0133485
685.713	0.0131946
685.791	0.0130596
685.869	0.0129756
685.947	0.0128363
686.025	0.0128114
686.103	0.0128529
686.182	0.0129190
686.260	0.0128939
686.338	0.0129297
686.416	0.0131304
686.494	0.0131964
686.572	0.0134111
686.650	0.0132815
686.728	0.0133922
686.807	0.0136627
686.885	0.0136601
686.963	0.0138406
687.041	0.0139626
687.119	0.0142158
687.197	0.0141870
687.275	0.0143248
687.353	0.0144328
687.432	0.0145844
687.510	0.0146965
687.588	0.0148407
687.666	0.0150215
687.744	0.0150680
687.822	0.0152231
687.900	0.0153615
687.978	0.0155044
688.057	0.0155006
688.135	0.0157585
688.213	0.0158572
688.291	0.0158271
688.369	0.0159358
688.447	0.0160873
688.525	0.0162162
688.603	0.0162243
688.682	0.0162500
688.760	0.0162611
688.838	0.0163718
688.916	0.0161819
688.994	0.0162862
689.072	0.0159276
689.150	0.0160428
689.228	0.0157843
689.307	0.0154966
689.385	0.0152562
689.463	0.0150926
689.541	0.0147421
689.619	0.0144286
689.697	0.0143143
689.775	0.0141312
689.853	0.0138405
689.932	0.0136797
690.010	0.0134914
690.088	0.0133840
690.166	0.0130202
690.244	0.0131105
690.322	0.0129598
690.400	0.0129187
690.478	0.0128385
690.557	0.0129124
690.635	0.0126146
690.713	0.0126129
690.791	0.0125671
690.869	0.0125137
690.947	0.0124290
691.025	0.0127209
691.103	0.0125426
691.182	0.0126813
691.260	0.0126643
691.338	0.0127995
691.416	0.0128741
691.494	0.0129038
691.572	0.0129474
691.650	0.0130903
691.728	0.0131654
691.807	0.0133282
691.885	0.0133023
691.963	0.0134481
692.041	0.0136233
692.119	0.0136398
692.197	0.0135906
692.275	0.0137463
692.353	0.0138806
692.432	0.0139272
692.510	0.0140720
692.588	0.0143150
692.666	0.0145036
692.744	0.0148547
692.822	0.0150036
692.900	0.0150844
692.978	0.0152943
693.057	0.0155369
693.135	0.0159167
693.213	0.0162113
693.291	0.0162933
693.369	0.0161409
693.447	0.0164789
693.525	0.0163911
693.603	0.0166199
693.682	0.0167838
693.760	0.0165948
693.838	0.0167755
693.916	0.0168478
693.994	0.0166805
694.072	0.0166647
694.150	0.0165434
694.228	0.0165683
694.307	0.0163676
694.385	0.0163896
694.463	0.0163664
694.541	0.0163139
694.619	0.0160860
694.697	0.0158974
694.775	0.0155376
694.853	0.0152174
694.932	0.0151207
695.010	0.0147235
695.088	0.0145457
695.166	0.0140213
695.244	0.0136034
695.322	0.0133000
695.400	0.0131158
695.478	0.0126321
695.557	0.0123665
695.635	0.0119408
695.713	0.0115740
695.791	0.0113672
695.869	0.0109275
695.947	0.0107974
696.025	0.0106642
696.103	0.0107200
696.182	0.0106005
696.260	0.0105885
696.338	0.0108643
696.416	0.0110656
696.494	0.0112824
696.572	0.0116129
696.650	0.0119125
696.728	0.0123897
696.807	0.0126723
696.885	0.0130544
696.963	0.0134634
697.041	0.0137479
697.119	0.0142375
697.197	0.0145110
697.275	0.0147674
697.353	0.0149007
697.432	0.0152213
697.510	0.0154408
697.588	0.0155706
697.666	0.0157295
697.744	0.0156741
697.822	0.0158685
697.900	0.0159379
697.978	0.0160912
698.057	0.0161217
698.135	0.0160575
698.213	0.0161726
698.291	0.0162582
698.369	0.0164451
698.447	0.0164487
698.525	0.0164298
698.603	0.0163913
698.682	0.0165654
698.760	0.0164061
698.838	0.0163222
698.916	0.0162284
698.994	0.0160313
699.072	0.0158607
699.150	0.0157667
699.228	0.0154986
699.307	0.0153471
699.385	0.0151699
699.463	0.0149947
699.541	0.0147079
699.619	0.0144466
699.697	0.0145084
699.775	0.0142241
699.853	0.0142424
699.932	0.0141181
700.010	0.0140172
700.088	0.0138667
700.166	0.0138256
700.244	0.0136491
700.322	0.0137187
700.400	0.0136420
700.478	0.0134609
700.557	0.0133849
700.635	0.0133576
700.713	0.0131683
700.791	0.0132897
700.869	0.0128661
700.947	0.0127200
701.025	0.0126395
701.103	0.0124870
701.182	0.0123535
701.260	0.0121136
701.338	0.0120754
701.416	0.0120409
701.494	0.0119075
701.572	0.0118160
701.650	0.0119229
701.728	0.0120526
701.807	0.0120779
701.885	0.0123572
701.963	0.0124230
702.041	0.0125866
702.119	0.0127019
702.197	0.0131066
702.275	0.0132347
702.353	0.0133804
702.432	0.0136410
702.510	0.0138265
702.588	0.0139600
702.666	0.0140948
702.744	0.0142199
702.822	0.0143105
702.900	0.0142986
702.978	0.0145361
703.057	0.0144258
703.135	0.0143806
703.213	0.0145573
703.291	0.0146691
703.369	0.0147129
703.447	0.0148656
703.525	0.0149792
703.603	0.0151077
703.682	0.0154028
703.760	0.0154042
703.838	0.0156882
703.916	0.0158910
703.994	0.0161551
704.072	0.0162197
704.150	0.0163573
704.228	0.0165343
704.307	0.0166707
704.385	0.0168542
704.463	0.0167995
704.541	0.0167068
704.619	0.0166588
704.697	0.0166032
704.775	0.0163635
704.853	0.0164542
704.932	0.0161647
705.010	0.0158948
705.088	0.0157166
705.166	0.0155320
705.244	0.0153010
705.322	0.0150536
705.400	0.0147173
705.478	0.0145997
705.557	0.0143282
705.635	0.0141528
705.713	0.0138541
705.791	0.0138451
705.869	0.0136576
705.947	0.0135821
706.025	0.0135163
706.103	0.0134733
706.182	0.0134135
706.260	0.0134962
706.338	0.0136092
706.416	0.0136044
706.494	0.0137215
706.572	0.0137328
706.650	0.0139014
706.728	0.0139467
706.807	0.0138992
706.885	0.0138733
706.963	0.0137291
707.041	0.0136266
707.119	0.0137317
707.197	0.0136839
707.275	0.0136523
707.353	0.0134770
707.432	0.0133180
707.510	0.0132931
707.588	0.0132087
707.666	0.0129655
707.744	0.0129848
707.822	0.0128360
707.900	0.0127316
707.978	0.0128463
708.057	0.0128712
708.135	0.0128356
708.213	0.0129781
708.291	0.0128526
708.369	0.0129098
708.447	0.0130105
708.525	0.0132116
708.603	0.0132931
708.682	0.0132815
708.760	0.0135289
708.838	0.0135400
708.916	0.0135976
708.994	0.0138580
709.072	0.0139684
709.150	0.0140501
709.228	0.0143185
709.307	0.0142548
709.385	0.0145899
709.463	0.0147039
709.541	0.0149187
709.619	0.0153115
709.697	0.0155964
709.775	0.0158110
709.853	0.0161609
709.932	0.0163627
710.010	0.0167675
710.088	0.0170104
710.166	0.0171932
710.244	0.0173982
710.322	0.0175658
710.400	0.0174820
710.478	0.0176121
710.557	0.0175772
710.635	0.0173149
710.713	0.0172388
710.791	0.0169664
710.869	0.0167151
710.947	0.0163290
711.025	0.0160211
711.103	0.0154333
711.182	0.0149784
711.260	0.0145775
711.338	0.0140547
711.416	0.0137298
711.494	0.0133242
711.572	0.0131186
711.650	0.0128382
711.728	0.0127121
711.807	0.0124461
711.885	0.0121976
711.963	0.0121978
712.041	0.0123324
712.119	0.0120085
712.197	0.0121830
712.275	0.0124446
712.353	0.0121758
712.432	0.0123242
712.510	0.0124833
712.588	0.0125568
712.666	0.0124426
712.744	0.0126123
712.822	0.0127028
712.900	0.0127071
712.978	0.0128004
713.057	0.0129376
713.135	0.0130365
713.213	0.0132758
713.291	0.0132317
713.369	0.0134602
713.447	0.0135248
713.525	0.0135205
713.603	0.0136945
713.682	0.0138593
713.760	0.0139961
713.838	0.0140785
713.916	0.0141117
713.994	0.0142626
714.072	0.0143989
714.150	0.0144996
714.228	0.0146105
714.307	0.0146600
714.385	0.0146661
714.463	0.0147412
714.541	0.0148378
714.619	0.0149255
714.697	0.0148915
714.775	0.0147768
714.853	0.0146964
714.932	0.0146953
715.010	0.0147266
715.088	0.0145116
715.166	0.0145842
715.244	0.0145121
715.322	0.0145417
715.400	0.0143768
715.478	0.0144502
715.557	0.0144567
715.635	0.0144377
715.713	0.0145058
715.791	0.0144611
715.869	0.0144882
715.947	0.0146812
716.025	0.0147417
716.103	0.0147693
716.182	0.0147565
716.260	0.0149223
716.338	0.0149831
716.416	0.0149478
716.494	0.0149805
716.572	0.0151615
716.650	0.0150690
716.728	0.0153091
716.807	0.0151168
716.885	0.0152420
716.963	0.0152830
717.041	0.0151748
717.119	0.0151368
717.197	0.0152662
717.275	0.0153957
717.353	0.0153432
717.432	0.0152508
717.510	0.0151068
717.588	0.0151131
717.666	0.0150578
717.744	0.0150229
717.822	0.0149725
717.900	0.0148093
717.978	0.0146624
718.057	0.0146649
718.135	0.0145164
718.213	0.0144061
718.291	0.0144086
718.369	0.0141131
718.447	0.0138950
718.525	0.0137238
718.603	0.0137033
718.682	0.0136037
718.760	0.0134648
718.838	0.0134145
718.916	0.0133068
718.994	0.0130676
719.072	0.0129631
719.150	0.0128997
719.228	0.0127921
719.307	0.0126728
719.385	0.0125889
719.463	0.0125613
719.541	0.0124270
719.619	0.0124989
719.697	0.0124735
719.775	0.0124478
719.853	0.0126520
719.932	0.0128833
720.010	0.0127567
720.088	0.0128116
720.166	0.0131744
720.244	0.0133092
720.322	0.0134785
720.400	0.0137348
720.478	0.0139150
720.557	0.0141428
720.635	0.0143351
720.713	0.0146051
720.791	0.0145785
720.869	0.0147729
720.947	0.0149828
721.025	0.0150879
721.103	0.0151402
721.182	0.0152312
721.260	0.0151260
721.338	0.0154764
721.416	0.0154633
721.494	0.0154105
721.572	0.0154414
721.650	0.0156509
721.728	0.0155863
721.807	0.0154079
721.885	0.0153542
721.963	0.0154366
722.041	0.0154534
722.119	0.0153876
722.197	0.0152266
722.275	0.0151508
722.353	0.0151892
722.432	0.0151120
722.510	0.0149816
722.588	0.0152101
722.666	0.0149764
722.744	0.0149090
722.822	0.0148856
722.900	0.0148444
722.978	0.0147799
723.057	0.0145880
723.135	0.0147398
723.213	0.0145597
723.291	0.0144663
723.369	0.0142218
723.447	0.0140877
723.525	0.0140778
723.603	0.0139272
723.682	0.0137426
723.760	0.0136356
723.838	0.0135788
723.916	0.0133878
723.994	0.0131460
724.072	0.0132885
724.150	0.0133483
724.228	0.0129578
724.307	0.0129313
724.385	0.0128726
724.463	0.0130566
724.541	0.0130374
724.619	0.0130086
724.697	0.0130679
724.775	0.0131082
724.853	0.0131203
724.932	0.0132289
725.010	0.0134962
725.088	0.0133156
725.166	0.0136945
725.244	0.0136623
725.322	0.0139040
725.400	0.0140441
725.478	0.0142441
725.557	0.0142540
725.635	0.0142445
725.713	0.0143616
725.791	0.0145987
725.869	0.0145205
725.947	0.0145332
726.025	0.0146477
726.103	0.0146213
726.182	0.0145293
726.260	0.0143343
726.338	0.0145421
726.416	0.0144582
726.494	0.0143344
726.572	0.0143652
726.650	0.0143329
726.728	0.0143331
726.807	0.0143324
726.885	0.0142317
726.963	0.0141772
727.041	0.0143085
727.119	0.0142597
727.197	0.0140420
727.275	0.0141346
727.353	0.0141238
727.432	0.0141061
727.510	0.0141284
727.588	0.0141756
727.666	0.0143076
727.744	0.0141560
727.822	0.0142134
727.900	0.0142994
727.978	0.0141685
728.057	0.0143441
728.135	0.0143733
728.213	0.0144605
728.291	0.0144855
728.369	0.0145485
728.447	0.0145924
728.525	0.0146735
728.603	0.0144778
728.682	0.0145984
728.760	0.0146545
728.838	0.0147057
728.916	0.0146732
728.994	0.0147204
729.072	0.0148621
729.150	0.0148744
729.228	0.0146474
729.307	0.0148203
729.385	0.0149490
729.463	0.0149548
729.541	0.0149606
729.619	0.0149619
729.697	0.0150169
729.775	0.0149113
729.853	0.0149043
729.932	0.0148936
730.010	0.0147667
730.088	0.0147177
730.166	0.0144491
730.244	0.0144675
730.322	0.0143496
730.400	0.0140842
730.478	0.0140160
730.557	0.0139767
730.635	0.0136526
730.713	0.0136961
730.791	0.0137085
730.869	0.0136383
730.947	0.0136417
731.025	0.0137912
731.103	0.0136714
731.182	0.0137138
731.260	0.0137082
731.338	0.0137547
731.416	0.0139526
731.494	0.0140425
731.572	0.0141351
731.650	0.0142075
731.728	0.0142616
731.807	0.0143607
731.885	0.0144167
731.963	0.0143913
732.041	0.0145640
732.119	0.0146266
732.197	0.0145917
732.275	0.0146812
732.353	0.0146432
732.432	0.0146603
732.510	0.0146758
732.588	0.0146022
732.666	0.0145235
732.744	0.0143452
732.822	0.0144503
732.900	0.0144260
732.978	0.0141365
733.057	0.0141576
733.135	0.0141941
733.213	0.0142650
733.291	0.0142101
733.369	0.0142201
733.447	0.0140955
733.525	0.0141190
733.603	0.0141052
733.682	0.0143105
733.760	0.0141314
733.838	0.0143165
733.916	0.0142301
733.994	0.0141805
734.072	0.0141479
734.150	0.0142300
734.228	0.0142247
734.307	0.0142083
734.385	0.0141257
734.463	0.0140405
734.541	0.0139702
734.619	0.0138652
734.697	0.0140113
734.775	0.0140907
734.853	0.0138647
734.932	0.0139819
735.010	0.0139668
735.088	0.0139867
735.166	0.0140325
735.244	0.0141516
735.322	0.0142567
735.400	0.0141509
735.478	0.0141394
735.557	0.0143113
735.635	0.0142632
735.713	0.0141814
735.791	0.0143421
735.869	0.0144344
735.947	0.0143285
736.025	0.0142951
736.103	0.0142037
736.182	0.0141550
736.260	0.0141389
736.338	0.0143018
736.416	0.0141566
736.494	0.0142925
736.572	0.0141692
736.650	0.0141058
736.728	0.0141328
736.807	0.0141506
736.885	0.0141598
736.963	0.0139780
737.041	0.0140630
737.119	0.0140495
737.197	0.0141055
737.275	0.0139655
737.353	0.0140971
737.432	0.0141640
737.510	0.0140784
737.588	0.0140527
737.666	0.0142257
737.744	0.0142130
737.822	0.0141805
737.900	0.0143453
737.978	0.0142801
738.057	0.0142844
738.135	0.0144121
738.213	0.0144219
738.291	0.0144795
738.369	0.0145547
738.447	0.0145798
738.525	0.0145921
738.603	0.0144306
738.682	0.0144452
738.760	0.0143536
738.838	0.0144547
738.916	0.0145216
738.994	0.0144101
739.072	0.0144224
739.150	0.0144105
739.228	0.0144312
739.307	0.0142724
739.385	0.0142520
739.463	0.0142014
739.541	0.0140712
739.619	0.0140704
739.697	0.0140394
739.775	0.0139886
739.853	0.0138908
739.932	0.0137666
740.010	0.0136816
740.088	0.0136831
740.166	0.0135120
740.244	0.0135737
740.322	0.0135155
740.400	0.0134740
740.478	0.0134714
740.557	0.0134771
740.635	0.0135645
740.713	0.0134254
740.791	0.0136551
740.869	0.0137198
740.947	0.0136908
741.025	0.0135458
741.103	0.0137041
741.182	0.0137712
741.260	0.0139225
741.338	0.0138790
741.416	0.0141109
741.494	0.0141049
741.572	0.0141254
741.650	0.0141985
741.728	0.0142424
741.807	0.0143236
741.885	0.0144354
741.963	0.0144843
742.041	0.0145641
742.119	0.0147782
742.197	0.0146502
742.275	0.0146632
742.353	0.0145938
742.432	0.0144362
742.510	0.0146468
742.588	0.0146598
742.666	0.0146185
742.744	0.0146322
742.822	0.0145071
742.900	0.0145003
742.978	0.0144891
743.057	0.0145557
743.135	0.0145870
743.213	0.0145004
743.291	0.0145296
743.369	0.0145417
743.447	0.0144316
743.525	0.0144896
743.603	0.0144402
743.682	0.0145625
743.760	0.0145553
743.838	0.0143249
743.916	0.0144107
743.994	0.0145271
744.072	0.0142939
744.150	0.0142423
744.228	0.0141817
744.307	0.0142845
744.385	0.0142005
744.463	0.0141488
744.541	0.0140524
744.619	0.0140897
744.697	0.0142548
744.775	0.0141822
744.853	0.0141783
744.932	0.0142923
745.010	0.0142768
745.088	0.0141798
745.166	0.0142966
745.244	0.0142345
745.322	0.0140796
745.400	0.0140398
745.478	0.0142020
745.557	0.0141825
745.635	0.0140594
745.713	0.0141679
745.791	0.0141248
745.869	0.0140726
745.947	0.0141183
746.025	0.0139735
746.103	0.0139676
746.182	0.0139901
746.260	0.0139095
746.338	0.0139190
746.416	0.0140462
746.494	0.0139056
746.572	0.0138808
746.650	0.0139458
746.728	0.0137987
746.807	0.0140612
746.885	0.0141926
746.963	0.0139735
747.041	0.0139684
747.119	0.0140805
747.197	0.0140984
747.275	0.0142664
747.353	0.0142974
747.432	0.0141943
747.510	0.0143663
747.588	0.0145721
747.666	0.0145129
747.744	0.0143913
747.822	0.0144603
747.900	0.0145642
747.978	0.0145654
748.057	0.0145491
748.135	0.0144469
748.213	0.0146194
748.291	0.0146785
748.369	0.0146349
748.447	0.0145485
748.525	0.0144839
748.603	0.0145966
748.682	0.0146030
748.760	0.0146819
748.838	0.0146084
748.916	0.0146267
748.994	0.0144688
749.072	0.0145866
749.150	0.0146141
749.228	0.0145670
749.307	0.0144949
749.385	0.0143933
749.463	0.0142291
749.541	0.0143061
749.619	0.0144297
749.697	0.0142152
749.775	0.0142204
749.853	0.0142892
749.932	0.0140076
750.010	0.0139898
750.088	0.0141410
750.166	0.0140665
750.244	0.0140842
750.322	0.0139937
750.400	0.0139909
750.478	0.0140393
750.557	0.0140292
750.635	0.0139378
750.713	0.0141796
750.791	0.0139946
750.869	0.0141285
750.947	0.0142768
751.025	0.0141983
751.103	0.0142990
751.182	0.0144109
751.260	0.0144571
751.338	0.0144255
751.416	0.0144428
751.494	0.0143636
751.572	0.0144590
751.650	0.0144258
751.728	0.0144726
751.807	0.0144794
751.885	0.0143987
751.963	0.0145087
752.041	0.0144051
752.119	0.0144073
752.197	0.0144196
752.275	0.0144524
752.353	0.0143210
752.432	0.0143362
752.510	0.0143990
752.588	0.0143167
752.666	0.0142853
752.744	0.0141872
752.822	0.0142799
752.900	0.0141438
752.978	0.0142521
753.057	0.0140868
753.135	0.0141042
753.213	0.0141077
753.291	0.0140397
753.369	0.0140964
753.447	0.0140410
753.525	0.0139477
753.603	0.0139362
753.682	0.0139138
753.760	0.0138818
753.838	0.0139177
753.916	0.0139582
753.994	0.0139156
754.072	0.0139832
754.150	0.0141324
754.228	0.0139603
754.307	0.0140693
754.385	0.0140614
754.463	0.0141184
754.541	0.0141515
754.619	0.0142007
754.697	0.0140717
754.775	0.0141496
754.853	0.0141959
754.932	0.0142418
755.010	0.0141805
755.088	0.0141953
755.166	0.0142051
755.244	0.0143428
755.322	0.0144193
755.400	0.0144183
755.478	0.0144267
755.557	0.0144823
755.635	0.0145190
755.713	0.0144513
755.791	0.0145772
755.869	0.0146587
755.947	0.0147238
756.025	0.0147356
756.103	0.0147297
756.182	0.0147178
756.260	0.0148371
756.338	0.0146540
756.416	0.0146362
756.494	0.0147784
756.572	0.0145974
756.650	0.0145990
756.728	0.0146355
756.807	0.0147484
756.885	0.0146227
756.963	0.0146251
757.041	0.0144507
757.119	0.0145815
757.197	0.0145351
757.275	0.0144153
757.353	0.0143768
757.432	0.0144424
757.510	0.0144282
757.588	0.0143357
757.666	0.0142837
757.744	0.0142192
757.822	0.0141809
757.900	0.0140446
757.978	0.0140831
758.057	0.0140630
758.135	0.0139664
758.213	0.0138870
758.291	0.0137402
758.369	0.0138823
758.447	0.0137410
758.525	0.0136961
758.603	0.0136798
758.682	0.0138168
758.760	0.0138143
758.838	0.0138302
758.916	0.0138143
758.994	0.0137711
759.072	0.0140907
759.150	0.0141431
759.228	0.0140934
759.307	0.0140885
759.385	0.0142512
759.463	0.0141965
759.541	0.0142247
759.619	0.0142654
759.697	0.0143842
759.775	0.0143443
759.853	0.0145600
759.932	0.0143541
760.010	0.0143109
760.088	0.0143861
760.166	0.0141994
760.244	0.0143284
760.322	0.0142477
760.400	0.0142171
760.478	0.0142457
760.557	0.0141749
760.635	0.0142506
760.713	0.0141790
760.791	0.0140549
760.869	0.0140891
760.947	0.0141830
761.025	0.0141742
761.103	0.0141280
761.182	0.0141620
761.260	0.0141020
761.338	0.0141441
761.416	0.0141573
761.494	0.0141963
761.572	0.0142428
761.650	0.0142670
761.728	0.0144157
761.807	0.0141142
761.885	0.0140874
761.963	0.0143388
762.041	0.0142496
762.119	0.0142816
762.197	0.0143706
762.275	0.0143037
762.353	0.0142640
762.432	0.0141994
762.510	0.0143974
762.588	0.0144096
762.666	0.0143405
762.744	0.0144051
762.822	0.0143757
762.900	0.0144930
762.978	0.0143859
763.057	0.0142587
763.135	0.0143552
763.213	0.0142873
763.291	0.0141572
763.369	0.0142655
763.447	0.0142503
763.525	0.0141136
763.603	0.0141595
763.682	0.0142442
763.760	0.0141383
763.838	0.0140727
763.916	0.0141779
763.994	0.0140017
764.072	0.0140906
764.150	0.0140295
764.228	0.0140204
764.307	0.0141050
764.385	0.0141819
764.463	0.0141969
764.541	0.0141594
764.619	0.0142976
764.697	0.0142348
764.775	0.0144579
764.853	0.0145351
764.932	0.0145747
765.010	0.0146196
765.088	0.0146089
765.166	0.0147132
765.244	0.0146738
765.322	0.0145814
765.400	0.0147599
765.478	0.0146403
765.557	0.0145911
765.635	0.0146982
765.713	0.0147102
765.791	0.0146105
765.869	0.0145890
765.947	0.0146629
766.025	0.0146803
766.103	0.0146062
766.182	0.0144822
766.260	0.0144122
766.338	0.0142939
766.416	0.0143700
766.494	0.0143005
766.572	0.0141893
766.650	0.0142206
766.728	0.0141093
766.807	0.0141112
766.885	0.0139976
766.963	0.0139314
767.041	0.0139384
767.119	0.0139201
767.197	0.0137787
767.275	0.0137594
767.353	0.0138514
767.432	0.0138494
767.510	0.0137550
767.588	0.0140394
767.666	0.0138508
767.744	0.0140409
767.822	0.0139304
767.900	0.0140328
767.978	0.0140896
768.057	0.0140345
768.135	0.0142442
768.213	0.0141833
768.291	0.0142754
768.369	0.0142430
768.447	0.0143259
768.525	0.0145332
768.603	0.0144144
768.682	0.0143626
768.760	0.0144324
768.838	0.0145181
768.916	0.0145914
768.994	0.0145745
769.072	0.0145914
769.150	0.0145908
769.228	0.0147607
769.307	0.0146239
769.385	0.0146183
769.463	0.0146212
769.541	0.0146712
769.619	0.0145509
769.697	0.0143954
769.775	0.0143900
769.853	0.0143596
769.932	0.0143798
770.010	0.0143095
770.088	0.0142226
770.166	0.0139926
770.244	0.0140714
770.322	0.0141243
770.400	0.0139713
770.478	0.0139931
770.557	0.0139643
770.635	0.0139501
770.713	0.0140633
770.791	0.0138905
770.869	0.0138526
770.947	0.0139929
771.025	0.0140307
771.103	0.0138770
771.182	0.0141011
771.260	0.0139234
771.338	0.0140662
771.416	0.0141475
771.494	0.0143187
771.572	0.0141593
771.650	0.0141871
771.728	0.0142322
771.807	0.0143197
771.885	0.0144022
771.963	0.0143429
772.041	0.0142955
772.119	0.0144740
772.197	0.0142954
772.275	0.0142845
772.353	0.0146204
772.432	0.0144815
772.510	0.0145541
772.588	0.0144839
772.666	0.0143980
772.744	0.0144685
772.822	0.0144932
772.900	0.0145600
772.978	0.0145472
773.057	0.0144975
773.135	0.0145792
773.213	0.0146088
773.291	0.0145562
773.369	0.0146297
773.447	0.0147501
773.525	0.0146984
773.603	0.0146349
773.682	0.0147318
773.760	0.0147911
773.838	0.0146965
773.916	0.0147305
773.994	0.0146156
774.072	0.0145527
774.150	0.0145055
774.228	0.0144618
774.307	0.0143004
774.385	0.0143670
774.463	0.0144145
774.541	0.0139890
774.619	0.0141631
774.697	0.0139556
774.775	0.0139209
774.853	0.0138090
774.932	0.0137289
775.010	0.0137682
775.088	0.0136745
775.166	0.0137024
775.244	0.0137062
775.322	0.0135620
775.400	0.0135407
775.478	0.0135935
775.557	0.0136137
775.635	0.0135866
775.713	0.0135432
775.791	0.0135549
775.869	0.0136283
775.947	0.0137335
776.025	0.0136214
776.103	0.0137127
776.182	0.0136980
776.260	0.0139137
776.338	0.0138821
776.416	0.0138337
776.494	0.0139075
776.572	0.0140150
776.650	0.0140231
776.728	0.0141518
776.807	0.0142063
776.885	0.0142698
776.963	0.0144463
777.041	0.0144023
777.119	0.0145277
777.197	0.0145909
777.275	0.0147141
777.353	0.0147280
777.432	0.0147066
777.510	0.0146320
777.588	0.0148142
777.666	0.0147719
777.744	0.0148274
777.822	0.0148549
777.900	0.0147245
777.978	0.0147746
778.057	0.0147660
778.135	0.0148907
778.213	0.0147816
778.291	0.0147266
778.369	0.0146876
778.447	0.0144664
778.525	0.0145957
778.603	0.0144973
778.682	0.0142818
778.760	0.0142043
778.838	0.0141775
778.916	0.0140148
778.994	0.0139706
779.072	0.0139957
779.150	0.0138635
779.228	0.0138631
779.307	0.0137626
779.385	0.0137383
779.463	0.0137910
779.541	0.0137905
779.619	0.0138943
779.697	0.0140158
779.775	0.0141359
779.853	0.0140086
779.932	0.0141226
780.010	0.0141481
780.088	0.0142334
780.166	0.0143943
780.244	0.0145562
780.322	0.0143285
780.400	0.0144396
780.478	0.0145559
780.557	0.0144947
780.635	0.0145015
780.713	0.0145573
780.791	0.0145467
780.869	0.0144954
780.947	0.0146268
781.025	0.0143787
781.103	0.0143610
781.182	0.0142261
781.260	0.0143307
781.338	0.0142271
781.416	0.0142578
781.494	0.0141895
781.572	0.0141326
781.650	0.0141041
781.728	0.0140369
781.807	0.0142090
781.885	0.0140854
781.963	0.0141489
782.041	0.0139989
782.119	0.0140229
782.197	0.0141917
782.275	0.0140778
782.353	0.0141877
782.432	0.0141217
782.510	0.0141293
782.588	0.0142950
782.666	0.0142590
782.744	0.0142430
782.822	0.0142225
782.900	0.0141360
782.978	0.0143547
783.057	0.0142114
783.135	0.0141657
783.213	0.0141248
783.291	0.0141665
783.369	0.0141624
783.447	0.0141485
783.525	0.0141301
783.603	0.0141418
783.682	0.0140092
783.760	0.0140366
783.838	0.0140301
783.916	0.0141234
783.994	0.0141035
784.072	0.0140513
784.150	0.0142077
784.228	0.0143307
784.307	0.0144555
784.385	0.0142919
784.463	0.0145498
784.541	0.0146409
784.619	0.0146613
784.697	0.0148680
784.775	0.0146776
784.853	0.0147343
784.932	0.0148483
785.010	0.0149522
785.088	0.0149645
785.166	0.0149130
785.244	0.0148282
785.322	0.0148638
785.400	0.0148496
785.478	0.0147569
785.557	0.0147271
785.635	0.0147245
785.713	0.0147941
785.791	0.0145805
785.869	0.0145243
785.947	0.0147836
786.025	0.0145811
786.103	0.0144916
786.182	0.0144553
786.260	0.0146239
786.338	0.0144048
786.416	0.0143224
786.494	0.0142842
786.572	0.0144859
786.650	0.0143345
786.728	0.0143262
786.807	0.0142345
786.885	0.0141628
786.963	0.0142838
787.041	0.0142931
787.119	0.0142941
787.197	0.0140340
787.275	0.0140844
787.353	0.0142046
787.432	0.0139326
787.510	0.0141583
787.588	0.0140775
787.666	0.0140520
787.744	0.0140364
787.822	0.0139516
787.900	0.0141283
787.978	0.0139656
788.057	0.0140143
788.135	0.0140630
788.213	0.0140893
788.291	0.0138939
788.369	0.0139834
788.447	0.0140925
788.525	0.0140176
788.603	0.0139539
788.682	0.0139659
788.760	0.0141343
788.838	0.0141201
788.916	0.0140746
788.994	0.0142003
789.072	0.0142569
789.150	0.0141277
789.228	0.0141872
789.307	0.0142142
789.385	0.0144080
789.463	0.0143904
789.541	0.0144954
789.619	0.0145355
789.697	0.0146238
789.775	0.0145185
789.853	0.0145403
789.932	0.0147129
790.010	0.0147583
790.088	0.0146816
790.166	0.0147662
790.244	0.0148343
790.322	0.0147676
790.400	0.0146732
790.478	0.0148569
790.557	0.0147814
790.635	0.0147261
790.713	0.0146146
790.791	0.0147330
790.869	0.0146376
790.947	0.0146796
791.025	0.0147018
791.103	0.0144959
791.182	0.0144210
791.260	0.0144563
791.338	0.0143468
791.416	0.0141549
791.494	0.0142873
791.572	0.0143476
791.650	0.0142307
791.728	0.0141614
791.807	0.0140167
791.885	0.0139442
791.963	0.0141039
792.041	0.0139208
792.119	0.0139245
792.197	0.0138152
792.275	0.0137518
792.353	0.0138492
792.432	0.0138190
792.510	0.0137555
792.588	0.0137648
792.666	0.0138358
792.744	0.0137237
792.822	0.0137392
792.900	0.0138893
792.978	0.0139663
793.057	0.0138943
793.135	0.0140002
793.213	0.0139922
793.291	0.0140693
793.369	0.0140815
793.447	0.0140993
793.525	0.0141697
793.603	0.0142125
793.682	0.0142950
793.760	0.0143434
793.838	0.0144849
793.916	0.0142675
793.994	0.0142348
794.072	0.0144094
794.150	0.0146075
794.228	0.0145190
794.307	0.0145503
794.385	0.0144617
794.463	0.0143108
794.541	0.0145026
794.619	0.0145934
794.697	0.0145825
794.775	0.0145792
794.853	0.0145698
794.932	0.0145731
795.010	0.0147581
795.088	0.0147081
795.166	0.0146949
795.244	0.0145584
795.322	0.0146607
795.400	0.0147811
795.478	0.0148625
795.557	0.0147800
795.635	0.0147626
795.713	0.0146828
795.791	0.0147768
795.869	0.0146091
795.947	0.0147444
796.025	0.0147044
796.103	0.0146683
796.182	0.0147030
796.260	0.0145423
796.338	0.0146494
796.416	0.0145931
796.494	0.0145062
796.572	0.0143678
796.650	0.0144354
796.728	0.0141315
796.807	0.0142058
796.885	0.0141766
796.963	0.0140559
797.041	0.0139204
797.119	0.0138985
797.197	0.0137617
797.275	0.0137990
797.353	0.0137857
797.432	0.0137375
797.510	0.0138071
797.588	0.0136375
797.666	0.0136819
797.744	0.0136251
797.822	0.0137582
797.900	0.0137027
797.978	0.0136254
798.057	0.0137449
798.135	0.0138325
798.213	0.0137688
798.291	0.0137975
798.369	0.0139326
798.447	0.0140396
798.525	0.0139973
798.603	0.0140859
798.682	0.0143233
798.760	0.0142984
798.838	0.0142559
798.916	0.0142434
798.994	0.0143717
799.072	0.0144012
799.150	0.0144332
799.228	0.0143571
799.307	0.0144389
799.385	0.0142595
799.463	0.0142895
799.541	0.0143674
799.619	0.0141894
799.697	0.0141807
799.775	0.0141704
799.853	0.0142238
799.932	0.0143520
800.010	0.0142369
800.088	0.0142552
800.166	0.0143368
800.244	0.0143965
800.322	0.0143607
800.400	0.0144733
800.478	0.0142802
800.557	0.0144341
800.635	0.0144730
800.713	0.0144048
800.791	0.0144551
800.869	0.0145982
800.947	0.0146330
801.025	0.0144333
801.103	0.0146510
801.182	0.0145478
801.260	0.0145278
801.338	0.0146427
801.416	0.0146779
801.494	0.0144344
801.572	0.0144730
801.650	0.0144977
801.728	0.0146384
801.807	0.0144753
801.885	0.0144664
801.963	0.0146165
802.041	0.0143837
802.119	0.0143898
802.197	0.0143599
802.275	0.0143011
802.353	0.0142489
802.432	0.0141142
802.510	0.0140447
802.588	0.0138782
802.666	0.0140281
802.744	0.0139957
802.822	0.0138536
802.900	0.0137466
802.978	0.0137507
803.057	0.0136523
803.135	0.0137598
803.213	0.0137161
803.291	0.0137678
803.369	0.0136339
803.447	0.0135207
803.525	0.0135579
803.603	0.0136469
803.682	0.0137267
803.760	0.0135005
803.838	0.0137955
803.916	0.0137848
803.994	0.0136393
804.072	0.0137065
804.150	0.0139349
804.228	0.0138918
804.307	0.0139572
804.385	0.0140044
804.463	0.0140720
804.541	0.0139678
804.619	0.0139219
804.697	0.0141770
804.775	0.0141793
804.853	0.0140913
804.932	0.0141515
805.010	0.0142937
805.088	0.0143041
805.166	0.0142220
805.244	0.0142501
805.322	0.0142530
805.400	0.0143404
805.478	0.0143210
805.557	0.0141823
805.635	0.0143880
805.713	0.0144308
805.791	0.0143533
805.869	0.0144190
805.947	0.0144332
806.025	0.0143090
806.103	0.0145183
806.182	0.0145499
806.260	0.0146030
806.338	0.0146172
806.416	0.0147146
806.494	0.0146060
806.572	0.0146634
806.650	0.0147431
806.728	0.0146815
806.807	0.0147610
806.885	0.0148006
806.963	0.0148099
807.041	0.0150527
807.119	0.0148934
807.197	0.0149225
807.275	0.0148375
807.353	0.0149924
807.432	0.0148701
807.510	0.0148392
807.588	0.0148113
807.666	0.0148605
807.744	0.0148847
807.822	0.0147663
807.900	0.0147562
807.978	0.0147337
808.057	0.0146175
808.135	0.0145413
808.213	0.0144492
808.291	0.0144907
808.369	0.0145196
808.447	0.0142035
808.525	0.0141779
808.603	0.0141480
808.682	0.0138929
808.760	0.0139227
808.838	0.0140085
808.916	0.0139772
808.994	0.0138242
809.072	0.0138508
809.150	0.0137110
809.228	0.0137745
809.307	0.0138361
809.385	0.0138778
809.463	0.0138025
809.541	0.0137769
809.619	0.0138608
809.697	0.0138366
809.775	0.0139439
809.853	0.0138783
809.932	0.0139528
810.010	0.0138549
810.088	0.0140476
810.166	0.0141023
810.244	0.0142829
810.322	0.0141795
810.400	0.0143095
810.478	0.0143097
810.557	0.0143747
810.635	0.0143968
810.713	0.0144328
810.791	0.0144818
810.869	0.0146249
810.947	0.0146729
811.025	0.0145631
811.103	0.0145548
811.182	0.0145415
811.260	0.0144295
811.338	0.0145881
811.416	0.0144759
811.494	0.0144522
811.572	0.0143327
811.650	0.0143874
811.728	0.0144355
811.807	0.0143436
811.885	0.0142836
811.963	0.0143204
812.041	0.0142303
812.119	0.0142002
812.197	0.0142332
812.275	0.0142503
812.353	0.0143520
812.432	0.0142405
812.510	0.0143355
812.588	0.0143938
812.666	0.0144699
812.744	0.0144160
812.822	0.0144641
812.900	0.0145997
812.978	0.0146346
813.057	0.0146257
813.135	0.0146225
813.213	0.0145429
813.291	0.0145712
813.369	0.0144595
813.447	0.0145345
813.525	0.0145403
813.603	0.0144021
813.682	0.0144518
813.760	0.0143510
813.838	0.0141451
813.916	0.0142271
813.994	0.0142313
814.072	0.0140771
814.150	0.0140363
814.228	0.0140001
814.307	0.0140295
814.385	0.0138932
814.463	0.0138451
814.541	0.0140173
814.619	0.0138571
814.697	0.0137881
814.775	0.0138823
814.853	0.0139104
814.932	0.0139849
815.010	0.0139779
815.088	0.0139286
815.166	0.0140650
815.244	0.0141357
815.322	0.0141125
815.400	0.0143000
815.478	0.0142764
815.557	0.0142974
815.635	0.0143314
815.713	0.0142062
815.791	0.0143627
815.869	0.0144785
815.947	0.0144048
816.025	0.0143208
816.103	0.0143723
816.182	0.0144092
816.260	0.0142902
816.338	0.0141443
816.416	0.0141553
816.494	0.0140168
816.572	0.0140417
816.650	0.0141376
816.728	0.0140904
816.807	0.0139092
816.885	0.0138259
816.963	0.0139117
817.041	0.0139197
817.119	0.0139182
817.197	0.0139658
817.275	0.0140568
817.353	0.0142004
817.432	0.0141679
817.510	0.0141344
817.588	0.0142262
817.666	0.0143267
817.744	0.0144910
817.822	0.0143801
817.900	0.0143650
817.978	0.0143256
818.057	0.0144223
818.135	0.0143222
818.213	0.0143437
818.291	0.0144196
818.369	0.0144320
818.447	0.0145389
818.525	0.0145419
818.603	0.0145245
818.682	0.0143031
818.760	0.0144037
818.838	0.0142647
818.916	0.0143736
818.994	0.0144701
819.072	0.0143920
819.150	0.0144053
819.228	0.0145876
819.307	0.0144639
819.385	0.0144775
819.463	0.0143751
819.541	0.0143502
819.619	0.0143232
819.697	0.0144480
819.775	0.0144696
819.853	0.0143487
819.932	0.0142361
820.010	0.0142720
820.088	0.0143238
820.166	0.0141624
820.244	0.0139793
820.322	0.0141131
820.400	0.0141174
820.478	0.0140117
820.557	0.0139704
820.635	0.0138786
820.713	0.0139001
820.791	0.0139012
820.869	0.0140312
820.947	0.0140070
821.025	0.0138631
821.103	0.0139204
821.182	0.0139159
821.260	0.0140642
821.338	0.0141181
821.416	0.0141617
821.494	0.0140840
821.572	0.0142028
821.650	0.0142121
821.728	0.0143040
821.807	0.0141160
821.885	0.0142085
821.963	0.0143333
822.041	0.0142821
822.119	0.0142660
822.197	0.0142753
822.275	0.0142561
822.353	0.0141610
822.432	0.0142074
822.510	0.0141372
822.588	0.0141291
822.666	0.0143563
822.744	0.0144267
822.822	0.0142414
822.900	0.0143340
822.978	0.0144510
823.057	0.0143896
823.135	0.0143651
823.213	0.0143813
823.291	0.0144189
823.369	0.0143359
823.447	0.0144447
823.525	0.0145423
823.603	0.0145905
823.682	0.0144055
823.760	0.0144078
823.838	0.0144748
823.916	0.0143251
823.994	0.0144300
824.072	0.0143085
824.150	0.0142509
824.228	0.0143522
824.307	0.0142001
824.385	0.0142838
824.463	0.0142691
824.541	0.0141657
824.619	0.0140922
824.697	0.0140759
824.775	0.0141261
824.853	0.0140695
824.932	0.0141235
825.010	0.0141436
825.088	0.0141867
825.166	0.0142881
825.244	0.0142058
825.322	0.0141753
825.400	0.0143308
825.478	0.0144276
825.557	0.0144389
825.635	0.0145076
825.713	0.0144277
825.791	0.0146047
825.869	0.0147388
825.947	0.0146436
826.025	0.0146069
826.103	0.0147002
826.182	0.0146175
826.260	0.0148132
826.338	0.0146739
826.416	0.0146167
826.494	0.0146518
826.572	0.0144812
826.650	0.0144379
826.728	0.0146090
826.807	0.0144887
826.885	0.0143060
826.963	0.0143846
827.041	0.0143482
827.119	0.0142961
827.197	0.0141463
827.275	0.0141458
827.353	0.0140147
827.432	0.0140488
827.510	0.0140103
827.588	0.0140147
827.666	0.0140677
827.744	0.0141414
827.822	0.0138839
827.900	0.0140052
827.978	0.0140365
828.057	0.0140780
828.135	0.0140847
828.213	0.0141863
828.291	0.0142891
828.369	0.0144691
828.447	0.0144009
828.525	0.0143613
828.603	0.0144221
828.682	0.0145973
828.760	0.0145358
828.838	0.0144569
828.916	0.0145191
828.994	0.0145676
829.072	0.0145067
829.150	0.0144198
829.228	0.0144653
829.307	0.0145071
829.385	0.0142901
829.463	0.0143813
829.541	0.0142912
829.619	0.0142513
829.697	0.0141319
829.775	0.0141356
829.853	0.0141621
829.932	0.0141375
830.010	0.0140953
830.088	0.0140226
830.166	0.0141948
830.244	0.0142860
830.322	0.0141498
830.400	0.0142841
830.478	0.0143799
830.557	0.0145268
830.635	0.0144900
830.713	0.0145415
830.791	0.0146778
830.869	0.0147463
830.947	0.0147552
831.025	0.0148634
831.103	0.0150156
831.182	0.0148872
831.260	0.0150914
831.338	0.0148966
831.416	0.0149471
831.494	0.0149177
831.572	0.0148869
831.650	0.0148917
831.728	0.0149217
831.807	0.0148603
831.885	0.0147318
831.963	0.0146461
832.041	0.0146866
832.119	0.0146732
832.197	0.0147050
832.275	0.0145373
832.353	0.0144231
832.432	0.0144650
832.510	0.0143802
832.588	0.0141466
832.666	0.0142917
832.744	0.0142847
832.822	0.0141267
832.900	0.0140966
832.978	0.0142278
833.057	0.0140057
833.135	0.0137677
833.213	0.0139825
833.291	0.0138140
833.369	0.0139130
833.447	0.0137325
833.525	0.0137542
833.603	0.0138492
833.682	0.0136649
833.760	0.0136552
833.838	0.0136145
833.916	0.0136846
833.994	0.0136426
834.072	0.0136174
834.150	0.0135431
834.228	0.0138337
834.307	0.0136390
834.385	0.0138595
834.463	0.0139040
834.541	0.0138069
834.619	0.0137712
834.697	0.0138627
834.775	0.0138853
834.853	0.0138861
834.932	0.0141424
835.010	0.0140683
835.088	0.0141308
835.166	0.0142574
835.244	0.0142075
835.322	0.0142132
835.400	0.0144162
835.478	0.0144424
835.557	0.0143602
835.635	0.0144550
835.713	0.0144020
835.791	0.0143573
835.869	0.0143714
835.947	0.0142659
836.025	0.0143054
836.103	0.0142511
836.182	0.0141476
836.260	0.0141183
836.338	0.0140373
836.416	0.0138636
836.494	0.0138993
836.572	0.0140231
836.650	0.0139280
836.728	0.0138936
836.807	0.0137634
836.885	0.0137913
836.963	0.0139624
837.041	0.0139713
837.119	0.0138779
837.197	0.0139806
837.275	0.0139646
837.353	0.0141045
837.432	0.0141282
837.510	0.0140564
837.588	0.0140491
837.666	0.0141142
837.744	0.0141195
837.822	0.0142015
837.900	0.0143920
837.978	0.0144044
838.057	0.0143335
838.135	0.0144192
838.213	0.0144750
838.291	0.0144571
838.369	0.0145222
838.447	0.0145506
838.525	0.0145746
838.603	0.0145531
838.682	0.0144539
838.760	0.0145731
838.838	0.0144005
838.916	0.0144899
838.994	0.0145592
839.072	0.0144897
839.150	0.0143645
839.228	0.0142503
839.307	0.0141653
839.385	0.0142542
839.463	0.0142876
839.541	0.0141756
839.619	0.0142867
839.697	0.0142281
839.775	0.0140324
839.853	0.0140240
839.932	0.0140192
840.010	0.0141166
840.088	0.0141843
840.166	0.0140787
840.244	0.0140642
840.322	0.0139609
840.400	0.0141521
840.478	0.0140399
840.557	0.0141652
840.635	0.0142666
840.713	0.0141751
840.791	0.0140683
840.869	0.0142199
840.947	0.0141954
841.025	0.0141987
841.103	0.0141532
841.182	0.0141985
841.260	0.0141599
841.338	0.0141032
841.416	0.0141213
841.494	0.0142261
841.572	0.0143303
841.650	0.0142857
841.728	0.0142432
841.807	0.0141290
841.885	0.0141206
841.963	0.0141704
842.041	0.0141286
842.119	0.0142179
842.197	0.0140993
842.275	0.0142735
842.353	0.0141302
842.432	0.0140487
842.510	0.0139957
842.588	0.0139510
842.666	0.0139648
842.744	0.0141505
842.822	0.0140014
842.900	0.0140971
842.978	0.0142588
843.057	0.0142271
843.135	0.0143262
843.213	0.0143552
843.291	0.0143596
843.369	0.0145316
843.447	0.0146346
843.525	0.0146587
843.603	0.0148911
843.682	0.0148129
843.760	0.0148410
843.838	0.0148806
843.916	0.0147943
843.994	0.0150272
844.072	0.0147975
844.150	0.0148719
844.228	0.0149979
844.307	0.0148446
844.385	0.0147759
844.463	0.0145889
844.541	0.0145245
844.619	0.0144289
844.697	0.0145063
844.775	0.0143943
844.853	0.0144730
844.932	0.0142735
845.010	0.0143677
845.088	0.0142504
845.166	0.0142220
845.244	0.0141194
845.322	0.0141920
845.400	0.0140714
845.478	0.0140320
845.557	0.0140843
845.635	0.0142062
845.713	0.0140781
845.791	0.0140554
845.869	0.0138828
845.947	0.0139805
846.025	0.0137956
846.103	0.0139415
846.182	0.0138033
846.260	0.0138609
846.338	0.0138953
846.416	0.0139171
846.494	0.0140692
846.572	0.0139704
846.650	0.0141814
846.728	0.0140276
846.807	0.0141478
846.885	0.0142001
846.963	0.0142770
847.041	0.0143123
847.119	0.0143005
847.197	0.0144999
847.275	0.0145667
847.353	0.0145864
847.432	0.0146808
847.510	0.0146965
847.588	0.0147194
847.666	0.0146429
847.744	0.0147438
847.822	0.0147124
847.900	0.0146122
847.978	0.0146263
848.057	0.0146354
848.135	0.0145915
848.213	0.0144626
848.291	0.0144312
848.369	0.0144245
848.447	0.0143493
848.525	0.0143356
848.603	0.0143679
848.682	0.0143089
848.760	0.0144750
848.838	0.0143625
848.916	0.0143818
848.994	0.0142897
849.072	0.0143031
849.150	0.0141850
849.228	0.0141962
849.307	0.0141196
849.385	0.0141027
849.463	0.0141029
849.541	0.0139455
849.619	0.0139772
849.697	0.0139570
849.775	0.0139220
849.853	0.0140297
849.932	0.0141173
850.010	0.0141331
850.088	0.0141118
850.166	0.0140185
850.244	0.0141524
850.322	0.0142382
850.400	0.0142899
850.478	0.0142662
850.557	0.0144741
850.635	0.0143402
850.713	0.0145507
850.791	0.0145395
850.869	0.0144745
850.947	0.0145245
851.025	0.0147020
851.103	0.0144618
851.182	0.0145309
851.260	0.0145152
851.338	0.0144315
851.416	0.0143444
851.494	0.0145592
851.572	0.0145673
851.650	0.0145031
851.728	0.0145074
851.807	0.0145130
851.885	0.0142995
851.963	0.0144718
852.041	0.0145596
852.119	0.0142977
852.197	0.0143196
852.275	0.0143906
852.353	0.0142638
852.432	0.0142317
852.510	0.0141703
852.588	0.0141722
852.666	0.0140778
852.744	0.0141287
852.822	0.0141381
852.900	0.0142287
852.978	0.0140666
853.057	0.0140723
853.135	0.0140589
853.213	0.0141763
853.291	0.0140911
853.369	0.0140764
853.447	0.0141055
853.525	0.0141959
853.603	0.0140776
853.682	0.0141428
853.760	0.0140939
853.838	0.0141763
853.916	0.0141490
853.994	0.0141668
854.072	0.0142805
854.150	0.0141360
854.228	0.0140318
854.307	0.0141565
854.385	0.0140966
854.463	0.0140750
854.541	0.0140620
854.619	0.0140026
854.697	0.0141648
854.775	0.0141808
854.853	0.0144174
854.932	0.0142399
855.010	0.0142381
855.088	0.0141775
855.166	0.0143372
855.244	0.0143386
855.322	0.0143562
855.400	0.0142416
855.478	0.0141177
855.557	0.0142507
855.635	0.0141737
855.713	0.0142950
855.791	0.0142245
855.869	0.0142739
855.947	0.0141258
856.025	0.0141465
856.103	0.0141415
856.182	0.0141290
856.260	0.0140950
856.338	0.0141221
856.416	0.0142072
856.494	0.0141478
856.572	0.0141151
856.650	0.0141069
856.728	0.0140170
856.807	0.0139951
856.885	0.0140961
856.963	0.0140144
857.041	0.0140850
857.119	0.0140668
857.197	0.0139614
857.275	0.0140565
857.353	0.0140240
857.432	0.0139099
857.510	0.0141091
857.588	0.0141018
857.666	0.0140223
857.744	0.0141062
857.822	0.0140054
857.900	0.0140427
857.978	0.0140474
858.057	0.0141837
858.135	0.0141608
858.213	0.0142255
858.291	0.0142202
858.369	0.0142390
858.447	0.0140561
858.525	0.0140805
858.603	0.0142635
858.682	0.0142028
858.760	0.0142454
858.838	0.0142864
858.916	0.0143681
858.994	0.0143798
859.072	0.0143180
859.150	0.0143942
859.228	0.0143156
859.307	0.0145762
859.385	0.0147308
859.463	0.0145779
859.541	0.0146450
859.619	0.0146333
859.697	0.0146837
859.775	0.0147064
859.853	0.0148668
859.932	0.0148254
860.010	0.0146337
860.088	0.0147007
860.166	0.0146888
860.244	0.0147675
860.322	0.0146877
860.400	0.0146012
860.478	0.0147651
860.557	0.0146827
860.635	0.0145552
860.713	0.0144183
860.791	0.0142667
860.869	0.0143193
860.947	0.0142743
861.025	0.0141267
861.103	0.0140951
861.182	0.0140486
861.260	0.0139530
861.338	0.0138412
861.416	0.0137931
861.494	0.0138789
861.572	0.0137959
861.650	0.0138078
861.728	0.0137383
861.807	0.0137212
861.885	0.0136043
861.963	0.0137025
862.041	0.0137889
862.119	0.0137135
862.197	0.0137631
862.275	0.0137307
862.353	0.0139594
862.432	0.0137787
862.510	0.0140724
862.588	0.0141158
862.666	0.0141483
862.744	0.0141498
862.822	0.0141748
862.900	0.0143755
862.978	0.0140883
863.057	0.0142949
863.135	0.0143471
863.213	0.0144500
863.291	0.0144221
863.369	0.0144234
863.447	0.0144901
863.525	0.0144355
863.603	0.0145992
863.682	0.0144658
863.760	0.0144115
863.838	0.0144212
863.916	0.0145364
863.994	0.0146674
864.072	0.0146135
864.150	0.0143990
864.228	0.0144438
864.307	0.0145435
864.385	0.0144841
864.463	0.0144256
864.541	0.0142580
864.619	0.0143974
864.697	0.0143860
864.775	0.0144194
864.853	0.0143212
864.932	0.0143228
865.010	0.0143796
865.088	0.0142216
865.166	0.0142288
865.244	0.0143340
865.322	0.0142777
865.400	0.0143433
865.478	0.0142575
865.557	0.0143369
865.635	0.0143192
865.713	0.0144263
865.791	0.0144246
865.869	0.0142529
865.947	0.0144275
866.025	0.0143583
866.103	0.0142892
866.182	0.0143514
866.260	0.0144443
866.338	0.0143117
866.416	0.0144350
866.494	0.0143245
866.572	0.0142687
866.650	0.0142677
866.728	0.0143678
866.807	0.0142856
866.885	0.0142897
866.963	0.0143107
867.041	0.0143125
867.119	0.0143376
867.197	0.0141547
867.275	0.0142807
867.353	0.0143485
867.432	0.0142683
867.510	0.0141571
867.588	0.0142407
867.666	0.0141771
867.744	0.0141655
867.822	0.0142823
867.900	0.0142059
867.978	0.0141787
868.057	0.0142889
868.135	0.0142989
868.213	0.0143668
868.291	0.0141619
868.369	0.0142167
868.447	0.0143006
868.525	0.0142017
868.603	0.0142856
868.682	0.0142847
868.760	0.0144652
868.838	0.0142426
868.916	0.0143220
868.994	0.0143759
869.072	0.0143798
869.150	0.0143558
869.228	0.0143185
869.307	0.0142961
869.385	0.0142656
869.463	0.0144128
869.541	0.0143328
869.619	0.0144575
869.697	0.0142242
869.775	0.0143330
869.853	0.0145112
869.932	0.0144213
870.010	0.0142162
870.088	0.0143007
870.166	0.0143254
870.244	0.0143812
870.322	0.0141985
870.400	0.0142636
870.478	0.0144076
870.557	0.0142899
870.635	0.0143583
870.713	0.0143234
870.791	0.0142532
870.869	0.0143348
870.947	0.0143520
871.025	0.0143291
871.103	0.0143269
871.182	0.0143298
871.260	0.0144119
871.338	0.0143760
871.416	0.0144737
871.494	0.0144412
871.572	0.0146405
871.650	0.0145422
871.728	0.0144610
871.807	0.0145045
871.885	0.0146015
871.963	0.0146504
872.041	0.0146931
872.119	0.0145681
872.197	0.0145331
872.275	0.0144564
872.353	0.0144958
872.432	0.0144949
872.510	0.0143903
872.588	0.0143653
872.666	0.0144640
872.744	0.0144274
872.822	0.0143594
872.900	0.0143062
872.978	0.0143764
873.057	0.0141341
873.135	0.0141928
873.213	0.0141179
873.291	0.0141582
873.369	0.0140730
873.447	0.0140515
873.525	0.0140884
873.603	0.0140818
873.682	0.0140258
873.760	0.0141139
873.838	0.0142382
873.916	0.0143336
873.994	0.0142709
874.072	0.0142369
874.150	0.0142190
874.228	0.0142215
874.307	0.0144241
874.385	0.0145030
874.463	0.0145361
874.541	0.0143816
874.619	0.0144813
874.697	0.0145662
874.775	0.0147757
874.853	0.0147099
874.932	0.0146262
875.010	0.0145184
875.088	0.0147367
875.166	0.0148046
875.244	0.0146862
875.322	0.0147392
875.400	0.0147720
875.478	0.0147186
875.557	0.0145673
875.635	0.0145936
875.713	0.0147001
875.791	0.0146755
875.869	0.0144343
875.947	0.0145314
876.025	0.0143544
876.103	0.0141821
876.182	0.0143472
876.260	0.0142146
876.338	0.0140106
876.416	0.0141967
876.494	0.0142422
876.572	0.0142191
876.650	0.0142979
876.728	0.0141198
876.807	0.0140952
876.885	0.0142038
876.963	0.0141812
877.041	0.0140857
877.119	0.0142184
877.197	0.0140603
877.275	0.0142049
877.353	0.0141416
877.432	0.0140295
877.510	0.0139894
877.588	0.0141711
877.666	0.0140871
877.744	0.0139597
877.822	0.0139601
877.900	0.0140823
877.978	0.0141433
878.057	0.0141868
878.135	0.0141574
878.213	0.0140813
878.291	0.0141373
878.369	0.0139610
878.447	0.0141622
878.525	0.0142000
878.603	0.0140999
878.682	0.0141603
878.760	0.0141450
878.838	0.0142798
878.916	0.0141119
878.994	0.0140801
879.072	0.0141212
879.150	0.0140503
879.228	0.0141103
879.307	0.0140453
879.385	0.0141108
879.463	0.0139864
879.541	0.0141627
879.619	0.0139610
879.697	0.0142063
879.775	0.0139900
879.853	0.0140411
879.932	0.0141875
880.010	0.0140659
880.088	0.0141817
880.166	0.0141504
880.244	0.0142956
880.322	0.0143437
880.400	0.0142512
880.478	0.0142657
880.557	0.0143610
880.635	0.0142508
880.713	0.0143806
880.791	0.0142992
880.869	0.0143272
880.947	0.0142236
881.025	0.0142926
881.103	0.0143603
881.182	0.0141432
881.260	0.0140988
881.338	0.0140714
881.416	0.0140247
881.494	0.0141534
881.572	0.0142182
881.650	0.0142084
881.728	0.0142213
881.807	0.0143041
881.885	0.0141792
881.963	0.0141897
882.041	0.0143559
882.119	0.0141995
882.197	0.0141911
882.275	0.0142744
882.353	0.0142941
882.432	0.0141927
882.510	0.0141772
882.588	0.0141745
882.666	0.0141212
882.744	0.0142639
882.822	0.0141289
882.900	0.0141731
882.978	0.0141318
883.057	0.0141729
883.135	0.0139903
883.213	0.0141793
883.291	0.0140945
883.369	0.0141496
883.447	0.0141469
883.525	0.0142139
883.603	0.0141626
883.682	0.0140925
883.760	0.0141631
883.838	0.0140052
883.916	0.0140395
883.994	0.0140365
884.072	0.0141936
884.150	0.0142284
884.228	0.0141641
884.307	0.0142471
884.385	0.0143573
884.463	0.0144416
884.541	0.0144012
884.619	0.0144836
884.697	0.0146166
884.775	0.0146525
884.853	0.0147194
884.932	0.0147220
885.010	0.0148499
885.088	0.0148072
885.166	0.0147660
885.244	0.0148459
885.322	0.0147890
885.400	0.0147427
885.478	0.0147463
885.557	0.0147084
885.635	0.0146350
885.713	0.0146992
885.791	0.0145115
885.869	0.0145603
885.947	0.0145352
886.025	0.0144827
886.103	0.0144306
886.182	0.0145341
886.260	0.0143722
886.338	0.0143929
886.416	0.0143504
886.494	0.0143847
886.572	0.0142326
886.650	0.0142313
886.728	0.0142390
886.807	0.0142599
886.885	0.0142395
886.963	0.0140337
887.041	0.0141335
887.119	0.0142587
887.197	0.0143184
887.275	0.0141880
887.353	0.0141759
887.432	0.0141211
887.510	0.0142562
887.588	0.0142387
887.666	0.0141143
887.744	0.0141750
887.822	0.0142960
887.900	0.0143584
887.978	0.0141524
888.057	0.0142485
888.135	0.0142908
888.213	0.0143043
888.291	0.0144778
888.369	0.0144389
888.447	0.0143336
888.525	0.0144612
888.603	0.0142550
888.682	0.0143533
888.760	0.0143935
888.838	0.0142609
888.916	0.0143324
888.994	0.0141812
889.072	0.0142273
889.150	0.0141593
889.228	0.0143270
889.307	0.0141882
889.385	0.0140173
889.463	0.0140853
889.541	0.0141707
889.619	0.0142999
889.697	0.0141833
889.775	0.0139327
889.853	0.0141929
889.932	0.0142904
890.010	0.0141579
890.088	0.0141510
890.166	0.0142023
890.244	0.0143754
890.322	0.0143100
890.400	0.0142909
890.478	0.0144101
890.557	0.0143476
890.635	0.0145264
890.713	0.0144450
890.791	0.0145708
890.869	0.0145030
890.947	0.0145985
891.025	0.0145586
891.103	0.0146953
891.182	0.0144743
891.260	0.0144352
891.338	0.0146394
891.416	0.0146478
891.494	0.0145255
891.572	0.0145545
891.650	0.0145158
891.728	0.0144507
891.807	0.0143761
891.885	0.0143488
891.963	0.0144599
892.041	0.0142860
892.119	0.0143349
892.197	0.0143749
892.275	0.0141644
892.353	0.0143185
892.432	0.0142803
892.510	0.0142178
892.588	0.0141340
892.666	0.0141136
892.744	0.0141209
892.822	0.0142053
892.900	0.0140259
892.978	0.0141190
893.057	0.0140662
893.135	0.0140411
893.213	0.0141403
893.291	0.0139584
893.369	0.0140909
893.447	0.0142262
893.525	0.0139764
893.603	0.0141264
893.682	0.0143223
893.760	0.0142947
893.838	0.0143006
893.916	0.0141918
893.994	0.0142405
894.072	0.0142452
894.150	0.0142834
894.228	0.0142291
894.307	0.0142009
894.385	0.0141681
894.463	0.0141921
894.541	0.0142065
894.619	0.0142303
894.697	0.0141029
894.775	0.0140322
894.853	0.0140570
894.932	0.0142003
895.010	0.0141563
895.088	0.0140867
895.166	0.0140664
895.244	0.0140390
895.322	0.0139756
895.400	0.0141026
895.478	0.0140304
895.557	0.0141541
895.635	0.0141504
895.713	0.0142037
895.791	0.0142643
895.869	0.0142046
895.947	0.0143131
896.025	0.0142675
896.103	0.0142211
896.182	0.0143054
896.260	0.0141617
896.338	0.0143027
896.416	0.0142757
896.494	0.0142095
896.572	0.0142973
896.650	0.0144598
896.728	0.0143944
896.807	0.0143707
896.885	0.0142491
896.963	0.0141662
897.041	0.0141629
897.119	0.0142604
897.197	0.0142406
897.275	0.0142158
897.353	0.0141132
897.432	0.0141582
897.510	0.0140797
897.588	0.0141497
897.666	0.0142348
897.744	0.0139706
897.822	0.0140141
897.900	0.0140057
897.978	0.0141109
898.057	0.0141634
898.135	0.0141468
898.213	0.0141955
898.291	0.0140240
898.369	0.0141203
898.447	0.0141899
898.525	0.0140477
898.603	0.0141082
898.682	0.0141223
898.760	0.0141173
898.838	0.0141434
898.916	0.0140533
898.994	0.0141142
899.072	0.0140955
899.150	0.0141208
899.228	0.0140441
899.307	0.0141456
899.385	0.0140730
899.463	0.0140721
899.541	0.0141818
899.619	0.0141776
899.697	0.0141355
899.775	0.0140239
899.853	0.0140981
899.932	0.0140696
900.010	0.0141297
900.088	0.0140814
900.166	0.0142078
900.244	0.0140729
900.322	0.0142370
900.400	0.0141048
900.478	0.0142904
900.557	0.0143053
900.635	0.0143230
900.713	0.0142690
900.791	0.0142392
900.869	0.0141998
900.947	0.0144342
901.025	0.0143629
901.103	0.0144292
901.182	0.0145856
901.260	0.0143113
901.338	0.0144206
901.416	0.0144537
901.494	0.0144426
901.572	0.0145586
901.650	0.0145180
901.728	0.0145406
901.807	0.0146452
901.885	0.0145157
901.963	0.0143905
902.041	0.0145914
902.119	0.0144833
902.197	0.0144593
902.275	0.0145199
902.353	0.0142915
902.432	0.0143530
902.510	0.0142952
902.588	0.0142387
902.666	0.0143621
902.744	0.0143616
902.822	0.0142222
902.900	0.0142606
902.978	0.0142556
903.057	0.0142271
903.135	0.0141852
903.213	0.0140932
903.291	0.0141405
903.369	0.0141162
903.447	0.0140947
903.525	0.0140640
903.603	0.0141058
903.682	0.0142233
903.760	0.0141354
903.838	0.0141795
903.916	0.0141763
903.994	0.0143023
904.072	0.0142842
904.150	0.0141709
904.228	0.0142791
904.307	0.0144074
904.385	0.0143067
904.463	0.0143228
904.541	0.0143007
904.619	0.0142866
904.697	0.0142104
904.775	0.0142111
904.853	0.0142792
904.932	0.0141365
905.010	0.0140416
905.088	0.0142355
905.166	0.0142603
905.244	0.0142317
905.322	0.0141266
905.400	0.0142040
905.478	0.0142853
905.557	0.0143417
905.635	0.0141599
905.713	0.0142336
905.791	0.0143170
905.869	0.0142596
905.947	0.0142801
906.025	0.0142590
906.103	0.0143035
906.182	0.0144003
906.260	0.0142699
906.338	0.0142224
906.416	0.0143094
906.494	0.0141130
906.572	0.0141672
906.650	0.0142793
906.728	0.0142189
906.807	0.0142837
906.885	0.0141368
906.963	0.0142527
907.041	0.0141312
907.119	0.0141329
907.197	0.0143195
907.275	0.0142310
907.353	0.0141507
907.432	0.0142377
907.510	0.0142205
907.588	0.0141748
907.666	0.0141004
907.744	0.0140518
907.822	0.0140675
907.900	0.0141374
907.978	0.0139974
908.057	0.0140508
908.135	0.0140050
908.213	0.0138052
908.291	0.0139159
908.369	0.0140077
908.447	0.0139877
908.525	0.0139497
908.603	0.0140063
908.682	0.0139884
908.760	0.0140316
908.838	0.0140238
908.916	0.0140442
908.994	0.0141138
909.072	0.0139513
909.150	0.0140074
909.228	0.0141114
909.307	0.0142670
909.385	0.0141515
909.463	0.0143091
909.541	0.0141833
909.619	0.0140768
909.697	0.0142171
909.775	0.0140997
909.853	0.0142222
909.932	0.0142876
910.010	0.0141476
910.088	0.0141824
910.166	0.0142224
910.244	0.0143609
910.322	0.0141352
910.400	0.0141499
910.478	0.0142223
910.557	0.0141328
910.635	0.0142412
910.713	0.0141792
910.791	0.0142498
910.869	0.0142428
910.947	0.0142332
911.025	0.0141573
911.103	0.0141248
911.182	0.0141163
911.260	0.0139691
911.338	0.0140804
911.416	0.0141157
911.494	0.0139860
911.572	0.0140070
911.650	0.0140066
911.728	0.0138985
911.807	0.0140912
911.885	0.0139339
911.963	0.0139948
912.041	0.0140479
912.119	0.0140117
912.197	0.0139858
912.275	0.0139339
912.353	0.0141063
912.432	0.0141087
912.510	0.0141005
912.588	0.0142329
912.666	0.0141482
912.744	0.0142999
912.822	0.0141101
912.900	0.0140630
912.978	0.0140585
913.057	0.0141926
913.135	0.0141915
913.213	0.0142168
913.291	0.0141710
913.369	0.0142763
913.447	0.0141969
913.525	0.0142479
913.603	0.0142477
913.682	0.0141829
913.760	0.0142821
913.838	0.0142137
913.916	0.0141925
913.994	0.0142849
914.072	0.0142800
914.150	0.0143105
914.228	0.0142081
914.307	0.0142133
914.385	0.0142201
914.463	0.0142963
914.541	0.0142602
914.619	0.0143172
914.697	0.0143164
914.775	0.0140761
914.853	0.0141677
914.932	0.0142426
915.010	0.0141181
915.088	0.0140482
915.166	0.0141715
915.244	0.0141384
915.322	0.0141822
915.400	0.0140969
915.478	0.0141818
915.557	0.0140359
915.635	0.0140193
915.713	0.0140505
915.791	0.0141006
915.869	0.0140647
915.947	0.0141931
916.025	0.0141145
916.103	0.0140659
916.182	0.0139953
916.260	0.0140601
916.338	0.0140534
916.416	0.0141048
916.494	0.0139618
916.572	0.0139339
916.650	0.0139365
916.728	0.0139896
916.807	0.0139508
916.885	0.0139541
916.963	0.0139059
917.041	0.0138834
917.119	0.0139771
917.197	0.0140347
917.275	0.0140854
917.353	0.0138795
917.432	0.0140010
917.510	0.0141001
917.588	0.0139308
917.666	0.0139561
917.744	0.0140153
917.822	0.0140613
917.900	0.0139643
917.978	0.0140314
918.057	0.0141382
918.135	0.0140305
918.213	0.0140765
918.291	0.0141887
918.369	0.0142396
918.447	0.0143768
918.525	0.0141879
918.603	0.0142421
918.682	0.0143089
918.760	0.0144074
918.838	0.0144486
918.916	0.0144775
918.994	0.0144873
919.072	0.0144399
919.150	0.0145624
919.228	0.0145864
919.307	0.0145601
919.385	0.0143594
919.463	0.0144723
919.541	0.0144765
919.619	0.0145204
919.697	0.0144002
919.775	0.0143777
919.853	0.0143227
919.932	0.0144495
920.010	0.0143803
920.088	0.0143316
920.166	0.0142789
920.244	0.0142085
920.322	0.0141586
920.400	0.0141668
920.478	0.0140891
920.557	0.0140580
920.635	0.0141008
920.713	0.0141186
920.791	0.0140859
920.869	0.0141031
920.947	0.0140780
921.025	0.0140759
921.103	0.0139404
921.182	0.0141405
921.260	0.0140515
921.338	0.0141219
921.416	0.0143005
921.494	0.0141538
921.572	0.0141788
921.650	0.0141778
921.728	0.0143035
921.807	0.0143313
921.885	0.0143162
921.963	0.0142298
922.041	0.0143369
922.119	0.0144321
922.197	0.0144580
922.275	0.0143912
922.353	0.0143069
922.432	0.0144439
922.510	0.0145208
922.588	0.0145357
922.666	0.0144019
922.744	0.0144507
922.822	0.0144899
922.900	0.0147085
922.978	0.0144823
923.057	0.0145500
923.135	0.0144002
923.213	0.0144844
923.291	0.0145937
923.369	0.0143391
923.447	0.0144030
923.525	0.0144470
923.603	0.0143330
923.682	0.0143838
923.760	0.0142766
923.838	0.0143713
923.916	0.0144466
923.994	0.0142303
924.072	0.0143339
924.150	0.0142307
924.228	0.0141183
924.307	0.0140639
924.385	0.0139951
924.463	0.0140729
924.541	0.0140067
924.619	0.0139520
924.697	0.0140178
924.775	0.0139738
924.853	0.0140160
924.932	0.0140134
925.010	0.0138863
925.088	0.0140931
925.166	0.0140813
925.244	0.0139110
925.322	0.0139816
925.400	0.0140921
925.478	0.0139886
925.557	0.0139241
925.635	0.0139726
925.713	0.0138725
925.791	0.0138306
925.869	0.0139535
925.947	0.0140128
926.025	0.0138984
926.103	0.0140130
926.182	0.0140970
926.260	0.0139670
926.338	0.0139716
926.416	0.0141414
926.494	0.0140137
926.572	0.0139923
926.650	0.0140018
926.728	0.0141341
926.807	0.0141487
926.885	0.0140723
926.963	0.0141688
927.041	0.0141186
927.119	0.0141618
927.197	0.0142161
927.275	0.0142822
927.353	0.0142705
927.432	0.0143207
927.510	0.0143618
927.588	0.0143755
927.666	0.0144971
927.744	0.0144789
927.822	0.0143761
927.900	0.0144389
927.978	0.0143343
928.057	0.0143600
928.135	0.0145013
928.213	0.0145084
928.291	0.0145220
928.369	0.0144276
928.447	0.0144668
928.525	0.0144251
928.603	0.0144130
928.682	0.0142759
928.760	0.0142401
928.838	0.0142293
928.916	0.0143690
928.994	0.0141365
929.072	0.0141167
929.150	0.0142339
929.228	0.0142491
929.307	0.0142792
929.385	0.0141401
929.463	0.0141238
929.541	0.0140205
929.619	0.0141001
929.697	0.0140655
929.775	0.0139551
929.853	0.0141146
929.932	0.0143289
930.010	0.0142257
930.088	0.0141435
930.166	0.0141014
930.244	0.0141159
930.322	0.0140409
930.400	0.0141700
930.478	0.0141260
930.557	0.0141432
930.635	0.0143324
930.713	0.0142151
930.791	0.0142548
930.869	0.0140942
930.947	0.0142733
931.025	0.0142132
931.103	0.0143130
931.182	0.0142248
931.260	0.0143594
931.338	0.0141979
931.416	0.0142172
931.494	0.0142963
931.572	0.0143480
931.650	0.0143203
931.728	0.0143445
931.807	0.0142965
931.885	0.0143105
931.963	0.0141539
932.041	0.0142966
932.119	0.0142798
932.197	0.0142306
932.275	0.0143105
932.353	0.0142936
932.432	0.0142675
932.510	0.0141637
932.588	0.0142109
932.666	0.0142505
932.744	0.0142908
932.822	0.0143300
932.900	0.0142789
932.978	0.0142036
933.057	0.0142643
933.135	0.0141590
933.213	0.0141776
933.291	0.0142957
933.369	0.0144035
933.447	0.0141637
933.525	0.0143160
933.603	0.0143921
933.682	0.0143050
933.760	0.0144010
933.838	0.0143423
933.916	0.0142018
933.994	0.0144072
934.072	0.0143034
934.150	0.0144021
934.228	0.0143936
934.307	0.0144011
934.385	0.0143631
934.463	0.0145210
934.541	0.0143565
934.619	0.0145695
934.697	0.0144068
934.775	0.0144937
934.853	0.0144080
934.932	0.0145578
935.010	0.0145045
935.088	0.0144950
935.166	0.0145212
935.244	0.0144274
935.322	0.0143350
935.400	0.0144590
935.478	0.0143901
935.557	0.0142344
935.635	0.0145062
935.713	0.0143583
935.791	0.0143149
935.869	0.0142903
935.947	0.0144338
936.025	0.0141734
936.103	0.0141732
936.182	0.0141453
936.260	0.0142165
936.338	0.0142084
936.416	0.0141798
936.494	0.0140395
936.572	0.0139512
936.650	0.0141376
936.728	0.0140436
936.807	0.0139907
936.885	0.0141418
936.963	0.0141197
937.041	0.0140630
937.119	0.0140013
937.197	0.0139455
937.275	0.0139675
937.353	0.0139760
937.432	0.0139896
937.510	0.0140099
937.588	0.0140676
937.666	0.0140260
937.744	0.0140250
937.822	0.0141494
937.900	0.0142094
937.978	0.0141087
938.057	0.0141557
938.135	0.0142265
938.213	0.0141951
938.291	0.0141634
938.369	0.0141573
938.447	0.0142009
938.525	0.0141037
938.603	0.0141410
938.682	0.0142214
938.760	0.0141079
938.838	0.0140876
938.916	0.0140110
938.994	0.0142487
939.072	0.0139902
939.150	0.0140976
939.228	0.0141589
939.307	0.0141934
939.385	0.0140830
939.463	0.0141670
939.541	0.0141026
939.619	0.0142944
939.697	0.0141649
939.775	0.0140704
939.853	0.0141021
939.932	0.0141689
940.010	0.0140594
940.088	0.0141714
940.166	0.0141550
940.244	0.0141063
940.322	0.0141912
940.400	0.0141591
940.478	0.0141473
940.557	0.0142056
940.635	0.0142274
940.713	0.0142637
940.791	0.0142992
940.869	0.0141676
940.947	0.0142386
941.025	0.0142385
941.103	0.0141772
941.182	0.0141696
941.260	0.0142890
941.338	0.0143410
941.416	0.0141738
941.494	0.0142809
941.572	0.0142017
941.650	0.0142015
941.728	0.0142323
941.807	0.0142425
941.885	0.0141943
941.963	0.0141886
942.041	0.0141680
942.119	0.0141381
942.197	0.0143205
942.275	0.0142722
942.353	0.0141602
942.432	0.0142349
942.510	0.0143553
942.588	0.0143215
942.666	0.0144509
942.744	0.0143683
942.822	0.0143011
942.900	0.0144730
942.978	0.0144698
943.057	0.0144689
943.135	0.0143281
943.213	0.0143433
943.291	0.0144130
943.369	0.0142690
943.447	0.0143789
943.525	0.0143900
943.603	0.0144190
943.682	0.0142360
943.760	0.0144678
943.838	0.0144101
943.916	0.0143440
943.994	0.0146422
944.072	0.0145384
944.150	0.0144161
944.228	0.0144008
944.307	0.0145589
944.385	0.0146484
944.463	0.0145190
944.541	0.0143827
944.619	0.0144733
944.697	0.0144658
944.775	0.0144488
944.853	0.0143987
944.932	0.0144238
945.010	0.0144589
945.088	0.0143221
945.166	0.0144234
945.244	0.0143865
945.322	0.0141740
945.400	0.0143336
945.478	0.0144302
945.557	0.0144011
945.635	0.0143310
945.713	0.0142168
945.791	0.0142503
945.869	0.0143755
945.947	0.0144394
946.025	0.0142905
946.103	0.0143489
946.182	0.0143201
946.260	0.0143431
946.338	0.0143520
946.416	0.0142395
946.494	0.0143782
946.572	0.0143060
946.650	0.0141823
946.728	0.0142327
946.807	0.0143245
946.885	0.0144088
946.963	0.0142072
947.041	0.0143874
947.119	0.0142856
947.197	0.0142397
947.275	0.0142078
947.353	0.0143062
947.432	0.0143179
947.510	0.0141718
947.588	0.0142363
947.666	0.0142672
947.744	0.0141655
947.822	0.0142078
947.900	0.0143250
947.978	0.0142490
948.057	0.0142477
948.135	0.0143341
948.213	0.0142484
948.291	0.0141592
948.369	0.0143259
948.447	0.0143657
948.525	0.0142674
948.603	0.0142760
948.682	0.0141347
948.760	0.0142177
948.838	0.0143035
948.916	0.0141472
948.994	0.0141635
949.072	0.0142102
949.150	0.0142785
949.228	0.0141657
949.307	0.0140697
949.385	0.0141583
949.463	0.0141801
949.541	0.0140192
949.619	0.0141045
949.697	0.0140414
949.775	0.0141430
949.853	0.0142545
949.932	0.0140452
950.010	0.0142267
950.088	0.0142111
950.166	0.0141820
950.244	0.0143234
950.322	0.0142519
950.400	0.0143062
950.478	0.0143075
950.557	0.0143581
950.635	0.0142151
950.713	0.0142346
950.791	0.0143765
950.869	0.0144109
950.947	0.0143118
951.025	0.0144240
951.103	0.0146331
951.182	0.0144606
951.260	0.0144805
951.338	0.0144487
951.416	0.0144905
951.494	0.0144854
951.572	0.0142991
951.650	0.0144167
951.728	0.0142710
951.807	0.0142665
951.885	0.0144189
951.963	0.0143313
952.041	0.0143019
952.119	0.0143873
952.197	0.0143417
952.275	0.0143088
952.353	0.0143034
952.432	0.0142541
952.510	0.0141109
952.588	0.0143781
952.666	0.0144196
952.744	0.0142310
952.822	0.0143418
952.900	0.0142112
952.978	0.0143345
953.057	0.0142902
953.135	0.0143388
953.213	0.0143828
953.291	0.0144054
953.369	0.0142999
953.447	0.0144033
953.525	0.0143459
953.603	0.0144427
953.682	0.0143665
953.760	0.0144435
953.838	0.0144415
953.916	0.0144527
953.994	0.0143482
954.072	0.0144427
954.150	0.0144448
954.228	0.0145296
954.307	0.0144537
954.385	0.0143166
954.463	0.0144403
954.541	0.0144128
954.619	0.0143819
954.697	0.0143578
954.775	0.0142695
954.853	0.0142858
954.932	0.0144334
955.010	0.0143968
955.088	0.0143990
955.166	0.0142853
955.244	0.0143652
955.322	0.0143804
955.400	0.0142644
955.478	0.0143448
955.557	0.0143383
955.635	0.0142558
955.713	0.0141930
955.791	0.0142266
955.869	0.0143680
955.947	0.0143153
956.025	0.0143623
956.103	0.0141924
956.182	0.0142577
956.260	0.0143312
956.338	0.0144450
956.416	0.0143682
956.494	0.0145048
956.572	0.0145406
956.650	0.0144958
956.728	0.0145416
956.807	0.0144777
956.885	0.0144918
956.963	0.0145903
957.041	0.0146096
957.119	0.0145858
957.197	0.0144952
957.275	0.0144490
957.353	0.0144880
957.432	0.0145535
957.510	0.0144788
957.588	0.0144075
957.666	0.0144593
957.744	0.0143178
957.822	0.0143269
957.900	0.0143771
957.978	0.0143046
958.057	0.0143484
958.135	0.0142752
958.213	0.0144405
958.291	0.0143980
958.369	0.0142324
958.447	0.0142714
958.525	0.0142635
958.603	0.0142915
958.682	0.0141828
958.760	0.0141992
958.838	0.0142315
958.916	0.0141714
958.994	0.0140993
959.072	0.0140633
959.150	0.0142445
959.228	0.0142207
959.307	0.0141107
959.385	0.0140834
959.463	0.0142981
959.541	0.0143106
959.619	0.0142361
959.697	0.0141519
959.775	0.0142178
959.853	0.0141697
959.932	0.0141997
960.010	0.0141413
960.088	0.0143328
960.166	0.0143088
960.244	0.0141644
960.322	0.0141865
960.400	0.0141919
960.478	0.0142890
960.557	0.0141983
960.635	0.0143282
960.713	0.0141923
960.791	0.0142287
960.869	0.0142667
960.947	0.0143135
961.025	0.0143118
961.103	0.0143239
961.182	0.0142016
961.260	0.0141792
961.338	0.0142399
961.416	0.0142667
961.494	0.0143724
961.572	0.0141660
961.650	0.0143208
961.728	0.0144369
961.807	0.0143435
961.885	0.0141241
961.963	0.0142365
962.041	0.0142957
962.119	0.0143201
962.197	0.0141375
962.275	0.0142063
962.353	0.0142628
962.432	0.0142297
962.510	0.0141932
962.588	0.0142940
962.666	0.0141665
962.744	0.0141278
962.822	0.0141413
962.900	0.0141565
962.978	0.0141444
963.057	0.0143548
963.135	0.0142210
963.213	0.0141201
963.291	0.0142780
963.369	0.0142454
963.447	0.0143060
963.525	0.0142857
963.603	0.0142665
963.682	0.0143565
963.760	0.0143565
963.838	0.0143335
963.916	0.0143688
963.994	0.0143301
964.072	0.0143827
964.150	0.0143033
964.228	0.0144903
964.307	0.0143696
964.385	0.0143577
964.463	0.0143340
964.541	0.0143356
964.619	0.0143806
964.697	0.0144511
964.775	0.0144115
964.853	0.0143778
964.932	0.0145200
965.010	0.0144588
965.088	0.0145078
965.166	0.0144339
965.244	0.0143470
965.322	0.0144816
965.400	0.0143909
965.478	0.0143005
965.557	0.0144744
965.635	0.0144632
965.713	0.0143726
965.791	0.0144123
965.869	0.0144388
965.947	0.0143410
966.025	0.0143802
966.103	0.0144920
966.182	0.0142850
966.260	0.0143105
966.338	0.0143013
966.416	0.0142574
966.494	0.0141975
966.572	0.0142151
966.650	0.0142477
966.728	0.0142296
966.807	0.0142216
966.885	0.0141055
966.963	0.0141196
967.041	0.0140810
967.119	0.0141309
967.197	0.0141576
967.275	0.0141397
967.353	0.0141025
967.432	0.0142150
967.510	0.0141900
967.588	0.0141763
967.666	0.0141360
967.744	0.0141362
967.822	0.0141552
967.900	0.0142444
967.978	0.0140482
968.057	0.0142885
968.135	0.0142812
968.213	0.0143179
968.291	0.0141029
968.369	0.0142059
968.447	0.0142522
968.525	0.0142650
968.603	0.0143382
968.682	0.0141535
968.760	0.0142377
968.838	0.0143110
968.916	0.0142297
968.994	0.0142634
969.072	0.0143311
969.150	0.0144158
969.228	0.0143042
969.307	0.0142976
969.385	0.0141684
969.463	0.0143166
969.541	0.0144283
969.619	0.0142755
969.697	0.0142507
969.775	0.0142915
969.853	0.0141915
969.932	0.0141879
