06/13/2022	14:27:52	Ver.	4.1	UNKNOWN
Optical Delay	599.968395	Delta X		0.078125	Sweeps	1	Scan Rate	0/0
Coordinates	Axis 1	NaN	Axis 2	NaN	Axis 3	NaN	Axis 4	NaN	Axis 5	NaN	Axis 6	0.000000
TX Power	0.000000	RX Power	0.000000

599.968	0.0158980
600.047	0.0159570
600.125	0.0159574
600.203	0.0158549
600.281	0.0158917
600.359	0.0158540
600.437	0.0158857
600.515	0.0158514
600.593	0.0157737
600.672	0.0158829
600.750	0.0159800
600.828	0.0159868
600.906	0.0159302
600.984	0.0159615
601.062	0.0159037
601.140	0.0159032
601.218	0.0158921
601.297	0.0160374
601.375	0.0157740
601.453	0.0158936
601.531	0.0159834
601.609	0.0159031
601.687	0.0159235
601.765	0.0159386
601.843	0.0158871
601.922	0.0158999
602.000	0.0158280
602.078	0.0158648
602.156	0.0160250
602.234	0.0158971
602.312	0.0159223
602.390	0.0160411
602.468	0.0158595
602.547	0.0158478
602.625	0.0159538
602.703	0.0158462
602.781	0.0159177
602.859	0.0159112
602.937	0.0158042
603.015	0.0159753
603.093	0.0158197
603.172	0.0157950
603.250	0.0158241
603.328	0.0159393
603.406	0.0159181
603.484	0.0158758
603.562	0.0159968
603.640	0.0158026
603.718	0.0158764
603.797	0.0159698
603.875	0.0159486
603.953	0.0158252
604.031	0.0158495
604.109	0.0159124
604.187	0.0158444
604.265	0.0158766
604.343	0.0159546
604.422	0.0159776
604.500	0.0158083
604.578	0.0157970
604.656	0.0159570
604.734	0.0160066
604.812	0.0159542
604.890	0.0160533
604.968	0.0158214
605.047	0.0158052
605.125	0.0158093
605.203	0.0158099
605.281	0.0158395
605.359	0.0158472
605.437	0.0158939
605.515	0.0159296
605.593	0.0158347
605.672	0.0159253
605.750	0.0158878
605.828	0.0158990
605.906	0.0158252
605.984	0.0158687
606.062	0.0158871
606.140	0.0159047
606.218	0.0158481
606.297	0.0159867
606.375	0.0158515
606.453	0.0158651
606.531	0.0158414
606.609	0.0158622
606.687	0.0157636
606.765	0.0159046
606.843	0.0157915
606.922	0.0158774
607.000	0.0159888
607.078	0.0159731
607.156	0.0159834
607.234	0.0160062
607.312	0.0158765
607.390	0.0159309
607.468	0.0158444
607.547	0.0157607
607.625	0.0159603
607.703	0.0159617
607.781	0.0157613
607.859	0.0159676
607.937	0.0159007
608.015	0.0160442
608.093	0.0158529
608.172	0.0158968
608.250	0.0159258
608.328	0.0160155
608.406	0.0158901
608.484	0.0160173
608.562	0.0158706
608.640	0.0158221
608.718	0.0159568
608.797	0.0159674
608.875	0.0158802
608.953	0.0158419
609.031	0.0159168
609.109	0.0160076
609.187	0.0158491
609.265	0.0158632
609.343	0.0158890
609.422	0.0158828
609.500	0.0158321
609.578	0.0158044
609.656	0.0159125
609.734	0.0158417
609.812	0.0158670
609.890	0.0159178
609.968	0.0158911
610.047	0.0159257
610.125	0.0159247
610.203	0.0159433
610.281	0.0158842
610.359	0.0158199
610.437	0.0158415
610.515	0.0160501
610.593	0.0159544
610.672	0.0158439
610.750	0.0158517
610.828	0.0159026
610.906	0.0157907
610.984	0.0158740
611.062	0.0159030
611.140	0.0158916
611.218	0.0159355
611.297	0.0159595
611.375	0.0158721
611.453	0.0158533
611.531	0.0158966
611.609	0.0158698
611.687	0.0158437
611.765	0.0159275
611.843	0.0158597
611.922	0.0159061
612.000	0.0159008
612.078	0.0159583
612.156	0.0158958
612.234	0.0160011
612.312	0.0158484
612.390	0.0159309
612.468	0.0159757
612.547	0.0158715
612.625	0.0158655
612.703	0.0158360
612.781	0.0159458
612.859	0.0159545
612.937	0.0159290
613.015	0.0157958
613.093	0.0158096
613.172	0.0159348
613.250	0.0159084
613.328	0.0159874
613.406	0.0159394
613.484	0.0159653
613.562	0.0160523
613.640	0.0157982
613.718	0.0158503
613.797	0.0158797
613.875	0.0158144
613.953	0.0159549
614.031	0.0158520
614.109	0.0159110
614.187	0.0159389
614.265	0.0160176
614.343	0.0157482
614.422	0.0157232
614.500	0.0157912
614.578	0.0160490
614.656	0.0159559
614.734	0.0159602
614.812	0.0159028
614.890	0.0159358
614.968	0.0159903
615.047	0.0158482
615.125	0.0159742
615.203	0.0158802
615.281	0.0158730
615.359	0.0159067
615.437	0.0160072
615.515	0.0158926
615.593	0.0159245
615.672	0.0159537
615.750	0.0159735
615.828	0.0158959
615.906	0.0159727
615.984	0.0157547
616.062	0.0159106
616.140	0.0158968
616.218	0.0161810
616.297	0.0159464
616.375	0.0158824
616.453	0.0159240
616.531	0.0158676
616.609	0.0157831
616.687	0.0159617
616.765	0.0159490
616.843	0.0159349
616.922	0.0159148
617.000	0.0159470
617.078	0.0158020
617.156	0.0158712
617.234	0.0158739
617.312	0.0159540
617.390	0.0159541
617.468	0.0160289
617.547	0.0160594
617.625	0.0159451
617.703	0.0159545
617.781	0.0158968
617.859	0.0159488
617.937	0.0158293
618.015	0.0158087
618.093	0.0158029
618.172	0.0158611
618.250	0.0158997
618.328	0.0157937
618.406	0.0159157
618.484	0.0159389
618.562	0.0159534
618.640	0.0157661
618.718	0.0159453
618.797	0.0159837
618.875	0.0159431
618.953	0.0159064
619.031	0.0157906
619.109	0.0157805
619.187	0.0158644
619.265	0.0158331
619.343	0.0159111
619.422	0.0159007
619.500	0.0159023
619.578	0.0159685
619.656	0.0159036
619.734	0.0159275
619.812	0.0157840
619.890	0.0160331
619.968	0.0159550
620.047	0.0160446
620.125	0.0158570
620.203	0.0158257
620.281	0.0159052
620.359	0.0158562
620.437	0.0159095
620.515	0.0157882
620.593	0.0160664
620.672	0.0158980
620.750	0.0159644
620.828	0.0158254
620.906	0.0159259
620.984	0.0158870
621.062	0.0159310
621.140	0.0158221
621.218	0.0158485
621.297	0.0159396
621.375	0.0157510
621.453	0.0158670
621.531	0.0158944
621.609	0.0159196
621.687	0.0159282
621.765	0.0159077
621.843	0.0159296
621.922	0.0158998
622.000	0.0159758
622.078	0.0159007
622.156	0.0157423
622.234	0.0158881
622.312	0.0158728
622.390	0.0159268
622.468	0.0158707
622.547	0.0159515
622.625	0.0158212
622.703	0.0159425
622.781	0.0158286
622.859	0.0158141
622.937	0.0157568
623.015	0.0157877
623.093	0.0159082
623.172	0.0159584
623.250	0.0160077
623.328	0.0158768
623.406	0.0159815
623.484	0.0158980
623.562	0.0157114
623.640	0.0159043
623.718	0.0158252
623.797	0.0158636
623.875	0.0158263
623.953	0.0157193
624.031	0.0159150
624.109	0.0159567
624.187	0.0158084
624.265	0.0160345
624.343	0.0158919
624.422	0.0158312
624.500	0.0158981
624.578	0.0159685
624.656	0.0159139
624.734	0.0159035
624.812	0.0160096
624.890	0.0159831
624.968	0.0159933
625.047	0.0159019
625.125	0.0159293
625.203	0.0158573
625.281	0.0158072
625.359	0.0159548
625.437	0.0159344
625.515	0.0158221
625.593	0.0159887
625.672	0.0159282
625.750	0.0159144
625.828	0.0158811
625.906	0.0159012
625.984	0.0159183
626.062	0.0159066
626.140	0.0159065
626.218	0.0160542
626.297	0.0159236
626.375	0.0159134
626.453	0.0159097
626.531	0.0159056
626.609	0.0157379
626.687	0.0158324
626.765	0.0158061
626.843	0.0159272
626.922	0.0159332
627.000	0.0159194
627.078	0.0158018
627.156	0.0157560
627.234	0.0159053
627.312	0.0160031
627.390	0.0159893
627.468	0.0158211
627.547	0.0159093
627.625	0.0157964
627.703	0.0159519
627.781	0.0159285
627.859	0.0159724
627.937	0.0159811
628.015	0.0159365
628.093	0.0158946
628.172	0.0158538
628.250	0.0159131
628.328	0.0158260
628.406	0.0159058
628.484	0.0158917
628.562	0.0158862
628.640	0.0158110
628.718	0.0159164
628.797	0.0158139
628.875	0.0159628
628.953	0.0159118
629.031	0.0158359
629.109	0.0159116
629.187	0.0157626
629.265	0.0158343
629.343	0.0160205
629.422	0.0158943
629.500	0.0158428
629.578	0.0157779
629.656	0.0158249
629.734	0.0159599
629.812	0.0158356
629.890	0.0158220
629.968	0.0158522
630.047	0.0157886
630.125	0.0159466
630.203	0.0158064
630.281	0.0158786
630.359	0.0158888
630.437	0.0160175
630.515	0.0159449
630.593	0.0157893
630.672	0.0158979
630.750	0.0158888
630.828	0.0159402
630.906	0.0158303
630.984	0.0158590
631.062	0.0159877
631.140	0.0160075
631.218	0.0157608
631.297	0.0159043
631.375	0.0158893
631.453	0.0158039
631.531	0.0159497
631.609	0.0158344
631.687	0.0159170
631.765	0.0158070
631.843	0.0159963
631.922	0.0159293
632.000	0.0159513
632.078	0.0160364
632.156	0.0159133
632.234	0.0158414
632.312	0.0159887
632.390	0.0160013
632.468	0.0160254
632.547	0.0158686
632.625	0.0159171
632.703	0.0158829
632.781	0.0159119
632.859	0.0159599
632.937	0.0158849
633.015	0.0159027
633.093	0.0159335
633.172	0.0159378
633.250	0.0159038
633.328	0.0158756
633.406	0.0159855
633.484	0.0159042
633.562	0.0158791
633.640	0.0159240
633.718	0.0159569
633.797	0.0159451
633.875	0.0159476
633.953	0.0158547
634.031	0.0159149
634.109	0.0158952
634.187	0.0158976
634.265	0.0159400
634.343	0.0159806
634.422	0.0159116
634.500	0.0159206
634.578	0.0159529
634.656	0.0158305
634.734	0.0158472
634.812	0.0159869
634.890	0.0160425
634.968	0.0158683
635.047	0.0158766
635.125	0.0158776
635.203	0.0159108
635.281	0.0158782
635.359	0.0158797
635.437	0.0157877
635.515	0.0159032
635.593	0.0160574
635.672	0.0159330
635.750	0.0158695
635.828	0.0159544
635.906	0.0159537
635.984	0.0158163
636.062	0.0159670
636.140	0.0160333
636.218	0.0158443
636.297	0.0158336
636.375	0.0159150
636.453	0.0160223
636.531	0.0159486
636.609	0.0158493
636.687	0.0158112
636.765	0.0159905
636.843	0.0158491
636.922	0.0158585
637.000	0.0159253
637.078	0.0158685
637.156	0.0158375
637.234	0.0158603
637.312	0.0159332
637.390	0.0158968
637.468	0.0160914
637.547	0.0159335
637.625	0.0157533
637.703	0.0158881
637.781	0.0157770
637.859	0.0158292
637.937	0.0160195
638.015	0.0158492
638.093	0.0158082
638.172	0.0158904
638.250	0.0159285
638.328	0.0158793
638.406	0.0159389
638.484	0.0159470
638.562	0.0159031
638.640	0.0158777
638.718	0.0158852
638.797	0.0159803
638.875	0.0159475
638.953	0.0158832
639.031	0.0158424
639.109	0.0159931
639.187	0.0160233
639.265	0.0159381
639.343	0.0158694
639.422	0.0158707
639.500	0.0158007
639.578	0.0159102
639.656	0.0158804
639.734	0.0159350
639.812	0.0158459
639.890	0.0158244
639.968	0.0160007
640.047	0.0159718
640.125	0.0159288
640.203	0.0159152
640.281	0.0159254
640.359	0.0158996
640.437	0.0160719
640.515	0.0159512
640.593	0.0158994
640.672	0.0159873
640.750	0.0158192
640.828	0.0158220
640.906	0.0159143
640.984	0.0159090
641.062	0.0159169
641.140	0.0158560
641.218	0.0158308
641.297	0.0159212
641.375	0.0159284
641.453	0.0159251
641.531	0.0160078
641.609	0.0159897
641.687	0.0158833
641.765	0.0158985
641.843	0.0160120
641.922	0.0157612
642.000	0.0158822
642.078	0.0159805
642.156	0.0159299
642.234	0.0158054
642.312	0.0159415
642.390	0.0158925
642.468	0.0158874
642.547	0.0159943
642.625	0.0158443
642.703	0.0157840
642.781	0.0158707
642.859	0.0158848
642.937	0.0159703
643.015	0.0159039
643.093	0.0160086
643.172	0.0158990
643.250	0.0158831
643.328	0.0157585
643.406	0.0159164
643.484	0.0158217
643.562	0.0158334
643.640	0.0159025
643.718	0.0158443
643.797	0.0157648
643.875	0.0158751
643.953	0.0159216
644.031	0.0159442
644.109	0.0157766
644.187	0.0158865
644.265	0.0159245
644.343	0.0158099
644.422	0.0159225
644.500	0.0159186
644.578	0.0160049
644.656	0.0158289
644.734	0.0158843
644.812	0.0158344
644.890	0.0158595
644.968	0.0159483
645.047	0.0159706
645.125	0.0159494
645.203	0.0158315
645.281	0.0158700
645.359	0.0157830
645.437	0.0158819
645.515	0.0159393
645.593	0.0159394
645.672	0.0160200
645.750	0.0159853
645.828	0.0160239
645.906	0.0159671
645.984	0.0158723
646.062	0.0158613
646.140	0.0158839
646.218	0.0158807
646.297	0.0158449
646.375	0.0158759
646.453	0.0158175
646.531	0.0157833
646.609	0.0159495
646.687	0.0159290
646.765	0.0159843
646.843	0.0158936
646.922	0.0158948
647.000	0.0158614
647.078	0.0159025
647.156	0.0159933
647.234	0.0157681
647.312	0.0158268
647.390	0.0159418
647.468	0.0159269
647.547	0.0159731
647.625	0.0159212
647.703	0.0157937
647.781	0.0159921
647.859	0.0160156
647.937	0.0158789
648.015	0.0159724
648.093	0.0159223
648.172	0.0158157
648.250	0.0158876
648.328	0.0159639
648.406	0.0159139
648.484	0.0159167
648.562	0.0158583
648.640	0.0158611
648.718	0.0159256
648.797	0.0159191
648.875	0.0159322
648.953	0.0158459
649.031	0.0158743
649.109	0.0158380
649.187	0.0159354
649.265	0.0159498
649.343	0.0158465
649.422	0.0157970
649.500	0.0159403
649.578	0.0158865
649.656	0.0159186
649.734	0.0160231
649.812	0.0159525
649.890	0.0158978
649.968	0.0159280
650.047	0.0158556
650.125	0.0159320
650.203	0.0158471
650.281	0.0159222
650.359	0.0159412
650.437	0.0159447
650.515	0.0158530
650.593	0.0158309
650.672	0.0159196
650.750	0.0158365
650.828	0.0158348
650.906	0.0159972
650.984	0.0158578
651.062	0.0159060
651.140	0.0158086
651.218	0.0158831
651.297	0.0158426
651.375	0.0159322
651.453	0.0158267
651.531	0.0159152
651.609	0.0159165
651.687	0.0157462
651.765	0.0159257
651.843	0.0158929
651.922	0.0158971
652.000	0.0157672
652.078	0.0158614
652.156	0.0158035
652.234	0.0158813
652.312	0.0157441
652.390	0.0160042
652.468	0.0159286
652.547	0.0158544
652.625	0.0159290
652.703	0.0159193
652.781	0.0159364
652.859	0.0157811
652.937	0.0159438
653.015	0.0159985
653.093	0.0158286
653.172	0.0158414
653.250	0.0160279
653.328	0.0158744
653.406	0.0159972
653.484	0.0160023
653.562	0.0159866
653.640	0.0158609
653.718	0.0158133
653.797	0.0159167
653.875	0.0158372
653.953	0.0159406
654.031	0.0159486
654.109	0.0157501
654.187	0.0158900
654.265	0.0158766
654.343	0.0159476
654.422	0.0158223
654.500	0.0158749
654.578	0.0159064
654.656	0.0158234
654.734	0.0156923
654.812	0.0159333
654.890	0.0158660
654.968	0.0159299
655.047	0.0159019
655.125	0.0159162
655.203	0.0159784
655.281	0.0159125
655.359	0.0158765
655.437	0.0159214
655.515	0.0159081
655.593	0.0158359
655.672	0.0158702
655.750	0.0158228
655.828	0.0158691
655.906	0.0158246
655.984	0.0158650
656.062	0.0158234
656.140	0.0158458
656.218	0.0158247
656.297	0.0158336
656.375	0.0158334
656.453	0.0157886
656.531	0.0158694
656.609	0.0158974
656.687	0.0158649
656.765	0.0159270
656.843	0.0158553
656.922	0.0159492
657.000	0.0158529
657.078	0.0158943
657.156	0.0159768
657.234	0.0160085
657.312	0.0157819
657.390	0.0158685
657.468	0.0159185
657.547	0.0157438
657.625	0.0157121
657.703	0.0158353
657.781	0.0158852
657.859	0.0158052
657.937	0.0158386
658.015	0.0160810
658.093	0.0157992
658.172	0.0159264
658.250	0.0158115
658.328	0.0159456
658.406	0.0158401
658.484	0.0159055
658.562	0.0159831
658.640	0.0158556
658.718	0.0159212
658.797	0.0158423
658.875	0.0158611
658.953	0.0158385
659.031	0.0159192
659.109	0.0158655
659.187	0.0159216
659.265	0.0159374
659.343	0.0159794
659.422	0.0157649
659.500	0.0158652
659.578	0.0160220
659.656	0.0159171
659.734	0.0159784
659.812	0.0159409
659.890	0.0159908
659.968	0.0157884
660.047	0.0159645
660.125	0.0158236
660.203	0.0158350
660.281	0.0159412
660.359	0.0159459
660.437	0.0159569
660.515	0.0159557
660.593	0.0157706
660.672	0.0157703
660.750	0.0158503
660.828	0.0159370
660.906	0.0159897
660.984	0.0159306
661.062	0.0158900
661.140	0.0159114
661.218	0.0157146
661.297	0.0158585
661.375	0.0159811
661.453	0.0157520
661.531	0.0158359
661.609	0.0158833
661.687	0.0158391
661.765	0.0157571
661.843	0.0158997
661.922	0.0158666
662.000	0.0159584
662.078	0.0158844
662.156	0.0158123
662.234	0.0159447
662.312	0.0158828
662.390	0.0158769
662.468	0.0159478
662.547	0.0158726
662.625	0.0158508
662.703	0.0159160
662.781	0.0158824
662.859	0.0159203
662.937	0.0159322
663.015	0.0159670
663.093	0.0157836
663.172	0.0158315
663.250	0.0157537
663.328	0.0158244
663.406	0.0159182
663.484	0.0158307
663.562	0.0158404
663.640	0.0158974
663.718	0.0158234
663.797	0.0158297
663.875	0.0157022
663.953	0.0158473
664.031	0.0159225
664.109	0.0158636
664.187	0.0158717
664.265	0.0158452
664.343	0.0159194
664.422	0.0159141
664.500	0.0159396
664.578	0.0158733
664.656	0.0158580
664.734	0.0159315
664.812	0.0159297
664.890	0.0158849
664.968	0.0158685
665.047	0.0158021
665.125	0.0159489
665.203	0.0158335
665.281	0.0159307
665.359	0.0157759
665.437	0.0158408
665.515	0.0159919
665.593	0.0159206
665.672	0.0158228
665.750	0.0158243
665.828	0.0159660
665.906	0.0160063
665.984	0.0158372
666.062	0.0158848
666.140	0.0159868
666.218	0.0158463
666.297	0.0159052
666.375	0.0158400
666.453	0.0159768
666.531	0.0158237
666.609	0.0159012
666.687	0.0158406
666.765	0.0157957
666.843	0.0160229
666.922	0.0157853
667.000	0.0158947
667.078	0.0159264
667.156	0.0159511
667.234	0.0159033
667.312	0.0158046
667.390	0.0158633
667.468	0.0159884
667.547	0.0159483
667.625	0.0158684
667.703	0.0159389
667.781	0.0158059
667.859	0.0159106
667.937	0.0159296
668.015	0.0158542
668.093	0.0159686
668.172	0.0158291
668.250	0.0159266
668.328	0.0158969
668.406	0.0158141
668.484	0.0159418
668.562	0.0160316
668.640	0.0159375
668.718	0.0158600
668.797	0.0158515
668.875	0.0158609
668.953	0.0157951
669.031	0.0157604
669.109	0.0158720
669.187	0.0159394
669.265	0.0159570
669.343	0.0159327
669.422	0.0158063
669.500	0.0157610
669.578	0.0158041
669.656	0.0159555
669.734	0.0157540
669.812	0.0158675
669.890	0.0160419
669.968	0.0160404
670.047	0.0158421
670.125	0.0156458
670.203	0.0158974
670.281	0.0158716
670.359	0.0158759
670.437	0.0157951
670.515	0.0159399
670.593	0.0159167
670.672	0.0159728
670.750	0.0158307
670.828	0.0159279
670.906	0.0159221
670.984	0.0157949
671.062	0.0159382
671.140	0.0159670
671.218	0.0159626
671.297	0.0159000
671.375	0.0159209
671.453	0.0159027
671.531	0.0158434
671.609	0.0159208
671.687	0.0158102
671.765	0.0157933
671.843	0.0159842
671.922	0.0158710
672.000	0.0159058
672.078	0.0159715
672.156	0.0159187
672.234	0.0159275
672.312	0.0160181
672.390	0.0158749
672.468	0.0159088
672.547	0.0158803
672.625	0.0158640
672.703	0.0157526
672.781	0.0159416
672.859	0.0159425
672.937	0.0158515
673.015	0.0157964
673.093	0.0158588
673.172	0.0159093
673.250	0.0158793
673.328	0.0157853
673.406	0.0158049
673.484	0.0158108
673.562	0.0158707
673.640	0.0158688
673.718	0.0158618
673.797	0.0158826
673.875	0.0158239
673.953	0.0158119
674.031	0.0159094
674.109	0.0158129
674.187	0.0158666
674.265	0.0158190
674.343	0.0159224
674.422	0.0159826
674.500	0.0159818
674.578	0.0157354
674.656	0.0158151
674.734	0.0159412
674.812	0.0159183
674.890	0.0158678
674.968	0.0157881
675.047	0.0159557
675.125	0.0159300
675.203	0.0158606
675.281	0.0159097
675.359	0.0159490
675.437	0.0157770
675.515	0.0158333
675.593	0.0159462
675.672	0.0158089
675.750	0.0157427
675.828	0.0159297
675.906	0.0159270
675.984	0.0159743
676.062	0.0157890
676.140	0.0158856
676.218	0.0159426
676.297	0.0158900
676.375	0.0158942
676.453	0.0157583
676.531	0.0159141
676.609	0.0159776
676.687	0.0158531
676.765	0.0159196
676.843	0.0158237
676.922	0.0158627
677.000	0.0158258
677.078	0.0160225
677.156	0.0159806
677.234	0.0159177
677.312	0.0160091
677.390	0.0159574
677.468	0.0160484
677.547	0.0159268
677.625	0.0159783
677.703	0.0159016
677.781	0.0157950
677.859	0.0157389
677.937	0.0158378
678.015	0.0159684
678.093	0.0160301
678.172	0.0157729
678.250	0.0158798
678.328	0.0159490
678.406	0.0158939
678.484	0.0160355
678.562	0.0158560
678.640	0.0157646
678.718	0.0158983
678.797	0.0160545
678.875	0.0160502
678.953	0.0159112
679.031	0.0159261
679.109	0.0157802
679.187	0.0159193
679.265	0.0159412
679.343	0.0158528
679.422	0.0158315
679.500	0.0159003
679.578	0.0157708
679.656	0.0158262
679.734	0.0158788
679.812	0.0159565
679.890	0.0158900
679.968	0.0158942
680.047	0.0159962
680.125	0.0159063
680.203	0.0158579
680.281	0.0158678
680.359	0.0159093
680.437	0.0158736
680.515	0.0158144
680.593	0.0159199
680.672	0.0158126
680.750	0.0158110
680.828	0.0158885
680.906	0.0159179
680.984	0.0158147
681.062	0.0158683
681.140	0.0158455
681.218	0.0158559
681.297	0.0158794
681.375	0.0158824
681.453	0.0159183
681.531	0.0159022
681.609	0.0159700
681.687	0.0158978
681.765	0.0158402
681.843	0.0157785
681.922	0.0160040
682.000	0.0159542
682.078	0.0159702
682.156	0.0159618
682.234	0.0159608
682.312	0.0159365
682.390	0.0159164
682.468	0.0158244
682.547	0.0158576
682.625	0.0158851
682.703	0.0160414
682.781	0.0158959
682.859	0.0159190
682.937	0.0158308
683.015	0.0158741
683.093	0.0159326
683.172	0.0159055
683.250	0.0158945
683.328	0.0159218
683.406	0.0159863
683.484	0.0159095
683.562	0.0158345
683.640	0.0159693
683.718	0.0159252
683.797	0.0159551
683.875	0.0158781
683.953	0.0157644
684.031	0.0159988
684.109	0.0158527
684.187	0.0158949
684.265	0.0158802
684.343	0.0159779
684.422	0.0159501
684.500	0.0158096
684.578	0.0158596
684.656	0.0158817
684.734	0.0158546
684.812	0.0158926
684.890	0.0158381
684.968	0.0158079
685.047	0.0159367
685.125	0.0160186
685.203	0.0160214
685.281	0.0159621
685.359	0.0159525
685.437	0.0159402
685.515	0.0158784
685.593	0.0159208
685.672	0.0160371
685.750	0.0160038
685.828	0.0159238
685.906	0.0159355
685.984	0.0159204
686.062	0.0157929
686.140	0.0158233
686.218	0.0159282
686.297	0.0159035
686.375	0.0157854
686.453	0.0159544
686.531	0.0159000
686.609	0.0159996
686.687	0.0159029
686.765	0.0158550
686.843	0.0158474
686.922	0.0159163
687.000	0.0158622
687.078	0.0159747
687.156	0.0157792
687.234	0.0158142
687.312	0.0157887
687.390	0.0158869
687.468	0.0159921
687.547	0.0159352
687.625	0.0159796
687.703	0.0159461
687.781	0.0158821
687.859	0.0159941
687.937	0.0158833
688.015	0.0159126
688.093	0.0159295
688.172	0.0157188
688.250	0.0157576
688.328	0.0158031
688.406	0.0158602
688.484	0.0160644
688.562	0.0158601
688.640	0.0156882
688.718	0.0158310
688.797	0.0160033
688.875	0.0159176
688.953	0.0158879
689.031	0.0158356
689.109	0.0158105
689.187	0.0159625
689.265	0.0159691
689.343	0.0158994
689.422	0.0159088
689.500	0.0159276
689.578	0.0158591
689.656	0.0158437
689.734	0.0157696
689.812	0.0159304
689.890	0.0159678
689.968	0.0157827
690.047	0.0158557
690.125	0.0159268
690.203	0.0158070
690.281	0.0160007
690.359	0.0159975
690.437	0.0159589
690.515	0.0158492
690.593	0.0159599
690.672	0.0159328
690.750	0.0160195
690.828	0.0158917
690.906	0.0158178
690.984	0.0158801
691.062	0.0159377
691.140	0.0159898
691.218	0.0157956
691.297	0.0158765
691.375	0.0159125
691.453	0.0159383
691.531	0.0157891
691.609	0.0158262
691.687	0.0160052
691.765	0.0159018
691.843	0.0159532
691.922	0.0158784
692.000	0.0158036
692.078	0.0158340
692.156	0.0158701
692.234	0.0159915
692.312	0.0159234
692.390	0.0159306
692.468	0.0158723
692.547	0.0157395
692.625	0.0158850
692.703	0.0158830
692.781	0.0159025
692.859	0.0158018
692.937	0.0158143
693.015	0.0159148
693.093	0.0158108
693.172	0.0157705
693.250	0.0159686
693.328	0.0160164
693.406	0.0160248
693.484	0.0158327
693.562	0.0158334
693.640	0.0159293
693.718	0.0159265
693.797	0.0159164
693.875	0.0159793
693.953	0.0159277
694.031	0.0159018
694.109	0.0158196
694.187	0.0158888
694.265	0.0157391
694.343	0.0158533
694.422	0.0159786
694.500	0.0159388
694.578	0.0158891
694.656	0.0157866
694.734	0.0159029
694.812	0.0158157
694.890	0.0158945
694.968	0.0158832
695.047	0.0158781
695.125	0.0157874
695.203	0.0159748
695.281	0.0157643
695.359	0.0159492
695.437	0.0159920
695.515	0.0159644
695.593	0.0160871
695.672	0.0159930
695.750	0.0158884
695.828	0.0159161
695.906	0.0159383
695.984	0.0158922
696.062	0.0159085
696.140	0.0159309
696.218	0.0160041
696.297	0.0158397
696.375	0.0159429
696.453	0.0159676
696.531	0.0159172
696.609	0.0159414
696.687	0.0158149
696.765	0.0158554
696.843	0.0158356
696.922	0.0157359
697.000	0.0159208
697.078	0.0159668
697.156	0.0158395
697.234	0.0159222
697.312	0.0158418
697.390	0.0159187
697.468	0.0158997
697.547	0.0159421
697.625	0.0158250
697.703	0.0158450
697.781	0.0159415
697.859	0.0160603
697.937	0.0158651
698.015	0.0158240
698.093	0.0158950
698.172	0.0159374
698.250	0.0159093
698.328	0.0158563
698.406	0.0159248
698.484	0.0159243
698.562	0.0158462
698.640	0.0159023
698.718	0.0156940
698.797	0.0158914
698.875	0.0160059
698.953	0.0160109
699.031	0.0159098
699.109	0.0157944
699.187	0.0159204
699.265	0.0158675
699.343	0.0160429
699.422	0.0159664
699.500	0.0159548
699.578	0.0159705
699.656	0.0159389
699.734	0.0158635
699.812	0.0158247
699.890	0.0159340
699.968	0.0159575
700.047	0.0159637
700.125	0.0159577
700.203	0.0159730
700.281	0.0158789
700.359	0.0160380
700.437	0.0158833
700.515	0.0158086
700.593	0.0160494
700.672	0.0158817
700.750	0.0158728
700.828	0.0158823
700.906	0.0159376
700.984	0.0159116
701.062	0.0158878
701.140	0.0159422
701.218	0.0158574
701.297	0.0158641
701.375	0.0159083
701.453	0.0158482
701.531	0.0157275
701.609	0.0158910
701.687	0.0158443
701.765	0.0158495
701.843	0.0159138
701.922	0.0159172
702.000	0.0159007
702.078	0.0159816
702.156	0.0158733
702.234	0.0158072
702.312	0.0160516
702.390	0.0159498
702.468	0.0158377
702.547	0.0159419
702.625	0.0158632
702.703	0.0159391
702.781	0.0158670
702.859	0.0159602
702.937	0.0158953
703.015	0.0159319
703.093	0.0157728
703.172	0.0159189
703.250	0.0159759
703.328	0.0158864
703.406	0.0157974
703.484	0.0159122
703.562	0.0159234
703.640	0.0159890
703.718	0.0158904
703.797	0.0159836
703.875	0.0158530
703.953	0.0158915
704.031	0.0158761
704.109	0.0158823
704.187	0.0159866
704.265	0.0158319
704.343	0.0158607
704.422	0.0157858
704.500	0.0158549
704.578	0.0158974
704.656	0.0157132
704.734	0.0158220
704.812	0.0158683
704.890	0.0158553
704.968	0.0158203
705.047	0.0157866
705.125	0.0158531
705.203	0.0160675
705.281	0.0157664
705.359	0.0158408
705.437	0.0158286
705.515	0.0159721
705.593	0.0159113
705.672	0.0158941
705.750	0.0159284
705.828	0.0159893
705.906	0.0158340
705.984	0.0158759
706.062	0.0160245
706.140	0.0158781
706.218	0.0159489
706.297	0.0160011
706.375	0.0160015
706.453	0.0157777
706.531	0.0158901
706.609	0.0158751
706.687	0.0160153
706.765	0.0159478
706.843	0.0157951
706.922	0.0158520
707.000	0.0159056
707.078	0.0158404
707.156	0.0158832
707.234	0.0159050
707.312	0.0159142
707.390	0.0158041
707.468	0.0158749
707.547	0.0159720
707.625	0.0159548
707.703	0.0158427
707.781	0.0158689
707.859	0.0157915
707.937	0.0159868
708.015	0.0159184
708.093	0.0158551
708.172	0.0159070
708.250	0.0159108
708.328	0.0157737
708.406	0.0159715
708.484	0.0158946
708.562	0.0158097
708.640	0.0157427
708.718	0.0159059
708.797	0.0157908
708.875	0.0160114
708.953	0.0160367
709.031	0.0159087
709.109	0.0157435
709.187	0.0157899
709.265	0.0159743
709.343	0.0158723
709.422	0.0158133
709.500	0.0158949
709.578	0.0156396
709.656	0.0159574
709.734	0.0159993
709.812	0.0158154
709.890	0.0157672
709.968	0.0159756
710.047	0.0160327
710.125	0.0158717
710.203	0.0159210
710.281	0.0158200
710.359	0.0159822
710.437	0.0158631
710.515	0.0158529
710.593	0.0159015
710.672	0.0158182
710.750	0.0159243
710.828	0.0158191
710.906	0.0159593
710.984	0.0159971
711.062	0.0159502
711.140	0.0159511
711.218	0.0157998
711.297	0.0159369
711.375	0.0158891
711.453	0.0158884
711.531	0.0159056
711.609	0.0159319
711.687	0.0158010
711.765	0.0158213
711.843	0.0160229
711.922	0.0160091
712.000	0.0158333
712.078	0.0159277
712.156	0.0158753
712.234	0.0159640
712.312	0.0158915
712.390	0.0158858
712.468	0.0159081
712.547	0.0158000
712.625	0.0161163
712.703	0.0159395
712.781	0.0158660
712.859	0.0158318
712.937	0.0159677
713.015	0.0159666
713.093	0.0159834
713.172	0.0159020
713.250	0.0158860
713.328	0.0158212
713.406	0.0158923
713.484	0.0160090
713.562	0.0160036
713.640	0.0158284
713.718	0.0159241
713.797	0.0159561
713.875	0.0159187
713.953	0.0158063
714.031	0.0158363
714.109	0.0159390
714.187	0.0159187
714.265	0.0158835
714.343	0.0158451
714.422	0.0158779
714.500	0.0158670
714.578	0.0157806
714.656	0.0157579
714.734	0.0160001
714.812	0.0158697
714.890	0.0159553
714.968	0.0159137
715.047	0.0159149
715.125	0.0159921
715.203	0.0159777
715.281	0.0158719
715.359	0.0159692
715.437	0.0160783
715.515	0.0158562
715.593	0.0157825
715.672	0.0157699
715.750	0.0159313
715.828	0.0159194
715.906	0.0157651
715.984	0.0160032
716.062	0.0158221
716.140	0.0157952
716.218	0.0158769
716.297	0.0160010
716.375	0.0158826
716.453	0.0157845
716.531	0.0158493
716.609	0.0159901
716.687	0.0158472
716.765	0.0159928
716.843	0.0159525
716.922	0.0159487
717.000	0.0159566
717.078	0.0158464
717.156	0.0158899
717.234	0.0159166
717.312	0.0158901
717.390	0.0159598
717.468	0.0159548
717.547	0.0158005
717.625	0.0158289
717.703	0.0159043
717.781	0.0159280
717.859	0.0158181
717.937	0.0158013
718.015	0.0159241
718.093	0.0159891
718.172	0.0158217
718.250	0.0158170
718.328	0.0159255
718.406	0.0158118
718.484	0.0159121
718.562	0.0158347
718.640	0.0157786
718.718	0.0158608
718.797	0.0159409
718.875	0.0159684
718.953	0.0159301
719.031	0.0159009
719.109	0.0159577
719.187	0.0158978
719.265	0.0159228
719.343	0.0157800
719.422	0.0157873
719.500	0.0158640
719.578	0.0158531
719.656	0.0158163
719.734	0.0159029
719.812	0.0160398
719.890	0.0159244
719.968	0.0159650
720.047	0.0160047
720.125	0.0158952
720.203	0.0157679
720.281	0.0158772
720.359	0.0158912
720.437	0.0159723
720.515	0.0160142
720.593	0.0158772
720.672	0.0158537
720.750	0.0160414
720.828	0.0159801
720.906	0.0159084
720.984	0.0159736
721.062	0.0159509
721.140	0.0158158
721.218	0.0158069
721.297	0.0159305
721.375	0.0160059
721.453	0.0159892
721.531	0.0159531
721.609	0.0158928
721.687	0.0159407
721.765	0.0159512
721.843	0.0160485
721.922	0.0159930
722.000	0.0159827
722.078	0.0158793
722.156	0.0158432
722.234	0.0158523
722.312	0.0158105
722.390	0.0160001
722.468	0.0160109
722.547	0.0158434
722.625	0.0158485
722.703	0.0159945
722.781	0.0158170
722.859	0.0158310
722.937	0.0159862
723.015	0.0159019
723.093	0.0160740
723.172	0.0159920
723.250	0.0157565
723.328	0.0159365
723.406	0.0158656
723.484	0.0159431
723.562	0.0159921
723.640	0.0159737
723.718	0.0158118
723.797	0.0159656
723.875	0.0159618
723.953	0.0158971
724.031	0.0159117
724.109	0.0158101
724.187	0.0160572
724.265	0.0159737
724.343	0.0159000
724.422	0.0158652
724.500	0.0159599
724.578	0.0159260
724.656	0.0159397
724.734	0.0159198
724.812	0.0158275
724.890	0.0159098
724.968	0.0159952
725.047	0.0160497
725.125	0.0158558
725.203	0.0157507
725.281	0.0159203
725.359	0.0158728
725.437	0.0160373
725.515	0.0159605
725.593	0.0158656
725.672	0.0159819
725.750	0.0159598
725.828	0.0158473
725.906	0.0159995
725.984	0.0159216
726.062	0.0159119
726.140	0.0158836
726.218	0.0159680
726.297	0.0158690
726.375	0.0158451
726.453	0.0158138
726.531	0.0158537
726.609	0.0158215
726.687	0.0160149
726.765	0.0160236
726.843	0.0158934
726.922	0.0159403
727.000	0.0159409
727.078	0.0159181
727.156	0.0158160
727.234	0.0159524
727.312	0.0159612
727.390	0.0159959
727.468	0.0159905
727.547	0.0158733
727.625	0.0158669
727.703	0.0159547
727.781	0.0158983
727.859	0.0160005
727.937	0.0159083
728.015	0.0159180
728.093	0.0161126
728.172	0.0159190
728.250	0.0160260
728.328	0.0159245
728.406	0.0159671
728.484	0.0157960
728.562	0.0158511
728.640	0.0158858
728.718	0.0159694
728.797	0.0158833
728.875	0.0158605
728.953	0.0158965
729.031	0.0159853
729.109	0.0158532
729.187	0.0158449
729.265	0.0158338
729.343	0.0160484
729.422	0.0159074
729.500	0.0158139
729.578	0.0158366
729.656	0.0159212
729.734	0.0158071
729.812	0.0158247
729.890	0.0160133
729.968	0.0157561
730.047	0.0157360
730.125	0.0159599
730.203	0.0160587
730.281	0.0158216
730.359	0.0158730
730.437	0.0159141
730.515	0.0159876
730.593	0.0158958
730.672	0.0159367
730.750	0.0159000
730.828	0.0159687
730.906	0.0160075
730.984	0.0158816
731.062	0.0158723
731.140	0.0159904
731.218	0.0159045
731.297	0.0159287
731.375	0.0160045
731.453	0.0159277
731.531	0.0158418
731.609	0.0158714
731.687	0.0159093
731.765	0.0158035
731.843	0.0158217
731.922	0.0158389
732.000	0.0158261
732.078	0.0159109
732.156	0.0159290
732.234	0.0159563
732.312	0.0159168
732.390	0.0159216
732.468	0.0159627
732.547	0.0159500
732.625	0.0160181
732.703	0.0157833
732.781	0.0158428
732.859	0.0158910
732.937	0.0159193
733.015	0.0158817
733.093	0.0159557
733.172	0.0160293
733.250	0.0159938
733.328	0.0159161
733.406	0.0159447
733.484	0.0159502
733.562	0.0159436
733.640	0.0157874
733.718	0.0157880
733.797	0.0157822
733.875	0.0158540
733.953	0.0158825
734.031	0.0158185
734.109	0.0158364
734.187	0.0159833
734.265	0.0160267
734.343	0.0158791
734.422	0.0159613
734.500	0.0161452
734.578	0.0161134
734.656	0.0162416
734.734	0.0159713
734.812	0.0160820
734.890	0.0159510
734.968	0.0159463
735.047	0.0158978
735.125	0.0159711
735.203	0.0158299
735.281	0.0157266
735.359	0.0157583
735.437	0.0157724
735.515	0.0157803
735.593	0.0157970
735.672	0.0157378
735.750	0.0158650
735.828	0.0158192
735.906	0.0157700
735.984	0.0157206
736.062	0.0159186
736.140	0.0158797
736.218	0.0158523
736.297	0.0158613
736.375	0.0158567
736.453	0.0159985
736.531	0.0160081
736.609	0.0159409
736.687	0.0160395
736.765	0.0160074
736.843	0.0160294
736.922	0.0160225
737.000	0.0159980
737.078	0.0159825
737.156	0.0159366
737.234	0.0158901
737.312	0.0159155
737.390	0.0160374
737.468	0.0160658
737.547	0.0160194
737.625	0.0160359
737.703	0.0162179
737.781	0.0158520
737.859	0.0158918
737.937	0.0158430
738.015	0.0158654
738.093	0.0159132
738.172	0.0158558
738.250	0.0157368
738.328	0.0155807
738.406	0.0157686
738.484	0.0158018
738.562	0.0158347
738.640	0.0159477
738.718	0.0158055
738.797	0.0158064
738.875	0.0158835
738.953	0.0158558
739.031	0.0159016
739.109	0.0159795
739.187	0.0159440
739.265	0.0159041
739.343	0.0157912
739.422	0.0158118
739.500	0.0157414
739.578	0.0157096
739.656	0.0156384
739.734	0.0158435
739.812	0.0157909
739.890	0.0158138
739.968	0.0158570
740.047	0.0160095
740.125	0.0158511
740.203	0.0159388
740.281	0.0160415
740.359	0.0162228
740.437	0.0160388
740.515	0.0162026
740.593	0.0163605
740.672	0.0161953
740.750	0.0162218
740.828	0.0163342
740.906	0.0163680
740.984	0.0161276
741.062	0.0161948
741.140	0.0160479
741.218	0.0157977
741.297	0.0158739
741.375	0.0157610
741.453	0.0157607
741.531	0.0156806
741.609	0.0156428
741.687	0.0155711
741.765	0.0155043
741.843	0.0155569
741.922	0.0155829
742.000	0.0156313
742.078	0.0155795
742.156	0.0155572
742.234	0.0158118
742.312	0.0157771
742.390	0.0158487
742.468	0.0159714
742.547	0.0156023
742.625	0.0157896
742.703	0.0158678
742.781	0.0158674
742.859	0.0159962
742.937	0.0161456
743.015	0.0159212
743.093	0.0159131
743.172	0.0160699
743.250	0.0160038
743.328	0.0162225
743.406	0.0161134
743.484	0.0161958
743.562	0.0160297
743.640	0.0160691
743.718	0.0161604
743.797	0.0160196
743.875	0.0159654
743.953	0.0160374
744.031	0.0158862
744.109	0.0159014
744.187	0.0158604
744.265	0.0159721
744.343	0.0158604
744.422	0.0159251
744.500	0.0158544
744.578	0.0159160
744.656	0.0158453
744.734	0.0158009
744.812	0.0157581
744.890	0.0158492
744.968	0.0159399
745.047	0.0158450
745.125	0.0158279
745.203	0.0158299
745.281	0.0158160
745.359	0.0158434
745.437	0.0158193
745.515	0.0158801
745.593	0.0157462
745.672	0.0158308
745.750	0.0158720
745.828	0.0158482
745.906	0.0156857
745.984	0.0157426
746.062	0.0157845
746.140	0.0156718
746.218	0.0156937
746.297	0.0158056
746.375	0.0156339
746.453	0.0156422
746.531	0.0158882
746.609	0.0157859
746.687	0.0158037
746.765	0.0158878
746.843	0.0158650
746.922	0.0159092
747.000	0.0159505
747.078	0.0160937
747.156	0.0160033
747.234	0.0160206
747.312	0.0160461
747.390	0.0159180
747.468	0.0158565
747.547	0.0159203
747.625	0.0160410
747.703	0.0159970
747.781	0.0159095
747.859	0.0158818
747.937	0.0159438
748.015	0.0160487
748.093	0.0160530
748.172	0.0160602
748.250	0.0160110
748.328	0.0160291
748.406	0.0160598
748.484	0.0160333
748.562	0.0160555
748.640	0.0160605
748.718	0.0160484
748.797	0.0159831
748.875	0.0159718
748.953	0.0159869
749.031	0.0160517
749.109	0.0158679
749.187	0.0158061
749.265	0.0158606
749.343	0.0157697
749.422	0.0156918
749.500	0.0156503
749.578	0.0156193
749.656	0.0157745
749.734	0.0157253
749.812	0.0156799
749.890	0.0157085
749.968	0.0158422
750.047	0.0159312
750.125	0.0158092
750.203	0.0158247
750.281	0.0159278
750.359	0.0160149
750.437	0.0160509
750.515	0.0159948
750.593	0.0160282
750.672	0.0159043
750.750	0.0159476
750.828	0.0159673
750.906	0.0158323
750.984	0.0158313
751.062	0.0159334
751.140	0.0158926
751.218	0.0157943
751.297	0.0157184
751.375	0.0155599
751.453	0.0157861
751.531	0.0157037
751.609	0.0157777
751.687	0.0158632
751.765	0.0157504
751.843	0.0158535
751.922	0.0159166
752.000	0.0160066
752.078	0.0159292
752.156	0.0159385
752.234	0.0157866
752.312	0.0160140
752.390	0.0160229
752.468	0.0160374
752.547	0.0159290
752.625	0.0161086
752.703	0.0160876
752.781	0.0159468
752.859	0.0159138
752.937	0.0159794
753.015	0.0160468
753.093	0.0159221
753.172	0.0162250
753.250	0.0160789
753.328	0.0160389
753.406	0.0160448
753.484	0.0160351
753.562	0.0161326
753.640	0.0162170
753.718	0.0159983
753.797	0.0160468
753.875	0.0161079
753.953	0.0159574
754.031	0.0158622
754.109	0.0160176
754.187	0.0158866
754.265	0.0158785
754.343	0.0157484
754.422	0.0157748
754.500	0.0157305
754.578	0.0155528
754.656	0.0155828
754.734	0.0156149
754.812	0.0155967
754.890	0.0156509
754.968	0.0156174
755.047	0.0155908
755.125	0.0156688
755.203	0.0157964
755.281	0.0155662
755.359	0.0156400
755.437	0.0158697
755.515	0.0157368
755.593	0.0158649
755.672	0.0158475
755.750	0.0158267
755.828	0.0157892
755.906	0.0159453
755.984	0.0159172
756.062	0.0158932
756.140	0.0159144
756.218	0.0159741
756.297	0.0157803
756.375	0.0159166
756.453	0.0159782
756.531	0.0159441
756.609	0.0158910
756.687	0.0159914
756.765	0.0158382
756.843	0.0160089
756.922	0.0160085
757.000	0.0160392
757.078	0.0158312
757.156	0.0158004
757.234	0.0159721
757.312	0.0160228
757.390	0.0159196
757.468	0.0158534
757.547	0.0158913
757.625	0.0157742
757.703	0.0156935
757.781	0.0157459
757.859	0.0158546
757.937	0.0158817
758.015	0.0159521
758.093	0.0158750
758.172	0.0159212
758.250	0.0159038
758.328	0.0158463
758.406	0.0159398
758.484	0.0161300
758.562	0.0161132
758.640	0.0160037
758.718	0.0159770
758.797	0.0160849
758.875	0.0160235
758.953	0.0159701
759.031	0.0160813
759.109	0.0160471
759.187	0.0159580
759.265	0.0160153
759.343	0.0159794
759.422	0.0158775
759.500	0.0158965
759.578	0.0160507
759.656	0.0159764
759.734	0.0159139
759.812	0.0158792
759.890	0.0159387
759.968	0.0157632
760.047	0.0157241
760.125	0.0158391
760.203	0.0158425
760.281	0.0156912
760.359	0.0157232
760.437	0.0157368
760.515	0.0156923
760.593	0.0158554
760.672	0.0157212
760.750	0.0157803
760.828	0.0157860
760.906	0.0157368
760.984	0.0157095
761.062	0.0157483
761.140	0.0157538
761.218	0.0158688
761.297	0.0160094
761.375	0.0159429
761.453	0.0159627
761.531	0.0159562
761.609	0.0160491
761.687	0.0162059
761.765	0.0161388
761.843	0.0161790
761.922	0.0162093
762.000	0.0161835
762.078	0.0161773
762.156	0.0161962
762.234	0.0160854
762.312	0.0160477
762.390	0.0160089
762.468	0.0158855
762.547	0.0159825
762.625	0.0158810
762.703	0.0157746
762.781	0.0158412
762.859	0.0158636
762.937	0.0156789
763.015	0.0158154
763.093	0.0159464
763.172	0.0157787
763.250	0.0158264
763.328	0.0157522
763.406	0.0156660
763.484	0.0156715
763.562	0.0157303
763.640	0.0157037
763.718	0.0155592
763.797	0.0157702
763.875	0.0157169
763.953	0.0157132
764.031	0.0157574
764.109	0.0159466
764.187	0.0158956
764.265	0.0158450
764.343	0.0158942
764.422	0.0159167
764.500	0.0160069
764.578	0.0159061
764.656	0.0159798
764.734	0.0160583
764.812	0.0158585
764.890	0.0158578
764.968	0.0158649
765.047	0.0158402
765.125	0.0158931
765.203	0.0157880
765.281	0.0157112
765.359	0.0156577
765.437	0.0155798
765.515	0.0156854
765.593	0.0157100
765.672	0.0157262
765.750	0.0157104
765.828	0.0157388
765.906	0.0156953
765.984	0.0157905
766.062	0.0158473
766.140	0.0158784
766.218	0.0159319
766.297	0.0159673
766.375	0.0160879
766.453	0.0159296
766.531	0.0159394
766.609	0.0159637
766.687	0.0161517
766.765	0.0160911
766.843	0.0160867
766.922	0.0159627
767.000	0.0159142
767.078	0.0158775
767.156	0.0160365
767.234	0.0159443
767.312	0.0158878
767.390	0.0160093
767.468	0.0159671
767.547	0.0158397
767.625	0.0157275
767.703	0.0159726
767.781	0.0159804
767.859	0.0159695
767.937	0.0158058
768.015	0.0158932
768.093	0.0161239
768.172	0.0159532
768.250	0.0159772
768.328	0.0159235
768.406	0.0159058
768.484	0.0158633
768.562	0.0156705
768.640	0.0158868
768.718	0.0157903
768.797	0.0158369
768.875	0.0158492
768.953	0.0159470
769.031	0.0158917
769.109	0.0158846
769.187	0.0157914
769.265	0.0160296
769.343	0.0160812
769.422	0.0160143
769.500	0.0159230
769.578	0.0160442
769.656	0.0161042
769.734	0.0159561
769.812	0.0159111
769.890	0.0159429
769.968	0.0159624
770.047	0.0159278
770.125	0.0159727
770.203	0.0159193
770.281	0.0158730
770.359	0.0158693
770.437	0.0157774
770.515	0.0157974
770.593	0.0158772
770.672	0.0158475
770.750	0.0158795
770.828	0.0158530
770.906	0.0157016
770.984	0.0157841
771.062	0.0156731
771.140	0.0156700
771.218	0.0158186
771.297	0.0157982
771.375	0.0156636
771.453	0.0155973
771.531	0.0158330
771.609	0.0159060
771.687	0.0158454
771.765	0.0158076
771.843	0.0157181
771.922	0.0157806
772.000	0.0158160
772.078	0.0160460
772.156	0.0157665
772.234	0.0160646
772.312	0.0161125
772.390	0.0159986
772.468	0.0160371
772.547	0.0159342
772.625	0.0160126
772.703	0.0160416
772.781	0.0160088
772.859	0.0159458
772.937	0.0158476
773.015	0.0158766
773.093	0.0158898
773.172	0.0158094
773.250	0.0158480
773.328	0.0157843
773.406	0.0157813
773.484	0.0159180
773.562	0.0158510
773.640	0.0159960
773.718	0.0159988
773.797	0.0158950
773.875	0.0159859
773.953	0.0160912
774.031	0.0161041
774.109	0.0162179
774.187	0.0161653
774.265	0.0161686
774.343	0.0161570
774.422	0.0160741
774.500	0.0159470
774.578	0.0159392
774.656	0.0160055
774.734	0.0159187
774.812	0.0159352
774.890	0.0158537
774.968	0.0160427
775.047	0.0157660
775.125	0.0156620
775.203	0.0157772
775.281	0.0157845
775.359	0.0156915
775.437	0.0157337
775.515	0.0157240
775.593	0.0156947
775.672	0.0156270
775.750	0.0156635
775.828	0.0156539
775.906	0.0158961
775.984	0.0160295
776.062	0.0159205
776.140	0.0157661
776.218	0.0158824
776.297	0.0159267
776.375	0.0158235
776.453	0.0159937
776.531	0.0159029
776.609	0.0158479
776.687	0.0159061
776.765	0.0159822
776.843	0.0159258
776.922	0.0158658
777.000	0.0159382
777.078	0.0158958
777.156	0.0158472
777.234	0.0158340
777.312	0.0158521
777.390	0.0159237
777.468	0.0159405
777.547	0.0158684
777.625	0.0159187
777.703	0.0158466
777.781	0.0158131
777.859	0.0158096
777.937	0.0159113
778.015	0.0159301
778.093	0.0160250
778.172	0.0158220
778.250	0.0158537
778.328	0.0158157
778.406	0.0157968
778.484	0.0157792
778.562	0.0158024
778.640	0.0158403
778.718	0.0159485
778.797	0.0159309
778.875	0.0158278
778.953	0.0159334
779.031	0.0157722
779.109	0.0157809
779.187	0.0159555
779.265	0.0158328
779.343	0.0157391
779.422	0.0159317
779.500	0.0159172
779.578	0.0159605
779.656	0.0157765
779.734	0.0159090
779.812	0.0159006
779.890	0.0160947
779.968	0.0160056
780.047	0.0158896
780.125	0.0158307
780.203	0.0159013
780.281	0.0158155
780.359	0.0159142
780.437	0.0160479
780.515	0.0159102
780.593	0.0159608
780.672	0.0159691
780.750	0.0159964
780.828	0.0158771
780.906	0.0158020
780.984	0.0159177
781.062	0.0158320
781.140	0.0157924
781.218	0.0159228
781.297	0.0158978
781.375	0.0159046
781.453	0.0158223
781.531	0.0159142
781.609	0.0159077
781.687	0.0158557
781.765	0.0156738
781.843	0.0158090
781.922	0.0158128
782.000	0.0158965
782.078	0.0159435
782.156	0.0159766
782.234	0.0158859
782.312	0.0158266
782.390	0.0158868
782.468	0.0157935
782.547	0.0158643
782.625	0.0158533
782.703	0.0157436
782.781	0.0157928
782.859	0.0158114
782.937	0.0157216
783.015	0.0158318
783.093	0.0157005
783.172	0.0158543
783.250	0.0157361
783.328	0.0157085
783.406	0.0157648
783.484	0.0158273
783.562	0.0158417
783.640	0.0159075
783.718	0.0158754
783.797	0.0159032
783.875	0.0159910
783.953	0.0159746
784.031	0.0158978
784.109	0.0159100
784.187	0.0159871
784.265	0.0158946
784.343	0.0158625
784.422	0.0159790
784.500	0.0159293
784.578	0.0158212
784.656	0.0158566
784.734	0.0158463
784.812	0.0159365
784.890	0.0159503
784.968	0.0159560
785.047	0.0158942
785.125	0.0158389
785.203	0.0159100
785.281	0.0158806
785.359	0.0158956
785.437	0.0158725
785.515	0.0158894
785.593	0.0159939
785.672	0.0158187
785.750	0.0158157
785.828	0.0158390
785.906	0.0158567
785.984	0.0158371
786.062	0.0157330
786.140	0.0157711
786.218	0.0157835
786.297	0.0157479
786.375	0.0158789
786.453	0.0159623
786.531	0.0158446
786.609	0.0158109
786.687	0.0157668
786.765	0.0158228
786.843	0.0158185
786.922	0.0158288
787.000	0.0158857
787.078	0.0158914
787.156	0.0158662
787.234	0.0158482
787.312	0.0157814
787.390	0.0158706
787.468	0.0157596
787.547	0.0155910
787.625	0.0158203
787.703	0.0157822
787.781	0.0158028
787.859	0.0157521
787.937	0.0159175
788.015	0.0159874
788.093	0.0159718
788.172	0.0159403
788.250	0.0158922
788.328	0.0160080
788.406	0.0160058
788.484	0.0160075
788.562	0.0158424
788.640	0.0158611
788.718	0.0158800
788.797	0.0159787
788.875	0.0161256
788.953	0.0158968
789.031	0.0158461
789.109	0.0160233
789.187	0.0159651
789.265	0.0159123
789.343	0.0159744
789.422	0.0160368
789.500	0.0159618
789.578	0.0158924
789.656	0.0159385
789.734	0.0158866
789.812	0.0156848
789.890	0.0157813
789.968	0.0158582
790.047	0.0159215
790.125	0.0158833
790.203	0.0159235
790.281	0.0157992
790.359	0.0158007
790.437	0.0158198
790.515	0.0159550
790.593	0.0158507
790.672	0.0159885
790.750	0.0157990
790.828	0.0158492
790.906	0.0158375
790.984	0.0158946
791.062	0.0157917
791.140	0.0157375
791.218	0.0159145
791.297	0.0158694
791.375	0.0158026
791.453	0.0157574
791.531	0.0157661
791.609	0.0158149
791.687	0.0158321
791.765	0.0157024
791.843	0.0158423
791.922	0.0158920
792.000	0.0159650
792.078	0.0159434
792.156	0.0158437
792.234	0.0157297
792.312	0.0157685
792.390	0.0159036
792.468	0.0158514
792.547	0.0159158
792.625	0.0160090
792.703	0.0156927
792.781	0.0157265
792.859	0.0158559
792.937	0.0157680
793.015	0.0157809
793.093	0.0158797
793.172	0.0159061
793.250	0.0157114
793.328	0.0157454
793.406	0.0158714
793.484	0.0156709
793.562	0.0158765
793.640	0.0157111
793.718	0.0158899
793.797	0.0158627
793.875	0.0159016
793.953	0.0157993
794.031	0.0158282
794.109	0.0160186
794.187	0.0158218
794.265	0.0158723
794.343	0.0159264
794.422	0.0160513
794.500	0.0160066
794.578	0.0158758
794.656	0.0159145
794.734	0.0159225
794.812	0.0160075
794.890	0.0159162
794.968	0.0159147
795.047	0.0158505
795.125	0.0159245
795.203	0.0159332
795.281	0.0159322
795.359	0.0160490
795.437	0.0159777
795.515	0.0159399
795.593	0.0158784
795.672	0.0158099
795.750	0.0158737
795.828	0.0158444
795.906	0.0158340
795.984	0.0157990
796.062	0.0159480
796.140	0.0158562
796.218	0.0157323
796.297	0.0158415
796.375	0.0159659
796.453	0.0159987
796.531	0.0159396
796.609	0.0159650
796.687	0.0160907
796.765	0.0159989
796.843	0.0159566
796.922	0.0159891
797.000	0.0160669
797.078	0.0160487
797.156	0.0159439
797.234	0.0160238
797.312	0.0159964
797.390	0.0158871
797.468	0.0158769
797.547	0.0159209
797.625	0.0159694
797.703	0.0159181
797.781	0.0161533
797.859	0.0158945
797.937	0.0157923
798.015	0.0159944
798.093	0.0158044
798.172	0.0158592
798.250	0.0158891
798.328	0.0158015
798.406	0.0157913
798.484	0.0158086
798.562	0.0158957
798.640	0.0157813
798.718	0.0157813
798.797	0.0157214
798.875	0.0159278
798.953	0.0158045
799.031	0.0157211
799.109	0.0157946
799.187	0.0157406
799.265	0.0158217
799.343	0.0159132
799.422	0.0158215
799.500	0.0157982
799.578	0.0159890
799.656	0.0158539
799.734	0.0158881
799.812	0.0158744
799.890	0.0160824
799.968	0.0160361
800.047	0.0160516
800.125	0.0160524
800.203	0.0159425
800.281	0.0158266
800.359	0.0160176
800.437	0.0160094
800.515	0.0159019
800.593	0.0160696
800.672	0.0160133
800.750	0.0160304
800.828	0.0159899
800.906	0.0159287
800.984	0.0158961
801.062	0.0159475
801.140	0.0159747
801.218	0.0159502
801.297	0.0158727
801.375	0.0158313
801.453	0.0159214
801.531	0.0157890
801.609	0.0159004
801.687	0.0158401
801.765	0.0158403
801.843	0.0158790
801.922	0.0158081
802.000	0.0158043
802.078	0.0158089
802.156	0.0157800
802.234	0.0157805
802.312	0.0158575
802.390	0.0158292
802.468	0.0158224
802.547	0.0159508
802.625	0.0158326
802.703	0.0157607
802.781	0.0158027
802.859	0.0159137
802.937	0.0157661
803.015	0.0157817
803.093	0.0159481
803.172	0.0158351
803.250	0.0158864
803.328	0.0158353
803.406	0.0159233
803.484	0.0158232
803.562	0.0158881
803.640	0.0159361
803.718	0.0158598
803.797	0.0159522
803.875	0.0158105
803.953	0.0159260
804.031	0.0158530
804.109	0.0158162
804.187	0.0158720
804.265	0.0159898
804.343	0.0158378
804.422	0.0158556
804.500	0.0158808
804.578	0.0159483
804.656	0.0158601
804.734	0.0158152
804.812	0.0159338
804.890	0.0157871
804.968	0.0158511
805.047	0.0160063
805.125	0.0158420
805.203	0.0159343
805.281	0.0159747
805.359	0.0158241
805.437	0.0158394
805.515	0.0158576
805.593	0.0159454
805.672	0.0159529
805.750	0.0159766
805.828	0.0158804
805.906	0.0158482
805.984	0.0159121
806.062	0.0159581
806.140	0.0158519
806.218	0.0157886
806.297	0.0159543
806.375	0.0159044
806.453	0.0159325
806.531	0.0159050
806.609	0.0158012
806.687	0.0157557
806.765	0.0159544
806.843	0.0158283
806.922	0.0157941
807.000	0.0158402
807.078	0.0158808
807.156	0.0157457
807.234	0.0158072
807.312	0.0157785
807.390	0.0157753
807.468	0.0159087
807.547	0.0157824
807.625	0.0158905
807.703	0.0158231
807.781	0.0158437
807.859	0.0157584
807.937	0.0157909
808.015	0.0159621
808.093	0.0159400
808.172	0.0158582
808.250	0.0158757
808.328	0.0159569
808.406	0.0158398
808.484	0.0158803
808.562	0.0159304
808.640	0.0160210
808.718	0.0159879
808.797	0.0159930
808.875	0.0159044
808.953	0.0158892
809.031	0.0159256
809.109	0.0158918
809.187	0.0158069
809.265	0.0159907
809.343	0.0158105
809.422	0.0159637
809.500	0.0159438
809.578	0.0160772
809.656	0.0159232
809.734	0.0158983
809.812	0.0158604
809.890	0.0159544
809.968	0.0158826
810.047	0.0158949
810.125	0.0157258
810.203	0.0158086
810.281	0.0159036
810.359	0.0158923
810.437	0.0157010
810.515	0.0157471
810.593	0.0159598
810.672	0.0159046
810.750	0.0158454
810.828	0.0158154
810.906	0.0157129
810.984	0.0157760
811.062	0.0159705
811.140	0.0159167
811.218	0.0158508
811.297	0.0158611
811.375	0.0159765
811.453	0.0159215
811.531	0.0159709
811.609	0.0158682
811.687	0.0159035
811.765	0.0158884
811.843	0.0158979
811.922	0.0158864
812.000	0.0159302
812.078	0.0158656
812.156	0.0158769
812.234	0.0159519
812.312	0.0158660
812.390	0.0159007
812.468	0.0158110
812.547	0.0159280
812.625	0.0158459
812.703	0.0158929
812.781	0.0158931
812.859	0.0158630
812.937	0.0156681
813.015	0.0159573
813.093	0.0158555
813.172	0.0158275
813.250	0.0157790
813.328	0.0157395
813.406	0.0158409
813.484	0.0158659
813.562	0.0159789
813.640	0.0158009
813.718	0.0158317
813.797	0.0157719
813.875	0.0159269
813.953	0.0159925
814.031	0.0158710
814.109	0.0157796
814.187	0.0158699
814.265	0.0158987
814.343	0.0158635
814.422	0.0158884
814.500	0.0160204
814.578	0.0158855
814.656	0.0158782
814.734	0.0158743
814.812	0.0159090
814.890	0.0158584
814.968	0.0158546
815.047	0.0158160
815.125	0.0159174
815.203	0.0158810
815.281	0.0159380
815.359	0.0159322
815.437	0.0160326
815.515	0.0160471
815.593	0.0159317
815.672	0.0159304
815.750	0.0159405
815.828	0.0158835
815.906	0.0157046
815.984	0.0157828
816.062	0.0160518
816.140	0.0159362
816.218	0.0158170
816.297	0.0159774
816.375	0.0160775
816.453	0.0158007
816.531	0.0159023
816.609	0.0158082
816.687	0.0158848
816.765	0.0159069
816.843	0.0157439
816.922	0.0158253
817.000	0.0158080
817.078	0.0159725
817.156	0.0157384
817.234	0.0156940
817.312	0.0158459
817.390	0.0156482
817.468	0.0157628
817.547	0.0158915
817.625	0.0158088
817.703	0.0158117
817.781	0.0159058
817.859	0.0158788
817.937	0.0157774
818.015	0.0157695
818.093	0.0158318
818.172	0.0158327
818.250	0.0158978
818.328	0.0159254
818.406	0.0159295
818.484	0.0158314
818.562	0.0157295
818.640	0.0159628
818.718	0.0160518
818.797	0.0158469
818.875	0.0158339
818.953	0.0157941
819.031	0.0159219
819.109	0.0159384
819.187	0.0158977
819.265	0.0157909
819.343	0.0157912
819.422	0.0159304
819.500	0.0160228
819.578	0.0158217
819.656	0.0157846
819.734	0.0159203
819.812	0.0159529
819.890	0.0159090
819.968	0.0157745
820.047	0.0158931
820.125	0.0158371
820.203	0.0158558
820.281	0.0159125
820.359	0.0158761
820.437	0.0158971
820.515	0.0158925
820.593	0.0158279
820.672	0.0158730
820.750	0.0157738
820.828	0.0158145
820.906	0.0159158
820.984	0.0158222
821.062	0.0158680
821.140	0.0157930
821.218	0.0158820
821.297	0.0158303
821.375	0.0159663
821.453	0.0158987
821.531	0.0158379
821.609	0.0158891
821.687	0.0159232
821.765	0.0158990
821.843	0.0160692
821.922	0.0159493
822.000	0.0160528
822.078	0.0159805
822.156	0.0159402
822.234	0.0158967
822.312	0.0158559
822.390	0.0158973
822.468	0.0159933
822.547	0.0159062
822.625	0.0159571
822.703	0.0158189
822.781	0.0158676
822.859	0.0158316
822.937	0.0158250
823.015	0.0157871
823.093	0.0156981
823.172	0.0158816
823.250	0.0159156
823.328	0.0158275
823.406	0.0158875
823.484	0.0157803
823.562	0.0158901
823.640	0.0159642
823.718	0.0158478
823.797	0.0158437
823.875	0.0157475
823.953	0.0159928
824.031	0.0158492
824.109	0.0158207
824.187	0.0159503
824.265	0.0157990
824.343	0.0157877
824.422	0.0159657
824.500	0.0157875
824.578	0.0158625
824.656	0.0158762
824.734	0.0157515
824.812	0.0158489
824.890	0.0158495
824.968	0.0159018
825.047	0.0158355
825.125	0.0158464
825.203	0.0158547
825.281	0.0158620
825.359	0.0156729
825.437	0.0157885
825.515	0.0159531
825.593	0.0158839
825.672	0.0159435
825.750	0.0158608
825.828	0.0158335
825.906	0.0158704
825.984	0.0158786
826.062	0.0158722
826.140	0.0158738
826.218	0.0157912
826.297	0.0158739
826.375	0.0158248
826.453	0.0158326
826.531	0.0157881
826.609	0.0156553
826.687	0.0158867
826.765	0.0160056
826.843	0.0158363
826.922	0.0157729
827.000	0.0159885
827.078	0.0158279
827.156	0.0158521
827.234	0.0159126
827.312	0.0159710
827.390	0.0158982
827.468	0.0158196
827.547	0.0159468
827.625	0.0159377
827.703	0.0159814
827.781	0.0159406
827.859	0.0159770
827.937	0.0159790
828.015	0.0158903
828.093	0.0159896
828.172	0.0157884
828.250	0.0157957
828.328	0.0158743
828.406	0.0159243
828.484	0.0157910
828.562	0.0157887
828.640	0.0157420
828.718	0.0158157
828.797	0.0157872
828.875	0.0158393
828.953	0.0158405
829.031	0.0158285
829.109	0.0158073
829.187	0.0159244
829.265	0.0157976
829.343	0.0157492
829.422	0.0158575
829.500	0.0159236
829.578	0.0159167
829.656	0.0157891
829.734	0.0159329
829.812	0.0159200
829.890	0.0158096
829.968	0.0159972
830.047	0.0159868
830.125	0.0158186
830.203	0.0158156
830.281	0.0159395
830.359	0.0157396
830.437	0.0157637
830.515	0.0159468
830.593	0.0160493
830.672	0.0158002
830.750	0.0159142
830.828	0.0158722
830.906	0.0158276
830.984	0.0159380
831.062	0.0159402
831.140	0.0160002
831.218	0.0158556
831.297	0.0159449
831.375	0.0158696
831.453	0.0158914
831.531	0.0159010
831.609	0.0158688
831.687	0.0159029
831.765	0.0158566
831.843	0.0158989
831.922	0.0159219
832.000	0.0157866
832.078	0.0158479
832.156	0.0159270
832.234	0.0159177
832.312	0.0157874
832.390	0.0157951
832.468	0.0157275
832.547	0.0158459
832.625	0.0157717
832.703	0.0158355
832.781	0.0159380
832.859	0.0157725
832.937	0.0157473
833.015	0.0158430
833.093	0.0157885
833.172	0.0158183
833.250	0.0158062
833.328	0.0158567
833.406	0.0158977
833.484	0.0158496
833.562	0.0158645
833.640	0.0158589
833.718	0.0158436
833.797	0.0157636
833.875	0.0159229
833.953	0.0157857
834.031	0.0158307
834.109	0.0159393
834.187	0.0158098
834.265	0.0159500
834.343	0.0159246
834.422	0.0157223
834.500	0.0158550
834.578	0.0158076
834.656	0.0157085
834.734	0.0157027
834.812	0.0159930
834.890	0.0159238
834.968	0.0157210
835.047	0.0157806
835.125	0.0158392
835.203	0.0159023
835.281	0.0160544
835.359	0.0157907
835.437	0.0159603
835.515	0.0159193
835.593	0.0157478
835.672	0.0159028
835.750	0.0157620
835.828	0.0158345
835.906	0.0158167
835.984	0.0158765
836.062	0.0158649
836.140	0.0158314
836.218	0.0157965
836.297	0.0157915
836.375	0.0158292
836.453	0.0160439
836.531	0.0157940
836.609	0.0158386
836.687	0.0159068
836.765	0.0159608
836.843	0.0158283
836.922	0.0158566
837.000	0.0159521
837.078	0.0159373
837.156	0.0159343
837.234	0.0158562
837.312	0.0159390
837.390	0.0159624
837.468	0.0159267
837.547	0.0159006
837.625	0.0159197
837.703	0.0159694
837.781	0.0157645
837.859	0.0156329
837.937	0.0158109
838.015	0.0158468
838.093	0.0158444
838.172	0.0158482
838.250	0.0157395
838.328	0.0158370
838.406	0.0158792
838.484	0.0158816
838.562	0.0157896
838.640	0.0157822
838.718	0.0158111
838.797	0.0157473
838.875	0.0159054
838.953	0.0158560
839.031	0.0158076
839.109	0.0159376
839.187	0.0158675
839.265	0.0159113
839.343	0.0159672
839.422	0.0158801
839.500	0.0159789
839.578	0.0158825
839.656	0.0159870
839.734	0.0160110
839.812	0.0161034
839.890	0.0159266
839.968	0.0159080
840.047	0.0158582
840.125	0.0158586
840.203	0.0159459
840.281	0.0159612
840.359	0.0160995
840.437	0.0159650
840.515	0.0159518
840.593	0.0159192
840.672	0.0158044
840.750	0.0158005
840.828	0.0158643
840.906	0.0157912
840.984	0.0159347
841.062	0.0159134
841.140	0.0157603
841.218	0.0157909
841.297	0.0159164
841.375	0.0159200
841.453	0.0158907
841.531	0.0157943
841.609	0.0158458
841.687	0.0158456
841.765	0.0157530
841.843	0.0159212
841.922	0.0158421
842.000	0.0159111
842.078	0.0158434
842.156	0.0159275
842.234	0.0158241
842.312	0.0158378
842.390	0.0159027
842.468	0.0158665
842.547	0.0160148
842.625	0.0159284
842.703	0.0158795
842.781	0.0157642
842.859	0.0157806
842.937	0.0159959
843.015	0.0159270
843.093	0.0159322
843.172	0.0160186
843.250	0.0158108
843.328	0.0157835
843.406	0.0158669
843.484	0.0158153
843.562	0.0157951
843.640	0.0158354
843.718	0.0158022
843.797	0.0157253
843.875	0.0157849
843.953	0.0156681
844.031	0.0158530
844.109	0.0158306
844.187	0.0159637
844.265	0.0158392
844.343	0.0158052
844.422	0.0158555
844.500	0.0158433
844.578	0.0158613
844.656	0.0159258
844.734	0.0158294
844.812	0.0158354
844.890	0.0157921
844.968	0.0160007
845.047	0.0160072
845.125	0.0159994
845.203	0.0158709
845.281	0.0158308
845.359	0.0158054
845.437	0.0157835
845.515	0.0158277
845.593	0.0158552
845.672	0.0158369
845.750	0.0160154
845.828	0.0157396
845.906	0.0158452
845.984	0.0159167
846.062	0.0157803
846.140	0.0158530
846.218	0.0157584
846.297	0.0158524
846.375	0.0158126
846.453	0.0158165
846.531	0.0157167
846.609	0.0159063
846.687	0.0159097
846.765	0.0159040
846.843	0.0157967
846.922	0.0158348
847.000	0.0158862
847.078	0.0160326
847.156	0.0158907
847.234	0.0160077
847.312	0.0158708
847.390	0.0159026
847.468	0.0158007
847.547	0.0160136
847.625	0.0158286
847.703	0.0157130
847.781	0.0157271
847.859	0.0157641
847.937	0.0158736
848.015	0.0159536
848.093	0.0159315
848.172	0.0158626
848.250	0.0157641
848.328	0.0158511
848.406	0.0158219
848.484	0.0158148
848.562	0.0159533
848.640	0.0158902
848.718	0.0158624
848.797	0.0158279
848.875	0.0158826
848.953	0.0158672
849.031	0.0157912
849.109	0.0159198
849.187	0.0157918
849.265	0.0158585
849.343	0.0160390
849.422	0.0158229
849.500	0.0158437
849.578	0.0159760
849.656	0.0160232
849.734	0.0159245
849.812	0.0158969
849.890	0.0160328
849.968	0.0159760
850.047	0.0159171
850.125	0.0159702
850.203	0.0160219
850.281	0.0160648
850.359	0.0159253
850.437	0.0159009
850.515	0.0159502
850.593	0.0159071
850.672	0.0159275
850.750	0.0158494
850.828	0.0158855
850.906	0.0157318
850.984	0.0158324
851.062	0.0158347
851.140	0.0156255
851.218	0.0158160
851.297	0.0158097
851.375	0.0157626
851.453	0.0157294
851.531	0.0156499
851.609	0.0157914
851.687	0.0157500
851.765	0.0157475
851.843	0.0158163
851.922	0.0159702
852.000	0.0159418
852.078	0.0160171
852.156	0.0159039
852.234	0.0159835
852.312	0.0157650
852.390	0.0159164
852.468	0.0159783
852.547	0.0158844
852.625	0.0159448
852.703	0.0159779
852.781	0.0159839
852.859	0.0159895
852.937	0.0158523
853.015	0.0159677
853.093	0.0159561
853.172	0.0158445
853.250	0.0159141
853.328	0.0158260
853.406	0.0159153
853.484	0.0158636
853.562	0.0159603
853.640	0.0158414
853.718	0.0158920
853.797	0.0157438
853.875	0.0159502
853.953	0.0157880
854.031	0.0156848
854.109	0.0158075
854.187	0.0156700
854.265	0.0158110
854.343	0.0157970
854.422	0.0158182
854.500	0.0158061
854.578	0.0158660
854.656	0.0158311
854.734	0.0157724
854.812	0.0158340
854.890	0.0158614
854.968	0.0158677
855.047	0.0156556
855.125	0.0158035
855.203	0.0157749
855.281	0.0157671
855.359	0.0158986
855.437	0.0157323
855.515	0.0158041
855.593	0.0158212
855.672	0.0158311
855.750	0.0158733
855.828	0.0158069
855.906	0.0159846
855.984	0.0158823
856.062	0.0158463
856.140	0.0158962
856.218	0.0157632
856.297	0.0158374
856.375	0.0158667
856.453	0.0158701
856.531	0.0159328
856.609	0.0158412
856.687	0.0159365
856.765	0.0157716
856.843	0.0159203
856.922	0.0159470
857.000	0.0159682
857.078	0.0159702
857.156	0.0159783
857.234	0.0158684
857.312	0.0159853
857.390	0.0158767
857.468	0.0157715
857.547	0.0158288
857.625	0.0160387
857.703	0.0159212
857.781	0.0158104
857.859	0.0158536
857.937	0.0158938
858.015	0.0158068
858.093	0.0157536
858.172	0.0159364
858.250	0.0157803
858.328	0.0158018
858.406	0.0157858
858.484	0.0157909
858.562	0.0157791
858.640	0.0159653
858.718	0.0158792
858.797	0.0158392
858.875	0.0156886
858.953	0.0157729
859.031	0.0157922
859.109	0.0158295
859.187	0.0159333
859.265	0.0157964
859.343	0.0158203
859.422	0.0158773
859.500	0.0158511
859.578	0.0157723
859.656	0.0159094
859.734	0.0158210
859.812	0.0157428
859.890	0.0159111
859.968	0.0157855
860.047	0.0159566
860.125	0.0157982
860.203	0.0157679
860.281	0.0157638
860.359	0.0158156
860.437	0.0159200
860.515	0.0158961
860.593	0.0156522
860.672	0.0156876
860.750	0.0157884
860.828	0.0156728
860.906	0.0157786
860.984	0.0158115
861.062	0.0158053
861.140	0.0159232
861.218	0.0158914
861.297	0.0158469
861.375	0.0158332
861.453	0.0158553
861.531	0.0160425
861.609	0.0157803
861.687	0.0160197
861.765	0.0160412
861.843	0.0160178
861.922	0.0158387
862.000	0.0160245
862.078	0.0160642
862.156	0.0160149
862.234	0.0158485
862.312	0.0159648
862.390	0.0161140
862.468	0.0160771
862.547	0.0158820
862.625	0.0159628
862.703	0.0159534
862.781	0.0158641
862.859	0.0158613
862.937	0.0157903
863.015	0.0158632
863.093	0.0159688
863.172	0.0158244
863.250	0.0157823
863.328	0.0157414
863.406	0.0157731
863.484	0.0158348
863.562	0.0155965
863.640	0.0156575
863.718	0.0156390
863.797	0.0156062
863.875	0.0158233
863.953	0.0158076
864.031	0.0157333
864.109	0.0157913
864.187	0.0158418
864.265	0.0157762
864.343	0.0158143
864.422	0.0157896
864.500	0.0158842
864.578	0.0158142
864.656	0.0159048
864.734	0.0159605
864.812	0.0158776
864.890	0.0159082
864.968	0.0157712
865.047	0.0159869
865.125	0.0158968
865.203	0.0159634
865.281	0.0160145
865.359	0.0161303
865.437	0.0159855
865.515	0.0160323
865.593	0.0159846
865.672	0.0160072
865.750	0.0157966
865.828	0.0159585
865.906	0.0159975
865.984	0.0160312
866.062	0.0158900
866.140	0.0159315
866.218	0.0159429
866.297	0.0158855
866.375	0.0161010
866.453	0.0158969
866.531	0.0157936
866.609	0.0158723
866.687	0.0158433
866.765	0.0157016
866.843	0.0156484
866.922	0.0157666
867.000	0.0157904
867.078	0.0157721
867.156	0.0156799
867.234	0.0158083
867.312	0.0158292
867.390	0.0157169
867.468	0.0157109
867.547	0.0157466
867.625	0.0156834
867.703	0.0157008
867.781	0.0157037
867.859	0.0160107
867.937	0.0159573
868.015	0.0158122
868.093	0.0159336
868.172	0.0159612
868.250	0.0158938
868.328	0.0158667
868.406	0.0159974
868.484	0.0159081
868.562	0.0160326
868.640	0.0159608
868.718	0.0159457
868.797	0.0160024
868.875	0.0159542
868.953	0.0159058
869.031	0.0157954
869.109	0.0158946
869.187	0.0159438
869.265	0.0158508
869.343	0.0159655
869.422	0.0157290
869.500	0.0157808
869.578	0.0157618
869.656	0.0158289
869.734	0.0159495
869.812	0.0158123
869.890	0.0157896
869.968	0.0158418
870.047	0.0157518
870.125	0.0158412
870.203	0.0157426
870.281	0.0158495
870.359	0.0158345
870.437	0.0157714
870.515	0.0159138
870.593	0.0158640
870.672	0.0158147
870.750	0.0158987
870.828	0.0158587
870.906	0.0158614
870.984	0.0158041
871.062	0.0158598
871.140	0.0159902
871.218	0.0158854
871.297	0.0159016
871.375	0.0158913
871.453	0.0159648
871.531	0.0160304
871.609	0.0158365
871.687	0.0159470
871.765	0.0158091
871.843	0.0158973
871.922	0.0159267
872.000	0.0158490
872.078	0.0157324
872.156	0.0158267
872.234	0.0157614
872.312	0.0156837
872.390	0.0158745
872.468	0.0157796
872.547	0.0157637
872.625	0.0159044
872.703	0.0158073
872.781	0.0158640
872.859	0.0157875
872.937	0.0159451
873.015	0.0158499
873.093	0.0158287
873.172	0.0159250
873.250	0.0158239
873.328	0.0160465
873.406	0.0158056
873.484	0.0158829
873.562	0.0159462
873.640	0.0159155
873.718	0.0158856
873.797	0.0160027
873.875	0.0159537
873.953	0.0159006
874.031	0.0159676
874.109	0.0159879
874.187	0.0158855
874.265	0.0159101
874.343	0.0156560
874.422	0.0158105
874.500	0.0158910
874.578	0.0158628
874.656	0.0157932
874.734	0.0158247
874.812	0.0157613
874.890	0.0156523
874.968	0.0157417
875.047	0.0158805
875.125	0.0158234
875.203	0.0156119
875.281	0.0158142
875.359	0.0158121
875.437	0.0156036
875.515	0.0159776
875.593	0.0158670
875.672	0.0157638
875.750	0.0158257
875.828	0.0157938
875.906	0.0158582
875.984	0.0159796
876.062	0.0159194
876.140	0.0158668
876.218	0.0159591
876.297	0.0160653
876.375	0.0159128
876.453	0.0159883
876.531	0.0159629
876.609	0.0159368
876.687	0.0161260
876.765	0.0160802
876.843	0.0162070
876.922	0.0162600
877.000	0.0162026
877.078	0.0160415
877.156	0.0160622
877.234	0.0161549
877.312	0.0159013
877.390	0.0159938
877.468	0.0159978
877.547	0.0159488
877.625	0.0159071
877.703	0.0159669
877.781	0.0159022
877.859	0.0158246
877.937	0.0157787
878.015	0.0158183
878.093	0.0156433
878.172	0.0156870
878.250	0.0157107
878.328	0.0156494
878.406	0.0156213
878.484	0.0156184
878.562	0.0156329
878.640	0.0156682
878.718	0.0155980
878.797	0.0156262
878.875	0.0156763
878.953	0.0157124
879.031	0.0156384
879.109	0.0156974
879.187	0.0157141
879.265	0.0157477
879.343	0.0157882
879.422	0.0158598
879.500	0.0160190
879.578	0.0159119
879.656	0.0158324
879.734	0.0159168
879.812	0.0159388
879.890	0.0158885
879.968	0.0158823
880.047	0.0158308
880.125	0.0158928
880.203	0.0158986
880.281	0.0159244
880.359	0.0158882
880.437	0.0159012
880.515	0.0160638
880.593	0.0159160
880.672	0.0159979
880.750	0.0159113
880.828	0.0159190
880.906	0.0159399
880.984	0.0159493
881.062	0.0160413
881.140	0.0159504
881.218	0.0160066
881.297	0.0159888
881.375	0.0159918
881.453	0.0159937
881.531	0.0160291
881.609	0.0159595
881.687	0.0158794
881.765	0.0160143
881.843	0.0159016
881.922	0.0158824
882.000	0.0159310
882.078	0.0159241
882.156	0.0158234
882.234	0.0158169
882.312	0.0157666
882.390	0.0158046
882.468	0.0157762
882.547	0.0159496
882.625	0.0157457
882.703	0.0156657
882.781	0.0156613
882.859	0.0157357
882.937	0.0157649
883.015	0.0157427
883.093	0.0157519
883.172	0.0158236
883.250	0.0157873
883.328	0.0159035
883.406	0.0158775
883.484	0.0156581
883.562	0.0157568
883.640	0.0159129
883.718	0.0158455
883.797	0.0158067
883.875	0.0158813
883.953	0.0158241
884.031	0.0159603
884.109	0.0158917
884.187	0.0160687
884.265	0.0160286
884.343	0.0159244
884.422	0.0160275
884.500	0.0160361
884.578	0.0159563
884.656	0.0159064
884.734	0.0160350
884.812	0.0158712
884.890	0.0158606
884.968	0.0159515
885.047	0.0159073
885.125	0.0158658
885.203	0.0159034
885.281	0.0158555
885.359	0.0160452
885.437	0.0159965
885.515	0.0157745
885.593	0.0159451
885.672	0.0156998
885.750	0.0157831
885.828	0.0158261
885.906	0.0158020
885.984	0.0159242
886.062	0.0159168
886.140	0.0158126
886.218	0.0158000
886.297	0.0158167
886.375	0.0158085
886.453	0.0158454
886.531	0.0156712
886.609	0.0157243
886.687	0.0157705
886.765	0.0158390
886.843	0.0159217
886.922	0.0159616
887.000	0.0158086
887.078	0.0160486
887.156	0.0159589
887.234	0.0159127
887.312	0.0159020
887.390	0.0159399
887.468	0.0161243
887.547	0.0160652
887.625	0.0160129
887.703	0.0159681
887.781	0.0159574
887.859	0.0159864
887.937	0.0160256
888.015	0.0159875
888.093	0.0159475
888.172	0.0160074
888.250	0.0159623
888.328	0.0159790
888.406	0.0159042
888.484	0.0157030
888.562	0.0157783
888.640	0.0158571
888.718	0.0158217
888.797	0.0157407
888.875	0.0158013
888.953	0.0158492
889.031	0.0157814
889.109	0.0157501
889.187	0.0158123
889.265	0.0156795
889.343	0.0157545
889.422	0.0158707
889.500	0.0157444
889.578	0.0156966
889.656	0.0158717
889.734	0.0159260
889.812	0.0156405
889.890	0.0158378
889.968	0.0159849
890.047	0.0157787
890.125	0.0158639
890.203	0.0157895
890.281	0.0157793
890.359	0.0156071
890.437	0.0156707
890.515	0.0158474
890.593	0.0155902
890.672	0.0155525
890.750	0.0157610
890.828	0.0157223
890.906	0.0157366
890.984	0.0157820
891.062	0.0158058
891.140	0.0159071
891.218	0.0158228
891.297	0.0157468
891.375	0.0160046
891.453	0.0158842
891.531	0.0159804
891.609	0.0158975
891.687	0.0160778
891.765	0.0160333
891.843	0.0159961
891.922	0.0161302
892.000	0.0162208
892.078	0.0161185
892.156	0.0161013
892.234	0.0160338
892.312	0.0160452
892.390	0.0161063
892.468	0.0160748
892.547	0.0161139
892.625	0.0161040
892.703	0.0159161
892.781	0.0160474
892.859	0.0159702
892.937	0.0158443
893.015	0.0158334
893.093	0.0159237
893.172	0.0159441
893.250	0.0157675
893.328	0.0158666
893.406	0.0158424
893.484	0.0159324
893.562	0.0159039
893.640	0.0157579
893.718	0.0159191
893.797	0.0158264
893.875	0.0157790
893.953	0.0158414
894.031	0.0158271
894.109	0.0158264
894.187	0.0156827
894.265	0.0159292
894.343	0.0158034
894.422	0.0157667
894.500	0.0158761
894.578	0.0157457
894.656	0.0158086
894.734	0.0157973
894.812	0.0159094
894.890	0.0158088
894.968	0.0158346
895.047	0.0159896
895.125	0.0158121
895.203	0.0158146
895.281	0.0158044
895.359	0.0160131
895.437	0.0159428
895.515	0.0158846
895.593	0.0158277
895.672	0.0159220
895.750	0.0160196
895.828	0.0158930
895.906	0.0159403
895.984	0.0159126
896.062	0.0159637
896.140	0.0158425
896.218	0.0158770
896.297	0.0159706
896.375	0.0158842
896.453	0.0157922
896.531	0.0159049
896.609	0.0159138
896.687	0.0158274
896.765	0.0157261
896.843	0.0158561
896.922	0.0158871
897.000	0.0158228
897.078	0.0156631
897.156	0.0159473
897.234	0.0157707
897.312	0.0159206
897.390	0.0158453
897.468	0.0157981
897.547	0.0157918
897.625	0.0159802
897.703	0.0158639
897.781	0.0158298
897.859	0.0158260
897.937	0.0160431
898.015	0.0159098
898.093	0.0158862
898.172	0.0159440
898.250	0.0158929
898.328	0.0159327
898.406	0.0159548
898.484	0.0157924
898.562	0.0158543
898.640	0.0159813
898.718	0.0159750
898.797	0.0157302
898.875	0.0157852
898.953	0.0159177
899.031	0.0158623
899.109	0.0158577
899.187	0.0158720
899.265	0.0159180
899.343	0.0157858
899.422	0.0158549
899.500	0.0159140
899.578	0.0159064
899.656	0.0159837
899.734	0.0159126
899.812	0.0158381
899.890	0.0157745
899.968	0.0159092
900.047	0.0158179
900.125	0.0157950
900.203	0.0159434
900.281	0.0159078
900.359	0.0157014
900.437	0.0158230
900.515	0.0158855
900.593	0.0157556
900.672	0.0158674
900.750	0.0158115
900.828	0.0158722
900.906	0.0157958
900.984	0.0158909
901.062	0.0157076
901.140	0.0157095
901.218	0.0157922
901.297	0.0157063
901.375	0.0156851
901.453	0.0157646
901.531	0.0158239
901.609	0.0157645
901.687	0.0157433
901.765	0.0158175
901.843	0.0158344
901.922	0.0158861
902.000	0.0158723
902.078	0.0160600
902.156	0.0160300
902.234	0.0159173
902.312	0.0158393
902.390	0.0160013
902.468	0.0158813
902.547	0.0159123
902.625	0.0159657
902.703	0.0159890
902.781	0.0161684
902.859	0.0160134
902.937	0.0160026
903.015	0.0158808
903.093	0.0159267
903.172	0.0159462
903.250	0.0158712
903.328	0.0159846
903.406	0.0159135
903.484	0.0157249
903.562	0.0160389
903.640	0.0160625
903.718	0.0157733
903.797	0.0157638
903.875	0.0158083
903.953	0.0158536
904.031	0.0158596
904.109	0.0158066
904.187	0.0158499
904.265	0.0159456
904.343	0.0159370
904.422	0.0159242
904.500	0.0158691
904.578	0.0157751
904.656	0.0158131
904.734	0.0160072
904.812	0.0157739
904.890	0.0158573
904.968	0.0158690
905.047	0.0158613
905.125	0.0158292
905.203	0.0158515
905.281	0.0158604
905.359	0.0158239
905.437	0.0157216
905.515	0.0158625
905.593	0.0157842
905.672	0.0156912
905.750	0.0157395
905.828	0.0157426
905.906	0.0158025
905.984	0.0157191
906.062	0.0156990
906.140	0.0157489
906.218	0.0157841
906.297	0.0156988
906.375	0.0159200
906.453	0.0158785
906.531	0.0157948
906.609	0.0158553
906.687	0.0159521
906.765	0.0158055
906.843	0.0159792
906.922	0.0158734
907.000	0.0159660
907.078	0.0160569
907.156	0.0158463
907.234	0.0158404
907.312	0.0159521
907.390	0.0159846
907.468	0.0161386
907.547	0.0159061
907.625	0.0158210
907.703	0.0159208
907.781	0.0160071
907.859	0.0159583
907.937	0.0159724
908.015	0.0158810
908.093	0.0158079
908.172	0.0158842
908.250	0.0158163
908.328	0.0159892
908.406	0.0160217
908.484	0.0159794
908.562	0.0159325
908.640	0.0159022
908.718	0.0159286
908.797	0.0159410
908.875	0.0158900
908.953	0.0159882
909.031	0.0159119
909.109	0.0158332
909.187	0.0158582
909.265	0.0158936
909.343	0.0159212
909.422	0.0158565
909.500	0.0158919
909.578	0.0158418
909.656	0.0157545
909.734	0.0158484
909.812	0.0158701
909.890	0.0157768
909.968	0.0158463
910.047	0.0158908
910.125	0.0159139
910.203	0.0158506
910.281	0.0159099
910.359	0.0158607
910.437	0.0158929
910.515	0.0157832
910.593	0.0156717
910.672	0.0158309
910.750	0.0157909
910.828	0.0158125
910.906	0.0159156
910.984	0.0159264
911.062	0.0159402
911.140	0.0157568
911.218	0.0157878
911.297	0.0159798
911.375	0.0157841
911.453	0.0158099
911.531	0.0159285
911.609	0.0157989
911.687	0.0157560
911.765	0.0158636
911.843	0.0158462
911.922	0.0158304
912.000	0.0157927
912.078	0.0159342
912.156	0.0158488
912.234	0.0158860
912.312	0.0159610
912.390	0.0159599
912.468	0.0158463
912.547	0.0159386
912.625	0.0159717
912.703	0.0161294
912.781	0.0158486
912.859	0.0157637
912.937	0.0160582
913.015	0.0160442
913.093	0.0159324
913.172	0.0158523
913.250	0.0159976
913.328	0.0159631
913.406	0.0160120
913.484	0.0158836
913.562	0.0158225
913.640	0.0160164
913.718	0.0158974
913.797	0.0160131
913.875	0.0157807
913.953	0.0157566
914.031	0.0158817
914.109	0.0158252
914.187	0.0158036
914.265	0.0157278
914.343	0.0156938
914.422	0.0157116
914.500	0.0159595
914.578	0.0158047
914.656	0.0158000
914.734	0.0158368
914.812	0.0157957
914.890	0.0158418
914.968	0.0158054
915.047	0.0158894
915.125	0.0158682
915.203	0.0157811
915.281	0.0157507
915.359	0.0158967
915.437	0.0158797
915.515	0.0159554
915.593	0.0158124
915.672	0.0158414
915.750	0.0158660
915.828	0.0158531
915.906	0.0158496
915.984	0.0159596
916.062	0.0158363
916.140	0.0158234
916.218	0.0159794
916.297	0.0159024
916.375	0.0157565
916.453	0.0158788
916.531	0.0159195
916.609	0.0158132
916.687	0.0157362
916.765	0.0159373
916.843	0.0158768
916.922	0.0157758
917.000	0.0158154
917.078	0.0157854
917.156	0.0158646
917.234	0.0158594
917.312	0.0160036
917.390	0.0160017
917.468	0.0159663
917.547	0.0159415
917.625	0.0158815
917.703	0.0157944
917.781	0.0158285
917.859	0.0159522
917.937	0.0158916
918.015	0.0159667
918.093	0.0158575
918.172	0.0158982
918.250	0.0159267
918.328	0.0158462
918.406	0.0158415
918.484	0.0158255
918.562	0.0159562
918.640	0.0158937
918.718	0.0158768
918.797	0.0158547
918.875	0.0158282
918.953	0.0159093
919.031	0.0159543
919.109	0.0160851
919.187	0.0161259
919.265	0.0160214
919.343	0.0160347
919.422	0.0159522
919.500	0.0159418
919.578	0.0159754
919.656	0.0159287
919.734	0.0159005
919.812	0.0159626
919.890	0.0158852
