06/13/2022	14:37:53	Ver.	4.1	UNKNOWN
Optical Delay	599.968395	Delta X		0.078125	Sweeps	1	Scan Rate	0/0
Coordinates	Axis 1	NaN	Axis 2	NaN	Axis 3	NaN	Axis 4	NaN	Axis 5	NaN	Axis 6	0.000000
TX Power	0.000000	RX Power	0.000000

599.968	0.0149872
600.047	0.0149356
600.125	0.0149296
600.203	0.0149760
600.281	0.0149368
600.359	0.0151163
600.437	0.0150560
600.515	0.0148569
600.593	0.0150031
600.672	0.0150269
600.750	0.0148780
600.828	0.0149796
600.906	0.0150069
600.984	0.0148569
601.062	0.0151420
601.140	0.0150636
601.218	0.0149987
601.297	0.0149764
601.375	0.0149474
601.453	0.0150097
601.531	0.0150053
601.609	0.0149262
601.687	0.0149583
601.765	0.0152519
601.843	0.0149162
601.922	0.0149395
602.000	0.0147723
602.078	0.0150072
602.156	0.0149837
602.234	0.0149748
602.312	0.0150657
602.390	0.0150094
602.468	0.0149249
602.547	0.0149468
602.625	0.0149915
602.703	0.0150714
602.781	0.0150132
602.859	0.0149647
602.937	0.0150198
603.015	0.0149364
603.093	0.0150205
603.172	0.0149462
603.250	0.0148898
603.328	0.0149070
603.406	0.0151068
603.484	0.0149812
603.562	0.0149102
603.640	0.0149816
603.718	0.0150266
603.797	0.0148794
603.875	0.0150416
603.953	0.0149335
604.031	0.0149538
604.109	0.0148394
604.187	0.0150381
604.265	0.0149356
604.343	0.0149166
604.422	0.0148032
604.500	0.0150078
604.578	0.0149781
604.656	0.0149427
604.734	0.0150072
604.812	0.0149015
604.890	0.0148483
604.968	0.0149506
605.047	0.0150070
605.125	0.0149039
605.203	0.0149239
605.281	0.0148539
605.359	0.0148967
605.437	0.0149644
605.515	0.0149126
605.593	0.0149235
605.672	0.0151022
605.750	0.0149854
605.828	0.0149899
605.906	0.0147865
605.984	0.0148440
606.062	0.0151739
606.140	0.0149958
606.218	0.0149447
606.297	0.0148154
606.375	0.0148859
606.453	0.0150547
606.531	0.0149119
606.609	0.0150409
606.687	0.0150150
606.765	0.0149678
606.843	0.0149066
606.922	0.0149390
607.000	0.0150230
607.078	0.0150816
607.156	0.0149811
607.234	0.0149297
607.312	0.0149262
607.390	0.0150935
607.468	0.0149886
607.547	0.0148609
607.625	0.0149667
607.703	0.0149851
607.781	0.0149957
607.859	0.0149266
607.937	0.0150835
608.015	0.0150047
608.093	0.0149944
608.172	0.0148244
608.250	0.0149797
608.328	0.0150629
608.406	0.0150411
608.484	0.0150311
608.562	0.0150253
608.640	0.0149839
608.718	0.0149261
608.797	0.0148685
608.875	0.0149264
608.953	0.0150069
609.031	0.0150892
609.109	0.0149320
609.187	0.0149451
609.265	0.0148474
609.343	0.0150451
609.422	0.0148727
609.500	0.0148180
609.578	0.0150814
609.656	0.0148524
609.734	0.0148531
609.812	0.0149653
609.890	0.0149741
609.968	0.0148727
610.047	0.0148537
610.125	0.0148683
610.203	0.0151480
610.281	0.0148959
610.359	0.0149120
610.437	0.0149837
610.515	0.0150039
610.593	0.0149624
610.672	0.0150431
610.750	0.0149952
610.828	0.0149867
610.906	0.0149794
610.984	0.0150289
611.062	0.0150160
611.140	0.0150836
611.218	0.0149940
611.297	0.0150169
611.375	0.0149062
611.453	0.0150401
611.531	0.0150150
611.609	0.0150869
611.687	0.0148609
611.765	0.0150708
611.843	0.0150391
611.922	0.0149413
612.000	0.0148989
612.078	0.0149432
612.156	0.0149611
612.234	0.0149886
612.312	0.0149879
612.390	0.0149767
612.468	0.0150052
612.547	0.0149831
612.625	0.0148753
612.703	0.0149517
612.781	0.0150988
612.859	0.0150576
612.937	0.0149071
613.015	0.0149530
613.093	0.0149264
613.172	0.0149919
613.250	0.0150631
613.328	0.0150045
613.406	0.0149300
613.484	0.0149300
613.562	0.0149287
613.640	0.0149823
613.718	0.0150337
613.797	0.0149319
613.875	0.0150263
613.953	0.0150023
614.031	0.0150378
614.109	0.0147858
614.187	0.0150777
614.265	0.0149195
614.343	0.0150732
614.422	0.0150124
614.500	0.0149557
614.578	0.0148986
614.656	0.0148794
614.734	0.0151150
614.812	0.0149879
614.890	0.0149669
614.968	0.0149652
615.047	0.0149412
615.125	0.0148051
615.203	0.0150211
615.281	0.0149973
615.359	0.0149875
615.437	0.0149986
615.515	0.0149899
615.593	0.0148969
615.672	0.0149140
615.750	0.0149298
615.828	0.0149532
615.906	0.0149767
615.984	0.0149451
616.062	0.0150473
616.140	0.0150320
616.218	0.0149995
616.297	0.0148946
616.375	0.0149860
616.453	0.0149667
616.531	0.0149454
616.609	0.0150190
616.687	0.0149613
616.765	0.0149291
616.843	0.0150056
616.922	0.0149502
617.000	0.0148901
617.078	0.0149466
617.156	0.0150020
617.234	0.0149894
617.312	0.0149525
617.390	0.0149332
617.468	0.0149800
617.547	0.0150479
617.625	0.0150540
617.703	0.0149141
617.781	0.0149492
617.859	0.0149786
617.937	0.0149551
618.015	0.0150820
618.093	0.0150140
618.172	0.0149765
618.250	0.0149261
618.328	0.0149281
618.406	0.0148897
618.484	0.0149651
618.562	0.0149641
618.640	0.0150521
618.718	0.0149863
618.797	0.0149648
618.875	0.0149630
618.953	0.0148524
619.031	0.0150294
619.109	0.0150406
619.187	0.0149478
619.265	0.0149121
619.343	0.0149806
619.422	0.0148604
619.500	0.0151023
619.578	0.0150594
619.656	0.0148820
619.734	0.0149989
619.812	0.0148029
619.890	0.0148785
619.968	0.0149252
620.047	0.0149326
620.125	0.0149828
620.203	0.0149663
620.281	0.0149712
620.359	0.0150147
620.437	0.0148860
620.515	0.0148885
620.593	0.0148605
620.672	0.0149902
620.750	0.0149657
620.828	0.0148921
620.906	0.0149572
620.984	0.0149115
621.062	0.0149664
621.140	0.0149940
621.218	0.0149633
621.297	0.0148740
621.375	0.0149113
621.453	0.0149154
621.531	0.0150574
621.609	0.0149760
621.687	0.0149588
621.765	0.0149739
621.843	0.0150228
621.922	0.0149287
622.000	0.0149968
622.078	0.0149686
622.156	0.0149526
622.234	0.0150055
622.312	0.0149416
622.390	0.0149294
622.468	0.0150131
622.547	0.0150396
622.625	0.0149405
622.703	0.0150160
622.781	0.0149473
622.859	0.0150275
622.937	0.0149928
623.015	0.0149834
623.093	0.0147991
623.172	0.0149436
623.250	0.0149812
623.328	0.0149344
623.406	0.0150250
623.484	0.0150489
623.562	0.0150584
623.640	0.0149218
623.718	0.0148822
623.797	0.0149466
623.875	0.0150752
623.953	0.0150589
624.031	0.0150055
624.109	0.0149567
624.187	0.0149529
624.265	0.0149447
624.343	0.0149837
624.422	0.0149847
624.500	0.0149916
624.578	0.0149065
624.656	0.0148569
624.734	0.0147344
624.812	0.0149948
624.890	0.0151070
624.968	0.0149084
625.047	0.0149757
625.125	0.0148832
625.203	0.0149541
625.281	0.0149970
625.359	0.0149240
625.437	0.0150228
625.515	0.0149374
625.593	0.0149374
625.672	0.0150481
625.750	0.0151323
625.828	0.0150071
625.906	0.0149870
625.984	0.0149167
626.062	0.0148720
626.140	0.0149831
626.218	0.0150877
626.297	0.0150612
626.375	0.0151202
626.453	0.0149609
626.531	0.0147904
626.609	0.0149667
626.687	0.0148631
626.765	0.0149845
626.843	0.0150411
626.922	0.0150489
627.000	0.0149893
627.078	0.0149535
627.156	0.0147927
627.234	0.0150774
627.312	0.0149636
627.390	0.0149038
627.468	0.0148683
627.547	0.0148915
627.625	0.0149293
627.703	0.0149399
627.781	0.0149541
627.859	0.0149474
627.937	0.0148490
628.015	0.0149465
628.093	0.0149413
628.172	0.0149954
628.250	0.0149516
628.328	0.0149306
628.406	0.0149230
628.484	0.0149753
628.562	0.0148792
628.640	0.0148956
628.718	0.0148987
628.797	0.0148943
628.875	0.0150447
628.953	0.0148481
629.031	0.0149343
629.109	0.0148630
629.187	0.0149034
629.265	0.0150263
629.343	0.0149845
629.422	0.0149731
629.500	0.0149766
629.578	0.0149580
629.656	0.0147704
629.734	0.0148972
629.812	0.0150227
629.890	0.0149220
629.968	0.0150134
630.047	0.0150288
630.125	0.0149228
630.203	0.0150574
630.281	0.0150333
630.359	0.0150380
630.437	0.0149519
630.515	0.0148986
630.593	0.0148885
630.672	0.0148718
630.750	0.0149613
630.828	0.0149375
630.906	0.0149622
630.984	0.0149503
631.062	0.0149403
631.140	0.0150336
631.218	0.0148991
631.297	0.0149316
631.375	0.0148662
631.453	0.0150061
631.531	0.0151399
631.609	0.0149187
631.687	0.0148692
631.765	0.0149392
631.843	0.0150283
631.922	0.0149780
632.000	0.0150381
632.078	0.0149079
632.156	0.0150213
632.234	0.0150596
632.312	0.0150375
632.390	0.0149046
632.468	0.0149332
632.547	0.0149197
632.625	0.0150243
632.703	0.0150313
632.781	0.0149221
632.859	0.0150248
632.937	0.0149452
633.015	0.0150094
633.093	0.0148750
633.172	0.0147903
633.250	0.0150199
633.328	0.0151395
633.406	0.0149729
633.484	0.0148132
633.562	0.0150172
633.640	0.0151429
633.718	0.0150642
633.797	0.0148462
633.875	0.0149110
633.953	0.0149225
634.031	0.0147791
634.109	0.0149280
634.187	0.0148438
634.265	0.0149758
634.343	0.0150299
634.422	0.0149035
634.500	0.0150275
634.578	0.0149317
634.656	0.0149606
634.734	0.0150414
634.812	0.0149568
634.890	0.0149591
634.968	0.0150101
635.047	0.0149018
635.125	0.0149647
635.203	0.0150509
635.281	0.0149551
635.359	0.0149837
635.437	0.0149004
635.515	0.0149728
635.593	0.0150268
635.672	0.0149312
635.750	0.0150479
635.828	0.0149832
635.906	0.0150141
635.984	0.0150227
636.062	0.0150842
636.140	0.0150793
636.218	0.0151293
636.297	0.0149594
636.375	0.0148770
636.453	0.0148405
636.531	0.0150285
636.609	0.0150305
636.687	0.0149577
636.765	0.0148886
636.843	0.0149464
636.922	0.0149622
637.000	0.0150030
637.078	0.0149186
637.156	0.0150267
637.234	0.0148488
637.312	0.0149061
637.390	0.0150961
637.468	0.0149802
637.547	0.0149896
637.625	0.0150053
637.703	0.0148513
637.781	0.0148642
637.859	0.0150373
637.937	0.0149530
638.015	0.0149255
638.093	0.0150279
638.172	0.0150137
638.250	0.0149891
638.328	0.0149871
638.406	0.0149077
638.484	0.0149953
638.562	0.0150039
638.640	0.0149990
638.718	0.0150145
638.797	0.0150064
638.875	0.0151424
638.953	0.0150031
639.031	0.0149338
639.109	0.0150085
639.187	0.0149457
639.265	0.0148767
639.343	0.0148384
639.422	0.0149027
639.500	0.0149648
639.578	0.0149992
639.656	0.0150543
639.734	0.0149852
639.812	0.0149615
639.890	0.0149554
639.968	0.0149837
640.047	0.0150407
640.125	0.0149537
640.203	0.0149117
640.281	0.0149329
640.359	0.0149348
640.437	0.0150652
640.515	0.0149658
640.593	0.0150246
640.672	0.0149014
640.750	0.0150802
640.828	0.0150323
640.906	0.0149649
640.984	0.0148450
641.062	0.0149858
641.140	0.0149576
641.218	0.0149657
641.297	0.0150829
641.375	0.0149021
641.453	0.0148476
641.531	0.0149331
641.609	0.0149917
641.687	0.0150371
641.765	0.0150327
641.843	0.0149597
641.922	0.0149090
642.000	0.0149450
642.078	0.0149842
642.156	0.0149960
642.234	0.0149001
642.312	0.0149833
642.390	0.0150349
642.468	0.0151273
642.547	0.0149212
642.625	0.0148564
642.703	0.0150594
642.781	0.0148698
642.859	0.0149622
642.937	0.0148786
643.015	0.0150482
643.093	0.0150401
643.172	0.0149268
643.250	0.0148856
643.328	0.0150005
643.406	0.0150135
643.484	0.0150401
643.562	0.0151673
643.640	0.0149100
643.718	0.0149287
643.797	0.0148218
643.875	0.0150401
643.953	0.0151528
644.031	0.0149953
644.109	0.0149928
644.187	0.0149638
644.265	0.0149731
644.343	0.0150501
644.422	0.0149828
644.500	0.0149187
644.578	0.0149201
644.656	0.0149904
644.734	0.0150417
644.812	0.0149689
644.890	0.0149762
644.968	0.0149313
645.047	0.0150722
645.125	0.0149334
645.203	0.0149281
645.281	0.0149379
645.359	0.0149506
645.437	0.0149106
645.515	0.0150160
645.593	0.0150137
645.672	0.0150774
645.750	0.0148633
645.828	0.0149357
645.906	0.0150468
645.984	0.0150249
646.062	0.0152017
646.140	0.0151048
646.218	0.0149345
646.297	0.0148503
646.375	0.0148843
646.453	0.0149602
646.531	0.0149604
646.609	0.0149930
646.687	0.0149347
646.765	0.0149802
646.843	0.0149275
646.922	0.0150169
647.000	0.0149906
647.078	0.0151145
647.156	0.0149414
647.234	0.0151015
647.312	0.0150061
647.390	0.0150350
647.468	0.0149663
647.547	0.0150137
647.625	0.0149084
647.703	0.0149365
647.781	0.0150124
647.859	0.0150340
647.937	0.0149714
648.015	0.0149876
648.093	0.0151613
648.172	0.0149471
648.250	0.0149825
648.328	0.0149316
648.406	0.0150651
648.484	0.0148866
648.562	0.0150214
648.640	0.0149620
648.718	0.0149123
648.797	0.0149011
648.875	0.0151160
648.953	0.0151737
649.031	0.0150530
649.109	0.0150243
649.187	0.0149470
649.265	0.0148965
649.343	0.0149545
649.422	0.0149536
649.500	0.0149063
649.578	0.0150298
649.656	0.0149819
649.734	0.0149508
649.812	0.0150460
649.890	0.0150771
649.968	0.0149138
650.047	0.0149551
650.125	0.0151035
650.203	0.0149906
650.281	0.0150793
650.359	0.0149326
650.437	0.0148595
650.515	0.0149864
650.593	0.0148419
650.672	0.0150237
650.750	0.0149219
650.828	0.0150303
650.906	0.0150311
650.984	0.0149717
651.062	0.0149849
651.140	0.0148635
651.218	0.0149653
651.297	0.0149442
651.375	0.0148676
651.453	0.0148717
651.531	0.0149611
651.609	0.0149999
651.687	0.0149146
651.765	0.0149349
651.843	0.0149323
651.922	0.0150884
652.000	0.0148237
652.078	0.0149062
652.156	0.0149036
652.234	0.0150235
652.312	0.0150730
652.390	0.0148558
652.468	0.0149701
652.547	0.0150174
652.625	0.0149339
652.703	0.0149079
652.781	0.0148776
652.859	0.0149606
652.937	0.0149362
653.015	0.0150199
653.093	0.0148542
653.172	0.0151093
653.250	0.0150061
653.328	0.0150513
653.406	0.0149760
653.484	0.0150014
653.562	0.0147066
653.640	0.0148595
653.718	0.0150085
653.797	0.0149212
653.875	0.0151348
653.953	0.0149119
654.031	0.0150302
654.109	0.0149966
654.187	0.0149386
654.265	0.0150494
654.343	0.0149458
654.422	0.0150188
654.500	0.0148378
654.578	0.0149583
654.656	0.0151283
654.734	0.0148059
654.812	0.0149982
654.890	0.0149542
654.968	0.0149682
655.047	0.0149345
655.125	0.0149893
655.203	0.0148965
655.281	0.0148942
655.359	0.0149902
655.437	0.0150195
655.515	0.0148940
655.593	0.0147684
655.672	0.0149671
655.750	0.0150053
655.828	0.0150690
655.906	0.0148535
655.984	0.0149312
656.062	0.0148998
656.140	0.0149730
656.218	0.0149081
656.297	0.0150426
656.375	0.0151053
656.453	0.0148715
656.531	0.0149709
656.609	0.0148196
656.687	0.0148846
656.765	0.0149406
656.843	0.0151451
656.922	0.0148124
657.000	0.0148969
657.078	0.0149916
657.156	0.0149328
657.234	0.0149703
657.312	0.0150069
657.390	0.0150092
657.468	0.0148352
657.547	0.0149385
657.625	0.0148483
657.703	0.0148872
657.781	0.0149026
657.859	0.0150396
657.937	0.0149217
658.015	0.0149940
658.093	0.0149230
658.172	0.0149025
658.250	0.0149767
658.328	0.0149667
658.406	0.0148071
658.484	0.0148360
658.562	0.0149105
658.640	0.0149442
658.718	0.0150038
658.797	0.0150197
658.875	0.0149377
658.953	0.0148830
659.031	0.0149676
659.109	0.0150449
659.187	0.0149643
659.265	0.0149937
659.343	0.0149934
659.422	0.0149483
659.500	0.0149482
659.578	0.0148794
659.656	0.0149113
659.734	0.0148882
659.812	0.0149687
659.890	0.0148951
659.968	0.0150006
660.047	0.0148707
660.125	0.0150537
660.203	0.0149693
660.281	0.0149857
660.359	0.0148667
660.437	0.0150934
660.515	0.0148842
660.593	0.0148473
660.672	0.0149559
660.750	0.0148441
660.828	0.0150322
660.906	0.0149663
660.984	0.0149451
661.062	0.0150446
661.140	0.0149121
661.218	0.0148943
661.297	0.0150000
661.375	0.0149401
661.453	0.0148840
661.531	0.0151042
661.609	0.0149989
661.687	0.0149751
661.765	0.0149771
661.843	0.0149208
661.922	0.0149912
662.000	0.0149271
662.078	0.0150252
662.156	0.0150144
662.234	0.0150277
662.312	0.0148756
662.390	0.0147662
662.468	0.0149421
662.547	0.0150029
662.625	0.0150131
662.703	0.0150245
662.781	0.0148811
662.859	0.0148928
662.937	0.0149644
663.015	0.0148277
663.093	0.0148923
663.172	0.0149746
663.250	0.0148512
663.328	0.0149293
663.406	0.0149409
663.484	0.0149128
663.562	0.0149800
663.640	0.0148978
663.718	0.0148806
663.797	0.0149362
663.875	0.0149460
663.953	0.0149004
664.031	0.0148996
664.109	0.0149062
664.187	0.0149778
664.265	0.0148920
664.343	0.0150489
664.422	0.0148927
664.500	0.0149340
664.578	0.0149070
664.656	0.0150542
664.734	0.0149221
664.812	0.0149427
664.890	0.0148936
664.968	0.0149725
665.047	0.0150211
665.125	0.0150172
665.203	0.0149501
665.281	0.0148699
665.359	0.0150039
665.437	0.0149422
665.515	0.0149216
665.593	0.0151167
665.672	0.0149145
665.750	0.0149451
665.828	0.0150640
665.906	0.0149960
665.984	0.0150150
666.062	0.0148272
666.140	0.0148628
666.218	0.0149696
666.297	0.0149266
666.375	0.0149641
666.453	0.0149534
666.531	0.0148572
666.609	0.0149869
666.687	0.0150443
666.765	0.0148988
666.843	0.0146514
666.922	0.0149358
667.000	0.0149938
667.078	0.0150608
667.156	0.0150095
667.234	0.0148634
667.312	0.0149383
667.390	0.0150197
667.468	0.0148488
667.547	0.0149277
667.625	0.0149810
667.703	0.0149552
667.781	0.0148591
667.859	0.0149203
667.937	0.0149893
668.015	0.0149277
668.093	0.0149257
668.172	0.0150020
668.250	0.0149725
668.328	0.0149184
668.406	0.0150683
668.484	0.0149322
668.562	0.0150502
668.640	0.0148731
668.718	0.0147724
668.797	0.0148888
668.875	0.0150272
668.953	0.0147682
669.031	0.0148646
669.109	0.0150731
669.187	0.0148353
669.265	0.0148405
669.343	0.0149724
669.422	0.0150437
669.500	0.0149379
669.578	0.0149088
669.656	0.0149302
669.734	0.0150262
669.812	0.0150751
669.890	0.0147792
669.968	0.0148702
670.047	0.0149368
670.125	0.0149330
670.203	0.0149415
670.281	0.0149500
670.359	0.0149029
670.437	0.0150451
670.515	0.0149432
670.593	0.0148129
670.672	0.0149465
670.750	0.0149638
670.828	0.0149901
670.906	0.0149043
670.984	0.0148861
671.062	0.0149912
671.140	0.0150106
671.218	0.0149209
671.297	0.0150372
671.375	0.0149272
671.453	0.0148030
671.531	0.0148687
671.609	0.0148978
671.687	0.0150326
671.765	0.0149858
671.843	0.0148890
671.922	0.0148620
672.000	0.0148868
672.078	0.0150022
672.156	0.0148882
672.234	0.0149857
672.312	0.0150208
672.390	0.0149149
672.468	0.0149447
672.547	0.0150174
672.625	0.0149300
672.703	0.0149601
672.781	0.0150805
672.859	0.0149921
672.937	0.0149103
673.015	0.0148602
673.093	0.0149335
673.172	0.0149367
673.250	0.0148721
673.328	0.0149625
673.406	0.0150388
673.484	0.0149859
673.562	0.0149273
673.640	0.0150034
673.718	0.0150777
673.797	0.0149393
673.875	0.0148889
673.953	0.0150032
674.031	0.0149472
674.109	0.0149622
674.187	0.0150771
674.265	0.0151068
674.343	0.0148262
674.422	0.0148846
674.500	0.0149786
674.578	0.0149393
674.656	0.0149694
674.734	0.0149719
674.812	0.0149326
674.890	0.0148110
674.968	0.0150250
675.047	0.0149052
675.125	0.0149190
675.203	0.0148706
675.281	0.0150050
675.359	0.0149287
675.437	0.0148791
675.515	0.0149152
675.593	0.0148973
675.672	0.0149783
675.750	0.0149628
675.828	0.0149037
675.906	0.0150276
675.984	0.0150622
676.062	0.0149197
676.140	0.0148985
676.218	0.0149392
676.297	0.0148003
676.375	0.0148557
676.453	0.0148770
676.531	0.0149558
676.609	0.0149290
676.687	0.0149267
676.765	0.0148903
676.843	0.0150861
676.922	0.0148611
677.000	0.0149577
677.078	0.0149752
677.156	0.0149337
677.234	0.0150076
677.312	0.0150304
677.390	0.0149538
677.468	0.0149214
677.547	0.0148980
677.625	0.0150375
677.703	0.0150124
677.781	0.0150677
677.859	0.0150275
677.937	0.0149001
678.015	0.0148903
678.093	0.0149779
678.172	0.0149063
678.250	0.0150116
678.328	0.0152158
678.406	0.0149354
678.484	0.0150355
678.562	0.0148783
678.640	0.0150622
678.718	0.0150445
678.797	0.0148843
678.875	0.0148241
678.953	0.0150007
679.031	0.0149371
679.109	0.0149102
679.187	0.0149722
679.265	0.0149265
679.343	0.0149377
679.422	0.0149790
679.500	0.0149877
679.578	0.0149932
679.656	0.0148074
679.734	0.0148506
679.812	0.0149505
679.890	0.0149753
679.968	0.0148862
680.047	0.0150040
680.125	0.0149521
680.203	0.0150208
680.281	0.0149393
680.359	0.0149631
680.437	0.0150367
680.515	0.0149827
680.593	0.0148882
680.672	0.0148979
680.750	0.0149970
680.828	0.0149461
680.906	0.0151046
680.984	0.0151061
681.062	0.0150318
681.140	0.0149112
681.218	0.0150774
681.297	0.0148959
681.375	0.0149792
681.453	0.0150432
681.531	0.0149506
681.609	0.0149193
681.687	0.0149613
681.765	0.0150283
681.843	0.0150773
681.922	0.0151124
682.000	0.0148612
682.078	0.0150161
682.156	0.0150463
682.234	0.0148981
682.312	0.0149395
682.390	0.0149145
682.468	0.0149419
682.547	0.0150255
682.625	0.0148260
682.703	0.0149584
682.781	0.0150535
682.859	0.0149040
682.937	0.0147752
683.015	0.0148171
683.093	0.0150068
683.172	0.0148790
683.250	0.0148680
683.328	0.0148738
683.406	0.0149004
683.484	0.0149311
683.562	0.0148510
683.640	0.0149887
683.718	0.0149780
683.797	0.0150049
683.875	0.0149317
683.953	0.0149187
684.031	0.0149754
684.109	0.0149783
684.187	0.0150761
684.265	0.0150085
684.343	0.0150095
684.422	0.0150626
684.500	0.0149182
684.578	0.0150188
684.656	0.0150874
684.734	0.0151015
684.812	0.0149963
684.890	0.0150219
684.968	0.0149717
685.047	0.0148805
685.125	0.0149415
685.203	0.0150146
685.281	0.0149538
685.359	0.0149112
685.437	0.0148836
685.515	0.0149078
685.593	0.0148769
685.672	0.0149529
685.750	0.0149654
685.828	0.0148399
685.906	0.0148169
685.984	0.0149667
686.062	0.0151483
686.140	0.0149367
686.218	0.0147867
686.297	0.0150297
686.375	0.0149466
686.453	0.0147856
686.531	0.0148264
686.609	0.0149487
686.687	0.0149438
686.765	0.0150106
686.843	0.0148271
686.922	0.0149846
687.000	0.0150402
687.078	0.0150756
687.156	0.0149563
687.234	0.0149433
687.312	0.0148780
687.390	0.0149983
687.468	0.0149552
687.547	0.0149181
687.625	0.0150352
687.703	0.0151080
687.781	0.0151432
687.859	0.0150002
687.937	0.0149635
688.015	0.0148367
688.093	0.0150602
688.172	0.0150305
688.250	0.0149467
688.328	0.0148334
688.406	0.0149635
688.484	0.0149960
688.562	0.0148740
688.640	0.0148965
688.718	0.0148898
688.797	0.0149328
688.875	0.0149006
688.953	0.0151685
689.031	0.0149960
689.109	0.0150327
689.187	0.0150817
689.265	0.0150089
689.343	0.0149703
689.422	0.0149366
689.500	0.0148674
689.578	0.0150676
689.656	0.0149934
689.734	0.0148565
689.812	0.0149778
689.890	0.0148226
689.968	0.0149782
690.047	0.0148923
690.125	0.0149423
690.203	0.0149158
690.281	0.0151079
690.359	0.0149027
690.437	0.0149613
690.515	0.0150244
690.593	0.0152121
690.672	0.0149918
690.750	0.0151064
690.828	0.0151667
690.906	0.0150401
690.984	0.0150468
691.062	0.0149041
691.140	0.0149596
691.218	0.0150795
691.297	0.0149992
691.375	0.0148990
691.453	0.0150351
691.531	0.0151225
691.609	0.0150637
691.687	0.0150182
691.765	0.0150048
691.843	0.0149713
691.922	0.0150235
692.000	0.0149376
692.078	0.0148634
692.156	0.0149692
692.234	0.0150839
692.312	0.0150490
692.390	0.0149966
692.468	0.0149087
692.547	0.0149899
692.625	0.0149342
692.703	0.0149329
692.781	0.0150395
692.859	0.0151550
692.937	0.0149061
693.015	0.0148488
693.093	0.0149744
693.172	0.0150813
693.250	0.0150211
693.328	0.0149325
693.406	0.0150912
693.484	0.0150802
693.562	0.0150714
693.640	0.0149500
693.718	0.0147118
693.797	0.0150004
693.875	0.0149944
693.953	0.0148025
694.031	0.0150212
694.109	0.0149827
694.187	0.0150419
694.265	0.0150812
694.343	0.0150211
694.422	0.0150774
694.500	0.0150392
694.578	0.0148898
694.656	0.0148946
694.734	0.0149878
694.812	0.0150670
694.890	0.0150826
694.968	0.0150031
695.047	0.0148991
695.125	0.0148849
695.203	0.0149227
695.281	0.0148224
695.359	0.0149827
695.437	0.0149747
695.515	0.0149499
695.593	0.0149387
695.672	0.0149402
695.750	0.0149731
695.828	0.0149072
695.906	0.0149403
695.984	0.0150112
696.062	0.0149423
696.140	0.0149532
696.218	0.0150449
696.297	0.0150259
696.375	0.0149321
696.453	0.0149277
696.531	0.0150559
696.609	0.0149098
696.687	0.0148653
696.765	0.0150125
696.843	0.0150525
696.922	0.0148625
697.000	0.0150513
697.078	0.0149873
697.156	0.0150022
697.234	0.0149277
697.312	0.0149052
697.390	0.0150665
697.468	0.0149599
697.547	0.0150162
697.625	0.0149683
697.703	0.0149527
697.781	0.0148439
697.859	0.0149917
697.937	0.0150870
698.015	0.0149313
698.093	0.0149487
698.172	0.0151335
698.250	0.0148946
698.328	0.0149966
698.406	0.0150027
698.484	0.0150171
698.562	0.0148654
698.640	0.0150497
698.718	0.0149017
698.797	0.0150452
698.875	0.0148921
698.953	0.0151717
699.031	0.0150196
699.109	0.0149055
699.187	0.0149094
699.265	0.0148933
699.343	0.0150310
699.422	0.0150790
699.500	0.0149905
699.578	0.0150063
699.656	0.0148885
699.734	0.0149665
699.812	0.0149348
699.890	0.0149364
699.968	0.0148512
700.047	0.0148596
700.125	0.0149821
700.203	0.0150629
700.281	0.0150332
700.359	0.0150467
700.437	0.0149543
700.515	0.0150099
700.593	0.0149686
700.672	0.0150143
700.750	0.0149769
700.828	0.0149892
700.906	0.0148461
700.984	0.0149970
701.062	0.0149164
701.140	0.0149015
701.218	0.0150584
701.297	0.0150803
701.375	0.0149187
701.453	0.0149284
701.531	0.0149922
701.609	0.0148857
701.687	0.0147990
701.765	0.0148606
701.843	0.0149117
701.922	0.0149271
702.000	0.0149351
702.078	0.0150127
702.156	0.0149191
702.234	0.0150018
702.312	0.0150641
702.390	0.0149641
702.468	0.0148717
702.547	0.0148979
702.625	0.0150458
702.703	0.0149371
702.781	0.0150188
702.859	0.0149226
702.937	0.0150643
703.015	0.0149447
703.093	0.0148213
703.172	0.0148965
703.250	0.0150034
703.328	0.0150663
703.406	0.0149303
703.484	0.0148540
703.562	0.0149391
703.640	0.0151463
703.718	0.0149845
703.797	0.0149673
703.875	0.0150800
703.953	0.0151232
704.031	0.0150028
704.109	0.0149745
704.187	0.0149122
704.265	0.0149477
704.343	0.0150140
704.422	0.0150424
704.500	0.0149227
704.578	0.0149302
704.656	0.0148141
704.734	0.0150002
704.812	0.0149021
704.890	0.0149847
704.968	0.0149523
705.047	0.0150470
705.125	0.0151380
705.203	0.0149027
705.281	0.0150094
705.359	0.0150728
705.437	0.0150163
705.515	0.0149028
705.593	0.0149502
705.672	0.0150523
705.750	0.0149053
705.828	0.0150014
705.906	0.0150342
705.984	0.0151001
706.062	0.0149628
706.140	0.0150684
706.218	0.0149301
706.297	0.0148978
706.375	0.0150622
706.453	0.0150294
706.531	0.0149368
706.609	0.0148762
706.687	0.0149408
706.765	0.0148497
706.843	0.0147945
706.922	0.0151212
707.000	0.0149821
707.078	0.0150603
707.156	0.0151062
707.234	0.0149290
707.312	0.0149483
707.390	0.0148849
707.468	0.0148922
707.547	0.0149218
707.625	0.0148737
707.703	0.0149999
707.781	0.0149591
707.859	0.0148613
707.937	0.0149770
708.015	0.0150938
708.093	0.0149368
708.172	0.0150434
708.250	0.0149352
708.328	0.0150221
708.406	0.0149088
708.484	0.0150137
708.562	0.0148859
708.640	0.0149993
708.718	0.0150214
708.797	0.0150468
708.875	0.0150821
708.953	0.0148987
709.031	0.0148937
709.109	0.0151324
709.187	0.0150600
709.265	0.0149404
709.343	0.0150250
709.422	0.0150274
709.500	0.0148930
709.578	0.0150329
709.656	0.0148653
709.734	0.0149460
709.812	0.0150375
709.890	0.0150047
709.968	0.0149069
710.047	0.0149340
710.125	0.0150375
710.203	0.0149113
710.281	0.0149497
710.359	0.0149438
710.437	0.0150175
710.515	0.0149654
710.593	0.0149456
710.672	0.0150439
710.750	0.0149705
710.828	0.0148355
710.906	0.0148911
710.984	0.0149656
711.062	0.0150509
711.140	0.0149466
711.218	0.0149540
711.297	0.0149558
711.375	0.0149703
711.453	0.0149342
711.531	0.0149963
711.609	0.0150121
711.687	0.0148995
711.765	0.0149860
711.843	0.0148956
711.922	0.0148626
712.000	0.0148939
712.078	0.0149758
712.156	0.0149322
712.234	0.0148195
712.312	0.0149696
712.390	0.0149118
712.468	0.0149312
712.547	0.0149970
712.625	0.0149578
712.703	0.0149034
712.781	0.0149501
712.859	0.0148660
712.937	0.0149782
713.015	0.0150194
713.093	0.0148122
713.172	0.0149945
713.250	0.0149764
713.328	0.0149580
713.406	0.0149079
713.484	0.0149308
713.562	0.0149139
713.640	0.0150237
713.718	0.0149872
713.797	0.0149386
713.875	0.0149317
713.953	0.0149032
714.031	0.0148737
714.109	0.0150436
714.187	0.0150548
714.265	0.0149664
714.343	0.0150054
714.422	0.0148953
714.500	0.0148370
714.578	0.0150461
714.656	0.0150001
714.734	0.0147810
714.812	0.0149919
714.890	0.0150372
714.968	0.0149564
715.047	0.0148729
715.125	0.0149642
715.203	0.0149409
715.281	0.0149419
715.359	0.0149255
715.437	0.0148891
715.515	0.0150002
715.593	0.0149821
715.672	0.0149851
715.750	0.0150668
715.828	0.0149847
715.906	0.0148582
715.984	0.0150304
716.062	0.0149783
716.140	0.0149950
716.218	0.0148370
716.297	0.0148890
716.375	0.0149016
716.453	0.0150753
716.531	0.0148937
716.609	0.0149207
716.687	0.0149033
716.765	0.0149984
716.843	0.0149359
716.922	0.0148487
717.000	0.0148804
717.078	0.0149717
717.156	0.0151273
717.234	0.0148021
717.312	0.0147989
717.390	0.0150650
717.468	0.0150574
717.547	0.0148392
717.625	0.0149523
717.703	0.0149309
717.781	0.0150513
717.859	0.0148267
717.937	0.0149423
718.015	0.0149342
718.093	0.0149946
718.172	0.0149506
718.250	0.0148827
718.328	0.0150304
718.406	0.0149968
718.484	0.0149212
718.562	0.0149699
718.640	0.0150274
718.718	0.0150857
718.797	0.0150999
718.875	0.0148193
718.953	0.0148167
719.031	0.0148183
719.109	0.0150163
719.187	0.0148900
719.265	0.0149569
719.343	0.0149175
719.422	0.0149576
719.500	0.0148922
719.578	0.0150317
719.656	0.0148704
719.734	0.0149233
719.812	0.0149655
719.890	0.0148634
719.968	0.0150253
720.047	0.0149974
720.125	0.0150066
720.203	0.0149605
720.281	0.0148280
720.359	0.0150016
720.437	0.0149309
720.515	0.0150575
720.593	0.0149714
720.672	0.0147307
720.750	0.0149161
720.828	0.0151301
720.906	0.0150039
720.984	0.0150616
721.062	0.0150605
721.140	0.0148640
721.218	0.0149630
721.297	0.0149383
721.375	0.0150415
721.453	0.0149219
721.531	0.0148638
721.609	0.0149174
721.687	0.0149627
721.765	0.0149644
721.843	0.0151186
721.922	0.0150238
722.000	0.0148672
722.078	0.0148927
722.156	0.0148166
722.234	0.0149041
722.312	0.0149472
722.390	0.0149475
722.468	0.0149067
722.547	0.0149736
722.625	0.0149546
722.703	0.0151086
722.781	0.0148600
722.859	0.0149666
722.937	0.0148806
723.015	0.0150373
723.093	0.0149346
723.172	0.0150604
723.250	0.0150992
723.328	0.0150304
723.406	0.0149499
723.484	0.0150026
723.562	0.0150551
723.640	0.0150981
723.718	0.0150181
723.797	0.0149742
723.875	0.0149852
723.953	0.0149952
724.031	0.0150211
724.109	0.0150286
724.187	0.0151189
724.265	0.0150679
724.343	0.0150344
724.422	0.0150152
724.500	0.0149886
724.578	0.0149296
724.656	0.0151868
724.734	0.0150013
724.812	0.0150720
724.890	0.0151399
724.968	0.0150918
725.047	0.0150273
725.125	0.0149996
725.203	0.0149529
725.281	0.0150406
725.359	0.0149255
725.437	0.0150302
725.515	0.0149545
725.593	0.0149064
725.672	0.0150428
725.750	0.0149479
725.828	0.0149249
725.906	0.0150773
725.984	0.0149117
726.062	0.0149726
726.140	0.0149369
726.218	0.0149559
726.297	0.0149462
726.375	0.0150348
726.453	0.0150454
726.531	0.0148721
726.609	0.0151098
726.687	0.0151675
726.765	0.0149889
726.843	0.0150297
726.922	0.0149596
727.000	0.0149143
727.078	0.0149787
727.156	0.0150416
727.234	0.0150890
727.312	0.0150911
727.390	0.0150516
727.468	0.0150763
727.547	0.0149435
727.625	0.0150698
727.703	0.0149084
727.781	0.0148957
727.859	0.0148824
727.937	0.0149604
728.015	0.0150565
728.093	0.0150473
728.172	0.0149875
728.250	0.0149792
728.328	0.0150283
728.406	0.0149717
728.484	0.0148818
728.562	0.0149638
728.640	0.0151862
728.718	0.0149715
728.797	0.0150004
728.875	0.0151022
728.953	0.0150458
729.031	0.0149271
729.109	0.0149811
729.187	0.0151077
729.265	0.0149722
729.343	0.0148619
729.422	0.0149467
729.500	0.0149062
729.578	0.0149767
729.656	0.0149341
729.734	0.0147977
729.812	0.0149472
729.890	0.0149948
729.968	0.0148981
730.047	0.0148689
730.125	0.0149581
730.203	0.0149833
730.281	0.0148904
730.359	0.0150230
730.437	0.0150705
730.515	0.0149692
730.593	0.0148826
730.672	0.0149798
730.750	0.0149432
730.828	0.0150365
730.906	0.0149294
730.984	0.0148791
731.062	0.0149670
731.140	0.0150011
731.218	0.0151452
731.297	0.0150752
731.375	0.0148453
731.453	0.0149361
731.531	0.0149718
731.609	0.0148897
731.687	0.0149934
731.765	0.0149816
731.843	0.0148364
731.922	0.0149684
732.000	0.0149540
732.078	0.0149287
732.156	0.0149232
732.234	0.0149323
732.312	0.0148631
732.390	0.0149364
732.468	0.0148285
732.547	0.0148017
732.625	0.0148250
732.703	0.0149149
732.781	0.0148783
732.859	0.0149007
732.937	0.0148518
733.015	0.0148292
733.093	0.0148693
733.172	0.0148077
733.250	0.0147440
733.328	0.0149457
733.406	0.0149329
733.484	0.0149051
733.562	0.0149330
733.640	0.0149071
733.718	0.0148576
733.797	0.0149150
733.875	0.0149458
733.953	0.0148792
734.031	0.0148168
734.109	0.0150122
734.187	0.0148936
734.265	0.0149349
734.343	0.0148418
734.422	0.0148741
734.500	0.0149739
734.578	0.0149138
734.656	0.0150050
734.734	0.0149764
734.812	0.0149287
734.890	0.0148418
734.968	0.0148225
735.047	0.0150150
735.125	0.0150269
735.203	0.0149960
735.281	0.0148956
735.359	0.0148558
735.437	0.0149444
735.515	0.0148956
735.593	0.0148292
735.672	0.0149064
735.750	0.0147972
735.828	0.0149441
735.906	0.0149167
735.984	0.0149648
736.062	0.0148492
736.140	0.0148814
736.218	0.0148547
736.297	0.0148571
736.375	0.0148119
736.453	0.0149170
736.531	0.0149695
736.609	0.0148919
736.687	0.0149732
736.765	0.0150102
736.843	0.0148557
736.922	0.0147833
737.000	0.0149786
737.078	0.0150008
737.156	0.0148945
737.234	0.0149734
737.312	0.0149217
737.390	0.0149972
737.468	0.0149332
737.547	0.0148983
737.625	0.0147974
737.703	0.0150106
737.781	0.0150735
737.859	0.0149067
737.937	0.0149919
738.015	0.0150614
738.093	0.0147723
738.172	0.0150285
738.250	0.0149837
738.328	0.0150029
738.406	0.0150733
738.484	0.0150372
738.562	0.0150274
738.640	0.0148619
738.718	0.0150430
738.797	0.0149402
738.875	0.0149477
738.953	0.0149565
739.031	0.0149688
739.109	0.0149866
739.187	0.0149221
739.265	0.0150383
739.343	0.0148911
739.422	0.0149116
739.500	0.0148478
739.578	0.0148185
739.656	0.0148651
739.734	0.0148692
739.812	0.0148930
739.890	0.0148858
739.968	0.0149188
740.047	0.0148665
740.125	0.0149227
740.203	0.0150060
740.281	0.0150911
740.359	0.0150381
740.437	0.0150933
740.515	0.0150243
740.593	0.0149472
740.672	0.0149873
740.750	0.0149390
740.828	0.0148396
740.906	0.0149153
740.984	0.0148956
741.062	0.0148547
741.140	0.0149138
741.218	0.0149057
741.297	0.0148551
741.375	0.0149673
741.453	0.0149805
741.531	0.0148793
741.609	0.0148746
741.687	0.0150713
741.765	0.0149429
741.843	0.0149572
741.922	0.0150661
742.000	0.0150191
742.078	0.0150430
742.156	0.0151169
742.234	0.0149981
742.312	0.0150315
742.390	0.0150471
742.468	0.0149152
742.547	0.0150751
742.625	0.0149741
742.703	0.0148830
742.781	0.0148830
742.859	0.0147903
742.937	0.0147535
743.015	0.0147482
743.093	0.0147441
743.172	0.0146354
743.250	0.0146670
743.328	0.0147000
743.406	0.0147643
743.484	0.0148545
743.562	0.0150005
743.640	0.0149004
743.718	0.0149760
743.797	0.0149032
743.875	0.0150393
743.953	0.0149682
744.031	0.0150220
744.109	0.0149860
744.187	0.0150357
744.265	0.0150547
744.343	0.0148521
744.422	0.0149940
744.500	0.0149612
744.578	0.0151084
744.656	0.0152174
744.734	0.0150721
744.812	0.0150840
744.890	0.0151144
744.968	0.0149801
745.047	0.0149934
745.125	0.0150688
745.203	0.0148325
745.281	0.0149291
745.359	0.0149037
745.437	0.0146044
745.515	0.0145079
745.593	0.0144951
745.672	0.0145201
745.750	0.0145747
745.828	0.0144850
745.906	0.0145517
745.984	0.0147289
746.062	0.0146122
746.140	0.0146290
746.218	0.0146308
746.297	0.0146921
746.375	0.0148309
746.453	0.0147478
746.531	0.0148251
746.609	0.0148974
746.687	0.0150279
746.765	0.0151561
746.843	0.0152464
746.922	0.0153985
747.000	0.0156223
747.078	0.0155831
747.156	0.0156242
747.234	0.0157241
747.312	0.0159744
747.390	0.0159122
747.468	0.0158981
747.547	0.0158149
747.625	0.0159236
747.703	0.0158958
747.781	0.0159447
747.859	0.0157586
747.937	0.0155324
748.015	0.0155782
748.093	0.0154351
748.172	0.0152176
748.250	0.0151080
748.328	0.0150298
748.406	0.0149252
748.484	0.0147575
748.562	0.0143985
748.640	0.0140479
748.718	0.0140071
748.797	0.0135190
748.875	0.0131879
748.953	0.0128510
749.031	0.0126576
749.109	0.0125197
749.187	0.0123420
749.265	0.0122969
749.343	0.0122554
749.422	0.0124461
749.500	0.0126357
749.578	0.0132252
749.656	0.0136247
749.734	0.0140745
749.812	0.0147914
749.890	0.0155795
749.968	0.0163388
750.047	0.0169666
750.125	0.0177287
750.203	0.0184995
750.281	0.0189384
750.359	0.0193324
750.437	0.0196813
750.515	0.0198162
750.593	0.0197794
750.672	0.0196615
750.750	0.0193162
750.828	0.0189569
750.906	0.0182605
750.984	0.0177949
751.062	0.0170879
751.140	0.0163988
751.218	0.0157425
751.297	0.0149855
751.375	0.0142057
751.453	0.0136064
751.531	0.0130415
751.609	0.0122628
751.687	0.0116030
751.765	0.0109432
751.843	0.0101434
751.922	0.00980545
752.000	0.00920105
752.078	0.00893250
752.156	0.00866119
752.234	0.00854149
752.312	0.00859985
752.390	0.00884697
752.468	0.00935089
752.547	0.00984032
752.625	0.0106611
752.703	0.0116695
752.781	0.0127344
752.859	0.0138389
752.937	0.0151312
753.015	0.0163544
753.093	0.0175172
753.172	0.0186646
753.250	0.0197957
753.328	0.0210145
753.406	0.0219135
753.484	0.0224820
753.562	0.0229360
753.640	0.0232505
753.718	0.0231551
753.797	0.0228859
753.875	0.0224009
753.953	0.0221720
754.031	0.0212222
754.109	0.0203434
754.187	0.0195417
754.265	0.0187174
754.343	0.0176487
754.422	0.0165973
754.500	0.0155209
754.578	0.0145996
754.656	0.0135479
754.734	0.0126708
754.812	0.0117120
754.890	0.0107395
754.968	0.0100949
755.047	0.00956848
755.125	0.00877495
755.203	0.00823067
755.281	0.00773293
755.359	0.00753769
755.437	0.00735207
755.515	0.00727737
755.593	0.00741379
755.672	0.00748062
755.750	0.00794830
755.828	0.00848083
755.906	0.00914780
755.984	0.00987930
756.062	0.0107231
756.140	0.0120147
756.218	0.0130690
756.297	0.0143198
756.375	0.0155915
756.453	0.0168198
756.531	0.0181490
756.609	0.0192543
756.687	0.0203516
756.765	0.0211076
756.843	0.0218024
756.922	0.0222899
757.000	0.0227575
757.078	0.0229186
757.156	0.0229143
757.234	0.0227074
757.312	0.0224411
757.390	0.0221104
757.468	0.0216159
757.547	0.0211275
757.625	0.0202243
757.703	0.0195002
757.781	0.0188407
757.859	0.0179013
757.937	0.0171470
758.015	0.0162978
758.093	0.0154488
758.172	0.0147994
758.250	0.0140421
758.328	0.0132527
758.406	0.0124511
758.484	0.0116267
758.562	0.0106480
758.640	0.00964310
758.718	0.00889275
758.797	0.00818573
758.875	0.00760895
758.953	0.00700134
759.031	0.00624672
759.109	0.00616112
759.187	0.00603645
759.265	0.00637123
759.343	0.00691605
759.422	0.00764099
759.500	0.00859596
759.578	0.00989143
759.656	0.0112259
759.734	0.0127744
759.812	0.0143251
759.890	0.0159735
759.968	0.0176213
760.047	0.0190401
760.125	0.0203489
760.203	0.0215114
760.281	0.0222921
760.359	0.0227033
760.437	0.0231017
760.515	0.0231310
760.593	0.0227191
760.672	0.0221893
760.750	0.0216296
760.828	0.0207848
760.906	0.0198904
760.984	0.0188479
761.062	0.0180217
761.140	0.0170533
761.218	0.0163611
761.297	0.0155402
761.375	0.0149522
761.453	0.0146169
761.531	0.0142687
761.609	0.0139884
761.687	0.0137242
761.765	0.0136430
761.843	0.0133214
761.922	0.0129890
762.000	0.0126508
762.078	0.0122614
762.156	0.0113583
762.234	0.0107455
762.312	0.0100197
762.390	0.00927025
762.468	0.00869812
762.547	0.00829277
762.625	0.00789528
762.703	0.00788544
762.781	0.00802032
762.859	0.00861900
762.937	0.00958458
763.015	0.0106613
763.093	0.0119547
763.172	0.0135847
763.250	0.0153664
763.328	0.0173129
763.406	0.0189650
763.484	0.0205715
763.562	0.0222085
763.640	0.0233623
763.718	0.0243073
763.797	0.0248569
763.875	0.0251182
763.953	0.0250481
764.031	0.0245528
764.109	0.0236054
764.187	0.0225733
764.265	0.0211465
764.343	0.0196214
764.422	0.0177831
764.500	0.0160701
764.578	0.0143188
764.656	0.0127437
764.734	0.0110278
764.812	0.00987022
764.890	0.00866119
764.968	0.00784256
765.047	0.00726982
765.125	0.00694389
765.203	0.00691795
765.281	0.00707191
765.359	0.00739807
765.437	0.00799431
765.515	0.00842918
765.593	0.00889656
765.672	0.00934883
765.750	0.0101041
765.828	0.0105012
765.906	0.0110169
765.984	0.0116966
766.062	0.0123515
766.140	0.0132446
766.218	0.0138720
766.297	0.0145955
766.375	0.0157284
766.453	0.0166796
766.531	0.0178372
766.609	0.0187750
766.687	0.0199498
766.765	0.0207966
766.843	0.0217283
766.922	0.0224855
767.000	0.0231448
767.078	0.0234693
767.156	0.0237904
767.234	0.0236998
767.312	0.0235006
767.390	0.0229823
767.468	0.0221897
767.547	0.0211627
767.625	0.0200465
767.703	0.0189425
767.781	0.0175700
767.859	0.0163483
767.937	0.0149703
768.015	0.0136081
768.093	0.0126199
768.172	0.0115991
768.250	0.0107074
768.328	0.00972488
768.406	0.00908493
768.484	0.00834694
768.562	0.00817703
768.640	0.00777672
768.718	0.00775398
768.797	0.00784515
768.875	0.00794937
768.953	0.00817474
769.031	0.00860596
769.109	0.00918594
769.187	0.00955307
769.265	0.0102779
769.343	0.0111716
769.422	0.0118817
769.500	0.0127409
769.578	0.0136069
769.656	0.0145465
769.734	0.0156163
769.812	0.0165353
769.890	0.0174339
769.968	0.0182623
770.047	0.0190208
770.125	0.0197222
770.203	0.0202894
770.281	0.0207574
770.359	0.0207943
770.437	0.0210460
770.515	0.0207376
770.593	0.0204745
770.672	0.0200124
770.750	0.0194563
770.828	0.0188458
770.906	0.0179851
770.984	0.0171590
771.062	0.0164217
771.140	0.0157635
771.218	0.0150009
771.297	0.0142745
771.375	0.0138811
771.453	0.0131912
771.531	0.0125832
771.609	0.0125320
771.687	0.0122707
771.765	0.0119234
771.843	0.0118771
771.922	0.0117262
772.000	0.0116310
772.078	0.0118388
772.156	0.0118724
772.234	0.0121583
772.312	0.0124675
772.390	0.0127151
772.468	0.0130048
772.547	0.0132429
772.625	0.0134962
772.703	0.0137964
772.781	0.0143059
772.859	0.0144963
772.937	0.0148824
773.015	0.0152257
773.093	0.0157347
773.172	0.0161179
773.250	0.0165363
773.328	0.0171531
773.406	0.0173258
773.484	0.0180215
773.562	0.0181625
773.640	0.0185442
773.718	0.0185754
773.797	0.0184955
773.875	0.0184197
773.953	0.0180000
774.031	0.0177164
774.109	0.0173008
774.187	0.0167861
774.265	0.0161444
774.343	0.0156415
774.422	0.0148598
774.500	0.0143089
774.578	0.0135238
774.656	0.0129172
774.734	0.0125797
774.812	0.0121544
774.890	0.0119487
774.968	0.0117413
775.047	0.0117811
775.125	0.0118632
775.203	0.0120246
775.281	0.0123190
775.359	0.0126315
775.437	0.0128542
775.515	0.0130353
775.593	0.0134439
775.672	0.0138284
775.750	0.0138554
775.828	0.0140302
775.906	0.0142474
775.984	0.0142493
776.062	0.0144259
776.140	0.0145739
776.218	0.0146668
776.297	0.0147522
776.375	0.0148846
776.453	0.0152484
776.531	0.0153744
776.609	0.0156654
776.687	0.0159850
776.765	0.0163239
776.843	0.0167095
776.922	0.0170714
777.000	0.0175037
777.078	0.0178101
777.156	0.0180643
777.234	0.0181931
777.312	0.0183146
777.390	0.0181406
777.468	0.0180402
777.547	0.0177558
777.625	0.0172398
777.703	0.0168945
777.781	0.0163226
777.859	0.0157003
777.937	0.0152972
778.015	0.0148321
778.093	0.0142822
778.172	0.0138451
778.250	0.0135914
778.328	0.0133029
778.406	0.0130211
778.484	0.0131693
778.562	0.0131631
778.640	0.0131528
778.718	0.0133870
778.797	0.0136412
778.875	0.0135418
778.953	0.0138047
779.031	0.0139352
779.109	0.0138658
779.187	0.0140817
779.265	0.0139785
779.343	0.0140269
779.422	0.0142567
779.500	0.0141823
779.578	0.0145063
779.656	0.0143284
779.734	0.0143690
779.812	0.0144221
779.890	0.0149120
779.968	0.0149450
780.047	0.0151865
780.125	0.0152272
780.203	0.0154587
780.281	0.0156654
780.359	0.0159320
780.437	0.0163036
780.515	0.0165144
780.593	0.0166256
780.672	0.0166193
780.750	0.0166471
780.828	0.0163472
780.906	0.0163066
780.984	0.0162922
781.062	0.0159860
781.140	0.0156276
781.218	0.0152894
781.297	0.0151012
781.375	0.0146324
781.453	0.0143614
781.531	0.0142576
781.609	0.0138669
781.687	0.0136475
781.765	0.0135877
781.843	0.0134923
781.922	0.0134273
782.000	0.0137238
782.078	0.0137351
782.156	0.0139210
782.234	0.0139487
782.312	0.0141583
782.390	0.0143110
782.468	0.0144153
782.547	0.0144572
782.625	0.0146488
782.703	0.0147907
782.781	0.0148801
782.859	0.0150603
782.937	0.0151884
783.015	0.0153648
783.093	0.0154661
783.172	0.0154485
783.250	0.0154159
783.328	0.0154024
783.406	0.0155602
783.484	0.0157062
783.562	0.0158102
783.640	0.0157230
783.718	0.0158166
783.797	0.0158994
783.875	0.0159165
783.953	0.0160522
784.031	0.0159487
784.109	0.0160798
784.187	0.0159657
784.265	0.0158349
784.343	0.0157925
784.422	0.0157609
784.500	0.0157543
784.578	0.0154015
784.656	0.0151781
784.734	0.0151895
784.812	0.0147521
784.890	0.0147191
784.968	0.0144783
785.047	0.0143689
785.125	0.0141600
785.203	0.0141080
785.281	0.0140802
785.359	0.0140887
785.437	0.0142177
785.515	0.0142229
785.593	0.0141601
785.672	0.0143642
785.750	0.0144328
785.828	0.0145053
785.906	0.0146957
785.984	0.0148024
786.062	0.0148621
786.140	0.0149314
786.218	0.0146907
786.297	0.0148774
786.375	0.0147945
786.453	0.0147436
786.531	0.0146693
786.609	0.0146704
786.687	0.0147208
786.765	0.0145319
786.843	0.0144433
786.922	0.0143808
787.000	0.0143034
787.078	0.0144135
787.156	0.0144803
787.234	0.0145921
787.312	0.0147019
787.390	0.0148679
787.468	0.0149351
787.547	0.0151710
787.625	0.0153407
787.703	0.0153267
787.781	0.0155133
787.859	0.0157204
787.937	0.0157301
788.015	0.0156506
788.093	0.0157035
788.172	0.0155121
788.250	0.0153536
788.328	0.0153540
788.406	0.0152464
788.484	0.0150657
788.562	0.0148785
788.640	0.0147555
788.718	0.0146748
788.797	0.0143774
788.875	0.0143446
788.953	0.0143569
789.031	0.0143104
789.109	0.0144307
789.187	0.0144020
789.265	0.0146550
789.343	0.0147971
789.422	0.0148122
789.500	0.0150289
789.578	0.0151891
789.656	0.0153493
789.734	0.0155025
789.812	0.0157068
789.890	0.0156945
789.968	0.0156927
790.047	0.0155920
790.125	0.0155736
790.203	0.0155276
790.281	0.0153379
790.359	0.0153129
790.437	0.0151402
790.515	0.0151844
790.593	0.0150157
790.672	0.0149883
790.750	0.0149236
790.828	0.0147540
790.906	0.0149377
790.984	0.0148373
791.062	0.0148928
791.140	0.0148743
791.218	0.0149245
791.297	0.0149425
791.375	0.0148696
791.453	0.0149781
791.531	0.0149696
791.609	0.0149503
791.687	0.0148872
791.765	0.0145975
791.843	0.0147838
791.922	0.0148301
792.000	0.0146494
792.078	0.0145548
792.156	0.0143576
792.234	0.0144192
792.312	0.0143576
792.390	0.0143057
792.468	0.0141712
792.547	0.0143311
792.625	0.0143972
792.703	0.0143202
792.781	0.0145163
792.859	0.0147829
792.937	0.0147742
793.015	0.0148074
793.093	0.0151041
793.172	0.0150262
793.250	0.0152170
793.328	0.0152636
793.406	0.0152569
793.484	0.0153352
793.562	0.0152739
793.640	0.0153026
793.718	0.0150611
793.797	0.0151174
793.875	0.0149530
793.953	0.0149760
794.031	0.0148475
794.109	0.0148359
794.187	0.0147483
794.265	0.0146652
794.343	0.0146883
794.422	0.0147163
794.500	0.0148277
794.578	0.0148708
794.656	0.0148947
794.734	0.0150410
794.812	0.0151100
794.890	0.0151274
794.968	0.0150838
795.047	0.0153476
795.125	0.0153182
795.203	0.0154866
795.281	0.0153838
795.359	0.0155711
795.437	0.0153548
795.515	0.0155603
795.593	0.0154710
795.672	0.0153828
795.750	0.0153566
795.828	0.0152289
795.906	0.0151524
795.984	0.0151946
796.062	0.0149780
796.140	0.0148225
796.218	0.0150000
796.297	0.0149339
796.375	0.0148987
796.453	0.0149822
796.531	0.0151349
796.609	0.0151788
796.687	0.0150151
796.765	0.0149969
796.843	0.0151733
796.922	0.0150620
797.000	0.0149963
797.078	0.0150766
797.156	0.0149763
797.234	0.0150026
797.312	0.0148859
797.390	0.0148207
797.468	0.0146906
797.547	0.0147342
797.625	0.0146207
797.703	0.0144128
797.781	0.0144715
797.859	0.0144966
797.937	0.0144006
798.015	0.0144147
798.093	0.0145218
798.172	0.0145887
798.250	0.0146274
798.328	0.0148814
798.406	0.0148795
798.484	0.0150034
798.562	0.0150587
798.640	0.0152292
798.718	0.0150995
798.797	0.0152234
798.875	0.0150606
798.953	0.0150385
799.031	0.0151538
799.109	0.0149879
799.187	0.0148635
799.265	0.0147265
799.343	0.0145972
799.422	0.0144277
799.500	0.0142699
799.578	0.0143755
799.656	0.0142474
799.734	0.0142106
799.812	0.0143089
799.890	0.0143447
799.968	0.0144598
800.047	0.0146478
800.125	0.0147130
800.203	0.0149815
800.281	0.0151052
800.359	0.0150021
800.437	0.0153829
800.515	0.0154353
800.593	0.0153898
800.672	0.0154711
800.750	0.0156837
800.828	0.0156172
800.906	0.0157655
800.984	0.0156088
801.062	0.0155564
801.140	0.0153976
801.218	0.0152970
801.297	0.0154405
801.375	0.0150785
801.453	0.0153151
801.531	0.0151566
801.609	0.0149819
801.687	0.0149768
801.765	0.0147625
801.843	0.0148683
801.922	0.0148025
802.000	0.0149627
802.078	0.0151123
802.156	0.0150916
802.234	0.0150475
802.312	0.0151401
802.390	0.0152450
802.468	0.0154380
802.547	0.0152927
802.625	0.0153365
802.703	0.0152107
802.781	0.0151127
802.859	0.0150472
802.937	0.0150022
803.015	0.0149096
803.093	0.0148003
803.172	0.0147829
803.250	0.0147151
803.328	0.0146294
803.406	0.0148019
803.484	0.0147763
803.562	0.0146425
803.640	0.0148061
803.718	0.0146938
803.797	0.0147691
803.875	0.0146795
803.953	0.0147710
804.031	0.0147748
804.109	0.0147784
804.187	0.0147532
804.265	0.0149287
804.343	0.0148668
804.422	0.0148658
804.500	0.0149294
804.578	0.0148871
804.656	0.0148105
804.734	0.0146852
804.812	0.0148222
804.890	0.0148541
804.968	0.0147401
805.047	0.0148980
805.125	0.0148474
805.203	0.0148544
805.281	0.0148824
805.359	0.0150193
805.437	0.0150775
805.515	0.0150014
805.593	0.0150537
805.672	0.0150304
805.750	0.0151953
805.828	0.0152963
805.906	0.0153024
805.984	0.0152008
806.062	0.0154139
806.140	0.0154163
806.218	0.0153217
806.297	0.0153226
806.375	0.0154277
806.453	0.0154823
806.531	0.0152212
806.609	0.0151569
806.687	0.0153302
806.765	0.0152286
806.843	0.0152937
806.922	0.0151579
807.000	0.0151669
807.078	0.0152193
807.156	0.0152773
807.234	0.0152314
807.312	0.0152037
807.390	0.0152479
807.468	0.0150845
807.547	0.0150692
807.625	0.0150534
807.703	0.0150417
807.781	0.0149538
807.859	0.0148667
807.937	0.0147619
808.015	0.0147790
808.093	0.0147123
808.172	0.0147543
808.250	0.0147202
808.328	0.0146811
808.406	0.0146667
808.484	0.0146922
808.562	0.0146661
808.640	0.0148166
808.718	0.0149006
808.797	0.0148147
808.875	0.0147598
808.953	0.0148368
809.031	0.0149068
809.109	0.0148503
809.187	0.0149715
809.265	0.0152013
809.343	0.0151439
809.422	0.0152110
809.500	0.0151723
809.578	0.0152590
809.656	0.0152721
809.734	0.0151840
809.812	0.0151730
809.890	0.0152056
809.968	0.0151870
810.047	0.0151224
810.125	0.0151205
810.203	0.0151436
810.281	0.0149209
810.359	0.0149763
810.437	0.0150152
810.515	0.0150708
810.593	0.0148462
810.672	0.0148180
810.750	0.0147689
810.828	0.0148856
810.906	0.0148743
810.984	0.0148948
811.062	0.0148656
811.140	0.0147848
811.218	0.0147980
811.297	0.0146846
811.375	0.0147930
811.453	0.0148203
811.531	0.0147549
811.609	0.0149734
811.687	0.0149350
811.765	0.0148857
811.843	0.0147720
811.922	0.0147364
812.000	0.0148028
812.078	0.0147032
812.156	0.0147623
812.234	0.0147623
812.312	0.0147517
812.390	0.0148326
812.468	0.0149632
812.547	0.0149496
812.625	0.0149599
812.703	0.0149297
812.781	0.0150297
812.859	0.0149776
812.937	0.0150554
813.015	0.0152384
813.093	0.0151539
813.172	0.0151076
813.250	0.0152309
813.328	0.0153710
813.406	0.0152701
813.484	0.0152543
813.562	0.0152167
813.640	0.0153037
813.718	0.0152266
813.797	0.0152012
813.875	0.0151648
813.953	0.0151310
814.031	0.0150732
814.109	0.0150634
814.187	0.0148718
814.265	0.0151659
814.343	0.0150993
814.422	0.0150122
814.500	0.0147955
814.578	0.0148829
814.656	0.0149797
814.734	0.0149859
814.812	0.0149124
814.890	0.0148825
814.968	0.0148638
815.047	0.0148519
815.125	0.0147704
815.203	0.0148282
815.281	0.0147256
815.359	0.0147453
815.437	0.0147171
815.515	0.0148740
815.593	0.0148425
815.672	0.0148398
815.750	0.0148957
815.828	0.0149792
815.906	0.0148391
815.984	0.0148415
816.062	0.0148363
816.140	0.0149046
816.218	0.0150114
816.297	0.0150962
816.375	0.0150935
816.453	0.0150534
816.531	0.0150581
816.609	0.0150134
816.687	0.0151048
816.765	0.0150368
816.843	0.0150264
816.922	0.0149575
817.000	0.0148882
817.078	0.0148643
817.156	0.0150101
817.234	0.0148237
817.312	0.0149117
817.390	0.0148862
817.468	0.0149150
817.547	0.0149003
817.625	0.0149452
817.703	0.0148430
817.781	0.0147708
817.859	0.0149625
817.937	0.0147297
818.015	0.0147138
818.093	0.0149734
818.172	0.0150700
818.250	0.0150380
818.328	0.0149609
818.406	0.0151394
818.484	0.0150809
818.562	0.0149393
818.640	0.0149070
818.718	0.0149665
818.797	0.0150020
818.875	0.0148533
818.953	0.0149935
819.031	0.0148051
819.109	0.0147864
819.187	0.0148108
819.265	0.0148009
819.343	0.0148466
819.422	0.0149263
819.500	0.0148586
819.578	0.0149066
819.656	0.0149066
819.734	0.0151443
819.812	0.0149596
819.890	0.0149100
819.968	0.0149410
820.047	0.0151199
820.125	0.0151307
820.203	0.0150493
820.281	0.0150526
820.359	0.0149673
820.437	0.0150774
820.515	0.0149367
820.593	0.0149427
820.672	0.0149103
820.750	0.0149151
820.828	0.0147684
820.906	0.0148906
820.984	0.0148206
821.062	0.0149953
821.140	0.0148096
821.218	0.0149924
821.297	0.0150626
821.375	0.0146960
821.453	0.0150198
821.531	0.0149039
821.609	0.0150377
821.687	0.0151147
821.765	0.0151149
821.843	0.0151276
821.922	0.0151422
822.000	0.0153208
822.078	0.0151869
822.156	0.0152654
822.234	0.0151958
822.312	0.0150485
822.390	0.0151331
822.468	0.0151057
822.547	0.0150272
822.625	0.0149915
822.703	0.0148721
822.781	0.0150079
822.859	0.0147704
822.937	0.0147783
823.015	0.0148263
823.093	0.0146664
823.172	0.0148824
823.250	0.0148195
823.328	0.0148119
823.406	0.0148620
823.484	0.0148532
823.562	0.0148218
823.640	0.0149751
823.718	0.0148640
823.797	0.0150269
823.875	0.0150180
823.953	0.0149956
824.031	0.0149778
824.109	0.0149610
824.187	0.0149654
824.265	0.0149622
824.343	0.0149039
824.422	0.0149999
824.500	0.0147865
824.578	0.0146241
824.656	0.0149279
824.734	0.0147638
824.812	0.0148111
824.890	0.0147260
824.968	0.0146834
825.047	0.0147440
825.125	0.0148146
825.203	0.0148318
825.281	0.0145982
825.359	0.0148911
825.437	0.0149608
825.515	0.0148911
825.593	0.0147940
825.672	0.0149079
825.750	0.0150352
825.828	0.0151440
825.906	0.0149908
825.984	0.0150757
826.062	0.0150798
826.140	0.0152171
826.218	0.0150962
826.297	0.0151631
826.375	0.0150382
826.453	0.0150525
826.531	0.0150755
826.609	0.0149715
826.687	0.0149158
826.765	0.0149744
826.843	0.0150641
826.922	0.0150976
827.000	0.0149538
827.078	0.0150325
827.156	0.0151324
827.234	0.0152552
827.312	0.0151974
827.390	0.0152473
827.468	0.0150633
827.547	0.0150874
827.625	0.0151158
827.703	0.0151624
827.781	0.0151456
827.859	0.0150793
827.937	0.0150417
828.015	0.0149566
828.093	0.0149791
828.172	0.0147897
828.250	0.0147970
828.328	0.0147523
828.406	0.0147425
828.484	0.0146329
828.562	0.0146423
828.640	0.0146645
828.718	0.0146142
828.797	0.0145191
828.875	0.0147449
828.953	0.0147120
829.031	0.0146899
829.109	0.0148102
829.187	0.0148248
829.265	0.0147871
829.343	0.0149386
829.422	0.0149638
829.500	0.0151561
829.578	0.0151234
829.656	0.0152325
829.734	0.0150471
829.812	0.0152127
829.890	0.0150887
829.968	0.0151392
830.047	0.0149839
830.125	0.0150766
830.203	0.0152283
830.281	0.0150677
830.359	0.0152029
830.437	0.0151659
830.515	0.0149333
830.593	0.0148598
830.672	0.0149532
830.750	0.0149682
830.828	0.0149561
830.906	0.0148834
830.984	0.0150723
831.062	0.0149309
831.140	0.0147829
831.218	0.0148486
831.297	0.0148775
831.375	0.0148469
831.453	0.0149683
831.531	0.0150247
831.609	0.0147665
831.687	0.0149027
831.765	0.0148164
831.843	0.0149974
831.922	0.0148833
832.000	0.0148249
832.078	0.0148160
832.156	0.0149320
832.234	0.0150940
832.312	0.0151773
832.390	0.0149368
832.468	0.0150349
832.547	0.0151325
832.625	0.0151512
832.703	0.0150245
832.781	0.0151086
832.859	0.0150797
832.937	0.0151614
833.015	0.0150936
833.093	0.0149113
833.172	0.0149731
833.250	0.0151340
833.328	0.0151561
833.406	0.0151017
833.484	0.0150059
833.562	0.0151207
833.640	0.0152094
833.718	0.0150310
833.797	0.0150130
833.875	0.0150798
833.953	0.0150677
834.031	0.0149183
834.109	0.0149590
834.187	0.0149425
834.265	0.0149390
834.343	0.0148834
834.422	0.0149123
834.500	0.0149243
834.578	0.0148892
834.656	0.0147942
834.734	0.0148476
834.812	0.0148471
834.890	0.0149295
834.968	0.0147798
835.047	0.0147496
835.125	0.0148424
835.203	0.0148820
835.281	0.0148503
835.359	0.0147517
835.437	0.0148262
835.515	0.0148887
835.593	0.0149843
835.672	0.0150157
835.750	0.0150369
835.828	0.0149702
835.906	0.0149113
835.984	0.0148901
836.062	0.0149300
836.140	0.0150302
836.218	0.0148882
836.297	0.0149561
836.375	0.0147884
836.453	0.0147525
836.531	0.0148721
836.609	0.0148439
836.687	0.0147194
836.765	0.0148603
836.843	0.0148335
836.922	0.0147665
837.000	0.0148782
837.078	0.0149613
837.156	0.0148904
837.234	0.0148777
837.312	0.0149063
837.390	0.0148891
837.468	0.0149928
837.547	0.0150404
837.625	0.0149581
837.703	0.0148457
837.781	0.0148606
837.859	0.0149230
837.937	0.0148489
838.015	0.0148167
838.093	0.0150346
838.172	0.0148460
838.250	0.0150623
838.328	0.0148300
838.406	0.0147984
838.484	0.0149745
838.562	0.0147855
838.640	0.0148926
838.718	0.0148740
838.797	0.0149529
838.875	0.0150024
838.953	0.0150294
839.031	0.0149387
839.109	0.0148547
839.187	0.0149167
839.265	0.0151421
839.343	0.0149850
839.422	0.0149257
839.500	0.0150008
839.578	0.0151101
839.656	0.0150215
839.734	0.0151331
839.812	0.0150526
839.890	0.0148989
839.968	0.0150356
840.047	0.0149458
840.125	0.0150262
840.203	0.0149789
840.281	0.0148926
840.359	0.0147955
840.437	0.0149881
840.515	0.0149940
840.593	0.0149013
840.672	0.0149550
840.750	0.0150929
840.828	0.0150544
840.906	0.0149897
840.984	0.0148627
841.062	0.0149014
841.140	0.0149152
841.218	0.0149258
841.297	0.0149395
841.375	0.0149400
841.453	0.0147767
841.531	0.0148802
841.609	0.0150093
841.687	0.0148370
841.765	0.0149195
841.843	0.0148577
841.922	0.0148350
842.000	0.0148277
842.078	0.0148779
842.156	0.0148401
842.234	0.0149278
842.312	0.0149031
842.390	0.0148503
842.468	0.0147189
842.547	0.0147559
842.625	0.0148878
842.703	0.0147689
842.781	0.0148190
842.859	0.0148686
842.937	0.0148625
843.015	0.0148779
843.093	0.0149219
843.172	0.0148845
843.250	0.0149936
843.328	0.0149878
843.406	0.0150234
843.484	0.0150183
843.562	0.0149016
843.640	0.0148464
843.718	0.0148307
843.797	0.0149413
843.875	0.0149618
843.953	0.0150026
844.031	0.0148438
844.109	0.0149529
844.187	0.0147618
844.265	0.0149490
844.343	0.0148508
844.422	0.0148867
844.500	0.0149633
844.578	0.0149599
844.656	0.0150435
844.734	0.0150272
844.812	0.0150470
844.890	0.0149545
844.968	0.0152458
845.047	0.0149797
845.125	0.0150146
845.203	0.0150703
845.281	0.0150645
845.359	0.0149733
845.437	0.0149150
845.515	0.0149698
845.593	0.0149785
845.672	0.0148418
845.750	0.0148575
845.828	0.0148197
845.906	0.0148439
845.984	0.0148441
846.062	0.0147131
846.140	0.0146464
846.218	0.0148126
846.297	0.0149854
846.375	0.0149442
846.453	0.0148581
846.531	0.0148714
846.609	0.0149918
846.687	0.0151486
846.765	0.0152039
846.843	0.0151567
846.922	0.0153445
847.000	0.0154341
847.078	0.0153678
847.156	0.0152641
847.234	0.0152948
847.312	0.0154235
847.390	0.0153786
847.468	0.0153046
847.547	0.0154143
847.625	0.0153964
847.703	0.0153065
847.781	0.0150876
847.859	0.0151346
847.937	0.0150340
848.015	0.0149259
848.093	0.0148719
848.172	0.0148488
848.250	0.0148508
848.328	0.0147060
848.406	0.0145761
848.484	0.0145496
848.562	0.0144753
848.640	0.0144421
848.718	0.0142615
848.797	0.0140923
848.875	0.0141473
848.953	0.0141593
849.031	0.0140036
849.109	0.0141224
849.187	0.0141098
849.265	0.0142462
849.343	0.0143379
849.422	0.0144553
849.500	0.0146201
849.578	0.0148338
849.656	0.0149363
849.734	0.0150558
849.812	0.0151699
849.890	0.0154739
849.968	0.0155347
850.047	0.0156569
850.125	0.0157351
850.203	0.0159187
850.281	0.0158633
850.359	0.0159716
850.437	0.0160202
850.515	0.0159093
850.593	0.0159253
850.672	0.0160752
850.750	0.0159348
850.828	0.0158336
850.906	0.0158764
850.984	0.0158281
851.062	0.0155028
851.140	0.0154186
851.218	0.0154838
851.297	0.0151669
851.375	0.0149709
851.453	0.0148972
851.531	0.0147716
851.609	0.0145592
851.687	0.0144231
851.765	0.0142875
851.843	0.0141972
851.922	0.0140800
852.000	0.0140983
852.078	0.0139428
852.156	0.0140349
852.234	0.0138867
852.312	0.0137347
852.390	0.0137447
852.468	0.0138895
852.547	0.0138612
852.625	0.0139790
852.703	0.0141352
852.781	0.0141413
852.859	0.0142981
852.937	0.0145038
853.015	0.0146135
853.093	0.0149335
853.172	0.0149899
853.250	0.0150343
853.328	0.0153223
853.406	0.0155147
853.484	0.0156496
853.562	0.0157390
853.640	0.0157981
853.718	0.0159250
853.797	0.0158701
853.875	0.0159323
853.953	0.0160800
854.031	0.0161058
854.109	0.0160654
854.187	0.0161340
854.265	0.0161375
854.343	0.0160809
854.422	0.0160538
854.500	0.0160428
854.578	0.0157236
854.656	0.0157133
854.734	0.0157310
854.812	0.0154875
854.890	0.0153007
854.968	0.0151931
855.047	0.0150188
855.125	0.0148081
855.203	0.0145852
855.281	0.0143948
855.359	0.0142603
855.437	0.0139415
855.515	0.0140712
855.593	0.0139059
855.672	0.0137698
855.750	0.0137206
855.828	0.0135895
855.906	0.0136060
855.984	0.0137349
856.062	0.0137665
856.140	0.0138700
856.218	0.0138098
856.297	0.0140987
856.375	0.0141740
856.453	0.0145365
856.531	0.0145811
856.609	0.0147553
856.687	0.0148643
856.765	0.0149503
856.843	0.0153323
856.922	0.0153625
857.000	0.0154980
857.078	0.0156391
857.156	0.0157896
857.234	0.0156984
857.312	0.0155570
857.390	0.0156742
857.468	0.0159401
857.547	0.0157698
857.625	0.0158310
857.703	0.0157935
857.781	0.0156870
857.859	0.0156642
857.937	0.0157555
858.015	0.0156474
858.093	0.0155579
858.172	0.0153558
858.250	0.0153066
858.328	0.0152659
858.406	0.0151283
858.484	0.0149194
858.562	0.0148711
858.640	0.0146884
858.718	0.0144483
858.797	0.0144473
858.875	0.0144256
858.953	0.0142993
859.031	0.0142294
859.109	0.0142200
859.187	0.0140429
859.265	0.0141473
859.343	0.0141185
859.422	0.0140666
859.500	0.0141277
859.578	0.0143406
859.656	0.0142249
859.734	0.0143653
859.812	0.0147978
859.890	0.0148398
859.968	0.0149829
860.047	0.0149543
860.125	0.0151755
860.203	0.0154663
860.281	0.0155133
860.359	0.0156192
860.437	0.0157919
860.515	0.0157502
860.593	0.0157182
860.672	0.0157387
860.750	0.0157909
860.828	0.0158323
860.906	0.0157465
860.984	0.0157409
861.062	0.0156242
861.140	0.0155298
861.218	0.0153460
861.297	0.0152147
861.375	0.0150247
861.453	0.0150831
861.531	0.0148927
861.609	0.0148076
861.687	0.0147118
861.765	0.0145483
861.843	0.0145680
861.922	0.0142874
862.000	0.0141170
862.078	0.0141503
862.156	0.0141206
862.234	0.0140856
862.312	0.0142319
862.390	0.0140531
862.468	0.0140685
862.547	0.0140945
862.625	0.0143497
862.703	0.0143118
862.781	0.0143991
862.859	0.0147161
862.937	0.0147252
863.015	0.0149081
863.093	0.0149284
863.172	0.0150404
863.250	0.0150955
863.328	0.0152205
863.406	0.0153897
863.484	0.0155098
863.562	0.0157838
863.640	0.0156754
863.718	0.0157168
863.797	0.0157330
863.875	0.0158580
863.953	0.0157886
864.031	0.0155925
864.109	0.0156522
864.187	0.0156545
864.265	0.0155784
864.343	0.0155116
864.422	0.0154294
864.500	0.0151734
864.578	0.0150810
864.656	0.0149559
864.734	0.0149843
864.812	0.0147832
864.890	0.0147849
864.968	0.0146613
865.047	0.0146387
865.125	0.0147190
865.203	0.0144764
865.281	0.0145117
865.359	0.0145746
865.437	0.0144629
865.515	0.0147024
865.593	0.0145251
865.672	0.0145468
865.750	0.0145786
865.828	0.0145651
865.906	0.0145774
865.984	0.0147871
866.062	0.0145867
866.140	0.0146600
866.218	0.0147617
866.297	0.0147044
866.375	0.0147076
866.453	0.0147832
866.531	0.0149399
866.609	0.0149585
866.687	0.0150005
866.765	0.0148740
866.843	0.0149365
866.922	0.0149639
867.000	0.0151323
867.078	0.0151398
867.156	0.0151256
867.234	0.0152172
867.312	0.0151555
867.390	0.0152972
867.468	0.0151111
867.547	0.0152753
867.625	0.0152146
867.703	0.0151556
867.781	0.0153267
867.859	0.0150724
867.937	0.0150533
868.015	0.0150552
868.093	0.0150806
868.172	0.0149666
868.250	0.0149310
868.328	0.0149873
868.406	0.0150201
868.484	0.0148997
868.562	0.0147825
868.640	0.0147791
868.718	0.0148544
868.797	0.0148379
868.875	0.0148634
868.953	0.0149682
869.031	0.0150191
869.109	0.0150440
869.187	0.0150829
869.265	0.0149585
869.343	0.0152104
869.422	0.0150961
869.500	0.0151986
869.578	0.0152155
869.656	0.0151834
869.734	0.0152702
869.812	0.0153287
869.890	0.0151916
869.968	0.0151438
870.047	0.0152364
870.125	0.0150413
870.203	0.0150106
870.281	0.0151773
870.359	0.0151018
870.437	0.0151275
870.515	0.0151263
870.593	0.0149505
870.672	0.0148269
870.750	0.0148201
870.828	0.0147321
870.906	0.0147910
870.984	0.0147430
871.062	0.0147901
871.140	0.0147433
871.218	0.0148256
871.297	0.0147826
871.375	0.0146850
871.453	0.0147206
871.531	0.0148266
871.609	0.0149266
871.687	0.0147738
871.765	0.0147500
871.843	0.0149152
871.922	0.0148665
872.000	0.0149012
872.078	0.0147804
872.156	0.0147355
872.234	0.0146790
872.312	0.0148693
872.390	0.0148368
872.468	0.0148082
872.547	0.0148522
872.625	0.0149423
872.703	0.0148470
872.781	0.0149407
872.859	0.0148197
872.937	0.0147876
873.015	0.0149843
873.093	0.0149532
873.172	0.0151226
873.250	0.0149670
873.328	0.0149386
873.406	0.0150690
873.484	0.0150563
873.562	0.0151676
873.640	0.0151099
873.718	0.0153067
873.797	0.0151567
873.875	0.0151093
873.953	0.0152193
874.031	0.0151051
874.109	0.0151702
874.187	0.0152778
874.265	0.0151014
874.343	0.0152222
874.422	0.0150951
874.500	0.0149315
874.578	0.0150774
874.656	0.0150330
874.734	0.0149304
874.812	0.0150120
874.890	0.0150223
874.968	0.0150227
875.047	0.0148562
875.125	0.0150942
875.203	0.0151883
875.281	0.0151307
875.359	0.0151157
875.437	0.0151542
875.515	0.0150704
875.593	0.0151981
875.672	0.0152564
875.750	0.0151832
875.828	0.0151179
875.906	0.0150767
875.984	0.0149327
876.062	0.0150134
876.140	0.0148514
876.218	0.0149311
876.297	0.0148318
876.375	0.0147090
876.453	0.0148175
876.531	0.0148543
876.609	0.0147424
876.687	0.0147574
876.765	0.0147616
876.843	0.0147263
876.922	0.0148417
877.000	0.0147345
877.078	0.0147152
877.156	0.0147226
877.234	0.0149326
877.312	0.0148093
877.390	0.0147797
877.468	0.0148966
877.547	0.0150042
877.625	0.0151123
877.703	0.0151622
877.781	0.0150227
877.859	0.0151250
877.937	0.0152483
878.015	0.0150907
878.093	0.0149799
878.172	0.0152461
878.250	0.0152121
878.328	0.0152057
878.406	0.0152115
878.484	0.0151324
878.562	0.0151927
878.640	0.0151263
878.718	0.0150776
878.797	0.0150385
878.875	0.0150671
878.953	0.0149677
879.031	0.0149564
879.109	0.0150809
879.187	0.0149288
879.265	0.0147852
879.343	0.0149979
879.422	0.0149893
879.500	0.0148410
879.578	0.0147737
879.656	0.0148482
879.734	0.0149987
879.812	0.0147932
879.890	0.0148412
879.968	0.0149982
880.047	0.0149547
880.125	0.0149731
880.203	0.0147865
880.281	0.0150007
880.359	0.0149873
880.437	0.0148579
880.515	0.0149202
880.593	0.0150198
880.672	0.0149284
880.750	0.0149182
880.828	0.0149744
880.906	0.0149809
880.984	0.0149220
881.062	0.0150246
881.140	0.0152245
881.218	0.0152251
881.297	0.0150539
881.375	0.0150783
881.453	0.0151096
881.531	0.0152061
881.609	0.0151154
881.687	0.0150970
881.765	0.0151641
881.843	0.0152197
881.922	0.0152168
882.000	0.0150242
882.078	0.0149757
882.156	0.0149435
882.234	0.0149972
882.312	0.0149999
882.390	0.0149932
882.468	0.0149723
882.547	0.0148586
882.625	0.0148824
882.703	0.0148448
882.781	0.0147604
882.859	0.0147565
882.937	0.0147358
883.015	0.0148180
883.093	0.0148920
883.172	0.0147437
883.250	0.0148035
883.328	0.0147651
883.406	0.0148798
883.484	0.0148357
883.562	0.0147386
883.640	0.0149231
883.718	0.0150442
883.797	0.0149948
883.875	0.0148750
883.953	0.0149084
884.031	0.0148840
884.109	0.0150537
884.187	0.0150996
884.265	0.0149364
884.343	0.0150856
884.422	0.0150368
884.500	0.0150574
884.578	0.0149519
884.656	0.0150542
884.734	0.0150166
884.812	0.0150832
884.890	0.0150298
884.968	0.0148811
885.047	0.0149463
885.125	0.0152026
885.203	0.0151502
885.281	0.0150860
885.359	0.0151763
885.437	0.0150511
885.515	0.0150346
885.593	0.0151165
885.672	0.0150957
885.750	0.0150056
885.828	0.0151041
885.906	0.0150174
885.984	0.0148787
886.062	0.0149598
886.140	0.0149889
886.218	0.0150035
886.297	0.0148841
886.375	0.0149567
886.453	0.0149953
886.531	0.0149358
886.609	0.0149713
886.687	0.0150746
886.765	0.0150395
886.843	0.0149672
886.922	0.0148479
887.000	0.0148682
887.078	0.0149645
887.156	0.0150431
887.234	0.0149891
887.312	0.0149105
887.390	0.0148862
887.468	0.0148553
887.547	0.0148962
887.625	0.0149560
887.703	0.0150135
887.781	0.0149238
887.859	0.0150232
887.937	0.0148618
888.015	0.0148235
888.093	0.0149702
888.172	0.0149862
888.250	0.0149171
888.328	0.0148855
888.406	0.0149520
888.484	0.0149718
888.562	0.0149717
888.640	0.0150163
888.718	0.0149025
888.797	0.0150683
888.875	0.0149210
888.953	0.0149563
889.031	0.0149354
889.109	0.0150271
889.187	0.0150909
889.265	0.0150553
889.343	0.0149650
889.422	0.0150217
889.500	0.0149606
889.578	0.0149776
889.656	0.0149269
889.734	0.0149707
889.812	0.0149054
889.890	0.0149398
889.968	0.0148485
890.047	0.0148836
890.125	0.0148894
890.203	0.0149612
890.281	0.0148668
890.359	0.0148536
890.437	0.0149229
890.515	0.0147617
890.593	0.0148528
890.672	0.0148317
890.750	0.0148381
890.828	0.0149024
890.906	0.0148130
890.984	0.0148350
891.062	0.0149765
891.140	0.0149757
891.218	0.0147641
891.297	0.0149136
891.375	0.0150866
891.453	0.0149320
891.531	0.0148875
891.609	0.0149883
891.687	0.0149507
891.765	0.0150503
891.843	0.0151959
891.922	0.0150320
892.000	0.0151321
892.078	0.0152026
892.156	0.0151050
892.234	0.0151530
892.312	0.0150875
892.390	0.0151176
892.468	0.0149936
892.547	0.0150546
892.625	0.0149920
892.703	0.0150949
892.781	0.0148844
892.859	0.0147643
892.937	0.0149626
893.015	0.0149625
893.093	0.0149076
893.172	0.0149020
893.250	0.0148518
893.328	0.0147990
893.406	0.0149423
893.484	0.0149155
893.562	0.0149576
893.640	0.0147862
893.718	0.0148197
893.797	0.0149761
893.875	0.0148425
893.953	0.0147579
894.031	0.0148450
894.109	0.0150438
894.187	0.0148637
894.265	0.0148602
894.343	0.0148203
894.422	0.0147714
894.500	0.0150104
894.578	0.0150133
894.656	0.0148312
894.734	0.0149783
894.812	0.0149519
894.890	0.0149689
894.968	0.0149786
895.047	0.0147672
895.125	0.0149501
895.203	0.0149818
895.281	0.0150476
895.359	0.0149933
895.437	0.0150176
895.515	0.0150565
895.593	0.0149780
895.672	0.0150138
895.750	0.0150595
895.828	0.0149615
895.906	0.0150207
895.984	0.0151492
896.062	0.0149492
896.140	0.0148708
896.218	0.0150288
896.297	0.0149506
896.375	0.0150491
896.453	0.0149955
896.531	0.0149026
896.609	0.0147699
896.687	0.0148696
896.765	0.0148756
896.843	0.0148898
896.922	0.0149493
897.000	0.0147874
897.078	0.0149286
897.156	0.0147488
897.234	0.0148991
897.312	0.0150581
897.390	0.0148117
897.468	0.0148020
897.547	0.0148933
897.625	0.0149317
897.703	0.0149919
897.781	0.0150053
897.859	0.0150587
897.937	0.0150686
898.015	0.0151253
898.093	0.0149739
898.172	0.0149498
898.250	0.0150515
898.328	0.0151744
898.406	0.0150532
898.484	0.0151067
898.562	0.0152324
898.640	0.0151933
898.718	0.0152175
898.797	0.0152966
898.875	0.0151378
898.953	0.0153307
899.031	0.0151219
899.109	0.0151565
899.187	0.0151651
899.265	0.0152464
899.343	0.0151416
899.422	0.0151595
899.500	0.0151524
899.578	0.0150451
899.656	0.0149141
899.734	0.0151035
899.812	0.0150844
899.890	0.0149437
899.968	0.0150065
900.047	0.0150331
900.125	0.0148914
900.203	0.0148901
900.281	0.0148654
900.359	0.0150301
900.437	0.0149375
900.515	0.0148925
900.593	0.0149856
900.672	0.0150025
900.750	0.0148206
900.828	0.0148229
900.906	0.0148505
900.984	0.0148690
901.062	0.0148554
901.140	0.0149273
901.218	0.0147887
901.297	0.0147812
901.375	0.0149377
901.453	0.0149150
901.531	0.0148958
901.609	0.0149468
901.687	0.0150466
901.765	0.0148527
901.843	0.0150479
901.922	0.0150113
902.000	0.0149395
902.078	0.0151196
902.156	0.0151403
902.234	0.0150868
902.312	0.0149892
902.390	0.0151721
902.468	0.0150735
902.547	0.0150675
902.625	0.0150349
902.703	0.0150714
902.781	0.0150941
902.859	0.0149607
902.937	0.0149430
903.015	0.0150847
903.093	0.0149694
903.172	0.0148843
903.250	0.0148956
903.328	0.0147981
903.406	0.0148980
903.484	0.0149144
903.562	0.0148891
903.640	0.0150141
903.718	0.0149243
903.797	0.0148362
903.875	0.0148961
903.953	0.0149027
904.031	0.0149742
904.109	0.0149560
904.187	0.0150972
904.265	0.0149099
904.343	0.0150307
904.422	0.0150988
904.500	0.0150031
904.578	0.0149546
904.656	0.0149738
904.734	0.0149809
904.812	0.0150687
904.890	0.0150477
904.968	0.0151117
905.047	0.0150409
905.125	0.0148845
905.203	0.0150565
905.281	0.0151208
905.359	0.0151373
905.437	0.0150314
905.515	0.0150241
905.593	0.0149361
905.672	0.0150692
905.750	0.0150680
905.828	0.0150247
905.906	0.0151449
905.984	0.0150220
906.062	0.0151142
906.140	0.0149902
906.218	0.0150085
906.297	0.0148940
906.375	0.0149294
906.453	0.0150098
906.531	0.0150568
906.609	0.0149452
906.687	0.0148497
906.765	0.0148301
906.843	0.0147688
906.922	0.0149258
907.000	0.0148540
907.078	0.0148775
907.156	0.0148080
907.234	0.0148710
907.312	0.0148357
907.390	0.0150224
907.468	0.0149745
907.547	0.0150128
907.625	0.0149094
907.703	0.0149770
907.781	0.0149641
907.859	0.0150697
907.937	0.0149242
908.015	0.0149765
908.093	0.0149202
908.172	0.0151421
908.250	0.0150043
908.328	0.0149531
908.406	0.0148696
908.484	0.0151260
908.562	0.0148944
908.640	0.0150409
908.718	0.0150719
908.797	0.0151457
908.875	0.0150772
908.953	0.0149626
909.031	0.0150582
909.109	0.0151296
909.187	0.0152478
909.265	0.0150629
909.343	0.0150304
909.422	0.0149989
909.500	0.0151384
909.578	0.0151002
909.656	0.0151285
909.734	0.0150290
909.812	0.0150934
909.890	0.0150214
909.968	0.0148827
910.047	0.0150650
910.125	0.0150463
910.203	0.0150548
910.281	0.0150510
910.359	0.0150449
910.437	0.0149340
910.515	0.0150005
910.593	0.0148640
910.672	0.0150138
910.750	0.0150426
910.828	0.0148837
910.906	0.0150237
910.984	0.0148871
911.062	0.0148978
911.140	0.0150349
911.218	0.0149090
911.297	0.0149311
911.375	0.0147940
911.453	0.0149043
911.531	0.0149685
911.609	0.0149503
911.687	0.0149010
911.765	0.0148133
911.843	0.0148827
911.922	0.0149626
912.000	0.0149115
912.078	0.0149661
912.156	0.0149752
912.234	0.0149995
912.312	0.0150058
912.390	0.0149821
912.468	0.0150706
912.547	0.0149451
912.625	0.0149494
912.703	0.0149803
912.781	0.0151140
912.859	0.0150684
912.937	0.0149787
913.015	0.0149078
913.093	0.0150015
913.172	0.0148833
913.250	0.0148515
913.328	0.0149641
913.406	0.0148441
913.484	0.0146845
913.562	0.0148853
913.640	0.0149074
913.718	0.0149402
913.797	0.0149514
913.875	0.0148660
913.953	0.0148913
914.031	0.0150362
914.109	0.0149093
914.187	0.0150027
914.265	0.0150166
914.343	0.0150090
914.422	0.0149678
914.500	0.0149831
914.578	0.0149709
914.656	0.0150440
914.734	0.0150645
914.812	0.0148711
914.890	0.0149737
914.968	0.0151164
915.047	0.0150390
915.125	0.0148976
915.203	0.0148413
915.281	0.0149499
915.359	0.0150377
915.437	0.0150167
915.515	0.0149238
915.593	0.0148931
915.672	0.0149107
915.750	0.0150182
915.828	0.0149338
915.906	0.0151654
915.984	0.0149987
916.062	0.0151001
916.140	0.0150289
916.218	0.0148927
916.297	0.0151327
916.375	0.0149908
916.453	0.0149725
916.531	0.0150226
916.609	0.0149883
916.687	0.0149084
916.765	0.0150831
916.843	0.0148917
916.922	0.0149720
917.000	0.0150378
917.078	0.0151056
917.156	0.0151302
917.234	0.0148696
917.312	0.0149766
917.390	0.0149432
917.468	0.0149239
917.547	0.0149632
917.625	0.0149102
917.703	0.0149408
917.781	0.0148330
917.859	0.0148804
917.937	0.0147253
918.015	0.0147853
918.093	0.0147410
918.172	0.0149485
918.250	0.0147981
918.328	0.0147562
918.406	0.0146220
918.484	0.0147905
918.562	0.0147118
918.640	0.0147710
918.718	0.0149416
918.797	0.0147930
918.875	0.0148099
918.953	0.0149201
919.031	0.0149699
919.109	0.0149326
919.187	0.0149494
919.265	0.0149489
919.343	0.0149432
919.422	0.0150817
919.500	0.0151586
919.578	0.0151193
919.656	0.0150121
919.734	0.0151302
919.812	0.0151585
919.890	0.0150231
