05/28/2022	14:30:17	Ver.	4.1	UNKNOWN
Optical Delay	599.988409	Delta X		0.078125	Sweeps	1	Scan Rate	0/0
Coordinates	Axis 1	NaN	Axis 2	NaN	Axis 3	NaN	Axis 4	NaN	Axis 5	NaN	Axis 6	0.000000
TX Power	0.000000	RX Power	0.000000

599.988	0.0149742
600.067	0.0150099
600.145	0.0150494
600.223	0.0149329
600.301	0.0150784
600.379	0.0148556
600.457	0.0148160
600.535	0.0149534
600.613	0.0150024
600.692	0.0148817
600.770	0.0149335
600.848	0.0150090
600.926	0.0149672
601.004	0.0149984
601.082	0.0149770
601.160	0.0149269
601.238	0.0148669
601.317	0.0149043
601.395	0.0150174
601.473	0.0149342
601.551	0.0149872
601.629	0.0149145
601.707	0.0148405
601.785	0.0149338
601.863	0.0149059
601.942	0.0148769
602.020	0.0148800
602.098	0.0149248
602.176	0.0148972
602.254	0.0149208
602.332	0.0150097
602.410	0.0149196
602.488	0.0149030
602.567	0.0147546
602.645	0.0148244
602.723	0.0150665
602.801	0.0150288
602.879	0.0149812
602.957	0.0150021
603.035	0.0148538
603.113	0.0150146
603.192	0.0148618
603.270	0.0149377
603.348	0.0149483
603.426	0.0148811
603.504	0.0150143
603.582	0.0150124
603.660	0.0148881
603.738	0.0149806
603.817	0.0149954
603.895	0.0148745
603.973	0.0148835
604.051	0.0148935
604.129	0.0151097
604.207	0.0149019
604.285	0.0148901
604.363	0.0148871
604.442	0.0148926
604.520	0.0149231
604.598	0.0149615
604.676	0.0147559
604.754	0.0148346
604.832	0.0148868
604.910	0.0148038
604.988	0.0148174
605.067	0.0150054
605.145	0.0149207
605.223	0.0147866
605.301	0.0148097
605.379	0.0147851
605.457	0.0149129
605.535	0.0148352
605.613	0.0148172
605.692	0.0149576
605.770	0.0149212
605.848	0.0148828
605.926	0.0147750
606.004	0.0148756
606.082	0.0147679
606.160	0.0147495
606.238	0.0148414
606.317	0.0147974
606.395	0.0148345
606.473	0.0148478
606.551	0.0148840
606.629	0.0146219
606.707	0.0147973
606.785	0.0148206
606.863	0.0147478
606.942	0.0147792
607.020	0.0146595
607.098	0.0146583
607.176	0.0148253
607.254	0.0147626
607.332	0.0146743
607.410	0.0147694
607.488	0.0148125
607.567	0.0148268
607.645	0.0148481
607.723	0.0147292
607.801	0.0147014
607.879	0.0147689
607.957	0.0148421
608.035	0.0146982
608.113	0.0148067
608.192	0.0147289
608.270	0.0146651
608.348	0.0146796
608.426	0.0148161
608.504	0.0148569
608.582	0.0146077
608.660	0.0146770
608.738	0.0148184
608.817	0.0147272
608.895	0.0147151
608.973	0.0145676
609.051	0.0148224
609.129	0.0146741
609.207	0.0146615
609.285	0.0147530
609.363	0.0147436
609.442	0.0148250
609.520	0.0148083
609.598	0.0146233
609.676	0.0146550
609.754	0.0147250
609.832	0.0148619
609.910	0.0146864
609.988	0.0147699
610.067	0.0148648
610.145	0.0147460
610.223	0.0147753
610.301	0.0146062
610.379	0.0147543
610.457	0.0147353
610.535	0.0148415
610.613	0.0149400
610.692	0.0149018
610.770	0.0147378
610.848	0.0148640
610.926	0.0148931
611.004	0.0147914
611.082	0.0148235
611.160	0.0147894
611.238	0.0147829
611.317	0.0148071
611.395	0.0149001
611.473	0.0149304
611.551	0.0147465
611.629	0.0147421
611.707	0.0148466
611.785	0.0147967
611.863	0.0146358
611.942	0.0148878
612.020	0.0148128
612.098	0.0147353
612.176	0.0148531
612.254	0.0148347
612.332	0.0146983
612.410	0.0146931
612.488	0.0147946
612.567	0.0147216
612.645	0.0147557
612.723	0.0147707
612.801	0.0147309
612.879	0.0147427
612.957	0.0149152
613.035	0.0147249
613.113	0.0147437
613.192	0.0146534
613.270	0.0146807
613.348	0.0147720
613.426	0.0147044
613.504	0.0147382
613.582	0.0146889
613.660	0.0145757
613.738	0.0146687
613.817	0.0148123
613.895	0.0145786
613.973	0.0147287
614.051	0.0146892
614.129	0.0146711
614.207	0.0145823
614.285	0.0147061
614.363	0.0147811
614.442	0.0146612
614.520	0.0148460
614.598	0.0146915
614.676	0.0147758
614.754	0.0147327
614.832	0.0147135
614.910	0.0147118
614.988	0.0146909
615.067	0.0148364
615.145	0.0146080
615.223	0.0147382
615.301	0.0147881
615.379	0.0148326
615.457	0.0147311
615.535	0.0147615
615.613	0.0146939
615.692	0.0147306
615.770	0.0148088
615.848	0.0148442
615.926	0.0147958
616.004	0.0148245
616.082	0.0146574
616.160	0.0147765
616.238	0.0149085
616.317	0.0147971
616.395	0.0146618
616.473	0.0147665
616.551	0.0148077
616.629	0.0148038
616.707	0.0146768
616.785	0.0147896
616.863	0.0148022
616.942	0.0147687
617.020	0.0148542
617.098	0.0148412
617.176	0.0147725
617.254	0.0149108
617.332	0.0149546
617.410	0.0149072
617.488	0.0149870
617.567	0.0148903
617.645	0.0149426
617.723	0.0149150
617.801	0.0148415
617.879	0.0150217
617.957	0.0150442
618.035	0.0148783
618.113	0.0148933
618.192	0.0150660
618.270	0.0149536
618.348	0.0149194
618.426	0.0149918
618.504	0.0149223
618.582	0.0149706
618.660	0.0150240
618.738	0.0150053
618.817	0.0149850
618.895	0.0150783
618.973	0.0151002
619.051	0.0151806
619.129	0.0151685
619.207	0.0149960
619.285	0.0150138
619.363	0.0149538
619.442	0.0151143
619.520	0.0149593
619.598	0.0149271
619.676	0.0149454
619.754	0.0150336
619.832	0.0150677
619.910	0.0149275
619.988	0.0152280
620.067	0.0149868
620.145	0.0149876
620.223	0.0149456
620.301	0.0150217
620.379	0.0150919
620.457	0.0150896
620.535	0.0151350
620.613	0.0151965
620.692	0.0150075
620.770	0.0149809
620.848	0.0149283
620.926	0.0150087
621.004	0.0151131
621.082	0.0150309
621.160	0.0150808
621.238	0.0150072
621.317	0.0149630
621.395	0.0149935
621.473	0.0149583
621.551	0.0149957
621.629	0.0150529
621.707	0.0152082
621.785	0.0151848
621.863	0.0150607
621.942	0.0150544
622.020	0.0149937
622.098	0.0151360
622.176	0.0152513
622.254	0.0150365
622.332	0.0151080
622.410	0.0150143
622.488	0.0150288
622.567	0.0150211
622.645	0.0150749
622.723	0.0149945
622.801	0.0150203
622.879	0.0150234
622.957	0.0150829
623.035	0.0149224
623.113	0.0149126
623.192	0.0148622
623.270	0.0148092
623.348	0.0150356
623.426	0.0149865
623.504	0.0149218
623.582	0.0150059
623.660	0.0149855
623.738	0.0148174
623.817	0.0147366
623.895	0.0149614
623.973	0.0148567
624.051	0.0147209
624.129	0.0148003
624.207	0.0148449
624.285	0.0149034
624.363	0.0148769
624.442	0.0149282
624.520	0.0149311
624.598	0.0149054
624.676	0.0150681
624.754	0.0149091
624.832	0.0149840
624.910	0.0148922
624.988	0.0149632
625.067	0.0149830
625.145	0.0150117
625.223	0.0150136
625.301	0.0149672
625.379	0.0150204
625.457	0.0149660
625.535	0.0148106
625.613	0.0149319
625.692	0.0149627
625.770	0.0149094
625.848	0.0149510
625.926	0.0149944
626.004	0.0150372
626.082	0.0149136
626.160	0.0149275
626.238	0.0150757
626.317	0.0150285
626.395	0.0150014
626.473	0.0149533
626.551	0.0148801
626.629	0.0147482
626.707	0.0149153
626.785	0.0148457
626.863	0.0148775
626.942	0.0147765
627.020	0.0148846
627.098	0.0149035
627.176	0.0148725
627.254	0.0150103
627.332	0.0148466
627.410	0.0149315
627.488	0.0148599
627.567	0.0148574
627.645	0.0148514
627.723	0.0149454
627.801	0.0149212
627.879	0.0148695
627.957	0.0149748
628.035	0.0148694
628.113	0.0150557
628.192	0.0149102
628.270	0.0148365
628.348	0.0149338
628.426	0.0151326
628.504	0.0150424
628.582	0.0150600
628.660	0.0149949
628.738	0.0149376
628.817	0.0150162
628.895	0.0151500
628.973	0.0151067
629.051	0.0149180
629.129	0.0149533
629.207	0.0150184
629.285	0.0148777
629.363	0.0148546
629.442	0.0148726
629.520	0.0148356
629.598	0.0148256
629.676	0.0146926
629.754	0.0147229
629.832	0.0147366
629.910	0.0148212
629.988	0.0146294
630.067	0.0148131
630.145	0.0148195
630.223	0.0147330
630.301	0.0146890
630.379	0.0148894
630.457	0.0146107
630.535	0.0148267
630.613	0.0148486
630.692	0.0148336
630.770	0.0149515
630.848	0.0148780
630.926	0.0148337
631.004	0.0148275
631.082	0.0148100
631.160	0.0147989
631.238	0.0147933
631.317	0.0148158
631.395	0.0148215
631.473	0.0146693
631.551	0.0147999
631.629	0.0148020
631.707	0.0147244
631.785	0.0147988
631.863	0.0147215
631.942	0.0147199
632.020	0.0147495
632.098	0.0146731
632.176	0.0146809
632.254	0.0147195
632.332	0.0147246
632.410	0.0145654
632.488	0.0147119
632.567	0.0148029
632.645	0.0147907
632.723	0.0148789
632.801	0.0147751
632.879	0.0150587
632.957	0.0149623
633.035	0.0148743
633.113	0.0148393
633.192	0.0148579
633.270	0.0150304
633.348	0.0150004
633.426	0.0150044
633.504	0.0149294
633.582	0.0149894
633.660	0.0149944
633.738	0.0149193
633.817	0.0149374
633.895	0.0149445
633.973	0.0150475
634.051	0.0150558
634.129	0.0147755
634.207	0.0148154
634.285	0.0148082
634.363	0.0148122
634.442	0.0147222
634.520	0.0147149
634.598	0.0147366
634.676	0.0146319
634.754	0.0145735
634.832	0.0144177
634.910	0.0143522
634.988	0.0143406
635.067	0.0143533
635.145	0.0142135
635.223	0.0142921
635.301	0.0142412
635.379	0.0141650
635.457	0.0143065
635.535	0.0142962
635.613	0.0142434
635.692	0.0144183
635.770	0.0144727
635.848	0.0144477
635.926	0.0145261
636.004	0.0145531
636.082	0.0146360
636.160	0.0146891
636.238	0.0147366
636.317	0.0147491
636.395	0.0147240
636.473	0.0149449
636.551	0.0148032
636.629	0.0147462
636.707	0.0150385
636.785	0.0149419
636.863	0.0148637
636.942	0.0149752
637.020	0.0147555
637.098	0.0149377
637.176	0.0150911
637.254	0.0149290
637.332	0.0149020
637.410	0.0149889
637.488	0.0149261
637.567	0.0149130
637.645	0.0150605
637.723	0.0149958
637.801	0.0150249
637.879	0.0150682
637.957	0.0150191
638.035	0.0150445
638.113	0.0150134
638.192	0.0150716
638.270	0.0150742
638.348	0.0150044
638.426	0.0151469
638.504	0.0150586
638.582	0.0150433
638.660	0.0150224
638.738	0.0148724
638.817	0.0148644
638.895	0.0149807
638.973	0.0148065
639.051	0.0147488
639.129	0.0147412
639.207	0.0147047
639.285	0.0147976
639.363	0.0146300
639.442	0.0146755
639.520	0.0145756
639.598	0.0144821
639.676	0.0148190
639.754	0.0148086
639.832	0.0145798
639.910	0.0146783
639.988	0.0146957
640.067	0.0146339
640.145	0.0146965
640.223	0.0146892
640.301	0.0145699
640.379	0.0144961
640.457	0.0147008
640.535	0.0147729
640.613	0.0148528
640.692	0.0146022
640.770	0.0146243
640.848	0.0148949
640.926	0.0148241
641.004	0.0147755
641.082	0.0149586
641.160	0.0149602
641.238	0.0150681
641.317	0.0152151
641.395	0.0150829
641.473	0.0152245
641.551	0.0153053
641.629	0.0152377
641.707	0.0152914
641.785	0.0153016
641.863	0.0151735
641.942	0.0152265
642.020	0.0151740
642.098	0.0153691
642.176	0.0153727
642.254	0.0151729
642.332	0.0151482
642.410	0.0151215
642.488	0.0152022
642.567	0.0151278
642.645	0.0150796
642.723	0.0149729
642.801	0.0149864
642.879	0.0151491
642.957	0.0150642
643.035	0.0150134
643.113	0.0150292
643.192	0.0150601
643.270	0.0150574
643.348	0.0150007
643.426	0.0149332
643.504	0.0150017
643.582	0.0149427
643.660	0.0148669
643.738	0.0149820
643.817	0.0148962
643.895	0.0149230
643.973	0.0148280
644.051	0.0149616
644.129	0.0148157
644.207	0.0147661
644.285	0.0148304
644.363	0.0148075
644.442	0.0147443
644.520	0.0148611
644.598	0.0147994
644.676	0.0148611
644.754	0.0146765
644.832	0.0148180
644.910	0.0148825
644.988	0.0149075
645.067	0.0147813
645.145	0.0147707
645.223	0.0147929
645.301	0.0146864
645.379	0.0148412
645.457	0.0148512
645.535	0.0148950
645.613	0.0149368
645.692	0.0149500
645.770	0.0148862
645.848	0.0148936
645.926	0.0149654
646.004	0.0149409
646.082	0.0149612
646.160	0.0148972
646.238	0.0148932
646.317	0.0150343
646.395	0.0152422
646.473	0.0151633
646.551	0.0151734
646.629	0.0152190
646.707	0.0151556
646.785	0.0151719
646.863	0.0152005
646.942	0.0151725
647.020	0.0152424
647.098	0.0152088
647.176	0.0151617
647.254	0.0151408
647.332	0.0150321
647.410	0.0151436
647.488	0.0150945
647.567	0.0149296
647.645	0.0150468
647.723	0.0149712
647.801	0.0148983
647.879	0.0148940
647.957	0.0150191
648.035	0.0148323
648.113	0.0150079
648.192	0.0149627
648.270	0.0148274
648.348	0.0149107
648.426	0.0150175
648.504	0.0149342
648.582	0.0149023
648.660	0.0150114
648.738	0.0149375
648.817	0.0149892
648.895	0.0150073
648.973	0.0149241
649.051	0.0148793
649.129	0.0148905
649.207	0.0149516
649.285	0.0149887
649.363	0.0148328
649.442	0.0149892
649.520	0.0149086
649.598	0.0149361
649.676	0.0149608
649.754	0.0148615
649.832	0.0149492
649.910	0.0149760
649.988	0.0148226
650.067	0.0147729
650.145	0.0147807
650.223	0.0148296
650.301	0.0147648
650.379	0.0148293
650.457	0.0149488
650.535	0.0147675
650.613	0.0149592
650.692	0.0150237
650.770	0.0150208
650.848	0.0149136
650.926	0.0150979
651.004	0.0150016
651.082	0.0149088
651.160	0.0148697
651.238	0.0149509
651.317	0.0148596
651.395	0.0147544
651.473	0.0148514
651.551	0.0148320
651.629	0.0147213
651.707	0.0146944
651.785	0.0148919
651.863	0.0147121
651.942	0.0147366
652.020	0.0147330
652.098	0.0147826
652.176	0.0148348
652.254	0.0148701
652.332	0.0149163
652.410	0.0147041
652.488	0.0149337
652.567	0.0149358
652.645	0.0149276
652.723	0.0150523
652.801	0.0148893
652.879	0.0148145
652.957	0.0149884
653.035	0.0148806
653.113	0.0148992
653.192	0.0149543
653.270	0.0149606
653.348	0.0149754
653.426	0.0151643
653.504	0.0148148
653.582	0.0149574
653.660	0.0150317
653.738	0.0149329
653.817	0.0149500
653.895	0.0148653
653.973	0.0148904
654.051	0.0149510
654.129	0.0148938
654.207	0.0148396
654.285	0.0148392
654.363	0.0148846
654.442	0.0149509
654.520	0.0149460
654.598	0.0148204
654.676	0.0150095
654.754	0.0151238
654.832	0.0151707
654.910	0.0152551
654.988	0.0151954
655.067	0.0151730
655.145	0.0151663
655.223	0.0152818
655.301	0.0153310
655.379	0.0153113
655.457	0.0152238
655.535	0.0152389
655.613	0.0152450
655.692	0.0153078
655.770	0.0151015
655.848	0.0150658
655.926	0.0149239
656.004	0.0148814
656.082	0.0148050
656.160	0.0147143
656.238	0.0146541
656.317	0.0145190
656.395	0.0146162
656.473	0.0143385
656.551	0.0144447
656.629	0.0144489
656.707	0.0144647
656.785	0.0143960
656.863	0.0143866
656.942	0.0143432
657.020	0.0144244
657.098	0.0144425
657.176	0.0144825
657.254	0.0144814
657.332	0.0144585
657.410	0.0147183
657.488	0.0144698
657.567	0.0145380
657.645	0.0145427
657.723	0.0147413
657.801	0.0146730
657.879	0.0146459
657.957	0.0147641
658.035	0.0146518
658.113	0.0147040
658.192	0.0146806
658.270	0.0146824
658.348	0.0147121
658.426	0.0146970
658.504	0.0147447
658.582	0.0148612
658.660	0.0148923
658.738	0.0148829
658.817	0.0148967
658.895	0.0149505
658.973	0.0148988
659.051	0.0150392
659.129	0.0150410
659.207	0.0150154
659.285	0.0150678
659.363	0.0151354
659.442	0.0152405
659.520	0.0151450
659.598	0.0151045
659.676	0.0152768
659.754	0.0152706
659.832	0.0152289
659.910	0.0152998
659.988	0.0151610
660.067	0.0151144
660.145	0.0152412
660.223	0.0151904
660.301	0.0151540
660.379	0.0149159
660.457	0.0151692
660.535	0.0151843
660.613	0.0149943
660.692	0.0150282
660.770	0.0148723
660.848	0.0149483
660.926	0.0148701
661.004	0.0149178
661.082	0.0148672
661.160	0.0147772
661.238	0.0148245
661.317	0.0148051
661.395	0.0148058
661.473	0.0148759
661.551	0.0147254
661.629	0.0147022
661.707	0.0146967
661.785	0.0147025
661.863	0.0146359
661.942	0.0146349
662.020	0.0146466
662.098	0.0146191
662.176	0.0145814
662.254	0.0145063
662.332	0.0145084
662.410	0.0146024
662.488	0.0144085
662.567	0.0145099
662.645	0.0147369
662.723	0.0147179
662.801	0.0146220
662.879	0.0145753
662.957	0.0146491
663.035	0.0150233
663.113	0.0149440
663.192	0.0149992
663.270	0.0150523
663.348	0.0150889
663.426	0.0150507
663.504	0.0150896
663.582	0.0153024
663.660	0.0154801
663.738	0.0154768
663.817	0.0154119
663.895	0.0154287
663.973	0.0155316
664.051	0.0153423
664.129	0.0154459
664.207	0.0155500
664.285	0.0155290
664.363	0.0154816
664.442	0.0154984
664.520	0.0154298
664.598	0.0152615
664.676	0.0153093
664.754	0.0152115
664.832	0.0151633
664.910	0.0151546
664.988	0.0151666
665.067	0.0149809
665.145	0.0149397
665.223	0.0150039
665.301	0.0149293
665.379	0.0147805
665.457	0.0149391
665.535	0.0146237
665.613	0.0144918
665.692	0.0146961
665.770	0.0146545
665.848	0.0146104
665.926	0.0144650
666.004	0.0144987
666.082	0.0145345
666.160	0.0145425
666.238	0.0146108
666.317	0.0147767
666.395	0.0147765
666.473	0.0146576
666.551	0.0146519
666.629	0.0147147
666.707	0.0148199
666.785	0.0150146
666.863	0.0150578
666.942	0.0151184
667.020	0.0153017
667.098	0.0152427
667.176	0.0153569
667.254	0.0156364
667.332	0.0154723
667.410	0.0155031
667.488	0.0155064
667.567	0.0154659
667.645	0.0155829
667.723	0.0154120
667.801	0.0153487
667.879	0.0152251
667.957	0.0152791
668.035	0.0151664
668.113	0.0151530
668.192	0.0150183
668.270	0.0149004
668.348	0.0148607
668.426	0.0147823
668.504	0.0147226
668.582	0.0145856
668.660	0.0144727
668.738	0.0143945
668.817	0.0143655
668.895	0.0142735
668.973	0.0143170
669.051	0.0144804
669.129	0.0141621
669.207	0.0144443
669.285	0.0144884
669.363	0.0144893
669.442	0.0145883
669.520	0.0145690
669.598	0.0146716
669.676	0.0149030
669.754	0.0148596
669.832	0.0150356
669.910	0.0150060
669.988	0.0150085
670.067	0.0150791
670.145	0.0151276
670.223	0.0151600
670.301	0.0152385
670.379	0.0150935
670.457	0.0153070
670.535	0.0152151
670.613	0.0150484
670.692	0.0150806
670.770	0.0150643
670.848	0.0149425
670.926	0.0148538
671.004	0.0148883
671.082	0.0146915
671.160	0.0148050
671.238	0.0145876
671.317	0.0145509
671.395	0.0145609
671.473	0.0145823
671.551	0.0145398
671.629	0.0144299
671.707	0.0145672
671.785	0.0145468
671.863	0.0147035
671.942	0.0147186
672.020	0.0146924
672.098	0.0146694
672.176	0.0147785
672.254	0.0147590
672.332	0.0148038
672.410	0.0148515
672.488	0.0149655
672.567	0.0148375
672.645	0.0150188
672.723	0.0149834
672.801	0.0149732
672.879	0.0150286
672.957	0.0151161
673.035	0.0150239
673.113	0.0149332
673.192	0.0147980
673.270	0.0147508
673.348	0.0146723
673.426	0.0146016
673.504	0.0146004
673.582	0.0145322
673.660	0.0144228
673.738	0.0142120
673.817	0.0143805
673.895	0.0143375
673.973	0.0142516
674.051	0.0142886
674.129	0.0143478
674.207	0.0142316
674.285	0.0140027
674.363	0.0142516
674.442	0.0144447
674.520	0.0144098
674.598	0.0143443
674.676	0.0145142
674.754	0.0145754
674.832	0.0145923
674.910	0.0147830
674.988	0.0148489
675.067	0.0150044
675.145	0.0151166
675.223	0.0151433
675.301	0.0151909
675.379	0.0152295
675.457	0.0152802
675.535	0.0153834
675.613	0.0154885
675.692	0.0153850
675.770	0.0153503
675.848	0.0153719
675.926	0.0155086
676.004	0.0153808
676.082	0.0154259
676.160	0.0153585
676.238	0.0153670
676.317	0.0154234
676.395	0.0154351
676.473	0.0152528
676.551	0.0152740
676.629	0.0152563
676.707	0.0151836
676.785	0.0151969
676.863	0.0151133
676.942	0.0150409
677.020	0.0150243
677.098	0.0148947
677.176	0.0149259
677.254	0.0150130
677.332	0.0148570
677.410	0.0146652
677.488	0.0147609
677.567	0.0147923
677.645	0.0149418
677.723	0.0147878
677.801	0.0146207
677.879	0.0148036
677.957	0.0147654
678.035	0.0147910
678.113	0.0148038
678.192	0.0148687
678.270	0.0147446
678.348	0.0147846
678.426	0.0148193
678.504	0.0147873
678.582	0.0147776
678.660	0.0148981
678.738	0.0147111
678.817	0.0148985
678.895	0.0147974
678.973	0.0147380
679.051	0.0147746
679.129	0.0149524
679.207	0.0149030
679.285	0.0148170
679.363	0.0147432
679.442	0.0148145
679.520	0.0148038
679.598	0.0148511
679.676	0.0148405
679.754	0.0148952
679.832	0.0148514
679.910	0.0148688
679.988	0.0148228
680.067	0.0149010
680.145	0.0148349
680.223	0.0148093
680.301	0.0147815
680.379	0.0149377
680.457	0.0149075
680.535	0.0150443
680.613	0.0150542
680.692	0.0149485
680.770	0.0151277
680.848	0.0150462
680.926	0.0151308
681.004	0.0151245
681.082	0.0150417
681.160	0.0151916
681.238	0.0150810
681.317	0.0150915
681.395	0.0151817
681.473	0.0149046
681.551	0.0149780
681.629	0.0150595
681.707	0.0151379
681.785	0.0149749
681.863	0.0149197
681.942	0.0149918
682.020	0.0149849
682.098	0.0148863
682.176	0.0147986
682.254	0.0147757
682.332	0.0147012
682.410	0.0145679
682.488	0.0145567
682.567	0.0145727
682.645	0.0144398
682.723	0.0144167
682.801	0.0144713
682.879	0.0144169
682.957	0.0143008
683.035	0.0142323
683.113	0.0143691
683.192	0.0145280
683.270	0.0144331
683.348	0.0146577
683.426	0.0146799
683.504	0.0145676
683.582	0.0148467
683.660	0.0149055
683.738	0.0152348
683.817	0.0151878
683.895	0.0153431
683.973	0.0155389
684.051	0.0155892
684.129	0.0156737
684.207	0.0157458
684.285	0.0157335
684.363	0.0158279
684.442	0.0158195
684.520	0.0156939
684.598	0.0157347
684.676	0.0157011
684.754	0.0156438
684.832	0.0155209
684.910	0.0153628
684.988	0.0152573
685.067	0.0153993
685.145	0.0152776
685.223	0.0150605
685.301	0.0149338
685.379	0.0148766
685.457	0.0148901
685.535	0.0147548
685.613	0.0147414
685.692	0.0145978
685.770	0.0144737
685.848	0.0144849
685.926	0.0145148
686.004	0.0144812
686.082	0.0143559
686.160	0.0143237
686.238	0.0144102
686.317	0.0144150
686.395	0.0143619
686.473	0.0144719
686.551	0.0144775
686.629	0.0143933
686.707	0.0143481
686.785	0.0145187
686.863	0.0145381
686.942	0.0144896
687.020	0.0146130
687.098	0.0147072
687.176	0.0146503
687.254	0.0147971
687.332	0.0146305
687.410	0.0146275
687.488	0.0145788
687.567	0.0147825
687.645	0.0148176
687.723	0.0149134
687.801	0.0147340
687.879	0.0147199
687.957	0.0148364
688.035	0.0149894
688.113	0.0150882
688.192	0.0151744
688.270	0.0150905
688.348	0.0152154
688.426	0.0154662
688.504	0.0154864
688.582	0.0153690
688.660	0.0154467
688.738	0.0156631
688.817	0.0155219
688.895	0.0155388
688.973	0.0154753
689.051	0.0154029
689.129	0.0155458
689.207	0.0154394
689.285	0.0153382
689.363	0.0153070
689.442	0.0152033
689.520	0.0150544
689.598	0.0151682
689.676	0.0150373
689.754	0.0148917
689.832	0.0147499
689.910	0.0148020
689.988	0.0145435
690.067	0.0146051
690.145	0.0146130
690.223	0.0146420
690.301	0.0146583
690.379	0.0145904
690.457	0.0145878
690.535	0.0145009
690.613	0.0143757
690.692	0.0143552
690.770	0.0143408
690.848	0.0144220
690.926	0.0140324
691.004	0.0142623
691.082	0.0139751
691.160	0.0140939
691.238	0.0140595
691.317	0.0140756
691.395	0.0139333
691.473	0.0139603
691.551	0.0139241
691.629	0.0139767
691.707	0.0139549
691.785	0.0140060
691.863	0.0140393
691.942	0.0140747
692.020	0.0141485
692.098	0.0141932
692.176	0.0143023
692.254	0.0143904
692.332	0.0146143
692.410	0.0147192
692.488	0.0147630
692.567	0.0149921
692.645	0.0151769
692.723	0.0152646
692.801	0.0153917
692.879	0.0154321
692.957	0.0155622
693.035	0.0158212
693.113	0.0156760
693.192	0.0157964
693.270	0.0157625
693.348	0.0157897
693.426	0.0159283
693.504	0.0159519
693.582	0.0158598
693.660	0.0158375
693.738	0.0157558
693.817	0.0158468
693.895	0.0157233
693.973	0.0156441
694.051	0.0156802
694.129	0.0155072
694.207	0.0154468
694.285	0.0153734
694.363	0.0154066
694.442	0.0153102
694.520	0.0151435
694.598	0.0151393
694.676	0.0148691
694.754	0.0148342
694.832	0.0147790
694.910	0.0149050
694.988	0.0146664
695.067	0.0146752
695.145	0.0146185
695.223	0.0144853
695.301	0.0143267
695.379	0.0142862
695.457	0.0141975
695.535	0.0142580
695.613	0.0140542
695.692	0.0141804
695.770	0.0141570
695.848	0.0139954
695.926	0.0139797
696.004	0.0140056
696.082	0.0139629
696.160	0.0140381
696.238	0.0141886
696.317	0.0141947
696.395	0.0142140
696.473	0.0141125
696.551	0.0142860
696.629	0.0145437
696.707	0.0146402
696.785	0.0145232
696.863	0.0146552
696.942	0.0146439
697.020	0.0146708
697.098	0.0148382
697.176	0.0148947
697.254	0.0150192
697.332	0.0152113
697.410	0.0152834
697.488	0.0154140
697.567	0.0155078
697.645	0.0156130
697.723	0.0157670
697.801	0.0158524
697.879	0.0159216
697.957	0.0158547
698.035	0.0161481
698.113	0.0161010
698.192	0.0160941
698.270	0.0160635
698.348	0.0161803
698.426	0.0160240
698.504	0.0160197
698.582	0.0159707
698.660	0.0157619
698.738	0.0157512
698.817	0.0155977
698.895	0.0153991
698.973	0.0152792
699.051	0.0153464
699.129	0.0151964
699.207	0.0149454
699.285	0.0148428
699.363	0.0148496
699.442	0.0147810
699.520	0.0145364
699.598	0.0145028
699.676	0.0144582
699.754	0.0143055
699.832	0.0143375
699.910	0.0143023
699.988	0.0141715
700.067	0.0144142
700.145	0.0143502
700.223	0.0143458
700.301	0.0144073
700.379	0.0145277
700.457	0.0144823
700.535	0.0144828
700.613	0.0143690
700.692	0.0144395
700.770	0.0143452
700.848	0.0142975
700.926	0.0143688
701.004	0.0144351
701.082	0.0143475
701.160	0.0144449
701.238	0.0144242
701.317	0.0144831
701.395	0.0145364
701.473	0.0145043
701.551	0.0146902
701.629	0.0146288
701.707	0.0147349
701.785	0.0146854
701.863	0.0147498
701.942	0.0149414
702.020	0.0149046
702.098	0.0148341
702.176	0.0149246
702.254	0.0151271
702.332	0.0152026
702.410	0.0151420
702.488	0.0151437
702.567	0.0154691
702.645	0.0154603
702.723	0.0153780
702.801	0.0154275
702.879	0.0154536
702.957	0.0153429
703.035	0.0154784
703.113	0.0153973
703.192	0.0154037
703.270	0.0152309
703.348	0.0151810
703.426	0.0151968
703.504	0.0151466
703.582	0.0150638
703.660	0.0150575
703.738	0.0149285
703.817	0.0149103
703.895	0.0149762
703.973	0.0148169
704.051	0.0147073
704.129	0.0148884
704.207	0.0148226
704.285	0.0145972
704.363	0.0144947
704.442	0.0145045
704.520	0.0145901
704.598	0.0144987
704.676	0.0143783
704.754	0.0146040
704.832	0.0145715
704.910	0.0145413
704.988	0.0146169
705.067	0.0145418
705.145	0.0146116
705.223	0.0146700
705.301	0.0146815
705.379	0.0147450
705.457	0.0146901
705.535	0.0146384
705.613	0.0145975
705.692	0.0145370
705.770	0.0145772
705.848	0.0145799
705.926	0.0145592
706.004	0.0145257
706.082	0.0144862
706.160	0.0146397
706.238	0.0145808
706.317	0.0145094
706.395	0.0146745
706.473	0.0147030
706.551	0.0146660
706.629	0.0146706
706.707	0.0147038
706.785	0.0148753
706.863	0.0147993
706.942	0.0149310
707.020	0.0151447
707.098	0.0149397
707.176	0.0150986
707.254	0.0149769
707.332	0.0151085
707.410	0.0151851
707.488	0.0151747
707.567	0.0152689
707.645	0.0152235
707.723	0.0153548
707.801	0.0154343
707.879	0.0153009
707.957	0.0152570
708.035	0.0152679
708.113	0.0153229
708.192	0.0153072
708.270	0.0153672
708.348	0.0152421
708.426	0.0152169
708.504	0.0152331
708.582	0.0151648
708.660	0.0152003
708.738	0.0151161
708.817	0.0151278
708.895	0.0151733
708.973	0.0150338
709.051	0.0149799
709.129	0.0149286
709.207	0.0149471
709.285	0.0148698
709.363	0.0148257
709.442	0.0148898
709.520	0.0148686
709.598	0.0149120
709.676	0.0149348
709.754	0.0149495
709.832	0.0147878
709.910	0.0148327
709.988	0.0148274
710.067	0.0146734
710.145	0.0147630
710.223	0.0148170
710.301	0.0147947
710.379	0.0146616
710.457	0.0147163
710.535	0.0146909
710.613	0.0146230
710.692	0.0147214
710.770	0.0147433
710.848	0.0147864
710.926	0.0147878
711.004	0.0145596
711.082	0.0146951
711.160	0.0147994
711.238	0.0146808
711.317	0.0145851
711.395	0.0145699
711.473	0.0147269
711.551	0.0147582
711.629	0.0147775
711.707	0.0149937
711.785	0.0149133
711.863	0.0148636
711.942	0.0150671
712.020	0.0150842
712.098	0.0151717
712.176	0.0151201
712.254	0.0152855
712.332	0.0152623
712.410	0.0151981
712.488	0.0153154
712.567	0.0151318
712.645	0.0153814
712.723	0.0150450
712.801	0.0152696
712.879	0.0152851
712.957	0.0151073
713.035	0.0152335
713.113	0.0149475
713.192	0.0150002
713.270	0.0152315
713.348	0.0150671
713.426	0.0149639
713.504	0.0149553
713.582	0.0148380
713.660	0.0149488
713.738	0.0149397
713.817	0.0149349
713.895	0.0148215
713.973	0.0148338
714.051	0.0148122
714.129	0.0147620
714.207	0.0148550
714.285	0.0147022
714.363	0.0147092
714.442	0.0148799
714.520	0.0148879
714.598	0.0146874
714.676	0.0147108
714.754	0.0148032
714.832	0.0147073
714.910	0.0147317
714.988	0.0147687
715.067	0.0146505
715.145	0.0145972
715.223	0.0145537
715.301	0.0146702
715.379	0.0145685
715.457	0.0145860
715.535	0.0145068
715.613	0.0146257
715.692	0.0147054
715.770	0.0147667
715.848	0.0146638
715.926	0.0147558
716.004	0.0148931
716.082	0.0149194
716.160	0.0149136
716.238	0.0149076
716.317	0.0149281
716.395	0.0149300
716.473	0.0149540
716.551	0.0150095
716.629	0.0149699
716.707	0.0149284
716.785	0.0150140
716.863	0.0149833
716.942	0.0148995
717.020	0.0148621
717.098	0.0148745
717.176	0.0148087
717.254	0.0147221
717.332	0.0146482
717.410	0.0147059
717.488	0.0145174
717.567	0.0144316
717.645	0.0144995
717.723	0.0145339
717.801	0.0145486
717.879	0.0146149
717.957	0.0145699
718.035	0.0145947
718.113	0.0145628
718.192	0.0147125
718.270	0.0147031
718.348	0.0147166
718.426	0.0145286
718.504	0.0149436
718.582	0.0148571
718.660	0.0149181
718.738	0.0149551
718.817	0.0148694
718.895	0.0151035
718.973	0.0150855
719.051	0.0150869
719.129	0.0150611
719.207	0.0151075
719.285	0.0151790
719.363	0.0151412
719.442	0.0151604
719.520	0.0149649
719.598	0.0151188
719.676	0.0150568
719.754	0.0149738
719.832	0.0150755
719.910	0.0149823
719.988	0.0149712
720.067	0.0150372
720.145	0.0150405
720.223	0.0150098
720.301	0.0149587
720.379	0.0149042
720.457	0.0148959
720.535	0.0151093
720.613	0.0151415
720.692	0.0150418
720.770	0.0150703
720.848	0.0151077
720.926	0.0151495
721.004	0.0149996
721.082	0.0150677
721.160	0.0150881
721.238	0.0150745
721.317	0.0151234
721.395	0.0150829
721.473	0.0150370
721.551	0.0150322
721.629	0.0150060
721.707	0.0149995
721.785	0.0150458
721.863	0.0151035
721.942	0.0149782
722.020	0.0150017
722.098	0.0151467
722.176	0.0151180
722.254	0.0149068
722.332	0.0150648
722.410	0.0150361
722.488	0.0150443
722.567	0.0149332
722.645	0.0149082
722.723	0.0148493
722.801	0.0149152
722.879	0.0148802
722.957	0.0147540
723.035	0.0148266
723.113	0.0148550
723.192	0.0149846
723.270	0.0150792
723.348	0.0149898
723.426	0.0150163
723.504	0.0152648
723.582	0.0151753
723.660	0.0151138
723.738	0.0152787
723.817	0.0152824
723.895	0.0152714
723.973	0.0154040
724.051	0.0151971
724.129	0.0152293
724.207	0.0152309
724.285	0.0152580
724.363	0.0153355
724.442	0.0152700
724.520	0.0152235
724.598	0.0152103
724.676	0.0150143
724.754	0.0150627
724.832	0.0151579
724.910	0.0149284
724.988	0.0150650
725.067	0.0149956
725.145	0.0150922
725.223	0.0149811
725.301	0.0150365
725.379	0.0149284
725.457	0.0148681
725.535	0.0150937
725.613	0.0150085
725.692	0.0149092
725.770	0.0149681
725.848	0.0150185
725.926	0.0150182
726.004	0.0149548
726.082	0.0150143
726.160	0.0149663
726.238	0.0148765
726.317	0.0148125
726.395	0.0148412
726.473	0.0147628
726.551	0.0146891
726.629	0.0147157
726.707	0.0147121
726.785	0.0147421
726.863	0.0146815
726.942	0.0146002
727.020	0.0147031
727.098	0.0146037
727.176	0.0147402
727.254	0.0147480
727.332	0.0147547
727.410	0.0147200
727.488	0.0147595
727.567	0.0147421
727.645	0.0148682
727.723	0.0149902
727.801	0.0149174
727.879	0.0148703
727.957	0.0149007
728.035	0.0148138
728.113	0.0147770
728.192	0.0147205
728.270	0.0147888
728.348	0.0148022
728.426	0.0148048
728.504	0.0148600
728.582	0.0147790
728.660	0.0149490
728.738	0.0147470
728.817	0.0148420
728.895	0.0148309
728.973	0.0149584
729.051	0.0148521
729.129	0.0149316
729.207	0.0149254
729.285	0.0148006
729.363	0.0148677
729.442	0.0148360
729.520	0.0148241
729.598	0.0148765
729.676	0.0149134
729.754	0.0148192
729.832	0.0148088
729.910	0.0147092
729.988	0.0148003
730.067	0.0148043
730.145	0.0148199
730.223	0.0147933
730.301	0.0148911
730.379	0.0148693
730.457	0.0149375
730.535	0.0148045
730.613	0.0147435
730.692	0.0148833
730.770	0.0148935
730.848	0.0147923
730.926	0.0149051
731.004	0.0149420
731.082	0.0148782
731.160	0.0149034
731.238	0.0149326
731.317	0.0149600
731.395	0.0149817
731.473	0.0149172
731.551	0.0148874
731.629	0.0148827
731.707	0.0147327
731.785	0.0147719
731.863	0.0146785
731.942	0.0148763
732.020	0.0147970
732.098	0.0148770
732.176	0.0148425
732.254	0.0148891
732.332	0.0150291
732.410	0.0147410
732.488	0.0148945
732.567	0.0149373
732.645	0.0148540
732.723	0.0151073
732.801	0.0151020
732.879	0.0150845
732.957	0.0152107
733.035	0.0152031
733.113	0.0150694
733.192	0.0152022
733.270	0.0151553
733.348	0.0150741
733.426	0.0150718
733.504	0.0151355
733.582	0.0151915
733.660	0.0150356
733.738	0.0149383
733.817	0.0150797
733.895	0.0149577
733.973	0.0149241
734.051	0.0150153
734.129	0.0148974
734.207	0.0148804
734.285	0.0148441
734.363	0.0148244
734.442	0.0148411
734.520	0.0147727
734.598	0.0148890
734.676	0.0148984
734.754	0.0147999
734.832	0.0148640
734.910	0.0148614
734.988	0.0149799
735.067	0.0148999
735.145	0.0148505
735.223	0.0148985
735.301	0.0148981
735.379	0.0148377
735.457	0.0148872
735.535	0.0148253
735.613	0.0149057
735.692	0.0147918
735.770	0.0148764
735.848	0.0148919
735.926	0.0147807
736.004	0.0148383
736.082	0.0147827
736.160	0.0149323
736.238	0.0147747
736.317	0.0147762
736.395	0.0147205
736.473	0.0149012
736.551	0.0148259
736.629	0.0148287
736.707	0.0148976
736.785	0.0147466
736.863	0.0148041
736.942	0.0148623
737.020	0.0149349
737.098	0.0148423
737.176	0.0149003
737.254	0.0148325
737.332	0.0148302
737.410	0.0148037
737.488	0.0147935
737.567	0.0149437
737.645	0.0148362
737.723	0.0150205
737.801	0.0148612
737.879	0.0148534
737.957	0.0150477
738.035	0.0149500
738.113	0.0149984
738.192	0.0149847
738.270	0.0150423
738.348	0.0150117
738.426	0.0151402
738.504	0.0150955
738.582	0.0151302
738.660	0.0150256
738.738	0.0150156
738.817	0.0150533
738.895	0.0151328
738.973	0.0151211
739.051	0.0151113
739.129	0.0150652
739.207	0.0150666
739.285	0.0150710
739.363	0.0149717
739.442	0.0149805
739.520	0.0149461
739.598	0.0149426
739.676	0.0148711
739.754	0.0147945
739.832	0.0148878
739.910	0.0149052
739.988	0.0149137
740.067	0.0148011
740.145	0.0146288
740.223	0.0147700
740.301	0.0148139
740.379	0.0148106
740.457	0.0149688
740.535	0.0148468
740.613	0.0146667
740.692	0.0147774
740.770	0.0147536
740.848	0.0149242
740.926	0.0149459
741.004	0.0149356
741.082	0.0148924
741.160	0.0149799
741.238	0.0148409
741.317	0.0149252
741.395	0.0148663
741.473	0.0149943
741.551	0.0148933
741.629	0.0148406
741.707	0.0148756
741.785	0.0148630
741.863	0.0148662
741.942	0.0149239
742.020	0.0147188
742.098	0.0148484
742.176	0.0148531
742.254	0.0149242
742.332	0.0149220
742.410	0.0147434
742.488	0.0146890
742.567	0.0148606
742.645	0.0149289
742.723	0.0148159
742.801	0.0147366
742.879	0.0147410
742.957	0.0149184
743.035	0.0147613
743.113	0.0149626
743.192	0.0147628
743.270	0.0147897
743.348	0.0148853
743.426	0.0148525
743.504	0.0149106
743.582	0.0148682
743.660	0.0149226
743.738	0.0150329
743.817	0.0150003
743.895	0.0148473
743.973	0.0149047
744.051	0.0149485
744.129	0.0149019
744.207	0.0149067
744.285	0.0150140
744.363	0.0149269
744.442	0.0149478
744.520	0.0148868
744.598	0.0147735
744.676	0.0148106
744.754	0.0148254
744.832	0.0147483
744.910	0.0147800
744.988	0.0148407
745.067	0.0147830
745.145	0.0146555
745.223	0.0147314
745.301	0.0147811
745.379	0.0147477
745.457	0.0147851
745.535	0.0147663
745.613	0.0149175
745.692	0.0148537
745.770	0.0146726
745.848	0.0147943
745.926	0.0148441
746.004	0.0146805
746.082	0.0148302
746.160	0.0149212
746.238	0.0147553
746.317	0.0147936
746.395	0.0149240
746.473	0.0148122
746.551	0.0148759
746.629	0.0148209
746.707	0.0148830
746.785	0.0148615
746.863	0.0148085
746.942	0.0148352
747.020	0.0147607
747.098	0.0147816
747.176	0.0146564
747.254	0.0146230
747.332	0.0147124
747.410	0.0146886
747.488	0.0146462
747.567	0.0147459
747.645	0.0145522
747.723	0.0146485
747.801	0.0145023
747.879	0.0145291
747.957	0.0144934
748.035	0.0146669
748.113	0.0146534
748.192	0.0147176
748.270	0.0146161
748.348	0.0145407
748.426	0.0144650
748.504	0.0147456
748.582	0.0146321
748.660	0.0146228
748.738	0.0147147
748.817	0.0146260
748.895	0.0145909
748.973	0.0147134
749.051	0.0148644
749.129	0.0148536
749.207	0.0148547
749.285	0.0147536
749.363	0.0149111
749.442	0.0149274
749.520	0.0149020
749.598	0.0148362
749.676	0.0149283
749.754	0.0149301
749.832	0.0148904
749.910	0.0147369
749.988	0.0146936
750.067	0.0148112
750.145	0.0149052
750.223	0.0147817
750.301	0.0148130
750.379	0.0149296
750.457	0.0148633
750.535	0.0148483
750.613	0.0148371
750.692	0.0147037
750.770	0.0148679
750.848	0.0149108
750.926	0.0147558
751.004	0.0149906
751.082	0.0150395
751.160	0.0149464
751.238	0.0148598
751.317	0.0150455
751.395	0.0150350
751.473	0.0150882
751.551	0.0148922
751.629	0.0149880
751.707	0.0149835
751.785	0.0150771
751.863	0.0150275
751.942	0.0150852
752.020	0.0151581
752.098	0.0150007
752.176	0.0149670
752.254	0.0149356
752.332	0.0150398
752.410	0.0151282
752.488	0.0149110
752.567	0.0149986
752.645	0.0149712
752.723	0.0149684
752.801	0.0148714
752.879	0.0149218
752.957	0.0149532
753.035	0.0149154
753.113	0.0149796
753.192	0.0149084
753.270	0.0149715
753.348	0.0150510
753.426	0.0151270
753.504	0.0151257
753.582	0.0149340
753.660	0.0150606
753.738	0.0151281
753.817	0.0152112
753.895	0.0151141
753.973	0.0152191
754.051	0.0151813
754.129	0.0151640
754.207	0.0151677
754.285	0.0152311
754.363	0.0151980
754.442	0.0152483
754.520	0.0152740
754.598	0.0151003
754.676	0.0151710
754.754	0.0152285
754.832	0.0150697
754.910	0.0150752
754.988	0.0151650
755.067	0.0150823
755.145	0.0149788
755.223	0.0149392
755.301	0.0150406
755.379	0.0150725
755.457	0.0149045
755.535	0.0149941
755.613	0.0149439
755.692	0.0148776
755.770	0.0147182
755.848	0.0147639
755.926	0.0148817
756.004	0.0147884
756.082	0.0147936
756.160	0.0148996
756.238	0.0149284
756.317	0.0147829
756.395	0.0148158
756.473	0.0148986
756.551	0.0147700
756.629	0.0149371
756.707	0.0150381
756.785	0.0148833
756.863	0.0149917
756.942	0.0149399
757.020	0.0148741
757.098	0.0150283
757.176	0.0150140
757.254	0.0149764
757.332	0.0149777
757.410	0.0148065
757.488	0.0148299
757.567	0.0148652
757.645	0.0148900
757.723	0.0148135
757.801	0.0149743
757.879	0.0148310
757.957	0.0148473
758.035	0.0148763
758.113	0.0148165
758.192	0.0147562
758.270	0.0148425
758.348	0.0147146
758.426	0.0145800
758.504	0.0148542
758.582	0.0149136
758.660	0.0147205
758.738	0.0148606
758.817	0.0149441
758.895	0.0147933
758.973	0.0147274
759.051	0.0148085
759.129	0.0149686
759.207	0.0148759
759.285	0.0148239
759.363	0.0148099
759.442	0.0148344
759.520	0.0150175
759.598	0.0147891
759.676	0.0148017
759.754	0.0148381
759.832	0.0147557
759.910	0.0147773
759.988	0.0149383
760.067	0.0147989
760.145	0.0148772
760.223	0.0148052
760.301	0.0148673
760.379	0.0150243
760.457	0.0148479
760.535	0.0148205
760.613	0.0148372
760.692	0.0148030
760.770	0.0148371
760.848	0.0148472
760.926	0.0147876
761.004	0.0149012
761.082	0.0148639
761.160	0.0149107
761.238	0.0149387
761.317	0.0148422
761.395	0.0149371
761.473	0.0149059
761.551	0.0149519
761.629	0.0149093
761.707	0.0151216
761.785	0.0150020
761.863	0.0149665
761.942	0.0149949
762.020	0.0149555
762.098	0.0148522
762.176	0.0150251
762.254	0.0150042
762.332	0.0149169
762.410	0.0147990
762.488	0.0149418
762.567	0.0149068
762.645	0.0149405
762.723	0.0148778
762.801	0.0149730
762.879	0.0148776
762.957	0.0148444
763.035	0.0147549
763.113	0.0148653
763.192	0.0148547
763.270	0.0148628
763.348	0.0148810
763.426	0.0149809
763.504	0.0149865
763.582	0.0149924
763.660	0.0149152
763.738	0.0148817
763.817	0.0148690
763.895	0.0148955
763.973	0.0148088
764.051	0.0148727
764.129	0.0148177
764.207	0.0149350
764.285	0.0147757
764.363	0.0148460
764.442	0.0148787
764.520	0.0148687
764.598	0.0147409
764.676	0.0147702
764.754	0.0149445
764.832	0.0148522
764.910	0.0148257
764.988	0.0148200
765.067	0.0148674
765.145	0.0147496
765.223	0.0147655
765.301	0.0148026
765.379	0.0148866
765.457	0.0147061
765.535	0.0148519
765.613	0.0147796
765.692	0.0148270
765.770	0.0148624
765.848	0.0148527
765.926	0.0148291
766.004	0.0147599
766.082	0.0147803
766.160	0.0149121
766.238	0.0148222
766.317	0.0147831
766.395	0.0147142
766.473	0.0147256
766.551	0.0148449
766.629	0.0147281
766.707	0.0146990
766.785	0.0148501
766.863	0.0148599
766.942	0.0149456
767.020	0.0149398
767.098	0.0149229
767.176	0.0148654
767.254	0.0147099
767.332	0.0147671
767.410	0.0148362
767.488	0.0149912
767.567	0.0150262
767.645	0.0149010
767.723	0.0149097
767.801	0.0149864
767.879	0.0149053
767.957	0.0149271
768.035	0.0149561
768.113	0.0148186
768.192	0.0147648
768.270	0.0148238
768.348	0.0148936
768.426	0.0148010
768.504	0.0148010
768.582	0.0146753
768.660	0.0147815
768.738	0.0146534
768.817	0.0147408
768.895	0.0146543
768.973	0.0147281
769.051	0.0146108
769.129	0.0146927
769.207	0.0148205
769.285	0.0145535
769.363	0.0145770
769.442	0.0145969
769.520	0.0146026
769.598	0.0146284
769.676	0.0147948
769.754	0.0146599
769.832	0.0144839
769.910	0.0144903
769.988	0.0145966
770.067	0.0146492
770.145	0.0145540
770.223	0.0146093
770.301	0.0146267
770.379	0.0145164
770.457	0.0147054
770.535	0.0144863
770.613	0.0147316
770.692	0.0148037
770.770	0.0147766
770.848	0.0146003
770.926	0.0146906
771.004	0.0146721
771.082	0.0146505
771.160	0.0147490
771.238	0.0148452
771.317	0.0148347
771.395	0.0148888
771.473	0.0147816
771.551	0.0149434
771.629	0.0147353
771.707	0.0147243
771.785	0.0148947
771.863	0.0148500
771.942	0.0147580
772.020	0.0147818
772.098	0.0148698
772.176	0.0148957
772.254	0.0147696
772.332	0.0147026
772.410	0.0149514
772.488	0.0147569
772.567	0.0147906
772.645	0.0148230
772.723	0.0147930
772.801	0.0147013
772.879	0.0148244
772.957	0.0148165
773.035	0.0148778
773.113	0.0148229
773.192	0.0148270
773.270	0.0147094
773.348	0.0148100
773.426	0.0149100
773.504	0.0148383
773.582	0.0147824
773.660	0.0148697
773.738	0.0147652
773.817	0.0148159
773.895	0.0148014
773.973	0.0147119
774.051	0.0148317
774.129	0.0147411
774.207	0.0146910
774.285	0.0149009
774.363	0.0147974
774.442	0.0148544
774.520	0.0147593
774.598	0.0148818
774.676	0.0148679
774.754	0.0148631
774.832	0.0149285
774.910	0.0150404
774.988	0.0149821
775.067	0.0150343
775.145	0.0150846
775.223	0.0150598
775.301	0.0151316
775.379	0.0151538
775.457	0.0150350
775.535	0.0152876
775.613	0.0151998
775.692	0.0150492
775.770	0.0151235
775.848	0.0150508
775.926	0.0150963
776.004	0.0151372
776.082	0.0151538
776.160	0.0151089
776.238	0.0150384
776.317	0.0149076
776.395	0.0151235
776.473	0.0150251
776.551	0.0150723
776.629	0.0149123
776.707	0.0150016
776.785	0.0149757
776.863	0.0151234
776.942	0.0150637
777.020	0.0150878
777.098	0.0148805
777.176	0.0149576
777.254	0.0150659
777.332	0.0149701
777.410	0.0149633
777.488	0.0148227
777.567	0.0149133
777.645	0.0149734
777.723	0.0147881
777.801	0.0149423
777.879	0.0149975
777.957	0.0149062
778.035	0.0150314
778.113	0.0150913
778.192	0.0149606
778.270	0.0150262
778.348	0.0149480
778.426	0.0150301
778.504	0.0150797
778.582	0.0149423
778.660	0.0148009
778.738	0.0149686
778.817	0.0150384
778.895	0.0149133
778.973	0.0150913
779.051	0.0150159
779.129	0.0147833
779.207	0.0148019
779.285	0.0149007
779.363	0.0148952
779.442	0.0150980
779.520	0.0149362
779.598	0.0148949
779.676	0.0148577
779.754	0.0148746
779.832	0.0148212
779.910	0.0147816
779.988	0.0149182
780.067	0.0148699
780.145	0.0149047
780.223	0.0149152
780.301	0.0150822
780.379	0.0150363
780.457	0.0149142
780.535	0.0147579
780.613	0.0149316
780.692	0.0148770
780.770	0.0150122
780.848	0.0149241
780.926	0.0149588
781.004	0.0151056
781.082	0.0149075
781.160	0.0148319
781.238	0.0149025
781.317	0.0149580
781.395	0.0149236
781.473	0.0148604
781.551	0.0148216
781.629	0.0148439
781.707	0.0149366
781.785	0.0147839
781.863	0.0147517
781.942	0.0146828
782.020	0.0147021
782.098	0.0147042
782.176	0.0147224
782.254	0.0147305
782.332	0.0146545
782.410	0.0147195
782.488	0.0146197
782.567	0.0146436
782.645	0.0148729
782.723	0.0147769
782.801	0.0146044
782.879	0.0147340
782.957	0.0148013
783.035	0.0146774
783.113	0.0147466
783.192	0.0147866
783.270	0.0147130
783.348	0.0148000
783.426	0.0148398
783.504	0.0147430
783.582	0.0147858
783.660	0.0148513
783.738	0.0148937
783.817	0.0147803
783.895	0.0148138
783.973	0.0147878
784.051	0.0147385
784.129	0.0148235
784.207	0.0150040
784.285	0.0150034
784.363	0.0148534
784.442	0.0148613
784.520	0.0150671
784.598	0.0150254
784.676	0.0149681
784.754	0.0148534
784.832	0.0148980
784.910	0.0149049
784.988	0.0148869
785.067	0.0149384
785.145	0.0149171
785.223	0.0149938
785.301	0.0149258
785.379	0.0148631
785.457	0.0149428
785.535	0.0151135
785.613	0.0149515
785.692	0.0148578
785.770	0.0147900
785.848	0.0147957
785.926	0.0148833
786.004	0.0148460
786.082	0.0149111
786.160	0.0149496
786.238	0.0150538
786.317	0.0148355
786.395	0.0149712
786.473	0.0150282
786.551	0.0148831
786.629	0.0150304
786.707	0.0150172
786.785	0.0150336
786.863	0.0149791
786.942	0.0150947
787.020	0.0149429
787.098	0.0149385
787.176	0.0150498
787.254	0.0150210
787.332	0.0149392
787.410	0.0151044
787.488	0.0150328
787.567	0.0149842
787.645	0.0151136
787.723	0.0148536
787.801	0.0149496
787.879	0.0149497
787.957	0.0148306
788.035	0.0148816
788.113	0.0150747
788.192	0.0149842
788.270	0.0148457
788.348	0.0148921
788.426	0.0150256
788.504	0.0148404
788.582	0.0150127
788.660	0.0149704
788.738	0.0149969
788.817	0.0149076
788.895	0.0150742
788.973	0.0149636
789.051	0.0149961
789.129	0.0150111
789.207	0.0150208
789.285	0.0149643
789.363	0.0150301
789.442	0.0150708
789.520	0.0150445
789.598	0.0150838
789.676	0.0149499
789.754	0.0150300
789.832	0.0149464
789.910	0.0150678
789.988	0.0151157
790.067	0.0149905
790.145	0.0148813
790.223	0.0150517
790.301	0.0150046
790.379	0.0148282
790.457	0.0149001
790.535	0.0147979
790.613	0.0147646
790.692	0.0148098
790.770	0.0148480
790.848	0.0148434
790.926	0.0147517
791.004	0.0147874
791.082	0.0147762
791.160	0.0148219
791.238	0.0148355
791.317	0.0148290
791.395	0.0148372
791.473	0.0147543
791.551	0.0147631
791.629	0.0147982
791.707	0.0147239
791.785	0.0147909
791.863	0.0147837
791.942	0.0147713
792.020	0.0148484
792.098	0.0149438
792.176	0.0149190
792.254	0.0148235
792.332	0.0148145
792.410	0.0147643
792.488	0.0146852
792.567	0.0147708
792.645	0.0147567
792.723	0.0147826
792.801	0.0147612
792.879	0.0148084
792.957	0.0147340
793.035	0.0147923
793.113	0.0149215
793.192	0.0147868
793.270	0.0146921
793.348	0.0148278
793.426	0.0149041
793.504	0.0147500
793.582	0.0147904
793.660	0.0147070
793.738	0.0147182
793.817	0.0148771
793.895	0.0147887
793.973	0.0149254
794.051	0.0150194
794.129	0.0147936
794.207	0.0148837
794.285	0.0148716
794.363	0.0150019
794.442	0.0149461
794.520	0.0149697
794.598	0.0148243
794.676	0.0148242
794.754	0.0150115
794.832	0.0150340
794.910	0.0149983
794.988	0.0148898
795.067	0.0148462
795.145	0.0149994
795.223	0.0150550
795.301	0.0149999
795.379	0.0147043
795.457	0.0150014
795.535	0.0151619
795.613	0.0149935
795.692	0.0149483
795.770	0.0149407
795.848	0.0149226
795.926	0.0149307
796.004	0.0150744
796.082	0.0149157
796.160	0.0149310
796.238	0.0149375
796.317	0.0149678
796.395	0.0149028
796.473	0.0149448
796.551	0.0149019
796.629	0.0148540
796.707	0.0148354
796.785	0.0149889
796.863	0.0148746
796.942	0.0149313
797.020	0.0150252
797.098	0.0149487
797.176	0.0149790
797.254	0.0148655
797.332	0.0150013
797.410	0.0149222
797.488	0.0150421
797.567	0.0150107
797.645	0.0150125
797.723	0.0149389
797.801	0.0150311
797.879	0.0149548
797.957	0.0149282
798.035	0.0149775
798.113	0.0149774
798.192	0.0150037
798.270	0.0150032
798.348	0.0149611
798.426	0.0149101
798.504	0.0151480
798.582	0.0150214
798.660	0.0149121
798.738	0.0149561
798.817	0.0150141
798.895	0.0149231
798.973	0.0149316
799.051	0.0149738
799.129	0.0149666
799.207	0.0149346
799.285	0.0150740
799.363	0.0151435
799.442	0.0148566
799.520	0.0148025
799.598	0.0148817
799.676	0.0149164
799.754	0.0149266
799.832	0.0149689
799.910	0.0149680
799.988	0.0149691
800.067	0.0148589
800.145	0.0148956
800.223	0.0148448
800.301	0.0149480
800.379	0.0148402
800.457	0.0148247
800.535	0.0149514
800.613	0.0147127
800.692	0.0147623
800.770	0.0146671
800.848	0.0147848
800.926	0.0147114
801.004	0.0147257
801.082	0.0146823
801.160	0.0147155
801.238	0.0147683
801.317	0.0146735
801.395	0.0146912
801.473	0.0146198
801.551	0.0146535
801.629	0.0146381
801.707	0.0146550
801.785	0.0146240
801.863	0.0145586
801.942	0.0147453
802.020	0.0144986
802.098	0.0146587
802.176	0.0146772
802.254	0.0146024
802.332	0.0148419
802.410	0.0148524
802.488	0.0146964
802.567	0.0147429
802.645	0.0147239
802.723	0.0147410
802.801	0.0145955
802.879	0.0146710
802.957	0.0147022
803.035	0.0147047
803.113	0.0147067
803.192	0.0146826
803.270	0.0147754
803.348	0.0147658
803.426	0.0147221
803.504	0.0147996
803.582	0.0147301
803.660	0.0148440
803.738	0.0148577
803.817	0.0147972
803.895	0.0149033
803.973	0.0149171
804.051	0.0147825
804.129	0.0148828
804.207	0.0149704
804.285	0.0147632
804.363	0.0149651
804.442	0.0149004
804.520	0.0147707
804.598	0.0149581
804.676	0.0150436
804.754	0.0148852
804.832	0.0148232
804.910	0.0149585
804.988	0.0148501
805.067	0.0149708
805.145	0.0151406
805.223	0.0150020
805.301	0.0150578
805.379	0.0150520
805.457	0.0149158
805.535	0.0149952
805.613	0.0150544
805.692	0.0148660
805.770	0.0148633
805.848	0.0149274
805.926	0.0148689
806.004	0.0148872
806.082	0.0149779
806.160	0.0147478
806.238	0.0149217
806.317	0.0148414
806.395	0.0149846
806.473	0.0149834
806.551	0.0149078
806.629	0.0148816
806.707	0.0147944
806.785	0.0148019
806.863	0.0150015
806.942	0.0148890
807.020	0.0148959
807.098	0.0147560
807.176	0.0148349
807.254	0.0149014
807.332	0.0147509
807.410	0.0148454
807.488	0.0150034
807.567	0.0148731
807.645	0.0148091
807.723	0.0148376
807.801	0.0148267
807.879	0.0149735
807.957	0.0148982
808.035	0.0148588
808.113	0.0147906
808.192	0.0149756
808.270	0.0150237
808.348	0.0149437
808.426	0.0149181
808.504	0.0149000
808.582	0.0151389
808.660	0.0148911
808.738	0.0148864
808.817	0.0149754
808.895	0.0149628
808.973	0.0150523
809.051	0.0150179
809.129	0.0150037
809.207	0.0150417
809.285	0.0150862
809.363	0.0150761
809.442	0.0150333
809.520	0.0152406
809.598	0.0151687
809.676	0.0150706
809.754	0.0149562
809.832	0.0150118
809.910	0.0151514
809.988	0.0150407
810.067	0.0149369
810.145	0.0150234
810.223	0.0150448
810.301	0.0149398
810.379	0.0150397
810.457	0.0151546
810.535	0.0150324
810.613	0.0151929
810.692	0.0151594
810.770	0.0150887
810.848	0.0152077
810.926	0.0150842
811.004	0.0151115
811.082	0.0150130
811.160	0.0150826
811.238	0.0149810
811.317	0.0149692
811.395	0.0150038
811.473	0.0149721
811.551	0.0150211
811.629	0.0150751
811.707	0.0148539
811.785	0.0148165
811.863	0.0148611
811.942	0.0148846
812.020	0.0149304
812.098	0.0149432
812.176	0.0150124
812.254	0.0150888
812.332	0.0149504
812.410	0.0150173
812.488	0.0149734
812.567	0.0150758
812.645	0.0150153
812.723	0.0150018
812.801	0.0149289
812.879	0.0150510
812.957	0.0149665
813.035	0.0149747
813.113	0.0149931
813.192	0.0149815
813.270	0.0149387
813.348	0.0149082
813.426	0.0150484
813.504	0.0149343
813.582	0.0149591
813.660	0.0150264
813.738	0.0151166
813.817	0.0151733
813.895	0.0150097
813.973	0.0151550
814.051	0.0151174
814.129	0.0148243
814.207	0.0148268
814.285	0.0149272
814.363	0.0151166
814.442	0.0149902
814.520	0.0150272
814.598	0.0151194
814.676	0.0148420
814.754	0.0148426
814.832	0.0149603
814.910	0.0149750
814.988	0.0150209
815.067	0.0148915
815.145	0.0148785
815.223	0.0149500
815.301	0.0149797
815.379	0.0149091
815.457	0.0149147
815.535	0.0148663
815.613	0.0150446
815.692	0.0149288
815.770	0.0149375
815.848	0.0149351
815.926	0.0149819
816.004	0.0150973
816.082	0.0149749
816.160	0.0148627
816.238	0.0150141
816.317	0.0150021
816.395	0.0149715
816.473	0.0150950
816.551	0.0150432
816.629	0.0149632
816.707	0.0149532
816.785	0.0151122
816.863	0.0150181
816.942	0.0151173
817.020	0.0151124
817.098	0.0150499
817.176	0.0149023
817.254	0.0151542
817.332	0.0152550
817.410	0.0150719
817.488	0.0151256
817.567	0.0151362
817.645	0.0150571
817.723	0.0151952
817.801	0.0153413
817.879	0.0152748
817.957	0.0152564
818.035	0.0151117
818.113	0.0151777
818.192	0.0151186
818.270	0.0151555
818.348	0.0151468
818.426	0.0150919
818.504	0.0150360
818.582	0.0152480
818.660	0.0149625
818.738	0.0150254
818.817	0.0151418
818.895	0.0150670
818.973	0.0149903
819.051	0.0149419
819.129	0.0149471
819.207	0.0149619
819.285	0.0150355
819.363	0.0149724
819.442	0.0149061
819.520	0.0148650
819.598	0.0149255
819.676	0.0149923
819.754	0.0149557
819.832	0.0148796
819.910	0.0148912
819.988	0.0147973
820.067	0.0147606
820.145	0.0147684
820.223	0.0148255
820.301	0.0147661
820.379	0.0148995
820.457	0.0148262
820.535	0.0148654
820.613	0.0147865
820.692	0.0146588
820.770	0.0147894
820.848	0.0148671
820.926	0.0146972
821.004	0.0148373
821.082	0.0148313
821.160	0.0146793
821.238	0.0148331
821.317	0.0149068
821.395	0.0150505
821.473	0.0149012
821.551	0.0148172
821.629	0.0148768
821.707	0.0149612
821.785	0.0148920
821.863	0.0149530
821.942	0.0149090
822.020	0.0149850
822.098	0.0149783
822.176	0.0149625
822.254	0.0149290
822.332	0.0150011
822.410	0.0147799
822.488	0.0149209
822.567	0.0150218
822.645	0.0149667
822.723	0.0149046
822.801	0.0147772
822.879	0.0148622
822.957	0.0148643
823.035	0.0147973
823.113	0.0148816
823.192	0.0147601
823.270	0.0147531
823.348	0.0147843
823.426	0.0147980
823.504	0.0147890
823.582	0.0147939
823.660	0.0146922
823.738	0.0147974
823.817	0.0147691
823.895	0.0149144
823.973	0.0147602
824.051	0.0148034
824.129	0.0148679
824.207	0.0148891
824.285	0.0147375
824.363	0.0149229
824.442	0.0148040
824.520	0.0149632
824.598	0.0148456
824.676	0.0148052
824.754	0.0148878
824.832	0.0148037
824.910	0.0147661
824.988	0.0149910
825.067	0.0148625
825.145	0.0148542
825.223	0.0148502
825.301	0.0148912
825.379	0.0147634
825.457	0.0148914
825.535	0.0150215
825.613	0.0147944
825.692	0.0148070
825.770	0.0149808
825.848	0.0148820
825.926	0.0149432
826.004	0.0149471
826.082	0.0148814
826.160	0.0149812
826.238	0.0149853
826.317	0.0149861
826.395	0.0149673
826.473	0.0149575
826.551	0.0150907
826.629	0.0148963
826.707	0.0149617
826.785	0.0149324
826.863	0.0149628
826.942	0.0148874
827.020	0.0149258
827.098	0.0150394
827.176	0.0148970
827.254	0.0148524
827.332	0.0148997
827.410	0.0150081
827.488	0.0150450
827.567	0.0148438
827.645	0.0148223
827.723	0.0149191
827.801	0.0148987
827.879	0.0148096
827.957	0.0148605
828.035	0.0148219
828.113	0.0146281
828.192	0.0147749
828.270	0.0146347
828.348	0.0146628
828.426	0.0147028
828.504	0.0146149
828.582	0.0145589
828.660	0.0146537
828.738	0.0145942
828.817	0.0145911
828.895	0.0144811
828.973	0.0144996
829.051	0.0145022
829.129	0.0146382
829.207	0.0147737
829.285	0.0146396
829.363	0.0145808
829.442	0.0145485
829.520	0.0144656
829.598	0.0146602
829.676	0.0147181
829.754	0.0146384
829.832	0.0147005
829.910	0.0146931
829.988	0.0148618
830.067	0.0148593
830.145	0.0148672
830.223	0.0146438
830.301	0.0148169
830.379	0.0148493
830.457	0.0148822
830.535	0.0148782
830.613	0.0148465
830.692	0.0148990
830.770	0.0149672
830.848	0.0149123
830.926	0.0147701
831.004	0.0148143
831.082	0.0148818
831.160	0.0149427
831.238	0.0149749
831.317	0.0149373
831.395	0.0148880
831.473	0.0150613
831.551	0.0150238
831.629	0.0149586
831.707	0.0148558
831.785	0.0149757
831.863	0.0150517
831.942	0.0149391
832.020	0.0151058
832.098	0.0150671
832.176	0.0149918
832.254	0.0148682
832.332	0.0149142
832.410	0.0149295
832.488	0.0148340
832.567	0.0148269
832.645	0.0148831
832.723	0.0148563
832.801	0.0150085
832.879	0.0149759
832.957	0.0149591
833.035	0.0149128
833.113	0.0147638
833.192	0.0147807
833.270	0.0148688
833.348	0.0148502
833.426	0.0147889
833.504	0.0147623
833.582	0.0148969
833.660	0.0148565
833.738	0.0149044
833.817	0.0147607
833.895	0.0148555
833.973	0.0148370
834.051	0.0149078
834.129	0.0149467
834.207	0.0147408
834.285	0.0147791
834.363	0.0149185
834.442	0.0148412
834.520	0.0148427
834.598	0.0148141
834.676	0.0148605
834.754	0.0149235
834.832	0.0150204
834.910	0.0150457
834.988	0.0149695
835.067	0.0150278
835.145	0.0150158
835.223	0.0149749
835.301	0.0149969
835.379	0.0149548
835.457	0.0150801
835.535	0.0150375
835.613	0.0150247
835.692	0.0150323
835.770	0.0150362
835.848	0.0150409
835.926	0.0151490
836.004	0.0151821
836.082	0.0151128
836.160	0.0151716
836.238	0.0150248
836.317	0.0152159
836.395	0.0149641
836.473	0.0149866
836.551	0.0151672
836.629	0.0151319
836.707	0.0150363
836.785	0.0150326
836.863	0.0150340
836.942	0.0150710
837.020	0.0151147
837.098	0.0151352
837.176	0.0150219
837.254	0.0151771
837.332	0.0150280
837.410	0.0149856
837.488	0.0151690
837.567	0.0150260
837.645	0.0151723
837.723	0.0151288
837.801	0.0150327
837.879	0.0150921
837.957	0.0150002
838.035	0.0150043
838.113	0.0150313
838.192	0.0149656
838.270	0.0150759
838.348	0.0148386
838.426	0.0147896
838.504	0.0149652
838.582	0.0150230
838.660	0.0149718
838.738	0.0150392
838.817	0.0149509
838.895	0.0150852
838.973	0.0150450
839.051	0.0148237
839.129	0.0148927
839.207	0.0150105
839.285	0.0151061
839.363	0.0149701
839.442	0.0149209
839.520	0.0148083
839.598	0.0149335
839.676	0.0150434
839.754	0.0150212
839.832	0.0148203
839.910	0.0147350
839.988	0.0148402
840.067	0.0148977
840.145	0.0147958
840.223	0.0149525
840.301	0.0148817
840.379	0.0149066
840.457	0.0148322
840.535	0.0148706
840.613	0.0148135
840.692	0.0146993
840.770	0.0148769
840.848	0.0150441
840.926	0.0147144
841.004	0.0148305
841.082	0.0149438
841.160	0.0146358
841.238	0.0148048
841.317	0.0147993
841.395	0.0147729
841.473	0.0148591
841.551	0.0147653
841.629	0.0146750
841.707	0.0147888
841.785	0.0147126
841.863	0.0148644
841.942	0.0146853
842.020	0.0147996
842.098	0.0147491
842.176	0.0147860
842.254	0.0147715
842.332	0.0146916
842.410	0.0148242
842.488	0.0149426
842.567	0.0148104
842.645	0.0148690
842.723	0.0148972
842.801	0.0148697
842.879	0.0147816
842.957	0.0148890
843.035	0.0148711
843.113	0.0148284
843.192	0.0147279
843.270	0.0147515
843.348	0.0148973
843.426	0.0149242
843.504	0.0146870
843.582	0.0147645
843.660	0.0147035
843.738	0.0147038
843.817	0.0146610
843.895	0.0148639
843.973	0.0146250
844.051	0.0147049
844.129	0.0146453
844.207	0.0145998
844.285	0.0146976
844.363	0.0146892
844.442	0.0145676
844.520	0.0147305
844.598	0.0147650
844.676	0.0146490
844.754	0.0147192
844.832	0.0146545
844.910	0.0146442
844.988	0.0147176
845.067	0.0148207
845.145	0.0148399
845.223	0.0146328
845.301	0.0147199
845.379	0.0147867
845.457	0.0147398
845.535	0.0148347
845.613	0.0148315
845.692	0.0147203
845.770	0.0147306
845.848	0.0147709
845.926	0.0148677
846.004	0.0148903
846.082	0.0149412
846.160	0.0148411
846.238	0.0146917
846.317	0.0147748
846.395	0.0148785
846.473	0.0148340
846.551	0.0147834
846.629	0.0148126
846.707	0.0149038
846.785	0.0148449
846.863	0.0147963
846.942	0.0149200
847.020	0.0148198
847.098	0.0148370
847.176	0.0148453
847.254	0.0148947
847.332	0.0147708
847.410	0.0148524
847.488	0.0148012
847.567	0.0149444
847.645	0.0147433
847.723	0.0146762
847.801	0.0147903
847.879	0.0146718
847.957	0.0148222
848.035	0.0148051
848.113	0.0147561
848.192	0.0147384
848.270	0.0146722
848.348	0.0147636
848.426	0.0148121
848.504	0.0147388
848.582	0.0147316
848.660	0.0147375
848.738	0.0147753
848.817	0.0147274
848.895	0.0148751
848.973	0.0148145
849.051	0.0147673
849.129	0.0149638
849.207	0.0148739
849.285	0.0148852
849.363	0.0148026
849.442	0.0147575
849.520	0.0148078
849.598	0.0148186
849.676	0.0148315
849.754	0.0149628
849.832	0.0147826
849.910	0.0148636
849.988	0.0149696
850.067	0.0148453
850.145	0.0147232
850.223	0.0148270
850.301	0.0148100
850.379	0.0147374
850.457	0.0149136
850.535	0.0148962
850.613	0.0148911
850.692	0.0148933
850.770	0.0148243
850.848	0.0149207
850.926	0.0149775
851.004	0.0148524
851.082	0.0148471
851.160	0.0148554
851.238	0.0148794
851.317	0.0149391
851.395	0.0148840
851.473	0.0149445
851.551	0.0147450
851.629	0.0150224
851.707	0.0149924
851.785	0.0150258
851.863	0.0149449
851.942	0.0148746
852.020	0.0148796
852.098	0.0150098
852.176	0.0148663
852.254	0.0149287
852.332	0.0147762
852.410	0.0149117
852.488	0.0149493
852.567	0.0147651
852.645	0.0149020
852.723	0.0148917
852.801	0.0148161
852.879	0.0148694
852.957	0.0148272
853.035	0.0147833
853.113	0.0149642
853.192	0.0148918
853.270	0.0149484
853.348	0.0148950
853.426	0.0148380
853.504	0.0148377
853.582	0.0148498
853.660	0.0147674
853.738	0.0149123
853.817	0.0149048
853.895	0.0147363
853.973	0.0148884
854.051	0.0148959
854.129	0.0147473
854.207	0.0148322
854.285	0.0147837
854.363	0.0149188
854.442	0.0148852
854.520	0.0148973
854.598	0.0148877
854.676	0.0147870
854.754	0.0147353
854.832	0.0146947
854.910	0.0147792
854.988	0.0147950
855.067	0.0147134
855.145	0.0147671
855.223	0.0149445
855.301	0.0148959
855.379	0.0149750
855.457	0.0148755
855.535	0.0148734
855.613	0.0149383
855.692	0.0148190
855.770	0.0148040
855.848	0.0149564
855.926	0.0148952
856.004	0.0145910
856.082	0.0148728
856.160	0.0148100
856.238	0.0148032
856.317	0.0148586
856.395	0.0148310
856.473	0.0148422
856.551	0.0148144
856.629	0.0147884
856.707	0.0147058
856.785	0.0147371
856.863	0.0147430
856.942	0.0147470
857.020	0.0147388
857.098	0.0147888
857.176	0.0146266
857.254	0.0147936
857.332	0.0147872
857.410	0.0146826
857.488	0.0148535
857.567	0.0145666
857.645	0.0146288
857.723	0.0146732
857.801	0.0147889
857.879	0.0146000
857.957	0.0147174
858.035	0.0146441
858.113	0.0147746
858.192	0.0147018
858.270	0.0147038
858.348	0.0147795
858.426	0.0147929
858.504	0.0149172
858.582	0.0146042
858.660	0.0147813
858.738	0.0147946
858.817	0.0147691
858.895	0.0146773
858.973	0.0148186
859.051	0.0147021
859.129	0.0147663
859.207	0.0147926
859.285	0.0148038
859.363	0.0148769
859.442	0.0147515
859.520	0.0148461
859.598	0.0147866
859.676	0.0147889
859.754	0.0149660
859.832	0.0147963
859.910	0.0147949
859.988	0.0147769
860.067	0.0147200
860.145	0.0147209
860.223	0.0148606
860.301	0.0145644
860.379	0.0147324
860.457	0.0149190
860.535	0.0148396
860.613	0.0147440
860.692	0.0146833
860.770	0.0147671
860.848	0.0147333
860.926	0.0147363
861.004	0.0147384
861.082	0.0147751
861.160	0.0148582
861.238	0.0148411
861.317	0.0147934
861.395	0.0147558
861.473	0.0148239
861.551	0.0147784
861.629	0.0148955
861.707	0.0148621
861.785	0.0146748
861.863	0.0148053
861.942	0.0148249
862.020	0.0147584
862.098	0.0147042
862.176	0.0147514
862.254	0.0146848
862.332	0.0147242
862.410	0.0148012
862.488	0.0147332
862.567	0.0147491
862.645	0.0146550
862.723	0.0147297
862.801	0.0148045
862.879	0.0146758
862.957	0.0147366
863.035	0.0147499
863.113	0.0146687
863.192	0.0147137
863.270	0.0148603
863.348	0.0148592
863.426	0.0147222
863.504	0.0148749
863.582	0.0148614
863.660	0.0148632
863.738	0.0150687
863.817	0.0148930
863.895	0.0150144
863.973	0.0150384
864.051	0.0149847
864.129	0.0151916
864.207	0.0149258
864.285	0.0150419
864.363	0.0149677
864.442	0.0149415
864.520	0.0150443
864.598	0.0151589
864.676	0.0149551
864.754	0.0149934
864.832	0.0149517
864.910	0.0150803
864.988	0.0151008
865.067	0.0149869
865.145	0.0149380
865.223	0.0149068
865.301	0.0150129
865.379	0.0148375
865.457	0.0149660
865.535	0.0149318
865.613	0.0148146
865.692	0.0150560
865.770	0.0149725
865.848	0.0151196
865.926	0.0149164
866.004	0.0149986
866.082	0.0149151
866.160	0.0148119
866.238	0.0149302
866.317	0.0149885
866.395	0.0150195
866.473	0.0149257
866.551	0.0149760
866.629	0.0149248
866.707	0.0150173
866.785	0.0149503
866.863	0.0149654
866.942	0.0149818
867.020	0.0149033
867.098	0.0147578
867.176	0.0147984
867.254	0.0148090
867.332	0.0149953
867.410	0.0148490
867.488	0.0147878
867.567	0.0148354
867.645	0.0148663
867.723	0.0147583
867.801	0.0147600
867.879	0.0148383
867.957	0.0147119
868.035	0.0147695
868.113	0.0147720
868.192	0.0147710
868.270	0.0148058
868.348	0.0147356
868.426	0.0147894
868.504	0.0148532
868.582	0.0148141
868.660	0.0148730
868.738	0.0149191
868.817	0.0147791
868.895	0.0147696
868.973	0.0148727
869.051	0.0148672
869.129	0.0147217
869.207	0.0148963
869.285	0.0148705
869.363	0.0147424
869.442	0.0148508
869.520	0.0147433
869.598	0.0147974
869.676	0.0147980
869.754	0.0147247
869.832	0.0148687
869.910	0.0148133
869.988	0.0146078
870.067	0.0146412
870.145	0.0146721
870.223	0.0146631
870.301	0.0147887
870.379	0.0148878
870.457	0.0146935
870.535	0.0146972
870.613	0.0149384
870.692	0.0147271
870.770	0.0147578
870.848	0.0147942
870.926	0.0149046
871.004	0.0146981
871.082	0.0148026
871.160	0.0147192
871.238	0.0147964
871.317	0.0148955
871.395	0.0149263
871.473	0.0147836
871.551	0.0147742
871.629	0.0149636
871.707	0.0149208
871.785	0.0149444
871.863	0.0148857
871.942	0.0150141
872.020	0.0148451
872.098	0.0149223
872.176	0.0149151
872.254	0.0150266
872.332	0.0149065
872.410	0.0149499
872.488	0.0148465
872.567	0.0148829
872.645	0.0148908
872.723	0.0149332
872.801	0.0149466
872.879	0.0149490
872.957	0.0149641
873.035	0.0149422
873.113	0.0148268
873.192	0.0148317
873.270	0.0150468
873.348	0.0149512
873.426	0.0149358
873.504	0.0148479
873.582	0.0149115
873.660	0.0149554
873.738	0.0149506
873.817	0.0148342
873.895	0.0149670
873.973	0.0149549
874.051	0.0149124
874.129	0.0150379
874.207	0.0149379
874.285	0.0149998
874.363	0.0150752
874.442	0.0149590
874.520	0.0147800
874.598	0.0148254
874.676	0.0150146
874.754	0.0149521
874.832	0.0148330
874.910	0.0149343
874.988	0.0150164
875.067	0.0147721
875.145	0.0148855
875.223	0.0148876
875.301	0.0148311
875.379	0.0149993
875.457	0.0151197
875.535	0.0150126
875.613	0.0148493
875.692	0.0148948
875.770	0.0149270
875.848	0.0150656
875.926	0.0149792
876.004	0.0149686
876.082	0.0150342
876.160	0.0150641
876.238	0.0150344
876.317	0.0150111
876.395	0.0150539
876.473	0.0149244
876.551	0.0149321
876.629	0.0149891
876.707	0.0149525
876.785	0.0149099
876.863	0.0150598
876.942	0.0149846
877.020	0.0149184
877.098	0.0149744
877.176	0.0149446
877.254	0.0151173
877.332	0.0150356
877.410	0.0149287
877.488	0.0149600
877.567	0.0149903
877.645	0.0149951
877.723	0.0148666
877.801	0.0149722
877.879	0.0148493
877.957	0.0149992
878.035	0.0148748
878.113	0.0149220
878.192	0.0149350
878.270	0.0149631
878.348	0.0148648
878.426	0.0149594
878.504	0.0148316
878.582	0.0149141
878.660	0.0149655
878.738	0.0147150
878.817	0.0148852
878.895	0.0147862
878.973	0.0147819
879.051	0.0147356
879.129	0.0147143
879.207	0.0147990
879.285	0.0147749
879.363	0.0149117
879.442	0.0149210
879.520	0.0146901
879.598	0.0148634
879.676	0.0148796
879.754	0.0148280
879.832	0.0146298
879.910	0.0148682
879.988	0.0148997
880.067	0.0148528
880.145	0.0147677
880.223	0.0147834
880.301	0.0148910
880.379	0.0148267
880.457	0.0149067
880.535	0.0147905
880.613	0.0147338
880.692	0.0149105
880.770	0.0146893
880.848	0.0147672
880.926	0.0147882
881.004	0.0147883
881.082	0.0148712
881.160	0.0148451
881.238	0.0146853
881.317	0.0146724
881.395	0.0146922
881.473	0.0147595
881.551	0.0148577
881.629	0.0147198
881.707	0.0147140
881.785	0.0147279
881.863	0.0147334
881.942	0.0146355
882.020	0.0147752
882.098	0.0147657
882.176	0.0147073
882.254	0.0148161
882.332	0.0149597
882.410	0.0148865
882.488	0.0146060
882.567	0.0147964
882.645	0.0148112
882.723	0.0148087
882.801	0.0148376
882.879	0.0148523
882.957	0.0147352
883.035	0.0147758
883.113	0.0149400
883.192	0.0148843
883.270	0.0148533
883.348	0.0148292
883.426	0.0147850
883.504	0.0149828
883.582	0.0148612
883.660	0.0149365
883.738	0.0149830
883.817	0.0150099
883.895	0.0148898
883.973	0.0149511
884.051	0.0147736
884.129	0.0148018
884.207	0.0148936
884.285	0.0147901
884.363	0.0149870
884.442	0.0148536
884.520	0.0148013
884.598	0.0148764
884.676	0.0149856
884.754	0.0148547
884.832	0.0147638
884.910	0.0148627
884.988	0.0149114
885.067	0.0148418
885.145	0.0148713
885.223	0.0149097
885.301	0.0148182
885.379	0.0148669
885.457	0.0148179
885.535	0.0148016
885.613	0.0148409
885.692	0.0147859
885.770	0.0147633
885.848	0.0148016
885.926	0.0147413
886.004	0.0148109
886.082	0.0147064
886.160	0.0147223
886.238	0.0146858
886.317	0.0148062
886.395	0.0147340
886.473	0.0146628
886.551	0.0146897
886.629	0.0147032
886.707	0.0148177
886.785	0.0148595
886.863	0.0146494
886.942	0.0146976
887.020	0.0148618
887.098	0.0148756
887.176	0.0147097
887.254	0.0146007
887.332	0.0146692
887.410	0.0146797
887.488	0.0148878
887.567	0.0146928
887.645	0.0147291
887.723	0.0147588
887.801	0.0147539
887.879	0.0147309
887.957	0.0146521
888.035	0.0148824
888.113	0.0147496
888.192	0.0147581
888.270	0.0148396
888.348	0.0148443
888.426	0.0149187
888.504	0.0149423
888.582	0.0148612
888.660	0.0148972
888.738	0.0149241
888.817	0.0150866
888.895	0.0149375
888.973	0.0147975
889.051	0.0148579
889.129	0.0149224
889.207	0.0148309
889.285	0.0147974
889.363	0.0148770
889.442	0.0149523
889.520	0.0149304
889.598	0.0148091
889.676	0.0149548
889.754	0.0148228
889.832	0.0148783
889.910	0.0148555
889.988	0.0150073
890.067	0.0148929
890.145	0.0149561
890.223	0.0149405
890.301	0.0148328
890.379	0.0148734
890.457	0.0149280
890.535	0.0149207
890.613	0.0150745
890.692	0.0149495
890.770	0.0148037
890.848	0.0147907
890.926	0.0148486
891.004	0.0148662
891.082	0.0149404
891.160	0.0148970
891.238	0.0148666
891.317	0.0149695
891.395	0.0147431
891.473	0.0148959
891.551	0.0148802
891.629	0.0148219
891.707	0.0148731
891.785	0.0148891
891.863	0.0149541
891.942	0.0150092
892.020	0.0149715
892.098	0.0149469
892.176	0.0150320
892.254	0.0148311
892.332	0.0148769
892.410	0.0149493
892.488	0.0150995
892.567	0.0150424
892.645	0.0149339
892.723	0.0150167
892.801	0.0149117
892.879	0.0151369
892.957	0.0149686
893.035	0.0151402
893.113	0.0151497
893.192	0.0150838
893.270	0.0151656
893.348	0.0152016
893.426	0.0151112
893.504	0.0150132
893.582	0.0151756
893.660	0.0151664
893.738	0.0151153
893.817	0.0152844
893.895	0.0151990
893.973	0.0150988
894.051	0.0151974
894.129	0.0150134
894.207	0.0152899
894.285	0.0151578
894.363	0.0148685
894.442	0.0150436
894.520	0.0151324
894.598	0.0150706
894.676	0.0150562
894.754	0.0149564
894.832	0.0149749
894.910	0.0151916
894.988	0.0149270
895.067	0.0149979
895.145	0.0149666
895.223	0.0150903
895.301	0.0150726
895.379	0.0150381
895.457	0.0150121
895.535	0.0151278
895.613	0.0149024
895.692	0.0150987
895.770	0.0150259
895.848	0.0147853
895.926	0.0149540
896.004	0.0149911
896.082	0.0150407
896.160	0.0149860
896.238	0.0150572
896.317	0.0150198
896.395	0.0149606
896.473	0.0150845
896.551	0.0150531
896.629	0.0149255
896.707	0.0150137
896.785	0.0149454
896.863	0.0151012
896.942	0.0149458
897.020	0.0150264
897.098	0.0150741
897.176	0.0150540
897.254	0.0148969
897.332	0.0150433
897.410	0.0149088
897.488	0.0149848
897.567	0.0149445
897.645	0.0149505
897.723	0.0149617
897.801	0.0149854
897.879	0.0149012
897.957	0.0150051
898.035	0.0148071
898.113	0.0148460
898.192	0.0149749
898.270	0.0149140
898.348	0.0149551
898.426	0.0148328
898.504	0.0147916
898.582	0.0148467
898.660	0.0147068
898.738	0.0148136
898.817	0.0150087
898.895	0.0149586
898.973	0.0149016
899.051	0.0147795
899.129	0.0149072
899.207	0.0150291
899.285	0.0148740
899.363	0.0150310
899.442	0.0148571
899.520	0.0149804
899.598	0.0148251
899.676	0.0149264
899.754	0.0149885
899.832	0.0149262
899.910	0.0149068
899.988	0.0150639
900.067	0.0149427
900.145	0.0149486
900.223	0.0149437
900.301	0.0148647
900.379	0.0149246
900.457	0.0148264
900.535	0.0148653
900.613	0.0148537
900.692	0.0149730
900.770	0.0148557
900.848	0.0150081
900.926	0.0148861
901.004	0.0149717
901.082	0.0150365
901.160	0.0149210
901.238	0.0148680
901.317	0.0147852
901.395	0.0149569
901.473	0.0148123
901.551	0.0148856
901.629	0.0149077
901.707	0.0148541
901.785	0.0149496
901.863	0.0149516
901.942	0.0148157
902.020	0.0148411
902.098	0.0151370
902.176	0.0150714
902.254	0.0150116
902.332	0.0151476
902.410	0.0149325
902.488	0.0149754
902.567	0.0148695
902.645	0.0147903
902.723	0.0150220
902.801	0.0149326
902.879	0.0149370
902.957	0.0149031
903.035	0.0148843
903.113	0.0148489
903.192	0.0149403
903.270	0.0149731
903.348	0.0150011
903.426	0.0149785
903.504	0.0147964
903.582	0.0149426
903.660	0.0148763
903.738	0.0147968
903.817	0.0149146
903.895	0.0148322
903.973	0.0148328
904.051	0.0147266
904.129	0.0147501
904.207	0.0148943
904.285	0.0148685
904.363	0.0147882
904.442	0.0146107
904.520	0.0148251
904.598	0.0149941
904.676	0.0147651
904.754	0.0147343
904.832	0.0149003
904.910	0.0148704
904.988	0.0147894
905.067	0.0148148
905.145	0.0148073
905.223	0.0149199
905.301	0.0147743
905.379	0.0147604
905.457	0.0146458
905.535	0.0148015
905.613	0.0148598
905.692	0.0147838
905.770	0.0147498
905.848	0.0148882
905.926	0.0148154
906.004	0.0147817
906.082	0.0148051
906.160	0.0148444
906.238	0.0146966
906.317	0.0148049
906.395	0.0148338
906.473	0.0148598
906.551	0.0148623
906.629	0.0148090
906.707	0.0146881
906.785	0.0147910
906.863	0.0147540
906.942	0.0149406
907.020	0.0147832
907.098	0.0147060
907.176	0.0148725
907.254	0.0147343
907.332	0.0148303
907.410	0.0148694
907.488	0.0148586
907.567	0.0148682
907.645	0.0149067
907.723	0.0147913
907.801	0.0147422
907.879	0.0148210
907.957	0.0149956
908.035	0.0149081
908.113	0.0148790
908.192	0.0149960
908.270	0.0149703
908.348	0.0149417
908.426	0.0148439
908.504	0.0148719
908.582	0.0149672
908.660	0.0149557
908.738	0.0149171
908.817	0.0150045
908.895	0.0149448
908.973	0.0150085
909.051	0.0149948
909.129	0.0150933
909.207	0.0150270
909.285	0.0149641
909.363	0.0148497
909.442	0.0151482
909.520	0.0150674
909.598	0.0150025
909.676	0.0150603
909.754	0.0151337
909.832	0.0150865
909.910	0.0151860
909.988	0.0152221
910.067	0.0151597
910.145	0.0150190
910.223	0.0150647
910.301	0.0150330
910.379	0.0152146
910.457	0.0151906
910.535	0.0151656
910.613	0.0151344
910.692	0.0151633
910.770	0.0152552
910.848	0.0152290
910.926	0.0151965
911.004	0.0151837
911.082	0.0151081
911.160	0.0152912
911.238	0.0150774
911.317	0.0150773
911.395	0.0151566
911.473	0.0152177
911.551	0.0152286
911.629	0.0151695
911.707	0.0150662
911.785	0.0150488
911.863	0.0151087
911.942	0.0150742
912.020	0.0150052
912.098	0.0150092
912.176	0.0150403
912.254	0.0151442
912.332	0.0150880
912.410	0.0149834
912.488	0.0149668
912.567	0.0149499
912.645	0.0149263
912.723	0.0148992
912.801	0.0149445
912.879	0.0148766
912.957	0.0148936
913.035	0.0149880
913.113	0.0149641
913.192	0.0149306
913.270	0.0149294
913.348	0.0148280
913.426	0.0148396
913.504	0.0149946
913.582	0.0148962
913.660	0.0148486
913.738	0.0147457
913.817	0.0149425
913.895	0.0150629
913.973	0.0147749
914.051	0.0149255
914.129	0.0148692
914.207	0.0147990
914.285	0.0149088
914.363	0.0148492
914.442	0.0147424
914.520	0.0148949
914.598	0.0148263
914.676	0.0148870
914.754	0.0148193
914.832	0.0147412
914.910	0.0147638
914.988	0.0148183
915.067	0.0148756
915.145	0.0148602
915.223	0.0148987
915.301	0.0147528
915.379	0.0147981
915.457	0.0148872
915.535	0.0148130
915.613	0.0148081
915.692	0.0146803
915.770	0.0146848
915.848	0.0147816
915.926	0.0149014
916.004	0.0149405
916.082	0.0146941
916.160	0.0147273
916.238	0.0147777
916.317	0.0147427
916.395	0.0147941
916.473	0.0148119
916.551	0.0147991
916.629	0.0146508
916.707	0.0147840
916.785	0.0149290
916.863	0.0147066
916.942	0.0147437
917.020	0.0148856
917.098	0.0147910
917.176	0.0148421
917.254	0.0148184
917.332	0.0148402
917.410	0.0149660
917.488	0.0149223
917.567	0.0148380
917.645	0.0148874
917.723	0.0149049
917.801	0.0148040
917.879	0.0147903
917.957	0.0149124
918.035	0.0147646
918.113	0.0149179
918.192	0.0148402
918.270	0.0147643
918.348	0.0149097
918.426	0.0148988
918.504	0.0148473
918.582	0.0148141
918.660	0.0147822
918.738	0.0149657
918.817	0.0149647
918.895	0.0148444
918.973	0.0148871
919.051	0.0148747
919.129	0.0150013
919.207	0.0149264
919.285	0.0149165
919.363	0.0150404
919.442	0.0148188
919.520	0.0149643
919.598	0.0148666
919.676	0.0149511
919.754	0.0149638
919.832	0.0149416
919.910	0.0148952
