05/28/2022	14:31:32	Ver.	4.1	UNKNOWN
Optical Delay	599.988409	Delta X		0.078125	Sweeps	1	Scan Rate	0/0
Coordinates	Axis 1	NaN	Axis 2	NaN	Axis 3	NaN	Axis 4	NaN	Axis 5	NaN	Axis 6	0.000000
TX Power	0.000000	RX Power	0.000000

599.988	0.0145008
600.067	0.0143913
600.145	0.0145130
600.223	0.0144864
600.301	0.0144890
600.379	0.0146346
600.457	0.0146449
600.535	0.0144479
600.613	0.0144147
600.692	0.0145340
600.770	0.0145281
600.848	0.0145043
600.926	0.0144655
601.004	0.0145583
601.082	0.0144372
601.160	0.0145177
601.238	0.0144831
601.317	0.0145092
601.395	0.0145628
601.473	0.0145222
601.551	0.0144887
601.629	0.0144099
601.707	0.0144579
601.785	0.0144959
601.863	0.0144387
601.942	0.0143835
602.020	0.0143497
602.098	0.0143713
602.176	0.0144089
602.254	0.0143625
602.332	0.0144824
602.410	0.0145200
602.488	0.0142838
602.567	0.0143102
602.645	0.0145485
602.723	0.0144235
602.801	0.0144959
602.879	0.0142718
602.957	0.0143552
603.035	0.0145389
603.113	0.0143273
603.192	0.0144168
603.270	0.0143712
603.348	0.0144355
603.426	0.0143844
603.504	0.0143203
603.582	0.0144872
603.660	0.0143962
603.738	0.0143823
603.817	0.0143337
603.895	0.0143213
603.973	0.0144378
604.051	0.0145358
604.129	0.0145407
604.207	0.0144455
604.285	0.0145214
604.363	0.0143571
604.442	0.0145820
604.520	0.0144245
604.598	0.0146581
604.676	0.0146796
604.754	0.0145880
604.832	0.0145226
604.910	0.0144713
604.988	0.0144065
605.067	0.0145641
605.145	0.0145285
605.223	0.0146194
605.301	0.0145470
605.379	0.0144467
605.457	0.0145729
605.535	0.0145103
605.613	0.0145647
605.692	0.0144038
605.770	0.0145095
605.848	0.0144369
605.926	0.0145953
606.004	0.0145708
606.082	0.0145320
606.160	0.0145750
606.238	0.0145612
606.317	0.0144755
606.395	0.0146268
606.473	0.0146848
606.551	0.0146150
606.629	0.0144952
606.707	0.0145942
606.785	0.0145246
606.863	0.0145249
606.942	0.0145038
607.020	0.0146057
607.098	0.0145687
607.176	0.0145004
607.254	0.0145713
607.332	0.0145409
607.410	0.0144784
607.488	0.0146193
607.567	0.0145009
607.645	0.0144414
607.723	0.0146151
607.801	0.0144770
607.879	0.0143868
607.957	0.0146106
608.035	0.0145188
608.113	0.0145618
608.192	0.0145934
608.270	0.0143496
608.348	0.0145242
608.426	0.0145780
608.504	0.0144266
608.582	0.0144289
608.660	0.0143576
608.738	0.0145327
608.817	0.0144988
608.895	0.0144881
608.973	0.0145358
609.051	0.0145943
609.129	0.0144489
609.207	0.0142999
609.285	0.0144313
609.363	0.0145154
609.442	0.0144836
609.520	0.0145103
609.598	0.0143345
609.676	0.0145038
609.754	0.0143437
609.832	0.0145004
609.910	0.0145113
609.988	0.0143728
610.067	0.0143259
610.145	0.0144096
610.223	0.0143589
610.301	0.0145588
610.379	0.0144173
610.457	0.0144563
610.535	0.0145747
610.613	0.0144019
610.692	0.0144135
610.770	0.0144131
610.848	0.0144921
610.926	0.0145132
611.004	0.0143736
611.082	0.0144576
611.160	0.0144596
611.238	0.0143416
611.317	0.0143040
611.395	0.0143996
611.473	0.0144492
611.551	0.0145306
611.629	0.0145309
611.707	0.0144560
611.785	0.0144303
611.863	0.0143949
611.942	0.0145068
612.020	0.0145445
612.098	0.0144083
612.176	0.0145298
612.254	0.0143854
612.332	0.0143489
612.410	0.0144696
612.488	0.0144884
612.567	0.0146331
612.645	0.0145481
612.723	0.0143726
612.801	0.0145270
612.879	0.0143103
612.957	0.0146295
613.035	0.0144539
613.113	0.0144534
613.192	0.0145453
613.270	0.0145346
613.348	0.0145545
613.426	0.0144130
613.504	0.0145341
613.582	0.0144478
613.660	0.0145040
613.738	0.0145149
613.817	0.0144906
613.895	0.0144899
613.973	0.0147128
614.051	0.0144831
614.129	0.0145528
614.207	0.0146248
614.285	0.0144604
614.363	0.0144685
614.442	0.0144897
614.520	0.0144572
614.598	0.0145226
614.676	0.0145586
614.754	0.0145387
614.832	0.0144630
614.910	0.0144514
614.988	0.0146203
615.067	0.0144978
615.145	0.0145039
615.223	0.0144369
615.301	0.0145496
615.379	0.0144193
615.457	0.0143389
615.535	0.0145219
615.613	0.0144778
615.692	0.0143694
615.770	0.0143971
615.848	0.0144420
615.926	0.0144876
616.004	0.0145798
616.082	0.0145039
616.160	0.0144005
616.238	0.0144703
616.317	0.0144508
616.395	0.0142612
616.473	0.0144691
616.551	0.0143762
616.629	0.0144031
616.707	0.0144573
616.785	0.0144464
616.863	0.0142692
616.942	0.0144067
617.020	0.0143038
617.098	0.0143780
617.176	0.0143035
617.254	0.0143925
617.332	0.0143269
617.410	0.0144006
617.488	0.0143449
617.567	0.0144474
617.645	0.0143127
617.723	0.0143587
617.801	0.0143867
617.879	0.0144358
617.957	0.0144070
618.035	0.0143702
618.113	0.0144363
618.192	0.0143473
618.270	0.0142638
618.348	0.0142786
618.426	0.0143056
618.504	0.0144747
618.582	0.0144737
618.660	0.0143710
618.738	0.0143032
618.817	0.0144141
618.895	0.0144596
618.973	0.0143225
619.051	0.0143058
619.129	0.0144610
619.207	0.0144362
619.285	0.0143385
619.363	0.0144010
619.442	0.0144685
619.520	0.0144119
619.598	0.0143766
619.676	0.0142490
619.754	0.0143466
619.832	0.0143145
619.910	0.0143277
619.988	0.0143420
620.067	0.0142345
620.145	0.0142993
620.223	0.0143100
620.301	0.0143150
620.379	0.0143056
620.457	0.0143159
620.535	0.0143346
620.613	0.0142749
620.692	0.0142532
620.770	0.0142966
620.848	0.0142333
620.926	0.0142981
621.004	0.0143254
621.082	0.0142019
621.160	0.0141919
621.238	0.0141842
621.317	0.0142462
621.395	0.0142793
621.473	0.0143286
621.551	0.0142957
621.629	0.0144360
621.707	0.0143411
621.785	0.0142750
621.863	0.0144070
621.942	0.0143925
622.020	0.0143200
622.098	0.0143566
622.176	0.0143396
622.254	0.0143612
622.332	0.0142746
622.410	0.0144302
622.488	0.0145042
622.567	0.0143476
622.645	0.0143022
622.723	0.0144221
622.801	0.0143705
622.879	0.0143607
622.957	0.0143334
623.035	0.0144894
623.113	0.0144845
623.192	0.0144099
623.270	0.0144167
623.348	0.0143062
623.426	0.0144089
623.504	0.0143483
623.582	0.0143602
623.660	0.0142565
623.738	0.0143810
623.817	0.0143058
623.895	0.0141151
623.973	0.0142938
624.051	0.0142314
624.129	0.0142855
624.207	0.0142647
624.285	0.0142593
624.363	0.0142996
624.442	0.0142727
624.520	0.0143902
624.598	0.0144385
624.676	0.0144701
624.754	0.0143494
624.832	0.0142513
624.910	0.0143250
624.988	0.0145979
625.067	0.0145119
625.145	0.0144588
625.223	0.0144077
625.301	0.0144518
625.379	0.0144914
625.457	0.0144486
625.535	0.0146439
625.613	0.0144984
625.692	0.0145324
625.770	0.0144764
625.848	0.0144810
625.926	0.0145763
626.004	0.0146072
626.082	0.0146152
626.160	0.0145461
626.238	0.0145948
626.317	0.0145924
626.395	0.0144301
626.473	0.0144965
626.551	0.0144386
626.629	0.0144430
626.707	0.0147089
626.785	0.0143649
626.863	0.0143774
626.942	0.0144712
627.020	0.0142959
627.098	0.0143149
627.176	0.0142654
627.254	0.0143394
627.332	0.0144120
627.410	0.0143098
627.488	0.0143501
627.567	0.0143825
627.645	0.0143039
627.723	0.0142987
627.801	0.0144196
627.879	0.0142640
627.957	0.0143869
628.035	0.0143462
628.113	0.0144239
628.192	0.0143564
628.270	0.0144669
628.348	0.0144829
628.426	0.0143821
628.504	0.0145161
628.582	0.0144104
628.660	0.0143937
628.738	0.0145043
628.817	0.0144955
628.895	0.0144952
628.973	0.0144933
629.051	0.0144884
629.129	0.0146335
629.207	0.0146187
629.285	0.0144631
629.363	0.0144096
629.442	0.0144791
629.520	0.0144302
629.598	0.0143062
629.676	0.0144489
629.754	0.0144198
629.832	0.0143846
629.910	0.0144572
629.988	0.0144569
630.067	0.0143124
630.145	0.0145291
630.223	0.0145248
630.301	0.0144952
630.379	0.0145264
630.457	0.0145744
630.535	0.0145925
630.613	0.0147600
630.692	0.0145306
630.770	0.0146479
630.848	0.0146924
630.926	0.0147060
631.004	0.0147226
631.082	0.0146403
631.160	0.0146952
631.238	0.0147565
631.317	0.0148537
631.395	0.0148013
631.473	0.0146868
631.551	0.0147840
631.629	0.0146986
631.707	0.0146590
631.785	0.0145693
631.863	0.0144759
631.942	0.0144944
632.020	0.0145596
632.098	0.0144472
632.176	0.0142345
632.254	0.0143199
632.332	0.0142821
632.410	0.0141204
632.488	0.0141277
632.567	0.0141203
632.645	0.0139679
632.723	0.0140702
632.801	0.0140749
632.879	0.0140657
632.957	0.0140563
633.035	0.0141326
633.113	0.0141811
633.192	0.0142640
633.270	0.0144429
633.348	0.0143420
633.426	0.0145728
633.504	0.0144991
633.582	0.0146339
633.660	0.0145586
633.738	0.0145683
633.817	0.0146921
633.895	0.0146953
633.973	0.0147079
634.051	0.0146107
634.129	0.0145996
634.207	0.0147939
634.285	0.0146652
634.363	0.0146503
634.442	0.0146346
634.520	0.0147185
634.598	0.0147192
634.676	0.0147285
634.754	0.0145946
634.832	0.0146374
634.910	0.0145327
634.988	0.0145375
635.067	0.0145554
635.145	0.0146031
635.223	0.0145267
635.301	0.0147141
635.379	0.0145096
635.457	0.0145628
635.535	0.0145219
635.613	0.0146719
635.692	0.0145358
635.770	0.0145876
635.848	0.0145136
635.926	0.0146497
636.004	0.0146657
636.082	0.0147063
636.160	0.0146245
636.238	0.0144425
636.317	0.0145293
636.395	0.0145737
636.473	0.0144193
636.551	0.0144627
636.629	0.0144424
636.707	0.0144364
636.785	0.0144807
636.863	0.0144363
636.942	0.0142926
637.020	0.0143752
637.098	0.0142877
637.176	0.0142770
637.254	0.0141458
637.332	0.0141863
637.410	0.0142154
637.488	0.0142280
637.567	0.0142318
637.645	0.0142546
637.723	0.0141764
637.801	0.0142098
637.879	0.0142214
637.957	0.0143263
638.035	0.0142883
638.113	0.0143693
638.192	0.0143390
638.270	0.0144894
638.348	0.0144134
638.426	0.0143929
638.504	0.0144866
638.582	0.0144492
638.660	0.0145226
638.738	0.0145362
638.817	0.0145260
638.895	0.0145111
638.973	0.0147394
639.051	0.0146259
639.129	0.0147209
639.207	0.0146758
639.285	0.0146487
639.363	0.0147251
639.442	0.0147168
639.520	0.0146024
639.598	0.0146909
639.676	0.0146871
639.754	0.0146220
639.832	0.0146496
639.910	0.0146282
639.988	0.0144917
640.067	0.0144919
640.145	0.0144794
640.223	0.0144044
640.301	0.0144743
640.379	0.0143709
640.457	0.0143597
640.535	0.0144090
640.613	0.0142320
640.692	0.0143296
640.770	0.0144758
640.848	0.0143671
640.926	0.0143465
641.004	0.0143186
641.082	0.0143996
641.160	0.0142573
641.238	0.0143948
641.317	0.0144885
641.395	0.0144015
641.473	0.0144429
641.551	0.0144408
641.629	0.0143423
641.707	0.0143732
641.785	0.0142817
641.863	0.0144003
641.942	0.0143070
642.020	0.0142597
642.098	0.0142381
642.176	0.0142707
642.254	0.0142970
642.332	0.0144081
642.410	0.0142878
642.488	0.0142793
642.567	0.0144425
642.645	0.0144019
642.723	0.0144225
642.801	0.0144490
642.879	0.0144709
642.957	0.0144604
643.035	0.0144689
643.113	0.0144998
643.192	0.0143817
643.270	0.0143674
643.348	0.0144292
643.426	0.0144456
643.504	0.0144096
643.582	0.0143221
643.660	0.0144155
643.738	0.0143665
643.817	0.0142373
643.895	0.0143716
643.973	0.0143822
644.051	0.0144746
644.129	0.0143707
644.207	0.0144443
644.285	0.0144562
644.363	0.0144301
644.442	0.0144619
644.520	0.0143719
644.598	0.0145763
644.676	0.0145177
644.754	0.0146082
644.832	0.0147567
644.910	0.0146687
644.988	0.0147745
645.067	0.0147394
645.145	0.0145800
645.223	0.0145419
645.301	0.0147246
645.379	0.0146255
645.457	0.0145261
645.535	0.0145215
645.613	0.0145357
645.692	0.0144353
645.770	0.0145193
645.848	0.0143852
645.926	0.0142928
646.004	0.0142291
646.082	0.0142735
646.160	0.0143382
646.238	0.0142708
646.317	0.0141551
646.395	0.0142415
646.473	0.0141882
646.551	0.0143226
646.629	0.0143530
646.707	0.0142318
646.785	0.0143176
646.863	0.0141956
646.942	0.0143127
647.020	0.0144140
647.098	0.0142649
647.176	0.0143930
647.254	0.0145802
647.332	0.0146445
647.410	0.0145880
647.488	0.0144738
647.567	0.0145689
647.645	0.0145671
647.723	0.0146783
647.801	0.0147775
647.879	0.0147624
647.957	0.0146588
648.035	0.0146693
648.113	0.0147244
648.192	0.0146514
648.270	0.0147672
648.348	0.0148136
648.426	0.0147447
648.504	0.0146868
648.582	0.0147837
648.660	0.0147181
648.738	0.0148266
648.817	0.0145396
648.895	0.0144965
648.973	0.0146449
649.051	0.0145997
649.129	0.0146207
649.207	0.0146072
649.285	0.0145497
649.363	0.0145225
649.442	0.0145081
649.520	0.0145719
649.598	0.0144896
649.676	0.0143418
649.754	0.0143304
649.832	0.0142987
649.910	0.0143075
649.988	0.0143321
650.067	0.0141964
650.145	0.0141746
650.223	0.0141777
650.301	0.0142153
650.379	0.0142715
650.457	0.0142850
650.535	0.0142685
650.613	0.0140850
650.692	0.0141538
650.770	0.0141206
650.848	0.0141920
650.926	0.0141856
651.004	0.0142844
651.082	0.0143552
651.160	0.0142426
651.238	0.0142374
651.317	0.0142647
651.395	0.0144637
651.473	0.0145014
651.551	0.0144716
651.629	0.0144421
651.707	0.0144288
651.785	0.0145570
651.863	0.0146307
651.942	0.0145056
652.020	0.0145827
652.098	0.0147217
652.176	0.0146093
652.254	0.0146468
652.332	0.0146514
652.410	0.0147019
652.488	0.0146545
652.567	0.0145100
652.645	0.0145892
652.723	0.0144732
652.801	0.0143127
652.879	0.0144795
652.957	0.0145084
653.035	0.0143554
653.113	0.0144059
653.192	0.0144044
653.270	0.0144545
653.348	0.0143940
653.426	0.0143299
653.504	0.0143503
653.582	0.0143931
653.660	0.0143578
653.738	0.0143722
653.817	0.0142452
653.895	0.0142076
653.973	0.0142788
654.051	0.0141557
654.129	0.0141274
654.207	0.0142875
654.285	0.0142680
654.363	0.0141711
654.442	0.0142036
654.520	0.0141975
654.598	0.0142078
654.676	0.0141332
654.754	0.0142237
654.832	0.0144033
654.910	0.0143674
654.988	0.0141637
655.067	0.0142638
655.145	0.0143104
655.223	0.0142982
655.301	0.0143570
655.379	0.0142776
655.457	0.0141973
655.535	0.0142939
655.613	0.0143947
655.692	0.0143698
655.770	0.0143500
655.848	0.0143684
655.926	0.0143803
656.004	0.0144445
656.082	0.0144862
656.160	0.0144930
656.238	0.0146009
656.317	0.0146343
656.395	0.0145518
656.473	0.0146674
656.551	0.0147155
656.629	0.0147290
656.707	0.0148063
656.785	0.0147843
656.863	0.0146048
656.942	0.0147789
657.020	0.0148617
657.098	0.0148324
657.176	0.0149230
657.254	0.0148708
657.332	0.0148658
657.410	0.0147832
657.488	0.0145963
657.567	0.0148544
657.645	0.0147855
657.723	0.0146556
657.801	0.0148403
657.879	0.0148249
657.957	0.0147555
658.035	0.0147839
658.113	0.0146378
658.192	0.0147386
658.270	0.0148531
658.348	0.0147102
658.426	0.0147426
658.504	0.0146352
658.582	0.0146255
658.660	0.0146222
658.738	0.0146523
658.817	0.0146143
658.895	0.0146680
658.973	0.0143822
659.051	0.0145572
659.129	0.0145302
659.207	0.0143690
659.285	0.0143449
659.363	0.0143453
659.442	0.0142068
659.520	0.0142397
659.598	0.0142993
659.676	0.0142748
659.754	0.0142075
659.832	0.0142351
659.910	0.0142157
659.988	0.0141669
660.067	0.0141914
660.145	0.0140977
660.223	0.0141542
660.301	0.0141548
660.379	0.0139965
660.457	0.0140214
660.535	0.0139189
660.613	0.0140427
660.692	0.0139372
660.770	0.0139195
660.848	0.0139117
660.926	0.0139610
661.004	0.0139843
661.082	0.0139996
661.160	0.0142116
661.238	0.0142036
661.317	0.0142265
661.395	0.0141914
661.473	0.0143362
661.551	0.0142758
661.629	0.0144511
661.707	0.0145770
661.785	0.0145563
661.863	0.0144463
661.942	0.0146710
662.020	0.0146271
662.098	0.0147734
662.176	0.0146695
662.254	0.0147166
662.332	0.0148123
662.410	0.0147646
662.488	0.0147474
662.567	0.0146934
662.645	0.0148588
662.723	0.0147356
662.801	0.0147734
662.879	0.0147289
662.957	0.0147652
663.035	0.0147849
663.113	0.0148278
663.192	0.0148393
663.270	0.0147425
663.348	0.0147797
663.426	0.0148801
663.504	0.0149179
663.582	0.0147984
663.660	0.0147238
663.738	0.0146828
663.817	0.0146020
663.895	0.0146204
663.973	0.0146011
664.051	0.0145595
664.129	0.0145446
664.207	0.0142959
664.285	0.0142889
664.363	0.0142039
664.442	0.0141450
664.520	0.0140327
664.598	0.0141174
664.676	0.0141171
664.754	0.0140113
664.832	0.0140915
664.910	0.0139346
664.988	0.0137517
665.067	0.0139133
665.145	0.0139998
665.223	0.0139188
665.301	0.0139365
665.379	0.0142657
665.457	0.0141325
665.535	0.0141889
665.613	0.0143407
665.692	0.0144351
665.770	0.0145734
665.848	0.0146832
665.926	0.0146648
666.004	0.0148788
666.082	0.0150378
666.160	0.0149764
666.238	0.0150513
666.317	0.0150632
666.395	0.0150198
666.473	0.0150457
666.551	0.0151501
666.629	0.0149358
666.707	0.0150565
666.785	0.0151000
666.863	0.0148898
666.942	0.0149940
667.020	0.0148855
667.098	0.0149170
667.176	0.0148042
667.254	0.0149475
667.332	0.0147588
667.410	0.0146306
667.488	0.0147784
667.567	0.0146756
667.645	0.0147037
667.723	0.0143945
667.801	0.0145800
667.879	0.0143551
667.957	0.0142313
668.035	0.0141975
668.113	0.0141917
668.192	0.0140125
668.270	0.0140472
668.348	0.0139945
668.426	0.0140395
668.504	0.0139358
668.582	0.0138294
668.660	0.0139620
668.738	0.0139504
668.817	0.0138403
668.895	0.0139989
668.973	0.0139690
669.051	0.0140865
669.129	0.0142002
669.207	0.0143629
669.285	0.0141956
669.363	0.0143649
669.442	0.0144794
669.520	0.0145586
669.598	0.0146430
669.676	0.0145491
669.754	0.0146779
669.832	0.0148561
669.910	0.0147964
669.988	0.0147607
670.067	0.0148401
670.145	0.0149490
670.223	0.0148866
670.301	0.0148628
670.379	0.0147341
670.457	0.0146318
670.535	0.0145583
670.613	0.0144260
670.692	0.0144038
670.770	0.0143368
670.848	0.0142841
670.926	0.0141058
671.004	0.0140084
671.082	0.0140244
671.160	0.0140549
671.238	0.0141237
671.317	0.0141233
671.395	0.0140343
671.473	0.0140129
671.551	0.0141535
671.629	0.0142691
671.707	0.0143142
671.785	0.0144127
671.863	0.0144748
671.942	0.0145106
672.020	0.0147116
672.098	0.0147301
672.176	0.0146243
672.254	0.0148486
672.332	0.0148563
672.410	0.0147733
672.488	0.0146515
672.567	0.0147053
672.645	0.0148476
672.723	0.0145920
672.801	0.0146618
672.879	0.0144939
672.957	0.0145167
673.035	0.0145316
673.113	0.0143491
673.192	0.0142295
673.270	0.0141552
673.348	0.0141268
673.426	0.0139187
673.504	0.0139097
673.582	0.0139659
673.660	0.0138925
673.738	0.0139851
673.817	0.0140505
673.895	0.0139200
673.973	0.0139732
674.051	0.0140302
674.129	0.0141552
674.207	0.0139939
674.285	0.0141071
674.363	0.0140025
674.442	0.0142279
674.520	0.0140160
674.598	0.0141801
674.676	0.0142449
674.754	0.0144342
674.832	0.0143727
674.910	0.0143359
674.988	0.0146155
675.067	0.0146579
675.145	0.0146008
675.223	0.0147430
675.301	0.0147830
675.379	0.0146177
675.457	0.0148754
675.535	0.0148805
675.613	0.0148988
675.692	0.0150333
675.770	0.0150049
675.848	0.0149165
675.926	0.0149886
676.004	0.0149139
676.082	0.0148077
676.160	0.0147733
676.238	0.0149363
676.317	0.0148079
676.395	0.0147945
676.473	0.0147324
676.551	0.0146963
676.629	0.0145389
676.707	0.0145667
676.785	0.0143367
676.863	0.0144432
676.942	0.0143681
677.020	0.0141624
677.098	0.0142770
677.176	0.0142376
677.254	0.0141908
677.332	0.0141060
677.410	0.0141995
677.488	0.0142715
677.567	0.0141295
677.645	0.0141573
677.723	0.0141676
677.801	0.0141728
677.879	0.0141213
677.957	0.0141619
678.035	0.0139977
678.113	0.0141072
678.192	0.0141389
678.270	0.0139837
678.348	0.0141035
678.426	0.0142101
678.504	0.0141693
678.582	0.0141277
678.660	0.0143862
678.738	0.0143176
678.817	0.0144551
678.895	0.0145036
678.973	0.0146117
679.051	0.0146846
679.129	0.0146859
679.207	0.0148531
679.285	0.0149371
679.363	0.0148184
679.442	0.0148920
679.520	0.0148121
679.598	0.0149676
679.676	0.0148674
679.754	0.0149424
679.832	0.0149726
679.910	0.0149145
679.988	0.0148957
680.067	0.0150576
680.145	0.0152529
680.223	0.0150118
680.301	0.0149796
680.379	0.0150388
680.457	0.0152094
680.535	0.0150800
680.613	0.0150934
680.692	0.0150128
680.770	0.0149373
680.848	0.0149155
680.926	0.0149723
681.004	0.0147411
681.082	0.0148005
681.160	0.0147514
681.238	0.0146285
681.317	0.0144473
681.395	0.0143211
681.473	0.0143157
681.551	0.0142884
681.629	0.0141132
681.707	0.0140906
681.785	0.0140123
681.863	0.0140137
681.942	0.0139279
682.020	0.0136993
682.098	0.0137587
682.176	0.0137984
682.254	0.0137001
682.332	0.0137773
682.410	0.0137257
682.488	0.0137743
682.567	0.0137837
682.645	0.0139235
682.723	0.0139227
682.801	0.0139892
682.879	0.0142044
682.957	0.0143221
683.035	0.0140918
683.113	0.0142577
683.192	0.0143825
683.270	0.0147001
683.348	0.0145581
683.426	0.0145460
683.504	0.0146422
683.582	0.0149031
683.660	0.0149663
683.738	0.0150359
683.817	0.0150035
683.895	0.0150390
683.973	0.0151479
684.051	0.0150822
684.129	0.0150488
684.207	0.0152390
684.285	0.0152458
684.363	0.0152686
684.442	0.0152177
684.520	0.0150525
684.598	0.0150026
684.676	0.0150831
684.754	0.0149606
684.832	0.0145869
684.910	0.0147082
684.988	0.0144305
685.067	0.0143833
685.145	0.0142403
685.223	0.0142561
685.301	0.0141132
685.379	0.0139785
685.457	0.0139025
685.535	0.0138952
685.613	0.0137971
685.692	0.0136762
685.770	0.0138147
685.848	0.0136916
685.926	0.0137283
686.004	0.0137719
686.082	0.0137808
686.160	0.0137794
686.238	0.0137993
686.317	0.0138057
686.395	0.0139348
686.473	0.0139565
686.551	0.0138654
686.629	0.0140788
686.707	0.0140400
686.785	0.0139820
686.863	0.0142479
686.942	0.0141164
687.020	0.0141162
687.098	0.0143297
687.176	0.0143305
687.254	0.0143552
687.332	0.0143659
687.410	0.0143419
687.488	0.0144479
687.567	0.0143208
687.645	0.0146086
687.723	0.0147200
687.801	0.0148567
687.879	0.0148202
687.957	0.0148923
688.035	0.0148713
688.113	0.0150344
688.192	0.0151396
688.270	0.0151525
688.348	0.0151795
688.426	0.0150893
688.504	0.0150996
688.582	0.0152589
688.660	0.0152432
688.738	0.0150595
688.817	0.0149860
688.895	0.0148672
688.973	0.0148550
689.051	0.0147919
689.129	0.0147805
689.207	0.0146170
689.285	0.0146078
689.363	0.0146144
689.442	0.0144208
689.520	0.0144284
689.598	0.0143825
689.676	0.0143037
689.754	0.0144195
689.832	0.0143612
689.910	0.0141570
689.988	0.0142158
690.067	0.0141229
690.145	0.0142171
690.223	0.0140330
690.301	0.0141496
690.379	0.0141513
690.457	0.0141866
690.535	0.0139241
690.613	0.0140512
690.692	0.0140855
690.770	0.0140769
690.848	0.0139920
690.926	0.0139619
691.004	0.0139460
691.082	0.0139996
691.160	0.0139923
691.238	0.0139656
691.317	0.0140185
691.395	0.0140217
691.473	0.0139565
691.551	0.0139215
691.629	0.0139657
691.707	0.0140523
691.785	0.0140475
691.863	0.0140233
691.942	0.0140093
692.020	0.0140980
692.098	0.0142500
692.176	0.0142458
692.254	0.0144129
692.332	0.0143345
692.410	0.0145131
692.488	0.0146888
692.567	0.0147460
692.645	0.0148925
692.723	0.0150775
692.801	0.0149982
692.879	0.0150450
692.957	0.0152051
693.035	0.0152033
693.113	0.0153426
693.192	0.0153557
693.270	0.0153903
693.348	0.0153101
693.426	0.0153312
693.504	0.0154107
693.582	0.0154697
693.660	0.0152721
693.738	0.0152060
693.817	0.0152013
693.895	0.0151141
693.973	0.0149660
694.051	0.0149353
694.129	0.0148198
694.207	0.0147900
694.285	0.0146230
694.363	0.0144530
694.442	0.0144409
694.520	0.0142445
694.598	0.0142411
694.676	0.0141366
694.754	0.0141139
694.832	0.0141240
694.910	0.0138999
694.988	0.0138286
695.067	0.0138947
695.145	0.0137969
695.223	0.0137859
695.301	0.0139096
695.379	0.0138537
695.457	0.0136351
695.535	0.0137082
695.613	0.0136734
695.692	0.0136507
695.770	0.0138489
695.848	0.0138550
695.926	0.0139066
696.004	0.0138786
696.082	0.0139411
696.160	0.0139242
696.238	0.0139386
696.317	0.0139949
696.395	0.0140089
696.473	0.0141686
696.551	0.0141355
696.629	0.0142231
696.707	0.0141591
696.785	0.0142200
696.863	0.0143411
696.942	0.0143700
697.020	0.0143518
697.098	0.0143805
697.176	0.0145950
697.254	0.0145757
697.332	0.0145512
697.410	0.0146338
697.488	0.0146871
697.567	0.0148817
697.645	0.0148557
697.723	0.0148069
697.801	0.0148239
697.879	0.0150471
697.957	0.0149138
698.035	0.0149819
698.113	0.0151428
698.192	0.0150755
698.270	0.0151796
698.348	0.0152296
698.426	0.0151394
698.504	0.0152719
698.582	0.0151817
698.660	0.0150114
698.738	0.0150795
698.817	0.0148743
698.895	0.0148052
698.973	0.0147302
699.051	0.0146212
699.129	0.0145194
699.207	0.0144046
699.285	0.0143151
699.363	0.0142588
699.442	0.0140079
699.520	0.0138679
699.598	0.0139504
699.676	0.0138184
699.754	0.0139101
699.832	0.0140141
699.910	0.0139154
699.988	0.0138007
700.067	0.0138388
700.145	0.0138090
700.223	0.0136662
700.301	0.0139645
700.379	0.0138577
700.457	0.0138606
700.535	0.0140370
700.613	0.0140038
700.692	0.0140415
700.770	0.0141664
700.848	0.0141491
700.926	0.0141442
701.004	0.0142484
701.082	0.0141032
701.160	0.0142699
701.238	0.0143478
701.317	0.0142518
701.395	0.0142162
701.473	0.0144183
701.551	0.0144292
701.629	0.0143476
701.707	0.0142635
701.785	0.0144756
701.863	0.0145425
701.942	0.0147315
702.020	0.0146802
702.098	0.0145876
702.176	0.0148235
702.254	0.0148507
702.332	0.0147884
702.410	0.0148310
702.488	0.0149055
702.567	0.0149345
702.645	0.0148517
702.723	0.0151063
702.801	0.0150699
702.879	0.0148748
702.957	0.0150626
703.035	0.0149765
703.113	0.0149119
703.192	0.0147555
703.270	0.0148834
703.348	0.0149921
703.426	0.0147677
703.504	0.0148813
703.582	0.0146825
703.660	0.0146574
703.738	0.0147665
703.817	0.0145481
703.895	0.0146770
703.973	0.0145277
704.051	0.0144358
704.129	0.0144643
704.207	0.0145306
704.285	0.0144666
704.363	0.0143084
704.442	0.0142989
704.520	0.0142135
704.598	0.0143238
704.676	0.0143747
704.754	0.0143172
704.832	0.0142442
704.910	0.0141385
704.988	0.0142429
705.067	0.0142186
705.145	0.0143026
705.223	0.0141197
705.301	0.0140681
705.379	0.0141242
705.457	0.0141023
705.535	0.0140583
705.613	0.0139747
705.692	0.0140079
705.770	0.0140436
705.848	0.0139895
705.926	0.0140686
706.004	0.0140888
706.082	0.0141145
706.160	0.0141090
706.238	0.0141809
706.317	0.0144149
706.395	0.0143816
706.473	0.0144482
706.551	0.0144240
706.629	0.0145590
706.707	0.0146654
706.785	0.0147197
706.863	0.0146876
706.942	0.0148434
707.020	0.0148453
707.098	0.0148516
707.176	0.0148833
707.254	0.0148170
707.332	0.0147736
707.410	0.0149332
707.488	0.0148503
707.567	0.0148385
707.645	0.0149227
707.723	0.0147672
707.801	0.0147025
707.879	0.0146758
707.957	0.0145971
708.035	0.0145924
708.113	0.0144163
708.192	0.0145518
708.270	0.0145490
708.348	0.0145672
708.426	0.0144363
708.504	0.0145446
708.582	0.0145046
708.660	0.0146306
708.738	0.0146938
708.817	0.0145341
708.895	0.0146076
708.973	0.0144436
709.051	0.0146266
709.129	0.0146080
709.207	0.0146107
709.285	0.0144711
709.363	0.0145271
709.442	0.0144187
709.520	0.0143513
709.598	0.0145865
709.676	0.0145188
709.754	0.0144724
709.832	0.0145049
709.910	0.0144209
709.988	0.0144776
710.067	0.0144313
710.145	0.0143713
710.223	0.0144658
710.301	0.0143173
710.379	0.0141927
710.457	0.0142748
710.535	0.0141875
710.613	0.0140796
710.692	0.0140213
710.770	0.0141434
710.848	0.0140634
710.926	0.0140054
711.004	0.0140662
711.082	0.0140807
711.160	0.0140887
711.238	0.0140960
711.317	0.0140987
711.395	0.0141451
711.473	0.0142376
711.551	0.0143211
711.629	0.0143121
711.707	0.0143501
711.785	0.0143894
711.863	0.0144743
711.942	0.0144750
712.020	0.0145035
712.098	0.0145632
712.176	0.0146894
712.254	0.0146723
712.332	0.0147221
712.410	0.0146710
712.488	0.0144836
712.567	0.0145477
712.645	0.0145023
712.723	0.0144891
712.801	0.0143649
712.879	0.0143943
712.957	0.0143484
713.035	0.0142395
713.113	0.0143408
713.192	0.0144106
713.270	0.0144431
713.348	0.0144172
713.426	0.0144727
713.504	0.0144543
713.582	0.0143649
713.660	0.0144481
713.738	0.0144775
713.817	0.0145456
713.895	0.0145531
713.973	0.0145612
714.051	0.0145217
714.129	0.0147941
714.207	0.0147700
714.285	0.0148286
714.363	0.0146577
714.442	0.0146248
714.520	0.0147779
714.598	0.0147556
714.676	0.0146477
714.754	0.0145146
714.832	0.0145464
714.910	0.0145174
714.988	0.0144320
715.067	0.0143772
715.145	0.0144849
715.223	0.0142408
715.301	0.0142094
715.379	0.0141330
715.457	0.0141698
715.535	0.0141317
715.613	0.0141159
715.692	0.0139864
715.770	0.0141826
715.848	0.0140891
715.926	0.0142408
716.004	0.0140898
716.082	0.0141781
716.160	0.0142242
716.238	0.0142593
716.317	0.0143264
716.395	0.0143232
716.473	0.0143707
716.551	0.0144154
716.629	0.0144077
716.707	0.0142730
716.785	0.0143166
716.863	0.0145451
716.942	0.0145964
717.020	0.0145048
717.098	0.0144802
717.176	0.0145633
717.254	0.0144035
717.332	0.0144995
717.410	0.0143785
717.488	0.0143273
717.567	0.0144467
717.645	0.0143381
717.723	0.0143832
717.801	0.0143221
717.879	0.0142791
717.957	0.0144034
718.035	0.0143807
718.113	0.0143732
718.192	0.0142266
718.270	0.0142863
718.348	0.0142778
718.426	0.0142374
718.504	0.0144221
718.582	0.0143015
718.660	0.0143628
718.738	0.0144978
718.817	0.0144442
718.895	0.0144219
718.973	0.0145429
719.051	0.0145753
719.129	0.0147360
719.207	0.0147645
719.285	0.0146034
719.363	0.0147263
719.442	0.0147762
719.520	0.0145977
719.598	0.0147592
719.676	0.0148786
719.754	0.0147089
719.832	0.0147766
719.910	0.0147971
719.988	0.0147452
720.067	0.0147527
720.145	0.0147418
720.223	0.0146326
720.301	0.0145727
720.379	0.0145883
720.457	0.0146107
720.535	0.0146260
720.613	0.0146040
720.692	0.0146175
720.770	0.0144863
720.848	0.0144416
720.926	0.0144846
721.004	0.0143713
721.082	0.0144801
721.160	0.0145754
721.238	0.0144983
721.317	0.0146748
721.395	0.0145409
721.473	0.0143670
721.551	0.0144270
721.629	0.0145197
721.707	0.0146786
721.785	0.0144111
721.863	0.0144939
721.942	0.0143457
722.020	0.0145654
722.098	0.0144073
722.176	0.0142555
722.254	0.0142493
722.332	0.0142467
722.410	0.0142200
722.488	0.0142309
722.567	0.0142437
722.645	0.0142563
722.723	0.0143137
722.801	0.0142756
722.879	0.0142786
722.957	0.0143263
723.035	0.0142176
723.113	0.0142542
723.192	0.0141982
723.270	0.0143353
723.348	0.0144521
723.426	0.0143640
723.504	0.0145144
723.582	0.0143896
723.660	0.0145023
723.738	0.0145796
723.817	0.0144353
723.895	0.0143979
723.973	0.0145033
724.051	0.0145222
724.129	0.0145454
724.207	0.0145345
724.285	0.0145563
724.363	0.0144338
724.442	0.0145830
724.520	0.0145974
724.598	0.0144670
724.676	0.0145116
724.754	0.0144759
724.832	0.0143221
724.910	0.0144733
724.988	0.0143858
725.067	0.0144272
725.145	0.0145195
725.223	0.0143665
725.301	0.0143405
725.379	0.0143320
725.457	0.0143247
725.535	0.0143375
725.613	0.0142637
725.692	0.0144251
725.770	0.0144083
725.848	0.0142535
725.926	0.0142439
726.004	0.0143669
726.082	0.0142492
726.160	0.0142966
726.238	0.0143347
726.317	0.0142896
726.395	0.0142880
726.473	0.0141774
726.551	0.0143327
726.629	0.0144606
726.707	0.0143391
726.785	0.0143351
726.863	0.0143486
726.942	0.0142863
727.020	0.0144594
727.098	0.0145372
727.176	0.0143636
727.254	0.0143783
727.332	0.0143440
727.410	0.0145789
727.488	0.0144369
727.567	0.0143588
727.645	0.0144702
727.723	0.0142715
727.801	0.0143042
727.879	0.0144588
727.957	0.0141685
728.035	0.0143518
728.113	0.0143894
728.192	0.0143694
728.270	0.0144909
728.348	0.0143836
728.426	0.0143735
728.504	0.0143565
728.582	0.0143094
728.660	0.0143711
728.738	0.0143589
728.817	0.0144385
728.895	0.0143990
728.973	0.0143676
729.051	0.0142475
729.129	0.0144690
729.207	0.0143712
729.285	0.0143375
729.363	0.0143385
729.442	0.0144245
729.520	0.0143861
729.598	0.0144240
729.676	0.0142866
729.754	0.0143317
729.832	0.0144100
729.910	0.0144363
729.988	0.0144395
730.067	0.0143708
730.145	0.0142741
730.223	0.0143806
730.301	0.0143974
730.379	0.0142907
730.457	0.0142917
730.535	0.0143198
730.613	0.0144791
730.692	0.0143707
730.770	0.0144563
730.848	0.0144393
730.926	0.0144800
731.004	0.0145415
731.082	0.0144206
731.160	0.0144971
731.238	0.0144186
731.317	0.0144082
731.395	0.0142641
731.473	0.0144625
731.551	0.0144457
731.629	0.0143671
731.707	0.0143967
731.785	0.0144604
731.863	0.0143031
731.942	0.0144283
732.020	0.0142584
732.098	0.0143930
732.176	0.0144473
732.254	0.0142545
732.332	0.0142501
732.410	0.0142835
732.488	0.0143961
732.567	0.0142899
732.645	0.0142905
732.723	0.0143336
732.801	0.0143618
732.879	0.0143523
732.957	0.0143819
733.035	0.0144275
733.113	0.0144052
733.192	0.0144053
733.270	0.0143894
733.348	0.0144984
733.426	0.0143128
733.504	0.0144740
733.582	0.0144405
733.660	0.0143999
733.738	0.0144637
733.817	0.0144722
733.895	0.0144736
733.973	0.0144412
734.051	0.0144781
734.129	0.0146113
734.207	0.0145090
734.285	0.0143496
734.363	0.0145068
734.442	0.0145853
734.520	0.0145641
734.598	0.0145317
734.676	0.0146196
734.754	0.0144621
734.832	0.0145146
734.910	0.0146404
734.988	0.0145377
735.067	0.0145853
735.145	0.0145986
735.223	0.0145430
735.301	0.0146836
735.379	0.0145489
735.457	0.0146135
735.535	0.0145900
735.613	0.0146482
735.692	0.0144426
735.770	0.0144422
735.848	0.0144172
735.926	0.0145815
736.004	0.0145448
736.082	0.0144909
736.160	0.0143839
736.238	0.0144032
736.317	0.0143983
736.395	0.0143643
736.473	0.0143356
736.551	0.0144486
736.629	0.0142335
736.707	0.0143703
736.785	0.0144597
736.863	0.0143559
736.942	0.0143783
737.020	0.0142756
737.098	0.0143134
737.176	0.0142663
737.254	0.0142412
737.332	0.0143247
737.410	0.0142899
737.488	0.0144176
737.567	0.0142655
737.645	0.0142654
737.723	0.0143708
737.801	0.0143447
737.879	0.0143729
737.957	0.0144910
738.035	0.0143989
738.113	0.0143197
738.192	0.0144398
738.270	0.0144700
738.348	0.0145403
738.426	0.0145042
738.504	0.0146947
738.582	0.0146762
738.660	0.0145811
738.738	0.0145129
738.817	0.0145724
738.895	0.0145503
738.973	0.0145215
739.051	0.0146269
739.129	0.0145438
739.207	0.0144839
739.285	0.0144358
739.363	0.0143032
739.442	0.0144279
739.520	0.0142754
739.598	0.0143616
739.676	0.0144349
739.754	0.0143213
739.832	0.0142477
739.910	0.0141563
739.988	0.0143405
740.067	0.0142869
740.145	0.0142938
740.223	0.0143106
740.301	0.0143645
740.379	0.0143354
740.457	0.0143781
740.535	0.0145294
740.613	0.0144747
740.692	0.0143711
740.770	0.0144402
740.848	0.0144769
740.926	0.0144608
741.004	0.0145992
741.082	0.0144864
741.160	0.0145329
741.238	0.0145470
741.317	0.0145077
741.395	0.0144745
741.473	0.0144044
741.551	0.0143917
741.629	0.0145378
741.707	0.0143832
741.785	0.0144813
741.863	0.0145567
741.942	0.0142984
742.020	0.0143898
742.098	0.0143634
742.176	0.0144650
742.254	0.0143204
742.332	0.0143779
742.410	0.0145010
742.488	0.0145679
742.567	0.0144772
742.645	0.0143351
742.723	0.0143973
742.801	0.0144398
742.879	0.0143706
742.957	0.0142790
743.035	0.0143977
743.113	0.0143390
743.192	0.0142442
743.270	0.0143484
743.348	0.0142891
743.426	0.0142100
743.504	0.0142744
743.582	0.0142218
743.660	0.0144216
743.738	0.0144768
743.817	0.0142475
743.895	0.0143327
743.973	0.0144953
744.051	0.0144015
744.129	0.0142400
744.207	0.0142428
744.285	0.0144311
744.363	0.0144463
744.442	0.0143405
744.520	0.0142513
744.598	0.0142982
744.676	0.0143701
744.754	0.0143401
744.832	0.0142956
744.910	0.0142669
744.988	0.0143041
745.067	0.0143519
745.145	0.0143321
745.223	0.0143842
745.301	0.0143549
745.379	0.0143763
745.457	0.0143721
745.535	0.0143765
745.613	0.0142385
745.692	0.0144090
745.770	0.0145033
745.848	0.0144788
745.926	0.0145006
746.004	0.0144249
746.082	0.0144411
746.160	0.0144302
746.238	0.0143751
746.317	0.0144125
746.395	0.0143541
746.473	0.0144830
746.551	0.0144643
746.629	0.0146569
746.707	0.0144509
746.785	0.0145271
746.863	0.0144732
746.942	0.0144554
747.020	0.0143242
747.098	0.0142935
747.176	0.0143744
747.254	0.0144295
747.332	0.0143953
747.410	0.0144774
747.488	0.0144438
747.567	0.0143719
747.645	0.0143298
747.723	0.0143258
747.801	0.0145096
747.879	0.0143055
747.957	0.0144607
748.035	0.0145199
748.113	0.0145100
748.192	0.0145370
748.270	0.0144467
748.348	0.0145197
748.426	0.0145535
748.504	0.0145932
748.582	0.0145908
748.660	0.0147416
748.738	0.0146099
748.817	0.0145734
748.895	0.0147122
748.973	0.0146522
749.051	0.0146687
749.129	0.0146420
749.207	0.0146100
749.285	0.0145840
749.363	0.0144624
749.442	0.0145490
749.520	0.0144993
749.598	0.0145071
749.676	0.0144913
749.754	0.0143639
749.832	0.0143327
749.910	0.0144087
749.988	0.0143783
750.067	0.0143195
750.145	0.0142656
750.223	0.0144437
750.301	0.0143880
750.379	0.0143627
750.457	0.0142945
750.535	0.0143015
750.613	0.0144595
750.692	0.0142440
750.770	0.0142821
750.848	0.0142915
750.926	0.0144216
751.004	0.0143923
751.082	0.0143087
751.160	0.0143641
751.238	0.0142554
751.317	0.0144255
751.395	0.0143874
751.473	0.0144304
751.551	0.0143372
751.629	0.0144366
751.707	0.0145617
751.785	0.0144803
751.863	0.0144840
751.942	0.0146030
752.020	0.0144548
752.098	0.0144082
752.176	0.0144830
752.254	0.0144755
752.332	0.0145234
752.410	0.0144233
752.488	0.0145065
752.567	0.0145311
752.645	0.0146099
752.723	0.0144635
752.801	0.0145273
752.879	0.0145297
752.957	0.0144936
753.035	0.0144154
753.113	0.0145042
753.192	0.0144114
753.270	0.0144180
753.348	0.0144004
753.426	0.0145499
753.504	0.0145045
753.582	0.0142678
753.660	0.0143288
753.738	0.0142915
753.817	0.0143932
753.895	0.0144489
753.973	0.0144668
754.051	0.0144155
754.129	0.0143420
754.207	0.0144724
754.285	0.0143063
754.363	0.0144086
754.442	0.0144592
754.520	0.0142831
754.598	0.0144013
754.676	0.0143890
754.754	0.0143166
754.832	0.0143404
754.910	0.0143274
754.988	0.0143597
755.067	0.0143599
755.145	0.0143610
755.223	0.0144308
755.301	0.0144481
755.379	0.0144506
755.457	0.0144134
755.535	0.0145196
755.613	0.0144656
755.692	0.0143475
755.770	0.0142657
755.848	0.0144160
755.926	0.0143626
756.004	0.0143753
756.082	0.0143646
756.160	0.0143167
756.238	0.0144133
756.317	0.0143833
756.395	0.0143885
756.473	0.0143351
756.551	0.0143880
756.629	0.0143587
756.707	0.0142586
756.785	0.0144180
756.863	0.0144849
756.942	0.0144235
757.020	0.0144446
757.098	0.0144643
757.176	0.0145375
757.254	0.0143102
757.332	0.0145468
757.410	0.0145608
757.488	0.0144683
757.567	0.0144276
757.645	0.0144901
757.723	0.0145578
757.801	0.0145259
757.879	0.0145254
757.957	0.0145099
758.035	0.0146321
758.113	0.0146199
758.192	0.0145776
758.270	0.0143832
758.348	0.0144840
758.426	0.0145040
758.504	0.0144188
758.582	0.0144330
758.660	0.0146051
758.738	0.0145001
758.817	0.0144015
758.895	0.0145262
758.973	0.0145222
759.051	0.0144248
759.129	0.0144386
759.207	0.0145744
759.285	0.0144704
759.363	0.0144461
759.442	0.0145100
759.520	0.0143295
759.598	0.0143433
759.676	0.0143462
759.754	0.0144933
759.832	0.0143454
759.910	0.0142907
759.988	0.0142950
760.067	0.0143796
760.145	0.0142152
760.223	0.0143534
760.301	0.0142532
760.379	0.0142360
760.457	0.0141904
760.535	0.0144109
760.613	0.0143530
760.692	0.0143286
760.770	0.0142400
760.848	0.0143533
760.926	0.0142577
761.004	0.0142458
761.082	0.0143517
761.160	0.0143188
761.238	0.0144363
761.317	0.0143927
761.395	0.0144985
761.473	0.0144460
761.551	0.0142921
761.629	0.0143497
761.707	0.0145315
761.785	0.0145394
761.863	0.0144694
761.942	0.0145208
762.020	0.0144415
762.098	0.0144458
762.176	0.0145342
762.254	0.0144311
762.332	0.0144263
762.410	0.0144576
762.488	0.0144765
762.567	0.0143757
762.645	0.0145087
762.723	0.0145562
762.801	0.0146255
762.879	0.0143567
762.957	0.0145580
763.035	0.0146007
763.113	0.0144423
763.192	0.0145757
763.270	0.0145330
763.348	0.0145731
763.426	0.0145503
763.504	0.0145135
763.582	0.0145845
763.660	0.0145162
763.738	0.0144620
763.817	0.0145129
763.895	0.0145844
763.973	0.0144386
764.051	0.0145967
764.129	0.0142942
764.207	0.0142599
764.285	0.0144080
764.363	0.0145314
764.442	0.0144405
764.520	0.0143817
764.598	0.0143397
764.676	0.0144150
764.754	0.0144196
764.832	0.0143918
764.910	0.0143713
764.988	0.0144355
765.067	0.0144110
765.145	0.0144684
765.223	0.0143803
765.301	0.0145291
765.379	0.0146030
765.457	0.0143526
765.535	0.0145085
765.613	0.0144988
765.692	0.0145650
765.770	0.0145379
765.848	0.0145751
765.926	0.0145319
766.004	0.0145609
766.082	0.0145676
766.160	0.0145759
766.238	0.0145409
766.317	0.0146130
766.395	0.0145380
766.473	0.0144890
766.551	0.0146865
766.629	0.0147367
766.707	0.0145574
766.785	0.0145600
766.863	0.0146394
766.942	0.0146425
767.020	0.0145556
767.098	0.0145389
767.176	0.0145258
767.254	0.0145009
767.332	0.0145622
767.410	0.0146445
767.488	0.0145353
767.567	0.0144675
767.645	0.0144850
767.723	0.0143472
767.801	0.0142043
767.879	0.0143732
767.957	0.0144833
768.035	0.0142921
768.113	0.0144022
768.192	0.0144859
768.270	0.0144851
768.348	0.0142747
768.426	0.0144541
768.504	0.0143802
768.582	0.0142645
768.660	0.0143871
768.738	0.0143907
768.817	0.0143731
768.895	0.0144080
768.973	0.0143906
769.051	0.0145681
769.129	0.0144164
769.207	0.0143520
769.285	0.0144434
769.363	0.0143240
769.442	0.0142751
769.520	0.0145438
769.598	0.0143815
769.676	0.0143105
769.754	0.0143534
769.832	0.0143257
769.910	0.0144621
769.988	0.0144229
770.067	0.0142685
770.145	0.0143467
770.223	0.0143404
770.301	0.0143915
770.379	0.0143950
770.457	0.0143600
770.535	0.0143383
770.613	0.0143164
770.692	0.0142414
770.770	0.0143851
770.848	0.0144353
770.926	0.0144070
771.004	0.0142464
771.082	0.0145240
771.160	0.0144958
771.238	0.0143073
771.317	0.0143952
771.395	0.0144630
771.473	0.0145485
771.551	0.0145592
771.629	0.0146230
771.707	0.0144798
771.785	0.0143991
771.863	0.0144378
771.942	0.0144190
772.020	0.0144331
772.098	0.0144022
772.176	0.0144918
772.254	0.0144720
772.332	0.0145284
772.410	0.0143739
772.488	0.0143259
772.567	0.0145163
772.645	0.0143837
772.723	0.0144992
772.801	0.0144323
772.879	0.0144399
772.957	0.0144501
773.035	0.0143211
773.113	0.0143629
773.192	0.0143722
773.270	0.0143969
773.348	0.0143382
773.426	0.0142438
773.504	0.0143166
773.582	0.0143499
773.660	0.0143410
773.738	0.0142390
773.817	0.0142195
773.895	0.0143027
773.973	0.0142977
774.051	0.0142397
774.129	0.0142790
774.207	0.0143218
774.285	0.0142437
774.363	0.0142773
774.442	0.0142339
774.520	0.0142508
774.598	0.0142795
774.676	0.0143082
774.754	0.0143339
774.832	0.0143932
774.910	0.0144927
774.988	0.0144180
775.067	0.0143346
775.145	0.0146276
775.223	0.0144704
775.301	0.0143736
775.379	0.0144568
775.457	0.0144323
775.535	0.0144946
775.613	0.0144420
775.692	0.0144737
775.770	0.0146239
775.848	0.0145464
775.926	0.0145877
776.004	0.0146413
776.082	0.0144913
776.160	0.0146198
776.238	0.0145564
776.317	0.0145311
776.395	0.0145911
776.473	0.0146489
776.551	0.0146047
776.629	0.0146868
776.707	0.0147105
776.785	0.0147089
776.863	0.0147093
776.942	0.0146847
777.020	0.0146142
777.098	0.0146236
777.176	0.0147250
777.254	0.0146492
777.332	0.0147115
777.410	0.0146687
777.488	0.0146492
777.567	0.0147121
777.645	0.0147242
777.723	0.0145740
777.801	0.0145613
777.879	0.0146231
777.957	0.0145092
778.035	0.0145251
778.113	0.0147062
778.192	0.0144592
778.270	0.0144053
778.348	0.0143500
778.426	0.0144373
778.504	0.0144443
778.582	0.0145441
778.660	0.0144404
778.738	0.0145161
778.817	0.0144178
778.895	0.0145464
778.973	0.0144647
779.051	0.0145448
779.129	0.0143736
779.207	0.0144801
779.285	0.0145983
779.363	0.0145174
779.442	0.0145182
779.520	0.0145988
779.598	0.0145182
779.676	0.0144691
779.754	0.0146111
779.832	0.0145020
779.910	0.0145422
779.988	0.0147526
780.067	0.0147552
780.145	0.0145794
780.223	0.0145909
780.301	0.0146934
780.379	0.0146324
780.457	0.0145953
780.535	0.0145853
780.613	0.0145573
780.692	0.0147038
780.770	0.0147511
780.848	0.0145232
780.926	0.0145192
781.004	0.0145795
781.082	0.0145184
781.160	0.0145307
781.238	0.0146101
781.317	0.0145605
781.395	0.0144578
781.473	0.0143376
781.551	0.0144931
781.629	0.0143534
781.707	0.0144340
781.785	0.0143281
781.863	0.0143340
781.942	0.0145132
782.020	0.0143033
782.098	0.0142902
782.176	0.0142354
782.254	0.0143608
782.332	0.0143217
782.410	0.0143554
782.488	0.0142309
782.567	0.0142502
782.645	0.0142027
782.723	0.0142857
782.801	0.0142375
782.879	0.0143012
782.957	0.0142385
783.035	0.0142747
783.113	0.0142993
783.192	0.0142332
783.270	0.0144128
783.348	0.0142183
783.426	0.0144444
783.504	0.0143968
783.582	0.0142707
783.660	0.0142820
783.738	0.0143335
783.817	0.0144151
783.895	0.0142702
783.973	0.0144340
784.051	0.0143555
784.129	0.0142599
784.207	0.0142191
784.285	0.0143317
784.363	0.0143913
784.442	0.0144571
784.520	0.0144357
784.598	0.0144683
784.676	0.0144440
784.754	0.0143425
784.832	0.0145198
784.910	0.0145811
784.988	0.0145073
785.067	0.0144425
785.145	0.0144141
785.223	0.0145945
785.301	0.0145553
785.379	0.0146032
785.457	0.0146371
785.535	0.0145676
785.613	0.0145804
785.692	0.0146305
785.770	0.0147352
785.848	0.0145538
785.926	0.0145584
786.004	0.0147350
786.082	0.0146365
786.160	0.0146645
786.238	0.0146306
786.317	0.0145617
786.395	0.0147211
786.473	0.0146362
786.551	0.0147868
786.629	0.0147485
786.707	0.0146953
786.785	0.0146463
786.863	0.0146957
786.942	0.0147526
787.020	0.0146163
787.098	0.0145609
787.176	0.0146768
787.254	0.0146188
787.332	0.0146107
787.410	0.0146620
787.488	0.0145558
787.567	0.0146442
787.645	0.0145459
787.723	0.0144946
787.801	0.0146485
787.879	0.0146251
787.957	0.0145248
788.035	0.0144879
788.113	0.0144722
788.192	0.0146530
788.270	0.0146419
788.348	0.0146506
788.426	0.0145341
788.504	0.0145284
788.582	0.0146078
788.660	0.0145533
788.738	0.0145472
788.817	0.0145757
788.895	0.0146246
788.973	0.0145034
789.051	0.0145927
789.129	0.0144768
789.207	0.0145314
789.285	0.0145387
789.363	0.0146195
789.442	0.0146313
789.520	0.0147873
789.598	0.0144526
789.676	0.0145921
789.754	0.0146143
789.832	0.0145205
789.910	0.0146111
789.988	0.0146533
790.067	0.0146372
790.145	0.0144617
790.223	0.0146429
790.301	0.0147131
790.379	0.0145449
790.457	0.0145215
790.535	0.0143777
790.613	0.0144971
790.692	0.0145583
790.770	0.0144875
790.848	0.0147846
790.926	0.0145404
791.004	0.0144965
791.082	0.0146504
791.160	0.0145494
791.238	0.0144845
791.317	0.0145822
791.395	0.0144145
791.473	0.0146030
791.551	0.0145691
791.629	0.0146629
791.707	0.0145058
791.785	0.0144189
791.863	0.0143848
791.942	0.0144554
792.020	0.0144859
792.098	0.0144762
792.176	0.0143970
792.254	0.0144042
792.332	0.0144035
792.410	0.0142796
792.488	0.0143171
792.567	0.0144830
792.645	0.0144875
792.723	0.0143100
792.801	0.0143314
792.879	0.0144093
792.957	0.0144213
793.035	0.0144516
793.113	0.0143224
793.192	0.0143263
793.270	0.0142492
793.348	0.0143763
793.426	0.0143676
793.504	0.0144971
793.582	0.0143727
793.660	0.0144475
793.738	0.0144904
793.817	0.0143484
793.895	0.0143684
793.973	0.0143916
794.051	0.0145277
794.129	0.0145466
794.207	0.0144271
794.285	0.0145358
794.363	0.0145107
794.442	0.0145575
794.520	0.0145876
794.598	0.0145512
794.676	0.0145253
794.754	0.0146713
794.832	0.0146566
794.910	0.0145254
794.988	0.0143684
795.067	0.0144810
795.145	0.0146349
795.223	0.0146202
795.301	0.0146546
795.379	0.0145600
795.457	0.0145097
795.535	0.0145583
795.613	0.0145525
795.692	0.0145664
795.770	0.0144831
795.848	0.0143156
795.926	0.0144096
796.004	0.0144743
796.082	0.0145087
796.160	0.0144988
796.238	0.0145792
796.317	0.0144603
796.395	0.0143449
796.473	0.0144234
796.551	0.0144120
796.629	0.0142640
796.707	0.0145121
796.785	0.0144147
796.863	0.0144361
796.942	0.0145012
797.020	0.0146454
797.098	0.0144321
797.176	0.0144456
797.254	0.0145348
797.332	0.0144600
797.410	0.0144038
797.488	0.0145372
797.567	0.0145534
797.645	0.0143974
797.723	0.0144788
797.801	0.0144919
797.879	0.0144647
797.957	0.0144508
798.035	0.0146024
798.113	0.0145509
798.192	0.0144817
798.270	0.0144888
798.348	0.0144416
798.426	0.0145731
798.504	0.0144142
798.582	0.0145090
798.660	0.0145460
798.738	0.0146147
798.817	0.0143830
798.895	0.0145427
798.973	0.0147641
799.051	0.0144682
799.129	0.0145817
799.207	0.0145296
799.285	0.0145279
799.363	0.0145798
799.442	0.0145778
799.520	0.0145548
799.598	0.0145514
799.676	0.0145605
799.754	0.0146318
799.832	0.0145673
799.910	0.0146014
799.988	0.0144020
800.067	0.0145327
800.145	0.0146224
800.223	0.0144282
800.301	0.0145257
800.379	0.0145988
800.457	0.0144700
800.535	0.0143614
800.613	0.0145590
800.692	0.0146806
800.770	0.0145010
800.848	0.0144743
800.926	0.0144987
801.004	0.0145272
801.082	0.0144542
801.160	0.0144516
801.238	0.0144225
801.317	0.0144052
801.395	0.0144594
801.473	0.0143295
801.551	0.0143568
801.629	0.0142561
801.707	0.0143198
801.785	0.0144092
801.863	0.0142392
801.942	0.0143531
802.020	0.0144196
802.098	0.0144093
802.176	0.0143805
802.254	0.0143024
802.332	0.0142769
802.410	0.0144569
802.488	0.0144248
802.567	0.0144854
802.645	0.0145786
802.723	0.0144356
802.801	0.0144399
802.879	0.0146368
802.957	0.0145560
803.035	0.0144172
803.113	0.0144891
803.192	0.0145041
803.270	0.0145446
803.348	0.0144779
803.426	0.0145392
803.504	0.0145391
803.582	0.0144028
803.660	0.0144579
803.738	0.0144613
803.817	0.0145331
803.895	0.0144754
803.973	0.0145542
804.051	0.0145850
804.129	0.0144255
804.207	0.0143824
804.285	0.0145137
804.363	0.0145679
804.442	0.0144569
804.520	0.0144547
804.598	0.0144286
804.676	0.0144078
804.754	0.0144949
804.832	0.0144319
804.910	0.0143461
804.988	0.0143859
805.067	0.0143628
805.145	0.0144804
805.223	0.0145317
805.301	0.0143942
805.379	0.0143664
805.457	0.0144421
805.535	0.0145168
805.613	0.0143005
805.692	0.0144721
805.770	0.0144904
805.848	0.0144511
805.926	0.0143318
806.004	0.0146019
806.082	0.0144259
806.160	0.0145338
806.238	0.0144431
806.317	0.0144435
806.395	0.0145831
806.473	0.0144681
806.551	0.0143945
806.629	0.0144434
806.707	0.0144827
806.785	0.0144176
806.863	0.0144267
806.942	0.0144514
807.020	0.0143713
807.098	0.0144784
807.176	0.0144611
807.254	0.0143491
807.332	0.0143765
807.410	0.0144078
807.488	0.0144436
807.567	0.0142820
807.645	0.0143682
807.723	0.0143936
807.801	0.0143518
807.879	0.0144195
807.957	0.0143700
808.035	0.0143685
808.113	0.0144345
808.192	0.0143519
808.270	0.0143148
808.348	0.0143704
808.426	0.0144116
808.504	0.0144109
808.582	0.0144990
808.660	0.0143383
808.738	0.0142615
808.817	0.0145673
808.895	0.0145804
808.973	0.0143768
809.051	0.0144445
809.129	0.0144750
809.207	0.0143953
809.285	0.0143900
809.363	0.0143761
809.442	0.0143957
809.520	0.0144244
809.598	0.0144535
809.676	0.0143120
809.754	0.0142647
809.832	0.0145069
809.910	0.0144234
809.988	0.0143194
810.067	0.0143449
810.145	0.0143827
810.223	0.0144104
810.301	0.0143884
810.379	0.0142927
810.457	0.0145735
810.535	0.0143910
810.613	0.0143732
810.692	0.0142629
810.770	0.0144128
810.848	0.0145186
810.926	0.0145500
811.004	0.0143446
811.082	0.0145213
811.160	0.0145365
811.238	0.0145309
811.317	0.0146214
811.395	0.0144906
811.473	0.0145872
811.551	0.0147151
811.629	0.0146474
811.707	0.0146146
811.785	0.0146620
811.863	0.0146575
811.942	0.0145426
812.020	0.0147150
812.098	0.0146081
812.176	0.0145296
812.254	0.0147308
812.332	0.0148587
812.410	0.0146178
812.488	0.0146447
812.567	0.0146493
812.645	0.0146090
812.723	0.0146781
812.801	0.0146736
812.879	0.0146293
812.957	0.0146555
813.035	0.0146233
813.113	0.0145638
813.192	0.0144972
813.270	0.0145812
813.348	0.0146680
813.426	0.0146831
813.504	0.0146313
813.582	0.0145410
813.660	0.0145811
813.738	0.0145677
813.817	0.0146148
813.895	0.0146094
813.973	0.0146195
814.051	0.0145403
814.129	0.0145913
814.207	0.0146073
814.285	0.0144383
814.363	0.0145812
814.442	0.0144908
814.520	0.0145677
814.598	0.0145528
814.676	0.0144713
814.754	0.0146035
814.832	0.0145386
814.910	0.0144482
814.988	0.0144868
815.067	0.0144524
815.145	0.0145214
815.223	0.0144867
815.301	0.0144247
815.379	0.0144526
815.457	0.0142945
815.535	0.0144080
815.613	0.0144130
815.692	0.0143918
815.770	0.0144742
815.848	0.0144454
815.926	0.0143865
816.004	0.0144212
816.082	0.0144094
816.160	0.0143199
816.238	0.0144812
816.317	0.0144379
816.395	0.0144033
816.473	0.0144695
816.551	0.0145259
816.629	0.0144556
816.707	0.0143890
816.785	0.0144162
816.863	0.0144006
816.942	0.0144296
817.020	0.0145226
817.098	0.0143832
817.176	0.0144552
817.254	0.0144239
817.332	0.0143923
817.410	0.0144109
817.488	0.0144387
817.567	0.0144529
817.645	0.0143736
817.723	0.0143092
817.801	0.0142966
817.879	0.0143534
817.957	0.0144438
818.035	0.0144020
818.113	0.0142529
818.192	0.0141436
818.270	0.0142841
818.348	0.0144492
818.426	0.0142760
818.504	0.0143007
818.582	0.0144146
818.660	0.0144556
818.738	0.0143178
818.817	0.0143303
818.895	0.0143776
818.973	0.0142388
819.051	0.0144427
819.129	0.0144173
819.207	0.0144730
819.285	0.0143092
819.363	0.0144820
819.442	0.0145257
819.520	0.0143681
819.598	0.0144193
819.676	0.0143839
819.754	0.0145267
819.832	0.0146133
819.910	0.0146208
819.988	0.0145214
820.067	0.0145000
820.145	0.0147047
820.223	0.0144598
820.301	0.0144980
820.379	0.0145916
820.457	0.0145184
820.535	0.0145107
820.613	0.0146075
820.692	0.0145999
820.770	0.0145011
820.848	0.0145686
820.926	0.0145130
821.004	0.0144366
821.082	0.0143617
821.160	0.0143854
821.238	0.0144205
821.317	0.0144053
821.395	0.0143355
821.473	0.0143379
821.551	0.0144444
821.629	0.0143608
821.707	0.0143199
821.785	0.0143639
821.863	0.0144265
821.942	0.0144778
822.020	0.0144032
822.098	0.0143453
822.176	0.0143170
822.254	0.0142793
822.332	0.0144002
822.410	0.0143764
822.488	0.0145319
822.567	0.0144630
822.645	0.0146738
822.723	0.0144827
822.801	0.0145111
822.879	0.0146709
822.957	0.0144767
823.035	0.0144864
823.113	0.0144574
823.192	0.0144585
823.270	0.0145474
823.348	0.0146756
823.426	0.0143297
823.504	0.0143850
823.582	0.0144984
823.660	0.0145926
823.738	0.0144643
823.817	0.0144191
823.895	0.0145415
823.973	0.0144502
824.051	0.0144050
824.129	0.0144013
824.207	0.0144127
824.285	0.0144017
824.363	0.0143892
824.442	0.0144957
824.520	0.0143738
824.598	0.0144750
824.676	0.0144110
824.754	0.0144365
824.832	0.0143985
824.910	0.0144976
824.988	0.0143999
825.067	0.0142797
825.145	0.0145351
825.223	0.0146573
825.301	0.0144795
825.379	0.0144012
825.457	0.0144725
825.535	0.0145087
825.613	0.0145478
825.692	0.0144379
825.770	0.0143763
825.848	0.0142887
825.926	0.0143308
826.004	0.0145258
826.082	0.0143359
826.160	0.0143535
826.238	0.0144032
826.317	0.0144578
826.395	0.0142603
826.473	0.0143909
826.551	0.0144292
826.629	0.0144434
826.707	0.0142904
826.785	0.0143668
826.863	0.0143723
826.942	0.0144636
827.020	0.0144756
827.098	0.0144243
827.176	0.0143003
827.254	0.0143607
827.332	0.0142510
827.410	0.0143585
827.488	0.0143840
827.567	0.0143944
827.645	0.0143129
827.723	0.0143314
827.801	0.0144630
827.879	0.0144968
827.957	0.0143191
828.035	0.0143597
828.113	0.0143898
828.192	0.0143311
828.270	0.0144337
828.348	0.0144200
828.426	0.0143147
828.504	0.0143471
828.582	0.0143746
828.660	0.0143037
828.738	0.0142377
828.817	0.0143172
828.895	0.0142986
828.973	0.0143358
829.051	0.0142978
829.129	0.0143801
829.207	0.0142281
829.285	0.0142405
829.363	0.0141661
829.442	0.0142613
829.520	0.0142405
829.598	0.0143480
829.676	0.0141460
829.754	0.0142271
829.832	0.0143837
829.910	0.0141895
829.988	0.0142811
830.067	0.0143444
830.145	0.0143066
830.223	0.0143088
830.301	0.0142376
830.379	0.0142302
830.457	0.0143160
830.535	0.0145224
830.613	0.0143552
830.692	0.0143316
830.770	0.0145554
830.848	0.0143915
830.926	0.0145713
831.004	0.0144019
831.082	0.0144562
831.160	0.0144942
831.238	0.0144642
831.317	0.0144944
831.395	0.0143748
831.473	0.0144286
831.551	0.0143964
831.629	0.0143082
831.707	0.0144524
831.785	0.0144723
831.863	0.0143312
831.942	0.0142749
832.020	0.0143246
832.098	0.0143896
832.176	0.0143178
832.254	0.0143664
832.332	0.0142457
832.410	0.0141143
832.488	0.0142458
832.567	0.0142355
832.645	0.0142736
832.723	0.0142787
832.801	0.0143367
832.879	0.0143874
832.957	0.0143082
833.035	0.0142982
833.113	0.0143330
833.192	0.0145170
833.270	0.0145944
833.348	0.0144583
833.426	0.0144545
833.504	0.0144415
833.582	0.0143621
833.660	0.0145399
833.738	0.0145679
833.817	0.0145413
833.895	0.0144130
833.973	0.0145596
834.051	0.0145000
834.129	0.0146486
834.207	0.0144945
834.285	0.0145328
834.363	0.0145884
834.442	0.0145118
834.520	0.0146079
834.598	0.0143319
834.676	0.0144623
834.754	0.0144764
834.832	0.0144046
834.910	0.0143996
834.988	0.0144012
835.067	0.0144810
835.145	0.0143297
835.223	0.0144373
835.301	0.0144273
835.379	0.0143025
835.457	0.0145026
835.535	0.0144097
835.613	0.0143893
835.692	0.0143307
835.770	0.0143835
835.848	0.0144309
835.926	0.0144070
836.004	0.0144481
836.082	0.0143914
836.160	0.0143144
836.238	0.0144274
836.317	0.0143707
836.395	0.0143622
836.473	0.0143977
836.551	0.0143165
836.629	0.0143735
836.707	0.0143320
836.785	0.0141730
836.863	0.0144952
836.942	0.0144017
837.020	0.0143386
837.098	0.0144057
837.176	0.0144224
837.254	0.0144405
837.332	0.0143933
837.410	0.0143732
837.488	0.0144043
837.567	0.0144013
837.645	0.0144428
837.723	0.0144538
837.801	0.0144534
837.879	0.0144251
837.957	0.0141865
838.035	0.0144720
838.113	0.0144518
838.192	0.0143634
838.270	0.0143953
838.348	0.0142958
838.426	0.0143137
838.504	0.0143665
838.582	0.0145059
838.660	0.0143370
838.738	0.0142590
838.817	0.0143931
838.895	0.0142969
838.973	0.0143765
839.051	0.0143832
839.129	0.0143839
839.207	0.0143803
839.285	0.0145520
839.363	0.0143620
839.442	0.0144118
839.520	0.0144400
839.598	0.0144613
839.676	0.0144599
839.754	0.0145785
839.832	0.0143931
839.910	0.0144781
839.988	0.0145802
840.067	0.0143327
840.145	0.0143440
840.223	0.0142994
840.301	0.0144666
840.379	0.0144405
840.457	0.0145029
840.535	0.0144204
840.613	0.0144162
840.692	0.0145043
840.770	0.0143140
840.848	0.0144756
840.926	0.0144328
841.004	0.0144048
841.082	0.0144357
841.160	0.0144195
841.238	0.0145187
841.317	0.0144810
841.395	0.0144239
841.473	0.0144238
841.551	0.0143373
841.629	0.0144835
841.707	0.0144628
841.785	0.0143394
841.863	0.0144529
841.942	0.0144125
842.020	0.0144076
842.098	0.0144209
842.176	0.0143356
842.254	0.0144880
842.332	0.0145888
842.410	0.0144840
842.488	0.0145608
842.567	0.0144461
842.645	0.0144627
842.723	0.0144714
842.801	0.0144231
842.879	0.0144641
842.957	0.0144768
843.035	0.0144563
843.113	0.0144508
843.192	0.0144563
843.270	0.0145064
843.348	0.0144362
843.426	0.0144752
843.504	0.0143498
843.582	0.0143997
843.660	0.0144759
843.738	0.0143639
843.817	0.0143345
843.895	0.0143079
843.973	0.0143580
844.051	0.0143625
844.129	0.0145979
844.207	0.0145519
844.285	0.0143691
844.363	0.0143005
844.442	0.0144916
844.520	0.0143451
844.598	0.0144350
844.676	0.0142938
844.754	0.0144893
844.832	0.0145243
844.910	0.0143916
844.988	0.0145117
845.067	0.0144999
845.145	0.0144796
845.223	0.0145814
845.301	0.0145419
845.379	0.0145642
845.457	0.0146914
845.535	0.0147083
845.613	0.0144823
845.692	0.0145107
845.770	0.0146746
845.848	0.0146967
845.926	0.0146238
846.004	0.0145933
846.082	0.0145292
846.160	0.0145747
846.238	0.0145870
846.317	0.0145360
846.395	0.0145995
846.473	0.0147396
846.551	0.0145560
846.629	0.0144538
846.707	0.0145907
846.785	0.0144567
846.863	0.0145267
846.942	0.0146075
847.020	0.0144894
847.098	0.0144852
847.176	0.0144067
847.254	0.0144996
847.332	0.0144669
847.410	0.0144108
847.488	0.0145033
847.567	0.0144825
847.645	0.0143851
847.723	0.0144640
847.801	0.0145062
847.879	0.0144188
847.957	0.0143754
848.035	0.0145220
848.113	0.0143337
848.192	0.0143908
848.270	0.0144376
848.348	0.0144109
848.426	0.0144186
848.504	0.0144540
848.582	0.0145343
848.660	0.0144691
848.738	0.0145756
848.817	0.0144386
848.895	0.0144487
848.973	0.0146252
849.051	0.0145986
849.129	0.0144794
849.207	0.0143815
849.285	0.0144907
849.363	0.0145473
849.442	0.0144496
849.520	0.0143285
849.598	0.0144189
849.676	0.0144546
849.754	0.0145168
849.832	0.0144231
849.910	0.0143420
849.988	0.0143211
850.067	0.0143641
850.145	0.0142876
850.223	0.0143949
850.301	0.0142168
850.379	0.0143242
850.457	0.0142657
850.535	0.0143853
850.613	0.0143334
850.692	0.0142303
850.770	0.0143836
850.848	0.0144230
850.926	0.0143468
851.004	0.0143825
851.082	0.0145088
851.160	0.0145209
851.238	0.0144588
851.317	0.0144065
851.395	0.0144176
851.473	0.0146215
851.551	0.0143377
851.629	0.0143820
851.707	0.0143451
851.785	0.0144100
851.863	0.0145236
851.942	0.0144199
852.020	0.0144514
852.098	0.0144342
852.176	0.0145010
852.254	0.0144850
852.332	0.0145226
852.410	0.0144905
852.488	0.0144501
852.567	0.0145039
852.645	0.0144718
852.723	0.0143784
852.801	0.0144820
852.879	0.0145149
852.957	0.0145275
853.035	0.0146837
853.113	0.0145954
853.192	0.0144825
853.270	0.0144840
853.348	0.0146040
853.426	0.0145661
853.504	0.0146027
853.582	0.0144757
853.660	0.0146262
853.738	0.0145164
853.817	0.0147079
853.895	0.0145210
853.973	0.0143520
854.051	0.0144188
854.129	0.0145593
854.207	0.0145375
854.285	0.0145303
854.363	0.0146091
854.442	0.0145648
854.520	0.0145367
854.598	0.0145358
854.676	0.0144757
854.754	0.0145173
854.832	0.0145039
854.910	0.0144933
854.988	0.0145285
855.067	0.0145143
855.145	0.0144427
855.223	0.0143896
855.301	0.0143845
855.379	0.0143907
855.457	0.0143192
855.535	0.0144582
855.613	0.0143903
855.692	0.0143856
855.770	0.0144705
855.848	0.0144987
855.926	0.0143955
856.004	0.0144855
856.082	0.0143120
856.160	0.0144491
856.238	0.0143172
856.317	0.0144083
856.395	0.0144223
856.473	0.0143121
856.551	0.0144249
856.629	0.0144485
856.707	0.0144167
856.785	0.0143340
856.863	0.0142912
856.942	0.0143477
857.020	0.0144086
857.098	0.0143851
857.176	0.0143604
857.254	0.0143060
857.332	0.0145819
857.410	0.0144090
857.488	0.0143962
857.567	0.0143839
857.645	0.0145962
857.723	0.0144370
857.801	0.0142880
857.879	0.0145139
857.957	0.0145280
858.035	0.0144610
858.113	0.0145115
858.192	0.0144797
858.270	0.0145093
858.348	0.0144231
858.426	0.0144357
858.504	0.0145006
858.582	0.0144807
858.660	0.0143094
858.738	0.0143991
858.817	0.0144856
858.895	0.0144109
858.973	0.0144029
859.051	0.0142948
859.129	0.0144708
859.207	0.0145589
859.285	0.0144825
859.363	0.0144833
859.442	0.0143610
859.520	0.0143169
859.598	0.0145278
859.676	0.0145666
859.754	0.0144042
859.832	0.0143475
859.910	0.0143217
859.988	0.0143762
860.067	0.0143653
860.145	0.0143720
860.223	0.0144593
860.301	0.0143327
860.379	0.0143095
860.457	0.0144230
860.535	0.0146069
860.613	0.0142262
860.692	0.0143798
860.770	0.0143737
860.848	0.0143775
860.926	0.0144488
861.004	0.0143912
861.082	0.0143697
861.160	0.0144241
861.238	0.0143562
861.317	0.0143809
861.395	0.0144877
861.473	0.0144500
861.551	0.0143835
861.629	0.0144981
861.707	0.0143799
861.785	0.0144897
861.863	0.0145147
861.942	0.0145592
862.020	0.0145474
862.098	0.0145066
862.176	0.0145117
862.254	0.0146455
862.332	0.0146210
862.410	0.0144872
862.488	0.0144950
862.567	0.0146635
862.645	0.0147403
862.723	0.0146608
862.801	0.0146391
862.879	0.0145642
862.957	0.0145641
863.035	0.0145654
863.113	0.0146651
863.192	0.0145518
863.270	0.0146560
863.348	0.0147315
863.426	0.0145287
863.504	0.0146518
863.582	0.0146203
863.660	0.0146451
863.738	0.0146353
863.817	0.0146530
863.895	0.0145845
863.973	0.0145699
864.051	0.0145026
864.129	0.0146377
864.207	0.0146591
864.285	0.0146171
864.363	0.0144227
864.442	0.0145937
864.520	0.0145947
864.598	0.0146556
864.676	0.0145817
864.754	0.0146101
864.832	0.0146738
864.910	0.0145879
864.988	0.0146341
865.067	0.0145813
865.145	0.0145509
865.223	0.0145597
865.301	0.0146972
865.379	0.0145638
865.457	0.0145343
865.535	0.0145831
865.613	0.0145724
865.692	0.0145437
865.770	0.0146409
865.848	0.0146078
865.926	0.0145022
866.004	0.0144524
866.082	0.0144896
866.160	0.0145615
866.238	0.0144665
866.317	0.0145401
866.395	0.0145847
866.473	0.0145274
866.551	0.0145056
866.629	0.0145290
866.707	0.0144257
866.785	0.0146548
866.863	0.0145570
866.942	0.0145741
867.020	0.0145239
867.098	0.0144788
867.176	0.0145082
867.254	0.0145576
867.332	0.0144633
867.410	0.0145116
867.488	0.0145547
867.567	0.0145236
867.645	0.0146355
867.723	0.0144840
867.801	0.0145215
867.879	0.0145415
867.957	0.0145153
868.035	0.0144054
868.113	0.0145036
868.192	0.0144113
868.270	0.0144254
868.348	0.0145970
868.426	0.0145282
868.504	0.0145219
868.582	0.0145232
868.660	0.0144583
868.738	0.0145586
868.817	0.0144698
868.895	0.0143839
868.973	0.0143800
869.051	0.0145716
869.129	0.0143124
869.207	0.0146514
869.285	0.0144348
869.363	0.0143732
869.442	0.0143613
869.520	0.0144017
869.598	0.0144237
869.676	0.0143573
869.754	0.0144701
869.832	0.0144883
869.910	0.0143507
869.988	0.0144244
870.067	0.0144441
870.145	0.0143414
870.223	0.0144720
870.301	0.0144234
870.379	0.0145895
870.457	0.0143689
870.535	0.0144003
870.613	0.0144181
870.692	0.0144887
870.770	0.0143040
870.848	0.0143225
870.926	0.0143640
871.004	0.0143774
871.082	0.0143006
871.160	0.0143092
871.238	0.0143200
871.317	0.0143810
871.395	0.0143825
871.473	0.0143663
871.551	0.0143035
871.629	0.0143467
871.707	0.0144180
871.785	0.0142411
871.863	0.0144025
871.942	0.0144233
872.020	0.0142988
872.098	0.0143472
872.176	0.0142896
872.254	0.0143334
872.332	0.0144199
872.410	0.0143131
872.488	0.0142102
872.567	0.0145231
872.645	0.0143681
872.723	0.0142473
872.801	0.0143667
872.879	0.0144463
872.957	0.0143338
873.035	0.0142863
873.113	0.0143145
873.192	0.0143382
873.270	0.0143642
873.348	0.0143138
873.426	0.0143526
873.504	0.0144627
873.582	0.0143192
873.660	0.0143500
873.738	0.0142514
873.817	0.0144978
873.895	0.0144078
873.973	0.0143091
874.051	0.0144526
874.129	0.0144083
874.207	0.0143589
874.285	0.0144540
874.363	0.0145002
874.442	0.0144283
874.520	0.0145924
874.598	0.0144887
874.676	0.0144801
874.754	0.0145473
874.832	0.0144469
874.910	0.0145798
874.988	0.0145065
875.067	0.0145124
875.145	0.0145381
875.223	0.0147144
875.301	0.0145111
875.379	0.0145773
875.457	0.0145139
875.535	0.0146545
875.613	0.0145733
875.692	0.0145871
875.770	0.0144924
875.848	0.0146190
875.926	0.0145567
876.004	0.0145129
876.082	0.0144562
876.160	0.0144708
876.238	0.0146515
876.317	0.0147159
876.395	0.0145382
876.473	0.0146438
876.551	0.0145760
876.629	0.0145181
876.707	0.0145997
876.785	0.0145456
876.863	0.0144061
876.942	0.0144393
877.020	0.0144250
877.098	0.0147130
877.176	0.0146800
877.254	0.0146131
877.332	0.0145441
877.410	0.0146780
877.488	0.0144855
877.567	0.0146037
877.645	0.0145512
877.723	0.0145721
877.801	0.0145502
877.879	0.0146015
877.957	0.0144781
878.035	0.0145249
878.113	0.0146094
878.192	0.0146622
878.270	0.0145911
878.348	0.0146548
878.426	0.0145764
878.504	0.0145625
878.582	0.0146032
878.660	0.0145251
878.738	0.0145625
878.817	0.0145867
878.895	0.0145218
878.973	0.0146701
879.051	0.0145774
879.129	0.0143393
879.207	0.0144959
879.285	0.0145616
879.363	0.0144615
879.442	0.0144168
879.520	0.0146977
879.598	0.0145722
879.676	0.0145718
879.754	0.0145937
879.832	0.0145016
879.910	0.0145790
879.988	0.0146160
880.067	0.0145478
880.145	0.0146892
880.223	0.0146058
880.301	0.0146687
880.379	0.0146439
880.457	0.0144379
880.535	0.0145145
880.613	0.0146463
880.692	0.0145527
880.770	0.0146758
880.848	0.0145701
880.926	0.0145676
881.004	0.0144973
881.082	0.0146001
881.160	0.0146158
881.238	0.0145836
881.317	0.0145293
881.395	0.0145391
881.473	0.0144411
881.551	0.0144921
881.629	0.0145060
881.707	0.0144251
881.785	0.0144711
881.863	0.0143654
881.942	0.0145244
882.020	0.0143606
882.098	0.0143658
882.176	0.0144205
882.254	0.0144143
882.332	0.0142984
882.410	0.0143642
882.488	0.0143272
882.567	0.0143959
882.645	0.0145308
882.723	0.0144113
882.801	0.0145157
882.879	0.0144674
882.957	0.0145579
883.035	0.0144836
883.113	0.0144653
883.192	0.0145079
883.270	0.0146018
883.348	0.0144629
883.426	0.0147164
883.504	0.0146394
883.582	0.0145653
883.660	0.0145072
883.738	0.0146056
883.817	0.0146424
883.895	0.0145853
883.973	0.0146492
884.051	0.0145752
884.129	0.0145571
884.207	0.0146445
884.285	0.0147157
884.363	0.0146105
884.442	0.0146065
884.520	0.0145990
884.598	0.0147166
884.676	0.0145478
884.754	0.0145944
884.832	0.0145663
884.910	0.0146272
884.988	0.0144980
885.067	0.0145607
885.145	0.0146362
885.223	0.0144996
885.301	0.0144030
885.379	0.0146571
885.457	0.0145080
885.535	0.0144453
885.613	0.0145336
885.692	0.0145575
885.770	0.0145767
885.848	0.0144942
885.926	0.0146178
886.004	0.0146520
886.082	0.0145060
886.160	0.0143382
886.238	0.0144051
886.317	0.0145030
886.395	0.0144959
886.473	0.0146413
886.551	0.0145820
886.629	0.0146170
886.707	0.0145147
886.785	0.0146220
886.863	0.0144968
886.942	0.0145084
887.020	0.0145461
887.098	0.0145446
887.176	0.0144584
887.254	0.0144930
887.332	0.0146188
887.410	0.0145868
887.488	0.0144012
887.567	0.0144213
887.645	0.0145978
887.723	0.0146159
887.801	0.0145620
887.879	0.0146260
887.957	0.0145255
888.035	0.0145063
888.113	0.0146715
888.192	0.0144381
888.270	0.0144820
888.348	0.0145840
888.426	0.0144852
888.504	0.0146220
888.582	0.0143867
888.660	0.0145703
888.738	0.0146437
888.817	0.0145080
888.895	0.0145278
888.973	0.0146283
889.051	0.0144510
889.129	0.0145177
889.207	0.0144052
889.285	0.0143845
889.363	0.0145613
889.442	0.0145852
889.520	0.0145719
889.598	0.0144920
889.676	0.0144829
889.754	0.0144176
889.832	0.0145238
889.910	0.0146137
889.988	0.0145551
890.067	0.0144836
890.145	0.0145717
890.223	0.0146297
890.301	0.0144366
890.379	0.0146326
890.457	0.0145625
890.535	0.0145629
890.613	0.0144825
890.692	0.0144466
890.770	0.0143980
890.848	0.0146127
890.926	0.0146365
891.004	0.0145776
891.082	0.0146031
891.160	0.0144604
891.238	0.0144779
891.317	0.0145329
891.395	0.0144617
891.473	0.0145593
891.551	0.0145259
891.629	0.0144762
891.707	0.0143755
891.785	0.0143865
891.863	0.0145685
891.942	0.0144114
892.020	0.0144244
892.098	0.0143373
892.176	0.0143558
892.254	0.0144674
892.332	0.0144260
892.410	0.0143955
892.488	0.0144508
892.567	0.0144643
892.645	0.0143282
892.723	0.0142919
892.801	0.0144097
892.879	0.0143491
892.957	0.0143336
893.035	0.0144388
893.113	0.0142931
893.192	0.0144050
893.270	0.0143436
893.348	0.0143199
893.426	0.0144088
893.504	0.0143611
893.582	0.0143284
893.660	0.0142831
893.738	0.0143260
893.817	0.0143101
893.895	0.0143135
893.973	0.0142700
894.051	0.0141893
894.129	0.0142846
894.207	0.0143624
894.285	0.0142551
894.363	0.0143734
894.442	0.0142059
894.520	0.0142754
894.598	0.0143356
894.676	0.0143188
894.754	0.0140788
894.832	0.0143350
894.910	0.0144455
894.988	0.0143623
895.067	0.0142824
895.145	0.0142547
895.223	0.0142725
895.301	0.0142105
895.379	0.0142221
895.457	0.0142106
895.535	0.0143316
895.613	0.0143376
895.692	0.0143227
895.770	0.0143922
895.848	0.0143198
895.926	0.0143775
896.004	0.0141965
896.082	0.0143422
896.160	0.0144362
896.238	0.0143922
896.317	0.0143188
896.395	0.0143572
896.473	0.0143842
896.551	0.0144867
896.629	0.0144408
896.707	0.0144117
896.785	0.0143841
896.863	0.0143693
896.942	0.0144450
897.020	0.0144808
897.098	0.0143822
897.176	0.0142495
897.254	0.0143750
897.332	0.0143712
897.410	0.0143309
897.488	0.0143900
897.567	0.0145023
897.645	0.0144439
897.723	0.0143035
897.801	0.0144284
897.879	0.0143213
897.957	0.0144366
898.035	0.0142987
898.113	0.0143925
898.192	0.0145204
898.270	0.0143913
898.348	0.0143143
898.426	0.0143233
898.504	0.0143192
898.582	0.0144109
898.660	0.0144685
898.738	0.0143099
898.817	0.0145559
898.895	0.0145212
898.973	0.0144124
899.051	0.0143599
899.129	0.0144852
899.207	0.0144461
899.285	0.0143780
899.363	0.0144640
899.442	0.0145746
899.520	0.0144478
899.598	0.0144393
899.676	0.0144785
899.754	0.0145097
899.832	0.0144824
899.910	0.0145335
899.988	0.0145710
900.067	0.0143993
900.145	0.0145082
900.223	0.0145222
900.301	0.0144769
900.379	0.0147518
900.457	0.0145662
900.535	0.0145394
900.613	0.0145055
900.692	0.0145161
900.770	0.0145642
900.848	0.0145757
900.926	0.0145121
901.004	0.0145766
901.082	0.0146126
901.160	0.0145979
901.238	0.0145064
901.317	0.0146083
901.395	0.0143944
901.473	0.0147038
901.551	0.0145631
901.629	0.0144179
901.707	0.0144842
901.785	0.0144153
901.863	0.0145963
901.942	0.0144308
902.020	0.0144744
902.098	0.0144373
902.176	0.0144667
902.254	0.0145065
902.332	0.0144602
902.410	0.0144290
902.488	0.0146166
902.567	0.0145179
902.645	0.0146075
902.723	0.0145858
902.801	0.0146453
902.879	0.0144755
902.957	0.0145373
903.035	0.0143660
903.113	0.0145314
903.192	0.0144658
903.270	0.0145667
903.348	0.0145091
903.426	0.0144704
903.504	0.0144933
903.582	0.0145760
903.660	0.0146059
903.738	0.0145219
903.817	0.0144621
903.895	0.0143685
903.973	0.0143835
904.051	0.0145100
904.129	0.0144286
904.207	0.0144592
904.285	0.0144872
904.363	0.0142966
904.442	0.0144404
904.520	0.0144433
904.598	0.0144408
904.676	0.0145462
904.754	0.0143959
904.832	0.0144410
904.910	0.0143712
904.988	0.0145292
905.067	0.0144843
905.145	0.0143589
905.223	0.0145281
905.301	0.0144244
905.379	0.0145467
905.457	0.0145183
905.535	0.0144819
905.613	0.0144397
905.692	0.0143488
905.770	0.0144416
905.848	0.0144368
905.926	0.0145234
906.004	0.0143169
906.082	0.0143513
906.160	0.0144180
906.238	0.0144815
906.317	0.0143904
906.395	0.0145102
906.473	0.0144667
906.551	0.0145248
906.629	0.0144810
906.707	0.0144460
906.785	0.0144019
906.863	0.0145100
906.942	0.0145379
907.020	0.0144958
907.098	0.0144756
907.176	0.0145337
907.254	0.0145624
907.332	0.0145641
907.410	0.0144313
907.488	0.0144121
907.567	0.0143626
907.645	0.0145399
907.723	0.0145892
907.801	0.0144492
907.879	0.0145275
907.957	0.0145733
908.035	0.0145170
908.113	0.0145354
908.192	0.0145776
908.270	0.0144342
908.348	0.0145694
908.426	0.0145365
908.504	0.0144368
908.582	0.0145950
908.660	0.0144884
908.738	0.0143778
908.817	0.0145442
908.895	0.0145811
908.973	0.0143830
909.051	0.0145283
909.129	0.0145454
909.207	0.0146108
909.285	0.0145419
909.363	0.0145355
909.442	0.0144557
909.520	0.0144566
909.598	0.0144869
909.676	0.0145038
909.754	0.0145361
909.832	0.0145675
909.910	0.0144519
909.988	0.0144883
910.067	0.0145332
910.145	0.0145461
910.223	0.0146835
910.301	0.0145487
910.379	0.0145480
910.457	0.0146500
910.535	0.0145344
910.613	0.0147046
910.692	0.0146572
910.770	0.0145469
910.848	0.0145330
910.926	0.0146362
911.004	0.0145223
911.082	0.0146719
911.160	0.0148306
911.238	0.0145337
911.317	0.0145201
911.395	0.0146033
911.473	0.0144810
911.551	0.0144006
911.629	0.0145574
911.707	0.0143966
911.785	0.0143935
911.863	0.0143819
911.942	0.0143551
912.020	0.0143326
912.098	0.0143195
912.176	0.0143595
912.254	0.0143345
912.332	0.0143342
912.410	0.0143270
912.488	0.0143028
912.567	0.0143696
912.645	0.0144465
912.723	0.0143679
912.801	0.0144935
912.879	0.0144209
912.957	0.0143441
913.035	0.0144115
913.113	0.0143339
913.192	0.0144564
913.270	0.0144093
913.348	0.0145833
913.426	0.0144775
913.504	0.0143824
913.582	0.0144775
913.660	0.0145480
913.738	0.0144126
913.817	0.0145144
913.895	0.0144289
913.973	0.0144019
914.051	0.0144437
914.129	0.0142704
914.207	0.0143188
914.285	0.0143950
914.363	0.0143330
914.442	0.0142170
914.520	0.0142948
914.598	0.0143819
914.676	0.0143176
914.754	0.0143663
914.832	0.0142326
914.910	0.0142611
914.988	0.0141788
915.067	0.0144094
915.145	0.0143390
915.223	0.0142564
915.301	0.0143410
915.379	0.0144149
915.457	0.0142085
915.535	0.0143153
915.613	0.0143810
915.692	0.0143616
915.770	0.0143802
915.848	0.0143019
915.926	0.0143413
916.004	0.0145417
916.082	0.0144349
916.160	0.0143938
916.238	0.0143952
916.317	0.0142866
916.395	0.0144002
916.473	0.0144210
916.551	0.0145052
916.629	0.0144334
916.707	0.0145262
916.785	0.0145786
916.863	0.0143836
916.942	0.0144003
917.020	0.0144347
917.098	0.0143940
917.176	0.0145817
917.254	0.0145498
917.332	0.0144670
917.410	0.0145118
917.488	0.0144179
917.567	0.0143922
917.645	0.0145078
917.723	0.0144199
917.801	0.0144529
917.879	0.0144214
917.957	0.0144534
918.035	0.0144247
918.113	0.0145030
918.192	0.0143858
918.270	0.0144006
918.348	0.0143950
918.426	0.0145234
918.504	0.0145243
918.582	0.0143802
918.660	0.0144804
918.738	0.0144311
918.817	0.0145423
918.895	0.0144669
918.973	0.0144598
919.051	0.0144382
919.129	0.0145156
919.207	0.0145210
919.285	0.0144728
919.363	0.0144750
919.442	0.0144112
919.520	0.0144382
919.598	0.0143791
919.676	0.0143997
919.754	0.0143853
919.832	0.0144213
919.910	0.0144132
