05/28/2022	14:32:57	Ver.	4.1	UNKNOWN
Optical Delay	599.988409	Delta X		0.078125	Sweeps	1	Scan Rate	0/0
Coordinates	Axis 1	NaN	Axis 2	NaN	Axis 3	NaN	Axis 4	NaN	Axis 5	NaN	Axis 6	0.000000
TX Power	0.000000	RX Power	0.000000

599.988	0.0141502
600.067	0.0141903
600.145	0.0143500
600.223	0.0141340
600.301	0.0143414
600.379	0.0143230
600.457	0.0143967
600.535	0.0142462
600.613	0.0142718
600.692	0.0142633
600.770	0.0142612
600.848	0.0141985
600.926	0.0144058
601.004	0.0143453
601.082	0.0142993
601.160	0.0142815
601.238	0.0142554
601.317	0.0142478
601.395	0.0141670
601.473	0.0143147
601.551	0.0142926
601.629	0.0143399
601.707	0.0143803
601.785	0.0142990
601.863	0.0142736
601.942	0.0143926
602.020	0.0142818
602.098	0.0141754
602.176	0.0142548
602.254	0.0142535
602.332	0.0142581
602.410	0.0141740
602.488	0.0141869
602.567	0.0142712
602.645	0.0143547
602.723	0.0142445
602.801	0.0142001
602.879	0.0142950
602.957	0.0142200
603.035	0.0142824
603.113	0.0141401
603.192	0.0143263
603.270	0.0142028
603.348	0.0142097
603.426	0.0143078
603.504	0.0142860
603.582	0.0143047
603.660	0.0142682
603.738	0.0143012
603.817	0.0142312
603.895	0.0143809
603.973	0.0142793
604.051	0.0142159
604.129	0.0142041
604.207	0.0141670
604.285	0.0142963
604.363	0.0142454
604.442	0.0143475
604.520	0.0142880
604.598	0.0142347
604.676	0.0142448
604.754	0.0143109
604.832	0.0142998
604.910	0.0142634
604.988	0.0143101
605.067	0.0143606
605.145	0.0142511
605.223	0.0141903
605.301	0.0142342
605.379	0.0142339
605.457	0.0142878
605.535	0.0142208
605.613	0.0142778
605.692	0.0141764
605.770	0.0142239
605.848	0.0142648
605.926	0.0142617
606.004	0.0140681
606.082	0.0141843
606.160	0.0142965
606.238	0.0141976
606.317	0.0142470
606.395	0.0141875
606.473	0.0141138
606.551	0.0142346
606.629	0.0142024
606.707	0.0141922
606.785	0.0141806
606.863	0.0142497
606.942	0.0141438
607.020	0.0140816
607.098	0.0142480
607.176	0.0140777
607.254	0.0141545
607.332	0.0140974
607.410	0.0141871
607.488	0.0142372
607.567	0.0142859
607.645	0.0140884
607.723	0.0142836
607.801	0.0141203
607.879	0.0140175
607.957	0.0142399
608.035	0.0141647
608.113	0.0141568
608.192	0.0142839
608.270	0.0142249
608.348	0.0143750
608.426	0.0141474
608.504	0.0142307
608.582	0.0142548
608.660	0.0141010
608.738	0.0142341
608.817	0.0142144
608.895	0.0142215
608.973	0.0142530
609.051	0.0144352
609.129	0.0141533
609.207	0.0141658
609.285	0.0143152
609.363	0.0142446
609.442	0.0142543
609.520	0.0142159
609.598	0.0142544
609.676	0.0143122
609.754	0.0143346
609.832	0.0142318
609.910	0.0142533
609.988	0.0142686
610.067	0.0142379
610.145	0.0142918
610.223	0.0142838
610.301	0.0142569
610.379	0.0143732
610.457	0.0144405
610.535	0.0142533
610.613	0.0141588
610.692	0.0142630
610.770	0.0143058
610.848	0.0141845
610.926	0.0142003
611.004	0.0143499
611.082	0.0142894
611.160	0.0143803
611.238	0.0142618
611.317	0.0143391
611.395	0.0142105
611.473	0.0142343
611.551	0.0142147
611.629	0.0142477
611.707	0.0143928
611.785	0.0143758
611.863	0.0142184
611.942	0.0143285
612.020	0.0143346
612.098	0.0142641
612.176	0.0142363
612.254	0.0143597
612.332	0.0142374
612.410	0.0142562
612.488	0.0142612
612.567	0.0141532
612.645	0.0143665
612.723	0.0140913
612.801	0.0142201
612.879	0.0142959
612.957	0.0143477
613.035	0.0141818
613.113	0.0140078
613.192	0.0140386
613.270	0.0141466
613.348	0.0141632
613.426	0.0143227
613.504	0.0141984
613.582	0.0142342
613.660	0.0142142
613.738	0.0141009
613.817	0.0142058
613.895	0.0141899
613.973	0.0142196
614.051	0.0142038
614.129	0.0142061
614.207	0.0142490
614.285	0.0142155
614.363	0.0141579
614.442	0.0140913
614.520	0.0140732
614.598	0.0141752
614.676	0.0141322
614.754	0.0142262
614.832	0.0141201
614.910	0.0141338
614.988	0.0141978
615.067	0.0141175
615.145	0.0141621
615.223	0.0141048
615.301	0.0142101
615.379	0.0141399
615.457	0.0141743
615.535	0.0141776
615.613	0.0142680
615.692	0.0141830
615.770	0.0141969
615.848	0.0143301
615.926	0.0143347
616.004	0.0142291
616.082	0.0141625
616.160	0.0143667
616.238	0.0142091
616.317	0.0142558
616.395	0.0142131
616.473	0.0143236
616.551	0.0141919
616.629	0.0141689
616.707	0.0141677
616.785	0.0143559
616.863	0.0142079
616.942	0.0141542
617.020	0.0140644
617.098	0.0141608
617.176	0.0142326
617.254	0.0140932
617.332	0.0140341
617.410	0.0141257
617.488	0.0141515
617.567	0.0141461
617.645	0.0141478
617.723	0.0141205
617.801	0.0141963
617.879	0.0140486
617.957	0.0140156
618.035	0.0141441
618.113	0.0140852
618.192	0.0141571
618.270	0.0141715
618.348	0.0142212
618.426	0.0141462
618.504	0.0140923
618.582	0.0142421
618.660	0.0142521
618.738	0.0141058
618.817	0.0141413
618.895	0.0141598
618.973	0.0140984
619.051	0.0142928
619.129	0.0141608
619.207	0.0142226
619.285	0.0142327
619.363	0.0141877
619.442	0.0143019
619.520	0.0142184
619.598	0.0142352
619.676	0.0142067
619.754	0.0141714
619.832	0.0141312
619.910	0.0142219
619.988	0.0141833
620.067	0.0141982
620.145	0.0142355
620.223	0.0140769
620.301	0.0142278
620.379	0.0142233
620.457	0.0141647
620.535	0.0142850
620.613	0.0142863
620.692	0.0141293
620.770	0.0140530
620.848	0.0141931
620.926	0.0141801
621.004	0.0142207
621.082	0.0141500
621.160	0.0140836
621.238	0.0141766
621.317	0.0142995
621.395	0.0140726
621.473	0.0140881
621.551	0.0140786
621.629	0.0141880
621.707	0.0142372
621.785	0.0141264
621.863	0.0140980
621.942	0.0142078
622.020	0.0142738
622.098	0.0141842
622.176	0.0141467
622.254	0.0142892
622.332	0.0142283
622.410	0.0143077
622.488	0.0142559
622.567	0.0142252
622.645	0.0142197
622.723	0.0142550
622.801	0.0142361
622.879	0.0142387
622.957	0.0144385
623.035	0.0143169
623.113	0.0143766
623.192	0.0142075
623.270	0.0142557
623.348	0.0142065
623.426	0.0142914
623.504	0.0141920
623.582	0.0141389
623.660	0.0142258
623.738	0.0142310
623.817	0.0142404
623.895	0.0142513
623.973	0.0140026
624.051	0.0141743
624.129	0.0142612
624.207	0.0141541
624.285	0.0140835
624.363	0.0141983
624.442	0.0141706
624.520	0.0141196
624.598	0.0141093
624.676	0.0141733
624.754	0.0142567
624.832	0.0141790
624.910	0.0140868
624.988	0.0140788
625.067	0.0141058
625.145	0.0141949
625.223	0.0141241
625.301	0.0141702
625.379	0.0139940
625.457	0.0141411
625.535	0.0142527
625.613	0.0143323
625.692	0.0143575
625.770	0.0142310
625.848	0.0143916
625.926	0.0143862
626.004	0.0145718
626.082	0.0144323
626.160	0.0145081
626.238	0.0145425
626.317	0.0146053
626.395	0.0144565
626.473	0.0145454
626.551	0.0144711
626.629	0.0144668
626.707	0.0146143
626.785	0.0144816
626.863	0.0144324
626.942	0.0144608
627.020	0.0142722
627.098	0.0143306
627.176	0.0143262
627.254	0.0142304
627.332	0.0142239
627.410	0.0143282
627.488	0.0144063
627.567	0.0141388
627.645	0.0143038
627.723	0.0144113
627.801	0.0144864
627.879	0.0145147
627.957	0.0145581
628.035	0.0144640
628.113	0.0145465
628.192	0.0145454
628.270	0.0144134
628.348	0.0146875
628.426	0.0146335
628.504	0.0145312
628.582	0.0143645
628.660	0.0145890
628.738	0.0145139
628.817	0.0144167
628.895	0.0144891
628.973	0.0144668
629.051	0.0142874
629.129	0.0141673
629.207	0.0143004
629.285	0.0140995
629.363	0.0141743
629.442	0.0140488
629.520	0.0139500
629.598	0.0139220
629.676	0.0138682
629.754	0.0137888
629.832	0.0137126
629.910	0.0137005
629.988	0.0138654
630.067	0.0137382
630.145	0.0135793
630.223	0.0136043
630.301	0.0137936
630.379	0.0137719
630.457	0.0137266
630.535	0.0138501
630.613	0.0139236
630.692	0.0140855
630.770	0.0141173
630.848	0.0141171
630.926	0.0141483
631.004	0.0141972
631.082	0.0141818
631.160	0.0142525
631.238	0.0143052
631.317	0.0144331
631.395	0.0145206
631.473	0.0143698
631.551	0.0142770
631.629	0.0143938
631.707	0.0143187
631.785	0.0142772
631.863	0.0142558
631.942	0.0142372
632.020	0.0142643
632.098	0.0142989
632.176	0.0142588
632.254	0.0143394
632.332	0.0140747
632.410	0.0141640
632.488	0.0140849
632.567	0.0141216
632.645	0.0141500
632.723	0.0141203
632.801	0.0141804
632.879	0.0140868
632.957	0.0141415
633.035	0.0141898
633.113	0.0141991
633.192	0.0142486
633.270	0.0142389
633.348	0.0143178
633.426	0.0144012
633.504	0.0142908
633.582	0.0142042
633.660	0.0142059
633.738	0.0143221
633.817	0.0143732
633.895	0.0142104
633.973	0.0143065
634.051	0.0142185
634.129	0.0142369
634.207	0.0141497
634.285	0.0143600
634.363	0.0141849
634.442	0.0140774
634.520	0.0141248
634.598	0.0142215
634.676	0.0141254
634.754	0.0140877
634.832	0.0140897
634.910	0.0141106
634.988	0.0139516
635.067	0.0141331
635.145	0.0142869
635.223	0.0141322
635.301	0.0141966
635.379	0.0142393
635.457	0.0142704
635.535	0.0141675
635.613	0.0143727
635.692	0.0144593
635.770	0.0143842
635.848	0.0145112
635.926	0.0144908
636.004	0.0146005
636.082	0.0146523
636.160	0.0145982
636.238	0.0146411
636.317	0.0145860
636.395	0.0146428
636.473	0.0146275
636.551	0.0146885
636.629	0.0145928
636.707	0.0146410
636.785	0.0146946
636.863	0.0146719
636.942	0.0146610
637.020	0.0146253
637.098	0.0146298
637.176	0.0146318
637.254	0.0144901
637.332	0.0145316
637.410	0.0144829
637.488	0.0145053
637.567	0.0144209
637.645	0.0142632
637.723	0.0143517
637.801	0.0143005
637.879	0.0142201
637.957	0.0143176
638.035	0.0142698
638.113	0.0142694
638.192	0.0141695
638.270	0.0141629
638.348	0.0141016
638.426	0.0140318
638.504	0.0142352
638.582	0.0142426
638.660	0.0142382
638.738	0.0142316
638.817	0.0140450
638.895	0.0140781
638.973	0.0142071
639.051	0.0141576
639.129	0.0140812
639.207	0.0141077
639.285	0.0141588
639.363	0.0140049
639.442	0.0141087
639.520	0.0141737
639.598	0.0142207
639.676	0.0139661
639.754	0.0142081
639.832	0.0140988
639.910	0.0142107
639.988	0.0141814
640.067	0.0141373
640.145	0.0142287
640.223	0.0143325
640.301	0.0142634
640.379	0.0142267
640.457	0.0142966
640.535	0.0143662
640.613	0.0143622
640.692	0.0141566
640.770	0.0142310
640.848	0.0141589
640.926	0.0143174
641.004	0.0145047
641.082	0.0144300
641.160	0.0143104
641.238	0.0143677
641.317	0.0143341
641.395	0.0142078
641.473	0.0142644
641.551	0.0143195
641.629	0.0143647
641.707	0.0142710
641.785	0.0142200
641.863	0.0141489
641.942	0.0142860
642.020	0.0142254
642.098	0.0142812
642.176	0.0143713
642.254	0.0144152
642.332	0.0142711
642.410	0.0142976
642.488	0.0145069
642.567	0.0143741
642.645	0.0143533
642.723	0.0144206
642.801	0.0143948
642.879	0.0143723
642.957	0.0144516
643.035	0.0144594
643.113	0.0144502
643.192	0.0143723
643.270	0.0143190
643.348	0.0144937
643.426	0.0144189
643.504	0.0143931
643.582	0.0142962
643.660	0.0141351
643.738	0.0141840
643.817	0.0143336
643.895	0.0141930
643.973	0.0141049
644.051	0.0141823
644.129	0.0142239
644.207	0.0141081
644.285	0.0142553
644.363	0.0142627
644.442	0.0141570
644.520	0.0142545
644.598	0.0141856
644.676	0.0142097
644.754	0.0142832
644.832	0.0142242
644.910	0.0142652
644.988	0.0142905
645.067	0.0142435
645.145	0.0143145
645.223	0.0143127
645.301	0.0142608
645.379	0.0141912
645.457	0.0142832
645.535	0.0143217
645.613	0.0143826
645.692	0.0144933
645.770	0.0143712
645.848	0.0144681
645.926	0.0146154
646.004	0.0145248
646.082	0.0144794
646.160	0.0146369
646.238	0.0146355
646.317	0.0146949
646.395	0.0146187
646.473	0.0146336
646.551	0.0144345
646.629	0.0146687
646.707	0.0143839
646.785	0.0143722
646.863	0.0141926
646.942	0.0142561
647.020	0.0141881
647.098	0.0140649
647.176	0.0140817
647.254	0.0139917
647.332	0.0140289
647.410	0.0139728
647.488	0.0139729
647.567	0.0139869
647.645	0.0141087
647.723	0.0139794
647.801	0.0140230
647.879	0.0140253
647.957	0.0140393
648.035	0.0140462
648.113	0.0139031
648.192	0.0140883
648.270	0.0140971
648.348	0.0142328
648.426	0.0141993
648.504	0.0140703
648.582	0.0140878
648.660	0.0140010
648.738	0.0139972
648.817	0.0140907
648.895	0.0140884
648.973	0.0140369
649.051	0.0141477
649.129	0.0140269
649.207	0.0141503
649.285	0.0143492
649.363	0.0141891
649.442	0.0142824
649.520	0.0142929
649.598	0.0143317
649.676	0.0143185
649.754	0.0142716
649.832	0.0143178
649.910	0.0143539
649.988	0.0142696
650.067	0.0144141
650.145	0.0143966
650.223	0.0142728
650.301	0.0142990
650.379	0.0142961
650.457	0.0142218
650.535	0.0142852
650.613	0.0142550
650.692	0.0142996
650.770	0.0142757
650.848	0.0142578
650.926	0.0141505
651.004	0.0141920
651.082	0.0141106
651.160	0.0140677
651.238	0.0142409
651.317	0.0141270
651.395	0.0140470
651.473	0.0140007
651.551	0.0139982
651.629	0.0139435
651.707	0.0141160
651.785	0.0139671
651.863	0.0139777
651.942	0.0138912
652.020	0.0139980
652.098	0.0139079
652.176	0.0138955
652.254	0.0138744
652.332	0.0138161
652.410	0.0137391
652.488	0.0137507
652.567	0.0137302
652.645	0.0135345
652.723	0.0135674
652.801	0.0137611
652.879	0.0136361
652.957	0.0136156
653.035	0.0138329
653.113	0.0137138
653.192	0.0138519
653.270	0.0138470
653.348	0.0139552
653.426	0.0139256
653.504	0.0140572
653.582	0.0140848
653.660	0.0141312
653.738	0.0143362
653.817	0.0143200
653.895	0.0143670
653.973	0.0145312
654.051	0.0145071
654.129	0.0144533
654.207	0.0145321
654.285	0.0145830
654.363	0.0144566
654.442	0.0145396
654.520	0.0144374
654.598	0.0144072
654.676	0.0144482
654.754	0.0143788
654.832	0.0143382
654.910	0.0143950
654.988	0.0143297
655.067	0.0141829
655.145	0.0143164
655.223	0.0141933
655.301	0.0141667
655.379	0.0141566
655.457	0.0140930
655.535	0.0141308
655.613	0.0143307
655.692	0.0141627
655.770	0.0141105
655.848	0.0142464
655.926	0.0142825
656.004	0.0142195
656.082	0.0143879
656.160	0.0143252
656.238	0.0144138
656.317	0.0143291
656.395	0.0143868
656.473	0.0144304
656.551	0.0145679
656.629	0.0144318
656.707	0.0144433
656.785	0.0143697
656.863	0.0145973
656.942	0.0144756
657.020	0.0144013
657.098	0.0144614
657.176	0.0143990
657.254	0.0143063
657.332	0.0144928
657.410	0.0143126
657.488	0.0144177
657.567	0.0143104
657.645	0.0142326
657.723	0.0143857
657.801	0.0143633
657.879	0.0142866
657.957	0.0142308
658.035	0.0142761
658.113	0.0143522
658.192	0.0141992
658.270	0.0144203
658.348	0.0143742
658.426	0.0142249
658.504	0.0143314
658.582	0.0141920
658.660	0.0142764
658.738	0.0143222
658.817	0.0141785
658.895	0.0142583
658.973	0.0142049
659.051	0.0142554
659.129	0.0142360
659.207	0.0142418
659.285	0.0141560
659.363	0.0141547
659.442	0.0143092
659.520	0.0142534
659.598	0.0143439
659.676	0.0144051
659.754	0.0144565
659.832	0.0146631
659.910	0.0145136
659.988	0.0145552
660.067	0.0144641
660.145	0.0145782
660.223	0.0145783
660.301	0.0145998
660.379	0.0147184
660.457	0.0146677
660.535	0.0147340
660.613	0.0146852
660.692	0.0146622
660.770	0.0145943
660.848	0.0145229
660.926	0.0146532
661.004	0.0147196
661.082	0.0145640
661.160	0.0144904
661.238	0.0144420
661.317	0.0144925
661.395	0.0143591
661.473	0.0144245
661.551	0.0144167
661.629	0.0142981
661.707	0.0143109
661.785	0.0143609
661.863	0.0143091
661.942	0.0142058
662.020	0.0142084
662.098	0.0142428
662.176	0.0140160
662.254	0.0139662
662.332	0.0141151
662.410	0.0142476
662.488	0.0140038
662.567	0.0138433
662.645	0.0138611
662.723	0.0138177
662.801	0.0138873
662.879	0.0137720
662.957	0.0138406
663.035	0.0138868
663.113	0.0137619
663.192	0.0137493
663.270	0.0137329
663.348	0.0138008
663.426	0.0137736
663.504	0.0138329
663.582	0.0138638
663.660	0.0139034
663.738	0.0139351
663.817	0.0139913
663.895	0.0138689
663.973	0.0139334
664.051	0.0140968
664.129	0.0142030
664.207	0.0141236
664.285	0.0142377
664.363	0.0142710
664.442	0.0142251
664.520	0.0142700
664.598	0.0143284
664.676	0.0143499
664.754	0.0144181
664.832	0.0145377
664.910	0.0146349
664.988	0.0146536
665.067	0.0146904
665.145	0.0147446
665.223	0.0147417
665.301	0.0148675
665.379	0.0149696
665.457	0.0148865
665.535	0.0149284
665.613	0.0147606
665.692	0.0147803
665.770	0.0148296
665.848	0.0148979
665.926	0.0148295
666.004	0.0146735
666.082	0.0146478
666.160	0.0147375
666.238	0.0144606
666.317	0.0143919
666.395	0.0145318
666.473	0.0145010
666.551	0.0144064
666.629	0.0144263
666.707	0.0143448
666.785	0.0141972
666.863	0.0142397
666.942	0.0143156
667.020	0.0141537
667.098	0.0142215
667.176	0.0143558
667.254	0.0142242
667.332	0.0142111
667.410	0.0142451
667.488	0.0142691
667.567	0.0141991
667.645	0.0142330
667.723	0.0142923
667.801	0.0142481
667.879	0.0143281
667.957	0.0144052
668.035	0.0143490
668.113	0.0143163
668.192	0.0141769
668.270	0.0141838
668.348	0.0141724
668.426	0.0142970
668.504	0.0143100
668.582	0.0142769
668.660	0.0141965
668.738	0.0141383
668.817	0.0141763
668.895	0.0143176
668.973	0.0144036
669.051	0.0143507
669.129	0.0143004
669.207	0.0143824
669.285	0.0144454
669.363	0.0143147
669.442	0.0145135
669.520	0.0145972
669.598	0.0145557
669.676	0.0146470
669.754	0.0146687
669.832	0.0146726
669.910	0.0147212
669.988	0.0146861
670.067	0.0147015
670.145	0.0145434
670.223	0.0146831
670.301	0.0146075
670.379	0.0145800
670.457	0.0145506
670.535	0.0144451
670.613	0.0144056
670.692	0.0144257
670.770	0.0142493
670.848	0.0141511
670.926	0.0141212
671.004	0.0140987
671.082	0.0140384
671.160	0.0139205
671.238	0.0138052
671.317	0.0138397
671.395	0.0139120
671.473	0.0138275
671.551	0.0139212
671.629	0.0138371
671.707	0.0138408
671.785	0.0139120
671.863	0.0139197
671.942	0.0139796
672.020	0.0138624
672.098	0.0139876
672.176	0.0142590
672.254	0.0141611
672.332	0.0139460
672.410	0.0140998
672.488	0.0142364
672.567	0.0140440
672.645	0.0140324
672.723	0.0139062
672.801	0.0140106
672.879	0.0139857
672.957	0.0140186
673.035	0.0139455
673.113	0.0139242
673.192	0.0139729
673.270	0.0138456
673.348	0.0139460
673.426	0.0139692
673.504	0.0139870
673.582	0.0139713
673.660	0.0139812
673.738	0.0139651
673.817	0.0139569
673.895	0.0139106
673.973	0.0141328
674.051	0.0139526
674.129	0.0138010
674.207	0.0140804
674.285	0.0141673
674.363	0.0140775
674.442	0.0139703
674.520	0.0140418
674.598	0.0141792
674.676	0.0141425
674.754	0.0141629
674.832	0.0141699
674.910	0.0142301
674.988	0.0143260
675.067	0.0142448
675.145	0.0142352
675.223	0.0142721
675.301	0.0142928
675.379	0.0145142
675.457	0.0144448
675.535	0.0144638
675.613	0.0142894
675.692	0.0144385
675.770	0.0142300
675.848	0.0143454
675.926	0.0143391
676.004	0.0142403
676.082	0.0142123
676.160	0.0140397
676.238	0.0141096
676.317	0.0140080
676.395	0.0140160
676.473	0.0136974
676.551	0.0137849
676.629	0.0137058
676.707	0.0135970
676.785	0.0135072
676.863	0.0136952
676.942	0.0137060
677.020	0.0135494
677.098	0.0136534
677.176	0.0137000
677.254	0.0136809
677.332	0.0137053
677.410	0.0138931
677.488	0.0136790
677.567	0.0137954
677.645	0.0139173
677.723	0.0139866
677.801	0.0139592
677.879	0.0140771
677.957	0.0142355
678.035	0.0142732
678.113	0.0142963
678.192	0.0143961
678.270	0.0144113
678.348	0.0144978
678.426	0.0145717
678.504	0.0145922
678.582	0.0147065
678.660	0.0146597
678.738	0.0146523
678.817	0.0147236
678.895	0.0147092
678.973	0.0147999
679.051	0.0147833
679.129	0.0148857
679.207	0.0148133
679.285	0.0148217
679.363	0.0146994
679.442	0.0146740
679.520	0.0147900
679.598	0.0145699
679.676	0.0146348
679.754	0.0144382
679.832	0.0144931
679.910	0.0144130
679.988	0.0143990
680.067	0.0143136
680.145	0.0142040
680.223	0.0141952
680.301	0.0141059
680.379	0.0142075
680.457	0.0142722
680.535	0.0141058
680.613	0.0141092
680.692	0.0141302
680.770	0.0141602
680.848	0.0140793
680.926	0.0141017
681.004	0.0140704
681.082	0.0140283
681.160	0.0139738
681.238	0.0141035
681.317	0.0139822
681.395	0.0139517
681.473	0.0139452
681.551	0.0140305
681.629	0.0140658
681.707	0.0140749
681.785	0.0139703
681.863	0.0139617
681.942	0.0138869
682.020	0.0138552
682.098	0.0138835
682.176	0.0140151
682.254	0.0139722
682.332	0.0139886
682.410	0.0139164
682.488	0.0140604
682.567	0.0141203
682.645	0.0139924
682.723	0.0142138
682.801	0.0142046
682.879	0.0142533
682.957	0.0144064
683.035	0.0143916
683.113	0.0144808
683.192	0.0146956
683.270	0.0147335
683.348	0.0148035
683.426	0.0148374
683.504	0.0148958
683.582	0.0149528
683.660	0.0150942
683.738	0.0149868
683.817	0.0150353
683.895	0.0151548
683.973	0.0151141
684.051	0.0150182
684.129	0.0149973
684.207	0.0149937
684.285	0.0151107
684.363	0.0148079
684.442	0.0146606
684.520	0.0147987
684.598	0.0146837
684.676	0.0144493
684.754	0.0144608
684.832	0.0145219
684.910	0.0141833
684.988	0.0140736
685.067	0.0141149
685.145	0.0138870
685.223	0.0139236
685.301	0.0137020
685.379	0.0135961
685.457	0.0136642
685.535	0.0138127
685.613	0.0136214
685.692	0.0137046
685.770	0.0136845
685.848	0.0136860
685.926	0.0136985
686.004	0.0137774
686.082	0.0138319
686.160	0.0138371
686.238	0.0137768
686.317	0.0138337
686.395	0.0139574
686.473	0.0138568
686.551	0.0140980
686.629	0.0140090
686.707	0.0141113
686.785	0.0142622
686.863	0.0142295
686.942	0.0143318
687.020	0.0143189
687.098	0.0141920
687.176	0.0142133
687.254	0.0142497
687.332	0.0143005
687.410	0.0142293
687.488	0.0140735
687.567	0.0142835
687.645	0.0143648
687.723	0.0144186
687.801	0.0144873
687.879	0.0145587
687.957	0.0145167
688.035	0.0144993
688.113	0.0147258
688.192	0.0146912
688.270	0.0147071
688.348	0.0148253
688.426	0.0147181
688.504	0.0147278
688.582	0.0146986
688.660	0.0146952
688.738	0.0146933
688.817	0.0147785
688.895	0.0146752
688.973	0.0145601
689.051	0.0145073
689.129	0.0145689
689.207	0.0145582
689.285	0.0144766
689.363	0.0143075
689.442	0.0141154
689.520	0.0141221
689.598	0.0141384
689.676	0.0140324
689.754	0.0141360
689.832	0.0138976
689.910	0.0139064
689.988	0.0139064
690.067	0.0139722
690.145	0.0139439
690.223	0.0139726
690.301	0.0138450
690.379	0.0138298
690.457	0.0138615
690.535	0.0139713
690.613	0.0138281
690.692	0.0138154
690.770	0.0139429
690.848	0.0139989
690.926	0.0139389
691.004	0.0138342
691.082	0.0137522
691.160	0.0136871
691.238	0.0137775
691.317	0.0136228
691.395	0.0137876
691.473	0.0137091
691.551	0.0137357
691.629	0.0137123
691.707	0.0136403
691.785	0.0136870
691.863	0.0137412
691.942	0.0136821
692.020	0.0137392
692.098	0.0139178
692.176	0.0139479
692.254	0.0139671
692.332	0.0141591
692.410	0.0143531
692.488	0.0141919
692.567	0.0142982
692.645	0.0143633
692.723	0.0145157
692.801	0.0146385
692.879	0.0146522
692.957	0.0146053
693.035	0.0147260
693.113	0.0147839
693.192	0.0147193
693.270	0.0146619
693.348	0.0146784
693.426	0.0147669
693.504	0.0148958
693.582	0.0148628
693.660	0.0148119
693.738	0.0147802
693.817	0.0146614
693.895	0.0147423
693.973	0.0146860
694.051	0.0147617
694.129	0.0148100
694.207	0.0145139
694.285	0.0143990
694.363	0.0142645
694.442	0.0142655
694.520	0.0142207
694.598	0.0141005
694.676	0.0141733
694.754	0.0139796
694.832	0.0138706
694.910	0.0137902
694.988	0.0136727
695.067	0.0137852
695.145	0.0135098
695.223	0.0133565
695.301	0.0134612
695.379	0.0134438
695.457	0.0133469
695.535	0.0134229
695.613	0.0133915
695.692	0.0132285
695.770	0.0133403
695.848	0.0132913
695.926	0.0134460
696.004	0.0135225
696.082	0.0135258
696.160	0.0135619
696.238	0.0136735
696.317	0.0137397
696.395	0.0139097
696.473	0.0139613
696.551	0.0138222
696.629	0.0140508
696.707	0.0142011
696.785	0.0142236
696.863	0.0144630
696.942	0.0143657
697.020	0.0145216
697.098	0.0145719
697.176	0.0145315
697.254	0.0146742
697.332	0.0147328
697.410	0.0147083
697.488	0.0148682
697.567	0.0149347
697.645	0.0148305
697.723	0.0149181
697.801	0.0147850
697.879	0.0148595
697.957	0.0148628
698.035	0.0148187
698.113	0.0148460
698.192	0.0147590
698.270	0.0147017
698.348	0.0146302
698.426	0.0145050
698.504	0.0147662
698.582	0.0147060
698.660	0.0145838
698.738	0.0145473
698.817	0.0144907
698.895	0.0143831
698.973	0.0143317
699.051	0.0143087
699.129	0.0142919
699.207	0.0141415
699.285	0.0141524
699.363	0.0141640
699.442	0.0139664
699.520	0.0140120
699.598	0.0139692
699.676	0.0137511
699.754	0.0138541
699.832	0.0137600
699.910	0.0137910
699.988	0.0140567
700.067	0.0139310
700.145	0.0138061
700.223	0.0138223
700.301	0.0136820
700.379	0.0136315
700.457	0.0136603
700.535	0.0135420
700.613	0.0136645
700.692	0.0136183
700.770	0.0137817
700.848	0.0137872
700.926	0.0138596
701.004	0.0138638
701.082	0.0138772
701.160	0.0138628
701.238	0.0141263
701.317	0.0141745
701.395	0.0141488
701.473	0.0140189
701.551	0.0143357
701.629	0.0144176
701.707	0.0143443
701.785	0.0142876
701.863	0.0145394
701.942	0.0143922
702.020	0.0143703
702.098	0.0145534
702.176	0.0145463
702.254	0.0144272
702.332	0.0144440
702.410	0.0145380
702.488	0.0144221
702.567	0.0145153
702.645	0.0144958
702.723	0.0142969
702.801	0.0143478
702.879	0.0142545
702.957	0.0144823
703.035	0.0144408
703.113	0.0142152
703.192	0.0144147
703.270	0.0144313
703.348	0.0143343
703.426	0.0141566
703.504	0.0141466
703.582	0.0142365
703.660	0.0144196
703.738	0.0142020
703.817	0.0142279
703.895	0.0142271
703.973	0.0143913
704.051	0.0142422
704.129	0.0141756
704.207	0.0141898
704.285	0.0142357
704.363	0.0141373
704.442	0.0143667
704.520	0.0143369
704.598	0.0142381
704.676	0.0142191
704.754	0.0142294
704.832	0.0141170
704.910	0.0140022
704.988	0.0140843
705.067	0.0140842
705.145	0.0140836
705.223	0.0140496
705.301	0.0140504
705.379	0.0140505
705.457	0.0139652
705.535	0.0140006
705.613	0.0139429
705.692	0.0139952
705.770	0.0140858
705.848	0.0140227
705.926	0.0139401
706.004	0.0140306
706.082	0.0140668
706.160	0.0140981
706.238	0.0140138
706.317	0.0141508
706.395	0.0141403
706.473	0.0142516
706.551	0.0141187
706.629	0.0142524
706.707	0.0141593
706.785	0.0141576
706.863	0.0143668
706.942	0.0144064
707.020	0.0143797
707.098	0.0144231
707.176	0.0144222
707.254	0.0145741
707.332	0.0143192
707.410	0.0144215
707.488	0.0144506
707.567	0.0144906
707.645	0.0144335
707.723	0.0143295
707.801	0.0142919
707.879	0.0144386
707.957	0.0143741
708.035	0.0143125
708.113	0.0143106
708.192	0.0141800
708.270	0.0141810
708.348	0.0141711
708.426	0.0142202
708.504	0.0143867
708.582	0.0141870
708.660	0.0143780
708.738	0.0142822
708.817	0.0143029
708.895	0.0142113
708.973	0.0143421
709.051	0.0143255
709.129	0.0142070
709.207	0.0142181
709.285	0.0143822
709.363	0.0142988
709.442	0.0142314
709.520	0.0143043
709.598	0.0141363
709.676	0.0141563
709.754	0.0141356
709.832	0.0140852
709.910	0.0142056
709.988	0.0140940
710.067	0.0141953
710.145	0.0140430
710.223	0.0141140
710.301	0.0141174
710.379	0.0140354
710.457	0.0139735
710.535	0.0141546
710.613	0.0140437
710.692	0.0141443
710.770	0.0139350
710.848	0.0139828
710.926	0.0140290
711.004	0.0139873
711.082	0.0139646
711.160	0.0138573
711.238	0.0140218
711.317	0.0138486
711.395	0.0137930
711.473	0.0139767
711.551	0.0138469
711.629	0.0139140
711.707	0.0137889
711.785	0.0138522
711.863	0.0138292
711.942	0.0139228
712.020	0.0140855
712.098	0.0140625
712.176	0.0139822
712.254	0.0140854
712.332	0.0140620
712.410	0.0139581
712.488	0.0140582
712.567	0.0140892
712.645	0.0141496
712.723	0.0142212
712.801	0.0141637
712.879	0.0140449
712.957	0.0141367
713.035	0.0141753
713.113	0.0140261
713.192	0.0141900
713.270	0.0142583
713.348	0.0143325
713.426	0.0143184
713.504	0.0142509
713.582	0.0142785
713.660	0.0143359
713.738	0.0143648
713.817	0.0143407
713.895	0.0143344
713.973	0.0144086
714.051	0.0144688
714.129	0.0143604
714.207	0.0143564
714.285	0.0143394
714.363	0.0143147
714.442	0.0144440
714.520	0.0144038
714.598	0.0143532
714.676	0.0142654
714.754	0.0143769
714.832	0.0143407
714.910	0.0143575
714.988	0.0143813
715.067	0.0143953
715.145	0.0143280
715.223	0.0143534
715.301	0.0143308
715.379	0.0143269
715.457	0.0141779
715.535	0.0141442
715.613	0.0140815
715.692	0.0141931
715.770	0.0142189
715.848	0.0141946
715.926	0.0140643
716.004	0.0139943
716.082	0.0140107
716.160	0.0140801
716.238	0.0139883
716.317	0.0140530
716.395	0.0138989
716.473	0.0139075
716.551	0.0139153
716.629	0.0140531
716.707	0.0139967
716.785	0.0137963
716.863	0.0138944
716.942	0.0139313
717.020	0.0139063
717.098	0.0138979
717.176	0.0140405
717.254	0.0139687
717.332	0.0139113
717.410	0.0139979
717.488	0.0141132
717.567	0.0138867
717.645	0.0140599
717.723	0.0140970
717.801	0.0140225
717.879	0.0140583
717.957	0.0141518
718.035	0.0142265
718.113	0.0143673
718.192	0.0142272
718.270	0.0145322
718.348	0.0144436
718.426	0.0145599
718.504	0.0145144
718.582	0.0143261
718.660	0.0145580
718.738	0.0144072
718.817	0.0145104
718.895	0.0146217
718.973	0.0145177
719.051	0.0144932
719.129	0.0145313
719.207	0.0144178
719.285	0.0142844
719.363	0.0143458
719.442	0.0142934
719.520	0.0142761
719.598	0.0142908
719.676	0.0141099
719.754	0.0140401
719.832	0.0141256
719.910	0.0143369
719.988	0.0141344
720.067	0.0141220
720.145	0.0142075
720.223	0.0142043
720.301	0.0141015
720.379	0.0139874
720.457	0.0141218
720.535	0.0142657
720.613	0.0141498
720.692	0.0140382
720.770	0.0140872
720.848	0.0141410
720.926	0.0140378
721.004	0.0141471
721.082	0.0140732
721.160	0.0140154
721.238	0.0139291
721.317	0.0140129
721.395	0.0141025
721.473	0.0141930
721.551	0.0140628
721.629	0.0141189
721.707	0.0140012
721.785	0.0139593
721.863	0.0140897
721.942	0.0140527
722.020	0.0140341
722.098	0.0139188
722.176	0.0140469
722.254	0.0139928
722.332	0.0141234
722.410	0.0141119
722.488	0.0140583
722.567	0.0140600
722.645	0.0141174
722.723	0.0140157
722.801	0.0141486
722.879	0.0141689
722.957	0.0141557
723.035	0.0140445
723.113	0.0142559
723.192	0.0142815
723.270	0.0141992
723.348	0.0140742
723.426	0.0142536
723.504	0.0141747
723.582	0.0141591
723.660	0.0142509
723.738	0.0143594
723.817	0.0141367
723.895	0.0141494
723.973	0.0141870
724.051	0.0142497
724.129	0.0142484
724.207	0.0141502
724.285	0.0142964
724.363	0.0142667
724.442	0.0142124
724.520	0.0142541
724.598	0.0143182
724.676	0.0141772
724.754	0.0142957
724.832	0.0142363
724.910	0.0143500
724.988	0.0144683
725.067	0.0143031
725.145	0.0143304
725.223	0.0144169
725.301	0.0142748
725.379	0.0144009
725.457	0.0144308
725.535	0.0144154
725.613	0.0144760
725.692	0.0144485
725.770	0.0145071
725.848	0.0143640
725.926	0.0144479
726.004	0.0143321
726.082	0.0143098
726.160	0.0144105
726.238	0.0143535
726.317	0.0143551
726.395	0.0143402
726.473	0.0142983
726.551	0.0142031
726.629	0.0142793
726.707	0.0142690
726.785	0.0141874
726.863	0.0141713
726.942	0.0142523
727.020	0.0142337
727.098	0.0141991
727.176	0.0140275
727.254	0.0140717
727.332	0.0140377
727.410	0.0140933
727.488	0.0141462
727.567	0.0140611
727.645	0.0140444
727.723	0.0141193
727.801	0.0142061
727.879	0.0142013
727.957	0.0141908
728.035	0.0140510
728.113	0.0141895
728.192	0.0143331
728.270	0.0142552
728.348	0.0142786
728.426	0.0144368
728.504	0.0143114
728.582	0.0143907
728.660	0.0143503
728.738	0.0142738
728.817	0.0142593
728.895	0.0144032
728.973	0.0143600
729.051	0.0142764
729.129	0.0143453
729.207	0.0143697
729.285	0.0142942
729.363	0.0143623
729.442	0.0141833
729.520	0.0142220
729.598	0.0142604
729.676	0.0141544
729.754	0.0143828
729.832	0.0143314
729.910	0.0142546
729.988	0.0142281
730.067	0.0140160
730.145	0.0142352
730.223	0.0142558
730.301	0.0141341
730.379	0.0140834
730.457	0.0139466
730.535	0.0142479
730.613	0.0140929
730.692	0.0141975
730.770	0.0141624
730.848	0.0140823
730.926	0.0141980
731.004	0.0141786
731.082	0.0141174
731.160	0.0140364
731.238	0.0141887
731.317	0.0140117
731.395	0.0141214
731.473	0.0141980
731.551	0.0142479
731.629	0.0142458
731.707	0.0141197
731.785	0.0141270
731.863	0.0140741
731.942	0.0142181
732.020	0.0142055
732.098	0.0141463
732.176	0.0142453
732.254	0.0142988
732.332	0.0141394
732.410	0.0140910
732.488	0.0142326
732.567	0.0142564
732.645	0.0142622
732.723	0.0141512
732.801	0.0140600
732.879	0.0140502
732.957	0.0142960
733.035	0.0141537
733.113	0.0140410
733.192	0.0142014
733.270	0.0141184
733.348	0.0141900
733.426	0.0141885
733.504	0.0141029
733.582	0.0141214
733.660	0.0141041
733.738	0.0141605
733.817	0.0141950
733.895	0.0142044
733.973	0.0142038
734.051	0.0143555
734.129	0.0142367
734.207	0.0141467
734.285	0.0143705
734.363	0.0143397
734.442	0.0142455
734.520	0.0142468
734.598	0.0143407
734.676	0.0143771
734.754	0.0142557
734.832	0.0143689
734.910	0.0142090
734.988	0.0142004
735.067	0.0143954
735.145	0.0142649
735.223	0.0143566
735.301	0.0143189
735.379	0.0141632
735.457	0.0142435
735.535	0.0142043
735.613	0.0142975
735.692	0.0142253
735.770	0.0140635
735.848	0.0142971
735.926	0.0141910
736.004	0.0142294
736.082	0.0142632
736.160	0.0143604
736.238	0.0142879
736.317	0.0142999
736.395	0.0143130
736.473	0.0142322
736.551	0.0142143
736.629	0.0144145
736.707	0.0143826
736.785	0.0143418
736.863	0.0143096
736.942	0.0143199
737.020	0.0142404
737.098	0.0141249
737.176	0.0141805
737.254	0.0140927
737.332	0.0140370
737.410	0.0141218
737.488	0.0141343
737.567	0.0141463
737.645	0.0142366
737.723	0.0141681
737.801	0.0140353
737.879	0.0141540
737.957	0.0142331
738.035	0.0141601
738.113	0.0141656
738.192	0.0142505
738.270	0.0141867
738.348	0.0141305
738.426	0.0140665
738.504	0.0140760
738.582	0.0141193
738.660	0.0142873
738.738	0.0142291
738.817	0.0141804
738.895	0.0142379
738.973	0.0142440
739.051	0.0141420
739.129	0.0142784
739.207	0.0143431
739.285	0.0143201
739.363	0.0142217
739.442	0.0141871
739.520	0.0141985
739.598	0.0141611
739.676	0.0141307
739.754	0.0141796
739.832	0.0141845
739.910	0.0141689
739.988	0.0141579
740.067	0.0141481
740.145	0.0142809
740.223	0.0141287
740.301	0.0141721
740.379	0.0141708
740.457	0.0142753
740.535	0.0141546
740.613	0.0140339
740.692	0.0140021
740.770	0.0141963
740.848	0.0142126
740.926	0.0141608
741.004	0.0141206
741.082	0.0142379
741.160	0.0141691
741.238	0.0141595
741.317	0.0143202
741.395	0.0143093
741.473	0.0142277
741.551	0.0142921
741.629	0.0142451
741.707	0.0142107
741.785	0.0143959
741.863	0.0143515
741.942	0.0144002
742.020	0.0142145
742.098	0.0144644
742.176	0.0144033
742.254	0.0143587
742.332	0.0144145
742.410	0.0144583
742.488	0.0142019
742.567	0.0143955
742.645	0.0144346
742.723	0.0143542
742.801	0.0143073
742.879	0.0141287
742.957	0.0142307
743.035	0.0141172
743.113	0.0141243
743.192	0.0142062
743.270	0.0142168
743.348	0.0142457
743.426	0.0142445
743.504	0.0141309
743.582	0.0142400
743.660	0.0143532
743.738	0.0141366
743.817	0.0142881
743.895	0.0141761
743.973	0.0142192
744.051	0.0143101
744.129	0.0142092
744.207	0.0141409
744.285	0.0142616
744.363	0.0141550
744.442	0.0141238
744.520	0.0142537
744.598	0.0142846
744.676	0.0141729
744.754	0.0141547
744.832	0.0142508
744.910	0.0142742
744.988	0.0141872
745.067	0.0142526
745.145	0.0142386
745.223	0.0139965
745.301	0.0142258
745.379	0.0142283
745.457	0.0142295
745.535	0.0143845
745.613	0.0142506
745.692	0.0141380
745.770	0.0143173
745.848	0.0143824
745.926	0.0142963
746.004	0.0142981
746.082	0.0143982
746.160	0.0144692
746.238	0.0143329
746.317	0.0143423
746.395	0.0144147
746.473	0.0142971
746.551	0.0143332
746.629	0.0143344
746.707	0.0144097
746.785	0.0143356
746.863	0.0142738
746.942	0.0141916
747.020	0.0142196
747.098	0.0145396
747.176	0.0142570
747.254	0.0143505
747.332	0.0142525
747.410	0.0142519
747.488	0.0143138
747.567	0.0143324
747.645	0.0143527
747.723	0.0142499
747.801	0.0141827
747.879	0.0142362
747.957	0.0142895
748.035	0.0143544
748.113	0.0142674
748.192	0.0142538
748.270	0.0141483
748.348	0.0143450
748.426	0.0143056
748.504	0.0143582
748.582	0.0142633
748.660	0.0142862
748.738	0.0142789
748.817	0.0142520
748.895	0.0142960
748.973	0.0142973
749.051	0.0142144
749.129	0.0141868
749.207	0.0142135
749.285	0.0141434
749.363	0.0142683
749.442	0.0144369
749.520	0.0142493
749.598	0.0142959
749.676	0.0142261
749.754	0.0141343
749.832	0.0143163
749.910	0.0142876
749.988	0.0141679
750.067	0.0142015
750.145	0.0141594
750.223	0.0140975
750.301	0.0142059
750.379	0.0142113
750.457	0.0140444
750.535	0.0142078
750.613	0.0140522
750.692	0.0141929
750.770	0.0143368
750.848	0.0141481
750.926	0.0141376
751.004	0.0141193
751.082	0.0141420
751.160	0.0141927
751.238	0.0141577
751.317	0.0140357
751.395	0.0141826
751.473	0.0141320
751.551	0.0141650
751.629	0.0141209
751.707	0.0141216
751.785	0.0141732
751.863	0.0141297
751.942	0.0141454
752.020	0.0142496
752.098	0.0141401
752.176	0.0142513
752.254	0.0141831
752.332	0.0142632
752.410	0.0143884
752.488	0.0142113
752.567	0.0141032
752.645	0.0142908
752.723	0.0142655
752.801	0.0142819
752.879	0.0142438
752.957	0.0143137
753.035	0.0142609
753.113	0.0143114
753.192	0.0143008
753.270	0.0142411
753.348	0.0141902
753.426	0.0143822
753.504	0.0142390
753.582	0.0143700
753.660	0.0142895
753.738	0.0142618
753.817	0.0143568
753.895	0.0141731
753.973	0.0141115
754.051	0.0141768
754.129	0.0142619
754.207	0.0141803
754.285	0.0141344
754.363	0.0140199
754.442	0.0141017
754.520	0.0141539
754.598	0.0142570
754.676	0.0140951
754.754	0.0141594
754.832	0.0142702
754.910	0.0141467
754.988	0.0142259
755.067	0.0140974
755.145	0.0140709
755.223	0.0141868
755.301	0.0141111
755.379	0.0142273
755.457	0.0141489
755.535	0.0141780
755.613	0.0142493
755.692	0.0142681
755.770	0.0141776
755.848	0.0142154
755.926	0.0143035
756.004	0.0143662
756.082	0.0143309
756.160	0.0142119
756.238	0.0142844
756.317	0.0143575
756.395	0.0144238
756.473	0.0142822
756.551	0.0142976
756.629	0.0142850
756.707	0.0143629
756.785	0.0143910
756.863	0.0143555
756.942	0.0144547
757.020	0.0144791
757.098	0.0143320
757.176	0.0143607
757.254	0.0142950
757.332	0.0142548
757.410	0.0143178
757.488	0.0143594
757.567	0.0141960
757.645	0.0143631
757.723	0.0143801
757.801	0.0141994
757.879	0.0143253
757.957	0.0142704
758.035	0.0141917
758.113	0.0143356
758.192	0.0142677
758.270	0.0142828
758.348	0.0143319
758.426	0.0141782
758.504	0.0143324
758.582	0.0142989
758.660	0.0143123
758.738	0.0144344
758.817	0.0143883
758.895	0.0143389
758.973	0.0143136
759.051	0.0142220
759.129	0.0143106
759.207	0.0142329
759.285	0.0140482
759.363	0.0142080
759.442	0.0142565
759.520	0.0141393
759.598	0.0139957
759.676	0.0140907
759.754	0.0141967
759.832	0.0141014
759.910	0.0139961
759.988	0.0140732
760.067	0.0141087
760.145	0.0142742
760.223	0.0141687
760.301	0.0142573
760.379	0.0141685
760.457	0.0141448
760.535	0.0141592
760.613	0.0142690
760.692	0.0141875
760.770	0.0143169
760.848	0.0143442
760.926	0.0140725
761.004	0.0142736
761.082	0.0143553
761.160	0.0142101
761.238	0.0144017
761.317	0.0143015
761.395	0.0142600
761.473	0.0142604
761.551	0.0143716
761.629	0.0144654
761.707	0.0142693
761.785	0.0145090
761.863	0.0143092
761.942	0.0142336
762.020	0.0143864
762.098	0.0144095
762.176	0.0143918
762.254	0.0144928
762.332	0.0144283
762.410	0.0143791
762.488	0.0143774
762.567	0.0144263
762.645	0.0143827
762.723	0.0143708
762.801	0.0143459
762.879	0.0144514
762.957	0.0144305
763.035	0.0145300
763.113	0.0143295
763.192	0.0144579
763.270	0.0144138
763.348	0.0145103
763.426	0.0144238
763.504	0.0143250
763.582	0.0144434
763.660	0.0144186
763.738	0.0144427
763.817	0.0145178
763.895	0.0144188
763.973	0.0144633
764.051	0.0144657
764.129	0.0144865
764.207	0.0143356
764.285	0.0143216
764.363	0.0144234
764.442	0.0144084
764.520	0.0143333
764.598	0.0143118
764.676	0.0143298
764.754	0.0143797
764.832	0.0143227
764.910	0.0142710
764.988	0.0143867
765.067	0.0142982
765.145	0.0142128
765.223	0.0143925
765.301	0.0144229
765.379	0.0142351
765.457	0.0144036
765.535	0.0144805
765.613	0.0143828
765.692	0.0142908
765.770	0.0145036
765.848	0.0144077
765.926	0.0142793
766.004	0.0143266
766.082	0.0142471
766.160	0.0141893
766.238	0.0143140
766.317	0.0144699
766.395	0.0144775
766.473	0.0143459
766.551	0.0143070
766.629	0.0143427
766.707	0.0144741
766.785	0.0145032
766.863	0.0145322
766.942	0.0144070
767.020	0.0144117
767.098	0.0146025
767.176	0.0145091
767.254	0.0142744
767.332	0.0144634
767.410	0.0143245
767.488	0.0144109
767.567	0.0143902
767.645	0.0142131
767.723	0.0143430
767.801	0.0142047
767.879	0.0141956
767.957	0.0142064
768.035	0.0143050
768.113	0.0143076
768.192	0.0142526
768.270	0.0141904
768.348	0.0142165
768.426	0.0142053
768.504	0.0141235
768.582	0.0142072
768.660	0.0139658
768.738	0.0141160
768.817	0.0140968
768.895	0.0141171
768.973	0.0140551
769.051	0.0142194
769.129	0.0140995
769.207	0.0142322
769.285	0.0142455
769.363	0.0141634
769.442	0.0142165
769.520	0.0140569
769.598	0.0140993
769.676	0.0140865
769.754	0.0141173
769.832	0.0140694
769.910	0.0142204
769.988	0.0141224
770.067	0.0142098
770.145	0.0141691
770.223	0.0141150
770.301	0.0141493
770.379	0.0140785
770.457	0.0142077
770.535	0.0141740
770.613	0.0141798
770.692	0.0142368
770.770	0.0141518
770.848	0.0141843
770.926	0.0142849
771.004	0.0142253
771.082	0.0142535
771.160	0.0143241
771.238	0.0142132
771.317	0.0141952
771.395	0.0142866
771.473	0.0141602
771.551	0.0141837
771.629	0.0142856
771.707	0.0141742
771.785	0.0141896
771.863	0.0142898
771.942	0.0142982
772.020	0.0142542
772.098	0.0141531
772.176	0.0143428
772.254	0.0143313
772.332	0.0142934
772.410	0.0142114
772.488	0.0142120
772.567	0.0142919
772.645	0.0142807
772.723	0.0142725
772.801	0.0142601
772.879	0.0141927
772.957	0.0141692
773.035	0.0140524
773.113	0.0142200
773.192	0.0141756
773.270	0.0143491
773.348	0.0141988
773.426	0.0141177
773.504	0.0142873
773.582	0.0142228
773.660	0.0140960
773.738	0.0140820
773.817	0.0142508
773.895	0.0141530
773.973	0.0141452
774.051	0.0141193
774.129	0.0142433
774.207	0.0142586
774.285	0.0142537
774.363	0.0142554
774.442	0.0141692
774.520	0.0142274
774.598	0.0142888
774.676	0.0142591
774.754	0.0144022
774.832	0.0143993
774.910	0.0143906
774.988	0.0143459
775.067	0.0143522
775.145	0.0144431
775.223	0.0143040
775.301	0.0143458
775.379	0.0143371
775.457	0.0144315
775.535	0.0143159
775.613	0.0143466
775.692	0.0142765
775.770	0.0142249
775.848	0.0142777
775.926	0.0143018
776.004	0.0142612
776.082	0.0140533
776.160	0.0141592
776.238	0.0141442
776.317	0.0141400
776.395	0.0142206
776.473	0.0140887
776.551	0.0140309
776.629	0.0141391
776.707	0.0141576
776.785	0.0140888
776.863	0.0141121
776.942	0.0140646
777.020	0.0140913
777.098	0.0139625
777.176	0.0139948
777.254	0.0141066
777.332	0.0141229
777.410	0.0140309
777.488	0.0141599
777.567	0.0141233
777.645	0.0141024
777.723	0.0141003
777.801	0.0140741
777.879	0.0140963
777.957	0.0140936
778.035	0.0142109
778.113	0.0141738
778.192	0.0141804
778.270	0.0143008
778.348	0.0140932
778.426	0.0141315
778.504	0.0142463
778.582	0.0142847
778.660	0.0141782
778.738	0.0140898
778.817	0.0141952
778.895	0.0140569
778.973	0.0143018
779.051	0.0142429
779.129	0.0141436
779.207	0.0142545
779.285	0.0140901
779.363	0.0142330
779.442	0.0143497
779.520	0.0139681
779.598	0.0140628
779.676	0.0141788
779.754	0.0141153
779.832	0.0141454
779.910	0.0141969
779.988	0.0141882
780.067	0.0141497
780.145	0.0142265
780.223	0.0141203
780.301	0.0141148
780.379	0.0140219
780.457	0.0142541
780.535	0.0143358
780.613	0.0141621
780.692	0.0141652
780.770	0.0142401
780.848	0.0142696
780.926	0.0142325
781.004	0.0142068
781.082	0.0141249
781.160	0.0142361
781.238	0.0141520
781.317	0.0142023
781.395	0.0142242
781.473	0.0143091
781.551	0.0141714
781.629	0.0141832
781.707	0.0142018
781.785	0.0143147
781.863	0.0141686
781.942	0.0142758
782.020	0.0143147
782.098	0.0142770
782.176	0.0142039
782.254	0.0142764
782.332	0.0144125
782.410	0.0141355
782.488	0.0142406
782.567	0.0142552
782.645	0.0142941
782.723	0.0142765
782.801	0.0142451
782.879	0.0143231
782.957	0.0142792
783.035	0.0143892
783.113	0.0143704
783.192	0.0141299
783.270	0.0142997
783.348	0.0143849
783.426	0.0142954
783.504	0.0143433
783.582	0.0143443
783.660	0.0143540
783.738	0.0143604
783.817	0.0145274
783.895	0.0145488
783.973	0.0143807
784.051	0.0144779
784.129	0.0145045
784.207	0.0144212
784.285	0.0144634
784.363	0.0144630
784.442	0.0143015
784.520	0.0143530
784.598	0.0144112
784.676	0.0144122
784.754	0.0144363
784.832	0.0144268
784.910	0.0143589
784.988	0.0143077
785.067	0.0142925
785.145	0.0142723
785.223	0.0143191
785.301	0.0141667
785.379	0.0143055
785.457	0.0141794
785.535	0.0140955
785.613	0.0143115
785.692	0.0142439
785.770	0.0142448
785.848	0.0141795
785.926	0.0142590
786.004	0.0141280
786.082	0.0142669
786.160	0.0142780
786.238	0.0140692
786.317	0.0141244
786.395	0.0142434
786.473	0.0143209
786.551	0.0142313
786.629	0.0141519
786.707	0.0142816
786.785	0.0143698
786.863	0.0142918
786.942	0.0143121
787.020	0.0143001
787.098	0.0143542
787.176	0.0143017
787.254	0.0143040
787.332	0.0142377
787.410	0.0140797
787.488	0.0142422
787.567	0.0142038
787.645	0.0141815
787.723	0.0141652
787.801	0.0141286
787.879	0.0141695
787.957	0.0142683
788.035	0.0141276
788.113	0.0141217
788.192	0.0140238
788.270	0.0141144
788.348	0.0141292
788.426	0.0141108
788.504	0.0140859
788.582	0.0140968
788.660	0.0140868
788.738	0.0140755
788.817	0.0141846
788.895	0.0141536
788.973	0.0142023
789.051	0.0142184
789.129	0.0143021
789.207	0.0143185
789.285	0.0142723
789.363	0.0141910
789.442	0.0142818
789.520	0.0144034
789.598	0.0142403
789.676	0.0141833
789.754	0.0141388
789.832	0.0143633
789.910	0.0142697
789.988	0.0141412
790.067	0.0141689
790.145	0.0142130
790.223	0.0143189
790.301	0.0141662
790.379	0.0142062
790.457	0.0140598
790.535	0.0141819
790.613	0.0141825
790.692	0.0141792
790.770	0.0140936
790.848	0.0140103
790.926	0.0142393
791.004	0.0140656
791.082	0.0142287
791.160	0.0142149
791.238	0.0140633
791.317	0.0138941
791.395	0.0142066
791.473	0.0140569
791.551	0.0141955
791.629	0.0141521
791.707	0.0141723
791.785	0.0141485
791.863	0.0142525
791.942	0.0140965
792.020	0.0142516
792.098	0.0142275
792.176	0.0143046
792.254	0.0141755
792.332	0.0141364
792.410	0.0140045
792.488	0.0141389
792.567	0.0139550
792.645	0.0140520
792.723	0.0142240
792.801	0.0141806
792.879	0.0141888
792.957	0.0140290
793.035	0.0140540
793.113	0.0140419
793.192	0.0140730
793.270	0.0140765
793.348	0.0140476
793.426	0.0138963
793.504	0.0139287
793.582	0.0138867
793.660	0.0139903
793.738	0.0141378
793.817	0.0141924
793.895	0.0140683
793.973	0.0140388
794.051	0.0139783
794.129	0.0141727
794.207	0.0141539
794.285	0.0140859
794.363	0.0141650
794.442	0.0142776
794.520	0.0141915
794.598	0.0141977
794.676	0.0142487
794.754	0.0141983
794.832	0.0142168
794.910	0.0143391
794.988	0.0141354
795.067	0.0142923
795.145	0.0143585
795.223	0.0143477
795.301	0.0143691
795.379	0.0141251
795.457	0.0141698
795.535	0.0141348
795.613	0.0140651
795.692	0.0141090
795.770	0.0140774
795.848	0.0139893
795.926	0.0138856
796.004	0.0140434
796.082	0.0139956
796.160	0.0139886
796.238	0.0140031
796.317	0.0139396
796.395	0.0138239
796.473	0.0139213
796.551	0.0139175
796.629	0.0138908
796.707	0.0140459
796.785	0.0140178
796.863	0.0141126
796.942	0.0140111
797.020	0.0139418
797.098	0.0140246
797.176	0.0140711
797.254	0.0140747
797.332	0.0141096
797.410	0.0140564
797.488	0.0143300
797.567	0.0140745
797.645	0.0141393
797.723	0.0142892
797.801	0.0141297
797.879	0.0141358
797.957	0.0141351
798.035	0.0141892
798.113	0.0141666
798.192	0.0142687
798.270	0.0140920
798.348	0.0142091
798.426	0.0143166
798.504	0.0142942
798.582	0.0142060
798.660	0.0141206
798.738	0.0141836
798.817	0.0142735
798.895	0.0142071
798.973	0.0141330
799.051	0.0142883
799.129	0.0141563
799.207	0.0141412
799.285	0.0142999
799.363	0.0141975
799.442	0.0141540
799.520	0.0141682
799.598	0.0141317
799.676	0.0142778
799.754	0.0143301
799.832	0.0142999
799.910	0.0141864
799.988	0.0143298
800.067	0.0142738
800.145	0.0142279
800.223	0.0143650
800.301	0.0142271
800.379	0.0143578
800.457	0.0143192
800.535	0.0142367
800.613	0.0142754
800.692	0.0142133
800.770	0.0143647
800.848	0.0143302
800.926	0.0142488
801.004	0.0142772
801.082	0.0142684
801.160	0.0141858
801.238	0.0143410
801.317	0.0141339
801.395	0.0141899
801.473	0.0142465
801.551	0.0141126
801.629	0.0142416
801.707	0.0141677
801.785	0.0141085
801.863	0.0142002
801.942	0.0141029
802.020	0.0140927
802.098	0.0142126
802.176	0.0140150
802.254	0.0140585
802.332	0.0139819
802.410	0.0140254
802.488	0.0141885
802.567	0.0141386
802.645	0.0139835
802.723	0.0141217
802.801	0.0142407
802.879	0.0140306
802.957	0.0140513
803.035	0.0141879
803.113	0.0141318
803.192	0.0142109
803.270	0.0142017
803.348	0.0141362
803.426	0.0140913
803.504	0.0140937
803.582	0.0140186
803.660	0.0142221
803.738	0.0142928
803.817	0.0142234
803.895	0.0140984
803.973	0.0141129
804.051	0.0142064
804.129	0.0141971
804.207	0.0141800
804.285	0.0141766
804.363	0.0141824
804.442	0.0142148
804.520	0.0142121
804.598	0.0141266
804.676	0.0141879
804.754	0.0143330
804.832	0.0142274
804.910	0.0141602
804.988	0.0142336
805.067	0.0142432
805.145	0.0142439
805.223	0.0141732
805.301	0.0142619
805.379	0.0141206
805.457	0.0141788
805.535	0.0142599
805.613	0.0143201
805.692	0.0141703
805.770	0.0141972
805.848	0.0142200
805.926	0.0140740
806.004	0.0142321
806.082	0.0142101
806.160	0.0142362
806.238	0.0142426
806.317	0.0141792
806.395	0.0142614
806.473	0.0141944
806.551	0.0140889
806.629	0.0141574
806.707	0.0140903
806.785	0.0141492
806.863	0.0142536
806.942	0.0141954
807.020	0.0141431
807.098	0.0142416
807.176	0.0142333
807.254	0.0142786
807.332	0.0141280
807.410	0.0143111
807.488	0.0143436
807.567	0.0142423
807.645	0.0141614
807.723	0.0143183
807.801	0.0142123
807.879	0.0141640
807.957	0.0141444
808.035	0.0142119
808.113	0.0141338
808.192	0.0141783
808.270	0.0142583
808.348	0.0142503
808.426	0.0142229
808.504	0.0141382
808.582	0.0141888
808.660	0.0141732
808.738	0.0141431
808.817	0.0142001
808.895	0.0141100
808.973	0.0143018
809.051	0.0143651
809.129	0.0142212
809.207	0.0141086
809.285	0.0141502
809.363	0.0140894
809.442	0.0140510
809.520	0.0144714
809.598	0.0141315
809.676	0.0141552
809.754	0.0142439
809.832	0.0142517
809.910	0.0141714
809.988	0.0142351
810.067	0.0142197
810.145	0.0141633
810.223	0.0143342
810.301	0.0139561
810.379	0.0141123
810.457	0.0142139
810.535	0.0141523
810.613	0.0141437
810.692	0.0142470
810.770	0.0141779
810.848	0.0140471
810.926	0.0142488
811.004	0.0141071
811.082	0.0141721
811.160	0.0141959
811.238	0.0141975
811.317	0.0141508
811.395	0.0140889
811.473	0.0143009
811.551	0.0142050
811.629	0.0142712
811.707	0.0142854
811.785	0.0141339
811.863	0.0142343
811.942	0.0142849
812.020	0.0142241
812.098	0.0140694
812.176	0.0141911
812.254	0.0140855
812.332	0.0142484
812.410	0.0142337
812.488	0.0142124
812.567	0.0141925
812.645	0.0140319
812.723	0.0140865
812.801	0.0139106
812.879	0.0140427
812.957	0.0140264
813.035	0.0140618
813.113	0.0140123
813.192	0.0140689
813.270	0.0140520
813.348	0.0140367
813.426	0.0141711
813.504	0.0141547
813.582	0.0141409
813.660	0.0140607
813.738	0.0139410
813.817	0.0140097
813.895	0.0141537
813.973	0.0142022
814.051	0.0140396
814.129	0.0141724
814.207	0.0141381
814.285	0.0141376
814.363	0.0142600
814.442	0.0140472
814.520	0.0141209
814.598	0.0142509
814.676	0.0141351
814.754	0.0140149
814.832	0.0141164
814.910	0.0141904
814.988	0.0143124
815.067	0.0142117
815.145	0.0140536
815.223	0.0141766
815.301	0.0142963
815.379	0.0140880
815.457	0.0140515
815.535	0.0141578
815.613	0.0141965
815.692	0.0140436
815.770	0.0141837
815.848	0.0141014
815.926	0.0139919
816.004	0.0140105
816.082	0.0142179
816.160	0.0141405
816.238	0.0140923
816.317	0.0140490
816.395	0.0139840
816.473	0.0141405
816.551	0.0141797
816.629	0.0140501
816.707	0.0142171
816.785	0.0140397
816.863	0.0140640
816.942	0.0141317
817.020	0.0141366
817.098	0.0140520
817.176	0.0141386
817.254	0.0141119
817.332	0.0141327
817.410	0.0142009
817.488	0.0141644
817.567	0.0141006
817.645	0.0142720
817.723	0.0142283
817.801	0.0140060
817.879	0.0141392
817.957	0.0142241
818.035	0.0141261
818.113	0.0140816
818.192	0.0141362
818.270	0.0140530
818.348	0.0140794
818.426	0.0139574
818.504	0.0141499
818.582	0.0140359
818.660	0.0141003
818.738	0.0141495
818.817	0.0140178
818.895	0.0139324
818.973	0.0139465
819.051	0.0141582
819.129	0.0139605
819.207	0.0139631
819.285	0.0141152
819.363	0.0142829
819.442	0.0139661
819.520	0.0140461
819.598	0.0140382
819.676	0.0141751
819.754	0.0141387
819.832	0.0141788
819.910	0.0143272
819.988	0.0142765
820.067	0.0142220
820.145	0.0141590
820.223	0.0142435
820.301	0.0142633
820.379	0.0141936
820.457	0.0141533
820.535	0.0143401
820.613	0.0141837
820.692	0.0143234
820.770	0.0142767
820.848	0.0141808
820.926	0.0144376
821.004	0.0144051
821.082	0.0143600
821.160	0.0142923
821.238	0.0142470
821.317	0.0142335
821.395	0.0141470
821.473	0.0143401
821.551	0.0143901
821.629	0.0141779
821.707	0.0142363
821.785	0.0142650
821.863	0.0142639
821.942	0.0142395
822.020	0.0141726
822.098	0.0143671
822.176	0.0141988
822.254	0.0142348
822.332	0.0143071
822.410	0.0142539
822.488	0.0142871
822.567	0.0142899
822.645	0.0143287
822.723	0.0142690
822.801	0.0142890
822.879	0.0143383
822.957	0.0143858
823.035	0.0143435
823.113	0.0145213
823.192	0.0143222
823.270	0.0142100
823.348	0.0141352
823.426	0.0142360
823.504	0.0143244
823.582	0.0142221
823.660	0.0141103
823.738	0.0143314
823.817	0.0142757
823.895	0.0142035
823.973	0.0142082
824.051	0.0142754
824.129	0.0142435
824.207	0.0142410
824.285	0.0142271
824.363	0.0142216
824.442	0.0141331
824.520	0.0142952
824.598	0.0143262
824.676	0.0142205
824.754	0.0141709
824.832	0.0144331
824.910	0.0144193
824.988	0.0142497
825.067	0.0143903
825.145	0.0144601
825.223	0.0143230
825.301	0.0144328
825.379	0.0145463
825.457	0.0143800
825.535	0.0143528
825.613	0.0144386
825.692	0.0144632
825.770	0.0143320
825.848	0.0144369
825.926	0.0143155
826.004	0.0144244
826.082	0.0144752
826.160	0.0143230
826.238	0.0142809
826.317	0.0143360
826.395	0.0143280
826.473	0.0143803
826.551	0.0142654
826.629	0.0142168
826.707	0.0143625
826.785	0.0143196
826.863	0.0142577
826.942	0.0140892
827.020	0.0141227
827.098	0.0140789
827.176	0.0141342
827.254	0.0141796
827.332	0.0141613
827.410	0.0140477
827.488	0.0142210
827.567	0.0141846
827.645	0.0142245
827.723	0.0139896
827.801	0.0141669
827.879	0.0140620
827.957	0.0140453
828.035	0.0141849
828.113	0.0141344
828.192	0.0141392
828.270	0.0141579
828.348	0.0141129
828.426	0.0141163
828.504	0.0141537
828.582	0.0141283
828.660	0.0141997
828.738	0.0141454
828.817	0.0140047
828.895	0.0141203
828.973	0.0140607
829.051	0.0141264
829.129	0.0141210
829.207	0.0141273
829.285	0.0141711
829.363	0.0141084
829.442	0.0141709
829.520	0.0140228
829.598	0.0141413
829.676	0.0142268
829.754	0.0141714
829.832	0.0141310
829.910	0.0142015
829.988	0.0141408
830.067	0.0140910
830.145	0.0141321
830.223	0.0141883
830.301	0.0142148
830.379	0.0143243
830.457	0.0141241
830.535	0.0141869
830.613	0.0143045
830.692	0.0143091
830.770	0.0143341
830.848	0.0143018
830.926	0.0140684
831.004	0.0142091
831.082	0.0142805
831.160	0.0142515
831.238	0.0141256
831.317	0.0142469
831.395	0.0142395
831.473	0.0141673
831.551	0.0142017
831.629	0.0143377
831.707	0.0142935
831.785	0.0143124
831.863	0.0143650
831.942	0.0143491
832.020	0.0143945
832.098	0.0143373
832.176	0.0142960
832.254	0.0141429
832.332	0.0142233
832.410	0.0144537
832.488	0.0143897
832.567	0.0142008
832.645	0.0140520
832.723	0.0142747
832.801	0.0142751
832.879	0.0141685
832.957	0.0141924
833.035	0.0143504
833.113	0.0143485
833.192	0.0143468
833.270	0.0142989
833.348	0.0143323
833.426	0.0142018
833.504	0.0142158
833.582	0.0143259
833.660	0.0141912
833.738	0.0141554
833.817	0.0142104
833.895	0.0140524
833.973	0.0141674
834.051	0.0141425
834.129	0.0140576
834.207	0.0141393
834.285	0.0141528
834.363	0.0140921
834.442	0.0142019
834.520	0.0140838
834.598	0.0141861
834.676	0.0140855
834.754	0.0141205
834.832	0.0142945
834.910	0.0141223
834.988	0.0142490
835.067	0.0141329
835.145	0.0140500
835.223	0.0141233
835.301	0.0143273
835.379	0.0143288
835.457	0.0142178
835.535	0.0141479
835.613	0.0141753
835.692	0.0143350
835.770	0.0140652
835.848	0.0141570
835.926	0.0142643
836.004	0.0142726
836.082	0.0141485
836.160	0.0142523
836.238	0.0144102
836.317	0.0143370
836.395	0.0142072
836.473	0.0142088
836.551	0.0143092
836.629	0.0142798
836.707	0.0141901
836.785	0.0143193
836.863	0.0143750
836.942	0.0141550
837.020	0.0142987
837.098	0.0143990
837.176	0.0141465
837.254	0.0141809
837.332	0.0141867
837.410	0.0143620
837.488	0.0143285
837.567	0.0143232
837.645	0.0142519
837.723	0.0143800
837.801	0.0142633
837.879	0.0141436
837.957	0.0142200
838.035	0.0142738
838.113	0.0141228
838.192	0.0142416
838.270	0.0143128
838.348	0.0143398
838.426	0.0142212
838.504	0.0143295
838.582	0.0143064
838.660	0.0141737
838.738	0.0142543
838.817	0.0142751
838.895	0.0141962
838.973	0.0143818
839.051	0.0142708
839.129	0.0141568
839.207	0.0142074
839.285	0.0143076
839.363	0.0141502
839.442	0.0142790
839.520	0.0142632
839.598	0.0142708
839.676	0.0142475
839.754	0.0142262
839.832	0.0142751
839.910	0.0143303
839.988	0.0141714
840.067	0.0142094
840.145	0.0142019
840.223	0.0142395
840.301	0.0142255
840.379	0.0143264
840.457	0.0144072
840.535	0.0144035
840.613	0.0142850
840.692	0.0143043
840.770	0.0142428
840.848	0.0143809
840.926	0.0143989
841.004	0.0143672
841.082	0.0144440
841.160	0.0143594
841.238	0.0142628
841.317	0.0143842
841.395	0.0144060
841.473	0.0143978
841.551	0.0142867
841.629	0.0142621
841.707	0.0143295
841.785	0.0144049
841.863	0.0143978
841.942	0.0142516
842.020	0.0142380
842.098	0.0143531
842.176	0.0143082
842.254	0.0143295
842.332	0.0143001
842.410	0.0142317
842.488	0.0142424
842.567	0.0142577
842.645	0.0142204
842.723	0.0143566
842.801	0.0143300
842.879	0.0142130
842.957	0.0143766
843.035	0.0142107
843.113	0.0141494
843.192	0.0144033
843.270	0.0142664
843.348	0.0143736
843.426	0.0142251
843.504	0.0142906
843.582	0.0142471
843.660	0.0141754
843.738	0.0143443
843.817	0.0141094
843.895	0.0142281
843.973	0.0142728
844.051	0.0144907
844.129	0.0141736
844.207	0.0142118
844.285	0.0143722
844.363	0.0143605
844.442	0.0142872
844.520	0.0141491
844.598	0.0142638
844.676	0.0142661
844.754	0.0142740
844.832	0.0141271
844.910	0.0142221
844.988	0.0142473
845.067	0.0142490
845.145	0.0143144
845.223	0.0143590
845.301	0.0142439
845.379	0.0142398
845.457	0.0142929
845.535	0.0142440
845.613	0.0142706
845.692	0.0143295
845.770	0.0142262
845.848	0.0142533
845.926	0.0144538
846.004	0.0143834
846.082	0.0142395
846.160	0.0142171
846.238	0.0142528
846.317	0.0143564
846.395	0.0142418
846.473	0.0142008
846.551	0.0141293
846.629	0.0142119
846.707	0.0143375
846.785	0.0140954
846.863	0.0142522
846.942	0.0142902
847.020	0.0143237
847.098	0.0142149
847.176	0.0142511
847.254	0.0142909
847.332	0.0141824
847.410	0.0141612
847.488	0.0141776
847.567	0.0142333
847.645	0.0142834
847.723	0.0142986
847.801	0.0141743
847.879	0.0142596
847.957	0.0142529
848.035	0.0142667
848.113	0.0142549
848.192	0.0142625
848.270	0.0144020
848.348	0.0143314
848.426	0.0143032
848.504	0.0143182
848.582	0.0143716
848.660	0.0143176
848.738	0.0143116
848.817	0.0143354
848.895	0.0142317
848.973	0.0141778
849.051	0.0141975
849.129	0.0141618
849.207	0.0142236
849.285	0.0142384
849.363	0.0143307
849.442	0.0142191
849.520	0.0142636
849.598	0.0142596
849.676	0.0143091
849.754	0.0143459
849.832	0.0142753
849.910	0.0143002
849.988	0.0142573
850.067	0.0142073
850.145	0.0141393
850.223	0.0142567
850.301	0.0142680
850.379	0.0141785
850.457	0.0142757
850.535	0.0143512
850.613	0.0140725
850.692	0.0141223
850.770	0.0142824
850.848	0.0141897
850.926	0.0142587
851.004	0.0143520
851.082	0.0141813
851.160	0.0142512
851.238	0.0142058
851.317	0.0142135
851.395	0.0142189
851.473	0.0142252
851.551	0.0143082
851.629	0.0143159
851.707	0.0142015
851.785	0.0141978
851.863	0.0142339
851.942	0.0142294
852.020	0.0142365
852.098	0.0142320
852.176	0.0142635
852.254	0.0141841
852.332	0.0142873
852.410	0.0142791
852.488	0.0143120
852.567	0.0144517
852.645	0.0142731
852.723	0.0142792
852.801	0.0142702
852.879	0.0142223
852.957	0.0142723
853.035	0.0143021
853.113	0.0143443
853.192	0.0143766
853.270	0.0141676
853.348	0.0142989
853.426	0.0144840
853.504	0.0142198
853.582	0.0142765
853.660	0.0143678
853.738	0.0142388
853.817	0.0142896
853.895	0.0143036
853.973	0.0143538
854.051	0.0143093
854.129	0.0143323
854.207	0.0142338
854.285	0.0143317
854.363	0.0143663
854.442	0.0142325
854.520	0.0143540
854.598	0.0144227
854.676	0.0144405
854.754	0.0142860
854.832	0.0141985
854.910	0.0143266
854.988	0.0142737
855.067	0.0143312
855.145	0.0143772
855.223	0.0143495
855.301	0.0142468
855.379	0.0143912
855.457	0.0143562
855.535	0.0142838
855.613	0.0143285
855.692	0.0143804
855.770	0.0143666
855.848	0.0143931
855.926	0.0143587
856.004	0.0141969
856.082	0.0141953
856.160	0.0141706
856.238	0.0142574
856.317	0.0142184
856.395	0.0142961
856.473	0.0143369
856.551	0.0143626
856.629	0.0142200
856.707	0.0142265
856.785	0.0142972
856.863	0.0141743
856.942	0.0142592
857.020	0.0142018
857.098	0.0141519
857.176	0.0141895
857.254	0.0140729
857.332	0.0140506
857.410	0.0142316
857.488	0.0141441
857.567	0.0142124
857.645	0.0140745
857.723	0.0140737
857.801	0.0141404
857.879	0.0142776
857.957	0.0141132
858.035	0.0141347
858.113	0.0142828
858.192	0.0140920
858.270	0.0140548
858.348	0.0141621
858.426	0.0141270
858.504	0.0143082
858.582	0.0140663
858.660	0.0140397
858.738	0.0142416
858.817	0.0142197
858.895	0.0140485
858.973	0.0141853
859.051	0.0142628
859.129	0.0143320
859.207	0.0143331
859.285	0.0141557
859.363	0.0141917
859.442	0.0142796
859.520	0.0143012
859.598	0.0142155
859.676	0.0141621
859.754	0.0141737
859.832	0.0142880
859.910	0.0141264
859.988	0.0141043
860.067	0.0142831
860.145	0.0141528
860.223	0.0141400
860.301	0.0142249
860.379	0.0141432
860.457	0.0141164
860.535	0.0141651
860.613	0.0141056
860.692	0.0140856
860.770	0.0144117
860.848	0.0141940
860.926	0.0141523
861.004	0.0142122
861.082	0.0140181
861.160	0.0141721
861.238	0.0141724
861.317	0.0143657
861.395	0.0143576
861.473	0.0141497
861.551	0.0142419
861.629	0.0142222
861.707	0.0141078
861.785	0.0139483
861.863	0.0141475
861.942	0.0141553
862.020	0.0141592
862.098	0.0140158
862.176	0.0141436
862.254	0.0140673
862.332	0.0141470
862.410	0.0141536
862.488	0.0141004
862.567	0.0140569
862.645	0.0141580
862.723	0.0142274
862.801	0.0140005
862.879	0.0141421
862.957	0.0141821
863.035	0.0140512
863.113	0.0141225
863.192	0.0141195
863.270	0.0140724
863.348	0.0142308
863.426	0.0141477
863.504	0.0142480
863.582	0.0141285
863.660	0.0142287
863.738	0.0142737
863.817	0.0142932
863.895	0.0143975
863.973	0.0142727
864.051	0.0143022
864.129	0.0143269
864.207	0.0142846
864.285	0.0143581
864.363	0.0142672
864.442	0.0142690
864.520	0.0141174
864.598	0.0141904
864.676	0.0141062
864.754	0.0142629
864.832	0.0142175
864.910	0.0142376
864.988	0.0142070
865.067	0.0142527
865.145	0.0141790
865.223	0.0142182
865.301	0.0143517
865.379	0.0142471
865.457	0.0142096
865.535	0.0143456
865.613	0.0142891
865.692	0.0141985
865.770	0.0143465
865.848	0.0143518
865.926	0.0141885
866.004	0.0143497
866.082	0.0143797
866.160	0.0142728
866.238	0.0144025
866.317	0.0143295
866.395	0.0144165
866.473	0.0144852
866.551	0.0143631
866.629	0.0142946
866.707	0.0143355
866.785	0.0143196
866.863	0.0143350
866.942	0.0144257
867.020	0.0144606
867.098	0.0143121
867.176	0.0142597
867.254	0.0143748
867.332	0.0143388
867.410	0.0142974
867.488	0.0142742
867.567	0.0142873
867.645	0.0143160
867.723	0.0142974
867.801	0.0142189
867.879	0.0142828
867.957	0.0141451
868.035	0.0142410
868.113	0.0142576
868.192	0.0141715
868.270	0.0142435
868.348	0.0141793
868.426	0.0141288
868.504	0.0141489
868.582	0.0140471
868.660	0.0140502
868.738	0.0140784
868.817	0.0142657
868.895	0.0139613
868.973	0.0140020
869.051	0.0141599
869.129	0.0141523
869.207	0.0141609
869.285	0.0141923
869.363	0.0141016
869.442	0.0142379
869.520	0.0141753
869.598	0.0141178
869.676	0.0141666
869.754	0.0142371
869.832	0.0142654
869.910	0.0141851
869.988	0.0143466
870.067	0.0142953
870.145	0.0143226
870.223	0.0142612
870.301	0.0142388
870.379	0.0142477
870.457	0.0143257
870.535	0.0142361
870.613	0.0142652
870.692	0.0142452
870.770	0.0142605
870.848	0.0143702
870.926	0.0142787
871.004	0.0143700
871.082	0.0142864
871.160	0.0142479
871.238	0.0142627
871.317	0.0143773
871.395	0.0142321
871.473	0.0142648
871.551	0.0143856
871.629	0.0143044
871.707	0.0143971
871.785	0.0143819
871.863	0.0142445
871.942	0.0142257
872.020	0.0142189
872.098	0.0143097
872.176	0.0144694
872.254	0.0143798
872.332	0.0142709
872.410	0.0141795
872.488	0.0142251
872.567	0.0141298
872.645	0.0143117
872.723	0.0143769
872.801	0.0142239
872.879	0.0140734
872.957	0.0142917
873.035	0.0142624
873.113	0.0142856
873.192	0.0141138
873.270	0.0141333
873.348	0.0142180
873.426	0.0143427
873.504	0.0142657
873.582	0.0142233
873.660	0.0141661
873.738	0.0140792
873.817	0.0142338
873.895	0.0142484
873.973	0.0141857
874.051	0.0141703
874.129	0.0142229
874.207	0.0141695
874.285	0.0141858
874.363	0.0141031
874.442	0.0141451
874.520	0.0141458
874.598	0.0141821
874.676	0.0141306
874.754	0.0141373
874.832	0.0142722
874.910	0.0140697
874.988	0.0142202
875.067	0.0142442
875.145	0.0142580
875.223	0.0142191
875.301	0.0142094
875.379	0.0143369
875.457	0.0142838
875.535	0.0142681
875.613	0.0142166
875.692	0.0143202
875.770	0.0141901
875.848	0.0142120
875.926	0.0142333
876.004	0.0141364
876.082	0.0142386
876.160	0.0141565
876.238	0.0142104
876.317	0.0142565
876.395	0.0143475
876.473	0.0143971
876.551	0.0142953
876.629	0.0143530
876.707	0.0144093
876.785	0.0142799
876.863	0.0142379
876.942	0.0144192
877.020	0.0142471
877.098	0.0143091
877.176	0.0142651
877.254	0.0143978
877.332	0.0143098
877.410	0.0141869
877.488	0.0142522
877.567	0.0142001
877.645	0.0142527
877.723	0.0142502
877.801	0.0141611
877.879	0.0142326
877.957	0.0144331
878.035	0.0142905
878.113	0.0142859
878.192	0.0142416
878.270	0.0142867
878.348	0.0143388
878.426	0.0142643
878.504	0.0142154
878.582	0.0141950
878.660	0.0141017
878.738	0.0142742
878.817	0.0143370
878.895	0.0142021
878.973	0.0141154
879.051	0.0141796
879.129	0.0141055
879.207	0.0141307
879.285	0.0141523
879.363	0.0140598
879.442	0.0141113
879.520	0.0141599
879.598	0.0140973
879.676	0.0140588
879.754	0.0140655
879.832	0.0139915
879.910	0.0140720
879.988	0.0142299
880.067	0.0140811
880.145	0.0141885
880.223	0.0140035
880.301	0.0142094
880.379	0.0142449
880.457	0.0141755
880.535	0.0140976
880.613	0.0141553
880.692	0.0141887
880.770	0.0141057
880.848	0.0141281
880.926	0.0143149
881.004	0.0141570
881.082	0.0139864
881.160	0.0141146
881.238	0.0141590
881.317	0.0141616
881.395	0.0141854
881.473	0.0141545
881.551	0.0141177
881.629	0.0142124
881.707	0.0141023
881.785	0.0140488
881.863	0.0140931
881.942	0.0142709
882.020	0.0139912
882.098	0.0141537
882.176	0.0141528
882.254	0.0142711
882.332	0.0141403
882.410	0.0141552
882.488	0.0141801
882.567	0.0141180
882.645	0.0140646
882.723	0.0142294
882.801	0.0142220
882.879	0.0142197
882.957	0.0141171
883.035	0.0141470
883.113	0.0140379
883.192	0.0141296
883.270	0.0141861
883.348	0.0142528
883.426	0.0141670
883.504	0.0141875
883.582	0.0142789
883.660	0.0141448
883.738	0.0143212
883.817	0.0142143
883.895	0.0142271
883.973	0.0143428
884.051	0.0142965
884.129	0.0142419
884.207	0.0143376
884.285	0.0140820
884.363	0.0142184
884.442	0.0141637
884.520	0.0142142
884.598	0.0142884
884.676	0.0143475
884.754	0.0141392
884.832	0.0141621
884.910	0.0141396
884.988	0.0143622
885.067	0.0142223
885.145	0.0141592
885.223	0.0142503
885.301	0.0143584
885.379	0.0141899
885.457	0.0142204
885.535	0.0142014
885.613	0.0141436
885.692	0.0141138
885.770	0.0143338
885.848	0.0142687
885.926	0.0142862
886.004	0.0142740
886.082	0.0141236
886.160	0.0142953
886.238	0.0142992
886.317	0.0143163
886.395	0.0142950
886.473	0.0141354
886.551	0.0140402
886.629	0.0141589
886.707	0.0143383
886.785	0.0142566
886.863	0.0142406
886.942	0.0142953
887.020	0.0143827
887.098	0.0140984
887.176	0.0142701
887.254	0.0141953
887.332	0.0140568
887.410	0.0142418
887.488	0.0143437
887.567	0.0142330
887.645	0.0142489
887.723	0.0142218
887.801	0.0141747
887.879	0.0142674
887.957	0.0144337
888.035	0.0142916
888.113	0.0142898
888.192	0.0143541
888.270	0.0143604
888.348	0.0141222
888.426	0.0143084
888.504	0.0143726
888.582	0.0143239
888.660	0.0142656
888.738	0.0142433
888.817	0.0142244
888.895	0.0142801
888.973	0.0142469
889.051	0.0142979
889.129	0.0140971
889.207	0.0143307
889.285	0.0142599
889.363	0.0141916
889.442	0.0141747
889.520	0.0142836
889.598	0.0141606
889.676	0.0141564
889.754	0.0142431
889.832	0.0140881
889.910	0.0140721
889.988	0.0142313
890.067	0.0141629
890.145	0.0141290
890.223	0.0140917
890.301	0.0141254
890.379	0.0140336
890.457	0.0139851
890.535	0.0140502
890.613	0.0141241
890.692	0.0139764
890.770	0.0139972
890.848	0.0139846
890.926	0.0139119
891.004	0.0140627
891.082	0.0139787
891.160	0.0138984
891.238	0.0139951
891.317	0.0139633
891.395	0.0138806
891.473	0.0139526
891.551	0.0138454
891.629	0.0140394
891.707	0.0139011
891.785	0.0139272
891.863	0.0140805
891.942	0.0140004
892.020	0.0139071
892.098	0.0140903
892.176	0.0140335
892.254	0.0140006
892.332	0.0141566
892.410	0.0140250
892.488	0.0141550
892.567	0.0142651
892.645	0.0140542
892.723	0.0140794
892.801	0.0140560
892.879	0.0140419
892.957	0.0141148
893.035	0.0140725
893.113	0.0140406
893.192	0.0140814
893.270	0.0139719
893.348	0.0140324
893.426	0.0142517
893.504	0.0141933
893.582	0.0139822
893.660	0.0140623
893.738	0.0140591
893.817	0.0142784
893.895	0.0142126
893.973	0.0141220
894.051	0.0140742
894.129	0.0141136
894.207	0.0141439
894.285	0.0141145
894.363	0.0141917
894.442	0.0141387
894.520	0.0141719
894.598	0.0142378
894.676	0.0142828
894.754	0.0142145
894.832	0.0140971
894.910	0.0142800
894.988	0.0142062
895.067	0.0142451
895.145	0.0141760
895.223	0.0141255
895.301	0.0142358
895.379	0.0141940
895.457	0.0142325
895.535	0.0141685
895.613	0.0142166
895.692	0.0142097
895.770	0.0142249
895.848	0.0142470
895.926	0.0142757
896.004	0.0142000
896.082	0.0143856
896.160	0.0142693
896.238	0.0142902
896.317	0.0143163
896.395	0.0143433
896.473	0.0142494
896.551	0.0142387
896.629	0.0143766
896.707	0.0143290
896.785	0.0142849
896.863	0.0144695
896.942	0.0143592
897.020	0.0143089
897.098	0.0144490
897.176	0.0145010
897.254	0.0144177
897.332	0.0144572
897.410	0.0143133
897.488	0.0144852
897.567	0.0144173
897.645	0.0145194
897.723	0.0143330
897.801	0.0144662
897.879	0.0144857
897.957	0.0143688
898.035	0.0143253
898.113	0.0142395
898.192	0.0142820
898.270	0.0144154
898.348	0.0144319
898.426	0.0141844
898.504	0.0144007
898.582	0.0144164
898.660	0.0143138
898.738	0.0143769
898.817	0.0143779
898.895	0.0143367
898.973	0.0143592
899.051	0.0143111
899.129	0.0142332
899.207	0.0143297
899.285	0.0144364
899.363	0.0142870
899.442	0.0144208
899.520	0.0144531
899.598	0.0143399
899.676	0.0143645
899.754	0.0143487
899.832	0.0143315
899.910	0.0144409
899.988	0.0143240
900.067	0.0144080
900.145	0.0143110
900.223	0.0142162
900.301	0.0142110
900.379	0.0143736
900.457	0.0143702
900.535	0.0144018
900.613	0.0144369
900.692	0.0143137
900.770	0.0142684
900.848	0.0144331
900.926	0.0142373
901.004	0.0142707
901.082	0.0144278
901.160	0.0144097
901.238	0.0144773
901.317	0.0144821
901.395	0.0143161
901.473	0.0143707
901.551	0.0143259
901.629	0.0143857
901.707	0.0143509
901.785	0.0143033
901.863	0.0143800
901.942	0.0143629
902.020	0.0142413
902.098	0.0142844
902.176	0.0143038
902.254	0.0141599
902.332	0.0142703
902.410	0.0143649
902.488	0.0142460
902.567	0.0142152
902.645	0.0142401
902.723	0.0142652
902.801	0.0143316
902.879	0.0143861
902.957	0.0142569
903.035	0.0141608
903.113	0.0141954
903.192	0.0142807
903.270	0.0143210
903.348	0.0142281
903.426	0.0142197
903.504	0.0142014
903.582	0.0141227
903.660	0.0140827
903.738	0.0142822
903.817	0.0141747
903.895	0.0140910
903.973	0.0141516
904.051	0.0141803
904.129	0.0141164
904.207	0.0142206
904.285	0.0140461
904.363	0.0142210
904.442	0.0142056
904.520	0.0140887
904.598	0.0142312
904.676	0.0142561
904.754	0.0142267
904.832	0.0141941
904.910	0.0141547
904.988	0.0142314
905.067	0.0143752
905.145	0.0143282
905.223	0.0142212
905.301	0.0141266
905.379	0.0142805
905.457	0.0141684
905.535	0.0142588
905.613	0.0141636
905.692	0.0142669
905.770	0.0141636
905.848	0.0141328
905.926	0.0141085
906.004	0.0143039
906.082	0.0142883
906.160	0.0143362
906.238	0.0143331
906.317	0.0142226
906.395	0.0142941
906.473	0.0142001
906.551	0.0143401
906.629	0.0142806
906.707	0.0141950
906.785	0.0141061
906.863	0.0142981
906.942	0.0142882
907.020	0.0142431
907.098	0.0141373
907.176	0.0142017
907.254	0.0141868
907.332	0.0141803
907.410	0.0141634
907.488	0.0141685
907.567	0.0142597
907.645	0.0142271
907.723	0.0141400
907.801	0.0141182
907.879	0.0140542
907.957	0.0141432
908.035	0.0142550
908.113	0.0142188
908.192	0.0141042
908.270	0.0141900
908.348	0.0142130
908.426	0.0141460
908.504	0.0141657
908.582	0.0142686
908.660	0.0141957
908.738	0.0142096
908.817	0.0141810
908.895	0.0141417
908.973	0.0141808
909.051	0.0140888
909.129	0.0139671
909.207	0.0141631
909.285	0.0140951
909.363	0.0141388
909.442	0.0141351
909.520	0.0141229
909.598	0.0141842
909.676	0.0141064
909.754	0.0141588
909.832	0.0140876
909.910	0.0140724
909.988	0.0141771
910.067	0.0141755
910.145	0.0142024
910.223	0.0141972
910.301	0.0140861
910.379	0.0141615
910.457	0.0143115
910.535	0.0140623
910.613	0.0142576
910.692	0.0141058
910.770	0.0140711
910.848	0.0141061
910.926	0.0142122
911.004	0.0142016
911.082	0.0140505
911.160	0.0140457
911.238	0.0141678
911.317	0.0141278
911.395	0.0139981
911.473	0.0141683
911.551	0.0142487
911.629	0.0141727
911.707	0.0140387
911.785	0.0141561
911.863	0.0141016
911.942	0.0139879
912.020	0.0141441
912.098	0.0141486
912.176	0.0141327
912.254	0.0141005
912.332	0.0140369
912.410	0.0139454
912.488	0.0141664
912.567	0.0140847
912.645	0.0141631
912.723	0.0141428
912.801	0.0141393
912.879	0.0141130
912.957	0.0141247
913.035	0.0141542
913.113	0.0142064
913.192	0.0141285
913.270	0.0141271
913.348	0.0141322
913.426	0.0141561
913.504	0.0142068
913.582	0.0140105
913.660	0.0140932
913.738	0.0141840
913.817	0.0142892
913.895	0.0142056
913.973	0.0142583
914.051	0.0140712
914.129	0.0142099
914.207	0.0141902
914.285	0.0141386
914.363	0.0142762
914.442	0.0142297
914.520	0.0141161
914.598	0.0142935
914.676	0.0143350
914.754	0.0142365
914.832	0.0142175
914.910	0.0142281
914.988	0.0142890
915.067	0.0142461
915.145	0.0144389
915.223	0.0143392
915.301	0.0142727
915.379	0.0144965
915.457	0.0144408
915.535	0.0143394
915.613	0.0143703
915.692	0.0143779
915.770	0.0142736
915.848	0.0143015
915.926	0.0143552
916.004	0.0142731
916.082	0.0142976
916.160	0.0142107
916.238	0.0143250
916.317	0.0143757
916.395	0.0142952
916.473	0.0144324
916.551	0.0142665
916.629	0.0143944
916.707	0.0143981
916.785	0.0143896
916.863	0.0142537
916.942	0.0142360
917.020	0.0143610
917.098	0.0143338
917.176	0.0143456
917.254	0.0142595
917.332	0.0144112
917.410	0.0143005
917.488	0.0141779
917.567	0.0143384
917.645	0.0143057
917.723	0.0142393
917.801	0.0144928
917.879	0.0142764
917.957	0.0142439
918.035	0.0141407
918.113	0.0143630
918.192	0.0144696
918.270	0.0142558
918.348	0.0142056
918.426	0.0142861
918.504	0.0142453
918.582	0.0142272
918.660	0.0143279
918.738	0.0142932
918.817	0.0142053
918.895	0.0141199
918.973	0.0142034
919.051	0.0141957
919.129	0.0141826
919.207	0.0140776
919.285	0.0141434
919.363	0.0142390
919.442	0.0142616
919.520	0.0141677
919.598	0.0141704
919.676	0.0141440
919.754	0.0141055
919.832	0.0142181
919.910	0.0142001
