05/28/2022	14:33:12	Ver.	4.1	UNKNOWN
Optical Delay	599.988409	Delta X		0.078125	Sweeps	1	Scan Rate	0/0
Coordinates	Axis 1	NaN	Axis 2	NaN	Axis 3	NaN	Axis 4	NaN	Axis 5	NaN	Axis 6	0.000000
TX Power	0.000000	RX Power	0.000000

599.988	0.0145776
600.067	0.0146032
600.145	0.0145731
600.223	0.0146384
600.301	0.0145775
600.379	0.0146979
600.457	0.0146556
600.535	0.0145788
600.613	0.0144044
600.692	0.0146813
600.770	0.0145727
600.848	0.0144965
600.926	0.0146362
601.004	0.0146478
601.082	0.0146987
601.160	0.0145727
601.238	0.0145461
601.317	0.0145290
601.395	0.0146052
601.473	0.0146246
601.551	0.0145201
601.629	0.0146291
601.707	0.0144411
601.785	0.0145294
601.863	0.0145957
601.942	0.0146008
602.020	0.0147066
602.098	0.0144677
602.176	0.0145783
602.254	0.0145460
602.332	0.0145164
602.410	0.0144608
602.488	0.0144644
602.567	0.0145040
602.645	0.0144930
602.723	0.0146014
602.801	0.0145074
602.879	0.0144938
602.957	0.0144624
603.035	0.0144444
603.113	0.0143661
603.192	0.0145802
603.270	0.0145475
603.348	0.0145089
603.426	0.0145741
603.504	0.0145042
603.582	0.0144648
603.660	0.0144628
603.738	0.0145071
603.817	0.0145695
603.895	0.0143807
603.973	0.0145150
604.051	0.0143143
604.129	0.0144968
604.207	0.0145139
604.285	0.0143556
604.363	0.0144992
604.442	0.0144776
604.520	0.0145611
604.598	0.0144415
604.676	0.0144302
604.754	0.0144083
604.832	0.0145547
604.910	0.0144861
604.988	0.0144189
605.067	0.0143866
605.145	0.0144787
605.223	0.0145052
605.301	0.0145602
605.379	0.0146273
605.457	0.0144559
605.535	0.0144043
605.613	0.0144286
605.692	0.0145850
605.770	0.0144986
605.848	0.0143928
605.926	0.0144404
606.004	0.0144794
606.082	0.0145317
606.160	0.0144519
606.238	0.0144370
606.317	0.0144959
606.395	0.0145618
606.473	0.0145403
606.551	0.0145709
606.629	0.0144165
606.707	0.0145067
606.785	0.0145184
606.863	0.0145266
606.942	0.0144675
607.020	0.0143796
607.098	0.0145833
607.176	0.0145110
607.254	0.0145954
607.332	0.0144877
607.410	0.0145759
607.488	0.0146127
607.567	0.0145755
607.645	0.0144981
607.723	0.0146461
607.801	0.0145404
607.879	0.0145378
607.957	0.0145587
608.035	0.0145309
608.113	0.0143758
608.192	0.0146606
608.270	0.0145309
608.348	0.0146504
608.426	0.0144516
608.504	0.0145756
608.582	0.0145918
608.660	0.0146172
608.738	0.0145353
608.817	0.0145391
608.895	0.0144628
608.973	0.0143948
609.051	0.0144954
609.129	0.0146074
609.207	0.0144543
609.285	0.0146014
609.363	0.0143687
609.442	0.0143810
609.520	0.0145269
609.598	0.0145998
609.676	0.0144565
609.754	0.0144959
609.832	0.0144100
609.910	0.0143511
609.988	0.0145653
610.067	0.0143760
610.145	0.0144744
610.223	0.0145204
610.301	0.0145746
610.379	0.0145235
610.457	0.0143182
610.535	0.0145016
610.613	0.0145125
610.692	0.0143832
610.770	0.0144323
610.848	0.0144800
610.926	0.0144041
611.004	0.0144609
611.082	0.0146389
611.160	0.0145046
611.238	0.0145606
611.317	0.0145364
611.395	0.0145419
611.473	0.0145928
611.551	0.0144842
611.629	0.0145314
611.707	0.0142828
611.785	0.0142953
611.863	0.0143723
611.942	0.0143179
612.020	0.0142711
612.098	0.0144781
612.176	0.0145121
612.254	0.0143984
612.332	0.0143126
612.410	0.0145267
612.488	0.0145737
612.567	0.0145052
612.645	0.0144603
612.723	0.0144368
612.801	0.0144394
612.879	0.0144382
612.957	0.0145250
613.035	0.0145837
613.113	0.0145736
613.192	0.0145920
613.270	0.0144649
613.348	0.0145545
613.426	0.0145695
613.504	0.0143888
613.582	0.0145802
613.660	0.0145033
613.738	0.0145139
613.817	0.0144386
613.895	0.0144387
613.973	0.0144096
614.051	0.0144449
614.129	0.0144318
614.207	0.0143997
614.285	0.0144638
614.363	0.0145667
614.442	0.0144232
614.520	0.0143890
614.598	0.0144540
614.676	0.0144492
614.754	0.0144209
614.832	0.0144518
614.910	0.0146072
614.988	0.0145628
615.067	0.0144275
615.145	0.0143707
615.223	0.0143551
615.301	0.0144839
615.379	0.0143907
615.457	0.0144269
615.535	0.0143895
615.613	0.0145490
615.692	0.0144199
615.770	0.0144350
615.848	0.0145040
615.926	0.0144500
616.004	0.0144701
616.082	0.0144144
616.160	0.0146719
616.238	0.0145264
616.317	0.0143975
616.395	0.0144448
616.473	0.0145683
616.551	0.0144812
616.629	0.0144454
616.707	0.0144548
616.785	0.0145028
616.863	0.0145949
616.942	0.0144118
617.020	0.0145893
617.098	0.0144706
617.176	0.0144559
617.254	0.0145993
617.332	0.0144936
617.410	0.0144349
617.488	0.0144617
617.567	0.0144652
617.645	0.0144436
617.723	0.0144923
617.801	0.0143250
617.879	0.0145337
617.957	0.0145670
618.035	0.0143835
618.113	0.0143716
618.192	0.0144769
618.270	0.0144864
618.348	0.0142659
618.426	0.0145370
618.504	0.0145216
618.582	0.0145687
618.660	0.0145891
618.738	0.0145409
618.817	0.0145847
618.895	0.0143693
618.973	0.0144116
619.051	0.0145109
619.129	0.0143719
619.207	0.0145006
619.285	0.0143665
619.363	0.0143896
619.442	0.0144077
619.520	0.0144795
619.598	0.0143449
619.676	0.0144541
619.754	0.0144601
619.832	0.0145400
619.910	0.0145046
619.988	0.0145850
620.067	0.0144028
620.145	0.0143347
620.223	0.0143732
620.301	0.0144196
620.379	0.0145289
620.457	0.0143728
620.535	0.0144743
620.613	0.0144496
620.692	0.0143922
620.770	0.0145937
620.848	0.0145070
620.926	0.0145092
621.004	0.0144971
621.082	0.0145411
621.160	0.0144116
621.238	0.0146529
621.317	0.0145305
621.395	0.0145895
621.473	0.0146800
621.551	0.0146561
621.629	0.0146273
621.707	0.0146853
621.785	0.0143800
621.863	0.0146514
621.942	0.0147960
622.020	0.0146097
622.098	0.0145649
622.176	0.0147959
622.254	0.0146426
622.332	0.0145892
622.410	0.0146946
622.488	0.0146539
622.567	0.0146877
622.645	0.0147601
622.723	0.0146275
622.801	0.0145657
622.879	0.0146957
622.957	0.0146443
623.035	0.0147484
623.113	0.0146961
623.192	0.0145945
623.270	0.0146304
623.348	0.0145595
623.426	0.0144846
623.504	0.0144720
623.582	0.0146063
623.660	0.0145588
623.738	0.0145277
623.817	0.0145229
623.895	0.0144878
623.973	0.0145169
624.051	0.0145317
624.129	0.0144434
624.207	0.0143808
624.285	0.0143121
624.363	0.0144971
624.442	0.0145938
624.520	0.0144547
624.598	0.0143825
624.676	0.0144662
624.754	0.0146448
624.832	0.0145693
624.910	0.0145359
624.988	0.0145776
625.067	0.0145771
625.145	0.0146401
625.223	0.0145728
625.301	0.0145457
625.379	0.0145703
625.457	0.0147377
625.535	0.0146286
625.613	0.0145329
625.692	0.0144961
625.770	0.0145103
625.848	0.0144907
625.926	0.0143777
626.004	0.0143868
626.082	0.0145218
626.160	0.0143999
626.238	0.0142877
626.317	0.0141901
626.395	0.0142574
626.473	0.0144220
626.551	0.0141960
626.629	0.0143436
626.707	0.0142474
626.785	0.0143008
626.863	0.0143714
626.942	0.0142986
627.020	0.0142889
627.098	0.0143448
627.176	0.0144924
627.254	0.0142635
627.332	0.0144460
627.410	0.0145666
627.488	0.0146076
627.567	0.0146223
627.645	0.0145869
627.723	0.0145104
627.801	0.0146223
627.879	0.0145210
627.957	0.0144207
628.035	0.0145174
628.113	0.0144577
628.192	0.0144192
628.270	0.0144532
628.348	0.0142749
628.426	0.0143768
628.504	0.0143364
628.582	0.0142860
628.660	0.0143240
628.738	0.0141764
628.817	0.0141382
628.895	0.0141979
628.973	0.0141431
629.051	0.0141428
629.129	0.0140887
629.207	0.0140123
629.285	0.0141201
629.363	0.0140124
629.442	0.0139505
629.520	0.0141289
629.598	0.0142178
629.676	0.0142541
629.754	0.0141935
629.832	0.0144464
629.910	0.0145215
629.988	0.0145382
630.067	0.0145475
630.145	0.0146919
630.223	0.0148891
630.301	0.0148184
630.379	0.0147578
630.457	0.0149422
630.535	0.0148293
630.613	0.0148697
630.692	0.0148917
630.770	0.0149625
630.848	0.0148994
630.926	0.0148151
631.004	0.0147208
631.082	0.0148188
631.160	0.0147586
631.238	0.0146365
631.317	0.0147549
631.395	0.0148052
631.473	0.0146352
631.551	0.0147291
631.629	0.0146464
631.707	0.0146339
631.785	0.0147612
631.863	0.0145303
631.942	0.0144768
632.020	0.0145567
632.098	0.0146307
632.176	0.0144913
632.254	0.0145309
632.332	0.0144233
632.410	0.0144420
632.488	0.0145562
632.567	0.0147283
632.645	0.0147007
632.723	0.0146533
632.801	0.0145438
632.879	0.0146251
632.957	0.0146397
633.035	0.0144630
633.113	0.0147366
633.192	0.0146617
633.270	0.0145722
633.348	0.0145277
633.426	0.0144431
633.504	0.0145383
633.582	0.0144908
633.660	0.0143494
633.738	0.0143572
633.817	0.0144315
633.895	0.0144556
633.973	0.0143981
634.051	0.0143111
634.129	0.0143112
634.207	0.0142797
634.285	0.0143990
634.363	0.0144193
634.442	0.0143474
634.520	0.0144854
634.598	0.0145254
634.676	0.0143903
634.754	0.0144547
634.832	0.0144473
634.910	0.0146702
634.988	0.0146054
635.067	0.0145027
635.145	0.0146272
635.223	0.0146878
635.301	0.0147668
635.379	0.0147240
635.457	0.0147411
635.535	0.0147643
635.613	0.0148265
635.692	0.0147884
635.770	0.0147256
635.848	0.0147514
635.926	0.0146991
636.004	0.0147237
636.082	0.0148349
636.160	0.0147583
636.238	0.0147330
636.317	0.0146610
636.395	0.0146964
636.473	0.0147272
636.551	0.0145867
636.629	0.0145082
636.707	0.0145611
636.785	0.0145016
636.863	0.0145444
636.942	0.0145194
637.020	0.0144048
637.098	0.0144276
637.176	0.0143372
637.254	0.0144363
637.332	0.0144399
637.410	0.0142790
637.488	0.0145267
637.567	0.0144381
637.645	0.0143938
637.723	0.0143981
637.801	0.0144696
637.879	0.0143803
637.957	0.0143163
638.035	0.0143029
638.113	0.0142853
638.192	0.0144359
638.270	0.0144764
638.348	0.0144347
638.426	0.0145164
638.504	0.0144606
638.582	0.0144334
638.660	0.0143244
638.738	0.0144285
638.817	0.0145847
638.895	0.0144162
638.973	0.0145724
639.051	0.0145388
639.129	0.0146433
639.207	0.0145728
639.285	0.0145319
639.363	0.0146270
639.442	0.0146500
639.520	0.0147527
639.598	0.0147353
639.676	0.0146711
639.754	0.0145728
639.832	0.0146687
639.910	0.0147623
639.988	0.0147624
640.067	0.0146401
640.145	0.0147149
640.223	0.0146799
640.301	0.0145993
640.379	0.0145838
640.457	0.0145950
640.535	0.0146482
640.613	0.0146935
640.692	0.0146304
640.770	0.0146048
640.848	0.0147018
640.926	0.0145388
641.004	0.0147749
641.082	0.0146857
641.160	0.0145731
641.238	0.0145258
641.317	0.0146301
641.395	0.0146307
641.473	0.0146155
641.551	0.0146101
641.629	0.0146003
641.707	0.0145760
641.785	0.0147767
641.863	0.0145326
641.942	0.0146043
642.020	0.0145620
642.098	0.0143629
642.176	0.0144401
642.254	0.0146521
642.332	0.0146751
642.410	0.0146042
642.488	0.0146664
642.567	0.0144608
642.645	0.0144201
642.723	0.0146677
642.801	0.0145057
642.879	0.0143971
642.957	0.0146333
643.035	0.0144565
643.113	0.0142897
643.192	0.0144260
643.270	0.0143096
643.348	0.0144203
643.426	0.0142875
643.504	0.0143681
643.582	0.0143951
643.660	0.0144401
643.738	0.0144672
643.817	0.0144478
643.895	0.0143782
643.973	0.0143941
644.051	0.0145078
644.129	0.0144646
644.207	0.0144662
644.285	0.0143876
644.363	0.0143569
644.442	0.0144851
644.520	0.0144062
644.598	0.0144054
644.676	0.0144032
644.754	0.0143331
644.832	0.0144113
644.910	0.0145982
644.988	0.0145430
645.067	0.0145827
645.145	0.0144086
645.223	0.0144433
645.301	0.0146332
645.379	0.0147159
645.457	0.0145518
645.535	0.0146478
645.613	0.0147388
645.692	0.0146510
645.770	0.0144955
645.848	0.0145847
645.926	0.0146466
646.004	0.0145605
646.082	0.0144808
646.160	0.0144296
646.238	0.0143996
646.317	0.0143504
646.395	0.0141171
646.473	0.0141120
646.551	0.0142239
646.629	0.0141545
646.707	0.0141505
646.785	0.0142551
646.863	0.0140890
646.942	0.0140787
647.020	0.0140546
647.098	0.0141313
647.176	0.0140192
647.254	0.0142133
647.332	0.0142375
647.410	0.0142458
647.488	0.0143250
647.567	0.0142954
647.645	0.0142969
647.723	0.0144418
647.801	0.0141884
647.879	0.0143155
647.957	0.0143642
648.035	0.0143124
648.113	0.0143826
648.192	0.0143090
648.270	0.0143745
648.348	0.0143888
648.426	0.0143328
648.504	0.0143648
648.582	0.0144345
648.660	0.0146594
648.738	0.0145466
648.817	0.0146104
648.895	0.0145020
648.973	0.0145425
649.051	0.0145250
649.129	0.0144735
649.207	0.0145658
649.285	0.0147401
649.363	0.0147373
649.442	0.0145258
649.520	0.0145184
649.598	0.0146488
649.676	0.0146448
649.754	0.0144196
649.832	0.0144170
649.910	0.0145330
649.988	0.0145567
650.067	0.0144936
650.145	0.0146428
650.223	0.0146052
650.301	0.0146568
650.379	0.0145665
650.457	0.0145259
650.535	0.0144734
650.613	0.0146057
650.692	0.0145139
650.770	0.0144212
650.848	0.0144286
650.926	0.0144689
651.004	0.0143314
651.082	0.0143348
651.160	0.0144685
651.238	0.0143408
651.317	0.0142230
651.395	0.0143882
651.473	0.0143029
651.551	0.0142216
651.629	0.0141674
651.707	0.0141264
651.785	0.0140675
651.863	0.0142113
651.942	0.0142148
652.020	0.0141866
652.098	0.0140992
652.176	0.0140814
652.254	0.0142331
652.332	0.0140881
652.410	0.0143231
652.488	0.0143565
652.567	0.0144202
652.645	0.0144506
652.723	0.0143698
652.801	0.0146221
652.879	0.0147109
652.957	0.0148396
653.035	0.0149497
653.113	0.0147572
653.192	0.0150908
653.270	0.0150922
653.348	0.0150793
653.426	0.0151139
653.504	0.0151250
653.582	0.0150449
653.660	0.0151291
653.738	0.0150886
653.817	0.0150568
653.895	0.0150181
653.973	0.0150216
654.051	0.0147752
654.129	0.0148660
654.207	0.0147332
654.285	0.0145263
654.363	0.0146935
654.442	0.0147332
654.520	0.0146706
654.598	0.0146256
654.676	0.0145475
654.754	0.0144566
654.832	0.0145327
654.910	0.0145426
654.988	0.0145085
655.067	0.0145393
655.145	0.0144372
655.223	0.0143786
655.301	0.0145132
655.379	0.0145850
655.457	0.0144684
655.535	0.0143922
655.613	0.0146248
655.692	0.0146535
655.770	0.0146757
655.848	0.0145695
655.926	0.0145086
656.004	0.0147401
656.082	0.0146266
656.160	0.0147135
656.238	0.0145561
656.317	0.0147224
656.395	0.0146529
656.473	0.0146276
656.551	0.0146935
656.629	0.0146860
656.707	0.0147653
656.785	0.0146365
656.863	0.0145187
656.942	0.0146192
657.020	0.0146521
657.098	0.0145922
657.176	0.0143124
657.254	0.0145193
657.332	0.0144489
657.410	0.0144247
657.488	0.0143434
657.567	0.0144878
657.645	0.0143220
657.723	0.0144835
657.801	0.0142904
657.879	0.0142901
657.957	0.0143518
658.035	0.0144289
658.113	0.0143673
658.192	0.0144048
658.270	0.0143110
658.348	0.0142396
658.426	0.0142673
658.504	0.0142906
658.582	0.0143608
658.660	0.0144175
658.738	0.0144833
658.817	0.0144688
658.895	0.0145650
658.973	0.0144603
659.051	0.0144643
659.129	0.0146637
659.207	0.0146503
659.285	0.0146494
659.363	0.0148228
659.442	0.0147486
659.520	0.0146419
659.598	0.0146922
659.676	0.0147784
659.754	0.0148171
659.832	0.0147870
659.910	0.0150433
659.988	0.0149175
660.067	0.0149625
660.145	0.0148600
660.223	0.0148834
660.301	0.0149173
660.379	0.0150066
660.457	0.0149850
660.535	0.0147885
660.613	0.0148515
660.692	0.0148431
660.770	0.0147215
660.848	0.0147131
660.926	0.0147414
661.004	0.0145914
661.082	0.0147243
661.160	0.0145859
661.238	0.0145271
661.317	0.0145089
661.395	0.0145239
661.473	0.0143216
661.551	0.0143456
661.629	0.0143577
661.707	0.0143845
661.785	0.0143491
661.863	0.0142671
661.942	0.0143417
662.020	0.0143156
662.098	0.0142617
662.176	0.0143323
662.254	0.0141914
662.332	0.0142090
662.410	0.0143057
662.488	0.0144009
662.567	0.0143917
662.645	0.0142702
662.723	0.0142558
662.801	0.0143497
662.879	0.0145806
662.957	0.0145049
663.035	0.0144376
663.113	0.0145251
663.192	0.0145470
663.270	0.0145108
663.348	0.0145545
663.426	0.0145105
663.504	0.0145780
663.582	0.0146687
663.660	0.0145631
663.738	0.0146547
663.817	0.0147432
663.895	0.0145570
663.973	0.0146479
664.051	0.0147730
664.129	0.0147094
664.207	0.0147819
664.285	0.0148886
664.363	0.0148626
664.442	0.0148445
664.520	0.0150090
664.598	0.0150155
664.676	0.0151085
664.754	0.0151090
664.832	0.0151068
664.910	0.0151597
664.988	0.0151354
665.067	0.0150401
665.145	0.0150664
665.223	0.0150190
665.301	0.0150143
665.379	0.0150060
665.457	0.0150308
665.535	0.0148261
665.613	0.0147733
665.692	0.0148074
665.770	0.0147389
665.848	0.0146534
665.926	0.0145276
666.004	0.0145793
666.082	0.0143938
666.160	0.0143468
666.238	0.0143567
666.317	0.0143621
666.395	0.0142234
666.473	0.0141863
666.551	0.0143146
666.629	0.0142519
666.707	0.0143113
666.785	0.0143526
666.863	0.0143735
666.942	0.0143552
667.020	0.0144564
667.098	0.0142557
667.176	0.0144547
667.254	0.0144374
667.332	0.0144496
667.410	0.0143625
667.488	0.0144214
667.567	0.0143758
667.645	0.0143763
667.723	0.0143922
667.801	0.0143584
667.879	0.0142953
667.957	0.0143835
668.035	0.0141768
668.113	0.0141342
668.192	0.0141424
668.270	0.0141564
668.348	0.0143169
668.426	0.0141394
668.504	0.0141708
668.582	0.0143955
668.660	0.0143013
668.738	0.0142045
668.817	0.0142227
668.895	0.0144039
668.973	0.0144643
669.051	0.0145558
669.129	0.0144801
669.207	0.0145892
669.285	0.0146645
669.363	0.0146527
669.442	0.0147309
669.520	0.0145638
669.598	0.0147607
669.676	0.0147717
669.754	0.0146674
669.832	0.0146697
669.910	0.0145983
669.988	0.0145488
670.067	0.0146161
670.145	0.0144753
670.223	0.0146085
670.301	0.0144173
670.379	0.0144653
670.457	0.0144591
670.535	0.0142722
670.613	0.0141893
670.692	0.0141328
670.770	0.0141906
670.848	0.0141885
670.926	0.0142718
671.004	0.0140805
671.082	0.0140852
671.160	0.0140015
671.238	0.0139664
671.317	0.0140212
671.395	0.0139849
671.473	0.0141664
671.551	0.0140485
671.629	0.0141192
671.707	0.0141341
671.785	0.0141860
671.863	0.0142600
671.942	0.0142350
672.020	0.0140943
672.098	0.0142307
672.176	0.0143994
672.254	0.0142145
672.332	0.0141633
672.410	0.0142410
672.488	0.0143895
672.567	0.0141566
672.645	0.0141938
672.723	0.0142927
672.801	0.0143616
672.879	0.0144198
672.957	0.0142764
673.035	0.0142860
673.113	0.0145612
673.192	0.0143690
673.270	0.0144567
673.348	0.0145050
673.426	0.0145280
673.504	0.0146554
673.582	0.0145655
673.660	0.0146238
673.738	0.0145483
673.817	0.0146558
673.895	0.0146388
673.973	0.0145999
674.051	0.0145996
674.129	0.0145079
674.207	0.0145612
674.285	0.0146571
674.363	0.0146353
674.442	0.0145952
674.520	0.0145696
674.598	0.0144331
674.676	0.0145796
674.754	0.0148425
674.832	0.0147148
674.910	0.0147218
674.988	0.0147919
675.067	0.0147266
675.145	0.0148232
675.223	0.0147546
675.301	0.0148330
675.379	0.0148288
675.457	0.0148012
675.535	0.0146772
675.613	0.0147990
675.692	0.0145628
675.770	0.0146960
675.848	0.0146414
675.926	0.0144057
676.004	0.0145219
676.082	0.0143976
676.160	0.0143305
676.238	0.0143016
676.317	0.0143085
676.395	0.0141192
676.473	0.0141434
676.551	0.0143440
676.629	0.0142279
676.707	0.0141860
676.785	0.0141290
676.863	0.0142920
676.942	0.0143185
677.020	0.0141754
677.098	0.0142397
677.176	0.0142899
677.254	0.0143629
677.332	0.0144191
677.410	0.0143730
677.488	0.0144390
677.567	0.0146158
677.645	0.0146864
677.723	0.0146012
677.801	0.0147497
677.879	0.0148998
677.957	0.0149447
678.035	0.0148898
678.113	0.0150636
678.192	0.0149908
678.270	0.0149997
678.348	0.0151283
678.426	0.0151133
678.504	0.0151402
678.582	0.0149279
678.660	0.0149398
678.738	0.0149325
678.817	0.0150021
678.895	0.0149772
678.973	0.0148938
679.051	0.0148299
679.129	0.0148321
679.207	0.0150414
679.285	0.0147150
679.363	0.0147327
679.442	0.0146710
679.520	0.0146516
679.598	0.0146527
679.676	0.0145541
679.754	0.0145470
679.832	0.0145728
679.910	0.0145416
679.988	0.0145434
680.067	0.0146120
680.145	0.0146374
680.223	0.0145704
680.301	0.0144249
680.379	0.0145144
680.457	0.0144888
680.535	0.0144650
680.613	0.0144094
680.692	0.0144473
680.770	0.0144384
680.848	0.0143235
680.926	0.0143475
681.004	0.0143892
681.082	0.0144326
681.160	0.0143037
681.238	0.0143191
681.317	0.0142549
681.395	0.0141735
681.473	0.0142388
681.551	0.0142080
681.629	0.0141145
681.707	0.0141769
681.785	0.0142297
681.863	0.0140789
681.942	0.0140688
682.020	0.0140694
682.098	0.0141557
682.176	0.0142224
682.254	0.0143823
682.332	0.0142233
682.410	0.0143474
682.488	0.0145242
682.567	0.0144884
682.645	0.0145103
682.723	0.0146365
682.801	0.0149457
682.879	0.0148157
682.957	0.0148091
683.035	0.0150275
683.113	0.0150176
683.192	0.0150039
683.270	0.0151076
683.348	0.0151748
683.426	0.0152090
683.504	0.0151897
683.582	0.0152847
683.660	0.0152377
683.738	0.0152407
683.817	0.0151576
683.895	0.0151712
683.973	0.0152583
684.051	0.0150455
684.129	0.0148637
684.207	0.0148107
684.285	0.0147401
684.363	0.0147675
684.442	0.0146059
684.520	0.0146455
684.598	0.0144793
684.676	0.0144598
684.754	0.0142637
684.832	0.0141802
684.910	0.0141692
684.988	0.0139848
685.067	0.0140055
685.145	0.0139330
685.223	0.0139572
685.301	0.0139219
685.379	0.0139552
685.457	0.0138898
685.535	0.0139220
685.613	0.0139526
685.692	0.0138670
685.770	0.0139518
685.848	0.0141306
685.926	0.0142018
686.004	0.0141531
686.082	0.0142260
686.160	0.0141953
686.238	0.0141693
686.317	0.0142627
686.395	0.0141634
686.473	0.0142707
686.551	0.0143492
686.629	0.0142554
686.707	0.0144847
686.785	0.0145079
686.863	0.0144573
686.942	0.0145730
687.020	0.0143617
687.098	0.0144360
687.176	0.0144147
687.254	0.0145588
687.332	0.0147099
687.410	0.0146578
687.488	0.0147359
687.567	0.0146629
687.645	0.0148235
687.723	0.0148393
687.801	0.0148353
687.879	0.0149850
687.957	0.0149696
688.035	0.0149952
688.113	0.0150475
688.192	0.0150442
688.270	0.0149767
688.348	0.0150356
688.426	0.0149149
688.504	0.0150014
688.582	0.0148633
688.660	0.0148483
688.738	0.0148036
688.817	0.0146676
688.895	0.0145268
688.973	0.0146342
689.051	0.0143597
689.129	0.0144480
689.207	0.0144081
689.285	0.0143414
689.363	0.0143216
689.442	0.0142707
689.520	0.0141204
689.598	0.0141583
689.676	0.0143137
689.754	0.0141829
689.832	0.0141885
689.910	0.0141602
689.988	0.0141889
690.067	0.0141634
690.145	0.0142076
690.223	0.0142242
690.301	0.0143552
690.379	0.0143259
690.457	0.0142648
690.535	0.0141450
690.613	0.0141939
690.692	0.0141978
690.770	0.0141782
690.848	0.0141402
690.926	0.0141174
691.004	0.0140721
691.082	0.0141309
691.160	0.0140130
691.238	0.0139256
691.317	0.0140936
691.395	0.0141193
691.473	0.0139984
691.551	0.0141193
691.629	0.0141201
691.707	0.0142605
691.785	0.0143059
691.863	0.0143290
691.942	0.0145712
692.020	0.0145871
692.098	0.0146498
692.176	0.0146974
692.254	0.0147182
692.332	0.0147717
692.410	0.0149837
692.488	0.0149662
692.567	0.0150037
692.645	0.0150594
692.723	0.0151948
692.801	0.0150734
692.879	0.0151894
692.957	0.0151353
693.035	0.0152256
693.113	0.0151191
693.192	0.0151228
693.270	0.0149368
693.348	0.0151538
693.426	0.0151256
693.504	0.0151051
693.582	0.0150616
693.660	0.0149821
693.738	0.0150069
693.817	0.0149783
693.895	0.0147498
693.973	0.0147480
694.051	0.0146401
694.129	0.0146967
694.207	0.0146657
694.285	0.0142477
694.363	0.0143369
694.442	0.0143275
694.520	0.0141987
694.598	0.0140967
694.676	0.0140230
694.754	0.0141872
694.832	0.0138966
694.910	0.0137147
694.988	0.0137998
695.067	0.0138438
695.145	0.0137759
695.223	0.0139097
695.301	0.0138594
695.379	0.0136269
695.457	0.0140089
695.535	0.0138500
695.613	0.0139193
695.692	0.0138927
695.770	0.0139693
695.848	0.0141483
695.926	0.0141421
696.004	0.0141936
696.082	0.0141255
696.160	0.0142998
696.238	0.0144370
696.317	0.0145029
696.395	0.0144427
696.473	0.0145747
696.551	0.0146863
696.629	0.0147226
696.707	0.0146782
696.785	0.0147831
696.863	0.0148923
696.942	0.0149470
697.020	0.0150307
697.098	0.0148766
697.176	0.0149108
697.254	0.0150973
697.332	0.0150817
697.410	0.0150105
697.488	0.0150436
697.567	0.0150698
697.645	0.0151308
697.723	0.0148873
697.801	0.0149904
697.879	0.0150478
697.957	0.0148501
698.035	0.0148402
698.113	0.0148181
698.192	0.0148128
698.270	0.0147390
698.348	0.0144442
698.426	0.0145285
698.504	0.0145531
698.582	0.0144819
698.660	0.0143640
698.738	0.0142910
698.817	0.0144501
698.895	0.0143690
698.973	0.0140734
699.051	0.0141778
699.129	0.0140683
699.207	0.0139439
699.285	0.0141032
699.363	0.0139784
699.442	0.0139291
699.520	0.0139979
699.598	0.0140246
699.676	0.0139491
699.754	0.0139840
699.832	0.0138937
699.910	0.0139578
699.988	0.0140087
700.067	0.0139767
700.145	0.0139516
700.223	0.0139608
700.301	0.0139616
700.379	0.0139323
700.457	0.0141516
700.535	0.0140539
700.613	0.0140616
700.692	0.0142933
700.770	0.0141454
700.848	0.0142294
700.926	0.0143941
701.004	0.0143541
701.082	0.0143916
701.160	0.0145908
701.238	0.0145467
701.317	0.0144883
701.395	0.0147272
701.473	0.0147392
701.551	0.0148499
701.629	0.0147597
701.707	0.0147868
701.785	0.0148357
701.863	0.0148940
701.942	0.0148810
702.020	0.0149068
702.098	0.0149863
702.176	0.0148328
702.254	0.0147412
702.332	0.0147403
702.410	0.0147670
702.488	0.0147926
702.567	0.0146981
702.645	0.0146247
702.723	0.0146387
702.801	0.0146491
702.879	0.0146217
702.957	0.0147842
703.035	0.0146489
703.113	0.0147752
703.192	0.0148033
703.270	0.0146522
703.348	0.0146281
703.426	0.0147112
703.504	0.0146437
703.582	0.0146441
703.660	0.0146982
703.738	0.0145570
703.817	0.0145243
703.895	0.0144851
703.973	0.0145561
704.051	0.0145763
704.129	0.0147662
704.207	0.0145426
704.285	0.0145293
704.363	0.0144755
704.442	0.0145282
704.520	0.0145378
704.598	0.0145550
704.676	0.0144527
704.754	0.0143897
704.832	0.0145092
704.910	0.0143171
704.988	0.0144090
705.067	0.0143507
705.145	0.0142690
705.223	0.0144029
705.301	0.0143311
705.379	0.0142330
705.457	0.0142554
705.535	0.0140326
705.613	0.0142104
705.692	0.0141560
705.770	0.0143709
705.848	0.0142716
705.926	0.0141481
706.004	0.0142113
706.082	0.0143358
706.160	0.0141981
706.238	0.0143322
706.317	0.0143972
706.395	0.0143692
706.473	0.0144246
706.551	0.0144841
706.629	0.0145300
706.707	0.0145375
706.785	0.0146367
706.863	0.0145307
706.942	0.0145319
707.020	0.0146132
707.098	0.0145283
707.176	0.0144009
707.254	0.0146336
707.332	0.0145226
707.410	0.0144929
707.488	0.0146246
707.567	0.0145222
707.645	0.0145092
707.723	0.0144588
707.801	0.0145472
707.879	0.0144975
707.957	0.0144479
708.035	0.0143882
708.113	0.0144976
708.192	0.0143845
708.270	0.0143761
708.348	0.0144794
708.426	0.0143907
708.504	0.0144780
708.582	0.0145599
708.660	0.0145782
708.738	0.0145392
708.817	0.0145261
708.895	0.0145650
708.973	0.0145915
709.051	0.0146844
709.129	0.0145843
709.207	0.0145453
709.285	0.0146079
709.363	0.0145694
709.442	0.0144014
709.520	0.0146682
709.598	0.0144722
709.676	0.0143486
709.754	0.0143841
709.832	0.0145084
709.910	0.0143973
709.988	0.0143819
710.067	0.0143253
710.145	0.0143536
710.223	0.0143211
710.301	0.0145529
710.379	0.0143496
710.457	0.0144627
710.535	0.0144306
710.613	0.0143827
710.692	0.0144010
710.770	0.0142773
710.848	0.0142397
710.926	0.0143828
711.004	0.0144137
711.082	0.0142812
711.160	0.0141914
711.238	0.0141943
711.317	0.0142154
711.395	0.0142245
711.473	0.0141108
711.551	0.0143160
711.629	0.0141728
711.707	0.0142837
711.785	0.0143037
711.863	0.0143686
711.942	0.0143449
712.020	0.0144566
712.098	0.0143254
712.176	0.0143774
712.254	0.0144960
712.332	0.0145458
712.410	0.0144276
712.488	0.0146005
712.567	0.0147282
712.645	0.0146797
712.723	0.0147324
712.801	0.0148135
712.879	0.0148188
712.957	0.0147630
713.035	0.0147189
713.113	0.0147343
713.192	0.0148055
713.270	0.0147763
713.348	0.0146834
713.426	0.0147714
713.504	0.0147302
713.582	0.0146027
713.660	0.0147852
713.738	0.0146333
713.817	0.0146555
713.895	0.0147017
713.973	0.0146843
714.051	0.0146398
714.129	0.0145710
714.207	0.0146691
714.285	0.0146626
714.363	0.0146356
714.442	0.0146925
714.520	0.0147079
714.598	0.0146851
714.676	0.0144167
714.754	0.0146397
714.832	0.0144337
714.910	0.0145698
714.988	0.0146147
715.067	0.0145924
715.145	0.0145200
715.223	0.0144913
715.301	0.0145987
715.379	0.0145441
715.457	0.0143191
715.535	0.0144595
715.613	0.0143642
715.692	0.0143946
715.770	0.0142719
715.848	0.0144029
715.926	0.0143230
716.004	0.0144175
716.082	0.0143345
716.160	0.0142257
716.238	0.0143118
716.317	0.0141949
716.395	0.0143575
716.473	0.0143246
716.551	0.0142963
716.629	0.0142657
716.707	0.0143965
716.785	0.0143617
716.863	0.0141823
716.942	0.0142570
717.020	0.0143290
717.098	0.0142926
717.176	0.0141644
717.254	0.0143851
717.332	0.0145179
717.410	0.0146822
717.488	0.0144856
717.567	0.0145335
717.645	0.0145916
717.723	0.0145902
717.801	0.0146343
717.879	0.0147547
717.957	0.0147488
718.035	0.0147524
718.113	0.0147440
718.192	0.0148238
718.270	0.0148311
718.348	0.0148098
718.426	0.0147948
718.504	0.0147398
718.582	0.0147794
718.660	0.0147254
718.738	0.0147069
718.817	0.0147868
718.895	0.0145639
718.973	0.0144596
719.051	0.0145202
719.129	0.0144296
719.207	0.0144315
719.285	0.0144147
719.363	0.0143796
719.442	0.0144762
719.520	0.0143530
719.598	0.0142325
719.676	0.0143636
719.754	0.0142967
719.832	0.0142258
719.910	0.0142097
719.988	0.0143423
720.067	0.0144013
720.145	0.0143172
720.223	0.0143857
720.301	0.0144608
720.379	0.0145063
720.457	0.0143966
720.535	0.0144696
720.613	0.0144540
720.692	0.0144779
720.770	0.0143993
720.848	0.0145251
720.926	0.0145425
721.004	0.0145139
721.082	0.0144757
721.160	0.0145004
721.238	0.0144808
721.317	0.0145602
721.395	0.0144737
721.473	0.0143938
721.551	0.0142952
721.629	0.0144661
721.707	0.0144780
721.785	0.0144689
721.863	0.0145163
721.942	0.0145679
722.020	0.0145058
722.098	0.0145069
722.176	0.0143597
722.254	0.0144582
722.332	0.0144447
722.410	0.0144273
722.488	0.0145024
722.567	0.0144946
722.645	0.0145875
722.723	0.0144463
722.801	0.0144758
722.879	0.0145811
722.957	0.0145600
723.035	0.0146104
723.113	0.0145424
723.192	0.0144478
723.270	0.0144932
723.348	0.0145060
723.426	0.0144502
723.504	0.0145875
723.582	0.0146162
723.660	0.0146708
723.738	0.0147018
723.817	0.0146402
723.895	0.0146381
723.973	0.0145338
724.051	0.0145515
724.129	0.0145775
724.207	0.0146020
724.285	0.0146180
724.363	0.0145349
724.442	0.0145407
724.520	0.0145362
724.598	0.0145814
724.676	0.0144837
724.754	0.0145343
724.832	0.0144157
724.910	0.0144748
724.988	0.0145525
725.067	0.0146230
725.145	0.0146301
725.223	0.0146595
725.301	0.0145061
725.379	0.0146164
725.457	0.0145134
725.535	0.0146730
725.613	0.0147017
725.692	0.0144744
725.770	0.0146700
725.848	0.0146723
725.926	0.0146223
726.004	0.0147147
726.082	0.0144514
726.160	0.0144152
726.238	0.0144634
726.317	0.0144195
726.395	0.0144091
726.473	0.0144527
726.551	0.0143573
726.629	0.0146123
726.707	0.0143201
726.785	0.0142516
726.863	0.0143474
726.942	0.0142656
727.020	0.0143268
727.098	0.0143124
727.176	0.0143107
727.254	0.0143602
727.332	0.0144179
727.410	0.0142945
727.488	0.0144099
727.567	0.0144449
727.645	0.0144230
727.723	0.0144527
727.801	0.0144655
727.879	0.0145513
727.957	0.0145718
728.035	0.0145824
728.113	0.0145171
728.192	0.0145314
728.270	0.0145248
728.348	0.0145435
728.426	0.0146396
728.504	0.0146342
728.582	0.0145536
728.660	0.0145337
728.738	0.0144655
728.817	0.0146420
728.895	0.0145358
728.973	0.0145342
729.051	0.0144847
729.129	0.0145948
729.207	0.0144490
729.285	0.0145398
729.363	0.0146387
729.442	0.0144637
729.520	0.0145609
729.598	0.0144884
729.676	0.0144342
729.754	0.0142465
729.832	0.0144868
729.910	0.0144837
729.988	0.0143452
730.067	0.0143372
730.145	0.0145213
730.223	0.0144077
730.301	0.0143813
730.379	0.0144696
730.457	0.0146069
730.535	0.0143566
730.613	0.0145101
730.692	0.0146172
730.770	0.0145464
730.848	0.0145064
730.926	0.0146207
731.004	0.0146307
731.082	0.0145940
731.160	0.0144424
731.238	0.0145186
731.317	0.0147626
731.395	0.0145197
731.473	0.0145428
731.551	0.0146297
731.629	0.0145289
731.707	0.0147579
731.785	0.0145548
731.863	0.0145953
731.942	0.0145608
732.020	0.0146462
732.098	0.0145161
732.176	0.0146145
732.254	0.0146284
732.332	0.0145956
732.410	0.0144851
732.488	0.0144648
732.567	0.0144883
732.645	0.0146023
732.723	0.0145457
732.801	0.0143266
732.879	0.0144621
732.957	0.0145289
733.035	0.0144846
733.113	0.0143742
733.192	0.0144334
733.270	0.0145847
733.348	0.0145454
733.426	0.0145373
733.504	0.0145692
733.582	0.0146129
733.660	0.0144723
733.738	0.0146832
733.817	0.0145409
733.895	0.0145756
733.973	0.0145972
734.051	0.0146014
734.129	0.0146751
734.207	0.0145599
734.285	0.0145009
734.363	0.0146963
734.442	0.0145469
734.520	0.0144843
734.598	0.0144930
734.676	0.0144274
734.754	0.0144302
734.832	0.0144550
734.910	0.0145780
734.988	0.0144548
735.067	0.0144468
735.145	0.0143874
735.223	0.0143584
735.301	0.0144804
735.379	0.0145044
735.457	0.0145263
735.535	0.0146578
735.613	0.0144362
735.692	0.0144219
735.770	0.0145019
735.848	0.0145161
735.926	0.0147702
736.004	0.0145943
736.082	0.0146206
736.160	0.0146422
736.238	0.0146597
736.317	0.0147121
736.395	0.0146171
736.473	0.0145222
736.551	0.0144866
736.629	0.0146027
736.707	0.0145022
736.785	0.0146183
736.863	0.0145599
736.942	0.0145057
737.020	0.0143221
737.098	0.0145747
737.176	0.0145346
737.254	0.0144641
737.332	0.0143890
737.410	0.0144337
737.488	0.0143916
737.567	0.0143114
737.645	0.0143347
737.723	0.0143781
737.801	0.0142868
737.879	0.0143114
737.957	0.0145602
738.035	0.0143894
738.113	0.0142538
738.192	0.0144933
738.270	0.0145555
738.348	0.0144391
738.426	0.0144273
738.504	0.0145398
738.582	0.0146281
738.660	0.0146081
738.738	0.0146132
738.817	0.0144891
738.895	0.0145831
738.973	0.0146574
739.051	0.0146222
739.129	0.0147049
739.207	0.0146348
739.285	0.0144118
739.363	0.0145544
739.442	0.0144901
739.520	0.0144499
739.598	0.0143975
739.676	0.0145357
739.754	0.0145023
739.832	0.0143984
739.910	0.0144499
739.988	0.0144458
740.067	0.0144608
740.145	0.0144147
740.223	0.0144272
740.301	0.0145689
740.379	0.0145352
740.457	0.0144323
740.535	0.0145980
740.613	0.0144138
740.692	0.0144745
740.770	0.0145994
740.848	0.0145914
740.926	0.0146047
741.004	0.0145491
741.082	0.0144936
741.160	0.0145638
741.238	0.0144905
741.317	0.0147365
741.395	0.0146282
741.473	0.0145601
741.551	0.0146507
741.629	0.0147142
741.707	0.0146725
741.785	0.0147752
741.863	0.0146040
741.942	0.0147068
742.020	0.0147601
742.098	0.0146387
742.176	0.0146862
742.254	0.0146074
742.332	0.0146807
742.410	0.0146497
742.488	0.0146064
742.567	0.0145782
742.645	0.0146191
742.723	0.0146847
742.801	0.0145791
742.879	0.0146557
742.957	0.0146636
743.035	0.0146017
743.113	0.0145017
743.192	0.0145451
743.270	0.0145025
743.348	0.0144375
743.426	0.0143909
743.504	0.0145222
743.582	0.0144619
743.660	0.0143439
743.738	0.0143408
743.817	0.0143941
743.895	0.0143411
743.973	0.0144292
744.051	0.0143919
744.129	0.0143553
744.207	0.0142873
744.285	0.0145570
744.363	0.0145688
744.442	0.0144131
744.520	0.0143895
744.598	0.0143908
744.676	0.0144273
744.754	0.0145354
744.832	0.0145477
744.910	0.0145100
744.988	0.0142976
745.067	0.0143836
745.145	0.0146278
745.223	0.0146326
745.301	0.0145313
745.379	0.0145663
745.457	0.0144036
745.535	0.0144308
745.613	0.0144756
745.692	0.0144417
745.770	0.0144035
745.848	0.0146088
745.926	0.0146082
746.004	0.0146958
746.082	0.0145664
746.160	0.0144618
746.238	0.0145068
746.317	0.0145554
746.395	0.0144845
746.473	0.0143997
746.551	0.0145397
746.629	0.0144481
746.707	0.0145060
746.785	0.0143972
746.863	0.0146026
746.942	0.0144350
747.020	0.0145320
747.098	0.0144249
747.176	0.0143355
747.254	0.0144447
747.332	0.0142715
747.410	0.0142773
747.488	0.0143632
747.567	0.0143829
747.645	0.0144263
747.723	0.0142188
747.801	0.0143005
747.879	0.0143719
747.957	0.0145706
748.035	0.0143933
748.113	0.0143501
748.192	0.0143816
748.270	0.0145359
748.348	0.0143423
748.426	0.0145308
748.504	0.0145332
748.582	0.0144879
748.660	0.0145710
748.738	0.0144852
748.817	0.0146967
748.895	0.0146011
748.973	0.0145684
749.051	0.0146867
749.129	0.0145748
749.207	0.0146323
749.285	0.0146853
749.363	0.0147624
749.442	0.0147654
749.520	0.0145565
749.598	0.0147077
749.676	0.0147469
749.754	0.0145367
749.832	0.0146441
749.910	0.0147093
749.988	0.0145798
750.067	0.0144643
750.145	0.0145099
750.223	0.0145157
750.301	0.0145996
750.379	0.0145834
750.457	0.0144234
750.535	0.0145388
750.613	0.0145706
750.692	0.0146432
750.770	0.0145096
750.848	0.0144496
750.926	0.0145425
751.004	0.0145644
751.082	0.0146240
751.160	0.0145497
751.238	0.0145774
751.317	0.0145943
751.395	0.0145854
751.473	0.0146336
751.551	0.0145478
751.629	0.0146278
751.707	0.0146038
751.785	0.0146937
751.863	0.0146336
751.942	0.0146049
752.020	0.0146062
752.098	0.0146090
752.176	0.0145264
752.254	0.0145008
752.332	0.0144524
752.410	0.0145847
752.488	0.0144026
752.567	0.0147354
752.645	0.0145624
752.723	0.0146384
752.801	0.0144582
752.879	0.0145862
752.957	0.0145235
753.035	0.0144778
753.113	0.0145583
753.192	0.0145667
753.270	0.0144971
753.348	0.0144666
753.426	0.0145947
753.504	0.0145238
753.582	0.0145355
753.660	0.0145953
753.738	0.0143827
753.817	0.0144564
753.895	0.0145195
753.973	0.0143696
754.051	0.0144865
754.129	0.0143881
754.207	0.0143518
754.285	0.0143920
754.363	0.0145431
754.442	0.0144434
754.520	0.0144164
754.598	0.0144067
754.676	0.0144940
754.754	0.0143615
754.832	0.0145092
754.910	0.0144390
754.988	0.0143723
755.067	0.0145146
755.145	0.0145186
755.223	0.0143758
755.301	0.0143847
755.379	0.0145212
755.457	0.0144899
755.535	0.0144923
755.613	0.0146500
755.692	0.0144736
755.770	0.0144301
755.848	0.0144426
755.926	0.0146709
756.004	0.0144942
756.082	0.0145048
756.160	0.0146243
756.238	0.0144881
756.317	0.0146337
756.395	0.0145687
756.473	0.0146063
756.551	0.0145928
756.629	0.0144592
756.707	0.0144919
756.785	0.0144324
756.863	0.0145122
756.942	0.0144594
757.020	0.0145859
757.098	0.0145371
757.176	0.0146661
757.254	0.0145502
757.332	0.0144869
757.410	0.0145979
757.488	0.0146535
757.567	0.0146307
757.645	0.0146108
757.723	0.0146704
757.801	0.0147646
757.879	0.0146134
757.957	0.0144846
758.035	0.0145911
758.113	0.0146645
758.192	0.0146620
758.270	0.0144777
758.348	0.0146692
758.426	0.0146212
758.504	0.0146429
758.582	0.0146347
758.660	0.0146533
758.738	0.0145326
758.817	0.0145872
758.895	0.0146206
758.973	0.0146330
759.051	0.0147377
759.129	0.0145838
759.207	0.0146408
759.285	0.0146728
759.363	0.0145695
759.442	0.0145762
759.520	0.0147343
759.598	0.0146610
759.676	0.0147038
759.754	0.0146297
759.832	0.0145836
759.910	0.0146938
759.988	0.0146333
760.067	0.0146510
760.145	0.0145554
760.223	0.0147026
760.301	0.0147177
760.379	0.0146956
760.457	0.0146545
760.535	0.0148026
760.613	0.0145094
760.692	0.0145423
760.770	0.0147733
760.848	0.0147752
760.926	0.0147950
761.004	0.0147415
761.082	0.0145881
761.160	0.0147112
761.238	0.0147025
761.317	0.0148677
761.395	0.0146559
761.473	0.0146706
761.551	0.0146451
761.629	0.0145653
761.707	0.0146413
761.785	0.0147274
761.863	0.0147937
761.942	0.0146449
762.020	0.0147038
762.098	0.0147271
762.176	0.0146062
762.254	0.0146171
762.332	0.0144923
762.410	0.0145992
762.488	0.0146838
762.567	0.0146715
762.645	0.0147916
762.723	0.0146338
762.801	0.0147160
762.879	0.0145855
762.957	0.0147469
763.035	0.0147869
763.113	0.0146955
763.192	0.0148020
763.270	0.0148011
763.348	0.0147686
763.426	0.0147575
763.504	0.0146078
763.582	0.0147665
763.660	0.0147575
763.738	0.0146558
763.817	0.0145785
763.895	0.0146136
763.973	0.0146650
764.051	0.0146505
764.129	0.0145502
764.207	0.0145748
764.285	0.0147289
764.363	0.0144640
764.442	0.0143645
764.520	0.0144976
764.598	0.0144891
764.676	0.0144527
764.754	0.0143876
764.832	0.0144142
764.910	0.0144621
764.988	0.0143347
765.067	0.0143909
765.145	0.0144361
765.223	0.0143416
765.301	0.0143181
765.379	0.0144709
765.457	0.0144254
765.535	0.0143990
765.613	0.0144460
765.692	0.0144311
765.770	0.0146017
765.848	0.0144769
765.926	0.0144896
766.004	0.0145158
766.082	0.0145627
766.160	0.0145777
766.238	0.0145610
766.317	0.0146374
766.395	0.0146569
766.473	0.0145335
766.551	0.0145003
766.629	0.0144991
766.707	0.0145191
766.785	0.0146072
766.863	0.0145918
766.942	0.0143901
767.020	0.0144678
767.098	0.0145947
767.176	0.0144199
767.254	0.0143009
767.332	0.0145077
767.410	0.0143822
767.488	0.0144851
767.567	0.0146095
767.645	0.0143612
767.723	0.0143729
767.801	0.0144794
767.879	0.0144227
767.957	0.0144513
768.035	0.0145056
768.113	0.0145181
768.192	0.0144611
768.270	0.0143664
768.348	0.0144876
768.426	0.0145240
768.504	0.0144997
768.582	0.0145092
768.660	0.0145659
768.738	0.0144245
768.817	0.0144909
768.895	0.0144134
768.973	0.0145702
769.051	0.0145158
769.129	0.0144975
769.207	0.0144959
769.285	0.0145181
769.363	0.0146133
769.442	0.0144572
769.520	0.0144857
769.598	0.0144263
769.676	0.0146423
769.754	0.0144915
769.832	0.0146283
769.910	0.0145721
769.988	0.0144170
770.067	0.0146194
770.145	0.0144910
770.223	0.0145383
770.301	0.0144531
770.379	0.0145732
770.457	0.0145607
770.535	0.0146931
770.613	0.0147584
770.692	0.0146861
770.770	0.0145713
770.848	0.0146375
770.926	0.0146844
771.004	0.0145868
771.082	0.0146960
771.160	0.0146603
771.238	0.0145645
771.317	0.0148097
771.395	0.0145686
771.473	0.0146220
771.551	0.0146025
771.629	0.0145135
771.707	0.0146052
771.785	0.0145180
771.863	0.0145788
771.942	0.0145781
772.020	0.0144582
772.098	0.0145667
772.176	0.0145440
772.254	0.0144904
772.332	0.0145705
772.410	0.0146788
772.488	0.0145415
772.567	0.0145269
772.645	0.0145222
772.723	0.0145081
772.801	0.0144677
772.879	0.0144531
772.957	0.0144804
773.035	0.0144434
773.113	0.0144394
773.192	0.0146146
773.270	0.0144431
773.348	0.0143758
773.426	0.0144286
773.504	0.0142594
773.582	0.0143509
773.660	0.0142815
773.738	0.0144545
773.817	0.0143829
773.895	0.0144496
773.973	0.0145029
774.051	0.0143436
774.129	0.0143528
774.207	0.0145634
774.285	0.0145142
774.363	0.0146376
774.442	0.0143774
774.520	0.0144770
774.598	0.0146332
774.676	0.0145667
774.754	0.0144532
774.832	0.0145251
774.910	0.0146059
774.988	0.0146401
775.067	0.0145734
775.145	0.0143994
775.223	0.0144573
775.301	0.0146118
775.379	0.0145929
775.457	0.0143857
775.535	0.0144350
775.613	0.0145961
775.692	0.0144150
775.770	0.0144714
775.848	0.0145475
775.926	0.0144260
776.004	0.0144186
776.082	0.0144482
776.160	0.0145444
776.238	0.0144001
776.317	0.0142606
776.395	0.0144360
776.473	0.0144523
776.551	0.0144378
776.629	0.0143971
776.707	0.0143996
776.785	0.0145087
776.863	0.0143512
776.942	0.0144172
777.020	0.0145061
777.098	0.0145334
777.176	0.0144827
777.254	0.0145233
777.332	0.0144859
777.410	0.0143978
777.488	0.0146488
777.567	0.0144379
777.645	0.0145196
777.723	0.0145986
777.801	0.0145142
777.879	0.0145269
777.957	0.0145975
778.035	0.0145576
778.113	0.0144878
778.192	0.0145579
778.270	0.0145615
778.348	0.0145512
778.426	0.0145792
778.504	0.0145486
778.582	0.0145209
778.660	0.0146497
778.738	0.0145711
778.817	0.0145139
778.895	0.0144801
778.973	0.0146540
779.051	0.0145872
779.129	0.0145007
779.207	0.0145977
779.285	0.0147153
779.363	0.0146039
779.442	0.0145947
779.520	0.0145464
779.598	0.0146790
779.676	0.0144905
779.754	0.0145866
779.832	0.0145585
779.910	0.0143951
779.988	0.0145198
780.067	0.0144783
780.145	0.0148000
780.223	0.0146455
780.301	0.0145464
780.379	0.0146147
780.457	0.0145892
780.535	0.0145329
780.613	0.0146483
780.692	0.0145071
780.770	0.0145560
780.848	0.0146009
780.926	0.0144952
781.004	0.0145024
781.082	0.0145947
781.160	0.0144421
781.238	0.0146193
781.317	0.0145370
781.395	0.0146094
781.473	0.0145012
781.551	0.0144077
781.629	0.0145232
781.707	0.0145583
781.785	0.0144956
781.863	0.0145172
781.942	0.0143953
782.020	0.0144480
782.098	0.0143724
782.176	0.0143478
782.254	0.0143533
782.332	0.0145235
782.410	0.0145872
782.488	0.0144978
782.567	0.0144868
782.645	0.0145435
782.723	0.0145304
782.801	0.0145334
782.879	0.0146569
782.957	0.0144341
783.035	0.0145004
783.113	0.0145282
783.192	0.0144293
783.270	0.0145661
783.348	0.0144874
783.426	0.0145090
783.504	0.0144633
783.582	0.0145067
783.660	0.0144390
783.738	0.0145315
783.817	0.0145036
783.895	0.0144432
783.973	0.0146069
784.051	0.0143678
784.129	0.0144668
784.207	0.0144919
784.285	0.0144652
784.363	0.0144314
784.442	0.0143523
784.520	0.0145039
784.598	0.0144370
784.676	0.0143989
784.754	0.0143541
784.832	0.0142558
784.910	0.0143637
784.988	0.0145006
785.067	0.0143792
785.145	0.0143399
785.223	0.0144067
785.301	0.0143288
785.379	0.0143877
785.457	0.0144860
785.535	0.0143895
785.613	0.0141128
785.692	0.0143368
785.770	0.0144112
785.848	0.0142643
785.926	0.0142915
786.004	0.0144189
786.082	0.0143661
786.160	0.0143810
786.238	0.0143932
786.317	0.0142960
786.395	0.0144543
786.473	0.0143582
786.551	0.0144307
786.629	0.0143804
786.707	0.0143912
786.785	0.0144616
786.863	0.0144048
786.942	0.0143924
787.020	0.0145638
787.098	0.0145074
787.176	0.0143211
787.254	0.0143513
787.332	0.0144206
787.410	0.0142863
787.488	0.0143942
787.567	0.0144190
787.645	0.0144480
787.723	0.0144457
787.801	0.0142989
787.879	0.0143971
787.957	0.0143713
788.035	0.0144734
788.113	0.0143768
788.192	0.0145038
788.270	0.0144959
788.348	0.0145869
788.426	0.0144131
788.504	0.0144753
788.582	0.0144917
788.660	0.0146360
788.738	0.0146828
788.817	0.0144848
788.895	0.0145366
788.973	0.0146259
789.051	0.0145345
789.129	0.0145491
789.207	0.0146393
789.285	0.0145569
789.363	0.0144527
789.442	0.0145111
789.520	0.0146111
789.598	0.0145900
789.676	0.0145891
789.754	0.0144617
789.832	0.0145715
789.910	0.0144061
789.988	0.0144744
790.067	0.0144939
790.145	0.0144064
790.223	0.0143121
790.301	0.0143288
790.379	0.0144167
790.457	0.0146035
790.535	0.0143507
790.613	0.0143084
790.692	0.0143601
790.770	0.0144862
790.848	0.0144283
790.926	0.0143694
791.004	0.0143306
791.082	0.0144155
791.160	0.0145151
791.238	0.0145093
791.317	0.0143415
791.395	0.0143946
791.473	0.0143374
791.551	0.0143148
791.629	0.0144167
791.707	0.0143129
791.785	0.0142886
791.863	0.0143638
791.942	0.0142908
792.020	0.0143706
792.098	0.0143816
792.176	0.0142724
792.254	0.0142919
792.332	0.0143623
792.410	0.0143607
792.488	0.0143622
792.567	0.0143018
792.645	0.0144052
792.723	0.0142713
792.801	0.0142164
792.879	0.0143535
792.957	0.0142751
793.035	0.0144375
793.113	0.0143845
793.192	0.0141711
793.270	0.0142493
793.348	0.0142845
793.426	0.0143132
793.504	0.0143739
793.582	0.0143306
793.660	0.0143626
793.738	0.0144630
793.817	0.0144765
793.895	0.0144676
793.973	0.0144485
794.051	0.0144617
794.129	0.0144828
794.207	0.0142838
794.285	0.0145166
794.363	0.0145125
794.442	0.0144850
794.520	0.0145783
794.598	0.0145755
794.676	0.0144318
794.754	0.0145693
794.832	0.0144228
794.910	0.0144977
794.988	0.0145966
795.067	0.0144871
795.145	0.0144702
795.223	0.0144110
795.301	0.0144222
795.379	0.0146687
795.457	0.0145237
795.535	0.0144824
795.613	0.0144845
795.692	0.0144361
795.770	0.0144680
795.848	0.0144633
795.926	0.0145039
796.004	0.0145482
796.082	0.0143566
796.160	0.0144750
796.238	0.0142950
796.317	0.0145440
796.395	0.0144553
796.473	0.0144186
796.551	0.0144194
796.629	0.0145309
796.707	0.0146903
796.785	0.0145614
796.863	0.0145547
796.942	0.0146374
797.020	0.0146706
797.098	0.0146378
797.176	0.0144762
797.254	0.0146090
797.332	0.0146778
797.410	0.0146127
797.488	0.0144953
797.567	0.0143713
797.645	0.0145895
797.723	0.0146365
797.801	0.0146915
797.879	0.0146329
797.957	0.0145560
798.035	0.0145053
798.113	0.0145060
798.192	0.0145622
798.270	0.0145668
798.348	0.0146042
798.426	0.0147208
798.504	0.0145434
798.582	0.0146297
798.660	0.0145081
798.738	0.0147258
798.817	0.0144711
798.895	0.0144802
798.973	0.0145148
799.051	0.0145945
799.129	0.0145293
799.207	0.0144305
799.285	0.0144919
799.363	0.0144742
799.442	0.0145841
799.520	0.0146584
799.598	0.0144624
799.676	0.0143571
799.754	0.0143806
799.832	0.0144556
799.910	0.0144991
799.988	0.0143956
800.067	0.0144635
800.145	0.0144517
800.223	0.0143581
800.301	0.0143484
800.379	0.0142185
800.457	0.0144788
800.535	0.0142651
800.613	0.0143863
800.692	0.0143729
800.770	0.0142582
800.848	0.0143031
800.926	0.0143449
801.004	0.0142711
801.082	0.0142827
801.160	0.0141332
801.238	0.0143333
801.317	0.0142783
801.395	0.0142831
801.473	0.0141502
801.551	0.0143202
801.629	0.0143086
801.707	0.0144320
801.785	0.0143043
801.863	0.0143385
801.942	0.0143224
802.020	0.0144852
802.098	0.0143756
802.176	0.0145314
802.254	0.0144373
802.332	0.0143568
802.410	0.0143130
802.488	0.0145221
802.567	0.0145032
802.645	0.0143972
802.723	0.0145148
802.801	0.0144902
802.879	0.0144817
802.957	0.0145394
803.035	0.0146139
803.113	0.0145230
803.192	0.0145349
803.270	0.0146220
803.348	0.0144888
803.426	0.0144064
803.504	0.0144633
803.582	0.0145037
803.660	0.0145782
803.738	0.0145885
803.817	0.0143525
803.895	0.0144930
803.973	0.0144803
804.051	0.0143507
804.129	0.0143994
804.207	0.0144432
804.285	0.0143584
804.363	0.0145029
804.442	0.0142876
804.520	0.0143516
804.598	0.0144144
804.676	0.0142892
804.754	0.0144545
804.832	0.0143516
804.910	0.0143542
804.988	0.0143348
805.067	0.0144516
805.145	0.0144815
805.223	0.0143520
805.301	0.0144679
805.379	0.0145103
805.457	0.0143940
805.535	0.0144257
805.613	0.0143231
805.692	0.0143557
805.770	0.0142774
805.848	0.0143858
805.926	0.0145388
806.004	0.0145594
806.082	0.0143019
806.160	0.0143197
806.238	0.0144090
806.317	0.0143982
806.395	0.0145909
806.473	0.0143004
806.551	0.0143685
806.629	0.0144611
806.707	0.0144319
806.785	0.0145395
806.863	0.0144308
806.942	0.0144078
807.020	0.0144208
807.098	0.0144006
807.176	0.0144012
807.254	0.0142652
807.332	0.0143712
807.410	0.0144266
807.488	0.0144899
807.567	0.0144208
807.645	0.0144858
807.723	0.0145345
807.801	0.0143907
807.879	0.0144144
807.957	0.0144773
808.035	0.0144172
808.113	0.0145830
808.192	0.0144592
808.270	0.0145813
808.348	0.0144075
808.426	0.0144343
808.504	0.0145016
808.582	0.0144618
808.660	0.0144552
808.738	0.0145952
808.817	0.0144742
808.895	0.0143626
808.973	0.0144262
809.051	0.0144209
809.129	0.0144614
809.207	0.0145094
809.285	0.0144459
809.363	0.0144083
809.442	0.0145707
809.520	0.0143860
809.598	0.0143369
809.676	0.0144377
809.754	0.0144775
809.832	0.0144317
809.910	0.0143319
809.988	0.0143187
810.067	0.0144296
810.145	0.0143616
810.223	0.0144262
810.301	0.0144273
810.379	0.0145022
810.457	0.0145268
810.535	0.0145078
810.613	0.0145066
810.692	0.0145335
810.770	0.0144021
810.848	0.0146119
810.926	0.0144970
811.004	0.0144498
811.082	0.0145866
811.160	0.0144888
811.238	0.0145068
811.317	0.0146230
811.395	0.0144492
811.473	0.0143228
811.551	0.0145146
811.629	0.0145802
811.707	0.0143783
811.785	0.0143661
811.863	0.0144838
811.942	0.0145461
812.020	0.0144033
812.098	0.0144410
812.176	0.0144493
812.254	0.0142921
812.332	0.0143158
812.410	0.0142613
812.488	0.0142996
812.567	0.0144691
812.645	0.0143193
812.723	0.0142912
812.801	0.0143497
812.879	0.0141064
812.957	0.0141929
813.035	0.0143131
813.113	0.0142741
813.192	0.0142467
813.270	0.0143700
813.348	0.0143056
813.426	0.0143324
813.504	0.0142892
813.582	0.0142601
813.660	0.0144461
813.738	0.0143064
813.817	0.0143988
813.895	0.0143665
813.973	0.0143800
814.051	0.0143281
814.129	0.0144821
814.207	0.0143881
814.285	0.0144238
814.363	0.0145470
814.442	0.0143793
814.520	0.0144443
814.598	0.0143488
814.676	0.0142149
814.754	0.0143076
814.832	0.0144490
814.910	0.0142889
814.988	0.0141844
815.067	0.0144599
815.145	0.0143438
815.223	0.0141578
815.301	0.0144649
815.379	0.0144301
815.457	0.0143543
815.535	0.0142629
815.613	0.0142789
815.692	0.0142941
815.770	0.0142991
815.848	0.0142813
815.926	0.0144048
816.004	0.0145099
816.082	0.0143822
816.160	0.0143441
816.238	0.0143578
816.317	0.0143291
816.395	0.0144326
816.473	0.0144273
816.551	0.0144669
816.629	0.0143272
816.707	0.0144211
816.785	0.0144024
816.863	0.0144116
816.942	0.0144460
817.020	0.0144427
817.098	0.0144469
817.176	0.0145532
817.254	0.0144326
817.332	0.0144350
817.410	0.0144842
817.488	0.0144666
817.567	0.0144109
817.645	0.0144396
817.723	0.0144569
817.801	0.0145004
817.879	0.0144057
817.957	0.0144541
818.035	0.0143642
818.113	0.0145103
818.192	0.0144093
818.270	0.0143732
818.348	0.0143344
818.426	0.0143443
818.504	0.0143325
818.582	0.0145971
818.660	0.0143877
818.738	0.0144145
818.817	0.0144390
818.895	0.0144878
818.973	0.0146571
819.051	0.0144080
819.129	0.0144510
819.207	0.0146408
819.285	0.0146005
819.363	0.0144717
819.442	0.0146231
819.520	0.0145880
819.598	0.0145808
819.676	0.0145744
819.754	0.0145384
819.832	0.0145832
819.910	0.0146343
819.988	0.0145623
820.067	0.0145525
820.145	0.0145345
820.223	0.0146089
820.301	0.0145310
820.379	0.0145796
820.457	0.0146475
820.535	0.0145432
820.613	0.0147151
820.692	0.0146688
820.770	0.0144635
820.848	0.0145365
820.926	0.0146294
821.004	0.0144978
821.082	0.0146515
821.160	0.0146894
821.238	0.0145723
821.317	0.0146084
821.395	0.0146188
821.473	0.0146138
821.551	0.0145956
821.629	0.0147445
821.707	0.0146568
821.785	0.0145034
821.863	0.0146182
821.942	0.0147341
822.020	0.0146778
822.098	0.0145532
822.176	0.0145804
822.254	0.0146750
822.332	0.0145776
822.410	0.0145561
822.488	0.0147028
822.567	0.0145449
822.645	0.0144421
822.723	0.0145940
822.801	0.0145389
822.879	0.0144629
822.957	0.0144250
823.035	0.0143987
823.113	0.0143911
823.192	0.0144144
823.270	0.0143980
823.348	0.0143552
823.426	0.0145065
823.504	0.0144807
823.582	0.0143375
823.660	0.0143545
823.738	0.0144444
823.817	0.0143492
823.895	0.0144216
823.973	0.0144740
824.051	0.0145623
824.129	0.0142147
824.207	0.0143372
824.285	0.0144590
824.363	0.0144827
824.442	0.0144432
824.520	0.0144703
824.598	0.0145545
824.676	0.0144932
824.754	0.0145213
824.832	0.0146110
824.910	0.0144483
824.988	0.0144789
825.067	0.0145042
825.145	0.0144476
825.223	0.0145722
825.301	0.0145636
825.379	0.0144109
825.457	0.0144437
825.535	0.0144510
825.613	0.0146033
825.692	0.0144607
825.770	0.0144656
825.848	0.0144191
825.926	0.0144737
826.004	0.0145512
826.082	0.0144687
826.160	0.0145303
826.238	0.0143990
826.317	0.0143591
826.395	0.0145590
826.473	0.0143784
826.551	0.0143358
826.629	0.0144961
826.707	0.0144949
826.785	0.0145851
826.863	0.0144496
826.942	0.0145889
827.020	0.0144275
827.098	0.0144656
827.176	0.0144798
827.254	0.0144586
827.332	0.0145620
827.410	0.0145007
827.488	0.0146567
827.567	0.0146159
827.645	0.0146058
827.723	0.0145689
827.801	0.0145949
827.879	0.0146391
827.957	0.0145536
828.035	0.0144429
828.113	0.0145819
828.192	0.0146120
828.270	0.0146647
828.348	0.0145710
828.426	0.0144975
828.504	0.0145528
828.582	0.0145621
828.660	0.0145362
828.738	0.0144699
828.817	0.0144933
828.895	0.0144849
828.973	0.0144001
829.051	0.0144233
829.129	0.0145177
829.207	0.0143891
829.285	0.0145962
829.363	0.0145508
829.442	0.0145452
829.520	0.0145625
829.598	0.0145107
829.676	0.0146685
829.754	0.0145441
829.832	0.0146558
829.910	0.0145591
829.988	0.0144375
830.067	0.0146340
830.145	0.0145193
830.223	0.0145183
830.301	0.0146118
830.379	0.0145371
830.457	0.0145845
830.535	0.0146172
830.613	0.0146545
830.692	0.0146680
830.770	0.0145496
830.848	0.0145357
830.926	0.0145872
831.004	0.0144822
831.082	0.0144407
831.160	0.0145148
831.238	0.0146231
831.317	0.0144570
831.395	0.0144584
831.473	0.0145737
831.551	0.0143470
831.629	0.0144650
831.707	0.0146323
831.785	0.0146228
831.863	0.0143880
831.942	0.0144585
832.020	0.0144903
832.098	0.0144752
832.176	0.0144812
832.254	0.0145379
832.332	0.0144501
832.410	0.0144533
832.488	0.0144968
832.567	0.0144366
832.645	0.0144518
832.723	0.0145713
832.801	0.0144694
832.879	0.0144284
832.957	0.0143137
833.035	0.0144850
833.113	0.0143860
833.192	0.0143421
833.270	0.0143684
833.348	0.0144173
833.426	0.0144752
833.504	0.0144904
833.582	0.0145482
833.660	0.0144336
833.738	0.0145095
833.817	0.0144898
833.895	0.0144307
833.973	0.0143501
834.051	0.0144593
834.129	0.0145276
834.207	0.0145061
834.285	0.0145063
834.363	0.0145591
834.442	0.0145206
834.520	0.0145038
834.598	0.0146271
834.676	0.0144814
834.754	0.0145290
834.832	0.0144567
834.910	0.0146071
834.988	0.0145160
835.067	0.0145073
835.145	0.0145543
835.223	0.0147079
835.301	0.0145157
835.379	0.0144621
835.457	0.0145990
835.535	0.0144707
835.613	0.0146268
835.692	0.0146677
835.770	0.0144997
835.848	0.0145716
835.926	0.0146866
836.004	0.0146084
836.082	0.0145883
836.160	0.0145581
836.238	0.0146409
836.317	0.0146204
836.395	0.0147112
836.473	0.0146873
836.551	0.0145205
836.629	0.0146819
836.707	0.0146924
836.785	0.0146696
836.863	0.0144844
836.942	0.0145866
837.020	0.0145443
837.098	0.0145615
837.176	0.0146007
837.254	0.0145929
837.332	0.0146135
837.410	0.0146437
837.488	0.0145600
837.567	0.0145299
837.645	0.0144667
837.723	0.0144852
837.801	0.0145012
837.879	0.0145211
837.957	0.0145705
838.035	0.0143269
838.113	0.0145341
838.192	0.0145126
838.270	0.0144115
838.348	0.0143777
838.426	0.0144456
838.504	0.0144382
838.582	0.0144402
838.660	0.0144648
838.738	0.0144573
838.817	0.0145393
838.895	0.0145093
838.973	0.0144329
839.051	0.0144894
839.129	0.0145811
839.207	0.0144811
839.285	0.0144919
839.363	0.0144113
839.442	0.0144305
839.520	0.0144660
839.598	0.0145582
839.676	0.0144225
839.754	0.0145490
839.832	0.0144385
839.910	0.0145310
839.988	0.0145787
840.067	0.0144527
840.145	0.0145457
840.223	0.0145863
840.301	0.0145732
840.379	0.0144817
840.457	0.0145545
840.535	0.0144695
840.613	0.0147595
840.692	0.0146513
840.770	0.0147077
840.848	0.0146209
840.926	0.0146461
841.004	0.0146247
841.082	0.0144873
841.160	0.0146429
841.238	0.0146092
841.317	0.0145744
841.395	0.0145327
841.473	0.0145552
841.551	0.0146217
841.629	0.0145614
841.707	0.0145611
841.785	0.0146364
841.863	0.0145155
841.942	0.0146602
842.020	0.0146101
842.098	0.0145483
842.176	0.0146085
842.254	0.0145475
842.332	0.0146639
842.410	0.0146213
842.488	0.0144862
842.567	0.0146993
842.645	0.0145763
842.723	0.0143732
842.801	0.0144847
842.879	0.0144422
842.957	0.0147898
843.035	0.0148227
843.113	0.0145297
843.192	0.0142970
843.270	0.0145981
843.348	0.0146387
843.426	0.0145275
843.504	0.0145616
843.582	0.0144276
843.660	0.0143244
843.738	0.0143368
843.817	0.0143624
843.895	0.0144280
843.973	0.0144255
844.051	0.0145084
844.129	0.0143459
844.207	0.0142420
844.285	0.0142432
844.363	0.0143366
844.442	0.0143287
844.520	0.0145284
844.598	0.0144087
844.676	0.0143641
844.754	0.0144633
844.832	0.0144923
844.910	0.0145278
844.988	0.0146727
845.067	0.0145483
845.145	0.0145311
845.223	0.0146997
845.301	0.0144656
845.379	0.0145144
845.457	0.0145835
845.535	0.0146167
845.613	0.0146840
845.692	0.0145747
845.770	0.0144088
845.848	0.0145647
845.926	0.0145703
846.004	0.0145956
846.082	0.0145486
846.160	0.0145393
846.238	0.0145527
846.317	0.0145259
846.395	0.0145159
846.473	0.0145264
846.551	0.0145359
846.629	0.0145016
846.707	0.0146539
846.785	0.0145508
846.863	0.0145145
846.942	0.0145935
847.020	0.0145504
847.098	0.0143342
847.176	0.0146039
847.254	0.0145979
847.332	0.0143472
847.410	0.0145476
847.488	0.0145239
847.567	0.0144667
847.645	0.0144698
847.723	0.0145850
847.801	0.0146404
847.879	0.0145948
847.957	0.0144344
848.035	0.0144878
848.113	0.0145913
848.192	0.0145065
848.270	0.0145796
848.348	0.0145600
848.426	0.0145557
848.504	0.0145274
848.582	0.0145927
848.660	0.0146064
848.738	0.0145227
848.817	0.0144756
848.895	0.0145029
848.973	0.0144887
849.051	0.0145155
849.129	0.0144455
849.207	0.0146061
849.285	0.0146372
849.363	0.0145936
849.442	0.0144949
849.520	0.0145368
849.598	0.0145765
849.676	0.0145314
849.754	0.0145108
849.832	0.0145247
849.910	0.0145980
849.988	0.0146830
850.067	0.0146109
850.145	0.0145953
850.223	0.0145508
850.301	0.0146487
850.379	0.0146147
850.457	0.0147018
850.535	0.0146793
850.613	0.0146658
850.692	0.0146762
850.770	0.0146890
850.848	0.0146462
850.926	0.0144396
851.004	0.0146064
851.082	0.0145705
851.160	0.0146582
851.238	0.0146002
851.317	0.0145821
851.395	0.0147049
851.473	0.0146419
851.551	0.0144858
851.629	0.0145909
851.707	0.0147170
851.785	0.0145654
851.863	0.0146843
851.942	0.0144730
852.020	0.0146196
852.098	0.0145222
852.176	0.0145786
852.254	0.0148309
852.332	0.0146223
852.410	0.0145483
852.488	0.0145503
852.567	0.0145545
852.645	0.0144616
852.723	0.0145785
852.801	0.0145545
852.879	0.0145194
852.957	0.0146171
853.035	0.0144568
853.113	0.0146391
853.192	0.0145596
853.270	0.0145022
853.348	0.0145223
853.426	0.0145548
853.504	0.0146974
853.582	0.0144922
853.660	0.0144669
853.738	0.0143455
853.817	0.0144703
853.895	0.0146471
853.973	0.0144263
854.051	0.0145241
854.129	0.0145344
854.207	0.0145619
854.285	0.0145125
854.363	0.0143468
854.442	0.0144497
854.520	0.0144089
854.598	0.0144652
854.676	0.0144312
854.754	0.0144549
854.832	0.0143022
854.910	0.0142010
854.988	0.0144580
855.067	0.0147066
855.145	0.0144556
855.223	0.0144315
855.301	0.0143284
855.379	0.0144330
855.457	0.0144822
855.535	0.0143970
855.613	0.0145042
855.692	0.0145345
855.770	0.0144149
855.848	0.0145076
855.926	0.0144682
856.004	0.0144894
856.082	0.0145141
856.160	0.0143941
856.238	0.0145126
856.317	0.0145190
856.395	0.0145290
856.473	0.0145737
856.551	0.0144524
856.629	0.0145761
856.707	0.0144563
856.785	0.0144878
856.863	0.0145114
856.942	0.0144079
857.020	0.0145074
857.098	0.0145406
857.176	0.0143661
857.254	0.0143565
857.332	0.0143938
857.410	0.0144443
857.488	0.0144999
857.567	0.0143098
857.645	0.0145195
857.723	0.0144740
857.801	0.0145741
857.879	0.0143604
857.957	0.0143631
858.035	0.0145599
858.113	0.0144019
858.192	0.0142896
858.270	0.0144823
858.348	0.0144490
858.426	0.0143464
858.504	0.0144191
858.582	0.0144619
858.660	0.0144230
858.738	0.0145055
858.817	0.0143971
858.895	0.0144308
858.973	0.0143876
859.051	0.0143613
859.129	0.0144108
859.207	0.0143275
859.285	0.0143143
859.363	0.0142650
859.442	0.0142728
859.520	0.0144150
859.598	0.0143311
859.676	0.0143605
859.754	0.0143481
859.832	0.0144028
859.910	0.0143123
859.988	0.0144069
860.067	0.0144283
860.145	0.0143480
860.223	0.0144914
860.301	0.0144802
860.379	0.0143594
860.457	0.0145647
860.535	0.0144556
860.613	0.0145345
860.692	0.0145801
860.770	0.0144725
860.848	0.0144240
860.926	0.0145298
861.004	0.0145031
861.082	0.0145132
861.160	0.0144890
861.238	0.0144568
861.317	0.0146000
861.395	0.0144633
861.473	0.0145911
861.551	0.0145321
861.629	0.0145223
861.707	0.0146952
861.785	0.0146130
861.863	0.0146127
861.942	0.0145803
862.020	0.0145833
862.098	0.0145630
862.176	0.0145561
862.254	0.0145103
862.332	0.0144707
862.410	0.0146780
862.488	0.0146355
862.567	0.0144379
862.645	0.0145031
862.723	0.0146156
862.801	0.0148482
862.879	0.0145932
862.957	0.0144031
863.035	0.0145901
863.113	0.0145369
863.192	0.0143404
863.270	0.0146687
863.348	0.0145964
863.426	0.0144667
863.504	0.0145554
863.582	0.0145570
863.660	0.0146011
863.738	0.0145101
863.817	0.0146569
863.895	0.0146414
863.973	0.0145441
864.051	0.0145570
864.129	0.0146312
864.207	0.0145317
864.285	0.0145441
864.363	0.0144957
864.442	0.0144410
864.520	0.0146049
864.598	0.0144962
864.676	0.0145655
864.754	0.0146043
864.832	0.0146763
864.910	0.0145746
864.988	0.0144263
865.067	0.0144661
865.145	0.0144854
865.223	0.0143794
865.301	0.0143466
865.379	0.0144823
865.457	0.0144350
865.535	0.0144685
865.613	0.0143739
865.692	0.0144846
865.770	0.0142902
865.848	0.0144624
865.926	0.0142890
866.004	0.0142645
866.082	0.0143088
866.160	0.0144532
866.238	0.0142734
866.317	0.0142519
866.395	0.0143228
866.473	0.0143936
866.551	0.0143784
866.629	0.0143237
866.707	0.0142563
866.785	0.0144167
866.863	0.0144346
866.942	0.0144302
867.020	0.0143379
867.098	0.0144863
867.176	0.0143903
867.254	0.0144273
867.332	0.0144855
867.410	0.0145017
867.488	0.0144351
867.567	0.0144777
867.645	0.0146481
867.723	0.0145571
867.801	0.0145271
867.879	0.0146546
867.957	0.0144987
868.035	0.0144537
868.113	0.0145885
868.192	0.0145746
868.270	0.0145775
868.348	0.0146419
868.426	0.0145148
868.504	0.0146397
868.582	0.0145982
868.660	0.0145937
868.738	0.0144297
868.817	0.0145594
868.895	0.0146024
868.973	0.0145583
869.051	0.0145451
869.129	0.0145139
869.207	0.0144487
869.285	0.0145393
869.363	0.0144653
869.442	0.0145550
869.520	0.0145078
869.598	0.0144840
869.676	0.0144319
869.754	0.0144117
869.832	0.0143674
869.910	0.0145047
869.988	0.0145914
870.067	0.0144601
870.145	0.0143610
870.223	0.0144328
870.301	0.0144415
870.379	0.0145453
870.457	0.0144046
870.535	0.0144425
870.613	0.0143914
870.692	0.0144254
870.770	0.0145009
870.848	0.0145272
870.926	0.0144945
871.004	0.0144502
871.082	0.0144699
871.160	0.0143245
871.238	0.0144672
871.317	0.0145340
871.395	0.0145293
871.473	0.0145630
871.551	0.0144177
871.629	0.0145671
871.707	0.0144467
871.785	0.0144788
871.863	0.0143490
871.942	0.0143918
872.020	0.0145573
872.098	0.0145401
872.176	0.0145144
872.254	0.0144627
872.332	0.0145113
872.410	0.0146211
872.488	0.0146087
872.567	0.0145034
872.645	0.0145959
872.723	0.0145872
872.801	0.0146397
872.879	0.0145808
872.957	0.0145236
873.035	0.0145605
873.113	0.0145899
873.192	0.0146461
873.270	0.0146959
873.348	0.0146269
873.426	0.0147126
873.504	0.0146685
873.582	0.0146177
873.660	0.0146570
873.738	0.0147602
873.817	0.0147144
873.895	0.0147652
873.973	0.0145854
874.051	0.0146857
874.129	0.0146696
874.207	0.0146751
874.285	0.0146640
874.363	0.0146545
874.442	0.0146456
874.520	0.0146092
874.598	0.0144501
874.676	0.0146049
874.754	0.0147165
874.832	0.0144117
874.910	0.0143791
874.988	0.0145419
875.067	0.0144863
875.145	0.0143167
875.223	0.0143729
875.301	0.0144621
875.379	0.0142550
875.457	0.0144847
875.535	0.0143369
875.613	0.0142885
875.692	0.0142870
875.770	0.0143449
875.848	0.0143517
875.926	0.0143604
876.004	0.0144003
876.082	0.0142169
876.160	0.0143298
876.238	0.0144086
876.317	0.0143484
876.395	0.0143661
876.473	0.0142890
876.551	0.0144075
876.629	0.0143961
876.707	0.0143267
876.785	0.0143776
876.863	0.0144083
876.942	0.0143117
877.020	0.0143011
877.098	0.0144109
877.176	0.0143661
877.254	0.0145315
877.332	0.0144927
877.410	0.0143651
877.488	0.0144443
877.567	0.0144335
877.645	0.0144833
877.723	0.0143962
877.801	0.0142558
877.879	0.0144440
877.957	0.0143618
878.035	0.0144540
878.113	0.0144387
878.192	0.0143312
878.270	0.0143169
878.348	0.0142976
878.426	0.0142966
878.504	0.0143288
878.582	0.0143465
878.660	0.0143861
878.738	0.0144005
878.817	0.0143433
878.895	0.0143025
878.973	0.0143118
879.051	0.0142664
879.129	0.0143065
879.207	0.0143280
879.285	0.0144200
879.363	0.0144038
879.442	0.0143999
879.520	0.0143319
879.598	0.0143253
879.676	0.0143433
879.754	0.0143763
879.832	0.0144421
879.910	0.0142883
879.988	0.0144160
880.067	0.0143678
880.145	0.0142532
880.223	0.0144360
880.301	0.0144099
880.379	0.0144569
880.457	0.0144272
880.535	0.0143490
880.613	0.0142980
880.692	0.0143767
880.770	0.0143819
880.848	0.0143495
880.926	0.0142068
881.004	0.0142613
881.082	0.0144353
881.160	0.0144543
881.238	0.0143212
881.317	0.0143889
881.395	0.0143976
881.473	0.0144273
881.551	0.0143716
881.629	0.0142337
881.707	0.0143868
881.785	0.0143890
881.863	0.0143579
881.942	0.0144566
882.020	0.0145364
882.098	0.0143900
882.176	0.0145474
882.254	0.0143993
882.332	0.0143496
882.410	0.0144908
882.488	0.0144409
882.567	0.0145105
882.645	0.0145596
882.723	0.0144431
882.801	0.0146658
882.879	0.0145482
882.957	0.0143715
883.035	0.0145507
883.113	0.0145530
883.192	0.0145159
883.270	0.0144436
883.348	0.0145652
883.426	0.0145082
883.504	0.0145544
883.582	0.0145965
883.660	0.0145164
883.738	0.0144820
883.817	0.0145744
883.895	0.0144825
883.973	0.0146243
884.051	0.0145541
884.129	0.0145872
884.207	0.0145625
884.285	0.0146149
884.363	0.0147014
884.442	0.0144802
884.520	0.0145736
884.598	0.0146351
884.676	0.0144735
884.754	0.0144978
884.832	0.0145869
884.910	0.0144443
884.988	0.0144073
885.067	0.0144842
885.145	0.0143337
885.223	0.0145637
885.301	0.0144263
885.379	0.0143834
885.457	0.0144829
885.535	0.0145667
885.613	0.0144794
885.692	0.0144843
885.770	0.0145196
885.848	0.0144389
885.926	0.0143666
886.004	0.0143720
886.082	0.0144488
886.160	0.0143578
886.238	0.0144917
886.317	0.0144808
886.395	0.0144546
886.473	0.0143185
886.551	0.0144223
886.629	0.0142588
886.707	0.0144210
886.785	0.0143535
886.863	0.0144461
886.942	0.0144153
887.020	0.0144165
887.098	0.0142918
887.176	0.0143972
887.254	0.0144340
887.332	0.0143698
887.410	0.0143520
887.488	0.0144607
887.567	0.0143854
887.645	0.0142534
887.723	0.0144209
887.801	0.0143708
887.879	0.0144297
887.957	0.0143678
888.035	0.0144431
888.113	0.0143156
888.192	0.0143501
888.270	0.0143575
888.348	0.0143958
888.426	0.0144634
888.504	0.0143516
888.582	0.0143194
888.660	0.0143092
888.738	0.0142796
888.817	0.0143526
888.895	0.0144450
888.973	0.0143540
889.051	0.0144051
889.129	0.0145068
889.207	0.0143851
889.285	0.0144331
889.363	0.0143042
889.442	0.0142739
889.520	0.0144984
889.598	0.0144884
889.676	0.0143087
889.754	0.0143682
889.832	0.0144002
889.910	0.0144147
889.988	0.0144851
890.067	0.0144950
890.145	0.0143571
890.223	0.0144319
890.301	0.0143231
890.379	0.0143446
890.457	0.0143415
890.535	0.0143519
890.613	0.0143320
890.692	0.0144070
890.770	0.0143844
890.848	0.0142973
890.926	0.0143502
891.004	0.0143363
891.082	0.0143102
891.160	0.0144577
891.238	0.0144032
891.317	0.0143091
891.395	0.0143930
891.473	0.0143784
891.551	0.0143865
891.629	0.0144427
891.707	0.0143930
891.785	0.0144083
891.863	0.0145982
891.942	0.0143845
892.020	0.0144647
892.098	0.0144634
892.176	0.0144630
892.254	0.0146719
892.332	0.0145410
892.410	0.0143815
892.488	0.0144761
892.567	0.0145570
892.645	0.0144932
892.723	0.0145956
892.801	0.0146027
892.879	0.0146095
892.957	0.0144981
893.035	0.0144890
893.113	0.0146603
893.192	0.0144858
893.270	0.0145798
893.348	0.0145959
893.426	0.0147476
893.504	0.0145841
893.582	0.0145592
893.660	0.0145159
893.738	0.0145899
893.817	0.0146019
893.895	0.0146524
893.973	0.0147340
894.051	0.0147199
894.129	0.0146490
894.207	0.0148552
894.285	0.0148306
894.363	0.0147561
894.442	0.0147112
894.520	0.0147924
894.598	0.0148283
894.676	0.0148164
894.754	0.0148382
894.832	0.0148684
894.910	0.0145924
894.988	0.0146901
895.067	0.0147097
895.145	0.0147101
895.223	0.0149018
895.301	0.0147078
895.379	0.0147398
895.457	0.0147071
895.535	0.0147533
895.613	0.0147332
895.692	0.0146462
895.770	0.0147607
895.848	0.0148186
895.926	0.0146477
896.004	0.0147198
896.082	0.0145712
896.160	0.0145258
896.238	0.0146593
896.317	0.0145644
896.395	0.0146822
896.473	0.0145573
896.551	0.0145881
896.629	0.0145560
896.707	0.0145202
896.785	0.0146833
896.863	0.0146605
896.942	0.0145775
897.020	0.0146077
897.098	0.0146507
897.176	0.0146065
897.254	0.0146008
897.332	0.0145341
897.410	0.0146839
897.488	0.0144751
897.567	0.0144692
897.645	0.0144494
897.723	0.0143850
897.801	0.0145291
897.879	0.0145470
897.957	0.0145101
898.035	0.0144809
898.113	0.0145052
898.192	0.0143153
898.270	0.0144553
898.348	0.0145811
898.426	0.0144561
898.504	0.0144767
898.582	0.0144970
898.660	0.0144283
898.738	0.0144983
898.817	0.0145612
898.895	0.0144122
898.973	0.0145004
899.051	0.0144550
899.129	0.0145219
899.207	0.0144455
899.285	0.0144855
899.363	0.0145241
899.442	0.0145021
899.520	0.0144998
899.598	0.0145284
899.676	0.0145652
899.754	0.0143935
899.832	0.0144901
899.910	0.0145172
899.988	0.0144047
900.067	0.0144983
900.145	0.0144913
900.223	0.0145412
900.301	0.0145607
900.379	0.0143722
900.457	0.0145539
900.535	0.0145047
900.613	0.0144784
900.692	0.0144057
900.770	0.0144466
900.848	0.0143966
900.926	0.0144145
901.004	0.0143418
901.082	0.0145206
901.160	0.0144698
901.238	0.0144135
901.317	0.0145434
901.395	0.0143951
901.473	0.0143681
901.551	0.0144596
901.629	0.0144538
901.707	0.0143344
901.785	0.0143597
901.863	0.0143740
901.942	0.0144334
902.020	0.0142570
902.098	0.0143977
902.176	0.0143548
902.254	0.0142461
902.332	0.0143859
902.410	0.0143679
902.488	0.0142843
902.567	0.0143308
902.645	0.0144000
902.723	0.0143251
902.801	0.0141406
902.879	0.0142539
902.957	0.0143365
903.035	0.0144096
903.113	0.0142722
903.192	0.0143736
903.270	0.0142969
903.348	0.0143134
903.426	0.0142801
903.504	0.0144795
903.582	0.0143585
903.660	0.0143740
903.738	0.0143295
903.817	0.0144312
903.895	0.0142554
903.973	0.0143159
904.051	0.0143857
904.129	0.0143286
904.207	0.0143787
904.285	0.0144217
904.363	0.0143856
904.442	0.0142762
904.520	0.0143670
904.598	0.0144201
904.676	0.0142445
904.754	0.0143515
904.832	0.0143907
904.910	0.0143970
904.988	0.0143810
905.067	0.0143155
905.145	0.0142193
905.223	0.0142480
905.301	0.0144010
905.379	0.0143611
905.457	0.0141968
905.535	0.0143385
905.613	0.0143855
905.692	0.0142348
905.770	0.0143349
905.848	0.0143271
905.926	0.0142976
906.004	0.0142167
906.082	0.0143066
906.160	0.0142725
906.238	0.0143096
906.317	0.0143674
906.395	0.0143185
906.473	0.0142427
906.551	0.0143979
906.629	0.0144364
906.707	0.0144158
906.785	0.0142564
906.863	0.0143350
906.942	0.0143039
907.020	0.0143838
907.098	0.0144229
907.176	0.0144411
907.254	0.0144014
907.332	0.0143614
907.410	0.0143390
907.488	0.0144865
907.567	0.0144811
907.645	0.0142872
907.723	0.0145186
907.801	0.0145125
907.879	0.0144527
907.957	0.0143542
908.035	0.0144164
908.113	0.0144906
908.192	0.0144852
908.270	0.0144798
908.348	0.0143903
908.426	0.0143753
908.504	0.0143594
908.582	0.0143978
908.660	0.0142773
908.738	0.0144392
908.817	0.0144838
908.895	0.0143054
908.973	0.0144276
909.051	0.0143682
909.129	0.0143329
909.207	0.0143401
909.285	0.0143450
909.363	0.0145026
909.442	0.0143861
909.520	0.0143819
909.598	0.0143512
909.676	0.0143141
909.754	0.0143863
909.832	0.0144234
909.910	0.0143937
909.988	0.0143970
910.067	0.0144334
910.145	0.0143565
910.223	0.0143514
910.301	0.0144781
910.379	0.0144055
910.457	0.0144827
910.535	0.0145085
910.613	0.0144989
910.692	0.0144258
910.770	0.0145311
910.848	0.0143998
910.926	0.0145480
911.004	0.0145865
911.082	0.0146196
911.160	0.0144797
911.238	0.0145584
911.317	0.0145951
911.395	0.0145433
911.473	0.0145734
911.551	0.0147278
911.629	0.0146104
911.707	0.0147041
911.785	0.0146543
911.863	0.0146099
911.942	0.0146577
912.020	0.0146513
912.098	0.0146570
912.176	0.0146732
912.254	0.0145798
912.332	0.0145948
912.410	0.0145496
912.488	0.0146159
912.567	0.0147728
912.645	0.0146055
912.723	0.0145980
912.801	0.0146215
912.879	0.0145537
912.957	0.0147050
913.035	0.0146532
913.113	0.0146078
913.192	0.0144669
913.270	0.0146227
913.348	0.0145158
913.426	0.0144805
913.504	0.0145512
913.582	0.0145906
913.660	0.0146029
913.738	0.0145030
913.817	0.0145182
913.895	0.0145892
913.973	0.0145374
914.051	0.0144401
914.129	0.0144194
914.207	0.0145700
914.285	0.0144246
914.363	0.0144514
914.442	0.0146186
914.520	0.0144700
914.598	0.0143894
914.676	0.0145127
914.754	0.0144096
914.832	0.0143903
914.910	0.0143829
914.988	0.0145831
915.067	0.0144855
915.145	0.0144370
915.223	0.0145205
915.301	0.0144486
915.379	0.0144765
915.457	0.0144694
915.535	0.0144044
915.613	0.0144297
915.692	0.0144038
915.770	0.0144389
915.848	0.0144088
915.926	0.0144384
916.004	0.0144889
916.082	0.0144662
916.160	0.0146465
916.238	0.0144200
916.317	0.0143605
916.395	0.0144551
916.473	0.0143652
916.551	0.0145270
916.629	0.0144035
916.707	0.0144234
916.785	0.0144695
916.863	0.0145156
916.942	0.0143377
917.020	0.0144479
917.098	0.0144215
917.176	0.0144078
917.254	0.0144340
917.332	0.0146127
917.410	0.0144276
917.488	0.0145150
917.567	0.0144704
917.645	0.0145817
917.723	0.0144780
917.801	0.0145760
917.879	0.0145259
917.957	0.0144576
918.035	0.0146516
918.113	0.0145199
918.192	0.0146447
918.270	0.0146664
918.348	0.0145464
918.426	0.0145406
918.504	0.0147292
918.582	0.0146146
918.660	0.0145833
918.738	0.0145537
918.817	0.0144756
918.895	0.0146024
918.973	0.0145609
919.051	0.0145743
919.129	0.0145580
919.207	0.0145798
919.285	0.0147063
919.363	0.0145332
919.442	0.0144448
919.520	0.0148144
919.598	0.0146126
919.676	0.0145078
919.754	0.0148085
919.832	0.0145631
919.910	0.0147316
