05/28/2022	14:35:52	Ver.	4.1	UNKNOWN
Optical Delay	599.988409	Delta X		0.078125	Sweeps	1	Scan Rate	0/0
Coordinates	Axis 1	NaN	Axis 2	NaN	Axis 3	NaN	Axis 4	NaN	Axis 5	NaN	Axis 6	0.000000
TX Power	0.000000	RX Power	0.000000

599.988	0.0143094
600.067	0.0142585
600.145	0.0143968
600.223	0.0143002
600.301	0.0141603
600.379	0.0143375
600.457	0.0142939
600.535	0.0142210
600.613	0.0144158
600.692	0.0142946
600.770	0.0144637
600.848	0.0142673
600.926	0.0140688
601.004	0.0142374
601.082	0.0143140
601.160	0.0141546
601.238	0.0142363
601.317	0.0143198
601.395	0.0141924
601.473	0.0141605
601.551	0.0142242
601.629	0.0142417
601.707	0.0142442
601.785	0.0142068
601.863	0.0142076
601.942	0.0141923
602.020	0.0140556
602.098	0.0141473
602.176	0.0141546
602.254	0.0141470
602.332	0.0142393
602.410	0.0141805
602.488	0.0141492
602.567	0.0140670
602.645	0.0141591
602.723	0.0141247
602.801	0.0142216
602.879	0.0141389
602.957	0.0141183
603.035	0.0142174
603.113	0.0142075
603.192	0.0142495
603.270	0.0141239
603.348	0.0140959
603.426	0.0141115
603.504	0.0142480
603.582	0.0141215
603.660	0.0141710
603.738	0.0142520
603.817	0.0141714
603.895	0.0140646
603.973	0.0140999
604.051	0.0141648
604.129	0.0141373
604.207	0.0141280
604.285	0.0141248
604.363	0.0140668
604.442	0.0139541
604.520	0.0140594
604.598	0.0140394
604.676	0.0140658
604.754	0.0141441
604.832	0.0140598
604.910	0.0140845
604.988	0.0141295
605.067	0.0141900
605.145	0.0140617
605.223	0.0141769
605.301	0.0141363
605.379	0.0142567
605.457	0.0141519
605.535	0.0141197
605.613	0.0139863
605.692	0.0142010
605.770	0.0141863
605.848	0.0141451
605.926	0.0140586
606.004	0.0140676
606.082	0.0141339
606.160	0.0142638
606.238	0.0143073
606.317	0.0143018
606.395	0.0141479
606.473	0.0143079
606.551	0.0142444
606.629	0.0141663
606.707	0.0141896
606.785	0.0143552
606.863	0.0142497
606.942	0.0142776
607.020	0.0142101
607.098	0.0142286
607.176	0.0143592
607.254	0.0143223
607.332	0.0142628
607.410	0.0142558
607.488	0.0143534
607.567	0.0142535
607.645	0.0141664
607.723	0.0142996
607.801	0.0143994
607.879	0.0142713
607.957	0.0140806
608.035	0.0142586
608.113	0.0142918
608.192	0.0142651
608.270	0.0141157
608.348	0.0142288
608.426	0.0141548
608.504	0.0142575
608.582	0.0143443
608.660	0.0141238
608.738	0.0141866
608.817	0.0142542
608.895	0.0142988
608.973	0.0142941
609.051	0.0141127
609.129	0.0141354
609.207	0.0143865
609.285	0.0143768
609.363	0.0141915
609.442	0.0142109
609.520	0.0142427
609.598	0.0143168
609.676	0.0143309
609.754	0.0142614
609.832	0.0141853
609.910	0.0143345
609.988	0.0142722
610.067	0.0143151
610.145	0.0144416
610.223	0.0144167
610.301	0.0143967
610.379	0.0142696
610.457	0.0142675
610.535	0.0143530
610.613	0.0143130
610.692	0.0142891
610.770	0.0142545
610.848	0.0143604
610.926	0.0144286
611.004	0.0143469
611.082	0.0143502
611.160	0.0142985
611.238	0.0143364
611.317	0.0142628
611.395	0.0141545
611.473	0.0142929
611.551	0.0142328
611.629	0.0143503
611.707	0.0144097
611.785	0.0142863
611.863	0.0144490
611.942	0.0143002
612.020	0.0141983
612.098	0.0143368
612.176	0.0142172
612.254	0.0143134
612.332	0.0142234
612.410	0.0142358
612.488	0.0142201
612.567	0.0141879
612.645	0.0141103
612.723	0.0142007
612.801	0.0143216
612.879	0.0143216
612.957	0.0142709
613.035	0.0142048
613.113	0.0143346
613.192	0.0143291
613.270	0.0142707
613.348	0.0143549
613.426	0.0142709
613.504	0.0143303
613.582	0.0141841
613.660	0.0142578
613.738	0.0141982
613.817	0.0143021
613.895	0.0141953
613.973	0.0142161
614.051	0.0142364
614.129	0.0143508
614.207	0.0142615
614.285	0.0142131
614.363	0.0142587
614.442	0.0142001
614.520	0.0142847
614.598	0.0141113
614.676	0.0141280
614.754	0.0141202
614.832	0.0142033
614.910	0.0140867
614.988	0.0142471
615.067	0.0142851
615.145	0.0141451
615.223	0.0140714
615.301	0.0140219
615.379	0.0141954
615.457	0.0140938
615.535	0.0141415
615.613	0.0139867
615.692	0.0141258
615.770	0.0139979
615.848	0.0139207
615.926	0.0140370
616.004	0.0141183
616.082	0.0142870
616.160	0.0141981
616.238	0.0140446
616.317	0.0139223
616.395	0.0139247
616.473	0.0141081
616.551	0.0139706
616.629	0.0138713
616.707	0.0139748
616.785	0.0140374
616.863	0.0140596
616.942	0.0141672
617.020	0.0140712
617.098	0.0140434
617.176	0.0140131
617.254	0.0140589
617.332	0.0140611
617.410	0.0141342
617.488	0.0140945
617.567	0.0142659
617.645	0.0142033
617.723	0.0140809
617.801	0.0140231
617.879	0.0141723
617.957	0.0140858
618.035	0.0140659
618.113	0.0141180
618.192	0.0141325
618.270	0.0142724
618.348	0.0141433
618.426	0.0141747
618.504	0.0141259
618.582	0.0141483
618.660	0.0142373
618.738	0.0141464
618.817	0.0141560
618.895	0.0142384
618.973	0.0141869
619.051	0.0141706
619.129	0.0141969
619.207	0.0141718
619.285	0.0141490
619.363	0.0141816
619.442	0.0140765
619.520	0.0141288
619.598	0.0141156
619.676	0.0140711
619.754	0.0141246
619.832	0.0141013
619.910	0.0141647
619.988	0.0141601
620.067	0.0142745
620.145	0.0141873
620.223	0.0144559
620.301	0.0143637
620.379	0.0142227
620.457	0.0143607
620.535	0.0144030
620.613	0.0144653
620.692	0.0144189
620.770	0.0144455
620.848	0.0144608
620.926	0.0144275
621.004	0.0144910
621.082	0.0144294
621.160	0.0143679
621.238	0.0144200
621.317	0.0144304
621.395	0.0142802
621.473	0.0143027
621.551	0.0143032
621.629	0.0141577
621.707	0.0141917
621.785	0.0140964
621.863	0.0142006
621.942	0.0141061
622.020	0.0138757
622.098	0.0140487
622.176	0.0141221
622.254	0.0139919
622.332	0.0141679
622.410	0.0141839
622.488	0.0141013
622.567	0.0141988
622.645	0.0141775
622.723	0.0142971
622.801	0.0142300
622.879	0.0143143
622.957	0.0143192
623.035	0.0141702
623.113	0.0142014
623.192	0.0144701
623.270	0.0142610
623.348	0.0141972
623.426	0.0143089
623.504	0.0141586
623.582	0.0141504
623.660	0.0141935
623.738	0.0140952
623.817	0.0140952
623.895	0.0140757
623.973	0.0140363
624.051	0.0139573
624.129	0.0141594
624.207	0.0140694
624.285	0.0138849
624.363	0.0139487
624.442	0.0140440
624.520	0.0138918
624.598	0.0140839
624.676	0.0139221
624.754	0.0139201
624.832	0.0139782
624.910	0.0138999
624.988	0.0138825
625.067	0.0138142
625.145	0.0138833
625.223	0.0139170
625.301	0.0140236
625.379	0.0140383
625.457	0.0140691
625.535	0.0142467
625.613	0.0143483
625.692	0.0142484
625.770	0.0143982
625.848	0.0145911
625.926	0.0144597
626.004	0.0144720
626.082	0.0144400
626.160	0.0145528
626.238	0.0145374
626.317	0.0145190
626.395	0.0145690
626.473	0.0147173
626.551	0.0144817
626.629	0.0144503
626.707	0.0143195
626.785	0.0144331
626.863	0.0145039
626.942	0.0142131
627.020	0.0142632
627.098	0.0142653
627.176	0.0141450
627.254	0.0141213
627.332	0.0141615
627.410	0.0142366
627.488	0.0139359
627.567	0.0139401
627.645	0.0141071
627.723	0.0140119
627.801	0.0140173
627.879	0.0140135
627.957	0.0141031
628.035	0.0141777
628.113	0.0141108
628.192	0.0140668
628.270	0.0141706
628.348	0.0142566
628.426	0.0142832
628.504	0.0142105
628.582	0.0142212
628.660	0.0141743
628.738	0.0142119
628.817	0.0141458
628.895	0.0142397
628.973	0.0142228
629.051	0.0143019
629.129	0.0140958
629.207	0.0140202
629.285	0.0140909
629.363	0.0140630
629.442	0.0139984
629.520	0.0140532
629.598	0.0140744
629.676	0.0141443
629.754	0.0141295
629.832	0.0139884
629.910	0.0140641
629.988	0.0141319
630.067	0.0140866
630.145	0.0140819
630.223	0.0140534
630.301	0.0142114
630.379	0.0142404
630.457	0.0141960
630.535	0.0143288
630.613	0.0143134
630.692	0.0142255
630.770	0.0143040
630.848	0.0143626
630.926	0.0145367
631.004	0.0145568
631.082	0.0144821
631.160	0.0145918
631.238	0.0145456
631.317	0.0146363
631.395	0.0145377
631.473	0.0144519
631.551	0.0145218
631.629	0.0145825
631.707	0.0145398
631.785	0.0143874
631.863	0.0143800
631.942	0.0143115
632.020	0.0143487
632.098	0.0141904
632.176	0.0142126
632.254	0.0142664
632.332	0.0141805
632.410	0.0140529
632.488	0.0141441
632.567	0.0141281
632.645	0.0140148
632.723	0.0140182
632.801	0.0139666
632.879	0.0139619
632.957	0.0141558
633.035	0.0141901
633.113	0.0140650
633.192	0.0142001
633.270	0.0141200
633.348	0.0140020
633.426	0.0142485
633.504	0.0142370
633.582	0.0143045
633.660	0.0141656
633.738	0.0143628
633.817	0.0145113
633.895	0.0144493
633.973	0.0143440
634.051	0.0143220
634.129	0.0143969
634.207	0.0144221
634.285	0.0143206
634.363	0.0143578
634.442	0.0144551
634.520	0.0144324
634.598	0.0143382
634.676	0.0143597
634.754	0.0143590
634.832	0.0143488
634.910	0.0143359
634.988	0.0143481
635.067	0.0143670
635.145	0.0144270
635.223	0.0143988
635.301	0.0143834
635.379	0.0143047
635.457	0.0143389
635.535	0.0145332
635.613	0.0145437
635.692	0.0145161
635.770	0.0144323
635.848	0.0144570
635.926	0.0145465
636.004	0.0143981
636.082	0.0142580
636.160	0.0143420
636.238	0.0144044
636.317	0.0144067
636.395	0.0144942
636.473	0.0144496
636.551	0.0144669
636.629	0.0145477
636.707	0.0144344
636.785	0.0144504
636.863	0.0142908
636.942	0.0143568
637.020	0.0143661
637.098	0.0142797
637.176	0.0143800
637.254	0.0142861
637.332	0.0143381
637.410	0.0143814
637.488	0.0143107
637.567	0.0142466
637.645	0.0143446
637.723	0.0141600
637.801	0.0143148
637.879	0.0143011
637.957	0.0141644
638.035	0.0142910
638.113	0.0142281
638.192	0.0141949
638.270	0.0141248
638.348	0.0141073
638.426	0.0141253
638.504	0.0141828
638.582	0.0140165
638.660	0.0141036
638.738	0.0140826
638.817	0.0140588
638.895	0.0141021
638.973	0.0140913
639.051	0.0140112
639.129	0.0141338
639.207	0.0141428
639.285	0.0143014
639.363	0.0142847
639.442	0.0141756
639.520	0.0142155
639.598	0.0142744
639.676	0.0141261
639.754	0.0141394
639.832	0.0141344
639.910	0.0142078
639.988	0.0142693
640.067	0.0141748
640.145	0.0141206
640.223	0.0140920
640.301	0.0140742
640.379	0.0140276
640.457	0.0141321
640.535	0.0141213
640.613	0.0141626
640.692	0.0139983
640.770	0.0140876
640.848	0.0139823
640.926	0.0140453
641.004	0.0141796
641.082	0.0140167
641.160	0.0140823
641.238	0.0140102
641.317	0.0140369
641.395	0.0140253
641.473	0.0138640
641.551	0.0138637
641.629	0.0139124
641.707	0.0137796
641.785	0.0138184
641.863	0.0136575
641.942	0.0138358
642.020	0.0136748
642.098	0.0137313
642.176	0.0137373
642.254	0.0136529
642.332	0.0136325
642.410	0.0137853
642.488	0.0139748
642.567	0.0137700
642.645	0.0136353
642.723	0.0139486
642.801	0.0138795
642.879	0.0139754
642.957	0.0139531
643.035	0.0139709
643.113	0.0141133
643.192	0.0141483
643.270	0.0142270
643.348	0.0141771
643.426	0.0141119
643.504	0.0142043
643.582	0.0142670
643.660	0.0142894
643.738	0.0141570
643.817	0.0142569
643.895	0.0142326
643.973	0.0142504
644.051	0.0141691
644.129	0.0140477
644.207	0.0141521
644.285	0.0140840
644.363	0.0139640
644.442	0.0139793
644.520	0.0141089
644.598	0.0139423
644.676	0.0140438
644.754	0.0140613
644.832	0.0140024
644.910	0.0138770
644.988	0.0140127
645.067	0.0140443
645.145	0.0140229
645.223	0.0140865
645.301	0.0140833
645.379	0.0141717
645.457	0.0142589
645.535	0.0141496
645.613	0.0142508
645.692	0.0142318
645.770	0.0142632
645.848	0.0142763
645.926	0.0142487
646.004	0.0142998
646.082	0.0141983
646.160	0.0142617
646.238	0.0142632
646.317	0.0141949
646.395	0.0141808
646.473	0.0142787
646.551	0.0142335
646.629	0.0142644
646.707	0.0142066
646.785	0.0142121
646.863	0.0142053
646.942	0.0141180
647.020	0.0141748
647.098	0.0141988
647.176	0.0140112
647.254	0.0141161
647.332	0.0140769
647.410	0.0140549
647.488	0.0140099
647.567	0.0141331
647.645	0.0141383
647.723	0.0141866
647.801	0.0141332
647.879	0.0142044
647.957	0.0141730
648.035	0.0140279
648.113	0.0142136
648.192	0.0142578
648.270	0.0142272
648.348	0.0141853
648.426	0.0143771
648.504	0.0143803
648.582	0.0144080
648.660	0.0144147
648.738	0.0144986
648.817	0.0144205
648.895	0.0143055
648.973	0.0144790
649.051	0.0144611
649.129	0.0143732
649.207	0.0143256
649.285	0.0141920
649.363	0.0142291
649.442	0.0142084
649.520	0.0142898
649.598	0.0142578
649.676	0.0142306
649.754	0.0140810
649.832	0.0140847
649.910	0.0142036
649.988	0.0142816
650.067	0.0143313
650.145	0.0143159
650.223	0.0142800
650.301	0.0142792
650.379	0.0143304
650.457	0.0142528
650.535	0.0143984
650.613	0.0144048
650.692	0.0143229
650.770	0.0144093
650.848	0.0142483
650.926	0.0144028
651.004	0.0144070
651.082	0.0143028
651.160	0.0142617
651.238	0.0142709
651.317	0.0143315
651.395	0.0143988
651.473	0.0144323
651.551	0.0142941
651.629	0.0143213
651.707	0.0143400
651.785	0.0143462
651.863	0.0143203
651.942	0.0142313
652.020	0.0141407
652.098	0.0142067
652.176	0.0142236
652.254	0.0141704
652.332	0.0141489
652.410	0.0140121
652.488	0.0139137
652.567	0.0139053
652.645	0.0141039
652.723	0.0139211
652.801	0.0139084
652.879	0.0138589
652.957	0.0138340
653.035	0.0137836
653.113	0.0139446
653.192	0.0138498
653.270	0.0140565
653.348	0.0140517
653.426	0.0139899
653.504	0.0139603
653.582	0.0140891
653.660	0.0140830
653.738	0.0141463
653.817	0.0143691
653.895	0.0142479
653.973	0.0143211
654.051	0.0143644
654.129	0.0143352
654.207	0.0143447
654.285	0.0144467
654.363	0.0144292
654.442	0.0144448
654.520	0.0144070
654.598	0.0145350
654.676	0.0145135
654.754	0.0143959
654.832	0.0144382
654.910	0.0144654
654.988	0.0144218
655.067	0.0142569
655.145	0.0144578
655.223	0.0143526
655.301	0.0142023
655.379	0.0143282
655.457	0.0143203
655.535	0.0144152
655.613	0.0144928
655.692	0.0142885
655.770	0.0143134
655.848	0.0142633
655.926	0.0143369
656.004	0.0142242
656.082	0.0143178
656.160	0.0141640
656.238	0.0141013
656.317	0.0142922
656.395	0.0141022
656.473	0.0140489
656.551	0.0139474
656.629	0.0139467
656.707	0.0139574
656.785	0.0140260
656.863	0.0139613
656.942	0.0141231
657.020	0.0140979
657.098	0.0141367
657.176	0.0140495
657.254	0.0139677
657.332	0.0142220
657.410	0.0142197
657.488	0.0141344
657.567	0.0142398
657.645	0.0141923
657.723	0.0142216
657.801	0.0142019
657.879	0.0143537
657.957	0.0142632
658.035	0.0143424
658.113	0.0142081
658.192	0.0141630
658.270	0.0141763
658.348	0.0142332
658.426	0.0143576
658.504	0.0140775
658.582	0.0141851
658.660	0.0141605
658.738	0.0142120
658.817	0.0144278
658.895	0.0141525
658.973	0.0142172
659.051	0.0142365
659.129	0.0141926
659.207	0.0142511
659.285	0.0142976
659.363	0.0141644
659.442	0.0142390
659.520	0.0141302
659.598	0.0142270
659.676	0.0142143
659.754	0.0141679
659.832	0.0141534
659.910	0.0141282
659.988	0.0140981
660.067	0.0142725
660.145	0.0141731
660.223	0.0139790
660.301	0.0141198
660.379	0.0141840
660.457	0.0140060
660.535	0.0139214
660.613	0.0140314
660.692	0.0141887
660.770	0.0141669
660.848	0.0141438
660.926	0.0141830
661.004	0.0142583
661.082	0.0143587
661.160	0.0142535
661.238	0.0143236
661.317	0.0144616
661.395	0.0143910
661.473	0.0145441
661.551	0.0143703
661.629	0.0143919
661.707	0.0143732
661.785	0.0143866
661.863	0.0144069
661.942	0.0143839
662.020	0.0143467
662.098	0.0143376
662.176	0.0143777
662.254	0.0141720
662.332	0.0142063
662.410	0.0143481
662.488	0.0142657
662.567	0.0142596
662.645	0.0143748
662.723	0.0143097
662.801	0.0143185
662.879	0.0141962
662.957	0.0142030
663.035	0.0141671
663.113	0.0142483
663.192	0.0142963
663.270	0.0142307
663.348	0.0142147
663.426	0.0142104
663.504	0.0142986
663.582	0.0141663
663.660	0.0141746
663.738	0.0139639
663.817	0.0140881
663.895	0.0139145
663.973	0.0138911
664.051	0.0139501
664.129	0.0140233
664.207	0.0140203
664.285	0.0139598
664.363	0.0139472
664.442	0.0140169
664.520	0.0139839
664.598	0.0139905
664.676	0.0140559
664.754	0.0140893
664.832	0.0140569
664.910	0.0140959
664.988	0.0140802
665.067	0.0141410
665.145	0.0141669
665.223	0.0140142
665.301	0.0141043
665.379	0.0140893
665.457	0.0140041
665.535	0.0140373
665.613	0.0141058
665.692	0.0142300
665.770	0.0141898
665.848	0.0139789
665.926	0.0140369
666.004	0.0139870
666.082	0.0140060
666.160	0.0139681
666.238	0.0140810
666.317	0.0140328
666.395	0.0139684
666.473	0.0142638
666.551	0.0140733
666.629	0.0140205
666.707	0.0140849
666.785	0.0139632
666.863	0.0139101
666.942	0.0140320
667.020	0.0141155
667.098	0.0141373
667.176	0.0141390
667.254	0.0141220
667.332	0.0140922
667.410	0.0141784
667.488	0.0141436
667.567	0.0140397
667.645	0.0142192
667.723	0.0142580
667.801	0.0143385
667.879	0.0143249
667.957	0.0144814
668.035	0.0145361
668.113	0.0144594
668.192	0.0145379
668.270	0.0145761
668.348	0.0145316
668.426	0.0144940
668.504	0.0143876
668.582	0.0144853
668.660	0.0144880
668.738	0.0143726
668.817	0.0142838
668.895	0.0143488
668.973	0.0142099
669.051	0.0142529
669.129	0.0141806
669.207	0.0142351
669.285	0.0140763
669.363	0.0141002
669.442	0.0140723
669.520	0.0141464
669.598	0.0141365
669.676	0.0141501
669.754	0.0138945
669.832	0.0140828
669.910	0.0140169
669.988	0.0140145
670.067	0.0139833
670.145	0.0139888
670.223	0.0140375
670.301	0.0141504
670.379	0.0140792
670.457	0.0140095
670.535	0.0139668
670.613	0.0140813
670.692	0.0141849
670.770	0.0139961
670.848	0.0139399
670.926	0.0140512
671.004	0.0139217
671.082	0.0139789
671.160	0.0139464
671.238	0.0141057
671.317	0.0139406
671.395	0.0139770
671.473	0.0139388
671.551	0.0139436
671.629	0.0139619
671.707	0.0139706
671.785	0.0139997
671.863	0.0139262
671.942	0.0140025
672.020	0.0140525
672.098	0.0140895
672.176	0.0143670
672.254	0.0143260
672.332	0.0142322
672.410	0.0143637
672.488	0.0145828
672.567	0.0146811
672.645	0.0147404
672.723	0.0148091
672.801	0.0149153
672.879	0.0150154
672.957	0.0149010
673.035	0.0150962
673.113	0.0150064
673.192	0.0149451
673.270	0.0149209
673.348	0.0149076
673.426	0.0147147
673.504	0.0147669
673.582	0.0146982
673.660	0.0145303
673.738	0.0143753
673.817	0.0143279
673.895	0.0141932
673.973	0.0141168
674.051	0.0141147
674.129	0.0141428
674.207	0.0140536
674.285	0.0140474
674.363	0.0139502
674.442	0.0138009
674.520	0.0138296
674.598	0.0137811
674.676	0.0137856
674.754	0.0137170
674.832	0.0137961
674.910	0.0138142
674.988	0.0138070
675.067	0.0136504
675.145	0.0137664
675.223	0.0137178
675.301	0.0136721
675.379	0.0138885
675.457	0.0140444
675.535	0.0138678
675.613	0.0139447
675.692	0.0141067
675.770	0.0143220
675.848	0.0141593
675.926	0.0143860
676.004	0.0144500
676.082	0.0145646
676.160	0.0145167
676.238	0.0144824
676.317	0.0146216
676.395	0.0146838
676.473	0.0146313
676.551	0.0148643
676.629	0.0147127
676.707	0.0146124
676.785	0.0147215
676.863	0.0146408
676.942	0.0146597
677.020	0.0146449
677.098	0.0145306
677.176	0.0144718
677.254	0.0144506
677.332	0.0143954
677.410	0.0143885
677.488	0.0143516
677.567	0.0142490
677.645	0.0141712
677.723	0.0141535
677.801	0.0141138
677.879	0.0140277
677.957	0.0140759
678.035	0.0141379
678.113	0.0140601
678.192	0.0141083
678.270	0.0140756
678.348	0.0140427
678.426	0.0140675
678.504	0.0140025
678.582	0.0137754
678.660	0.0139985
678.738	0.0140842
678.817	0.0138670
678.895	0.0139687
678.973	0.0140860
679.051	0.0139683
679.129	0.0139445
679.207	0.0140757
679.285	0.0141496
679.363	0.0138031
679.442	0.0140818
679.520	0.0140930
679.598	0.0141158
679.676	0.0140278
679.754	0.0140079
679.832	0.0141153
679.910	0.0140381
679.988	0.0140483
680.067	0.0139942
680.145	0.0139891
680.223	0.0140018
680.301	0.0141534
680.379	0.0141299
680.457	0.0141517
680.535	0.0140477
680.613	0.0141720
680.692	0.0139823
680.770	0.0140995
680.848	0.0141356
680.926	0.0139793
681.004	0.0140682
681.082	0.0140132
681.160	0.0140525
681.238	0.0140408
681.317	0.0139790
681.395	0.0138698
681.473	0.0138358
681.551	0.0139790
681.629	0.0140136
681.707	0.0138569
681.785	0.0139788
681.863	0.0139510
681.942	0.0138996
682.020	0.0141473
682.098	0.0141521
682.176	0.0141846
682.254	0.0141608
682.332	0.0141658
682.410	0.0141031
682.488	0.0142347
682.567	0.0141801
682.645	0.0141295
682.723	0.0142141
682.801	0.0141815
682.879	0.0142780
682.957	0.0141905
683.035	0.0142001
683.113	0.0141373
683.192	0.0141438
683.270	0.0140467
683.348	0.0142118
683.426	0.0141813
683.504	0.0141818
683.582	0.0141943
683.660	0.0142152
683.738	0.0142537
683.817	0.0143232
683.895	0.0143609
683.973	0.0144343
684.051	0.0143821
684.129	0.0144882
684.207	0.0144865
684.285	0.0143934
684.363	0.0145077
684.442	0.0145055
684.520	0.0143002
684.598	0.0144253
684.676	0.0143903
684.754	0.0143240
684.832	0.0142571
684.910	0.0143378
684.988	0.0143182
685.067	0.0141833
685.145	0.0141083
685.223	0.0141734
685.301	0.0141621
685.379	0.0140273
685.457	0.0140328
685.535	0.0139966
685.613	0.0138200
685.692	0.0139084
685.770	0.0138330
685.848	0.0137304
685.926	0.0137553
686.004	0.0137969
686.082	0.0138838
686.160	0.0137710
686.238	0.0138222
686.317	0.0139583
686.395	0.0138894
686.473	0.0138663
686.551	0.0140665
686.629	0.0140408
686.707	0.0139890
686.785	0.0141098
686.863	0.0142108
686.942	0.0141898
687.020	0.0142442
687.098	0.0142020
687.176	0.0142968
687.254	0.0142390
687.332	0.0144402
687.410	0.0145615
687.488	0.0144985
687.567	0.0143387
687.645	0.0145136
687.723	0.0145701
687.801	0.0144630
687.879	0.0146145
687.957	0.0145493
688.035	0.0144759
688.113	0.0145789
688.192	0.0144630
688.270	0.0143874
688.348	0.0144661
688.426	0.0143176
688.504	0.0144090
688.582	0.0144682
688.660	0.0144673
688.738	0.0144419
688.817	0.0144579
688.895	0.0144431
688.973	0.0143816
689.051	0.0143175
689.129	0.0143816
689.207	0.0141840
689.285	0.0140631
689.363	0.0141380
689.442	0.0140900
689.520	0.0138651
689.598	0.0139404
689.676	0.0138420
689.754	0.0139423
689.832	0.0138141
689.910	0.0138615
689.988	0.0137957
690.067	0.0138057
690.145	0.0138263
690.223	0.0138034
690.301	0.0138397
690.379	0.0137470
690.457	0.0138099
690.535	0.0137676
690.613	0.0138924
690.692	0.0138377
690.770	0.0138336
690.848	0.0140392
690.926	0.0138682
691.004	0.0140131
691.082	0.0139812
691.160	0.0139326
691.238	0.0139852
691.317	0.0139896
691.395	0.0141733
691.473	0.0142039
691.551	0.0139624
691.629	0.0140329
691.707	0.0139942
691.785	0.0140054
691.863	0.0140411
691.942	0.0141596
692.020	0.0142313
692.098	0.0140311
692.176	0.0140694
692.254	0.0141326
692.332	0.0141839
692.410	0.0142924
692.488	0.0141010
692.567	0.0141148
692.645	0.0141611
692.723	0.0142191
692.801	0.0141168
692.879	0.0142567
692.957	0.0142786
693.035	0.0143127
693.113	0.0143044
693.192	0.0143847
693.270	0.0143542
693.348	0.0144319
693.426	0.0144559
693.504	0.0144955
693.582	0.0144846
693.660	0.0147195
693.738	0.0145947
693.817	0.0146095
693.895	0.0146664
693.973	0.0144717
694.051	0.0144671
694.129	0.0144698
694.207	0.0145758
694.285	0.0145898
694.363	0.0143173
694.442	0.0143072
694.520	0.0142934
694.598	0.0144613
694.676	0.0144056
694.754	0.0142728
694.832	0.0141650
694.910	0.0142165
694.988	0.0142377
695.067	0.0141616
695.145	0.0140707
695.223	0.0140198
695.301	0.0139731
695.379	0.0140015
695.457	0.0139347
695.535	0.0139820
695.613	0.0139024
695.692	0.0140305
695.770	0.0139320
695.848	0.0139156
695.926	0.0139140
696.004	0.0139330
696.082	0.0139108
696.160	0.0138438
696.238	0.0139601
696.317	0.0140012
696.395	0.0139234
696.473	0.0139441
696.551	0.0140948
696.629	0.0138926
696.707	0.0140319
696.785	0.0140694
696.863	0.0141171
696.942	0.0142908
697.020	0.0141852
697.098	0.0142729
697.176	0.0143319
697.254	0.0143384
697.332	0.0144874
697.410	0.0145676
697.488	0.0144987
697.567	0.0145472
697.645	0.0146149
697.723	0.0146593
697.801	0.0146049
697.879	0.0145761
697.957	0.0146854
698.035	0.0147269
698.113	0.0147006
698.192	0.0149339
698.270	0.0148124
698.348	0.0147295
698.426	0.0148618
698.504	0.0147541
698.582	0.0148745
698.660	0.0148228
698.738	0.0149144
698.817	0.0146648
698.895	0.0146846
698.973	0.0147119
699.051	0.0146048
699.129	0.0146107
699.207	0.0146152
699.285	0.0143926
699.363	0.0142578
699.442	0.0143627
699.520	0.0144528
699.598	0.0140659
699.676	0.0140092
699.754	0.0140228
699.832	0.0140105
699.910	0.0138765
699.988	0.0139188
700.067	0.0137247
700.145	0.0136006
700.223	0.0137762
700.301	0.0136088
700.379	0.0136939
700.457	0.0137376
700.535	0.0136674
700.613	0.0137767
700.692	0.0139362
700.770	0.0140419
700.848	0.0138966
700.926	0.0139263
701.004	0.0139039
701.082	0.0140720
701.160	0.0141407
701.238	0.0142979
701.317	0.0142936
701.395	0.0142786
701.473	0.0143163
701.551	0.0142718
701.629	0.0142468
701.707	0.0143302
701.785	0.0142871
701.863	0.0142500
701.942	0.0142990
702.020	0.0143819
702.098	0.0143431
702.176	0.0143924
702.254	0.0143554
702.332	0.0142310
702.410	0.0143847
702.488	0.0144167
702.567	0.0143745
702.645	0.0143775
702.723	0.0142336
702.801	0.0142126
702.879	0.0142101
702.957	0.0142457
703.035	0.0143207
703.113	0.0144471
703.192	0.0142727
703.270	0.0141452
703.348	0.0143149
703.426	0.0141864
703.504	0.0141804
703.582	0.0141014
703.660	0.0141343
703.738	0.0141078
703.817	0.0140075
703.895	0.0140271
703.973	0.0140611
704.051	0.0139818
704.129	0.0139772
704.207	0.0140315
704.285	0.0140575
704.363	0.0140416
704.442	0.0140067
704.520	0.0139754
704.598	0.0141556
704.676	0.0139967
704.754	0.0140492
704.832	0.0140303
704.910	0.0140437
704.988	0.0138442
705.067	0.0140798
705.145	0.0140726
705.223	0.0141348
705.301	0.0139088
705.379	0.0139458
705.457	0.0140656
705.535	0.0141383
705.613	0.0141191
705.692	0.0140759
705.770	0.0140136
705.848	0.0142171
705.926	0.0141507
706.004	0.0141667
706.082	0.0141366
706.160	0.0139036
706.238	0.0141383
706.317	0.0142375
706.395	0.0140680
706.473	0.0140639
706.551	0.0141798
706.629	0.0140363
706.707	0.0141833
706.785	0.0142153
706.863	0.0142665
706.942	0.0141663
707.020	0.0141101
707.098	0.0140176
707.176	0.0142487
707.254	0.0140316
707.332	0.0141287
707.410	0.0142145
707.488	0.0142151
707.567	0.0141501
707.645	0.0141075
707.723	0.0141258
707.801	0.0141824
707.879	0.0141525
707.957	0.0141358
708.035	0.0140858
708.113	0.0141630
708.192	0.0142245
708.270	0.0140587
708.348	0.0140295
708.426	0.0141779
708.504	0.0141243
708.582	0.0141703
708.660	0.0141267
708.738	0.0140688
708.817	0.0140012
708.895	0.0142130
708.973	0.0142543
709.051	0.0140896
709.129	0.0142255
709.207	0.0142625
709.285	0.0143527
709.363	0.0142885
709.442	0.0141729
709.520	0.0143458
709.598	0.0142070
709.676	0.0142202
709.754	0.0142870
709.832	0.0141263
709.910	0.0142135
709.988	0.0143001
710.067	0.0143746
710.145	0.0143756
710.223	0.0143429
710.301	0.0144144
710.379	0.0142981
710.457	0.0142690
710.535	0.0143122
710.613	0.0144192
710.692	0.0144874
710.770	0.0144457
710.848	0.0142815
710.926	0.0143758
711.004	0.0143365
711.082	0.0143769
711.160	0.0144775
711.238	0.0142417
711.317	0.0142992
711.395	0.0142475
711.473	0.0143546
711.551	0.0141784
711.629	0.0141093
711.707	0.0141925
711.785	0.0139947
711.863	0.0141594
711.942	0.0140770
712.020	0.0140371
712.098	0.0140971
712.176	0.0141256
712.254	0.0142235
712.332	0.0139999
712.410	0.0141621
712.488	0.0141273
712.567	0.0141770
712.645	0.0141212
712.723	0.0140933
712.801	0.0141578
712.879	0.0140768
712.957	0.0142288
713.035	0.0141050
713.113	0.0140697
713.192	0.0140311
713.270	0.0142881
713.348	0.0142211
713.426	0.0142272
713.504	0.0141399
713.582	0.0141158
713.660	0.0141198
713.738	0.0140585
713.817	0.0141008
713.895	0.0141723
713.973	0.0139892
714.051	0.0141977
714.129	0.0142104
714.207	0.0141319
714.285	0.0140953
714.363	0.0140274
714.442	0.0140414
714.520	0.0140235
714.598	0.0140764
714.676	0.0141458
714.754	0.0142085
714.832	0.0142702
714.910	0.0142686
714.988	0.0141167
715.067	0.0141698
715.145	0.0143703
715.223	0.0143160
715.301	0.0143594
715.379	0.0143935
715.457	0.0143600
715.535	0.0143831
715.613	0.0144042
715.692	0.0144440
715.770	0.0144069
715.848	0.0144318
715.926	0.0144016
716.004	0.0145024
716.082	0.0143628
716.160	0.0143214
716.238	0.0142223
716.317	0.0143964
716.395	0.0143143
716.473	0.0141166
716.551	0.0141192
716.629	0.0141077
716.707	0.0141791
716.785	0.0142672
716.863	0.0139932
716.942	0.0141656
717.020	0.0141000
717.098	0.0141022
717.176	0.0140865
717.254	0.0140915
717.332	0.0139816
717.410	0.0141241
717.488	0.0141299
717.567	0.0140622
717.645	0.0140057
717.723	0.0141616
717.801	0.0141631
717.879	0.0141512
717.957	0.0141364
718.035	0.0142199
718.113	0.0141956
718.192	0.0139860
718.270	0.0142003
718.348	0.0142325
718.426	0.0142735
718.504	0.0142631
718.582	0.0142793
718.660	0.0142129
718.738	0.0142580
718.817	0.0140249
718.895	0.0141828
718.973	0.0143347
719.051	0.0140892
719.129	0.0142687
719.207	0.0141515
719.285	0.0140346
719.363	0.0141422
719.442	0.0141277
719.520	0.0141209
719.598	0.0142420
719.676	0.0143523
719.754	0.0142480
719.832	0.0142505
719.910	0.0143274
719.988	0.0141692
720.067	0.0142362
720.145	0.0142924
720.223	0.0142160
720.301	0.0144323
720.379	0.0143621
720.457	0.0144226
720.535	0.0144798
720.613	0.0143822
720.692	0.0143584
720.770	0.0145671
720.848	0.0145265
720.926	0.0143742
721.004	0.0144620
721.082	0.0144688
721.160	0.0144151
721.238	0.0144382
721.317	0.0145355
721.395	0.0144158
721.473	0.0144360
721.551	0.0144409
721.629	0.0143469
721.707	0.0142127
721.785	0.0142787
721.863	0.0143513
721.942	0.0142683
722.020	0.0142908
722.098	0.0143312
722.176	0.0143525
722.254	0.0142613
722.332	0.0142101
722.410	0.0144743
722.488	0.0143900
722.567	0.0142946
722.645	0.0143267
722.723	0.0142664
722.801	0.0141557
722.879	0.0141651
722.957	0.0141936
723.035	0.0141528
723.113	0.0141587
723.192	0.0140166
723.270	0.0143188
723.348	0.0141914
723.426	0.0141816
723.504	0.0140533
723.582	0.0139462
723.660	0.0140608
723.738	0.0141019
723.817	0.0140664
723.895	0.0139658
723.973	0.0139664
724.051	0.0140152
724.129	0.0141563
724.207	0.0140504
724.285	0.0139429
724.363	0.0140168
724.442	0.0140392
724.520	0.0139661
724.598	0.0140096
724.676	0.0140752
724.754	0.0141132
724.832	0.0139076
724.910	0.0140102
724.988	0.0139751
725.067	0.0140023
725.145	0.0140420
725.223	0.0141728
725.301	0.0141412
725.379	0.0139735
725.457	0.0140323
725.535	0.0141341
725.613	0.0141304
725.692	0.0141598
725.770	0.0140653
725.848	0.0141109
725.926	0.0141998
726.004	0.0141538
726.082	0.0142104
726.160	0.0143056
726.238	0.0142348
726.317	0.0143416
726.395	0.0143768
726.473	0.0142701
726.551	0.0143185
726.629	0.0143346
726.707	0.0143282
726.785	0.0144221
726.863	0.0143713
726.942	0.0143614
727.020	0.0143081
727.098	0.0144173
727.176	0.0145157
727.254	0.0143275
727.332	0.0142758
727.410	0.0144199
727.488	0.0143633
727.567	0.0142559
727.645	0.0143105
727.723	0.0142385
727.801	0.0142418
727.879	0.0143034
727.957	0.0142763
728.035	0.0142429
728.113	0.0143639
728.192	0.0143124
728.270	0.0143109
728.348	0.0143509
728.426	0.0143076
728.504	0.0142932
728.582	0.0143140
728.660	0.0143126
728.738	0.0142633
728.817	0.0142779
728.895	0.0143135
728.973	0.0142045
729.051	0.0141156
729.129	0.0142375
729.207	0.0144386
729.285	0.0141872
729.363	0.0141850
729.442	0.0143296
729.520	0.0142490
729.598	0.0142388
729.676	0.0143370
729.754	0.0144222
729.832	0.0143687
729.910	0.0143274
729.988	0.0142814
730.067	0.0143754
730.145	0.0144098
730.223	0.0144643
730.301	0.0144392
730.379	0.0144096
730.457	0.0142712
730.535	0.0143996
730.613	0.0144334
730.692	0.0143518
730.770	0.0143080
730.848	0.0143661
730.926	0.0143391
731.004	0.0144102
731.082	0.0142492
731.160	0.0142580
731.238	0.0142265
731.317	0.0142986
731.395	0.0142118
731.473	0.0142876
731.551	0.0144016
731.629	0.0142107
731.707	0.0143275
731.785	0.0143961
731.863	0.0142724
731.942	0.0143991
732.020	0.0143587
732.098	0.0145166
732.176	0.0144734
732.254	0.0144549
732.332	0.0143002
732.410	0.0143376
732.488	0.0143993
732.567	0.0143446
732.645	0.0144189
732.723	0.0144050
732.801	0.0145032
732.879	0.0144303
732.957	0.0143719
733.035	0.0142214
733.113	0.0142080
733.192	0.0142517
733.270	0.0144749
733.348	0.0141833
733.426	0.0143183
733.504	0.0143112
733.582	0.0142475
733.660	0.0143336
733.738	0.0141286
733.817	0.0141548
733.895	0.0142061
733.973	0.0143889
734.051	0.0143704
734.129	0.0141484
734.207	0.0141528
734.285	0.0141010
734.363	0.0142494
734.442	0.0142529
734.520	0.0141163
734.598	0.0141006
734.676	0.0142251
734.754	0.0141290
734.832	0.0141776
734.910	0.0142207
734.988	0.0141302
735.067	0.0140418
735.145	0.0141346
735.223	0.0142189
735.301	0.0140594
735.379	0.0141304
735.457	0.0140784
735.535	0.0140803
735.613	0.0139963
735.692	0.0141116
735.770	0.0140104
735.848	0.0140785
735.926	0.0140388
736.004	0.0140519
736.082	0.0139458
736.160	0.0140211
736.238	0.0141831
736.317	0.0140560
736.395	0.0141441
736.473	0.0140037
736.551	0.0140772
736.629	0.0141212
736.707	0.0140504
736.785	0.0140060
736.863	0.0140652
736.942	0.0140099
737.020	0.0141847
737.098	0.0140375
737.176	0.0140503
737.254	0.0142412
737.332	0.0142006
737.410	0.0141003
737.488	0.0140536
737.567	0.0140652
737.645	0.0140581
737.723	0.0140955
737.801	0.0142537
737.879	0.0140989
737.957	0.0140213
738.035	0.0139427
738.113	0.0140103
738.192	0.0140723
738.270	0.0140347
738.348	0.0141297
738.426	0.0141152
738.504	0.0141568
738.582	0.0141986
738.660	0.0141737
738.738	0.0142277
738.817	0.0143650
738.895	0.0142620
738.973	0.0142365
739.051	0.0142930
739.129	0.0141979
739.207	0.0142966
739.285	0.0142082
739.363	0.0141761
739.442	0.0143606
739.520	0.0142525
739.598	0.0142092
739.676	0.0140775
739.754	0.0141727
739.832	0.0142698
739.910	0.0143086
739.988	0.0142374
740.067	0.0141419
740.145	0.0142861
740.223	0.0142799
740.301	0.0141615
740.379	0.0142339
740.457	0.0141901
740.535	0.0140754
740.613	0.0141795
740.692	0.0142327
740.770	0.0142323
740.848	0.0140629
740.926	0.0143011
741.004	0.0142745
741.082	0.0143021
741.160	0.0143250
741.238	0.0142705
741.317	0.0143629
741.395	0.0143425
741.473	0.0143469
741.551	0.0142880
741.629	0.0142387
741.707	0.0142029
741.785	0.0142788
741.863	0.0142736
741.942	0.0143317
742.020	0.0143784
742.098	0.0142759
742.176	0.0142665
742.254	0.0143425
742.332	0.0142720
742.410	0.0142491
742.488	0.0141582
742.567	0.0142239
742.645	0.0141628
742.723	0.0142861
742.801	0.0141674
742.879	0.0141143
742.957	0.0140958
743.035	0.0141550
743.113	0.0141210
743.192	0.0140844
743.270	0.0141941
743.348	0.0141949
743.426	0.0141609
743.504	0.0142245
743.582	0.0141925
743.660	0.0140993
743.738	0.0141896
743.817	0.0142985
743.895	0.0140970
743.973	0.0141588
744.051	0.0142365
744.129	0.0140649
744.207	0.0140748
744.285	0.0140732
744.363	0.0141461
744.442	0.0139881
744.520	0.0139664
744.598	0.0141300
744.676	0.0140717
744.754	0.0140620
744.832	0.0141100
744.910	0.0140009
744.988	0.0139838
745.067	0.0141193
745.145	0.0139680
745.223	0.0140127
745.301	0.0139351
745.379	0.0139465
745.457	0.0140504
745.535	0.0139063
745.613	0.0139921
745.692	0.0140452
745.770	0.0140166
745.848	0.0140676
745.926	0.0139893
746.004	0.0140479
746.082	0.0140054
746.160	0.0139665
746.238	0.0140794
746.317	0.0141507
746.395	0.0141645
746.473	0.0140740
746.551	0.0139606
746.629	0.0141264
746.707	0.0141431
746.785	0.0141065
746.863	0.0141953
746.942	0.0140450
747.020	0.0140851
747.098	0.0141919
747.176	0.0141876
747.254	0.0140810
747.332	0.0140444
747.410	0.0141069
747.488	0.0139330
747.567	0.0141169
747.645	0.0141658
747.723	0.0139629
747.801	0.0142193
747.879	0.0140337
747.957	0.0140968
748.035	0.0140083
748.113	0.0141360
748.192	0.0142210
748.270	0.0141179
748.348	0.0140866
748.426	0.0142065
748.504	0.0142588
748.582	0.0142472
748.660	0.0141976
748.738	0.0142104
748.817	0.0142075
748.895	0.0141460
748.973	0.0142746
749.051	0.0142515
749.129	0.0143769
749.207	0.0143260
749.285	0.0142691
749.363	0.0142625
749.442	0.0143207
749.520	0.0142359
749.598	0.0142477
749.676	0.0144221
749.754	0.0142547
749.832	0.0141281
749.910	0.0143768
749.988	0.0143386
750.067	0.0144130
750.145	0.0143176
750.223	0.0143356
750.301	0.0144299
750.379	0.0143320
750.457	0.0142856
750.535	0.0143375
750.613	0.0143396
750.692	0.0144042
750.770	0.0143465
750.848	0.0143481
750.926	0.0142827
751.004	0.0142184
751.082	0.0144018
751.160	0.0142194
751.238	0.0141427
751.317	0.0142928
751.395	0.0142117
751.473	0.0143180
751.551	0.0143315
751.629	0.0141894
751.707	0.0141504
751.785	0.0141801
751.863	0.0141398
751.942	0.0141714
752.020	0.0143443
752.098	0.0143410
752.176	0.0142551
752.254	0.0142234
752.332	0.0142991
752.410	0.0143254
752.488	0.0143159
752.567	0.0142556
752.645	0.0142535
752.723	0.0142545
752.801	0.0142491
752.879	0.0141575
752.957	0.0143129
753.035	0.0143642
753.113	0.0141434
753.192	0.0141920
753.270	0.0143430
753.348	0.0141109
753.426	0.0141115
753.504	0.0142178
753.582	0.0143319
753.660	0.0141927
753.738	0.0141470
753.817	0.0144108
753.895	0.0140349
753.973	0.0143282
754.051	0.0142111
754.129	0.0140845
754.207	0.0142078
754.285	0.0142592
754.363	0.0143247
754.442	0.0144098
754.520	0.0142207
754.598	0.0143320
754.676	0.0142650
754.754	0.0141939
754.832	0.0141365
754.910	0.0143068
754.988	0.0143127
755.067	0.0142076
755.145	0.0141562
755.223	0.0142118
755.301	0.0143082
755.379	0.0141891
755.457	0.0142571
755.535	0.0139272
755.613	0.0141855
755.692	0.0141631
755.770	0.0140771
755.848	0.0142696
755.926	0.0142598
756.004	0.0141507
756.082	0.0140504
756.160	0.0141756
756.238	0.0141225
756.317	0.0139812
756.395	0.0141449
756.473	0.0139802
756.551	0.0139592
756.629	0.0139605
756.707	0.0140337
756.785	0.0140763
756.863	0.0140891
756.942	0.0140404
757.020	0.0140386
757.098	0.0140495
757.176	0.0139317
757.254	0.0141211
757.332	0.0142249
757.410	0.0141142
757.488	0.0141703
757.567	0.0141583
757.645	0.0141962
757.723	0.0141129
757.801	0.0142388
757.879	0.0143214
757.957	0.0142555
758.035	0.0142118
758.113	0.0143742
758.192	0.0143162
758.270	0.0142588
758.348	0.0143006
758.426	0.0144444
758.504	0.0143924
758.582	0.0143259
758.660	0.0143429
758.738	0.0141932
758.817	0.0143583
758.895	0.0143457
758.973	0.0143388
759.051	0.0144618
759.129	0.0144203
759.207	0.0144368
759.285	0.0144074
759.363	0.0144080
759.442	0.0144624
759.520	0.0144983
759.598	0.0143710
759.676	0.0142383
759.754	0.0142458
759.832	0.0143586
759.910	0.0144466
759.988	0.0143800
760.067	0.0144597
760.145	0.0143237
760.223	0.0143716
760.301	0.0141458
760.379	0.0143241
760.457	0.0142253
760.535	0.0143130
760.613	0.0141719
760.692	0.0141807
760.770	0.0143152
760.848	0.0143622
760.926	0.0142915
761.004	0.0141673
761.082	0.0142040
761.160	0.0144263
761.238	0.0143893
761.317	0.0141927
761.395	0.0142972
761.473	0.0142384
761.551	0.0142136
761.629	0.0143536
761.707	0.0141962
761.785	0.0142733
761.863	0.0143966
761.942	0.0142105
762.020	0.0141319
762.098	0.0143202
762.176	0.0142397
762.254	0.0141798
762.332	0.0141772
762.410	0.0142201
762.488	0.0142252
762.567	0.0142933
762.645	0.0141600
762.723	0.0142085
762.801	0.0141478
762.879	0.0141856
762.957	0.0141324
763.035	0.0141400
763.113	0.0140260
763.192	0.0141142
763.270	0.0141381
763.348	0.0139533
763.426	0.0140666
763.504	0.0140695
763.582	0.0140829
763.660	0.0141471
763.738	0.0141006
763.817	0.0140555
763.895	0.0140360
763.973	0.0140630
764.051	0.0141576
764.129	0.0142146
764.207	0.0140371
764.285	0.0142129
764.363	0.0141644
764.442	0.0140099
764.520	0.0141221
764.598	0.0140657
764.676	0.0142509
764.754	0.0140533
764.832	0.0140507
764.910	0.0140949
764.988	0.0140375
765.067	0.0140953
765.145	0.0138441
765.223	0.0139266
765.301	0.0138658
765.379	0.0139748
765.457	0.0139516
765.535	0.0139295
765.613	0.0138171
765.692	0.0137793
765.770	0.0138672
765.848	0.0138554
765.926	0.0137055
766.004	0.0137767
766.082	0.0138181
766.160	0.0138529
766.238	0.0137490
766.317	0.0137975
766.395	0.0137243
766.473	0.0139198
766.551	0.0139434
766.629	0.0139654
766.707	0.0138438
766.785	0.0138562
766.863	0.0139340
766.942	0.0140076
767.020	0.0140233
767.098	0.0139922
767.176	0.0138973
767.254	0.0140719
767.332	0.0140892
767.410	0.0141995
767.488	0.0140397
767.567	0.0141536
767.645	0.0141462
767.723	0.0141398
767.801	0.0142238
767.879	0.0142463
767.957	0.0142574
768.035	0.0142101
768.113	0.0141956
768.192	0.0141117
768.270	0.0141532
768.348	0.0141428
768.426	0.0141776
768.504	0.0143015
768.582	0.0142169
768.660	0.0143569
768.738	0.0143713
768.817	0.0142683
768.895	0.0141828
768.973	0.0143320
769.051	0.0142796
769.129	0.0143021
769.207	0.0143266
769.285	0.0143253
769.363	0.0146194
769.442	0.0144547
769.520	0.0144958
769.598	0.0144847
769.676	0.0143826
769.754	0.0143859
769.832	0.0143500
769.910	0.0144709
769.988	0.0144633
770.067	0.0143610
770.145	0.0142535
770.223	0.0142613
770.301	0.0142182
770.379	0.0143644
770.457	0.0143260
770.535	0.0141856
770.613	0.0141373
770.692	0.0141569
770.770	0.0142637
770.848	0.0142886
770.926	0.0142168
771.004	0.0142300
771.082	0.0140508
771.160	0.0140614
771.238	0.0140170
771.317	0.0140513
771.395	0.0139761
771.473	0.0139929
771.551	0.0141289
771.629	0.0140196
771.707	0.0140150
771.785	0.0139838
771.863	0.0139838
771.942	0.0140610
772.020	0.0140125
772.098	0.0141055
772.176	0.0140088
772.254	0.0140397
772.332	0.0140916
772.410	0.0139590
772.488	0.0140853
772.567	0.0141257
772.645	0.0140334
772.723	0.0139178
772.801	0.0141518
772.879	0.0142818
772.957	0.0140701
773.035	0.0140311
773.113	0.0140924
773.192	0.0141431
773.270	0.0143272
773.348	0.0142130
773.426	0.0140822
773.504	0.0141362
773.582	0.0140640
773.660	0.0142113
773.738	0.0144054
773.817	0.0140912
773.895	0.0141006
773.973	0.0140633
774.051	0.0142626
774.129	0.0142619
774.207	0.0142051
774.285	0.0142224
774.363	0.0140437
774.442	0.0141673
774.520	0.0141579
774.598	0.0142609
774.676	0.0141177
774.754	0.0140108
774.832	0.0140635
774.910	0.0140622
774.988	0.0141543
775.067	0.0140623
775.145	0.0140492
775.223	0.0138966
775.301	0.0140436
775.379	0.0141690
775.457	0.0140416
775.535	0.0141620
775.613	0.0140409
775.692	0.0140412
775.770	0.0142768
775.848	0.0140703
775.926	0.0140475
776.004	0.0141080
776.082	0.0141725
776.160	0.0139849
776.238	0.0141038
776.317	0.0140965
776.395	0.0140701
776.473	0.0140724
776.551	0.0141387
776.629	0.0140520
776.707	0.0141969
776.785	0.0141462
776.863	0.0139909
776.942	0.0140385
777.020	0.0141048
777.098	0.0141439
777.176	0.0142809
777.254	0.0142606
777.332	0.0142175
777.410	0.0141957
777.488	0.0142096
777.567	0.0140874
777.645	0.0140602
777.723	0.0143158
777.801	0.0142108
777.879	0.0142030
777.957	0.0142127
778.035	0.0142650
778.113	0.0143063
778.192	0.0143042
778.270	0.0142860
778.348	0.0141930
778.426	0.0141941
778.504	0.0142017
778.582	0.0141716
778.660	0.0141965
778.738	0.0141763
778.817	0.0143302
778.895	0.0142155
778.973	0.0142679
779.051	0.0142844
779.129	0.0143237
779.207	0.0143397
779.285	0.0143801
779.363	0.0143374
779.442	0.0142531
779.520	0.0143500
779.598	0.0142355
779.676	0.0141817
779.754	0.0142632
779.832	0.0140868
779.910	0.0141953
779.988	0.0141834
780.067	0.0142857
780.145	0.0142262
780.223	0.0142374
780.301	0.0141319
780.379	0.0142599
780.457	0.0141875
780.535	0.0140784
780.613	0.0141808
780.692	0.0141576
780.770	0.0141837
780.848	0.0142091
780.926	0.0141749
781.004	0.0141375
781.082	0.0143326
781.160	0.0141620
781.238	0.0141680
781.317	0.0143418
781.395	0.0142211
781.473	0.0141246
781.551	0.0141840
781.629	0.0141652
781.707	0.0141991
781.785	0.0142216
781.863	0.0141271
781.942	0.0140927
782.020	0.0142251
782.098	0.0140886
782.176	0.0141706
782.254	0.0140919
782.332	0.0141451
782.410	0.0140907
782.488	0.0141209
782.567	0.0140907
782.645	0.0142886
782.723	0.0141102
782.801	0.0140743
782.879	0.0140378
782.957	0.0139833
783.035	0.0141943
783.113	0.0141559
783.192	0.0141612
783.270	0.0141901
783.348	0.0142885
783.426	0.0141558
783.504	0.0142673
783.582	0.0141942
783.660	0.0141431
783.738	0.0141234
783.817	0.0142229
783.895	0.0143214
783.973	0.0142286
784.051	0.0141829
784.129	0.0142453
784.207	0.0143949
784.285	0.0143047
784.363	0.0142161
784.442	0.0143358
784.520	0.0143362
784.598	0.0142385
784.676	0.0143889
784.754	0.0144456
784.832	0.0142094
784.910	0.0142513
784.988	0.0142881
785.067	0.0143298
785.145	0.0142054
785.223	0.0142522
785.301	0.0142635
785.379	0.0141312
785.457	0.0141737
785.535	0.0142228
785.613	0.0142410
785.692	0.0141943
785.770	0.0140833
785.848	0.0142200
785.926	0.0141841
786.004	0.0141814
786.082	0.0141669
786.160	0.0140774
786.238	0.0140689
786.317	0.0141990
786.395	0.0138471
786.473	0.0139099
786.551	0.0140878
786.629	0.0140876
786.707	0.0140663
786.785	0.0140449
786.863	0.0141104
786.942	0.0140259
787.020	0.0140466
787.098	0.0140364
787.176	0.0140379
787.254	0.0140892
787.332	0.0141225
787.410	0.0141280
787.488	0.0141408
787.567	0.0140704
787.645	0.0141544
787.723	0.0141979
787.801	0.0139607
787.879	0.0140279
787.957	0.0139996
788.035	0.0141652
788.113	0.0141869
788.192	0.0142542
788.270	0.0141768
788.348	0.0140758
788.426	0.0140538
788.504	0.0141624
788.582	0.0141017
788.660	0.0140595
788.738	0.0141194
788.817	0.0141339
788.895	0.0141217
788.973	0.0141415
789.051	0.0139397
789.129	0.0140269
789.207	0.0141154
789.285	0.0140056
789.363	0.0141164
789.442	0.0141357
789.520	0.0140991
789.598	0.0139854
789.676	0.0141453
789.754	0.0140573
789.832	0.0142214
789.910	0.0142355
789.988	0.0142934
790.067	0.0142120
790.145	0.0143723
790.223	0.0142986
790.301	0.0143160
790.379	0.0142353
790.457	0.0142246
790.535	0.0142981
790.613	0.0143388
790.692	0.0144058
790.770	0.0143047
790.848	0.0141836
790.926	0.0143131
791.004	0.0142976
791.082	0.0145162
791.160	0.0143606
791.238	0.0142353
791.317	0.0144200
791.395	0.0143233
791.473	0.0141678
791.551	0.0143408
791.629	0.0142628
791.707	0.0143208
791.785	0.0144024
791.863	0.0144677
791.942	0.0143419
792.020	0.0144851
792.098	0.0143230
792.176	0.0144633
792.254	0.0144431
792.332	0.0143806
792.410	0.0144438
792.488	0.0144183
792.567	0.0142927
792.645	0.0144394
792.723	0.0144550
792.801	0.0145063
792.879	0.0145164
792.957	0.0142672
793.035	0.0144783
793.113	0.0144614
793.192	0.0143138
793.270	0.0145550
793.348	0.0144096
793.426	0.0141924
793.504	0.0143506
793.582	0.0141176
793.660	0.0142146
793.738	0.0143262
793.817	0.0141444
793.895	0.0141615
793.973	0.0142175
794.051	0.0142524
794.129	0.0141890
794.207	0.0142847
794.285	0.0141702
794.363	0.0140620
794.442	0.0142183
794.520	0.0142008
794.598	0.0141417
794.676	0.0141428
794.754	0.0142440
794.832	0.0143034
794.910	0.0143495
794.988	0.0142944
795.067	0.0142049
795.145	0.0142500
795.223	0.0142525
795.301	0.0142666
795.379	0.0142771
795.457	0.0143003
795.535	0.0142989
795.613	0.0144287
795.692	0.0142059
795.770	0.0141841
795.848	0.0142675
795.926	0.0143841
796.004	0.0143539
796.082	0.0143998
796.160	0.0142622
796.238	0.0142091
796.317	0.0142706
796.395	0.0142654
796.473	0.0141486
796.551	0.0141680
796.629	0.0142679
796.707	0.0142948
796.785	0.0141942
796.863	0.0142059
796.942	0.0142080
797.020	0.0141139
797.098	0.0141205
797.176	0.0141902
797.254	0.0141248
797.332	0.0141727
797.410	0.0142614
797.488	0.0141340
797.567	0.0142518
797.645	0.0142249
797.723	0.0142281
797.801	0.0141099
797.879	0.0141101
797.957	0.0141636
798.035	0.0142870
798.113	0.0143615
798.192	0.0142511
798.270	0.0143433
798.348	0.0142683
798.426	0.0142443
798.504	0.0141753
798.582	0.0141909
798.660	0.0143816
798.738	0.0141685
798.817	0.0141662
798.895	0.0142917
798.973	0.0143517
799.051	0.0141634
799.129	0.0141299
799.207	0.0142661
799.285	0.0142445
799.363	0.0142078
799.442	0.0143279
799.520	0.0144538
799.598	0.0143516
799.676	0.0143576
799.754	0.0143116
799.832	0.0141891
799.910	0.0142148
799.988	0.0143082
800.067	0.0144743
800.145	0.0144514
800.223	0.0144684
800.301	0.0144125
800.379	0.0144315
800.457	0.0143426
800.535	0.0144460
800.613	0.0143901
800.692	0.0144443
800.770	0.0143456
800.848	0.0144214
800.926	0.0144285
801.004	0.0143578
801.082	0.0145021
801.160	0.0144183
801.238	0.0144360
801.317	0.0144441
801.395	0.0142815
801.473	0.0144641
801.551	0.0144530
801.629	0.0142986
801.707	0.0143916
801.785	0.0142981
801.863	0.0144022
801.942	0.0143092
802.020	0.0143582
802.098	0.0143562
802.176	0.0141415
802.254	0.0141145
802.332	0.0143174
802.410	0.0142371
802.488	0.0141209
802.567	0.0141641
802.645	0.0141570
802.723	0.0140926
802.801	0.0142129
802.879	0.0141168
802.957	0.0141673
803.035	0.0141573
803.113	0.0142136
803.192	0.0142431
803.270	0.0142012
803.348	0.0142377
803.426	0.0143412
803.504	0.0142182
803.582	0.0142918
803.660	0.0141943
803.738	0.0143130
803.817	0.0142979
803.895	0.0142360
803.973	0.0143602
804.051	0.0142476
804.129	0.0142207
804.207	0.0142696
804.285	0.0142677
804.363	0.0143116
804.442	0.0142079
804.520	0.0142162
804.598	0.0142070
804.676	0.0142295
804.754	0.0142480
804.832	0.0141933
804.910	0.0141134
804.988	0.0143378
805.067	0.0142566
805.145	0.0141455
805.223	0.0141629
805.301	0.0141305
805.379	0.0141865
805.457	0.0140579
805.535	0.0140759
805.613	0.0141861
805.692	0.0140205
805.770	0.0139709
805.848	0.0140358
805.926	0.0141326
806.004	0.0140962
806.082	0.0140681
806.160	0.0141178
806.238	0.0141991
806.317	0.0141386
806.395	0.0141273
806.473	0.0140891
806.551	0.0142032
806.629	0.0141768
806.707	0.0141853
806.785	0.0142125
806.863	0.0142262
806.942	0.0143604
807.020	0.0142509
807.098	0.0143377
807.176	0.0142324
807.254	0.0141196
807.332	0.0142072
807.410	0.0143235
807.488	0.0142159
807.567	0.0142726
807.645	0.0141701
807.723	0.0141895
807.801	0.0142461
807.879	0.0142178
807.957	0.0143313
808.035	0.0142048
808.113	0.0140771
808.192	0.0140958
808.270	0.0142574
808.348	0.0142608
808.426	0.0142677
808.504	0.0142973
808.582	0.0142939
808.660	0.0140952
808.738	0.0141701
808.817	0.0143346
808.895	0.0142863
808.973	0.0142995
809.051	0.0142599
809.129	0.0143542
809.207	0.0142374
809.285	0.0142750
809.363	0.0142409
809.442	0.0141808
809.520	0.0142881
809.598	0.0142343
809.676	0.0142554
809.754	0.0143571
809.832	0.0143294
809.910	0.0143517
809.988	0.0141579
810.067	0.0142279
810.145	0.0141724
810.223	0.0142737
810.301	0.0142932
810.379	0.0143094
810.457	0.0143662
810.535	0.0143304
810.613	0.0142538
810.692	0.0142605
810.770	0.0142538
810.848	0.0142306
810.926	0.0142346
811.004	0.0142727
811.082	0.0142616
811.160	0.0143125
811.238	0.0141965
811.317	0.0142390
811.395	0.0143317
811.473	0.0143201
811.551	0.0143923
811.629	0.0142493
811.707	0.0142490
811.785	0.0142088
811.863	0.0144444
811.942	0.0144324
812.020	0.0141871
812.098	0.0142046
812.176	0.0142986
812.254	0.0142901
812.332	0.0142643
812.410	0.0142431
812.488	0.0142478
812.567	0.0142436
812.645	0.0143528
812.723	0.0142792
812.801	0.0142011
812.879	0.0141612
812.957	0.0142181
813.035	0.0141739
813.113	0.0141147
813.192	0.0140643
813.270	0.0139848
813.348	0.0141051
813.426	0.0140627
813.504	0.0139020
813.582	0.0138907
813.660	0.0139559
813.738	0.0140086
813.817	0.0139345
813.895	0.0140059
813.973	0.0139309
814.051	0.0140224
814.129	0.0139496
814.207	0.0140410
814.285	0.0137950
814.363	0.0140208
814.442	0.0142159
814.520	0.0141583
814.598	0.0140571
814.676	0.0139149
814.754	0.0139690
814.832	0.0140456
814.910	0.0138867
814.988	0.0140579
815.067	0.0141528
815.145	0.0140799
815.223	0.0141487
815.301	0.0141432
815.379	0.0141523
815.457	0.0141550
815.535	0.0140111
815.613	0.0139766
815.692	0.0140290
815.770	0.0140908
815.848	0.0140720
815.926	0.0140598
816.004	0.0140483
816.082	0.0140775
816.160	0.0141051
816.238	0.0140892
816.317	0.0142080
816.395	0.0140987
816.473	0.0141003
816.551	0.0140491
816.629	0.0141799
816.707	0.0142175
816.785	0.0142884
816.863	0.0142441
816.942	0.0141629
817.020	0.0143697
817.098	0.0142694
817.176	0.0142463
817.254	0.0143526
817.332	0.0143662
817.410	0.0141795
817.488	0.0144255
817.567	0.0142595
817.645	0.0144050
817.723	0.0143056
817.801	0.0143497
817.879	0.0144593
817.957	0.0144022
818.035	0.0144994
818.113	0.0144131
818.192	0.0144979
818.270	0.0143739
818.348	0.0143018
818.426	0.0143307
818.504	0.0143549
818.582	0.0142912
818.660	0.0143597
818.738	0.0143832
818.817	0.0142917
818.895	0.0143055
818.973	0.0142724
819.051	0.0143415
819.129	0.0143156
819.207	0.0142991
819.285	0.0142914
819.363	0.0142251
819.442	0.0142544
819.520	0.0143561
819.598	0.0143213
819.676	0.0144125
819.754	0.0143285
819.832	0.0143430
819.910	0.0143562
819.988	0.0144589
820.067	0.0143554
820.145	0.0142885
820.223	0.0144566
820.301	0.0143168
820.379	0.0144216
820.457	0.0145197
820.535	0.0144977
820.613	0.0144411
820.692	0.0142755
820.770	0.0144767
820.848	0.0144038
820.926	0.0143900
821.004	0.0143567
821.082	0.0145090
821.160	0.0143575
821.238	0.0144160
821.317	0.0143832
821.395	0.0142807
821.473	0.0143545
821.551	0.0143597
821.629	0.0143431
821.707	0.0143811
821.785	0.0143647
821.863	0.0144193
821.942	0.0143635
822.020	0.0141902
822.098	0.0142426
822.176	0.0142633
822.254	0.0141534
822.332	0.0141948
822.410	0.0142690
822.488	0.0141030
822.567	0.0141753
822.645	0.0142162
822.723	0.0141291
822.801	0.0141449
822.879	0.0142139
822.957	0.0143000
823.035	0.0142400
823.113	0.0142236
823.192	0.0143046
823.270	0.0142052
823.348	0.0142231
823.426	0.0144197
823.504	0.0141073
823.582	0.0142616
823.660	0.0141833
823.738	0.0141000
823.817	0.0141953
823.895	0.0142336
823.973	0.0142221
824.051	0.0140791
824.129	0.0140989
824.207	0.0140542
824.285	0.0140711
824.363	0.0142134
824.442	0.0140733
824.520	0.0141040
824.598	0.0141027
824.676	0.0141978
824.754	0.0141251
824.832	0.0140504
824.910	0.0140103
824.988	0.0141318
825.067	0.0141474
825.145	0.0141661
825.223	0.0141018
825.301	0.0142276
825.379	0.0141102
825.457	0.0142104
825.535	0.0141496
825.613	0.0141659
825.692	0.0142772
825.770	0.0142428
825.848	0.0142802
825.926	0.0141694
826.004	0.0142145
826.082	0.0141895
826.160	0.0141138
826.238	0.0142109
826.317	0.0141837
826.395	0.0144228
826.473	0.0143139
826.551	0.0142012
826.629	0.0142978
826.707	0.0143216
826.785	0.0142721
826.863	0.0142218
826.942	0.0140610
827.020	0.0142729
827.098	0.0143346
827.176	0.0142668
827.254	0.0141610
827.332	0.0142200
827.410	0.0142935
827.488	0.0140664
827.567	0.0141669
827.645	0.0141933
827.723	0.0142170
827.801	0.0141933
827.879	0.0141359
827.957	0.0141422
828.035	0.0140716
828.113	0.0140218
828.192	0.0140604
828.270	0.0141830
828.348	0.0140857
828.426	0.0141745
828.504	0.0140123
828.582	0.0140077
828.660	0.0140883
828.738	0.0139845
828.817	0.0141698
828.895	0.0141184
828.973	0.0141246
829.051	0.0141439
829.129	0.0141145
829.207	0.0141077
829.285	0.0142279
829.363	0.0141719
829.442	0.0142599
829.520	0.0142227
829.598	0.0141680
829.676	0.0141679
829.754	0.0141392
829.832	0.0141338
829.910	0.0140752
829.988	0.0141518
830.067	0.0141662
830.145	0.0142290
830.223	0.0140632
830.301	0.0141856
830.379	0.0141140
830.457	0.0140317
830.535	0.0139816
830.613	0.0140467
830.692	0.0140596
830.770	0.0139539
830.848	0.0140815
830.926	0.0141470
831.004	0.0140076
831.082	0.0140196
831.160	0.0141206
831.238	0.0142038
831.317	0.0141023
831.395	0.0141566
831.473	0.0142023
831.551	0.0141263
831.629	0.0142490
831.707	0.0142326
831.785	0.0141998
831.863	0.0141947
831.942	0.0141274
832.020	0.0142817
832.098	0.0143536
832.176	0.0143420
832.254	0.0142989
832.332	0.0142782
832.410	0.0143361
832.488	0.0144333
832.567	0.0144254
832.645	0.0142850
832.723	0.0142587
832.801	0.0143924
832.879	0.0144312
832.957	0.0141984
833.035	0.0144147
833.113	0.0143150
833.192	0.0144272
833.270	0.0143049
833.348	0.0143781
833.426	0.0143731
833.504	0.0143198
833.582	0.0143414
833.660	0.0143751
833.738	0.0143034
833.817	0.0144086
833.895	0.0142471
833.973	0.0144169
834.051	0.0143997
834.129	0.0144205
834.207	0.0142701
834.285	0.0144594
834.363	0.0143528
834.442	0.0144036
834.520	0.0142692
834.598	0.0143478
834.676	0.0143227
834.754	0.0143153
834.832	0.0145096
834.910	0.0144621
834.988	0.0143943
835.067	0.0143652
835.145	0.0144574
835.223	0.0143546
835.301	0.0144658
835.379	0.0142764
835.457	0.0143330
835.535	0.0143923
835.613	0.0144357
835.692	0.0141579
835.770	0.0143035
835.848	0.0144261
835.926	0.0142072
836.004	0.0142287
836.082	0.0142960
836.160	0.0141743
836.238	0.0139880
836.317	0.0141309
836.395	0.0140930
836.473	0.0140459
836.551	0.0141037
836.629	0.0140462
836.707	0.0139339
836.785	0.0139595
836.863	0.0138544
836.942	0.0138931
837.020	0.0138394
837.098	0.0138275
837.176	0.0137929
837.254	0.0138248
837.332	0.0138125
837.410	0.0138178
837.488	0.0138198
837.567	0.0138971
837.645	0.0138615
837.723	0.0139064
837.801	0.0137876
837.879	0.0138844
837.957	0.0140348
838.035	0.0140392
838.113	0.0138778
838.192	0.0141872
838.270	0.0141296
838.348	0.0140600
838.426	0.0140504
838.504	0.0142106
838.582	0.0140617
838.660	0.0142004
838.738	0.0142452
838.817	0.0142622
838.895	0.0141908
838.973	0.0142403
839.051	0.0141416
839.129	0.0142135
839.207	0.0142961
839.285	0.0143111
839.363	0.0142819
839.442	0.0143250
839.520	0.0141515
839.598	0.0142160
839.676	0.0141578
839.754	0.0142645
839.832	0.0141593
839.910	0.0142195
839.988	0.0142246
840.067	0.0141558
840.145	0.0140841
840.223	0.0141811
840.301	0.0142268
840.379	0.0140666
840.457	0.0142297
840.535	0.0142403
840.613	0.0142851
840.692	0.0141797
840.770	0.0142819
840.848	0.0142467
840.926	0.0141222
841.004	0.0143266
841.082	0.0142219
841.160	0.0142450
841.238	0.0141801
841.317	0.0142517
841.395	0.0143159
841.473	0.0141068
841.551	0.0141569
841.629	0.0141486
841.707	0.0141352
841.785	0.0142379
841.863	0.0141191
841.942	0.0141265
842.020	0.0141510
842.098	0.0142945
842.176	0.0142183
842.254	0.0142284
842.332	0.0142029
842.410	0.0142546
842.488	0.0141463
842.567	0.0142348
842.645	0.0144110
842.723	0.0142573
842.801	0.0141584
842.879	0.0142841
842.957	0.0141950
843.035	0.0141338
843.113	0.0142555
843.192	0.0143639
843.270	0.0142310
843.348	0.0142871
843.426	0.0143395
843.504	0.0143061
843.582	0.0142311
843.660	0.0144029
843.738	0.0143140
843.817	0.0141884
843.895	0.0142618
843.973	0.0142889
844.051	0.0142431
844.129	0.0142905
844.207	0.0143587
844.285	0.0142899
844.363	0.0143145
844.442	0.0142587
844.520	0.0142354
844.598	0.0141660
844.676	0.0142361
844.754	0.0142168
844.832	0.0141653
844.910	0.0142231
844.988	0.0142038
845.067	0.0143787
845.145	0.0143553
845.223	0.0140871
845.301	0.0142523
845.379	0.0140349
845.457	0.0141325
845.535	0.0141224
845.613	0.0140511
845.692	0.0138435
845.770	0.0140318
845.848	0.0141045
845.926	0.0140389
846.004	0.0140729
846.082	0.0139928
846.160	0.0141003
846.238	0.0139516
846.317	0.0140643
846.395	0.0139664
846.473	0.0140794
846.551	0.0139401
846.629	0.0139397
846.707	0.0139690
846.785	0.0140108
846.863	0.0140906
846.942	0.0140640
847.020	0.0141413
847.098	0.0139952
847.176	0.0140318
847.254	0.0141223
847.332	0.0140868
847.410	0.0139793
847.488	0.0140052
847.567	0.0140649
847.645	0.0141327
847.723	0.0140200
847.801	0.0140765
847.879	0.0140118
847.957	0.0139745
848.035	0.0141965
848.113	0.0141039
848.192	0.0141101
848.270	0.0140171
848.348	0.0140732
848.426	0.0141425
848.504	0.0140329
848.582	0.0140942
848.660	0.0141998
848.738	0.0141117
848.817	0.0140990
848.895	0.0141219
848.973	0.0140797
849.051	0.0141213
849.129	0.0141605
849.207	0.0140491
849.285	0.0141648
849.363	0.0141971
849.442	0.0141076
849.520	0.0140594
849.598	0.0140918
849.676	0.0139695
849.754	0.0141889
849.832	0.0139878
849.910	0.0139464
849.988	0.0140726
850.067	0.0139554
850.145	0.0141037
850.223	0.0140249
850.301	0.0139530
850.379	0.0139340
850.457	0.0139953
850.535	0.0140510
850.613	0.0140874
850.692	0.0141567
850.770	0.0139892
850.848	0.0140891
850.926	0.0140474
851.004	0.0139140
851.082	0.0139690
851.160	0.0140488
851.238	0.0142212
851.317	0.0142459
851.395	0.0140773
851.473	0.0141817
851.551	0.0141159
851.629	0.0140697
851.707	0.0139562
851.785	0.0140184
851.863	0.0140884
851.942	0.0141848
852.020	0.0141438
852.098	0.0141645
852.176	0.0140681
852.254	0.0142039
852.332	0.0141135
852.410	0.0140815
852.488	0.0142326
852.567	0.0141835
852.645	0.0141749
852.723	0.0141620
852.801	0.0140910
852.879	0.0142075
852.957	0.0141972
853.035	0.0141862
853.113	0.0142268
853.192	0.0142207
853.270	0.0140246
853.348	0.0140871
853.426	0.0141913
853.504	0.0142207
853.582	0.0141261
853.660	0.0142402
853.738	0.0140885
853.817	0.0141984
853.895	0.0141793
853.973	0.0140874
854.051	0.0140834
854.129	0.0142640
854.207	0.0143147
854.285	0.0141741
854.363	0.0143359
854.442	0.0143690
854.520	0.0142267
854.598	0.0142863
854.676	0.0143120
854.754	0.0142010
854.832	0.0142739
854.910	0.0143159
854.988	0.0141277
855.067	0.0142442
855.145	0.0142369
855.223	0.0142289
855.301	0.0142655
855.379	0.0143341
855.457	0.0142916
855.535	0.0141445
855.613	0.0141404
855.692	0.0141525
855.770	0.0142038
855.848	0.0142031
855.926	0.0142245
856.004	0.0143638
856.082	0.0141397
856.160	0.0141723
856.238	0.0142543
856.317	0.0142873
856.395	0.0141573
856.473	0.0142596
856.551	0.0142087
856.629	0.0142310
856.707	0.0142117
856.785	0.0142039
856.863	0.0141612
856.942	0.0142897
857.020	0.0143718
857.098	0.0142486
857.176	0.0142262
857.254	0.0143305
857.332	0.0141975
857.410	0.0144383
857.488	0.0142798
857.567	0.0142743
857.645	0.0143627
857.723	0.0143338
857.801	0.0143110
857.879	0.0142983
857.957	0.0144952
858.035	0.0143481
858.113	0.0141837
858.192	0.0144664
858.270	0.0143233
858.348	0.0144085
858.426	0.0143230
858.504	0.0142330
858.582	0.0142796
858.660	0.0143467
858.738	0.0141776
858.817	0.0141450
858.895	0.0142879
858.973	0.0143296
859.051	0.0142798
859.129	0.0143073
859.207	0.0140327
859.285	0.0142683
859.363	0.0142189
859.442	0.0140528
859.520	0.0141776
859.598	0.0141749
859.676	0.0142519
859.754	0.0143167
859.832	0.0140886
859.910	0.0140292
859.988	0.0142107
860.067	0.0141392
860.145	0.0141453
860.223	0.0141956
860.301	0.0141325
860.379	0.0141872
860.457	0.0140793
860.535	0.0141502
860.613	0.0142430
860.692	0.0142558
860.770	0.0141781
860.848	0.0141509
860.926	0.0142162
861.004	0.0141830
861.082	0.0140454
861.160	0.0140682
861.238	0.0141837
861.317	0.0142862
861.395	0.0141209
861.473	0.0141139
861.551	0.0140993
861.629	0.0142896
861.707	0.0143620
861.785	0.0142484
861.863	0.0141385
861.942	0.0141714
862.020	0.0140976
862.098	0.0141620
862.176	0.0143317
862.254	0.0141075
862.332	0.0141523
862.410	0.0141199
862.488	0.0141549
862.567	0.0142097
862.645	0.0141727
862.723	0.0141802
862.801	0.0140916
862.879	0.0140943
862.957	0.0142259
863.035	0.0142312
863.113	0.0142368
863.192	0.0141970
863.270	0.0141010
863.348	0.0141779
863.426	0.0141977
863.504	0.0141809
863.582	0.0142678
863.660	0.0143391
863.738	0.0142278
863.817	0.0142210
863.895	0.0142274
863.973	0.0142833
864.051	0.0142872
864.129	0.0143962
864.207	0.0143502
864.285	0.0141763
864.363	0.0142956
864.442	0.0143396
864.520	0.0142253
864.598	0.0142498
864.676	0.0143429
864.754	0.0143537
864.832	0.0141296
864.910	0.0141691
864.988	0.0142646
865.067	0.0142566
865.145	0.0141493
865.223	0.0140003
865.301	0.0141412
865.379	0.0141676
865.457	0.0142189
865.535	0.0142164
865.613	0.0141539
865.692	0.0141933
865.770	0.0142587
865.848	0.0143632
865.926	0.0143821
866.004	0.0143340
866.082	0.0143137
866.160	0.0143020
866.238	0.0141900
866.317	0.0143447
866.395	0.0142749
866.473	0.0142988
866.551	0.0144176
866.629	0.0141673
866.707	0.0141564
866.785	0.0142935
866.863	0.0142043
866.942	0.0142646
867.020	0.0142648
867.098	0.0141418
867.176	0.0143114
867.254	0.0141783
867.332	0.0140767
867.410	0.0141956
867.488	0.0142313
867.567	0.0141105
867.645	0.0140828
867.723	0.0141163
867.801	0.0141368
867.879	0.0141009
867.957	0.0142382
868.035	0.0141245
868.113	0.0141199
868.192	0.0140157
868.270	0.0141457
868.348	0.0141277
868.426	0.0141175
868.504	0.0139440
868.582	0.0141348
868.660	0.0141749
868.738	0.0139993
868.817	0.0140007
868.895	0.0141089
868.973	0.0140734
869.051	0.0140887
869.129	0.0140302
869.207	0.0140359
869.285	0.0139799
869.363	0.0138886
869.442	0.0140025
869.520	0.0141442
869.598	0.0138696
869.676	0.0139655
869.754	0.0140931
869.832	0.0139856
869.910	0.0139951
869.988	0.0140311
870.067	0.0140200
870.145	0.0139518
870.223	0.0139615
870.301	0.0139170
870.379	0.0140053
870.457	0.0140597
870.535	0.0138147
870.613	0.0139626
870.692	0.0139330
870.770	0.0139050
870.848	0.0138811
870.926	0.0140408
871.004	0.0140835
871.082	0.0140292
871.160	0.0139554
871.238	0.0140166
871.317	0.0139572
871.395	0.0140920
871.473	0.0141092
871.551	0.0139414
871.629	0.0141364
871.707	0.0142135
871.785	0.0140417
871.863	0.0141641
871.942	0.0141668
872.020	0.0141401
872.098	0.0141962
872.176	0.0140992
872.254	0.0142093
872.332	0.0141426
872.410	0.0139932
872.488	0.0143770
872.567	0.0142058
872.645	0.0141306
872.723	0.0142257
872.801	0.0141649
872.879	0.0142281
872.957	0.0143533
873.035	0.0141250
873.113	0.0141460
873.192	0.0141380
873.270	0.0141809
873.348	0.0143028
873.426	0.0143301
873.504	0.0142395
873.582	0.0142616
873.660	0.0141791
873.738	0.0142647
873.817	0.0141676
873.895	0.0142282
873.973	0.0143672
874.051	0.0142969
874.129	0.0142738
874.207	0.0141228
874.285	0.0143822
874.363	0.0143521
874.442	0.0142034
874.520	0.0143040
874.598	0.0143807
874.676	0.0142778
874.754	0.0142841
874.832	0.0143255
874.910	0.0142709
874.988	0.0144420
875.067	0.0144537
875.145	0.0142930
875.223	0.0142665
875.301	0.0144512
875.379	0.0143610
875.457	0.0142210
875.535	0.0142729
875.613	0.0142535
875.692	0.0143555
875.770	0.0142305
875.848	0.0143568
875.926	0.0143520
876.004	0.0142737
876.082	0.0143212
876.160	0.0141961
876.238	0.0143611
876.317	0.0143206
876.395	0.0141998
876.473	0.0142004
876.551	0.0141781
876.629	0.0142694
876.707	0.0143077
876.785	0.0143232
876.863	0.0143578
876.942	0.0142061
877.020	0.0142864
877.098	0.0143691
877.176	0.0143671
877.254	0.0141235
877.332	0.0142513
877.410	0.0143159
877.488	0.0143671
877.567	0.0143060
877.645	0.0143665
877.723	0.0144548
877.801	0.0143354
877.879	0.0142381
877.957	0.0143668
878.035	0.0143431
878.113	0.0142815
878.192	0.0142863
878.270	0.0143079
878.348	0.0144318
878.426	0.0142068
878.504	0.0141949
878.582	0.0140949
878.660	0.0142277
878.738	0.0142029
878.817	0.0140816
878.895	0.0142385
878.973	0.0142659
879.051	0.0143679
879.129	0.0142613
879.207	0.0142095
879.285	0.0141487
879.363	0.0142151
879.442	0.0142857
879.520	0.0141704
879.598	0.0141759
879.676	0.0141447
879.754	0.0142772
879.832	0.0142333
879.910	0.0141567
879.988	0.0142884
880.067	0.0142295
880.145	0.0141658
880.223	0.0142213
880.301	0.0143288
880.379	0.0143585
880.457	0.0142773
880.535	0.0142590
880.613	0.0141953
880.692	0.0143029
880.770	0.0142278
880.848	0.0143364
880.926	0.0142261
881.004	0.0141833
881.082	0.0141039
881.160	0.0142565
881.238	0.0142500
881.317	0.0139931
881.395	0.0141283
881.473	0.0142017
881.551	0.0142574
881.629	0.0141354
881.707	0.0141903
881.785	0.0140767
881.863	0.0141549
881.942	0.0141138
882.020	0.0141651
882.098	0.0141769
882.176	0.0142013
882.254	0.0140207
882.332	0.0141978
882.410	0.0140962
882.488	0.0139771
882.567	0.0142233
882.645	0.0141440
882.723	0.0141438
882.801	0.0140595
882.879	0.0142185
882.957	0.0141257
883.035	0.0141257
883.113	0.0140491
883.192	0.0140012
883.270	0.0142200
883.348	0.0141710
883.426	0.0140540
883.504	0.0140501
883.582	0.0142107
883.660	0.0142242
883.738	0.0141604
883.817	0.0140858
883.895	0.0142188
883.973	0.0141911
884.051	0.0142159
884.129	0.0141100
884.207	0.0142403
884.285	0.0141673
884.363	0.0143002
884.442	0.0141005
884.520	0.0143845
884.598	0.0142085
884.676	0.0142489
884.754	0.0143595
884.832	0.0143064
884.910	0.0142805
884.988	0.0143756
885.067	0.0144006
885.145	0.0143159
885.223	0.0144480
885.301	0.0143728
885.379	0.0143363
885.457	0.0143420
885.535	0.0145512
885.613	0.0144148
885.692	0.0144460
885.770	0.0143604
885.848	0.0143736
885.926	0.0144400
886.004	0.0143463
886.082	0.0143768
886.160	0.0144138
886.238	0.0144514
886.317	0.0143319
886.395	0.0142216
886.473	0.0143063
886.551	0.0143153
886.629	0.0143130
886.707	0.0143680
886.785	0.0144210
886.863	0.0144344
886.942	0.0145779
887.020	0.0143939
887.098	0.0143326
887.176	0.0143802
887.254	0.0143343
887.332	0.0143304
887.410	0.0144377
887.488	0.0144014
887.567	0.0142782
887.645	0.0142878
887.723	0.0141386
887.801	0.0143343
887.879	0.0142205
887.957	0.0141497
888.035	0.0142113
888.113	0.0142784
888.192	0.0142390
888.270	0.0140704
888.348	0.0142463
888.426	0.0141789
888.504	0.0142193
888.582	0.0142626
888.660	0.0142622
888.738	0.0142693
888.817	0.0141895
888.895	0.0142966
888.973	0.0143749
889.051	0.0142915
889.129	0.0142341
889.207	0.0142120
889.285	0.0142532
889.363	0.0144292
889.442	0.0143253
889.520	0.0142128
889.598	0.0143121
889.676	0.0141335
889.754	0.0143557
889.832	0.0143445
889.910	0.0142606
889.988	0.0141299
890.067	0.0143131
890.145	0.0142914
890.223	0.0143348
890.301	0.0142280
890.379	0.0142239
890.457	0.0143765
890.535	0.0141849
890.613	0.0141203
890.692	0.0142143
890.770	0.0141463
890.848	0.0141380
890.926	0.0142258
891.004	0.0140262
891.082	0.0142188
891.160	0.0141493
891.238	0.0141660
891.317	0.0140997
891.395	0.0141910
891.473	0.0140937
891.551	0.0140654
891.629	0.0141659
891.707	0.0141235
891.785	0.0140678
891.863	0.0141342
891.942	0.0139941
892.020	0.0140278
892.098	0.0140530
892.176	0.0140228
892.254	0.0140626
892.332	0.0140572
892.410	0.0140493
892.488	0.0140265
892.567	0.0139507
892.645	0.0140874
892.723	0.0139597
892.801	0.0140367
892.879	0.0139460
892.957	0.0139691
893.035	0.0138093
893.113	0.0136745
893.192	0.0138331
893.270	0.0137758
893.348	0.0138448
893.426	0.0137364
893.504	0.0138020
893.582	0.0137421
893.660	0.0138438
893.738	0.0138787
893.817	0.0137954
893.895	0.0138651
893.973	0.0138590
894.051	0.0138567
894.129	0.0139716
894.207	0.0140708
894.285	0.0140809
894.363	0.0140160
894.442	0.0140073
894.520	0.0139622
894.598	0.0141151
894.676	0.0140331
894.754	0.0140467
894.832	0.0141061
894.910	0.0141458
894.988	0.0141418
895.067	0.0141413
895.145	0.0142211
895.223	0.0142825
895.301	0.0144237
895.379	0.0144192
895.457	0.0141544
895.535	0.0142526
895.613	0.0143345
895.692	0.0142106
895.770	0.0144380
895.848	0.0144400
895.926	0.0143393
896.004	0.0143161
896.082	0.0143550
896.160	0.0143577
896.238	0.0143827
896.317	0.0144065
896.395	0.0144031
896.473	0.0143669
896.551	0.0143884
896.629	0.0144719
896.707	0.0143035
896.785	0.0142339
896.863	0.0143479
896.942	0.0141904
897.020	0.0145069
897.098	0.0144800
897.176	0.0143479
897.254	0.0142258
897.332	0.0143256
897.410	0.0143050
897.488	0.0143981
897.567	0.0142392
897.645	0.0142977
897.723	0.0142939
897.801	0.0143961
897.879	0.0143718
897.957	0.0142874
898.035	0.0143204
898.113	0.0143197
898.192	0.0143192
898.270	0.0143935
898.348	0.0144012
898.426	0.0143472
898.504	0.0143909
898.582	0.0142178
898.660	0.0143106
898.738	0.0144065
898.817	0.0143480
898.895	0.0144138
898.973	0.0144449
899.051	0.0144314
899.129	0.0144246
899.207	0.0143609
899.285	0.0143476
899.363	0.0143382
899.442	0.0144609
899.520	0.0143536
899.598	0.0143362
899.676	0.0144473
899.754	0.0145046
899.832	0.0143767
899.910	0.0145100
899.988	0.0146008
900.067	0.0144844
900.145	0.0143236
900.223	0.0143878
900.301	0.0144595
900.379	0.0143748
900.457	0.0144545
900.535	0.0144389
900.613	0.0145691
900.692	0.0145313
900.770	0.0145966
900.848	0.0145053
900.926	0.0144587
901.004	0.0145415
901.082	0.0145496
901.160	0.0145301
901.238	0.0144895
901.317	0.0144391
901.395	0.0143630
901.473	0.0143247
901.551	0.0144563
901.629	0.0144601
901.707	0.0143328
901.785	0.0142687
901.863	0.0143862
901.942	0.0143414
902.020	0.0143726
902.098	0.0143475
902.176	0.0141880
902.254	0.0141825
902.332	0.0142843
902.410	0.0141452
902.488	0.0143826
902.567	0.0143303
902.645	0.0141480
902.723	0.0141898
902.801	0.0142735
902.879	0.0141988
902.957	0.0142278
903.035	0.0141154
903.113	0.0140939
903.192	0.0142349
903.270	0.0141145
903.348	0.0140795
903.426	0.0141528
903.504	0.0143123
903.582	0.0142527
903.660	0.0141528
903.738	0.0142810
903.817	0.0142124
903.895	0.0141974
903.973	0.0142191
904.051	0.0141622
904.129	0.0141216
904.207	0.0142100
904.285	0.0140337
904.363	0.0142249
904.442	0.0141356
904.520	0.0140986
904.598	0.0141860
904.676	0.0140693
904.754	0.0140594
904.832	0.0141118
904.910	0.0140952
904.988	0.0140426
905.067	0.0142043
905.145	0.0139956
905.223	0.0141847
905.301	0.0142531
905.379	0.0142409
905.457	0.0143279
905.535	0.0142685
905.613	0.0142171
905.692	0.0143581
905.770	0.0143842
905.848	0.0144309
905.926	0.0142921
906.004	0.0143144
906.082	0.0144045
906.160	0.0142604
906.238	0.0142760
906.317	0.0143627
906.395	0.0144055
906.473	0.0144010
906.551	0.0144256
906.629	0.0144298
906.707	0.0142476
906.785	0.0142895
906.863	0.0144171
906.942	0.0142468
907.020	0.0143240
907.098	0.0142404
907.176	0.0142860
907.254	0.0144043
907.332	0.0143957
907.410	0.0142509
907.488	0.0141682
907.567	0.0143382
907.645	0.0142860
907.723	0.0144202
907.801	0.0141441
907.879	0.0141339
907.957	0.0142256
908.035	0.0142422
908.113	0.0141777
908.192	0.0141326
908.270	0.0140053
908.348	0.0141549
908.426	0.0141637
908.504	0.0141494
908.582	0.0140772
908.660	0.0141178
908.738	0.0140511
908.817	0.0142112
908.895	0.0141628
908.973	0.0142247
909.051	0.0142381
909.129	0.0141564
909.207	0.0141584
909.285	0.0141393
909.363	0.0141351
909.442	0.0141817
909.520	0.0142086
909.598	0.0140736
909.676	0.0141718
909.754	0.0143147
909.832	0.0140139
909.910	0.0141889
909.988	0.0142157
910.067	0.0142722
910.145	0.0143337
910.223	0.0142584
910.301	0.0142806
910.379	0.0140833
910.457	0.0142661
910.535	0.0142945
910.613	0.0143480
910.692	0.0142967
910.770	0.0141689
910.848	0.0142972
910.926	0.0144521
911.004	0.0141995
911.082	0.0141854
911.160	0.0141454
911.238	0.0142201
911.317	0.0141338
911.395	0.0142010
911.473	0.0142473
911.551	0.0141421
911.629	0.0141044
911.707	0.0141108
911.785	0.0141655
911.863	0.0141946
911.942	0.0141506
912.020	0.0141249
912.098	0.0141016
912.176	0.0142606
912.254	0.0141470
912.332	0.0140295
912.410	0.0140825
912.488	0.0140685
912.567	0.0141486
912.645	0.0140261
912.723	0.0140862
912.801	0.0140864
912.879	0.0141807
912.957	0.0141200
913.035	0.0140160
913.113	0.0142332
913.192	0.0140504
913.270	0.0141628
913.348	0.0140915
913.426	0.0140970
913.504	0.0140260
913.582	0.0140585
913.660	0.0140661
913.738	0.0142390
913.817	0.0141001
913.895	0.0140068
913.973	0.0140278
914.051	0.0141760
914.129	0.0140910
914.207	0.0140015
914.285	0.0141122
914.363	0.0141969
914.442	0.0141878
914.520	0.0141251
914.598	0.0140707
914.676	0.0141905
914.754	0.0141920
914.832	0.0141434
914.910	0.0140810
914.988	0.0142208
915.067	0.0141185
915.145	0.0142087
915.223	0.0141916
915.301	0.0141785
915.379	0.0140742
915.457	0.0140183
915.535	0.0140903
915.613	0.0142115
915.692	0.0140884
915.770	0.0140067
915.848	0.0140403
915.926	0.0141027
916.004	0.0140765
916.082	0.0140327
916.160	0.0140562
916.238	0.0142733
916.317	0.0140801
916.395	0.0140331
916.473	0.0141080
916.551	0.0140893
916.629	0.0141759
916.707	0.0141463
916.785	0.0141403
916.863	0.0141843
916.942	0.0140906
917.020	0.0141289
917.098	0.0142445
917.176	0.0141457
917.254	0.0141105
917.332	0.0141040
917.410	0.0141256
917.488	0.0140214
917.567	0.0141113
917.645	0.0140291
917.723	0.0141026
917.801	0.0140537
917.879	0.0140995
917.957	0.0139355
918.035	0.0139316
918.113	0.0140009
918.192	0.0139919
918.270	0.0138330
918.348	0.0140606
918.426	0.0140607
918.504	0.0140103
918.582	0.0138853
918.660	0.0139479
918.738	0.0140224
918.817	0.0140896
918.895	0.0140761
918.973	0.0139590
919.051	0.0140128
919.129	0.0140318
919.207	0.0139547
919.285	0.0140356
919.363	0.0138669
919.442	0.0140343
919.520	0.0140520
919.598	0.0140062
919.676	0.0139788
919.754	0.0140385
919.832	0.0141674
919.910	0.0140108
