05/28/2022	14:37:17	Ver.	4.1	UNKNOWN
Optical Delay	599.988409	Delta X		0.078125	Sweeps	1	Scan Rate	0/0
Coordinates	Axis 1	NaN	Axis 2	NaN	Axis 3	NaN	Axis 4	NaN	Axis 5	NaN	Axis 6	0.000000
TX Power	0.000000	RX Power	0.000000

599.988	0.0144885
600.067	0.0145511
600.145	0.0144784
600.223	0.0144830
600.301	0.0145136
600.379	0.0144112
600.457	0.0144485
600.535	0.0144180
600.613	0.0144572
600.692	0.0144107
600.770	0.0144803
600.848	0.0145008
600.926	0.0143584
601.004	0.0145164
601.082	0.0144450
601.160	0.0144637
601.238	0.0144996
601.317	0.0144536
601.395	0.0144090
601.473	0.0145303
601.551	0.0145183
601.629	0.0143677
601.707	0.0144283
601.785	0.0144367
601.863	0.0143999
601.942	0.0144323
602.020	0.0145753
602.098	0.0143827
602.176	0.0143846
602.254	0.0141984
602.332	0.0143251
602.410	0.0143706
602.488	0.0143214
602.567	0.0142776
602.645	0.0143762
602.723	0.0142920
602.801	0.0142747
602.879	0.0143676
602.957	0.0143214
603.035	0.0143307
603.113	0.0142748
603.192	0.0143040
603.270	0.0142409
603.348	0.0141460
603.426	0.0142947
603.504	0.0143209
603.582	0.0141998
603.660	0.0142991
603.738	0.0142649
603.817	0.0143682
603.895	0.0143469
603.973	0.0142779
604.051	0.0142667
604.129	0.0141333
604.207	0.0142340
604.285	0.0143877
604.363	0.0142508
604.442	0.0141695
604.520	0.0142430
604.598	0.0141720
604.676	0.0142612
604.754	0.0141996
604.832	0.0140986
604.910	0.0142149
604.988	0.0142562
605.067	0.0143342
605.145	0.0142154
605.223	0.0143565
605.301	0.0142081
605.379	0.0141338
605.457	0.0142341
605.535	0.0142792
605.613	0.0142928
605.692	0.0142178
605.770	0.0142474
605.848	0.0141249
605.926	0.0141828
606.004	0.0142320
606.082	0.0142182
606.160	0.0140710
606.238	0.0142497
606.317	0.0142558
606.395	0.0141486
606.473	0.0141772
606.551	0.0143114
606.629	0.0140175
606.707	0.0141969
606.785	0.0141882
606.863	0.0141022
606.942	0.0142577
607.020	0.0142379
607.098	0.0141463
607.176	0.0141865
607.254	0.0143584
607.332	0.0144216
607.410	0.0143048
607.488	0.0141602
607.567	0.0142703
607.645	0.0142911
607.723	0.0142948
607.801	0.0143146
607.879	0.0143695
607.957	0.0143610
608.035	0.0143875
608.113	0.0143279
608.192	0.0143804
608.270	0.0142176
608.348	0.0143277
608.426	0.0143171
608.504	0.0142726
608.582	0.0142822
608.660	0.0142189
608.738	0.0142982
608.817	0.0142541
608.895	0.0142871
608.973	0.0143121
609.051	0.0144463
609.129	0.0143112
609.207	0.0143062
609.285	0.0144550
609.363	0.0143871
609.442	0.0144602
609.520	0.0143575
609.598	0.0143082
609.676	0.0142791
609.754	0.0144736
609.832	0.0144726
609.910	0.0143404
609.988	0.0143331
610.067	0.0144973
610.145	0.0144163
610.223	0.0143871
610.301	0.0144439
610.379	0.0144694
610.457	0.0143511
610.535	0.0144071
610.613	0.0143558
610.692	0.0143964
610.770	0.0145505
610.848	0.0143288
610.926	0.0145057
611.004	0.0144821
611.082	0.0146655
611.160	0.0145153
611.238	0.0145422
611.317	0.0145315
611.395	0.0145653
611.473	0.0144408
611.551	0.0144847
611.629	0.0145268
611.707	0.0145297
611.785	0.0144860
611.863	0.0144834
611.942	0.0144917
612.020	0.0146312
612.098	0.0145856
612.176	0.0146523
612.254	0.0146371
612.332	0.0143882
612.410	0.0145860
612.488	0.0145724
612.567	0.0143706
612.645	0.0145231
612.723	0.0145431
612.801	0.0145251
612.879	0.0145586
612.957	0.0145174
613.035	0.0144476
613.113	0.0145650
613.192	0.0145927
613.270	0.0145529
613.348	0.0145236
613.426	0.0144537
613.504	0.0145486
613.582	0.0144053
613.660	0.0144047
613.738	0.0143644
613.817	0.0143187
613.895	0.0144329
613.973	0.0145814
614.051	0.0144463
614.129	0.0143581
614.207	0.0144095
614.285	0.0143761
614.363	0.0142384
614.442	0.0143526
614.520	0.0144466
614.598	0.0145021
614.676	0.0143697
614.754	0.0144650
614.832	0.0145007
614.910	0.0143661
614.988	0.0143369
615.067	0.0144749
615.145	0.0145664
615.223	0.0144277
615.301	0.0143528
615.379	0.0143101
615.457	0.0144263
615.535	0.0143124
615.613	0.0144756
615.692	0.0144415
615.770	0.0145137
615.848	0.0144139
615.926	0.0143336
616.004	0.0144637
616.082	0.0143835
616.160	0.0143322
616.238	0.0143747
616.317	0.0143356
616.395	0.0143549
616.473	0.0143594
616.551	0.0144456
616.629	0.0144530
616.707	0.0144212
616.785	0.0143949
616.863	0.0145088
616.942	0.0143170
617.020	0.0145428
617.098	0.0144933
617.176	0.0144894
617.254	0.0144214
617.332	0.0143819
617.410	0.0144914
617.488	0.0145499
617.567	0.0142566
617.645	0.0143566
617.723	0.0143552
617.801	0.0143198
617.879	0.0143072
617.957	0.0143896
618.035	0.0143715
618.113	0.0141685
618.192	0.0143841
618.270	0.0144118
618.348	0.0143683
618.426	0.0142364
618.504	0.0142293
618.582	0.0143436
618.660	0.0143277
618.738	0.0144676
618.817	0.0144269
618.895	0.0144322
618.973	0.0145439
619.051	0.0145599
619.129	0.0145442
619.207	0.0147029
619.285	0.0144770
619.363	0.0146645
619.442	0.0146606
619.520	0.0146751
619.598	0.0146685
619.676	0.0147161
619.754	0.0146960
619.832	0.0146436
619.910	0.0146272
619.988	0.0144756
620.067	0.0145356
620.145	0.0144906
620.223	0.0145215
620.301	0.0144875
620.379	0.0145549
620.457	0.0145705
620.535	0.0142796
620.613	0.0143829
620.692	0.0143731
620.770	0.0144216
620.848	0.0144057
620.926	0.0144530
621.004	0.0144504
621.082	0.0144302
621.160	0.0145126
621.238	0.0145732
621.317	0.0145863
621.395	0.0145605
621.473	0.0146007
621.551	0.0146903
621.629	0.0146670
621.707	0.0146158
621.785	0.0146308
621.863	0.0145834
621.942	0.0145059
622.020	0.0144782
622.098	0.0144969
622.176	0.0144580
622.254	0.0143829
622.332	0.0146401
622.410	0.0145164
622.488	0.0145156
622.567	0.0146542
622.645	0.0145362
622.723	0.0144570
622.801	0.0143488
622.879	0.0145433
622.957	0.0144678
623.035	0.0143394
623.113	0.0144433
623.192	0.0143671
623.270	0.0144347
623.348	0.0142892
623.426	0.0143320
623.504	0.0144154
623.582	0.0142780
623.660	0.0142722
623.738	0.0143948
623.817	0.0144200
623.895	0.0144250
623.973	0.0143834
624.051	0.0144477
624.129	0.0144814
624.207	0.0146197
624.285	0.0145393
624.363	0.0145997
624.442	0.0147292
624.520	0.0147151
624.598	0.0146043
624.676	0.0147171
624.754	0.0146481
624.832	0.0146347
624.910	0.0147481
624.988	0.0146028
625.067	0.0146760
625.145	0.0145724
625.223	0.0144861
625.301	0.0144569
625.379	0.0145500
625.457	0.0144717
625.535	0.0143532
625.613	0.0143307
625.692	0.0143474
625.770	0.0143288
625.848	0.0141420
625.926	0.0142642
626.004	0.0141143
626.082	0.0141362
626.160	0.0141186
626.238	0.0139153
626.317	0.0138956
626.395	0.0140618
626.473	0.0140697
626.551	0.0139026
626.629	0.0139172
626.707	0.0141260
626.785	0.0141279
626.863	0.0140360
626.942	0.0140331
627.020	0.0140794
627.098	0.0140342
627.176	0.0141698
627.254	0.0142359
627.332	0.0141687
627.410	0.0141883
627.488	0.0141686
627.567	0.0140556
627.645	0.0141331
627.723	0.0139423
627.801	0.0142846
627.879	0.0142580
627.957	0.0141534
628.035	0.0139815
628.113	0.0141560
628.192	0.0139902
628.270	0.0140350
628.348	0.0141728
628.426	0.0140607
628.504	0.0140955
628.582	0.0141407
628.660	0.0139814
628.738	0.0141075
628.817	0.0140976
628.895	0.0141113
628.973	0.0140839
629.051	0.0140498
629.129	0.0141501
629.207	0.0142361
629.285	0.0142230
629.363	0.0142780
629.442	0.0143120
629.520	0.0143092
629.598	0.0144916
629.676	0.0144216
629.754	0.0144418
629.832	0.0146491
629.910	0.0146260
629.988	0.0146336
630.067	0.0145772
630.145	0.0146001
630.223	0.0146317
630.301	0.0147001
630.379	0.0145775
630.457	0.0143988
630.535	0.0144512
630.613	0.0144240
630.692	0.0143757
630.770	0.0144310
630.848	0.0142686
630.926	0.0144103
631.004	0.0142927
631.082	0.0141850
631.160	0.0141010
631.238	0.0142509
631.317	0.0142088
631.395	0.0141601
631.473	0.0141350
631.551	0.0141597
631.629	0.0141650
631.707	0.0143327
631.785	0.0142064
631.863	0.0142577
631.942	0.0143282
632.020	0.0144623
632.098	0.0143797
632.176	0.0143440
632.254	0.0142762
632.332	0.0143774
632.410	0.0144534
632.488	0.0144257
632.567	0.0144791
632.645	0.0143886
632.723	0.0142673
632.801	0.0143864
632.879	0.0145083
632.957	0.0145028
633.035	0.0143310
633.113	0.0143799
633.192	0.0145795
633.270	0.0145148
633.348	0.0144516
633.426	0.0143133
633.504	0.0143999
633.582	0.0143566
633.660	0.0142918
633.738	0.0144613
633.817	0.0143433
633.895	0.0143365
633.973	0.0144509
634.051	0.0144998
634.129	0.0144755
634.207	0.0144171
634.285	0.0145248
634.363	0.0146325
634.442	0.0144975
634.520	0.0143347
634.598	0.0144647
634.676	0.0145667
634.754	0.0145801
634.832	0.0145435
634.910	0.0146107
634.988	0.0145610
635.067	0.0145423
635.145	0.0146001
635.223	0.0145612
635.301	0.0145333
635.379	0.0144991
635.457	0.0143738
635.535	0.0143464
635.613	0.0144109
635.692	0.0143394
635.770	0.0142048
635.848	0.0143642
635.926	0.0144272
636.004	0.0145215
636.082	0.0143904
636.160	0.0143696
636.238	0.0142963
636.317	0.0143289
636.395	0.0143367
636.473	0.0143590
636.551	0.0143127
636.629	0.0143255
636.707	0.0143000
636.785	0.0141396
636.863	0.0144176
636.942	0.0143191
637.020	0.0142829
637.098	0.0142165
637.176	0.0143241
637.254	0.0143638
637.332	0.0143428
637.410	0.0143636
637.488	0.0142450
637.567	0.0142409
637.645	0.0142725
637.723	0.0143746
637.801	0.0143465
637.879	0.0144675
637.957	0.0142779
638.035	0.0143873
638.113	0.0144611
638.192	0.0144660
638.270	0.0145144
638.348	0.0146572
638.426	0.0146817
638.504	0.0147910
638.582	0.0144913
638.660	0.0144474
638.738	0.0145885
638.817	0.0145687
638.895	0.0145257
638.973	0.0145713
639.051	0.0145529
639.129	0.0146853
639.207	0.0146083
639.285	0.0145793
639.363	0.0145186
639.442	0.0146167
639.520	0.0145857
639.598	0.0144785
639.676	0.0145219
639.754	0.0143719
639.832	0.0143121
639.910	0.0143820
639.988	0.0143694
640.067	0.0143730
640.145	0.0143644
640.223	0.0142557
640.301	0.0144006
640.379	0.0142155
640.457	0.0144028
640.535	0.0142851
640.613	0.0143277
640.692	0.0143788
640.770	0.0143539
640.848	0.0142892
640.926	0.0143437
641.004	0.0142777
641.082	0.0144139
641.160	0.0143040
641.238	0.0143970
641.317	0.0143446
641.395	0.0143525
641.473	0.0143989
641.551	0.0144448
641.629	0.0143751
641.707	0.0143919
641.785	0.0144034
641.863	0.0146752
641.942	0.0144290
642.020	0.0144619
642.098	0.0145289
642.176	0.0146714
642.254	0.0145702
642.332	0.0146127
642.410	0.0147488
642.488	0.0147048
642.567	0.0148185
642.645	0.0146522
642.723	0.0146329
642.801	0.0147376
642.879	0.0147790
642.957	0.0146870
643.035	0.0145597
643.113	0.0144132
643.192	0.0145320
643.270	0.0145928
643.348	0.0143348
643.426	0.0144017
643.504	0.0143352
643.582	0.0144586
643.660	0.0142327
643.738	0.0143376
643.817	0.0142432
643.895	0.0141895
643.973	0.0142691
644.051	0.0141894
644.129	0.0141858
644.207	0.0143668
644.285	0.0143655
644.363	0.0141360
644.442	0.0142599
644.520	0.0143883
644.598	0.0144643
644.676	0.0144871
644.754	0.0144167
644.832	0.0144870
644.910	0.0145335
644.988	0.0144982
645.067	0.0144501
645.145	0.0143869
645.223	0.0144732
645.301	0.0145098
645.379	0.0144634
645.457	0.0145065
645.535	0.0145224
645.613	0.0144074
645.692	0.0145818
645.770	0.0145266
645.848	0.0144385
645.926	0.0143571
646.004	0.0145084
646.082	0.0144656
646.160	0.0142301
646.238	0.0143212
646.317	0.0143169
646.395	0.0142447
646.473	0.0143771
646.551	0.0142795
646.629	0.0144231
646.707	0.0142712
646.785	0.0143621
646.863	0.0143331
646.942	0.0143773
647.020	0.0143380
647.098	0.0145609
647.176	0.0145998
647.254	0.0144211
647.332	0.0143998
647.410	0.0146189
647.488	0.0146177
647.567	0.0146017
647.645	0.0145335
647.723	0.0146455
647.801	0.0146107
647.879	0.0146194
647.957	0.0148589
648.035	0.0147148
648.113	0.0145335
648.192	0.0144700
648.270	0.0145812
648.348	0.0144564
648.426	0.0144674
648.504	0.0144530
648.582	0.0143182
648.660	0.0145041
648.738	0.0143407
648.817	0.0143652
648.895	0.0144486
648.973	0.0143058
649.051	0.0141593
649.129	0.0143314
649.207	0.0143127
649.285	0.0141201
649.363	0.0140913
649.442	0.0141711
649.520	0.0142099
649.598	0.0143285
649.676	0.0142230
649.754	0.0141397
649.832	0.0141304
649.910	0.0141074
649.988	0.0141544
650.067	0.0142482
650.145	0.0143813
650.223	0.0143820
650.301	0.0143896
650.379	0.0145400
650.457	0.0145105
650.535	0.0145041
650.613	0.0146296
650.692	0.0145795
650.770	0.0146239
650.848	0.0144913
650.926	0.0146246
651.004	0.0146748
651.082	0.0145822
651.160	0.0145071
651.238	0.0145996
651.317	0.0145053
651.395	0.0143429
651.473	0.0142636
651.551	0.0141221
651.629	0.0140736
651.707	0.0142565
651.785	0.0142677
651.863	0.0142063
651.942	0.0141509
652.020	0.0140719
652.098	0.0140686
652.176	0.0140038
652.254	0.0141418
652.332	0.0141940
652.410	0.0140762
652.488	0.0141721
652.567	0.0143567
652.645	0.0144015
652.723	0.0143827
652.801	0.0144823
652.879	0.0144946
652.957	0.0144675
653.035	0.0143833
653.113	0.0145560
653.192	0.0144677
653.270	0.0144582
653.348	0.0145498
653.426	0.0143673
653.504	0.0145200
653.582	0.0143942
653.660	0.0143587
653.738	0.0143498
653.817	0.0144737
653.895	0.0143733
653.973	0.0144836
654.051	0.0143233
654.129	0.0145204
654.207	0.0142905
654.285	0.0144499
654.363	0.0144054
654.442	0.0144808
654.520	0.0143689
654.598	0.0143046
654.676	0.0144348
654.754	0.0143649
654.832	0.0143581
654.910	0.0143724
654.988	0.0143253
655.067	0.0143677
655.145	0.0143974
655.223	0.0143391
655.301	0.0144726
655.379	0.0144066
655.457	0.0145728
655.535	0.0143976
655.613	0.0142450
655.692	0.0143336
655.770	0.0144785
655.848	0.0142878
655.926	0.0143210
656.004	0.0141963
656.082	0.0142847
656.160	0.0142502
656.238	0.0144074
656.317	0.0143188
656.395	0.0142112
656.473	0.0141223
656.551	0.0142896
656.629	0.0144153
656.707	0.0142977
656.785	0.0143954
656.863	0.0143124
656.942	0.0143504
657.020	0.0142094
657.098	0.0143908
657.176	0.0144473
657.254	0.0144027
657.332	0.0144801
657.410	0.0146013
657.488	0.0143626
657.567	0.0144605
657.645	0.0145644
657.723	0.0144283
657.801	0.0146272
657.879	0.0147183
657.957	0.0145299
658.035	0.0145719
658.113	0.0143382
658.192	0.0144476
658.270	0.0145133
658.348	0.0144411
658.426	0.0143796
658.504	0.0145301
658.582	0.0144270
658.660	0.0144347
658.738	0.0144592
658.817	0.0144573
658.895	0.0144118
658.973	0.0144397
659.051	0.0143416
659.129	0.0142116
659.207	0.0143549
659.285	0.0143820
659.363	0.0144521
659.442	0.0143759
659.520	0.0144018
659.598	0.0145322
659.676	0.0145306
659.754	0.0143874
659.832	0.0143748
659.910	0.0144440
659.988	0.0143400
660.067	0.0143702
660.145	0.0143678
660.223	0.0143874
660.301	0.0143019
660.379	0.0144970
660.457	0.0142776
660.535	0.0144135
660.613	0.0143314
660.692	0.0144129
660.770	0.0145416
660.848	0.0144430
660.926	0.0143864
661.004	0.0142363
661.082	0.0143073
661.160	0.0144077
661.238	0.0143324
661.317	0.0143654
661.395	0.0144546
661.473	0.0143613
661.551	0.0143775
661.629	0.0142744
661.707	0.0141949
661.785	0.0143403
661.863	0.0143330
661.942	0.0144527
662.020	0.0142722
662.098	0.0143159
662.176	0.0144054
662.254	0.0143362
662.332	0.0143420
662.410	0.0143750
662.488	0.0144145
662.567	0.0142561
662.645	0.0142828
662.723	0.0144175
662.801	0.0142992
662.879	0.0144736
662.957	0.0144051
663.035	0.0145286
663.113	0.0144344
663.192	0.0145054
663.270	0.0145705
663.348	0.0144999
663.426	0.0144592
663.504	0.0143757
663.582	0.0144349
663.660	0.0143017
663.738	0.0142994
663.817	0.0143092
663.895	0.0141936
663.973	0.0142236
664.051	0.0141833
664.129	0.0141269
664.207	0.0141487
664.285	0.0141033
664.363	0.0140391
664.442	0.0140649
664.520	0.0140804
664.598	0.0141790
664.676	0.0143365
664.754	0.0143687
664.832	0.0141914
664.910	0.0143062
664.988	0.0141821
665.067	0.0144326
665.145	0.0145197
665.223	0.0145754
665.301	0.0143188
665.379	0.0143861
665.457	0.0145023
665.535	0.0145770
665.613	0.0145115
665.692	0.0144544
665.770	0.0143195
665.848	0.0143332
665.926	0.0143478
666.004	0.0144215
666.082	0.0143781
666.160	0.0143015
666.238	0.0143681
666.317	0.0144576
666.395	0.0144390
666.473	0.0143057
666.551	0.0143886
666.629	0.0143918
666.707	0.0143669
666.785	0.0143765
666.863	0.0142529
666.942	0.0143246
667.020	0.0143507
667.098	0.0144413
667.176	0.0143942
667.254	0.0143241
667.332	0.0142189
667.410	0.0141742
667.488	0.0141847
667.567	0.0143069
667.645	0.0143848
667.723	0.0141707
667.801	0.0141244
667.879	0.0142024
667.957	0.0143023
668.035	0.0141201
668.113	0.0142018
668.192	0.0143764
668.270	0.0142901
668.348	0.0142562
668.426	0.0143042
668.504	0.0143015
668.582	0.0142399
668.660	0.0143625
668.738	0.0143578
668.817	0.0144909
668.895	0.0143418
668.973	0.0141965
669.051	0.0142203
669.129	0.0141828
669.207	0.0140982
669.285	0.0141214
669.363	0.0141269
669.442	0.0140740
669.520	0.0139338
669.598	0.0141071
669.676	0.0141488
669.754	0.0141159
669.832	0.0141217
669.910	0.0140805
669.988	0.0141362
670.067	0.0141428
670.145	0.0140015
670.223	0.0140350
670.301	0.0142778
670.379	0.0141396
670.457	0.0141495
670.535	0.0141677
670.613	0.0141794
670.692	0.0143404
670.770	0.0142902
670.848	0.0143720
670.926	0.0143349
671.004	0.0142805
671.082	0.0144440
671.160	0.0143116
671.238	0.0143560
671.317	0.0144973
671.395	0.0142578
671.473	0.0145065
671.551	0.0144186
671.629	0.0144337
671.707	0.0146585
671.785	0.0145992
671.863	0.0145760
671.942	0.0146358
672.020	0.0145158
672.098	0.0144261
672.176	0.0146391
672.254	0.0145250
672.332	0.0145142
672.410	0.0145018
672.488	0.0145963
672.567	0.0144635
672.645	0.0143708
672.723	0.0143031
672.801	0.0143890
672.879	0.0144164
672.957	0.0144324
673.035	0.0142467
673.113	0.0143376
673.192	0.0142500
673.270	0.0143839
673.348	0.0143060
673.426	0.0143456
673.504	0.0144948
673.582	0.0143312
673.660	0.0143656
673.738	0.0145181
673.817	0.0143794
673.895	0.0143317
673.973	0.0145387
674.051	0.0146548
674.129	0.0145155
674.207	0.0146630
674.285	0.0145601
674.363	0.0145054
674.442	0.0145641
674.520	0.0144569
674.598	0.0144504
674.676	0.0144947
674.754	0.0142563
674.832	0.0141695
674.910	0.0143179
674.988	0.0142293
675.067	0.0142786
675.145	0.0142783
675.223	0.0143153
675.301	0.0141328
675.379	0.0141735
675.457	0.0141576
675.535	0.0142223
675.613	0.0142400
675.692	0.0143112
675.770	0.0142038
675.848	0.0142414
675.926	0.0142210
676.004	0.0141305
676.082	0.0143192
676.160	0.0142322
676.238	0.0142744
676.317	0.0142419
676.395	0.0142184
676.473	0.0143800
676.551	0.0143684
676.629	0.0143869
676.707	0.0143260
676.785	0.0145126
676.863	0.0144335
676.942	0.0144420
677.020	0.0143938
677.098	0.0145245
677.176	0.0143724
677.254	0.0145094
677.332	0.0145407
677.410	0.0145810
677.488	0.0146439
677.567	0.0147169
677.645	0.0145613
677.723	0.0144647
677.801	0.0144791
677.879	0.0147080
677.957	0.0145573
678.035	0.0145580
678.113	0.0145529
678.192	0.0143708
678.270	0.0146989
678.348	0.0145766
678.426	0.0144582
678.504	0.0145019
678.582	0.0142534
678.660	0.0143035
678.738	0.0143834
678.817	0.0142838
678.895	0.0143645
678.973	0.0143877
679.051	0.0142908
679.129	0.0144104
679.207	0.0142799
679.285	0.0144183
679.363	0.0143369
679.442	0.0143071
679.520	0.0143455
679.598	0.0143401
679.676	0.0142271
679.754	0.0142316
679.832	0.0142012
679.910	0.0141784
679.988	0.0143188
680.067	0.0142386
680.145	0.0140376
680.223	0.0140625
680.301	0.0141518
680.379	0.0140715
680.457	0.0140646
680.535	0.0140314
680.613	0.0141549
680.692	0.0141514
680.770	0.0141573
680.848	0.0141367
680.926	0.0141508
681.004	0.0142219
681.082	0.0142674
681.160	0.0141911
681.238	0.0141145
681.317	0.0143701
681.395	0.0143217
681.473	0.0143731
681.551	0.0142159
681.629	0.0143472
681.707	0.0144986
681.785	0.0144672
681.863	0.0145463
681.942	0.0146703
682.020	0.0145258
682.098	0.0145052
682.176	0.0145617
682.254	0.0144567
682.332	0.0144150
682.410	0.0146339
682.488	0.0145014
682.567	0.0144141
682.645	0.0143184
682.723	0.0144657
682.801	0.0144167
682.879	0.0144434
682.957	0.0144719
683.035	0.0145919
683.113	0.0143136
683.192	0.0142811
683.270	0.0142498
683.348	0.0142963
683.426	0.0142696
683.504	0.0143991
683.582	0.0143281
683.660	0.0142834
683.738	0.0142254
683.817	0.0143095
683.895	0.0142241
683.973	0.0140585
684.051	0.0139508
684.129	0.0141748
684.207	0.0141647
684.285	0.0140603
684.363	0.0141457
684.442	0.0140603
684.520	0.0140715
684.598	0.0141051
684.676	0.0139922
684.754	0.0140302
684.832	0.0141721
684.910	0.0141637
684.988	0.0139751
685.067	0.0140961
685.145	0.0141419
685.223	0.0141329
685.301	0.0142693
685.379	0.0144659
685.457	0.0144504
685.535	0.0143969
685.613	0.0144628
685.692	0.0145405
685.770	0.0145681
685.848	0.0145914
685.926	0.0145614
686.004	0.0146172
686.082	0.0146083
686.160	0.0144143
686.238	0.0145611
686.317	0.0144790
686.395	0.0143291
686.473	0.0143571
686.551	0.0144310
686.629	0.0143523
686.707	0.0143575
686.785	0.0142699
686.863	0.0143211
686.942	0.0142523
687.020	0.0141953
687.098	0.0142493
687.176	0.0141575
687.254	0.0142899
687.332	0.0142339
687.410	0.0143134
687.488	0.0142467
687.567	0.0143836
687.645	0.0144639
687.723	0.0145951
687.801	0.0146214
687.879	0.0145169
687.957	0.0145692
688.035	0.0146660
688.113	0.0145740
688.192	0.0145949
688.270	0.0146956
688.348	0.0145963
688.426	0.0146440
688.504	0.0145572
688.582	0.0146060
688.660	0.0146699
688.738	0.0145572
688.817	0.0146436
688.895	0.0144757
688.973	0.0145406
689.051	0.0144965
689.129	0.0144730
689.207	0.0144479
689.285	0.0144582
689.363	0.0144921
689.442	0.0145138
689.520	0.0144582
689.598	0.0145547
689.676	0.0142972
689.754	0.0143676
689.832	0.0143461
689.910	0.0143604
689.988	0.0143046
690.067	0.0140803
690.145	0.0143060
690.223	0.0140917
690.301	0.0141400
690.379	0.0142210
690.457	0.0142903
690.535	0.0143325
690.613	0.0143097
690.692	0.0144214
690.770	0.0143477
690.848	0.0144901
690.926	0.0144083
691.004	0.0145002
691.082	0.0143733
691.160	0.0143608
691.238	0.0143617
691.317	0.0145270
691.395	0.0143879
691.473	0.0143665
691.551	0.0143137
691.629	0.0143023
691.707	0.0144357
691.785	0.0142954
691.863	0.0142950
691.942	0.0142929
692.020	0.0144363
692.098	0.0141779
692.176	0.0141106
692.254	0.0141789
692.332	0.0141094
692.410	0.0141029
692.488	0.0142302
692.567	0.0139993
692.645	0.0140244
692.723	0.0140294
692.801	0.0139542
692.879	0.0140826
692.957	0.0140296
693.035	0.0140209
693.113	0.0141317
693.192	0.0140371
693.270	0.0140318
693.348	0.0141066
693.426	0.0140778
693.504	0.0141252
693.582	0.0142047
693.660	0.0141434
693.738	0.0141199
693.817	0.0141542
693.895	0.0142629
693.973	0.0144118
694.051	0.0144046
694.129	0.0144913
694.207	0.0144261
694.285	0.0144975
694.363	0.0143872
694.442	0.0144178
694.520	0.0145197
694.598	0.0146207
694.676	0.0145608
694.754	0.0144965
694.832	0.0144495
694.910	0.0145255
694.988	0.0144846
695.067	0.0145042
695.145	0.0142618
695.223	0.0145856
695.301	0.0145007
695.379	0.0144762
695.457	0.0146539
695.535	0.0144871
695.613	0.0143977
695.692	0.0143131
695.770	0.0144363
695.848	0.0143298
695.926	0.0142496
696.004	0.0141380
696.082	0.0143096
696.160	0.0140956
696.238	0.0140759
696.317	0.0141849
696.395	0.0140931
696.473	0.0140471
696.551	0.0138578
696.629	0.0140160
696.707	0.0141091
696.785	0.0139937
696.863	0.0139359
696.942	0.0138725
697.020	0.0139555
697.098	0.0139921
697.176	0.0139948
697.254	0.0139434
697.332	0.0141434
697.410	0.0140411
697.488	0.0141167
697.567	0.0142432
697.645	0.0142820
697.723	0.0143027
697.801	0.0143342
697.879	0.0142561
697.957	0.0143326
698.035	0.0143577
698.113	0.0145593
698.192	0.0147135
698.270	0.0146980
698.348	0.0145929
698.426	0.0147039
698.504	0.0146257
698.582	0.0147613
698.660	0.0148069
698.738	0.0148695
698.817	0.0148306
698.895	0.0148008
698.973	0.0147594
699.051	0.0147745
699.129	0.0148163
699.207	0.0147671
699.285	0.0147878
699.363	0.0147053
699.442	0.0146876
699.520	0.0146181
699.598	0.0145683
699.676	0.0145640
699.754	0.0144762
699.832	0.0144665
699.910	0.0144123
699.988	0.0144265
700.067	0.0143466
700.145	0.0143143
700.223	0.0143388
700.301	0.0143783
700.379	0.0142933
700.457	0.0142892
700.535	0.0140865
700.613	0.0141700
700.692	0.0142701
700.770	0.0141411
700.848	0.0140988
700.926	0.0141481
701.004	0.0141219
701.082	0.0141766
701.160	0.0141353
701.238	0.0140137
701.317	0.0138930
701.395	0.0141142
701.473	0.0139204
701.551	0.0139550
701.629	0.0140005
701.707	0.0139140
701.785	0.0139027
701.863	0.0139662
701.942	0.0140166
702.020	0.0141544
702.098	0.0141544
702.176	0.0141400
702.254	0.0144514
702.332	0.0143684
702.410	0.0140752
702.488	0.0142616
702.567	0.0142836
702.645	0.0144583
702.723	0.0144913
702.801	0.0146926
702.879	0.0145359
702.957	0.0146793
703.035	0.0144919
703.113	0.0144764
703.192	0.0147572
703.270	0.0147964
703.348	0.0147038
703.426	0.0147380
703.504	0.0149049
703.582	0.0148423
703.660	0.0147485
703.738	0.0147433
703.817	0.0147995
703.895	0.0148534
703.973	0.0147437
704.051	0.0146954
704.129	0.0146554
704.207	0.0145508
704.285	0.0146163
704.363	0.0145046
704.442	0.0144649
704.520	0.0145703
704.598	0.0145398
704.676	0.0145677
704.754	0.0144262
704.832	0.0144139
704.910	0.0143681
704.988	0.0142896
705.067	0.0143266
705.145	0.0142764
705.223	0.0142779
705.301	0.0142570
705.379	0.0142130
705.457	0.0143040
705.535	0.0142628
705.613	0.0141685
705.692	0.0141957
705.770	0.0143187
705.848	0.0141424
705.926	0.0143103
706.004	0.0142773
706.082	0.0142593
706.160	0.0143150
706.238	0.0141985
706.317	0.0142669
706.395	0.0142879
706.473	0.0142395
706.551	0.0142188
706.629	0.0142023
706.707	0.0141229
706.785	0.0143571
706.863	0.0142296
706.942	0.0143155
707.020	0.0142876
707.098	0.0142467
707.176	0.0142537
707.254	0.0143173
707.332	0.0143299
707.410	0.0142562
707.488	0.0143872
707.567	0.0143007
707.645	0.0142332
707.723	0.0144196
707.801	0.0143821
707.879	0.0144131
707.957	0.0144026
708.035	0.0144419
708.113	0.0144506
708.192	0.0144463
708.270	0.0144083
708.348	0.0144728
708.426	0.0145523
708.504	0.0145119
708.582	0.0145684
708.660	0.0145448
708.738	0.0144837
708.817	0.0145309
708.895	0.0143918
708.973	0.0144292
709.051	0.0143802
709.129	0.0143898
709.207	0.0143555
709.285	0.0144193
709.363	0.0143634
709.442	0.0144772
709.520	0.0143550
709.598	0.0143340
709.676	0.0144250
709.754	0.0142770
709.832	0.0144238
709.910	0.0142303
709.988	0.0143195
710.067	0.0144806
710.145	0.0142733
710.223	0.0143085
710.301	0.0144176
710.379	0.0143903
710.457	0.0143222
710.535	0.0143425
710.613	0.0142787
710.692	0.0143642
710.770	0.0141141
710.848	0.0142735
710.926	0.0143060
711.004	0.0143452
711.082	0.0141927
711.160	0.0143238
711.238	0.0142015
711.317	0.0142349
711.395	0.0143301
711.473	0.0143393
711.551	0.0140636
711.629	0.0142001
711.707	0.0143349
711.785	0.0142792
711.863	0.0141868
711.942	0.0143006
712.020	0.0143340
712.098	0.0142397
712.176	0.0143727
712.254	0.0143812
712.332	0.0144347
712.410	0.0144196
712.488	0.0144331
712.567	0.0143776
712.645	0.0143989
712.723	0.0144820
712.801	0.0142548
712.879	0.0144337
712.957	0.0145148
713.035	0.0145240
713.113	0.0144057
713.192	0.0143701
713.270	0.0144757
713.348	0.0144871
713.426	0.0145479
713.504	0.0143896
713.582	0.0144246
713.660	0.0144569
713.738	0.0144455
713.817	0.0145219
713.895	0.0145303
713.973	0.0146889
714.051	0.0146020
714.129	0.0144331
714.207	0.0145738
714.285	0.0144449
714.363	0.0145545
714.442	0.0145041
714.520	0.0145205
714.598	0.0147010
714.676	0.0145683
714.754	0.0146954
714.832	0.0146026
714.910	0.0145749
714.988	0.0145823
715.067	0.0146761
715.145	0.0147441
715.223	0.0146803
715.301	0.0146143
715.379	0.0146529
715.457	0.0146352
715.535	0.0146757
715.613	0.0146679
715.692	0.0147216
715.770	0.0145895
715.848	0.0146385
715.926	0.0145279
716.004	0.0145155
716.082	0.0145950
716.160	0.0145349
716.238	0.0146169
716.317	0.0146118
716.395	0.0144434
716.473	0.0144749
716.551	0.0145313
716.629	0.0146017
716.707	0.0145687
716.785	0.0144893
716.863	0.0143630
716.942	0.0145378
717.020	0.0145274
717.098	0.0144726
717.176	0.0145572
717.254	0.0145667
717.332	0.0144975
717.410	0.0144793
717.488	0.0145426
717.567	0.0145162
717.645	0.0144837
717.723	0.0144847
717.801	0.0144843
717.879	0.0146808
717.957	0.0145679
718.035	0.0144652
718.113	0.0145045
718.192	0.0145656
718.270	0.0145306
718.348	0.0145255
718.426	0.0145776
718.504	0.0144606
718.582	0.0144608
718.660	0.0142723
718.738	0.0144540
718.817	0.0143109
718.895	0.0143431
718.973	0.0143276
719.051	0.0142110
719.129	0.0141853
719.207	0.0142628
719.285	0.0141287
719.363	0.0140565
719.442	0.0142693
719.520	0.0142494
719.598	0.0142514
719.676	0.0143559
719.754	0.0142707
719.832	0.0143622
719.910	0.0142313
719.988	0.0143643
720.067	0.0142922
720.145	0.0143214
720.223	0.0144180
720.301	0.0144675
720.379	0.0144821
720.457	0.0143869
720.535	0.0144690
720.613	0.0143927
720.692	0.0143695
720.770	0.0144921
720.848	0.0145671
720.926	0.0145185
721.004	0.0144405
721.082	0.0143141
721.160	0.0144158
721.238	0.0145107
721.317	0.0145610
721.395	0.0146169
721.473	0.0145036
721.551	0.0143635
721.629	0.0144129
721.707	0.0144659
721.785	0.0145132
721.863	0.0145447
721.942	0.0145976
722.020	0.0144513
722.098	0.0145180
722.176	0.0145966
722.254	0.0144511
722.332	0.0145260
722.410	0.0144253
722.488	0.0147065
722.567	0.0145274
722.645	0.0143894
722.723	0.0143981
722.801	0.0145376
722.879	0.0145165
722.957	0.0145645
723.035	0.0145779
723.113	0.0144370
723.192	0.0143633
723.270	0.0143713
723.348	0.0144662
723.426	0.0144310
723.504	0.0144550
723.582	0.0144016
723.660	0.0145325
723.738	0.0144466
723.817	0.0144836
723.895	0.0143042
723.973	0.0145815
724.051	0.0145460
724.129	0.0144272
724.207	0.0142811
724.285	0.0142174
724.363	0.0143029
724.442	0.0142968
724.520	0.0143587
724.598	0.0144344
724.676	0.0143655
724.754	0.0143680
724.832	0.0143954
724.910	0.0143010
724.988	0.0143015
725.067	0.0143407
725.145	0.0143175
725.223	0.0143783
725.301	0.0143687
725.379	0.0143236
725.457	0.0143527
725.535	0.0144011
725.613	0.0145260
725.692	0.0144559
725.770	0.0145135
725.848	0.0144922
725.926	0.0144777
726.004	0.0146912
726.082	0.0145517
726.160	0.0145914
726.238	0.0147110
726.317	0.0146258
726.395	0.0145399
726.473	0.0144886
726.551	0.0144909
726.629	0.0144808
726.707	0.0145187
726.785	0.0145030
726.863	0.0144547
726.942	0.0146901
727.020	0.0145720
727.098	0.0146089
727.176	0.0146365
727.254	0.0145759
727.332	0.0146077
727.410	0.0144465
727.488	0.0145132
727.567	0.0145519
727.645	0.0144710
727.723	0.0145191
727.801	0.0145484
727.879	0.0145811
727.957	0.0146258
728.035	0.0146402
728.113	0.0143335
728.192	0.0148038
728.270	0.0145408
728.348	0.0144434
728.426	0.0143112
728.504	0.0146149
728.582	0.0145763
728.660	0.0144450
728.738	0.0144880
728.817	0.0144369
728.895	0.0144689
728.973	0.0144857
729.051	0.0145071
729.129	0.0145377
729.207	0.0145308
729.285	0.0143393
729.363	0.0143192
729.442	0.0144003
729.520	0.0143185
729.598	0.0143333
729.676	0.0143862
729.754	0.0143481
729.832	0.0143093
729.910	0.0142727
729.988	0.0143142
730.067	0.0143253
730.145	0.0142416
730.223	0.0142939
730.301	0.0141612
730.379	0.0143433
730.457	0.0142011
730.535	0.0141848
730.613	0.0141347
730.692	0.0141808
730.770	0.0141704
730.848	0.0142801
730.926	0.0142851
731.004	0.0142293
731.082	0.0140912
731.160	0.0141502
731.238	0.0141697
731.317	0.0141991
731.395	0.0142786
731.473	0.0141653
731.551	0.0142146
731.629	0.0142374
731.707	0.0142078
731.785	0.0142112
731.863	0.0142465
731.942	0.0139419
732.020	0.0141178
732.098	0.0142111
732.176	0.0141594
732.254	0.0141047
732.332	0.0141400
732.410	0.0141891
732.488	0.0142960
732.567	0.0141496
732.645	0.0141872
732.723	0.0142217
732.801	0.0142076
732.879	0.0142422
732.957	0.0143204
733.035	0.0141126
733.113	0.0143281
733.192	0.0143764
733.270	0.0143674
733.348	0.0142722
733.426	0.0142007
733.504	0.0143477
733.582	0.0144104
733.660	0.0144071
733.738	0.0143364
733.817	0.0141579
733.895	0.0142865
733.973	0.0143649
734.051	0.0143567
734.129	0.0143444
734.207	0.0142463
734.285	0.0143388
734.363	0.0143796
734.442	0.0143642
734.520	0.0143493
734.598	0.0143324
734.676	0.0143189
734.754	0.0143819
734.832	0.0144048
734.910	0.0144244
734.988	0.0145212
735.067	0.0144160
735.145	0.0143703
735.223	0.0144378
735.301	0.0143247
735.379	0.0145308
735.457	0.0144350
735.535	0.0144724
735.613	0.0145535
735.692	0.0145099
735.770	0.0144175
735.848	0.0145955
735.926	0.0144892
736.004	0.0144022
736.082	0.0144342
736.160	0.0144469
736.238	0.0143810
736.317	0.0144380
736.395	0.0144140
736.473	0.0145319
736.551	0.0144765
736.629	0.0143065
736.707	0.0144050
736.785	0.0144544
736.863	0.0143718
736.942	0.0143603
737.020	0.0144037
737.098	0.0144560
737.176	0.0141577
737.254	0.0143767
737.332	0.0145119
737.410	0.0144704
737.488	0.0145790
737.567	0.0145190
737.645	0.0143157
737.723	0.0143944
737.801	0.0143170
737.879	0.0143901
737.957	0.0144281
738.035	0.0144450
738.113	0.0143612
738.192	0.0143549
738.270	0.0143729
738.348	0.0145296
738.426	0.0143271
738.504	0.0144988
738.582	0.0145328
738.660	0.0144687
738.738	0.0143756
738.817	0.0145687
738.895	0.0145549
738.973	0.0144578
739.051	0.0144189
739.129	0.0144677
739.207	0.0143880
739.285	0.0144999
739.363	0.0144412
739.442	0.0142731
739.520	0.0144050
739.598	0.0144077
739.676	0.0142495
739.754	0.0143287
739.832	0.0143172
739.910	0.0141861
739.988	0.0143107
740.067	0.0142807
740.145	0.0143091
740.223	0.0142717
740.301	0.0141882
740.379	0.0140764
740.457	0.0142268
740.535	0.0140879
740.613	0.0143125
740.692	0.0142330
740.770	0.0140916
740.848	0.0143464
740.926	0.0143250
741.004	0.0142902
741.082	0.0142944
741.160	0.0143710
741.238	0.0142315
741.317	0.0142171
741.395	0.0144406
741.473	0.0143549
741.551	0.0144247
741.629	0.0142921
741.707	0.0143833
741.785	0.0143713
741.863	0.0142991
741.942	0.0143261
742.020	0.0142271
742.098	0.0142894
742.176	0.0143436
742.254	0.0143824
742.332	0.0142793
742.410	0.0143781
742.488	0.0142162
742.567	0.0142728
742.645	0.0142822
742.723	0.0143510
742.801	0.0142725
742.879	0.0141089
742.957	0.0144227
743.035	0.0144016
743.113	0.0143684
743.192	0.0143901
743.270	0.0143495
743.348	0.0143158
743.426	0.0142428
743.504	0.0144216
743.582	0.0142966
743.660	0.0142728
743.738	0.0144466
743.817	0.0143745
743.895	0.0144267
743.973	0.0143546
744.051	0.0145077
744.129	0.0144478
744.207	0.0144566
744.285	0.0144121
744.363	0.0143629
744.442	0.0144076
744.520	0.0143762
744.598	0.0143874
744.676	0.0144424
744.754	0.0144395
744.832	0.0143437
744.910	0.0144358
744.988	0.0143893
745.067	0.0143626
745.145	0.0143908
745.223	0.0144979
745.301	0.0144471
745.379	0.0142950
745.457	0.0144538
745.535	0.0144678
745.613	0.0143324
745.692	0.0145207
745.770	0.0143156
745.848	0.0145397
745.926	0.0146282
746.004	0.0143935
746.082	0.0145870
746.160	0.0144404
746.238	0.0145918
746.317	0.0145611
746.395	0.0145757
746.473	0.0145059
746.551	0.0145549
746.629	0.0145467
746.707	0.0145653
746.785	0.0146149
746.863	0.0145305
746.942	0.0145669
747.020	0.0145782
747.098	0.0146364
747.176	0.0144836
747.254	0.0145584
747.332	0.0146333
747.410	0.0145235
747.488	0.0143988
747.567	0.0144972
747.645	0.0144204
747.723	0.0143764
747.801	0.0145463
747.879	0.0143859
747.957	0.0143969
748.035	0.0143735
748.113	0.0143653
748.192	0.0144555
748.270	0.0143479
748.348	0.0143672
748.426	0.0144118
748.504	0.0143642
748.582	0.0143102
748.660	0.0143159
748.738	0.0143345
748.817	0.0143228
748.895	0.0144491
748.973	0.0143765
749.051	0.0142969
749.129	0.0142696
749.207	0.0143253
749.285	0.0142302
749.363	0.0142840
749.442	0.0143275
749.520	0.0142538
749.598	0.0143385
749.676	0.0143138
749.754	0.0142693
749.832	0.0142635
749.910	0.0141484
749.988	0.0143074
750.067	0.0142845
750.145	0.0143414
750.223	0.0141824
750.301	0.0141973
750.379	0.0143555
750.457	0.0141031
750.535	0.0141910
750.613	0.0142554
750.692	0.0142481
750.770	0.0142069
750.848	0.0142954
750.926	0.0142423
751.004	0.0141941
751.082	0.0141779
751.160	0.0142956
751.238	0.0142276
751.317	0.0141856
751.395	0.0142216
751.473	0.0142568
751.551	0.0142061
751.629	0.0142535
751.707	0.0142548
751.785	0.0142148
751.863	0.0143888
751.942	0.0142142
752.020	0.0141673
752.098	0.0143105
752.176	0.0140868
752.254	0.0141140
752.332	0.0142973
752.410	0.0141697
752.488	0.0142489
752.567	0.0141217
752.645	0.0142090
752.723	0.0142747
752.801	0.0141199
752.879	0.0140701
752.957	0.0142645
753.035	0.0142368
753.113	0.0141472
753.192	0.0142307
753.270	0.0141440
753.348	0.0142959
753.426	0.0142571
753.504	0.0141895
753.582	0.0141370
753.660	0.0143753
753.738	0.0144339
753.817	0.0141947
753.895	0.0141189
753.973	0.0142448
754.051	0.0143464
754.129	0.0143880
754.207	0.0142933
754.285	0.0142879
754.363	0.0142645
754.442	0.0142597
754.520	0.0141455
754.598	0.0142336
754.676	0.0142243
754.754	0.0142385
754.832	0.0144633
754.910	0.0142513
754.988	0.0143089
755.067	0.0143128
755.145	0.0142095
755.223	0.0144765
755.301	0.0143306
755.379	0.0145163
755.457	0.0144414
755.535	0.0144929
755.613	0.0142167
755.692	0.0143506
755.770	0.0143814
755.848	0.0145115
755.926	0.0144386
756.004	0.0144388
756.082	0.0146401
756.160	0.0143392
756.238	0.0143483
756.317	0.0144703
756.395	0.0144057
756.473	0.0143461
756.551	0.0144612
756.629	0.0145142
756.707	0.0145621
756.785	0.0145339
756.863	0.0144586
756.942	0.0143469
757.020	0.0143301
757.098	0.0144645
757.176	0.0143948
757.254	0.0145023
757.332	0.0144839
757.410	0.0144422
757.488	0.0145021
757.567	0.0145158
757.645	0.0144350
757.723	0.0144402
757.801	0.0144889
757.879	0.0144937
757.957	0.0145540
758.035	0.0144290
758.113	0.0143125
758.192	0.0143085
758.270	0.0144347
758.348	0.0144446
758.426	0.0142426
758.504	0.0143405
758.582	0.0143486
758.660	0.0143155
758.738	0.0142712
758.817	0.0143124
758.895	0.0141805
758.973	0.0141546
759.051	0.0142823
759.129	0.0142995
759.207	0.0143420
759.285	0.0143944
759.363	0.0141981
759.442	0.0142184
759.520	0.0142170
759.598	0.0143054
759.676	0.0140900
759.754	0.0142241
759.832	0.0142178
759.910	0.0140961
759.988	0.0140639
760.067	0.0141732
760.145	0.0141184
760.223	0.0141259
760.301	0.0141418
760.379	0.0140569
760.457	0.0142507
760.535	0.0140844
760.613	0.0142107
760.692	0.0141329
760.770	0.0141653
760.848	0.0141980
760.926	0.0141857
761.004	0.0140512
761.082	0.0142397
761.160	0.0142179
761.238	0.0140503
761.317	0.0140254
761.395	0.0142654
761.473	0.0141303
761.551	0.0141563
761.629	0.0142396
761.707	0.0141079
761.785	0.0141093
761.863	0.0141942
761.942	0.0141235
762.020	0.0143458
762.098	0.0142547
762.176	0.0142154
762.254	0.0143049
762.332	0.0142174
762.410	0.0142876
762.488	0.0142716
762.567	0.0142893
762.645	0.0144106
762.723	0.0144033
762.801	0.0143803
762.879	0.0143778
762.957	0.0144360
763.035	0.0145311
763.113	0.0144459
763.192	0.0144572
763.270	0.0146152
763.348	0.0145380
763.426	0.0146707
763.504	0.0145000
763.582	0.0144687
763.660	0.0146040
763.738	0.0144815
763.817	0.0143841
763.895	0.0144267
763.973	0.0144553
764.051	0.0145695
764.129	0.0144276
764.207	0.0144595
764.285	0.0145506
764.363	0.0143894
764.442	0.0143539
764.520	0.0143699
764.598	0.0144351
764.676	0.0143369
764.754	0.0144341
764.832	0.0142609
764.910	0.0144424
764.988	0.0143306
765.067	0.0143745
765.145	0.0144837
765.223	0.0142782
765.301	0.0144477
765.379	0.0143208
765.457	0.0144310
765.535	0.0144236
765.613	0.0143793
765.692	0.0144798
765.770	0.0143908
765.848	0.0145741
765.926	0.0143920
766.004	0.0145306
766.082	0.0145226
766.160	0.0145193
766.238	0.0144747
766.317	0.0144905
766.395	0.0144198
766.473	0.0143317
766.551	0.0143031
766.629	0.0145005
766.707	0.0144513
766.785	0.0143872
766.863	0.0144675
766.942	0.0145580
767.020	0.0144283
767.098	0.0144254
767.176	0.0144903
767.254	0.0144103
767.332	0.0143522
767.410	0.0142924
767.488	0.0144103
767.567	0.0143558
767.645	0.0143378
767.723	0.0143856
767.801	0.0144579
767.879	0.0143530
767.957	0.0143391
768.035	0.0143946
768.113	0.0144467
768.192	0.0143102
768.270	0.0143945
768.348	0.0144226
768.426	0.0143604
768.504	0.0144103
768.582	0.0144217
768.660	0.0145438
768.738	0.0145492
768.817	0.0145739
768.895	0.0144690
768.973	0.0144942
769.051	0.0144421
769.129	0.0144244
769.207	0.0145676
769.285	0.0144856
769.363	0.0143098
769.442	0.0144565
769.520	0.0144208
769.598	0.0144911
769.676	0.0143652
769.754	0.0143658
769.832	0.0143085
769.910	0.0142525
769.988	0.0143224
770.067	0.0142548
770.145	0.0143195
770.223	0.0143655
770.301	0.0142908
770.379	0.0142929
770.457	0.0142885
770.535	0.0142680
770.613	0.0142636
770.692	0.0142625
770.770	0.0143511
770.848	0.0144449
770.926	0.0142532
771.004	0.0143024
771.082	0.0143888
771.160	0.0144456
771.238	0.0144503
771.317	0.0145104
771.395	0.0143209
771.473	0.0144646
771.551	0.0145576
771.629	0.0143595
771.707	0.0143746
771.785	0.0145055
771.863	0.0145013
771.942	0.0144064
772.020	0.0143225
772.098	0.0143999
772.176	0.0143771
772.254	0.0141904
772.332	0.0143041
772.410	0.0143617
772.488	0.0144033
772.567	0.0141682
772.645	0.0142992
772.723	0.0142985
772.801	0.0142006
772.879	0.0144302
772.957	0.0144110
773.035	0.0143361
773.113	0.0141460
773.192	0.0140668
773.270	0.0141361
773.348	0.0144594
773.426	0.0142327
773.504	0.0142087
773.582	0.0142876
773.660	0.0142638
773.738	0.0141814
773.817	0.0142563
773.895	0.0141666
773.973	0.0141342
774.051	0.0142039
774.129	0.0142205
774.207	0.0141230
774.285	0.0141981
774.363	0.0141469
774.442	0.0142630
774.520	0.0143655
774.598	0.0142865
774.676	0.0141472
774.754	0.0142149
774.832	0.0141789
774.910	0.0142239
774.988	0.0141521
775.067	0.0141960
775.145	0.0142429
775.223	0.0141791
775.301	0.0140503
775.379	0.0141096
775.457	0.0142873
775.535	0.0140257
775.613	0.0140771
775.692	0.0141812
775.770	0.0142084
775.848	0.0141476
775.926	0.0142313
776.004	0.0141589
776.082	0.0141593
776.160	0.0141975
776.238	0.0142525
776.317	0.0142781
776.395	0.0142872
776.473	0.0143120
776.551	0.0142167
776.629	0.0143304
776.707	0.0143921
776.785	0.0143785
776.863	0.0142959
776.942	0.0143571
777.020	0.0143420
777.098	0.0143562
777.176	0.0143291
777.254	0.0143213
777.332	0.0142774
777.410	0.0142216
777.488	0.0143740
777.567	0.0142457
777.645	0.0144805
777.723	0.0143833
777.801	0.0142822
777.879	0.0144476
777.957	0.0143670
778.035	0.0143610
778.113	0.0143484
778.192	0.0143395
778.270	0.0144000
778.348	0.0143457
778.426	0.0144130
778.504	0.0145067
778.582	0.0143172
778.660	0.0144827
778.738	0.0144303
778.817	0.0143402
778.895	0.0144530
778.973	0.0144865
779.051	0.0145074
779.129	0.0143159
779.207	0.0142680
779.285	0.0143233
779.363	0.0145899
779.442	0.0145435
779.520	0.0142764
779.598	0.0143061
779.676	0.0144955
779.754	0.0144349
779.832	0.0143769
779.910	0.0143404
779.988	0.0145113
780.067	0.0145433
780.145	0.0144957
780.223	0.0143970
780.301	0.0143581
780.379	0.0144551
780.457	0.0146271
780.535	0.0146170
780.613	0.0144964
780.692	0.0145486
780.770	0.0146024
780.848	0.0145326
780.926	0.0145042
781.004	0.0143501
781.082	0.0144430
781.160	0.0144769
781.238	0.0143793
781.317	0.0143642
781.395	0.0144833
781.473	0.0143700
781.551	0.0143626
781.629	0.0143961
781.707	0.0144759
781.785	0.0144747
781.863	0.0143818
781.942	0.0144077
782.020	0.0145686
782.098	0.0145456
782.176	0.0144923
782.254	0.0144380
782.332	0.0144012
782.410	0.0143497
782.488	0.0144630
782.567	0.0147273
782.645	0.0145404
782.723	0.0146181
782.801	0.0145467
782.879	0.0144279
782.957	0.0145375
783.035	0.0145630
783.113	0.0145309
783.192	0.0144579
783.270	0.0144444
783.348	0.0145316
783.426	0.0144923
783.504	0.0144673
783.582	0.0144852
783.660	0.0144321
783.738	0.0144945
783.817	0.0144412
783.895	0.0144777
783.973	0.0143757
784.051	0.0143624
784.129	0.0144303
784.207	0.0144461
784.285	0.0143320
784.363	0.0143337
784.442	0.0144418
784.520	0.0144529
784.598	0.0144951
784.676	0.0145288
784.754	0.0142834
784.832	0.0144644
784.910	0.0144801
784.988	0.0143831
785.067	0.0144589
785.145	0.0144878
785.223	0.0143550
785.301	0.0143227
785.379	0.0145889
785.457	0.0146526
785.535	0.0144888
785.613	0.0144671
785.692	0.0144062
785.770	0.0144652
785.848	0.0145032
785.926	0.0145020
786.004	0.0145046
786.082	0.0143961
786.160	0.0145043
786.238	0.0144444
786.317	0.0144286
786.395	0.0145602
786.473	0.0144161
786.551	0.0145685
786.629	0.0145727
786.707	0.0146190
786.785	0.0144651
786.863	0.0144997
786.942	0.0144772
787.020	0.0145566
787.098	0.0144992
787.176	0.0145435
787.254	0.0145923
787.332	0.0144718
787.410	0.0145691
787.488	0.0145244
787.567	0.0145480
787.645	0.0146174
787.723	0.0146194
787.801	0.0145924
787.879	0.0145387
787.957	0.0145316
788.035	0.0144751
788.113	0.0145968
788.192	0.0146243
788.270	0.0146076
788.348	0.0145644
788.426	0.0145742
788.504	0.0145085
788.582	0.0144849
788.660	0.0144620
788.738	0.0146061
788.817	0.0145036
788.895	0.0144973
788.973	0.0146199
789.051	0.0144902
789.129	0.0144872
789.207	0.0143990
789.285	0.0144126
789.363	0.0145641
789.442	0.0144767
789.520	0.0145392
789.598	0.0145578
789.676	0.0143153
789.754	0.0145072
789.832	0.0144713
789.910	0.0146410
789.988	0.0144450
790.067	0.0144845
790.145	0.0145028
790.223	0.0145703
790.301	0.0145944
790.379	0.0145934
790.457	0.0146518
790.535	0.0144473
790.613	0.0145058
790.692	0.0144624
790.770	0.0145078
790.848	0.0143635
790.926	0.0144667
791.004	0.0145760
791.082	0.0145766
791.160	0.0144537
791.238	0.0144372
791.317	0.0144315
791.395	0.0144341
791.473	0.0144214
791.551	0.0143607
791.629	0.0143261
791.707	0.0144010
791.785	0.0144278
791.863	0.0143991
791.942	0.0144654
792.020	0.0143607
792.098	0.0144765
792.176	0.0142822
792.254	0.0144812
792.332	0.0143774
792.410	0.0143933
792.488	0.0144329
792.567	0.0144358
792.645	0.0145084
792.723	0.0144222
792.801	0.0145074
792.879	0.0144691
792.957	0.0144510
793.035	0.0144019
793.113	0.0143427
793.192	0.0145045
793.270	0.0143143
793.348	0.0144743
793.426	0.0144636
793.504	0.0144200
793.582	0.0144627
793.660	0.0144415
793.738	0.0144099
793.817	0.0144304
793.895	0.0142872
793.973	0.0143691
794.051	0.0143666
794.129	0.0142264
794.207	0.0143568
794.285	0.0143881
794.363	0.0143098
794.442	0.0143831
794.520	0.0141673
794.598	0.0142200
794.676	0.0144264
794.754	0.0143031
794.832	0.0142136
794.910	0.0141762
794.988	0.0142336
795.067	0.0141854
795.145	0.0140825
795.223	0.0141955
795.301	0.0141701
795.379	0.0140926
795.457	0.0141478
795.535	0.0142882
795.613	0.0141068
795.692	0.0141404
795.770	0.0142184
795.848	0.0141312
795.926	0.0139973
796.004	0.0141146
796.082	0.0141113
796.160	0.0140775
796.238	0.0142120
796.317	0.0141231
796.395	0.0141102
796.473	0.0141234
796.551	0.0142436
796.629	0.0142557
796.707	0.0140708
796.785	0.0142814
796.863	0.0141457
796.942	0.0143268
797.020	0.0141613
797.098	0.0142520
797.176	0.0142645
797.254	0.0141608
797.332	0.0142027
797.410	0.0142674
797.488	0.0143005
797.567	0.0143332
797.645	0.0143640
797.723	0.0142263
797.801	0.0142941
797.879	0.0142899
797.957	0.0143319
798.035	0.0143602
798.113	0.0143615
798.192	0.0143772
798.270	0.0143398
798.348	0.0143163
798.426	0.0141769
798.504	0.0144521
798.582	0.0145111
798.660	0.0145216
798.738	0.0144531
798.817	0.0144216
798.895	0.0143126
798.973	0.0144977
799.051	0.0144659
799.129	0.0144975
799.207	0.0145225
799.285	0.0144937
799.363	0.0144942
799.442	0.0144143
799.520	0.0144804
799.598	0.0144047
799.676	0.0144842
799.754	0.0145451
799.832	0.0143779
799.910	0.0144707
799.988	0.0146213
800.067	0.0143825
800.145	0.0143659
800.223	0.0145978
800.301	0.0144452
800.379	0.0144453
800.457	0.0145557
800.535	0.0145056
800.613	0.0145975
800.692	0.0144682
800.770	0.0144932
800.848	0.0144852
800.926	0.0144137
801.004	0.0145269
801.082	0.0144736
801.160	0.0145308
801.238	0.0145027
801.317	0.0143935
801.395	0.0144790
801.473	0.0145668
801.551	0.0144480
801.629	0.0144170
801.707	0.0144262
801.785	0.0144578
801.863	0.0145388
801.942	0.0143804
802.020	0.0143432
802.098	0.0143349
802.176	0.0143983
802.254	0.0144830
802.332	0.0145200
802.410	0.0144418
802.488	0.0145702
802.567	0.0143929
802.645	0.0143388
802.723	0.0143533
802.801	0.0144849
802.879	0.0143243
802.957	0.0144131
803.035	0.0144492
803.113	0.0143452
803.192	0.0141743
803.270	0.0144591
803.348	0.0145647
803.426	0.0143549
803.504	0.0144184
803.582	0.0144657
803.660	0.0144331
803.738	0.0144138
803.817	0.0144063
803.895	0.0143995
803.973	0.0144407
804.051	0.0143555
804.129	0.0143151
804.207	0.0144014
804.285	0.0143460
804.363	0.0142823
804.442	0.0143626
804.520	0.0142991
804.598	0.0143161
804.676	0.0144066
804.754	0.0143382
804.832	0.0143931
804.910	0.0144314
804.988	0.0141907
805.067	0.0142783
805.145	0.0144242
805.223	0.0142849
805.301	0.0144424
805.379	0.0142963
805.457	0.0143169
805.535	0.0142323
805.613	0.0145282
805.692	0.0142300
805.770	0.0141602
805.848	0.0143368
805.926	0.0142860
806.004	0.0142574
806.082	0.0143870
806.160	0.0143397
806.238	0.0143904
806.317	0.0143793
806.395	0.0144783
806.473	0.0144567
806.551	0.0144254
806.629	0.0144604
806.707	0.0144483
806.785	0.0144675
806.863	0.0145086
806.942	0.0145501
807.020	0.0145786
807.098	0.0145750
807.176	0.0145025
807.254	0.0145008
807.332	0.0145303
807.410	0.0144914
807.488	0.0145995
807.567	0.0144843
807.645	0.0145774
807.723	0.0146941
807.801	0.0145165
807.879	0.0146227
807.957	0.0146249
808.035	0.0145740
808.113	0.0143884
808.192	0.0144353
808.270	0.0144116
808.348	0.0145114
808.426	0.0144564
808.504	0.0144124
808.582	0.0143157
808.660	0.0144375
808.738	0.0143629
808.817	0.0143523
808.895	0.0144492
808.973	0.0144925
809.051	0.0144715
809.129	0.0142702
809.207	0.0142884
809.285	0.0144148
809.363	0.0143977
809.442	0.0143697
809.520	0.0144801
809.598	0.0143681
809.676	0.0143410
809.754	0.0143250
809.832	0.0144684
809.910	0.0144720
809.988	0.0144659
810.067	0.0144201
810.145	0.0143893
810.223	0.0144545
810.301	0.0145386
810.379	0.0144682
810.457	0.0143803
810.535	0.0144908
810.613	0.0146133
810.692	0.0145296
810.770	0.0144494
810.848	0.0144408
810.926	0.0143985
811.004	0.0144814
811.082	0.0143933
811.160	0.0145314
811.238	0.0143079
811.317	0.0144443
811.395	0.0143207
811.473	0.0145100
811.551	0.0145078
811.629	0.0143309
811.707	0.0143059
811.785	0.0142889
811.863	0.0143707
811.942	0.0142214
812.020	0.0143622
812.098	0.0143774
812.176	0.0142160
812.254	0.0141599
812.332	0.0143895
812.410	0.0142217
812.488	0.0143435
812.567	0.0143317
812.645	0.0142973
812.723	0.0142937
812.801	0.0142860
812.879	0.0143706
812.957	0.0142723
813.035	0.0143088
813.113	0.0145457
813.192	0.0143005
813.270	0.0142622
813.348	0.0144942
813.426	0.0144305
813.504	0.0144878
813.582	0.0143900
813.660	0.0143613
813.738	0.0143393
813.817	0.0145659
813.895	0.0143768
813.973	0.0143296
814.051	0.0142523
814.129	0.0143019
814.207	0.0144434
814.285	0.0143523
814.363	0.0142879
814.442	0.0143427
814.520	0.0143333
814.598	0.0143141
814.676	0.0142615
814.754	0.0142964
814.832	0.0144611
814.910	0.0142765
814.988	0.0142832
815.067	0.0142733
815.145	0.0142986
815.223	0.0142683
815.301	0.0143610
815.379	0.0142915
815.457	0.0143523
815.535	0.0144271
815.613	0.0142807
815.692	0.0145082
815.770	0.0143446
815.848	0.0144363
815.926	0.0143346
816.004	0.0142549
816.082	0.0143764
816.160	0.0143387
816.238	0.0143376
816.317	0.0142616
816.395	0.0141925
816.473	0.0143608
816.551	0.0143056
816.629	0.0143909
816.707	0.0142305
816.785	0.0141970
816.863	0.0141567
816.942	0.0141983
817.020	0.0141055
817.098	0.0141097
817.176	0.0142400
817.254	0.0140504
817.332	0.0141398
817.410	0.0141776
817.488	0.0140329
817.567	0.0140458
817.645	0.0141453
817.723	0.0141404
817.801	0.0140871
817.879	0.0142645
817.957	0.0141356
818.035	0.0142906
818.113	0.0143143
818.192	0.0141674
818.270	0.0142722
818.348	0.0143285
818.426	0.0143153
818.504	0.0142832
818.582	0.0143169
818.660	0.0144636
818.738	0.0143677
818.817	0.0142654
818.895	0.0144256
818.973	0.0144670
819.051	0.0145276
819.129	0.0145087
819.207	0.0145374
819.285	0.0144765
819.363	0.0144789
819.442	0.0144875
819.520	0.0146693
819.598	0.0145321
819.676	0.0144946
819.754	0.0146118
819.832	0.0145361
819.910	0.0144613
819.988	0.0144794
820.067	0.0146143
820.145	0.0145638
820.223	0.0146501
820.301	0.0145232
820.379	0.0145337
820.457	0.0147546
820.535	0.0147163
820.613	0.0147152
820.692	0.0146389
820.770	0.0145508
820.848	0.0146707
820.926	0.0145953
821.004	0.0145917
821.082	0.0145741
821.160	0.0147038
821.238	0.0147098
821.317	0.0146439
821.395	0.0146018
821.473	0.0145629
821.551	0.0146193
821.629	0.0146565
821.707	0.0145323
821.785	0.0145384
821.863	0.0146673
821.942	0.0145098
822.020	0.0144697
822.098	0.0145896
822.176	0.0143603
822.254	0.0144068
822.332	0.0143349
822.410	0.0143494
822.488	0.0143259
822.567	0.0142567
822.645	0.0141435
822.723	0.0141517
822.801	0.0140547
822.879	0.0141251
822.957	0.0140316
823.035	0.0140757
823.113	0.0141074
823.192	0.0139613
823.270	0.0140359
823.348	0.0139565
823.426	0.0138937
823.504	0.0138769
823.582	0.0140833
823.660	0.0139575
823.738	0.0139582
823.817	0.0139198
823.895	0.0140845
823.973	0.0141440
824.051	0.0140784
824.129	0.0140739
824.207	0.0141698
824.285	0.0140738
824.363	0.0141621
824.442	0.0140536
824.520	0.0142168
824.598	0.0143130
824.676	0.0141146
824.754	0.0140865
824.832	0.0142180
824.910	0.0142632
824.988	0.0140791
825.067	0.0141654
825.145	0.0142471
825.223	0.0143639
825.301	0.0143436
825.379	0.0142624
825.457	0.0143890
825.535	0.0142780
825.613	0.0142548
825.692	0.0143538
825.770	0.0142284
825.848	0.0143798
825.926	0.0144867
826.004	0.0143887
826.082	0.0143156
826.160	0.0144137
826.238	0.0142818
826.317	0.0143433
826.395	0.0143918
826.473	0.0143693
826.551	0.0144460
826.629	0.0143819
826.707	0.0143954
826.785	0.0144288
826.863	0.0143389
826.942	0.0143783
827.020	0.0143183
827.098	0.0144276
827.176	0.0145987
827.254	0.0144105
827.332	0.0142919
827.410	0.0143437
827.488	0.0143769
827.567	0.0143284
827.645	0.0143199
827.723	0.0144643
827.801	0.0143780
827.879	0.0142056
827.957	0.0143946
828.035	0.0142479
828.113	0.0141167
828.192	0.0142600
828.270	0.0143124
828.348	0.0143958
828.426	0.0144387
828.504	0.0144646
828.582	0.0143711
828.660	0.0145052
828.738	0.0144562
828.817	0.0145432
828.895	0.0143816
828.973	0.0144081
829.051	0.0143282
829.129	0.0144761
829.207	0.0144160
829.285	0.0144391
829.363	0.0145033
829.442	0.0145821
829.520	0.0144386
829.598	0.0144898
829.676	0.0145377
829.754	0.0143342
829.832	0.0146529
829.910	0.0145820
829.988	0.0144704
830.067	0.0145603
830.145	0.0144849
830.223	0.0145286
830.301	0.0144982
830.379	0.0145023
830.457	0.0145889
830.535	0.0144929
830.613	0.0145197
830.692	0.0145877
830.770	0.0145110
830.848	0.0144236
830.926	0.0144012
831.004	0.0146484
831.082	0.0143920
831.160	0.0143062
831.238	0.0145489
831.317	0.0145567
831.395	0.0145365
831.473	0.0144950
831.551	0.0144685
831.629	0.0144617
831.707	0.0145223
831.785	0.0144959
831.863	0.0145042
831.942	0.0144646
832.020	0.0144646
832.098	0.0143817
832.176	0.0144887
832.254	0.0144188
832.332	0.0144344
832.410	0.0144813
832.488	0.0143680
832.567	0.0145444
832.645	0.0144814
832.723	0.0143064
832.801	0.0144273
832.879	0.0143098
832.957	0.0143290
833.035	0.0142805
833.113	0.0142400
833.192	0.0142895
833.270	0.0142249
833.348	0.0142909
833.426	0.0142936
833.504	0.0142297
833.582	0.0142016
833.660	0.0141661
833.738	0.0141294
833.817	0.0140556
833.895	0.0140352
833.973	0.0141503
834.051	0.0141074
834.129	0.0139862
834.207	0.0140979
834.285	0.0139713
834.363	0.0141585
834.442	0.0142136
834.520	0.0142874
834.598	0.0141854
834.676	0.0141869
834.754	0.0140546
834.832	0.0139737
834.910	0.0142458
834.988	0.0141167
835.067	0.0140633
835.145	0.0142306
835.223	0.0142548
835.301	0.0141442
835.379	0.0142708
835.457	0.0141460
835.535	0.0142038
835.613	0.0141586
835.692	0.0141390
835.770	0.0142842
835.848	0.0140839
835.926	0.0140993
836.004	0.0142052
836.082	0.0142241
836.160	0.0143473
836.238	0.0142332
836.317	0.0141924
836.395	0.0141854
836.473	0.0143758
836.551	0.0141384
836.629	0.0142078
836.707	0.0142608
836.785	0.0141281
836.863	0.0141240
836.942	0.0141883
837.020	0.0142419
837.098	0.0143798
837.176	0.0143669
837.254	0.0144018
837.332	0.0143382
837.410	0.0140596
837.488	0.0143098
837.567	0.0142525
837.645	0.0142353
837.723	0.0142223
837.801	0.0143193
837.879	0.0142418
837.957	0.0142783
838.035	0.0143952
838.113	0.0142699
838.192	0.0142160
838.270	0.0142099
838.348	0.0143303
838.426	0.0142048
838.504	0.0143247
838.582	0.0142667
838.660	0.0142081
838.738	0.0142033
838.817	0.0142205
838.895	0.0142110
838.973	0.0141501
839.051	0.0141136
839.129	0.0142875
839.207	0.0142371
839.285	0.0140041
839.363	0.0141580
839.442	0.0141556
839.520	0.0142104
839.598	0.0143152
839.676	0.0142810
839.754	0.0142113
839.832	0.0141816
839.910	0.0142176
839.988	0.0141934
840.067	0.0142971
840.145	0.0142874
840.223	0.0143742
840.301	0.0143542
840.379	0.0143423
840.457	0.0142634
840.535	0.0143752
840.613	0.0144248
840.692	0.0143487
840.770	0.0143600
840.848	0.0142973
840.926	0.0143254
841.004	0.0143809
841.082	0.0144660
841.160	0.0144775
841.238	0.0144471
841.317	0.0145489
841.395	0.0144781
841.473	0.0145422
841.551	0.0144024
841.629	0.0144302
841.707	0.0143862
841.785	0.0145349
841.863	0.0144614
841.942	0.0144753
842.020	0.0145086
842.098	0.0144254
842.176	0.0144658
842.254	0.0144783
842.332	0.0144040
842.410	0.0144551
842.488	0.0145436
842.567	0.0145544
842.645	0.0145090
842.723	0.0145824
842.801	0.0144409
842.879	0.0145568
842.957	0.0144808
843.035	0.0144637
843.113	0.0145076
843.192	0.0144707
843.270	0.0144946
843.348	0.0145876
843.426	0.0144697
843.504	0.0146259
843.582	0.0145689
843.660	0.0145036
843.738	0.0144405
843.817	0.0146069
843.895	0.0145499
843.973	0.0145183
844.051	0.0144538
844.129	0.0144720
844.207	0.0145548
844.285	0.0144712
844.363	0.0145210
844.442	0.0144548
844.520	0.0144324
844.598	0.0143748
844.676	0.0143540
844.754	0.0143658
844.832	0.0145432
844.910	0.0143776
844.988	0.0144278
845.067	0.0143082
845.145	0.0142841
845.223	0.0143039
845.301	0.0143323
845.379	0.0144519
845.457	0.0144035
845.535	0.0143576
845.613	0.0143487
845.692	0.0142242
845.770	0.0144239
845.848	0.0143961
845.926	0.0144234
846.004	0.0142139
846.082	0.0143604
846.160	0.0143869
846.238	0.0144407
846.317	0.0142014
846.395	0.0143686
846.473	0.0143549
846.551	0.0141791
846.629	0.0143105
846.707	0.0144139
846.785	0.0143337
846.863	0.0144231
846.942	0.0143687
847.020	0.0143421
847.098	0.0143488
847.176	0.0143658
847.254	0.0144130
847.332	0.0143026
847.410	0.0143375
847.488	0.0144559
847.567	0.0143970
847.645	0.0143387
847.723	0.0144189
847.801	0.0142501
847.879	0.0143002
847.957	0.0144189
848.035	0.0143855
848.113	0.0144096
848.192	0.0142488
848.270	0.0142980
848.348	0.0143885
848.426	0.0143566
848.504	0.0142167
848.582	0.0143237
848.660	0.0143320
848.738	0.0143307
848.817	0.0143267
848.895	0.0143194
848.973	0.0144217
849.051	0.0144178
849.129	0.0144288
849.207	0.0143951
849.285	0.0143701
849.363	0.0144579
849.442	0.0143425
849.520	0.0143158
849.598	0.0142961
849.676	0.0144347
849.754	0.0144256
849.832	0.0143513
849.910	0.0142697
849.988	0.0142851
850.067	0.0144468
850.145	0.0144673
850.223	0.0143084
850.301	0.0144015
850.379	0.0143412
850.457	0.0143888
850.535	0.0142777
850.613	0.0142841
850.692	0.0142647
850.770	0.0144148
850.848	0.0143217
850.926	0.0142542
851.004	0.0142567
851.082	0.0144253
851.160	0.0143777
851.238	0.0142422
851.317	0.0141972
851.395	0.0143303
851.473	0.0143936
851.551	0.0143887
851.629	0.0144527
851.707	0.0144035
851.785	0.0144405
851.863	0.0142311
851.942	0.0144774
852.020	0.0143549
852.098	0.0144085
852.176	0.0144237
852.254	0.0144096
852.332	0.0144978
852.410	0.0145148
852.488	0.0143977
852.567	0.0143448
852.645	0.0143251
852.723	0.0142923
852.801	0.0145424
852.879	0.0144158
852.957	0.0142921
853.035	0.0143603
853.113	0.0144585
853.192	0.0143767
853.270	0.0143793
853.348	0.0142413
853.426	0.0143501
853.504	0.0143312
853.582	0.0142622
853.660	0.0143060
853.738	0.0143279
853.817	0.0142904
853.895	0.0143234
853.973	0.0142180
854.051	0.0142351
854.129	0.0143274
854.207	0.0143166
854.285	0.0143487
854.363	0.0144173
854.442	0.0142606
854.520	0.0141972
854.598	0.0143382
854.676	0.0142504
854.754	0.0143156
854.832	0.0143085
854.910	0.0143637
854.988	0.0143607
855.067	0.0142397
855.145	0.0142297
855.223	0.0142302
855.301	0.0141515
855.379	0.0142091
855.457	0.0141311
855.535	0.0142261
855.613	0.0142406
855.692	0.0141397
855.770	0.0141335
855.848	0.0141453
855.926	0.0142498
856.004	0.0142049
856.082	0.0140862
856.160	0.0141195
856.238	0.0141682
856.317	0.0143938
856.395	0.0143433
856.473	0.0141713
856.551	0.0141668
856.629	0.0141151
856.707	0.0141735
856.785	0.0140541
856.863	0.0141523
856.942	0.0141569
857.020	0.0143004
857.098	0.0142809
857.176	0.0142030
857.254	0.0141843
857.332	0.0141674
857.410	0.0141309
857.488	0.0141351
857.567	0.0140973
857.645	0.0141692
857.723	0.0143574
857.801	0.0142306
857.879	0.0143118
857.957	0.0143152
858.035	0.0142914
858.113	0.0143848
858.192	0.0145138
858.270	0.0144409
858.348	0.0143360
858.426	0.0144054
858.504	0.0144152
858.582	0.0145395
858.660	0.0144502
858.738	0.0142801
858.817	0.0143609
858.895	0.0143927
858.973	0.0143309
859.051	0.0144704
859.129	0.0143130
859.207	0.0144965
859.285	0.0144876
859.363	0.0144173
859.442	0.0143591
859.520	0.0144078
859.598	0.0143871
859.676	0.0144434
859.754	0.0145055
859.832	0.0144856
859.910	0.0144811
859.988	0.0145810
860.067	0.0144890
860.145	0.0144349
860.223	0.0145527
860.301	0.0145284
860.379	0.0145377
860.457	0.0145273
860.535	0.0145601
860.613	0.0146503
860.692	0.0146630
860.770	0.0146174
860.848	0.0146368
860.926	0.0145535
861.004	0.0146315
861.082	0.0147891
861.160	0.0146270
861.238	0.0145658
861.317	0.0146569
861.395	0.0146549
861.473	0.0146632
861.551	0.0145457
861.629	0.0145534
861.707	0.0146632
861.785	0.0146922
861.863	0.0145219
861.942	0.0145796
862.020	0.0146009
862.098	0.0145398
862.176	0.0145651
862.254	0.0144777
862.332	0.0146700
862.410	0.0146580
862.488	0.0144836
862.567	0.0145492
862.645	0.0145818
862.723	0.0146159
862.801	0.0144839
862.879	0.0146465
862.957	0.0145206
863.035	0.0144585
863.113	0.0146581
863.192	0.0146575
863.270	0.0146075
863.348	0.0144471
863.426	0.0144464
863.504	0.0145387
863.582	0.0145805
863.660	0.0144844
863.738	0.0145844
863.817	0.0143534
863.895	0.0143870
863.973	0.0145157
864.051	0.0145418
864.129	0.0145008
864.207	0.0144231
864.285	0.0144025
864.363	0.0144733
864.442	0.0144167
864.520	0.0144199
864.598	0.0143922
864.676	0.0144193
864.754	0.0144004
864.832	0.0143298
864.910	0.0145256
864.988	0.0146250
865.067	0.0144839
865.145	0.0144064
865.223	0.0145551
865.301	0.0144359
865.379	0.0145040
865.457	0.0143302
865.535	0.0144057
865.613	0.0143550
865.692	0.0144940
865.770	0.0144292
865.848	0.0143879
865.926	0.0144073
866.004	0.0144263
866.082	0.0143871
866.160	0.0144513
866.238	0.0143017
866.317	0.0142720
866.395	0.0145100
866.473	0.0144404
866.551	0.0144167
866.629	0.0142944
866.707	0.0143990
866.785	0.0143291
866.863	0.0144079
866.942	0.0144608
867.020	0.0144350
867.098	0.0143194
867.176	0.0143102
867.254	0.0144714
867.332	0.0145045
867.410	0.0144058
867.488	0.0143659
867.567	0.0144849
867.645	0.0145274
867.723	0.0144767
867.801	0.0143014
867.879	0.0143356
867.957	0.0143768
868.035	0.0143019
868.113	0.0145261
868.192	0.0144913
868.270	0.0143182
868.348	0.0144624
868.426	0.0143960
868.504	0.0144108
868.582	0.0145894
868.660	0.0145149
868.738	0.0144801
868.817	0.0144919
868.895	0.0145073
868.973	0.0146394
869.051	0.0144876
869.129	0.0144740
869.207	0.0145603
869.285	0.0145120
869.363	0.0145129
869.442	0.0145489
869.520	0.0144589
869.598	0.0145451
869.676	0.0144330
869.754	0.0144061
869.832	0.0143675
869.910	0.0144137
869.988	0.0143945
870.067	0.0143230
870.145	0.0143555
870.223	0.0143851
870.301	0.0142323
870.379	0.0142596
870.457	0.0143884
870.535	0.0142685
870.613	0.0143307
870.692	0.0143604
870.770	0.0142536
870.848	0.0142393
870.926	0.0142327
871.004	0.0141811
871.082	0.0143697
871.160	0.0142464
871.238	0.0141368
871.317	0.0140800
871.395	0.0141832
871.473	0.0141824
871.551	0.0142256
871.629	0.0142874
871.707	0.0142645
871.785	0.0143241
871.863	0.0142001
871.942	0.0141660
872.020	0.0143015
872.098	0.0143369
872.176	0.0141203
872.254	0.0142050
872.332	0.0142453
872.410	0.0143452
872.488	0.0142761
872.567	0.0144239
872.645	0.0141837
872.723	0.0142756
872.801	0.0143198
872.879	0.0143921
872.957	0.0143343
873.035	0.0142794
873.113	0.0144933
873.192	0.0144271
873.270	0.0144182
873.348	0.0144918
873.426	0.0143304
873.504	0.0143898
873.582	0.0143517
873.660	0.0144169
873.738	0.0143980
873.817	0.0144727
873.895	0.0142838
873.973	0.0144110
874.051	0.0144323
874.129	0.0143984
874.207	0.0144385
874.285	0.0146146
874.363	0.0145164
874.442	0.0144502
874.520	0.0145413
874.598	0.0143978
874.676	0.0144753
874.754	0.0143944
874.832	0.0144572
874.910	0.0145053
874.988	0.0145230
875.067	0.0144576
875.145	0.0144485
875.223	0.0144704
875.301	0.0144483
875.379	0.0144116
875.457	0.0144543
875.535	0.0143374
875.613	0.0144122
875.692	0.0144163
875.770	0.0145365
875.848	0.0144122
875.926	0.0142869
876.004	0.0143132
876.082	0.0142949
876.160	0.0141551
876.238	0.0141680
876.317	0.0143793
876.395	0.0142783
876.473	0.0143505
876.551	0.0143256
876.629	0.0142844
876.707	0.0142925
876.785	0.0143573
876.863	0.0143866
876.942	0.0143350
877.020	0.0143532
877.098	0.0144975
877.176	0.0144986
877.254	0.0142936
877.332	0.0144582
877.410	0.0146060
877.488	0.0145045
877.567	0.0144957
877.645	0.0146357
877.723	0.0146114
877.801	0.0145448
877.879	0.0147096
877.957	0.0146960
878.035	0.0146130
878.113	0.0147697
878.192	0.0145677
878.270	0.0145650
878.348	0.0145879
878.426	0.0146058
878.504	0.0145910
878.582	0.0145507
878.660	0.0144868
878.738	0.0145617
878.817	0.0145050
878.895	0.0146434
878.973	0.0144652
879.051	0.0144672
879.129	0.0142118
879.207	0.0144866
879.285	0.0143324
879.363	0.0142474
879.442	0.0141787
879.520	0.0142188
879.598	0.0141223
879.676	0.0140308
879.754	0.0141727
879.832	0.0140036
879.910	0.0139804
879.988	0.0140677
880.067	0.0142033
880.145	0.0141115
880.223	0.0140188
880.301	0.0141986
880.379	0.0141082
880.457	0.0140278
880.535	0.0142559
880.613	0.0139330
880.692	0.0141945
880.770	0.0142179
880.848	0.0141097
880.926	0.0141944
881.004	0.0142912
881.082	0.0142373
881.160	0.0141975
881.238	0.0141924
881.317	0.0142040
881.395	0.0141465
881.473	0.0142777
881.551	0.0142774
881.629	0.0143358
881.707	0.0142451
881.785	0.0143061
881.863	0.0143171
881.942	0.0143520
882.020	0.0144157
882.098	0.0144007
882.176	0.0143246
882.254	0.0143018
882.332	0.0143208
882.410	0.0144902
882.488	0.0144038
882.567	0.0144731
882.645	0.0143793
882.723	0.0143319
882.801	0.0143737
882.879	0.0146277
882.957	0.0144193
883.035	0.0143102
883.113	0.0144304
883.192	0.0144181
883.270	0.0144549
883.348	0.0143058
883.426	0.0144328
883.504	0.0144114
883.582	0.0144125
883.660	0.0144529
883.738	0.0144353
883.817	0.0145139
883.895	0.0144420
883.973	0.0144834
884.051	0.0143832
884.129	0.0144650
884.207	0.0144004
884.285	0.0144609
884.363	0.0146302
884.442	0.0144806
884.520	0.0143670
884.598	0.0144527
884.676	0.0144688
884.754	0.0144884
884.832	0.0144064
884.910	0.0145102
884.988	0.0144591
885.067	0.0145974
885.145	0.0145315
885.223	0.0144183
885.301	0.0144456
885.379	0.0146384
885.457	0.0144751
885.535	0.0145589
885.613	0.0145348
885.692	0.0145589
885.770	0.0143770
885.848	0.0145843
885.926	0.0144656
886.004	0.0144803
886.082	0.0145555
886.160	0.0146021
886.238	0.0146421
886.317	0.0145267
886.395	0.0145940
886.473	0.0145733
886.551	0.0146175
886.629	0.0147475
886.707	0.0147329
886.785	0.0147165
886.863	0.0148413
886.942	0.0146820
887.020	0.0147147
887.098	0.0147707
887.176	0.0147250
887.254	0.0148097
887.332	0.0148485
887.410	0.0148016
887.488	0.0148355
887.567	0.0146665
887.645	0.0146577
887.723	0.0148571
887.801	0.0148581
887.879	0.0147041
887.957	0.0145856
888.035	0.0146840
888.113	0.0146539
888.192	0.0146384
888.270	0.0145915
888.348	0.0145742
888.426	0.0146410
888.504	0.0146731
888.582	0.0145441
888.660	0.0144341
888.738	0.0143353
888.817	0.0144416
888.895	0.0144284
888.973	0.0143885
889.051	0.0144337
889.129	0.0143854
889.207	0.0144383
889.285	0.0144441
889.363	0.0145308
889.442	0.0145972
889.520	0.0144985
889.598	0.0144410
889.676	0.0144830
889.754	0.0144463
889.832	0.0143602
889.910	0.0145788
889.988	0.0143974
890.067	0.0144837
890.145	0.0144505
890.223	0.0145824
890.301	0.0145420
890.379	0.0144336
890.457	0.0145650
890.535	0.0144438
890.613	0.0144305
890.692	0.0142830
890.770	0.0143056
890.848	0.0143983
890.926	0.0143974
891.004	0.0143065
891.082	0.0143539
891.160	0.0143869
891.238	0.0143073
891.317	0.0142612
891.395	0.0144260
891.473	0.0141615
891.551	0.0142047
891.629	0.0142424
891.707	0.0142708
891.785	0.0142369
891.863	0.0142629
891.942	0.0143645
892.020	0.0144880
892.098	0.0143769
892.176	0.0144025
892.254	0.0145486
892.332	0.0143899
892.410	0.0144381
892.488	0.0144971
892.567	0.0145689
892.645	0.0145255
892.723	0.0144884
892.801	0.0145449
892.879	0.0145075
892.957	0.0145158
893.035	0.0145258
893.113	0.0142925
893.192	0.0142721
893.270	0.0143728
893.348	0.0143536
893.426	0.0144624
893.504	0.0143839
893.582	0.0143699
893.660	0.0143714
893.738	0.0143320
893.817	0.0143782
893.895	0.0144371
893.973	0.0143999
894.051	0.0144692
894.129	0.0144751
894.207	0.0143279
894.285	0.0145208
894.363	0.0145941
894.442	0.0143312
894.520	0.0144122
894.598	0.0145036
894.676	0.0146311
894.754	0.0145757
894.832	0.0144806
894.910	0.0144913
894.988	0.0145687
895.067	0.0145332
895.145	0.0143137
895.223	0.0144350
895.301	0.0144437
895.379	0.0144804
895.457	0.0144129
895.535	0.0144467
895.613	0.0145371
895.692	0.0143095
895.770	0.0144608
895.848	0.0144042
895.926	0.0143546
896.004	0.0143865
896.082	0.0143372
896.160	0.0143990
896.238	0.0143289
896.317	0.0143629
896.395	0.0144493
896.473	0.0142906
896.551	0.0143410
896.629	0.0144409
896.707	0.0143012
896.785	0.0143712
896.863	0.0143415
896.942	0.0143630
897.020	0.0144393
897.098	0.0142772
897.176	0.0144396
897.254	0.0143990
897.332	0.0143394
897.410	0.0144033
897.488	0.0144236
897.567	0.0145161
897.645	0.0144125
897.723	0.0144017
897.801	0.0141586
897.879	0.0141819
897.957	0.0143177
898.035	0.0142837
898.113	0.0143672
898.192	0.0142966
898.270	0.0141550
898.348	0.0140752
898.426	0.0142317
898.504	0.0141163
898.582	0.0142372
898.660	0.0142370
898.738	0.0141723
898.817	0.0143127
898.895	0.0141835
898.973	0.0141374
899.051	0.0140912
899.129	0.0143535
899.207	0.0141999
899.285	0.0141203
899.363	0.0141400
899.442	0.0141804
899.520	0.0142275
899.598	0.0143476
899.676	0.0143267
899.754	0.0143639
899.832	0.0142085
899.910	0.0142941
899.988	0.0142113
900.067	0.0144665
900.145	0.0144016
900.223	0.0143533
900.301	0.0143086
900.379	0.0145046
900.457	0.0144787
900.535	0.0143159
900.613	0.0144044
900.692	0.0145177
900.770	0.0146421
900.848	0.0145182
900.926	0.0145461
901.004	0.0145483
901.082	0.0145875
901.160	0.0143705
901.238	0.0144639
901.317	0.0144113
901.395	0.0144477
901.473	0.0144794
901.551	0.0144384
901.629	0.0144494
901.707	0.0144797
901.785	0.0144037
901.863	0.0144035
901.942	0.0144128
902.020	0.0144025
902.098	0.0145434
902.176	0.0142590
902.254	0.0143742
902.332	0.0144308
902.410	0.0142883
902.488	0.0141843
902.567	0.0143143
902.645	0.0141586
902.723	0.0142282
902.801	0.0141163
902.879	0.0141701
902.957	0.0141909
903.035	0.0142435
903.113	0.0141997
903.192	0.0141518
903.270	0.0142197
903.348	0.0142479
903.426	0.0141867
903.504	0.0143719
903.582	0.0142398
903.660	0.0143323
903.738	0.0143107
903.817	0.0143255
903.895	0.0143944
903.973	0.0143021
904.051	0.0143314
904.129	0.0142693
904.207	0.0143304
904.285	0.0144410
904.363	0.0142927
904.442	0.0143453
904.520	0.0142274
904.598	0.0141695
904.676	0.0143349
904.754	0.0143951
904.832	0.0142667
904.910	0.0142154
904.988	0.0141923
905.067	0.0142367
905.145	0.0142832
905.223	0.0142024
905.301	0.0143291
905.379	0.0142970
905.457	0.0141564
905.535	0.0140983
905.613	0.0142615
905.692	0.0141312
905.770	0.0142196
905.848	0.0141663
905.926	0.0143108
906.004	0.0142110
906.082	0.0141293
906.160	0.0141203
906.238	0.0142284
906.317	0.0140644
906.395	0.0142143
906.473	0.0142730
906.551	0.0140557
906.629	0.0141742
906.707	0.0140846
906.785	0.0141953
906.863	0.0141219
906.942	0.0141381
907.020	0.0141394
907.098	0.0140730
907.176	0.0141899
907.254	0.0141763
907.332	0.0140853
907.410	0.0142044
907.488	0.0141434
907.567	0.0141457
907.645	0.0140531
907.723	0.0141405
907.801	0.0140256
907.879	0.0140821
907.957	0.0141483
908.035	0.0141219
908.113	0.0142097
908.192	0.0139739
908.270	0.0141584
908.348	0.0141679
908.426	0.0141229
908.504	0.0141146
908.582	0.0141039
908.660	0.0141319
908.738	0.0142160
908.817	0.0141386
908.895	0.0141911
908.973	0.0141427
909.051	0.0141930
909.129	0.0142557
909.207	0.0141544
909.285	0.0143008
909.363	0.0141979
909.442	0.0142642
909.520	0.0144388
909.598	0.0143530
909.676	0.0142074
909.754	0.0141016
909.832	0.0142452
909.910	0.0143941
909.988	0.0143738
910.067	0.0142890
910.145	0.0143387
910.223	0.0144379
910.301	0.0145063
910.379	0.0144287
910.457	0.0143630
910.535	0.0144616
910.613	0.0144787
910.692	0.0144729
910.770	0.0143733
910.848	0.0143765
910.926	0.0142582
911.004	0.0144345
911.082	0.0143903
911.160	0.0143802
911.238	0.0143775
911.317	0.0144168
911.395	0.0142597
911.473	0.0144336
911.551	0.0143829
911.629	0.0143972
911.707	0.0143616
911.785	0.0143653
911.863	0.0144913
911.942	0.0143598
912.020	0.0143755
912.098	0.0144107
912.176	0.0144987
912.254	0.0144987
912.332	0.0145023
912.410	0.0145340
912.488	0.0144587
912.567	0.0143620
912.645	0.0144495
912.723	0.0144858
912.801	0.0146896
912.879	0.0145171
912.957	0.0144312
913.035	0.0144852
913.113	0.0145402
913.192	0.0144447
913.270	0.0144186
913.348	0.0143853
913.426	0.0144487
913.504	0.0144947
913.582	0.0146763
913.660	0.0145793
913.738	0.0144080
913.817	0.0144344
913.895	0.0144351
913.973	0.0145068
914.051	0.0144579
914.129	0.0143900
914.207	0.0145379
914.285	0.0145058
914.363	0.0145550
914.442	0.0144074
914.520	0.0143401
914.598	0.0145839
914.676	0.0145162
914.754	0.0145134
914.832	0.0143349
914.910	0.0145026
914.988	0.0144839
915.067	0.0144926
915.145	0.0145334
915.223	0.0144281
915.301	0.0145156
915.379	0.0144999
915.457	0.0143581
915.535	0.0144489
915.613	0.0144868
915.692	0.0144767
915.770	0.0143722
915.848	0.0144553
915.926	0.0146146
916.004	0.0145752
916.082	0.0144548
916.160	0.0144119
916.238	0.0145155
916.317	0.0143720
916.395	0.0143866
916.473	0.0145978
916.551	0.0144166
916.629	0.0144902
916.707	0.0143683
916.785	0.0142538
916.863	0.0143231
916.942	0.0144092
917.020	0.0142013
917.098	0.0143795
917.176	0.0143908
917.254	0.0142830
917.332	0.0143934
917.410	0.0143616
917.488	0.0142733
917.567	0.0144046
917.645	0.0143369
917.723	0.0143006
917.801	0.0143030
917.879	0.0143869
917.957	0.0144936
918.035	0.0144081
918.113	0.0144363
918.192	0.0143678
918.270	0.0143217
918.348	0.0143465
918.426	0.0144031
918.504	0.0144188
918.582	0.0144456
918.660	0.0143481
918.738	0.0143215
918.817	0.0143713
918.895	0.0143712
918.973	0.0144035
919.051	0.0143196
919.129	0.0141840
919.207	0.0143453
919.285	0.0143085
919.363	0.0142884
919.442	0.0141393
919.520	0.0143663
919.598	0.0142783
919.676	0.0141746
919.754	0.0140493
919.832	0.0141186
919.910	0.0141362
