05/28/2022	14:38:22	Ver.	4.1	UNKNOWN
Optical Delay	599.988409	Delta X		0.078125	Sweeps	1	Scan Rate	0/0
Coordinates	Axis 1	NaN	Axis 2	NaN	Axis 3	NaN	Axis 4	NaN	Axis 5	NaN	Axis 6	0.000000
TX Power	0.000000	RX Power	0.000000

599.988	0.0147202
600.067	0.0146899
600.145	0.0146692
600.223	0.0147833
600.301	0.0149118
600.379	0.0148108
600.457	0.0147190
600.535	0.0149373
600.613	0.0148827
600.692	0.0149635
600.770	0.0149492
600.848	0.0149393
600.926	0.0148993
601.004	0.0148038
601.082	0.0149646
601.160	0.0149559
601.238	0.0149673
601.317	0.0148606
601.395	0.0150103
601.473	0.0150326
601.551	0.0149829
601.629	0.0149971
601.707	0.0148340
601.785	0.0148765
601.863	0.0149879
601.942	0.0149198
602.020	0.0148618
602.098	0.0149465
602.176	0.0149945
602.254	0.0148588
602.332	0.0147407
602.410	0.0149580
602.488	0.0149555
602.567	0.0150267
602.645	0.0150039
602.723	0.0150528
602.801	0.0148851
602.879	0.0149400
602.957	0.0148534
603.035	0.0149141
603.113	0.0150017
603.192	0.0148458
603.270	0.0148645
603.348	0.0150050
603.426	0.0148762
603.504	0.0147414
603.582	0.0149470
603.660	0.0147493
603.738	0.0148460
603.817	0.0147997
603.895	0.0148471
603.973	0.0148501
604.051	0.0148099
604.129	0.0148353
604.207	0.0146864
604.285	0.0148866
604.363	0.0148052
604.442	0.0147980
604.520	0.0148014
604.598	0.0146790
604.676	0.0148603
604.754	0.0146982
604.832	0.0147720
604.910	0.0147028
604.988	0.0149336
605.067	0.0147800
605.145	0.0149495
605.223	0.0147784
605.301	0.0147481
605.379	0.0147482
605.457	0.0147439
605.535	0.0148596
605.613	0.0148205
605.692	0.0147028
605.770	0.0147623
605.848	0.0148653
605.926	0.0148351
606.004	0.0147637
606.082	0.0148103
606.160	0.0148518
606.238	0.0148251
606.317	0.0147995
606.395	0.0147660
606.473	0.0148169
606.551	0.0147438
606.629	0.0146252
606.707	0.0148135
606.785	0.0146284
606.863	0.0146296
606.942	0.0146111
607.020	0.0147634
607.098	0.0146795
607.176	0.0147708
607.254	0.0146015
607.332	0.0146401
607.410	0.0146867
607.488	0.0146062
607.567	0.0145504
607.645	0.0145888
607.723	0.0145883
607.801	0.0146891
607.879	0.0147074
607.957	0.0145580
608.035	0.0145600
608.113	0.0146908
608.192	0.0145749
608.270	0.0146267
608.348	0.0145137
608.426	0.0145521
608.504	0.0145956
608.582	0.0146523
608.660	0.0146595
608.738	0.0146012
608.817	0.0145384
608.895	0.0147999
608.973	0.0147363
609.051	0.0145557
609.129	0.0146878
609.207	0.0148410
609.285	0.0146436
609.363	0.0147956
609.442	0.0147764
609.520	0.0147554
609.598	0.0146829
609.676	0.0148249
609.754	0.0147012
609.832	0.0147723
609.910	0.0148087
609.988	0.0146902
610.067	0.0147710
610.145	0.0147986
610.223	0.0148925
610.301	0.0147898
610.379	0.0149328
610.457	0.0147636
610.535	0.0147341
610.613	0.0147505
610.692	0.0147977
610.770	0.0148879
610.848	0.0147330
610.926	0.0149191
611.004	0.0150073
611.082	0.0149168
611.160	0.0147401
611.238	0.0148741
611.317	0.0148081
611.395	0.0148645
611.473	0.0148468
611.551	0.0147517
611.629	0.0148228
611.707	0.0148978
611.785	0.0147793
611.863	0.0149242
611.942	0.0148936
612.020	0.0149268
612.098	0.0149286
612.176	0.0148920
612.254	0.0148225
612.332	0.0149235
612.410	0.0148834
612.488	0.0149472
612.567	0.0148612
612.645	0.0148458
612.723	0.0148304
612.801	0.0147472
612.879	0.0147991
612.957	0.0148265
613.035	0.0147990
613.113	0.0146915
613.192	0.0147076
613.270	0.0147260
613.348	0.0148047
613.426	0.0148141
613.504	0.0148244
613.582	0.0147845
613.660	0.0148752
613.738	0.0148038
613.817	0.0148603
613.895	0.0147554
613.973	0.0146937
614.051	0.0148794
614.129	0.0150211
614.207	0.0148518
614.285	0.0149797
614.363	0.0148597
614.442	0.0148803
614.520	0.0149578
614.598	0.0147729
614.676	0.0147588
614.754	0.0148531
614.832	0.0148637
614.910	0.0147041
614.988	0.0146922
615.067	0.0147211
615.145	0.0148196
615.223	0.0146093
615.301	0.0144917
615.379	0.0147048
615.457	0.0146697
615.535	0.0145765
615.613	0.0146238
615.692	0.0146478
615.770	0.0146269
615.848	0.0148132
615.926	0.0146941
616.004	0.0146225
616.082	0.0146846
616.160	0.0145921
616.238	0.0145475
616.317	0.0146276
616.395	0.0147160
616.473	0.0146663
616.551	0.0146770
616.629	0.0145288
616.707	0.0146534
616.785	0.0146581
616.863	0.0146062
616.942	0.0146360
617.020	0.0146466
617.098	0.0147152
617.176	0.0145055
617.254	0.0148014
617.332	0.0149097
617.410	0.0149023
617.488	0.0146962
617.567	0.0148410
617.645	0.0147259
617.723	0.0149246
617.801	0.0149900
617.879	0.0148785
617.957	0.0148110
618.035	0.0149052
618.113	0.0148959
618.192	0.0148640
618.270	0.0149087
618.348	0.0149578
618.426	0.0148859
618.504	0.0148438
618.582	0.0147664
618.660	0.0149036
618.738	0.0147124
618.817	0.0145853
618.895	0.0146723
618.973	0.0146459
619.051	0.0146269
619.129	0.0146133
619.207	0.0144998
619.285	0.0145107
619.363	0.0145749
619.442	0.0147194
619.520	0.0146014
619.598	0.0146314
619.676	0.0146148
619.754	0.0146951
619.832	0.0147229
619.910	0.0147626
619.988	0.0146793
620.067	0.0147379
620.145	0.0145858
620.223	0.0147183
620.301	0.0148293
620.379	0.0147675
620.457	0.0147272
620.535	0.0146850
620.613	0.0147478
620.692	0.0148347
620.770	0.0146653
620.848	0.0146302
620.926	0.0147691
621.004	0.0148511
621.082	0.0148061
621.160	0.0147788
621.238	0.0147346
621.317	0.0147993
621.395	0.0147815
621.473	0.0147028
621.551	0.0149368
621.629	0.0148180
621.707	0.0146807
621.785	0.0145773
621.863	0.0147552
621.942	0.0148036
622.020	0.0147693
622.098	0.0146622
622.176	0.0146304
622.254	0.0146777
622.332	0.0147900
622.410	0.0145464
622.488	0.0147984
622.567	0.0148023
622.645	0.0148553
622.723	0.0148164
622.801	0.0149739
622.879	0.0149398
622.957	0.0147685
623.035	0.0149711
623.113	0.0150331
623.192	0.0149944
623.270	0.0151587
623.348	0.0150201
623.426	0.0149986
623.504	0.0148807
623.582	0.0149234
623.660	0.0149709
623.738	0.0149785
623.817	0.0149148
623.895	0.0148473
623.973	0.0148837
624.051	0.0146976
624.129	0.0148032
624.207	0.0148240
624.285	0.0147174
624.363	0.0147774
624.442	0.0146795
624.520	0.0147314
624.598	0.0147696
624.676	0.0147126
624.754	0.0146436
624.832	0.0146400
624.910	0.0146657
624.988	0.0146450
625.067	0.0144534
625.145	0.0144521
625.223	0.0147006
625.301	0.0146786
625.379	0.0146366
625.457	0.0147006
625.535	0.0147485
625.613	0.0146609
625.692	0.0147279
625.770	0.0148313
625.848	0.0147876
625.926	0.0147826
626.004	0.0147635
626.082	0.0148993
626.160	0.0148895
626.238	0.0148322
626.317	0.0148527
626.395	0.0147695
626.473	0.0148875
626.551	0.0150037
626.629	0.0149007
626.707	0.0148428
626.785	0.0148206
626.863	0.0147838
626.942	0.0148262
627.020	0.0147353
627.098	0.0147748
627.176	0.0148344
627.254	0.0147713
627.332	0.0146831
627.410	0.0148000
627.488	0.0148470
627.567	0.0147363
627.645	0.0148083
627.723	0.0149667
627.801	0.0149381
627.879	0.0148620
627.957	0.0149858
628.035	0.0149338
628.113	0.0150473
628.192	0.0148820
628.270	0.0149534
628.348	0.0151778
628.426	0.0149091
628.504	0.0150441
628.582	0.0150869
628.660	0.0151035
628.738	0.0150859
628.817	0.0150896
628.895	0.0150072
628.973	0.0151016
629.051	0.0150792
629.129	0.0151067
629.207	0.0150208
629.285	0.0150037
629.363	0.0151299
629.442	0.0150523
629.520	0.0149121
629.598	0.0148938
629.676	0.0148463
629.754	0.0148086
629.832	0.0148261
629.910	0.0147381
629.988	0.0146896
630.067	0.0147578
630.145	0.0146221
630.223	0.0147736
630.301	0.0146961
630.379	0.0147608
630.457	0.0147267
630.535	0.0147618
630.613	0.0148562
630.692	0.0148344
630.770	0.0149146
630.848	0.0150712
630.926	0.0147992
631.004	0.0148730
631.082	0.0149889
631.160	0.0150307
631.238	0.0149637
631.317	0.0149043
631.395	0.0150392
631.473	0.0148583
631.551	0.0150128
631.629	0.0149246
631.707	0.0149635
631.785	0.0148447
631.863	0.0147655
631.942	0.0148115
632.020	0.0148390
632.098	0.0148402
632.176	0.0148210
632.254	0.0148043
632.332	0.0148025
632.410	0.0148660
632.488	0.0147688
632.567	0.0147418
632.645	0.0147698
632.723	0.0147575
632.801	0.0147334
632.879	0.0148035
632.957	0.0148557
633.035	0.0148908
633.113	0.0149300
633.192	0.0148551
633.270	0.0147396
633.348	0.0147013
633.426	0.0150690
633.504	0.0149129
633.582	0.0148181
633.660	0.0148487
633.738	0.0148119
633.817	0.0147005
633.895	0.0148798
633.973	0.0148560
634.051	0.0147450
634.129	0.0148911
634.207	0.0147572
634.285	0.0146526
634.363	0.0145926
634.442	0.0147576
634.520	0.0146997
634.598	0.0147113
634.676	0.0146629
634.754	0.0146223
634.832	0.0146649
634.910	0.0147271
634.988	0.0146347
635.067	0.0145618
635.145	0.0147372
635.223	0.0145483
635.301	0.0148216
635.379	0.0147625
635.457	0.0146147
635.535	0.0146577
635.613	0.0147466
635.692	0.0148362
635.770	0.0147177
635.848	0.0147598
635.926	0.0147543
636.004	0.0148657
636.082	0.0148618
636.160	0.0147986
636.238	0.0149671
636.317	0.0147622
636.395	0.0148392
636.473	0.0147732
636.551	0.0148673
636.629	0.0147560
636.707	0.0148325
636.785	0.0148347
636.863	0.0148551
636.942	0.0147839
637.020	0.0147391
637.098	0.0148631
637.176	0.0148432
637.254	0.0147179
637.332	0.0148942
637.410	0.0149287
637.488	0.0148848
637.567	0.0150790
637.645	0.0149024
637.723	0.0148302
637.801	0.0149295
637.879	0.0148092
637.957	0.0149959
638.035	0.0148749
638.113	0.0149502
638.192	0.0148836
638.270	0.0148215
638.348	0.0147784
638.426	0.0147487
638.504	0.0149362
638.582	0.0146937
638.660	0.0147749
638.738	0.0145997
638.817	0.0147811
638.895	0.0146341
638.973	0.0145244
639.051	0.0145997
639.129	0.0147734
639.207	0.0145779
639.285	0.0147031
639.363	0.0147465
639.442	0.0145974
639.520	0.0147829
639.598	0.0147740
639.676	0.0147654
639.754	0.0147791
639.832	0.0149512
639.910	0.0148661
639.988	0.0147330
640.067	0.0148725
640.145	0.0148717
640.223	0.0147968
640.301	0.0148351
640.379	0.0149096
640.457	0.0147491
640.535	0.0147552
640.613	0.0147905
640.692	0.0149500
640.770	0.0148553
640.848	0.0150842
640.926	0.0150046
641.004	0.0149718
641.082	0.0149420
641.160	0.0148589
641.238	0.0147527
641.317	0.0147766
641.395	0.0148466
641.473	0.0147641
641.551	0.0147841
641.629	0.0148582
641.707	0.0147050
641.785	0.0147881
641.863	0.0148714
641.942	0.0148151
642.020	0.0147369
642.098	0.0149242
642.176	0.0147644
642.254	0.0147418
642.332	0.0148202
642.410	0.0147652
642.488	0.0148009
642.567	0.0148763
642.645	0.0146956
642.723	0.0146377
642.801	0.0146419
642.879	0.0145067
642.957	0.0145052
643.035	0.0144907
643.113	0.0144725
643.192	0.0145226
643.270	0.0145839
643.348	0.0144872
643.426	0.0144165
643.504	0.0143820
643.582	0.0143156
643.660	0.0144337
643.738	0.0145357
643.817	0.0144266
643.895	0.0143511
643.973	0.0146114
644.051	0.0145842
644.129	0.0145755
644.207	0.0146343
644.285	0.0146333
644.363	0.0146741
644.442	0.0146309
644.520	0.0146908
644.598	0.0147272
644.676	0.0146793
644.754	0.0147150
644.832	0.0146862
644.910	0.0147125
644.988	0.0146132
645.067	0.0147353
645.145	0.0147391
645.223	0.0147752
645.301	0.0146578
645.379	0.0146667
645.457	0.0146136
645.535	0.0145283
645.613	0.0146254
645.692	0.0147645
645.770	0.0145794
645.848	0.0146416
645.926	0.0145602
646.004	0.0146539
646.082	0.0146827
646.160	0.0146795
646.238	0.0148421
646.317	0.0147040
646.395	0.0147572
646.473	0.0148488
646.551	0.0146967
646.629	0.0146812
646.707	0.0147971
646.785	0.0146439
646.863	0.0146989
646.942	0.0147631
647.020	0.0147251
647.098	0.0147194
647.176	0.0146615
647.254	0.0148315
647.332	0.0147737
647.410	0.0147897
647.488	0.0146341
647.567	0.0147002
647.645	0.0147935
647.723	0.0147363
647.801	0.0146898
647.879	0.0147675
647.957	0.0147089
648.035	0.0146767
648.113	0.0147041
648.192	0.0146080
648.270	0.0148328
648.348	0.0147594
648.426	0.0148106
648.504	0.0148487
648.582	0.0147942
648.660	0.0147365
648.738	0.0147665
648.817	0.0148039
648.895	0.0150377
648.973	0.0149030
649.051	0.0148643
649.129	0.0149536
649.207	0.0151064
649.285	0.0149924
649.363	0.0151005
649.442	0.0151281
649.520	0.0151268
649.598	0.0152055
649.676	0.0153125
649.754	0.0152046
649.832	0.0151823
649.910	0.0152854
649.988	0.0152608
650.067	0.0151677
650.145	0.0152330
650.223	0.0152179
650.301	0.0152745
650.379	0.0153061
650.457	0.0150669
650.535	0.0150524
650.613	0.0149986
650.692	0.0150640
650.770	0.0151366
650.848	0.0148750
650.926	0.0149201
651.004	0.0149736
651.082	0.0149178
651.160	0.0148789
651.238	0.0147186
651.317	0.0147980
651.395	0.0148536
651.473	0.0147314
651.551	0.0146888
651.629	0.0145776
651.707	0.0147787
651.785	0.0147012
651.863	0.0147949
651.942	0.0147291
652.020	0.0148262
652.098	0.0148071
652.176	0.0149162
652.254	0.0147622
652.332	0.0148174
652.410	0.0148413
652.488	0.0147582
652.567	0.0148446
652.645	0.0147710
652.723	0.0148342
652.801	0.0147437
652.879	0.0146327
652.957	0.0146770
653.035	0.0145022
653.113	0.0147273
653.192	0.0145482
653.270	0.0144653
653.348	0.0146127
653.426	0.0144849
653.504	0.0143887
653.582	0.0143720
653.660	0.0145950
653.738	0.0146197
653.817	0.0145964
653.895	0.0144528
653.973	0.0145313
654.051	0.0148380
654.129	0.0146906
654.207	0.0148017
654.285	0.0149051
654.363	0.0148798
654.442	0.0147910
654.520	0.0148621
654.598	0.0147898
654.676	0.0148691
654.754	0.0148677
654.832	0.0148061
654.910	0.0147600
654.988	0.0147824
655.067	0.0147558
655.145	0.0146899
655.223	0.0147170
655.301	0.0146854
655.379	0.0144988
655.457	0.0145482
655.535	0.0146458
655.613	0.0146297
655.692	0.0145302
655.770	0.0146282
655.848	0.0145100
655.926	0.0145852
656.004	0.0145812
656.082	0.0146306
656.160	0.0145159
656.238	0.0147134
656.317	0.0145737
656.395	0.0147420
656.473	0.0147838
656.551	0.0148269
656.629	0.0148968
656.707	0.0147359
656.785	0.0147724
656.863	0.0147575
656.942	0.0148134
657.020	0.0147378
657.098	0.0149280
657.176	0.0147093
657.254	0.0148139
657.332	0.0148324
657.410	0.0149256
657.488	0.0148648
657.567	0.0147330
657.645	0.0148875
657.723	0.0148561
657.801	0.0148946
657.879	0.0148160
657.957	0.0146072
658.035	0.0147560
658.113	0.0148675
658.192	0.0148072
658.270	0.0147656
658.348	0.0148013
658.426	0.0147559
658.504	0.0147894
658.582	0.0148648
658.660	0.0147629
658.738	0.0149058
658.817	0.0149159
658.895	0.0148398
658.973	0.0147198
659.051	0.0147878
659.129	0.0148349
659.207	0.0148991
659.285	0.0148742
659.363	0.0147353
659.442	0.0149026
659.520	0.0148554
659.598	0.0148187
659.676	0.0147928
659.754	0.0147276
659.832	0.0148561
659.910	0.0146767
659.988	0.0147826
660.067	0.0145937
660.145	0.0146559
660.223	0.0146723
660.301	0.0146378
660.379	0.0147018
660.457	0.0146060
660.535	0.0146594
660.613	0.0146677
660.692	0.0145834
660.770	0.0145692
660.848	0.0146439
660.926	0.0144855
661.004	0.0146833
661.082	0.0147556
661.160	0.0145536
661.238	0.0145876
661.317	0.0146131
661.395	0.0146230
661.473	0.0144886
661.551	0.0145642
661.629	0.0145999
661.707	0.0146040
661.785	0.0147250
661.863	0.0146812
661.942	0.0145726
662.020	0.0147041
662.098	0.0146284
662.176	0.0146943
662.254	0.0146193
662.332	0.0146907
662.410	0.0146724
662.488	0.0148540
662.567	0.0147945
662.645	0.0146688
662.723	0.0145890
662.801	0.0146001
662.879	0.0147791
662.957	0.0148340
663.035	0.0148537
663.113	0.0146462
663.192	0.0148096
663.270	0.0147567
663.348	0.0147215
663.426	0.0147360
663.504	0.0147207
663.582	0.0147919
663.660	0.0146471
663.738	0.0146260
663.817	0.0145818
663.895	0.0144382
663.973	0.0145226
664.051	0.0146343
664.129	0.0145191
664.207	0.0146647
664.285	0.0147080
664.363	0.0145039
664.442	0.0145685
664.520	0.0145967
664.598	0.0146370
664.676	0.0146438
664.754	0.0147874
664.832	0.0146657
664.910	0.0146981
664.988	0.0147118
665.067	0.0149031
665.145	0.0146902
665.223	0.0147669
665.301	0.0148504
665.379	0.0148610
665.457	0.0146642
665.535	0.0148270
665.613	0.0146616
665.692	0.0147450
665.770	0.0147379
665.848	0.0147266
665.926	0.0145892
666.004	0.0146821
666.082	0.0146457
666.160	0.0146272
666.238	0.0146728
666.317	0.0146072
666.395	0.0146193
666.473	0.0146345
666.551	0.0146620
666.629	0.0147120
666.707	0.0146379
666.785	0.0146085
666.863	0.0147261
666.942	0.0147139
667.020	0.0147054
667.098	0.0146530
667.176	0.0146980
667.254	0.0147015
667.332	0.0147417
667.410	0.0146399
667.488	0.0148473
667.567	0.0148560
667.645	0.0147091
667.723	0.0147929
667.801	0.0147491
667.879	0.0148103
667.957	0.0146906
668.035	0.0147196
668.113	0.0147829
668.192	0.0147468
668.270	0.0148120
668.348	0.0147073
668.426	0.0146957
668.504	0.0147101
668.582	0.0146400
668.660	0.0146456
668.738	0.0145142
668.817	0.0144621
668.895	0.0144812
668.973	0.0146001
669.051	0.0144231
669.129	0.0145238
669.207	0.0145515
669.285	0.0144985
669.363	0.0146304
669.442	0.0146410
669.520	0.0145807
669.598	0.0147103
669.676	0.0146704
669.754	0.0148058
669.832	0.0147903
669.910	0.0147354
669.988	0.0147453
670.067	0.0149179
670.145	0.0147869
670.223	0.0148384
670.301	0.0147701
670.379	0.0149073
670.457	0.0147847
670.535	0.0147912
670.613	0.0149309
670.692	0.0148923
670.770	0.0148037
670.848	0.0149763
670.926	0.0148876
671.004	0.0147355
671.082	0.0149289
671.160	0.0149665
671.238	0.0148872
671.317	0.0148764
671.395	0.0149606
671.473	0.0149003
671.551	0.0149674
671.629	0.0149066
671.707	0.0149008
671.785	0.0148287
671.863	0.0148765
671.942	0.0148590
672.020	0.0148544
672.098	0.0149271
672.176	0.0149557
672.254	0.0149265
672.332	0.0147987
672.410	0.0147275
672.488	0.0148470
672.567	0.0147351
672.645	0.0147324
672.723	0.0147965
672.801	0.0147686
672.879	0.0147449
672.957	0.0147643
673.035	0.0146609
673.113	0.0146370
673.192	0.0145868
673.270	0.0147325
673.348	0.0147663
673.426	0.0147555
673.504	0.0147945
673.582	0.0147995
673.660	0.0147389
673.738	0.0147281
673.817	0.0147826
673.895	0.0148071
673.973	0.0147633
674.051	0.0148540
674.129	0.0149207
674.207	0.0148469
674.285	0.0149292
674.363	0.0148559
674.442	0.0147572
674.520	0.0149100
674.598	0.0148390
674.676	0.0148152
674.754	0.0148479
674.832	0.0147439
674.910	0.0148390
674.988	0.0148023
675.067	0.0147242
675.145	0.0146896
675.223	0.0146992
675.301	0.0145766
675.379	0.0145200
675.457	0.0145954
675.535	0.0145753
675.613	0.0145773
675.692	0.0143502
675.770	0.0144197
675.848	0.0144973
675.926	0.0145362
676.004	0.0145763
676.082	0.0145267
676.160	0.0144883
676.238	0.0144596
676.317	0.0145212
676.395	0.0145196
676.473	0.0144552
676.551	0.0145676
676.629	0.0145046
676.707	0.0144866
676.785	0.0146403
676.863	0.0145953
676.942	0.0146368
677.020	0.0146151
677.098	0.0147212
677.176	0.0147496
677.254	0.0147191
677.332	0.0147056
677.410	0.0147839
677.488	0.0149459
677.567	0.0148991
677.645	0.0150128
677.723	0.0149087
677.801	0.0150433
677.879	0.0151186
677.957	0.0151075
678.035	0.0151752
678.113	0.0150581
678.192	0.0149330
678.270	0.0150646
678.348	0.0150539
678.426	0.0148724
678.504	0.0149139
678.582	0.0148192
678.660	0.0148688
678.738	0.0147133
678.817	0.0146451
678.895	0.0147208
678.973	0.0147750
679.051	0.0145871
679.129	0.0146107
679.207	0.0146583
679.285	0.0146827
679.363	0.0145507
679.442	0.0145335
679.520	0.0145435
679.598	0.0146005
679.676	0.0145224
679.754	0.0144568
679.832	0.0146079
679.910	0.0146223
679.988	0.0145306
680.067	0.0145998
680.145	0.0146269
680.223	0.0145089
680.301	0.0146387
680.379	0.0145370
680.457	0.0144401
680.535	0.0145668
680.613	0.0145853
680.692	0.0146145
680.770	0.0146819
680.848	0.0147577
680.926	0.0148364
681.004	0.0149493
681.082	0.0149487
681.160	0.0149385
681.238	0.0150425
681.317	0.0150628
681.395	0.0150914
681.473	0.0151270
681.551	0.0152357
681.629	0.0151047
681.707	0.0152005
681.785	0.0151631
681.863	0.0151878
681.942	0.0152713
682.020	0.0150758
682.098	0.0152452
682.176	0.0153266
682.254	0.0151308
682.332	0.0151734
682.410	0.0152547
682.488	0.0149659
682.567	0.0151178
682.645	0.0150105
682.723	0.0150142
682.801	0.0150520
682.879	0.0150148
682.957	0.0149791
683.035	0.0147948
683.113	0.0147887
683.192	0.0148622
683.270	0.0147842
683.348	0.0147093
683.426	0.0147204
683.504	0.0147057
683.582	0.0146040
683.660	0.0145860
683.738	0.0145473
683.817	0.0145485
683.895	0.0144630
683.973	0.0145846
684.051	0.0145447
684.129	0.0144490
684.207	0.0144380
684.285	0.0144861
684.363	0.0143383
684.442	0.0144418
684.520	0.0144678
684.598	0.0144592
684.676	0.0145961
684.754	0.0144305
684.832	0.0144508
684.910	0.0146188
684.988	0.0145583
685.067	0.0146222
685.145	0.0144447
685.223	0.0145649
685.301	0.0146505
685.379	0.0147201
685.457	0.0146529
685.535	0.0148188
685.613	0.0148011
685.692	0.0148198
685.770	0.0148536
685.848	0.0149112
685.926	0.0148820
686.004	0.0149754
686.082	0.0150104
686.160	0.0149876
686.238	0.0149306
686.317	0.0149821
686.395	0.0150031
686.473	0.0148965
686.551	0.0148028
686.629	0.0148146
686.707	0.0147445
686.785	0.0147623
686.863	0.0147845
686.942	0.0148050
687.020	0.0147632
687.098	0.0147659
687.176	0.0146696
687.254	0.0147505
687.332	0.0144618
687.410	0.0147200
687.488	0.0144841
687.567	0.0145325
687.645	0.0144519
687.723	0.0145210
687.801	0.0145118
687.879	0.0145172
687.957	0.0143830
688.035	0.0143526
688.113	0.0144630
688.192	0.0145634
688.270	0.0145927
688.348	0.0145679
688.426	0.0144724
688.504	0.0145161
688.582	0.0146135
688.660	0.0144952
688.738	0.0146206
688.817	0.0145860
688.895	0.0148311
688.973	0.0146552
689.051	0.0145889
689.129	0.0144029
689.207	0.0146551
689.285	0.0145733
689.363	0.0144887
689.442	0.0145571
689.520	0.0144304
689.598	0.0143419
689.676	0.0144569
689.754	0.0143696
689.832	0.0144571
689.910	0.0145348
689.988	0.0145223
690.067	0.0144093
690.145	0.0145798
690.223	0.0144647
690.301	0.0145229
690.379	0.0146709
690.457	0.0148296
690.535	0.0146148
690.613	0.0147393
690.692	0.0147254
690.770	0.0147892
690.848	0.0147652
690.926	0.0147993
691.004	0.0147791
691.082	0.0150013
691.160	0.0149567
691.238	0.0147594
691.317	0.0149030
691.395	0.0150691
691.473	0.0148821
691.551	0.0149911
691.629	0.0149992
691.707	0.0148935
691.785	0.0149040
691.863	0.0149147
691.942	0.0151382
692.020	0.0149683
692.098	0.0148887
692.176	0.0150375
692.254	0.0149041
692.332	0.0149735
692.410	0.0149813
692.488	0.0148923
692.567	0.0147928
692.645	0.0148581
692.723	0.0148176
692.801	0.0147639
692.879	0.0148270
692.957	0.0147920
693.035	0.0148171
693.113	0.0148175
693.192	0.0147750
693.270	0.0148322
693.348	0.0147656
693.426	0.0148459
693.504	0.0148037
693.582	0.0148850
693.660	0.0147890
693.738	0.0147921
693.817	0.0149773
693.895	0.0148827
693.973	0.0149210
694.051	0.0149533
694.129	0.0150541
694.207	0.0150937
694.285	0.0150080
694.363	0.0150636
694.442	0.0150278
694.520	0.0151207
694.598	0.0151013
694.676	0.0152382
694.754	0.0151141
694.832	0.0151470
694.910	0.0152467
694.988	0.0151793
695.067	0.0152297
695.145	0.0150461
695.223	0.0151656
695.301	0.0153156
695.379	0.0150668
695.457	0.0151919
695.535	0.0150700
695.613	0.0150132
695.692	0.0150075
695.770	0.0149057
695.848	0.0150712
695.926	0.0150945
696.004	0.0149964
696.082	0.0150565
696.160	0.0148641
696.238	0.0147824
696.317	0.0149078
696.395	0.0149380
696.473	0.0149710
696.551	0.0149380
696.629	0.0147311
696.707	0.0146735
696.785	0.0147748
696.863	0.0146484
696.942	0.0147472
697.020	0.0146693
697.098	0.0145187
697.176	0.0144762
697.254	0.0146346
697.332	0.0145988
697.410	0.0144406
697.488	0.0144867
697.567	0.0143482
697.645	0.0144313
697.723	0.0144376
697.801	0.0145210
697.879	0.0143982
697.957	0.0144105
698.035	0.0144851
698.113	0.0145889
698.192	0.0144089
698.270	0.0146349
698.348	0.0146925
698.426	0.0146817
698.504	0.0145882
698.582	0.0147980
698.660	0.0147431
698.738	0.0146938
698.817	0.0146954
698.895	0.0147630
698.973	0.0149533
699.051	0.0148955
699.129	0.0148412
699.207	0.0149569
699.285	0.0149550
699.363	0.0148998
699.442	0.0149905
699.520	0.0149391
699.598	0.0149625
699.676	0.0149998
699.754	0.0149483
699.832	0.0148399
699.910	0.0149306
699.988	0.0148977
700.067	0.0147871
700.145	0.0147572
700.223	0.0147099
700.301	0.0146247
700.379	0.0144131
700.457	0.0145762
700.535	0.0144172
700.613	0.0144057
700.692	0.0144956
700.770	0.0144073
700.848	0.0142623
700.926	0.0141734
701.004	0.0143206
701.082	0.0142329
701.160	0.0142294
701.238	0.0142390
701.317	0.0142188
701.395	0.0142115
701.473	0.0142106
701.551	0.0143435
701.629	0.0142905
701.707	0.0143693
701.785	0.0144106
701.863	0.0145399
701.942	0.0145361
702.020	0.0145284
702.098	0.0145483
702.176	0.0146783
702.254	0.0147761
702.332	0.0147747
702.410	0.0148799
702.488	0.0149191
702.567	0.0148727
702.645	0.0149590
702.723	0.0150985
702.801	0.0150340
702.879	0.0151544
702.957	0.0150653
703.035	0.0152226
703.113	0.0151958
703.192	0.0149557
703.270	0.0149492
703.348	0.0153001
703.426	0.0152670
703.504	0.0152321
703.582	0.0153095
703.660	0.0151241
703.738	0.0152219
703.817	0.0151220
703.895	0.0152511
703.973	0.0151338
704.051	0.0152073
704.129	0.0151985
704.207	0.0151327
704.285	0.0151234
704.363	0.0151794
704.442	0.0151645
704.520	0.0151704
704.598	0.0151910
704.676	0.0150104
704.754	0.0150584
704.832	0.0150423
704.910	0.0149537
704.988	0.0150217
705.067	0.0149672
705.145	0.0149046
705.223	0.0149209
705.301	0.0149753
705.379	0.0149517
705.457	0.0149787
705.535	0.0149956
705.613	0.0149600
705.692	0.0150397
705.770	0.0148507
705.848	0.0149715
705.926	0.0148008
706.004	0.0149084
706.082	0.0149921
706.160	0.0148344
706.238	0.0149778
706.317	0.0148553
706.395	0.0149011
706.473	0.0149219
706.551	0.0149213
706.629	0.0148488
706.707	0.0149061
706.785	0.0148029
706.863	0.0149070
706.942	0.0149472
707.020	0.0147410
707.098	0.0149912
707.176	0.0150848
707.254	0.0149728
707.332	0.0149494
707.410	0.0148656
707.488	0.0148848
707.567	0.0148617
707.645	0.0147645
707.723	0.0148844
707.801	0.0149466
707.879	0.0147569
707.957	0.0147684
708.035	0.0148137
708.113	0.0148053
708.192	0.0149850
708.270	0.0149048
708.348	0.0149072
708.426	0.0149477
708.504	0.0148563
708.582	0.0150308
708.660	0.0149122
708.738	0.0148567
708.817	0.0150561
708.895	0.0150664
708.973	0.0148959
709.051	0.0147620
709.129	0.0149023
709.207	0.0149604
709.285	0.0149387
709.363	0.0148396
709.442	0.0149718
709.520	0.0149136
709.598	0.0149397
709.676	0.0149569
709.754	0.0148791
709.832	0.0149252
709.910	0.0149152
709.988	0.0149258
710.067	0.0149861
710.145	0.0149543
710.223	0.0149774
710.301	0.0149150
710.379	0.0148843
710.457	0.0147579
710.535	0.0147978
710.613	0.0147388
710.692	0.0146888
710.770	0.0146446
710.848	0.0146524
710.926	0.0147186
711.004	0.0145596
711.082	0.0146106
711.160	0.0145750
711.238	0.0145934
711.317	0.0144961
711.395	0.0145114
711.473	0.0144415
711.551	0.0145126
711.629	0.0145339
711.707	0.0145340
711.785	0.0144184
711.863	0.0144918
711.942	0.0144916
712.020	0.0146159
712.098	0.0145734
712.176	0.0144245
712.254	0.0145337
712.332	0.0145464
712.410	0.0145698
712.488	0.0147076
712.567	0.0146872
712.645	0.0146707
712.723	0.0146725
712.801	0.0147131
712.879	0.0147986
712.957	0.0148602
713.035	0.0148267
713.113	0.0147123
713.192	0.0148883
713.270	0.0148740
713.348	0.0148750
713.426	0.0148051
713.504	0.0149860
713.582	0.0150975
713.660	0.0151000
713.738	0.0150562
713.817	0.0149471
713.895	0.0149689
713.973	0.0150468
714.051	0.0150302
714.129	0.0151002
714.207	0.0151617
714.285	0.0149847
714.363	0.0151208
714.442	0.0151035
714.520	0.0150231
714.598	0.0151355
714.676	0.0151631
714.754	0.0150417
714.832	0.0151637
714.910	0.0152493
714.988	0.0151714
715.067	0.0151630
715.145	0.0151025
715.223	0.0151012
715.301	0.0151469
715.379	0.0151553
715.457	0.0150645
715.535	0.0152122
715.613	0.0151243
715.692	0.0150896
715.770	0.0150383
715.848	0.0149673
715.926	0.0150535
716.004	0.0150946
716.082	0.0149192
716.160	0.0149477
716.238	0.0149088
716.317	0.0149763
716.395	0.0148601
716.473	0.0149242
716.551	0.0147948
716.629	0.0148238
716.707	0.0148694
716.785	0.0149309
716.863	0.0146680
716.942	0.0148852
717.020	0.0148733
717.098	0.0148531
717.176	0.0148624
717.254	0.0147749
717.332	0.0148476
717.410	0.0148618
717.488	0.0146686
717.567	0.0146315
717.645	0.0146810
717.723	0.0147606
717.801	0.0147176
717.879	0.0149078
717.957	0.0147770
718.035	0.0146815
718.113	0.0148560
718.192	0.0148064
718.270	0.0147269
718.348	0.0149215
718.426	0.0147822
718.504	0.0147822
718.582	0.0147612
718.660	0.0147865
718.738	0.0148529
718.817	0.0147104
718.895	0.0148341
718.973	0.0148161
719.051	0.0146828
719.129	0.0146613
719.207	0.0148109
719.285	0.0147157
719.363	0.0146951
719.442	0.0147955
719.520	0.0147974
719.598	0.0147517
719.676	0.0147903
719.754	0.0147974
719.832	0.0148795
719.910	0.0149070
719.988	0.0147872
720.067	0.0147327
720.145	0.0147076
720.223	0.0147580
720.301	0.0147123
720.379	0.0146642
720.457	0.0147605
720.535	0.0146770
720.613	0.0148561
720.692	0.0147522
720.770	0.0145384
720.848	0.0147445
720.926	0.0146264
721.004	0.0146811
721.082	0.0146810
721.160	0.0144767
721.238	0.0146059
721.317	0.0145379
721.395	0.0144843
721.473	0.0144537
721.551	0.0144503
721.629	0.0145036
721.707	0.0145135
721.785	0.0146025
721.863	0.0144420
721.942	0.0144753
722.020	0.0145509
722.098	0.0145486
722.176	0.0145148
722.254	0.0146195
722.332	0.0145811
722.410	0.0147164
722.488	0.0146637
722.567	0.0146429
722.645	0.0146738
722.723	0.0146034
722.801	0.0146925
722.879	0.0147881
722.957	0.0145727
723.035	0.0147269
723.113	0.0147134
723.192	0.0145461
723.270	0.0145399
723.348	0.0147195
723.426	0.0146043
723.504	0.0146149
723.582	0.0147371
723.660	0.0146558
723.738	0.0146542
723.817	0.0146442
723.895	0.0147750
723.973	0.0147649
724.051	0.0146996
724.129	0.0147395
724.207	0.0147433
724.285	0.0147700
724.363	0.0148264
724.442	0.0146146
724.520	0.0147405
724.598	0.0148311
724.676	0.0147305
724.754	0.0147540
724.832	0.0148230
724.910	0.0147350
724.988	0.0147094
725.067	0.0148121
725.145	0.0148115
725.223	0.0146635
725.301	0.0148444
725.379	0.0146811
725.457	0.0148551
725.535	0.0148177
725.613	0.0148283
725.692	0.0149238
725.770	0.0149094
725.848	0.0149155
725.926	0.0148219
726.004	0.0149492
726.082	0.0149445
726.160	0.0148508
726.238	0.0148529
726.317	0.0148909
726.395	0.0148793
726.473	0.0149352
726.551	0.0149797
726.629	0.0148866
726.707	0.0149332
726.785	0.0148823
726.863	0.0148287
726.942	0.0147058
727.020	0.0147188
727.098	0.0147820
727.176	0.0148465
727.254	0.0149089
727.332	0.0148727
727.410	0.0147868
727.488	0.0149780
727.567	0.0148019
727.645	0.0147677
727.723	0.0147573
727.801	0.0147414
727.879	0.0147541
727.957	0.0149501
728.035	0.0148701
728.113	0.0147873
728.192	0.0147375
728.270	0.0148798
728.348	0.0149241
728.426	0.0149147
728.504	0.0148419
728.582	0.0148474
728.660	0.0147696
728.738	0.0147695
728.817	0.0148048
728.895	0.0148799
728.973	0.0148578
729.051	0.0149710
729.129	0.0147829
729.207	0.0147528
729.285	0.0147456
729.363	0.0147934
729.442	0.0148328
729.520	0.0148315
729.598	0.0148499
729.676	0.0149660
729.754	0.0148357
729.832	0.0148828
729.910	0.0149789
729.988	0.0149543
730.067	0.0149036
730.145	0.0148731
730.223	0.0147562
730.301	0.0148595
730.379	0.0147333
730.457	0.0147855
730.535	0.0146326
730.613	0.0146975
730.692	0.0147857
730.770	0.0148028
730.848	0.0147800
730.926	0.0146698
731.004	0.0147036
731.082	0.0146928
731.160	0.0147339
731.238	0.0146587
731.317	0.0146468
731.395	0.0146921
731.473	0.0146985
731.551	0.0146320
731.629	0.0146844
731.707	0.0145900
731.785	0.0146460
731.863	0.0145485
731.942	0.0145328
732.020	0.0144964
732.098	0.0146431
732.176	0.0145707
732.254	0.0145808
732.332	0.0145609
732.410	0.0145145
732.488	0.0144866
732.567	0.0145866
732.645	0.0144994
732.723	0.0144813
732.801	0.0145240
732.879	0.0144932
732.957	0.0146354
733.035	0.0146136
733.113	0.0145422
733.192	0.0145406
733.270	0.0144975
733.348	0.0146899
733.426	0.0146568
733.504	0.0147484
733.582	0.0148441
733.660	0.0147482
733.738	0.0148034
733.817	0.0148147
733.895	0.0148171
733.973	0.0149047
734.051	0.0150003
734.129	0.0150449
734.207	0.0149448
734.285	0.0149362
734.363	0.0149482
734.442	0.0149474
734.520	0.0148286
734.598	0.0149673
734.676	0.0149380
734.754	0.0151118
734.832	0.0148708
734.910	0.0148528
734.988	0.0148695
735.067	0.0148873
735.145	0.0146993
735.223	0.0149390
735.301	0.0149466
735.379	0.0149961
735.457	0.0149310
735.535	0.0149599
735.613	0.0150767
735.692	0.0148873
735.770	0.0149129
735.848	0.0150193
735.926	0.0150133
736.004	0.0150723
736.082	0.0150365
736.160	0.0150703
736.238	0.0150709
736.317	0.0150307
736.395	0.0151223
736.473	0.0150162
736.551	0.0149950
736.629	0.0149933
736.707	0.0150063
736.785	0.0148422
736.863	0.0150056
736.942	0.0149646
737.020	0.0147497
737.098	0.0148528
737.176	0.0149435
737.254	0.0147264
737.332	0.0147572
737.410	0.0149144
737.488	0.0149139
737.567	0.0148368
737.645	0.0148674
737.723	0.0149219
737.801	0.0148316
737.879	0.0146989
737.957	0.0148392
738.035	0.0149158
738.113	0.0148515
738.192	0.0148204
738.270	0.0149010
738.348	0.0149570
738.426	0.0149098
738.504	0.0147851
738.582	0.0148468
738.660	0.0147965
738.738	0.0147910
738.817	0.0147794
738.895	0.0147265
738.973	0.0148386
739.051	0.0147492
739.129	0.0146976
739.207	0.0148012
739.285	0.0146188
739.363	0.0147386
739.442	0.0147455
739.520	0.0147985
739.598	0.0146363
739.676	0.0146925
739.754	0.0146346
739.832	0.0146747
739.910	0.0147887
739.988	0.0147316
740.067	0.0147505
740.145	0.0147667
740.223	0.0147054
740.301	0.0147409
740.379	0.0148498
740.457	0.0149368
740.535	0.0147901
740.613	0.0148441
740.692	0.0148105
740.770	0.0149109
740.848	0.0148313
740.926	0.0148112
741.004	0.0148235
741.082	0.0147787
741.160	0.0148279
741.238	0.0147720
741.317	0.0146038
741.395	0.0145632
741.473	0.0147618
741.551	0.0148264
741.629	0.0145255
741.707	0.0145299
741.785	0.0147112
741.863	0.0145819
741.942	0.0145228
742.020	0.0145844
742.098	0.0145797
742.176	0.0145261
742.254	0.0145147
742.332	0.0145219
742.410	0.0145364
742.488	0.0145850
742.567	0.0145776
742.645	0.0145446
742.723	0.0145626
742.801	0.0146355
742.879	0.0144601
742.957	0.0145792
743.035	0.0144856
743.113	0.0146744
743.192	0.0146942
743.270	0.0145505
743.348	0.0145462
743.426	0.0145577
743.504	0.0146697
743.582	0.0146029
743.660	0.0146648
743.738	0.0146736
743.817	0.0146355
743.895	0.0146664
743.973	0.0147033
744.051	0.0146717
744.129	0.0146740
744.207	0.0145721
744.285	0.0146545
744.363	0.0146522
744.442	0.0147976
744.520	0.0147632
744.598	0.0147723
744.676	0.0146707
744.754	0.0146883
744.832	0.0147511
744.910	0.0146700
744.988	0.0146700
745.067	0.0147566
745.145	0.0146521
745.223	0.0147137
745.301	0.0147932
745.379	0.0147308
745.457	0.0146517
745.535	0.0147865
745.613	0.0146594
745.692	0.0147824
745.770	0.0147169
745.848	0.0147531
745.926	0.0149109
746.004	0.0147939
746.082	0.0147732
746.160	0.0148558
746.238	0.0147878
746.317	0.0147525
746.395	0.0146127
746.473	0.0147705
746.551	0.0149341
746.629	0.0147569
746.707	0.0147765
746.785	0.0147879
746.863	0.0149016
746.942	0.0147522
747.020	0.0147881
747.098	0.0147644
747.176	0.0147797
747.254	0.0147617
747.332	0.0148589
747.410	0.0147105
747.488	0.0146458
747.567	0.0147580
747.645	0.0146808
747.723	0.0147597
747.801	0.0147729
747.879	0.0146146
747.957	0.0146559
748.035	0.0146551
748.113	0.0146206
748.192	0.0148345
748.270	0.0148178
748.348	0.0147699
748.426	0.0147123
748.504	0.0147556
748.582	0.0146591
748.660	0.0146226
748.738	0.0147476
748.817	0.0146944
748.895	0.0146125
748.973	0.0145547
749.051	0.0147911
749.129	0.0146727
749.207	0.0147193
749.285	0.0145180
749.363	0.0146110
749.442	0.0146370
749.520	0.0146308
749.598	0.0146753
749.676	0.0145541
749.754	0.0145094
749.832	0.0145805
749.910	0.0146291
749.988	0.0145969
750.067	0.0146664
750.145	0.0145765
750.223	0.0145363
750.301	0.0146064
750.379	0.0146048
750.457	0.0145995
750.535	0.0146049
750.613	0.0145170
750.692	0.0145364
750.770	0.0146207
750.848	0.0147356
750.926	0.0145583
751.004	0.0146079
751.082	0.0146951
751.160	0.0147666
751.238	0.0146597
751.317	0.0146587
751.395	0.0146634
751.473	0.0146165
751.551	0.0148137
751.629	0.0145824
751.707	0.0145854
751.785	0.0145773
751.863	0.0146861
751.942	0.0147394
752.020	0.0147435
752.098	0.0146861
752.176	0.0146457
752.254	0.0146759
752.332	0.0147585
752.410	0.0147532
752.488	0.0145840
752.567	0.0146218
752.645	0.0144852
752.723	0.0146835
752.801	0.0146851
752.879	0.0147376
752.957	0.0146442
753.035	0.0146339
753.113	0.0148375
753.192	0.0147044
753.270	0.0146066
753.348	0.0147374
753.426	0.0149018
753.504	0.0147750
753.582	0.0148231
753.660	0.0146838
753.738	0.0148078
753.817	0.0147141
753.895	0.0148058
753.973	0.0148746
754.051	0.0148279
754.129	0.0147887
754.207	0.0147873
754.285	0.0147518
754.363	0.0148376
754.442	0.0149221
754.520	0.0149044
754.598	0.0147494
754.676	0.0147643
754.754	0.0147370
754.832	0.0148022
754.910	0.0148867
754.988	0.0147415
755.067	0.0148698
755.145	0.0149851
755.223	0.0147972
755.301	0.0147108
755.379	0.0147875
755.457	0.0147564
755.535	0.0147084
755.613	0.0146416
755.692	0.0145657
755.770	0.0147949
755.848	0.0147414
755.926	0.0146181
756.004	0.0147772
756.082	0.0147647
756.160	0.0148633
756.238	0.0147683
756.317	0.0147964
756.395	0.0147544
756.473	0.0147119
756.551	0.0147048
756.629	0.0149554
756.707	0.0149342
756.785	0.0148215
756.863	0.0147733
756.942	0.0148250
757.020	0.0148914
757.098	0.0147565
757.176	0.0147227
757.254	0.0147850
757.332	0.0147926
757.410	0.0147939
757.488	0.0148360
757.567	0.0147649
757.645	0.0147125
757.723	0.0147244
757.801	0.0147334
757.879	0.0147903
757.957	0.0148214
758.035	0.0147130
758.113	0.0148941
758.192	0.0147433
758.270	0.0148415
758.348	0.0149449
758.426	0.0147804
758.504	0.0147744
758.582	0.0146732
758.660	0.0147463
758.738	0.0148541
758.817	0.0148000
758.895	0.0147962
758.973	0.0148302
759.051	0.0148061
759.129	0.0148860
759.207	0.0147921
759.285	0.0148902
759.363	0.0148384
759.442	0.0149406
759.520	0.0150563
759.598	0.0149021
759.676	0.0149370
759.754	0.0149482
759.832	0.0148288
759.910	0.0148204
759.988	0.0148884
760.067	0.0149220
760.145	0.0149033
760.223	0.0148209
760.301	0.0147837
760.379	0.0147884
760.457	0.0147081
760.535	0.0146983
760.613	0.0148116
760.692	0.0145787
760.770	0.0147063
760.848	0.0146194
760.926	0.0146314
761.004	0.0146255
761.082	0.0146911
761.160	0.0146176
761.238	0.0147420
761.317	0.0146774
761.395	0.0145168
761.473	0.0146697
761.551	0.0146946
761.629	0.0145605
761.707	0.0146989
761.785	0.0147268
761.863	0.0147763
761.942	0.0146525
762.020	0.0145819
762.098	0.0145692
762.176	0.0146181
762.254	0.0146474
762.332	0.0146515
762.410	0.0146548
762.488	0.0147813
762.567	0.0146156
762.645	0.0146653
762.723	0.0147057
762.801	0.0147666
762.879	0.0146647
762.957	0.0146068
763.035	0.0147736
763.113	0.0146001
763.192	0.0146600
763.270	0.0147316
763.348	0.0147395
763.426	0.0147500
763.504	0.0148293
763.582	0.0148727
763.660	0.0147093
763.738	0.0146185
763.817	0.0147592
763.895	0.0146719
763.973	0.0146901
764.051	0.0148534
764.129	0.0146973
764.207	0.0146881
764.285	0.0147337
764.363	0.0148278
764.442	0.0148022
764.520	0.0147538
764.598	0.0147089
764.676	0.0146723
764.754	0.0147124
764.832	0.0148088
764.910	0.0146564
764.988	0.0146687
765.067	0.0147083
765.145	0.0147266
765.223	0.0147171
765.301	0.0145399
765.379	0.0146431
765.457	0.0147308
765.535	0.0146491
765.613	0.0146410
765.692	0.0146017
765.770	0.0145475
765.848	0.0145717
765.926	0.0144971
766.004	0.0144237
766.082	0.0146444
766.160	0.0146643
766.238	0.0144840
766.317	0.0146575
766.395	0.0146352
766.473	0.0145831
766.551	0.0145440
766.629	0.0145374
766.707	0.0146140
766.785	0.0145834
766.863	0.0147026
766.942	0.0147678
767.020	0.0147790
767.098	0.0147947
767.176	0.0147659
767.254	0.0148203
767.332	0.0146996
767.410	0.0148790
767.488	0.0148190
767.567	0.0149525
767.645	0.0149018
767.723	0.0148855
767.801	0.0148320
767.879	0.0148635
767.957	0.0150504
768.035	0.0150244
768.113	0.0149703
768.192	0.0149274
768.270	0.0150236
768.348	0.0149659
768.426	0.0149920
768.504	0.0149090
768.582	0.0149720
768.660	0.0148701
768.738	0.0150192
768.817	0.0149259
768.895	0.0149109
768.973	0.0150333
769.051	0.0149881
769.129	0.0149290
769.207	0.0147356
769.285	0.0148799
769.363	0.0151430
769.442	0.0148940
769.520	0.0146964
769.598	0.0148175
769.676	0.0149680
769.754	0.0148395
769.832	0.0147561
769.910	0.0146037
769.988	0.0147873
770.067	0.0148625
770.145	0.0149152
770.223	0.0147552
770.301	0.0148373
770.379	0.0147580
770.457	0.0147959
770.535	0.0146210
770.613	0.0147318
770.692	0.0148083
770.770	0.0147476
770.848	0.0148129
770.926	0.0148165
771.004	0.0149290
771.082	0.0148121
771.160	0.0149469
771.238	0.0148081
771.317	0.0148469
771.395	0.0148990
771.473	0.0147540
771.551	0.0148341
771.629	0.0149270
771.707	0.0149748
771.785	0.0148926
771.863	0.0148145
771.942	0.0149390
772.020	0.0149146
772.098	0.0147584
772.176	0.0147498
772.254	0.0148651
772.332	0.0148972
772.410	0.0149303
772.488	0.0149052
772.567	0.0148331
772.645	0.0148313
772.723	0.0148741
772.801	0.0148426
772.879	0.0148306
772.957	0.0149081
773.035	0.0147804
773.113	0.0149054
773.192	0.0148651
773.270	0.0147628
773.348	0.0147523
773.426	0.0148537
773.504	0.0148952
773.582	0.0146266
773.660	0.0147649
773.738	0.0148547
773.817	0.0147061
773.895	0.0147363
773.973	0.0147942
774.051	0.0148467
774.129	0.0148978
774.207	0.0147307
774.285	0.0146896
774.363	0.0146967
774.442	0.0146351
774.520	0.0148251
774.598	0.0147668
774.676	0.0148528
774.754	0.0148167
774.832	0.0148114
774.910	0.0149347
774.988	0.0149693
775.067	0.0148730
775.145	0.0148048
775.223	0.0147405
775.301	0.0148971
775.379	0.0147843
775.457	0.0147559
775.535	0.0147360
775.613	0.0149205
775.692	0.0149023
775.770	0.0148891
775.848	0.0147546
775.926	0.0147122
776.004	0.0147672
776.082	0.0149147
776.160	0.0149125
776.238	0.0147638
776.317	0.0149320
776.395	0.0148898
776.473	0.0147832
776.551	0.0147664
776.629	0.0148650
776.707	0.0149058
776.785	0.0147897
776.863	0.0147895
776.942	0.0150620
777.020	0.0148117
777.098	0.0146957
777.176	0.0148373
777.254	0.0149203
777.332	0.0148567
777.410	0.0147695
777.488	0.0146666
777.567	0.0147802
777.645	0.0147281
777.723	0.0149055
777.801	0.0149525
777.879	0.0148024
777.957	0.0148553
778.035	0.0146967
778.113	0.0147113
778.192	0.0148259
778.270	0.0148074
778.348	0.0148956
778.426	0.0147987
778.504	0.0146898
778.582	0.0147538
778.660	0.0148750
778.738	0.0148279
778.817	0.0147957
778.895	0.0149056
778.973	0.0149369
779.051	0.0147311
779.129	0.0148967
779.207	0.0148408
779.285	0.0147546
779.363	0.0148707
779.442	0.0147916
779.520	0.0148402
779.598	0.0149376
779.676	0.0147784
779.754	0.0147736
779.832	0.0148071
779.910	0.0148114
779.988	0.0148299
780.067	0.0148271
780.145	0.0148437
780.223	0.0148340
780.301	0.0148514
780.379	0.0148003
780.457	0.0149252
780.535	0.0148074
780.613	0.0148093
780.692	0.0148810
780.770	0.0149365
780.848	0.0148370
780.926	0.0149475
781.004	0.0148965
781.082	0.0148119
781.160	0.0149132
781.238	0.0149761
781.317	0.0148151
781.395	0.0148343
781.473	0.0149001
781.551	0.0147366
781.629	0.0148898
781.707	0.0148115
781.785	0.0148434
781.863	0.0148785
781.942	0.0148581
782.020	0.0148167
782.098	0.0148324
782.176	0.0148491
782.254	0.0148003
782.332	0.0146111
782.410	0.0148528
782.488	0.0148831
782.567	0.0148412
782.645	0.0146803
782.723	0.0148428
782.801	0.0148643
782.879	0.0147556
782.957	0.0148419
783.035	0.0147610
783.113	0.0146964
783.192	0.0146168
783.270	0.0146289
783.348	0.0146063
783.426	0.0147373
783.504	0.0146625
783.582	0.0147222
783.660	0.0146626
783.738	0.0146908
783.817	0.0147227
783.895	0.0146802
783.973	0.0146812
784.051	0.0145415
784.129	0.0145934
784.207	0.0145950
784.285	0.0145802
784.363	0.0147227
784.442	0.0147073
784.520	0.0146807
784.598	0.0146870
784.676	0.0146806
784.754	0.0147891
784.832	0.0148035
784.910	0.0145491
784.988	0.0146542
785.067	0.0145351
785.145	0.0148087
785.223	0.0148242
785.301	0.0146962
785.379	0.0147079
785.457	0.0147449
785.535	0.0146445
785.613	0.0146645
785.692	0.0145798
785.770	0.0145615
785.848	0.0146120
785.926	0.0147947
786.004	0.0146806
786.082	0.0147013
786.160	0.0145959
786.238	0.0146570
786.317	0.0148810
786.395	0.0148853
786.473	0.0146718
786.551	0.0147344
786.629	0.0147843
786.707	0.0147163
786.785	0.0147060
786.863	0.0147780
786.942	0.0148986
787.020	0.0147310
787.098	0.0148132
787.176	0.0149822
787.254	0.0147074
787.332	0.0147392
787.410	0.0148746
787.488	0.0148047
787.567	0.0146703
787.645	0.0148727
787.723	0.0147347
787.801	0.0147038
787.879	0.0148185
787.957	0.0148756
788.035	0.0147126
788.113	0.0149061
788.192	0.0146745
788.270	0.0149543
788.348	0.0148599
788.426	0.0147645
788.504	0.0146812
788.582	0.0148400
788.660	0.0148457
788.738	0.0148328
788.817	0.0147581
788.895	0.0147332
788.973	0.0148238
789.051	0.0146872
789.129	0.0147659
789.207	0.0147404
789.285	0.0147287
789.363	0.0146188
789.442	0.0147033
789.520	0.0146534
789.598	0.0147182
789.676	0.0146954
789.754	0.0147632
789.832	0.0147068
789.910	0.0146326
789.988	0.0146764
790.067	0.0147949
790.145	0.0146803
790.223	0.0147530
790.301	0.0148080
790.379	0.0148260
790.457	0.0149689
790.535	0.0149013
790.613	0.0148594
790.692	0.0149403
790.770	0.0150417
790.848	0.0149435
790.926	0.0148954
791.004	0.0150277
791.082	0.0149919
791.160	0.0148805
791.238	0.0151830
791.317	0.0150925
791.395	0.0151276
791.473	0.0149800
791.551	0.0149913
791.629	0.0151227
791.707	0.0149220
791.785	0.0150399
791.863	0.0151329
791.942	0.0149924
792.020	0.0149860
792.098	0.0149715
792.176	0.0150436
792.254	0.0149012
792.332	0.0150038
792.410	0.0149953
792.488	0.0148397
792.567	0.0149220
792.645	0.0150147
792.723	0.0149045
792.801	0.0149567
792.879	0.0149362
792.957	0.0149281
793.035	0.0149417
793.113	0.0149155
793.192	0.0148566
793.270	0.0147520
793.348	0.0148035
793.426	0.0149338
793.504	0.0148804
793.582	0.0148387
793.660	0.0149509
793.738	0.0150012
793.817	0.0147368
793.895	0.0148413
793.973	0.0146751
794.051	0.0147357
794.129	0.0147626
794.207	0.0147188
794.285	0.0148819
794.363	0.0146365
794.442	0.0146803
794.520	0.0147871
794.598	0.0146715
794.676	0.0145681
794.754	0.0147126
794.832	0.0146500
794.910	0.0145816
794.988	0.0145858
795.067	0.0146584
795.145	0.0147231
795.223	0.0146595
795.301	0.0146395
795.379	0.0145671
795.457	0.0145800
795.535	0.0146128
795.613	0.0146571
795.692	0.0146241
795.770	0.0146564
795.848	0.0147668
795.926	0.0147192
796.004	0.0146394
796.082	0.0146400
796.160	0.0147588
796.238	0.0146364
796.317	0.0147115
796.395	0.0147232
796.473	0.0147675
796.551	0.0146259
796.629	0.0147868
796.707	0.0146602
796.785	0.0145277
796.863	0.0146082
796.942	0.0147974
797.020	0.0146131
797.098	0.0145200
797.176	0.0146304
797.254	0.0148170
797.332	0.0146207
797.410	0.0146238
797.488	0.0146184
797.567	0.0146554
797.645	0.0146100
797.723	0.0146315
797.801	0.0146441
797.879	0.0146187
797.957	0.0145631
798.035	0.0146099
798.113	0.0144827
798.192	0.0146014
798.270	0.0146517
798.348	0.0146939
798.426	0.0147664
798.504	0.0147406
798.582	0.0146838
798.660	0.0148562
798.738	0.0146609
798.817	0.0148420
798.895	0.0149671
798.973	0.0149126
799.051	0.0148453
799.129	0.0148463
799.207	0.0149773
799.285	0.0147536
799.363	0.0149910
799.442	0.0148538
799.520	0.0147958
799.598	0.0149738
799.676	0.0148154
799.754	0.0150267
799.832	0.0150465
799.910	0.0149860
799.988	0.0148905
800.067	0.0149056
800.145	0.0150092
800.223	0.0149146
800.301	0.0148612
800.379	0.0149006
800.457	0.0148851
800.535	0.0147562
800.613	0.0148881
800.692	0.0149018
800.770	0.0147851
800.848	0.0149374
800.926	0.0149438
801.004	0.0148014
801.082	0.0147136
801.160	0.0148370
801.238	0.0148347
801.317	0.0148323
801.395	0.0149376
801.473	0.0148819
801.551	0.0147437
801.629	0.0148046
801.707	0.0147941
801.785	0.0148950
801.863	0.0147560
801.942	0.0149213
802.020	0.0148429
802.098	0.0147855
802.176	0.0148363
802.254	0.0147595
802.332	0.0147671
802.410	0.0148547
802.488	0.0148515
802.567	0.0148081
802.645	0.0148476
802.723	0.0147718
802.801	0.0147523
802.879	0.0147879
802.957	0.0147577
803.035	0.0147371
803.113	0.0146658
803.192	0.0147795
803.270	0.0148028
803.348	0.0147382
803.426	0.0146758
803.504	0.0147890
803.582	0.0147738
803.660	0.0148560
803.738	0.0148258
803.817	0.0147929
803.895	0.0146918
803.973	0.0146908
804.051	0.0146982
804.129	0.0147708
804.207	0.0147505
804.285	0.0146732
804.363	0.0146433
804.442	0.0146458
804.520	0.0145404
804.598	0.0146266
804.676	0.0145809
804.754	0.0146487
804.832	0.0147700
804.910	0.0147260
804.988	0.0146382
805.067	0.0145998
805.145	0.0146780
805.223	0.0147287
805.301	0.0147202
805.379	0.0147780
805.457	0.0146258
805.535	0.0145366
805.613	0.0147198
805.692	0.0145971
805.770	0.0147337
805.848	0.0146176
805.926	0.0146201
806.004	0.0146419
806.082	0.0146966
806.160	0.0145081
806.238	0.0146577
806.317	0.0146336
806.395	0.0146245
806.473	0.0146429
806.551	0.0145382
806.629	0.0147069
806.707	0.0147912
806.785	0.0145107
806.863	0.0147092
806.942	0.0147997
807.020	0.0147769
807.098	0.0147763
807.176	0.0148787
807.254	0.0150232
807.332	0.0148630
807.410	0.0148520
807.488	0.0148150
807.567	0.0147153
807.645	0.0149374
807.723	0.0150615
807.801	0.0149679
807.879	0.0149629
807.957	0.0149556
808.035	0.0149614
808.113	0.0149391
808.192	0.0150396
808.270	0.0150138
808.348	0.0149608
808.426	0.0150388
808.504	0.0148516
808.582	0.0149056
808.660	0.0148536
808.738	0.0148673
808.817	0.0149538
808.895	0.0150803
808.973	0.0149392
809.051	0.0147961
809.129	0.0147787
809.207	0.0148403
809.285	0.0148524
809.363	0.0147182
809.442	0.0147932
809.520	0.0148179
809.598	0.0148243
809.676	0.0146609
809.754	0.0147197
809.832	0.0148165
809.910	0.0147711
809.988	0.0146954
810.067	0.0147483
810.145	0.0147698
810.223	0.0147265
810.301	0.0149109
810.379	0.0148334
810.457	0.0147250
810.535	0.0148800
810.613	0.0149423
810.692	0.0149381
810.770	0.0149702
810.848	0.0148616
810.926	0.0149387
811.004	0.0150026
811.082	0.0148992
811.160	0.0148006
811.238	0.0148993
811.317	0.0149391
811.395	0.0148769
811.473	0.0149134
811.551	0.0148895
811.629	0.0148273
811.707	0.0147955
811.785	0.0147749
811.863	0.0148930
811.942	0.0148033
812.020	0.0147758
812.098	0.0148185
812.176	0.0147769
812.254	0.0147871
812.332	0.0148313
812.410	0.0147261
812.488	0.0147652
812.567	0.0147477
812.645	0.0146262
812.723	0.0146647
812.801	0.0146320
812.879	0.0147042
812.957	0.0148128
813.035	0.0146682
813.113	0.0147222
813.192	0.0147544
813.270	0.0147028
813.348	0.0146870
813.426	0.0145957
813.504	0.0146494
813.582	0.0147215
813.660	0.0146013
813.738	0.0146111
813.817	0.0146828
813.895	0.0147610
813.973	0.0146902
814.051	0.0146864
814.129	0.0147139
814.207	0.0148347
814.285	0.0147686
814.363	0.0147413
814.442	0.0146664
814.520	0.0147688
814.598	0.0148510
814.676	0.0150583
814.754	0.0147875
814.832	0.0147768
814.910	0.0148400
814.988	0.0148862
815.067	0.0148808
815.145	0.0148939
815.223	0.0148842
815.301	0.0148901
815.379	0.0148755
815.457	0.0147988
815.535	0.0147999
815.613	0.0148562
815.692	0.0149082
815.770	0.0147324
815.848	0.0148093
815.926	0.0147770
816.004	0.0148252
816.082	0.0148456
816.160	0.0146667
816.238	0.0148186
816.317	0.0150372
816.395	0.0146390
816.473	0.0145480
816.551	0.0148006
816.629	0.0146399
816.707	0.0146680
816.785	0.0146928
816.863	0.0147046
816.942	0.0147994
817.020	0.0146629
817.098	0.0146268
817.176	0.0147100
817.254	0.0145944
817.332	0.0146725
817.410	0.0147964
817.488	0.0146054
817.567	0.0145739
817.645	0.0146514
817.723	0.0148254
817.801	0.0147436
817.879	0.0148223
817.957	0.0145647
818.035	0.0146782
818.113	0.0146330
818.192	0.0146402
818.270	0.0147729
818.348	0.0146381
818.426	0.0148146
818.504	0.0147080
818.582	0.0146526
818.660	0.0146976
818.738	0.0147408
818.817	0.0145617
818.895	0.0147051
818.973	0.0147164
819.051	0.0146500
819.129	0.0146643
819.207	0.0146920
819.285	0.0146396
819.363	0.0147157
819.442	0.0146348
819.520	0.0146323
819.598	0.0147353
819.676	0.0148373
819.754	0.0146293
819.832	0.0145904
819.910	0.0146772
819.988	0.0147290
820.067	0.0147661
820.145	0.0146815
820.223	0.0148005
820.301	0.0148256
820.379	0.0148302
820.457	0.0146995
820.535	0.0148249
820.613	0.0146819
820.692	0.0146782
820.770	0.0147435
820.848	0.0147205
820.926	0.0147218
821.004	0.0148484
821.082	0.0147425
821.160	0.0147282
821.238	0.0147469
821.317	0.0147554
821.395	0.0147948
821.473	0.0148051
821.551	0.0147438
821.629	0.0148830
821.707	0.0148018
821.785	0.0148904
821.863	0.0147874
821.942	0.0148050
822.020	0.0148207
822.098	0.0148734
822.176	0.0146583
822.254	0.0147557
822.332	0.0148019
822.410	0.0148616
822.488	0.0147271
822.567	0.0148156
822.645	0.0145344
822.723	0.0146210
822.801	0.0146922
822.879	0.0146185
822.957	0.0147154
823.035	0.0147756
823.113	0.0148039
823.192	0.0145802
823.270	0.0146097
823.348	0.0146182
823.426	0.0146073
823.504	0.0144704
823.582	0.0144933
823.660	0.0145467
823.738	0.0145999
823.817	0.0145895
823.895	0.0144979
823.973	0.0145824
824.051	0.0145410
824.129	0.0145775
824.207	0.0145339
824.285	0.0145729
824.363	0.0145808
824.442	0.0146438
824.520	0.0145737
824.598	0.0144673
824.676	0.0145766
824.754	0.0144985
824.832	0.0144326
824.910	0.0146151
824.988	0.0144360
825.067	0.0144686
825.145	0.0144867
825.223	0.0145324
825.301	0.0145864
825.379	0.0145329
825.457	0.0144798
825.535	0.0144232
825.613	0.0144101
825.692	0.0146133
825.770	0.0143694
825.848	0.0144173
825.926	0.0146617
826.004	0.0146333
826.082	0.0145535
826.160	0.0144724
826.238	0.0145719
826.317	0.0145838
826.395	0.0146391
826.473	0.0144574
826.551	0.0146623
826.629	0.0146746
826.707	0.0145131
826.785	0.0146828
826.863	0.0147219
826.942	0.0146792
827.020	0.0144603
827.098	0.0145586
827.176	0.0146684
827.254	0.0146995
827.332	0.0148051
827.410	0.0146900
827.488	0.0148097
827.567	0.0146832
827.645	0.0147653
827.723	0.0147716
827.801	0.0148460
827.879	0.0146400
827.957	0.0147043
828.035	0.0148695
828.113	0.0148653
828.192	0.0148372
828.270	0.0148323
828.348	0.0148321
828.426	0.0148656
828.504	0.0147237
828.582	0.0149226
828.660	0.0148544
828.738	0.0148163
828.817	0.0147469
828.895	0.0147593
828.973	0.0148381
829.051	0.0149701
829.129	0.0148531
829.207	0.0147466
829.285	0.0148512
829.363	0.0147868
829.442	0.0147724
829.520	0.0147557
829.598	0.0149423
829.676	0.0149059
829.754	0.0149609
829.832	0.0147043
829.910	0.0148040
829.988	0.0148357
830.067	0.0148016
830.145	0.0148857
830.223	0.0147980
830.301	0.0147343
830.379	0.0148559
830.457	0.0147932
830.535	0.0147457
830.613	0.0149559
830.692	0.0147751
830.770	0.0147890
830.848	0.0148483
830.926	0.0147117
831.004	0.0147009
831.082	0.0147127
831.160	0.0147961
831.238	0.0148341
831.317	0.0147224
831.395	0.0147686
831.473	0.0148803
831.551	0.0147482
831.629	0.0148140
831.707	0.0148292
831.785	0.0146542
831.863	0.0146906
831.942	0.0145664
832.020	0.0148244
832.098	0.0147462
832.176	0.0147417
832.254	0.0146401
832.332	0.0147761
832.410	0.0147055
832.488	0.0146860
832.567	0.0147936
832.645	0.0147765
832.723	0.0146635
832.801	0.0146105
832.879	0.0147089
832.957	0.0147078
833.035	0.0147934
833.113	0.0148337
833.192	0.0147623
833.270	0.0148474
833.348	0.0148075
833.426	0.0146909
833.504	0.0147781
833.582	0.0148131
833.660	0.0147899
833.738	0.0148943
833.817	0.0148099
833.895	0.0146175
833.973	0.0149689
834.051	0.0148418
834.129	0.0147875
834.207	0.0147986
834.285	0.0147324
834.363	0.0147636
834.442	0.0148453
834.520	0.0148724
834.598	0.0147816
834.676	0.0148811
834.754	0.0148508
834.832	0.0146751
834.910	0.0148740
834.988	0.0147874
835.067	0.0147879
835.145	0.0147346
835.223	0.0147312
835.301	0.0148257
835.379	0.0148602
835.457	0.0147762
835.535	0.0147729
835.613	0.0146877
835.692	0.0147540
835.770	0.0147357
835.848	0.0147395
835.926	0.0147546
836.004	0.0146986
836.082	0.0147284
836.160	0.0146101
836.238	0.0145475
836.317	0.0147731
836.395	0.0147843
836.473	0.0147012
836.551	0.0146951
836.629	0.0147313
836.707	0.0147112
836.785	0.0146249
836.863	0.0147601
836.942	0.0145943
837.020	0.0147489
837.098	0.0147662
837.176	0.0146912
837.254	0.0146095
837.332	0.0148270
837.410	0.0146501
837.488	0.0146712
837.567	0.0147988
837.645	0.0146135
837.723	0.0147070
837.801	0.0148055
837.879	0.0147297
837.957	0.0147019
838.035	0.0148138
838.113	0.0150552
838.192	0.0148994
838.270	0.0147270
838.348	0.0150124
838.426	0.0149229
838.504	0.0149470
838.582	0.0150093
838.660	0.0148936
838.738	0.0148978
838.817	0.0150852
838.895	0.0148917
838.973	0.0148757
839.051	0.0150410
839.129	0.0150482
839.207	0.0150743
839.285	0.0151691
839.363	0.0150113
839.442	0.0150991
839.520	0.0150903
839.598	0.0150053
839.676	0.0151221
839.754	0.0150786
839.832	0.0150274
839.910	0.0150341
839.988	0.0150224
840.067	0.0151288
840.145	0.0150062
840.223	0.0151114
840.301	0.0150360
840.379	0.0150748
840.457	0.0150968
840.535	0.0150027
840.613	0.0149919
840.692	0.0151623
840.770	0.0148549
840.848	0.0150858
840.926	0.0151526
841.004	0.0150623
841.082	0.0148246
841.160	0.0149419
841.238	0.0149246
841.317	0.0150427
841.395	0.0148887
841.473	0.0148557
841.551	0.0147880
841.629	0.0148615
841.707	0.0149237
841.785	0.0147505
841.863	0.0147983
841.942	0.0148399
842.020	0.0148124
842.098	0.0148215
842.176	0.0147551
842.254	0.0150190
842.332	0.0149015
842.410	0.0145676
842.488	0.0148772
842.567	0.0147622
842.645	0.0148221
842.723	0.0148164
842.801	0.0147356
842.879	0.0146952
842.957	0.0147997
843.035	0.0147256
843.113	0.0147076
843.192	0.0146971
843.270	0.0148004
843.348	0.0146702
843.426	0.0148161
843.504	0.0147794
843.582	0.0147318
843.660	0.0146801
843.738	0.0145188
843.817	0.0145935
843.895	0.0146494
843.973	0.0146707
844.051	0.0146548
844.129	0.0145740
844.207	0.0145650
844.285	0.0146338
844.363	0.0146117
844.442	0.0143578
844.520	0.0144486
844.598	0.0146088
844.676	0.0146546
844.754	0.0144576
844.832	0.0143223
844.910	0.0144578
844.988	0.0144131
845.067	0.0144447
845.145	0.0144867
845.223	0.0143957
845.301	0.0144257
845.379	0.0143751
845.457	0.0142513
845.535	0.0144218
845.613	0.0145417
845.692	0.0143906
845.770	0.0143172
845.848	0.0143874
845.926	0.0143346
846.004	0.0143924
846.082	0.0144469
846.160	0.0145325
846.238	0.0144853
846.317	0.0144864
846.395	0.0144229
846.473	0.0144618
846.551	0.0144272
846.629	0.0144460
846.707	0.0146706
846.785	0.0145638
846.863	0.0145031
846.942	0.0145703
847.020	0.0146805
847.098	0.0146204
847.176	0.0146218
847.254	0.0147521
847.332	0.0146432
847.410	0.0145468
847.488	0.0147069
847.567	0.0148146
847.645	0.0146149
847.723	0.0150237
847.801	0.0148004
847.879	0.0148206
847.957	0.0148016
848.035	0.0149361
848.113	0.0148827
848.192	0.0148794
848.270	0.0149305
848.348	0.0149275
848.426	0.0148620
848.504	0.0148177
848.582	0.0148305
848.660	0.0149127
848.738	0.0150254
848.817	0.0148315
848.895	0.0147498
848.973	0.0147287
849.051	0.0148530
849.129	0.0149724
849.207	0.0149507
849.285	0.0148930
849.363	0.0149684
849.442	0.0149012
849.520	0.0149136
849.598	0.0149512
849.676	0.0149852
849.754	0.0150151
849.832	0.0149822
849.910	0.0150700
849.988	0.0150105
850.067	0.0149480
850.145	0.0150069
850.223	0.0150511
850.301	0.0152379
850.379	0.0151096
850.457	0.0149547
850.535	0.0150188
850.613	0.0151241
850.692	0.0150155
850.770	0.0151082
850.848	0.0150526
850.926	0.0151618
851.004	0.0150029
851.082	0.0149245
851.160	0.0152361
851.238	0.0150380
851.317	0.0150249
851.395	0.0150809
851.473	0.0150481
851.551	0.0151128
851.629	0.0151244
851.707	0.0152625
851.785	0.0149931
851.863	0.0151044
851.942	0.0151772
852.020	0.0151045
852.098	0.0148830
852.176	0.0149255
852.254	0.0150902
852.332	0.0150618
852.410	0.0149603
852.488	0.0150027
852.567	0.0150913
852.645	0.0150224
852.723	0.0149320
852.801	0.0149222
852.879	0.0149395
852.957	0.0149794
853.035	0.0149870
853.113	0.0148848
853.192	0.0148788
853.270	0.0149335
853.348	0.0149355
853.426	0.0148826
853.504	0.0149139
853.582	0.0147645
853.660	0.0148859
853.738	0.0148809
853.817	0.0146994
853.895	0.0147632
853.973	0.0147300
854.051	0.0147139
854.129	0.0147437
854.207	0.0147137
854.285	0.0147987
854.363	0.0146430
854.442	0.0146563
854.520	0.0147163
854.598	0.0145345
854.676	0.0145959
854.754	0.0146453
854.832	0.0145798
854.910	0.0146178
854.988	0.0148217
855.067	0.0145432
855.145	0.0146528
855.223	0.0147069
855.301	0.0146674
855.379	0.0145097
855.457	0.0146772
855.535	0.0147056
855.613	0.0146767
855.692	0.0148374
855.770	0.0146308
855.848	0.0146108
855.926	0.0145840
856.004	0.0147778
856.082	0.0147414
856.160	0.0147535
856.238	0.0146017
856.317	0.0147706
856.395	0.0147435
856.473	0.0146674
856.551	0.0147388
856.629	0.0147114
856.707	0.0146297
856.785	0.0145119
856.863	0.0145642
856.942	0.0147177
857.020	0.0147503
857.098	0.0147456
857.176	0.0146474
857.254	0.0147318
857.332	0.0147061
857.410	0.0147681
857.488	0.0148499
857.567	0.0149126
857.645	0.0147528
857.723	0.0148297
857.801	0.0148826
857.879	0.0147134
857.957	0.0148333
858.035	0.0148733
858.113	0.0149541
858.192	0.0148438
858.270	0.0148508
858.348	0.0148060
858.426	0.0149319
858.504	0.0148895
858.582	0.0148218
858.660	0.0147466
858.738	0.0147122
858.817	0.0149532
858.895	0.0147466
858.973	0.0146985
859.051	0.0147946
859.129	0.0147294
859.207	0.0147231
859.285	0.0147656
859.363	0.0148167
859.442	0.0148640
859.520	0.0147193
859.598	0.0146970
859.676	0.0147020
859.754	0.0146564
859.832	0.0146936
859.910	0.0147845
859.988	0.0147277
860.067	0.0148925
860.145	0.0148720
860.223	0.0147275
860.301	0.0148486
860.379	0.0148466
860.457	0.0148045
860.535	0.0147511
860.613	0.0148591
860.692	0.0148605
860.770	0.0148313
860.848	0.0148561
860.926	0.0148308
861.004	0.0148421
861.082	0.0148589
861.160	0.0147421
861.238	0.0148705
861.317	0.0149960
861.395	0.0147229
861.473	0.0148618
861.551	0.0148087
861.629	0.0147315
861.707	0.0147979
861.785	0.0148711
861.863	0.0149939
861.942	0.0148431
862.020	0.0148489
862.098	0.0148072
862.176	0.0148316
862.254	0.0147919
862.332	0.0148080
862.410	0.0148480
862.488	0.0147707
862.567	0.0149042
862.645	0.0147823
862.723	0.0148178
862.801	0.0146412
862.879	0.0148093
862.957	0.0147758
863.035	0.0148883
863.113	0.0147588
863.192	0.0148006
863.270	0.0147540
863.348	0.0148462
863.426	0.0149844
863.504	0.0148398
863.582	0.0147076
863.660	0.0146454
863.738	0.0146712
863.817	0.0147459
863.895	0.0147070
863.973	0.0147775
864.051	0.0147034
864.129	0.0148330
864.207	0.0147337
864.285	0.0147495
864.363	0.0147711
864.442	0.0147294
864.520	0.0148723
864.598	0.0147276
864.676	0.0146413
864.754	0.0147885
864.832	0.0147877
864.910	0.0147500
864.988	0.0147650
865.067	0.0147664
865.145	0.0148361
865.223	0.0147340
865.301	0.0148045
865.379	0.0148437
865.457	0.0148685
865.535	0.0149331
865.613	0.0148724
865.692	0.0147343
865.770	0.0148595
865.848	0.0147221
865.926	0.0147379
866.004	0.0148370
866.082	0.0147977
866.160	0.0148620
866.238	0.0149165
866.317	0.0148817
866.395	0.0149047
866.473	0.0148844
866.551	0.0149190
866.629	0.0149797
866.707	0.0149229
866.785	0.0150035
866.863	0.0148416
866.942	0.0149863
867.020	0.0150157
867.098	0.0149145
867.176	0.0149113
867.254	0.0149507
867.332	0.0149140
867.410	0.0147616
867.488	0.0149151
867.567	0.0148787
867.645	0.0149087
867.723	0.0149250
867.801	0.0148055
867.879	0.0147553
867.957	0.0148730
868.035	0.0147769
868.113	0.0147765
868.192	0.0148722
868.270	0.0147263
868.348	0.0147147
868.426	0.0147288
868.504	0.0145934
868.582	0.0146864
868.660	0.0147847
868.738	0.0146665
868.817	0.0146420
868.895	0.0145850
868.973	0.0145683
869.051	0.0147053
869.129	0.0145361
869.207	0.0145469
869.285	0.0146326
869.363	0.0147444
869.442	0.0146729
869.520	0.0146591
869.598	0.0147542
869.676	0.0147051
869.754	0.0147808
869.832	0.0147694
869.910	0.0148058
869.988	0.0148310
870.067	0.0148117
870.145	0.0147866
870.223	0.0147963
870.301	0.0148541
870.379	0.0148996
870.457	0.0148774
870.535	0.0147881
870.613	0.0148820
870.692	0.0149433
870.770	0.0148952
870.848	0.0150109
870.926	0.0148376
871.004	0.0149250
871.082	0.0149164
871.160	0.0149754
871.238	0.0150760
871.317	0.0148299
871.395	0.0149529
871.473	0.0150309
871.551	0.0149496
871.629	0.0149689
871.707	0.0148848
871.785	0.0149010
871.863	0.0149745
871.942	0.0148620
872.020	0.0148064
872.098	0.0149286
872.176	0.0150500
872.254	0.0149711
872.332	0.0148863
872.410	0.0147593
872.488	0.0147557
872.567	0.0148058
872.645	0.0149609
872.723	0.0148519
872.801	0.0147962
872.879	0.0148051
872.957	0.0146892
873.035	0.0149442
873.113	0.0147919
873.192	0.0149782
873.270	0.0149482
873.348	0.0148399
873.426	0.0148254
873.504	0.0147880
873.582	0.0149043
873.660	0.0148225
873.738	0.0148146
873.817	0.0149002
873.895	0.0148212
873.973	0.0148215
874.051	0.0148738
874.129	0.0148328
874.207	0.0149429
874.285	0.0149155
874.363	0.0148659
874.442	0.0146414
874.520	0.0145811
874.598	0.0147006
874.676	0.0145989
874.754	0.0147446
874.832	0.0147436
874.910	0.0146866
874.988	0.0145670
875.067	0.0144980
875.145	0.0145552
875.223	0.0147292
875.301	0.0147178
875.379	0.0145595
875.457	0.0145801
875.535	0.0148172
875.613	0.0146558
875.692	0.0147086
875.770	0.0147231
875.848	0.0146074
875.926	0.0146347
876.004	0.0148546
876.082	0.0149015
876.160	0.0147358
876.238	0.0147193
876.317	0.0148322
876.395	0.0146263
876.473	0.0147817
876.551	0.0147888
876.629	0.0147910
876.707	0.0147830
876.785	0.0148794
876.863	0.0148997
876.942	0.0147864
877.020	0.0148404
877.098	0.0147318
877.176	0.0147556
877.254	0.0148182
877.332	0.0148967
877.410	0.0148576
877.488	0.0148786
877.567	0.0149672
877.645	0.0148985
877.723	0.0149245
877.801	0.0148033
877.879	0.0149609
877.957	0.0148975
878.035	0.0148955
878.113	0.0149829
878.192	0.0149552
878.270	0.0149165
878.348	0.0151150
878.426	0.0149129
878.504	0.0150751
878.582	0.0149016
878.660	0.0150005
878.738	0.0150344
878.817	0.0149803
878.895	0.0148424
878.973	0.0148933
879.051	0.0149378
879.129	0.0148190
879.207	0.0148664
879.285	0.0149829
879.363	0.0149953
879.442	0.0147127
879.520	0.0149052
879.598	0.0149556
879.676	0.0148779
879.754	0.0147858
879.832	0.0148119
879.910	0.0147713
879.988	0.0149834
880.067	0.0148991
880.145	0.0148558
880.223	0.0149256
880.301	0.0148866
880.379	0.0148550
880.457	0.0149416
880.535	0.0148206
880.613	0.0148624
880.692	0.0148049
880.770	0.0149100
880.848	0.0148572
880.926	0.0148560
881.004	0.0148459
881.082	0.0150456
881.160	0.0148801
881.238	0.0148531
881.317	0.0151188
881.395	0.0148228
881.473	0.0150214
881.551	0.0150646
881.629	0.0150979
881.707	0.0150706
881.785	0.0150523
881.863	0.0151496
881.942	0.0150441
882.020	0.0151305
882.098	0.0150602
882.176	0.0151282
882.254	0.0149940
882.332	0.0150533
882.410	0.0150079
882.488	0.0149242
882.567	0.0148925
882.645	0.0149913
882.723	0.0148914
882.801	0.0149438
882.879	0.0148364
882.957	0.0148928
883.035	0.0150070
883.113	0.0150318
883.192	0.0149508
883.270	0.0149397
883.348	0.0148523
883.426	0.0148316
883.504	0.0150182
883.582	0.0150166
883.660	0.0148330
883.738	0.0148201
883.817	0.0148539
883.895	0.0148314
883.973	0.0148941
884.051	0.0148517
884.129	0.0148246
884.207	0.0150290
884.285	0.0148675
884.363	0.0148005
884.442	0.0147845
884.520	0.0148124
884.598	0.0146680
884.676	0.0148217
884.754	0.0147244
884.832	0.0148006
884.910	0.0147377
884.988	0.0146561
885.067	0.0146065
885.145	0.0146481
885.223	0.0146613
885.301	0.0146915
885.379	0.0148541
885.457	0.0146283
885.535	0.0145359
885.613	0.0146716
885.692	0.0147176
885.770	0.0146589
885.848	0.0147196
885.926	0.0146869
886.004	0.0147380
886.082	0.0148586
886.160	0.0147527
886.238	0.0147359
886.317	0.0149140
886.395	0.0147894
886.473	0.0147363
886.551	0.0148032
886.629	0.0147364
886.707	0.0147839
886.785	0.0148594
886.863	0.0148566
886.942	0.0147704
887.020	0.0148697
887.098	0.0146844
887.176	0.0146669
887.254	0.0148068
887.332	0.0147785
887.410	0.0148290
887.488	0.0147483
887.567	0.0146123
887.645	0.0146232
887.723	0.0145779
887.801	0.0146011
887.879	0.0145603
887.957	0.0146603
888.035	0.0143309
888.113	0.0144071
888.192	0.0146462
888.270	0.0144509
888.348	0.0146102
888.426	0.0144574
888.504	0.0144318
888.582	0.0144875
888.660	0.0144704
888.738	0.0145260
888.817	0.0145728
888.895	0.0145384
888.973	0.0145214
889.051	0.0145477
889.129	0.0144942
889.207	0.0144701
889.285	0.0145712
889.363	0.0145087
889.442	0.0145074
889.520	0.0144558
889.598	0.0146615
889.676	0.0146816
889.754	0.0147101
889.832	0.0146937
889.910	0.0145927
889.988	0.0145995
890.067	0.0145989
890.145	0.0146320
890.223	0.0147173
890.301	0.0148360
890.379	0.0146593
890.457	0.0147132
890.535	0.0148142
890.613	0.0147149
890.692	0.0147061
890.770	0.0146335
890.848	0.0146497
890.926	0.0147808
891.004	0.0147687
891.082	0.0146981
891.160	0.0147777
891.238	0.0147105
891.317	0.0148454
891.395	0.0147227
891.473	0.0146515
891.551	0.0148654
891.629	0.0147982
891.707	0.0148074
891.785	0.0147980
891.863	0.0147754
891.942	0.0147719
892.020	0.0145935
892.098	0.0146558
892.176	0.0146534
892.254	0.0146081
892.332	0.0146640
892.410	0.0145043
892.488	0.0147298
892.567	0.0147667
892.645	0.0145457
892.723	0.0145930
892.801	0.0146824
892.879	0.0148172
892.957	0.0147938
893.035	0.0147762
893.113	0.0147535
893.192	0.0149490
893.270	0.0150111
893.348	0.0148753
893.426	0.0149583
893.504	0.0150516
893.582	0.0150682
893.660	0.0149518
893.738	0.0149504
893.817	0.0151055
893.895	0.0150160
893.973	0.0149529
894.051	0.0150983
894.129	0.0150425
894.207	0.0148405
894.285	0.0150801
894.363	0.0149201
894.442	0.0148685
894.520	0.0150488
894.598	0.0150376
894.676	0.0151251
894.754	0.0149161
894.832	0.0148884
894.910	0.0150227
894.988	0.0151714
895.067	0.0150482
895.145	0.0149471
895.223	0.0149241
895.301	0.0149050
895.379	0.0148877
895.457	0.0148206
895.535	0.0148624
895.613	0.0148419
895.692	0.0147210
895.770	0.0146385
895.848	0.0147271
895.926	0.0146241
896.004	0.0146177
896.082	0.0145290
896.160	0.0146072
896.238	0.0145872
896.317	0.0144727
896.395	0.0145033
896.473	0.0144924
896.551	0.0145025
896.629	0.0144656
896.707	0.0145356
896.785	0.0145272
896.863	0.0145049
896.942	0.0143200
897.020	0.0144706
897.098	0.0144745
897.176	0.0144891
897.254	0.0145137
897.332	0.0143468
897.410	0.0143154
897.488	0.0143603
897.567	0.0144558
897.645	0.0143524
897.723	0.0143620
897.801	0.0144766
897.879	0.0145858
897.957	0.0144593
898.035	0.0143220
898.113	0.0144830
898.192	0.0145709
898.270	0.0145406
898.348	0.0141991
898.426	0.0146159
898.504	0.0146791
898.582	0.0143953
898.660	0.0145763
898.738	0.0146255
898.817	0.0146365
898.895	0.0146033
898.973	0.0145951
899.051	0.0146674
899.129	0.0146362
899.207	0.0146335
899.285	0.0146513
899.363	0.0145889
899.442	0.0146244
899.520	0.0146859
899.598	0.0146580
899.676	0.0145321
899.754	0.0145982
899.832	0.0146976
899.910	0.0148525
899.988	0.0146950
900.067	0.0145856
900.145	0.0145789
900.223	0.0146619
900.301	0.0144624
900.379	0.0144958
900.457	0.0145575
900.535	0.0146062
900.613	0.0145199
900.692	0.0144955
900.770	0.0146059
900.848	0.0146526
900.926	0.0145577
901.004	0.0145173
901.082	0.0145700
901.160	0.0145979
901.238	0.0146343
901.317	0.0147111
901.395	0.0145859
901.473	0.0145609
901.551	0.0145797
901.629	0.0147051
901.707	0.0146920
901.785	0.0145308
901.863	0.0146957
901.942	0.0146929
902.020	0.0145271
902.098	0.0146600
902.176	0.0146339
902.254	0.0146581
902.332	0.0146520
902.410	0.0145828
902.488	0.0146874
902.567	0.0147234
902.645	0.0146533
902.723	0.0146923
902.801	0.0147892
902.879	0.0147876
902.957	0.0147834
903.035	0.0147652
903.113	0.0147654
903.192	0.0149435
903.270	0.0148859
903.348	0.0149239
903.426	0.0150477
903.504	0.0150626
903.582	0.0150328
903.660	0.0151804
903.738	0.0150820
903.817	0.0151647
903.895	0.0152545
903.973	0.0151102
904.051	0.0151972
904.129	0.0151609
904.207	0.0150711
904.285	0.0151311
904.363	0.0151608
904.442	0.0152274
904.520	0.0151513
904.598	0.0149883
904.676	0.0150225
904.754	0.0152444
904.832	0.0151997
904.910	0.0150655
904.988	0.0150282
905.067	0.0150130
905.145	0.0151271
905.223	0.0150191
905.301	0.0151093
905.379	0.0150222
905.457	0.0150426
905.535	0.0151181
905.613	0.0152010
905.692	0.0150460
905.770	0.0150450
905.848	0.0150809
905.926	0.0152950
906.004	0.0149740
906.082	0.0149678
906.160	0.0150720
906.238	0.0149990
906.317	0.0149926
906.395	0.0151532
906.473	0.0149183
906.551	0.0150771
906.629	0.0149268
906.707	0.0150772
906.785	0.0149877
906.863	0.0150516
906.942	0.0150202
907.020	0.0150093
907.098	0.0148833
907.176	0.0149992
907.254	0.0149061
907.332	0.0149915
907.410	0.0150091
907.488	0.0151356
907.567	0.0149667
907.645	0.0149107
907.723	0.0149210
907.801	0.0148930
907.879	0.0149503
907.957	0.0150180
908.035	0.0148233
908.113	0.0148414
908.192	0.0148417
908.270	0.0149534
908.348	0.0149577
908.426	0.0147549
908.504	0.0146823
908.582	0.0148039
908.660	0.0149326
908.738	0.0148070
908.817	0.0148345
908.895	0.0147910
908.973	0.0147428
909.051	0.0146384
909.129	0.0146606
909.207	0.0146833
909.285	0.0146385
909.363	0.0145883
909.442	0.0146175
909.520	0.0146873
909.598	0.0146227
909.676	0.0146240
909.754	0.0144747
909.832	0.0144310
909.910	0.0143795
909.988	0.0144080
910.067	0.0144952
910.145	0.0144962
910.223	0.0143880
910.301	0.0144229
910.379	0.0145452
910.457	0.0145140
910.535	0.0146133
910.613	0.0144345
910.692	0.0144667
910.770	0.0145736
910.848	0.0145424
910.926	0.0143314
911.004	0.0143321
911.082	0.0146135
911.160	0.0144424
911.238	0.0143459
911.317	0.0144100
911.395	0.0144424
911.473	0.0145259
911.551	0.0143967
911.629	0.0145209
911.707	0.0144855
911.785	0.0144701
911.863	0.0146711
911.942	0.0145132
912.020	0.0145882
912.098	0.0145805
912.176	0.0145805
912.254	0.0145172
912.332	0.0145584
912.410	0.0143808
912.488	0.0146802
912.567	0.0146024
912.645	0.0146046
912.723	0.0146540
912.801	0.0146601
912.879	0.0145367
912.957	0.0146841
913.035	0.0148373
913.113	0.0146970
913.192	0.0146174
913.270	0.0146510
913.348	0.0146821
913.426	0.0145924
913.504	0.0146140
913.582	0.0146882
913.660	0.0147701
913.738	0.0147418
913.817	0.0147906
913.895	0.0148463
913.973	0.0148176
914.051	0.0149249
914.129	0.0148250
914.207	0.0149193
914.285	0.0150559
914.363	0.0148283
914.442	0.0148137
914.520	0.0147960
914.598	0.0149244
914.676	0.0149691
914.754	0.0149545
914.832	0.0147481
914.910	0.0148544
914.988	0.0147944
915.067	0.0149879
915.145	0.0149000
915.223	0.0147968
915.301	0.0149791
915.379	0.0149541
915.457	0.0149223
915.535	0.0149122
915.613	0.0150177
915.692	0.0149203
915.770	0.0149518
915.848	0.0150503
915.926	0.0149923
916.004	0.0148052
916.082	0.0148724
916.160	0.0149496
916.238	0.0148042
916.317	0.0147031
916.395	0.0147495
916.473	0.0146756
916.551	0.0146425
916.629	0.0146127
916.707	0.0145712
916.785	0.0145747
916.863	0.0146470
916.942	0.0147725
917.020	0.0145776
917.098	0.0146190
917.176	0.0146078
917.254	0.0145350
917.332	0.0147191
917.410	0.0146839
917.488	0.0146075
917.567	0.0145760
917.645	0.0146097
917.723	0.0146603
917.801	0.0146483
917.879	0.0144376
917.957	0.0145420
918.035	0.0145009
918.113	0.0144182
918.192	0.0143906
918.270	0.0143029
918.348	0.0143310
918.426	0.0144711
918.504	0.0144444
918.582	0.0143249
918.660	0.0145322
918.738	0.0144174
918.817	0.0145857
918.895	0.0145207
918.973	0.0145422
919.051	0.0144535
919.129	0.0145601
919.207	0.0146149
919.285	0.0146042
919.363	0.0145493
919.442	0.0145304
919.520	0.0144413
919.598	0.0144527
919.676	0.0145746
919.754	0.0144479
919.832	0.0143622
919.910	0.0144066
