05/28/2022	13:56:35	Ver.	4.1	UNKNOWN
Optical Delay	599.988409	Delta X		0.078125	Sweeps	1	Scan Rate	0/0
Coordinates	Axis 1	NaN	Axis 2	NaN	Axis 3	NaN	Axis 4	NaN	Axis 5	NaN	Axis 6	0.000000
TX Power	0.000000	RX Power	0.000000

599.988	0.0147771
600.067	0.0147837
600.145	0.0148102
600.223	0.0147290
600.301	0.0147128
600.379	0.0146389
600.457	0.0146870
600.535	0.0148436
600.613	0.0148035
600.692	0.0147244
600.770	0.0149032
600.848	0.0147967
600.926	0.0147659
601.004	0.0147306
601.082	0.0146559
601.160	0.0147440
601.238	0.0147028
601.317	0.0147950
601.395	0.0148242
601.473	0.0147018
601.551	0.0147501
601.629	0.0148343
601.707	0.0147669
601.785	0.0147992
601.863	0.0148488
601.942	0.0147633
602.020	0.0147221
602.098	0.0147317
602.176	0.0147218
602.254	0.0148067
602.332	0.0147955
602.410	0.0147243
602.488	0.0148515
602.567	0.0147862
602.645	0.0146908
602.723	0.0146927
602.801	0.0148155
602.879	0.0147530
602.957	0.0148319
603.035	0.0146992
603.113	0.0147585
603.192	0.0148049
603.270	0.0147556
603.348	0.0147194
603.426	0.0148038
603.504	0.0148749
603.582	0.0147352
603.660	0.0147205
603.738	0.0147582
603.817	0.0148659
603.895	0.0147000
603.973	0.0148750
604.051	0.0147438
604.129	0.0148039
604.207	0.0146832
604.285	0.0147810
604.363	0.0149081
604.442	0.0147764
604.520	0.0147146
604.598	0.0148553
604.676	0.0148430
604.754	0.0147014
604.832	0.0148547
604.910	0.0146200
604.988	0.0148045
605.067	0.0148621
605.145	0.0146240
605.223	0.0147836
605.301	0.0147630
605.379	0.0149042
605.457	0.0146741
605.535	0.0147287
605.613	0.0146154
605.692	0.0147579
605.770	0.0149004
605.848	0.0146677
605.926	0.0148012
606.004	0.0148337
606.082	0.0146975
606.160	0.0148713
606.238	0.0147583
606.317	0.0148034
606.395	0.0147955
606.473	0.0148981
606.551	0.0148312
606.629	0.0148037
606.707	0.0147673
606.785	0.0147754
606.863	0.0147342
606.942	0.0146299
607.020	0.0147809
607.098	0.0147182
607.176	0.0147751
607.254	0.0147765
607.332	0.0147581
607.410	0.0147096
607.488	0.0147832
607.567	0.0148145
607.645	0.0147771
607.723	0.0148322
607.801	0.0147657
607.879	0.0148389
607.957	0.0148557
608.035	0.0147270
608.113	0.0146679
608.192	0.0148621
608.270	0.0148042
608.348	0.0146903
608.426	0.0148520
608.504	0.0147932
608.582	0.0147688
608.660	0.0146539
608.738	0.0148200
608.817	0.0148318
608.895	0.0147428
608.973	0.0146994
609.051	0.0148177
609.129	0.0148157
609.207	0.0147013
609.285	0.0147796
609.363	0.0148062
609.442	0.0147891
609.520	0.0146944
609.598	0.0149469
609.676	0.0148077
609.754	0.0147953
609.832	0.0147373
609.910	0.0146993
609.988	0.0146958
610.067	0.0147300
610.145	0.0148688
610.223	0.0147002
610.301	0.0146571
610.379	0.0146668
610.457	0.0147377
610.535	0.0147075
610.613	0.0146880
610.692	0.0147054
610.770	0.0147250
610.848	0.0147654
610.926	0.0145666
611.004	0.0148063
611.082	0.0148208
611.160	0.0148893
611.238	0.0147776
611.317	0.0147662
611.395	0.0148373
611.473	0.0148142
611.551	0.0146550
611.629	0.0146658
611.707	0.0147192
611.785	0.0147408
611.863	0.0148244
611.942	0.0148218
612.020	0.0148457
612.098	0.0149397
612.176	0.0147827
612.254	0.0147166
612.332	0.0147831
612.410	0.0146228
612.488	0.0148092
612.567	0.0146855
612.645	0.0148201
612.723	0.0146303
612.801	0.0146731
612.879	0.0147388
612.957	0.0148004
613.035	0.0148010
613.113	0.0147710
613.192	0.0147200
613.270	0.0148105
613.348	0.0148531
613.426	0.0148901
613.504	0.0146793
613.582	0.0148065
613.660	0.0148137
613.738	0.0146825
613.817	0.0147632
613.895	0.0148200
613.973	0.0147682
614.051	0.0147319
614.129	0.0146909
614.207	0.0148370
614.285	0.0147438
614.363	0.0147250
614.442	0.0147446
614.520	0.0146754
614.598	0.0149110
614.676	0.0148387
614.754	0.0147493
614.832	0.0147367
614.910	0.0147475
614.988	0.0147577
615.067	0.0147507
615.145	0.0146898
615.223	0.0147622
615.301	0.0148985
615.379	0.0148157
615.457	0.0147732
615.535	0.0147464
615.613	0.0147619
615.692	0.0149312
615.770	0.0147968
615.848	0.0147735
615.926	0.0147605
616.004	0.0148390
616.082	0.0147585
616.160	0.0147384
616.238	0.0147823
616.317	0.0146995
616.395	0.0147495
616.473	0.0146519
616.551	0.0147700
616.629	0.0146756
616.707	0.0147359
616.785	0.0147651
616.863	0.0148137
616.942	0.0148315
617.020	0.0147185
617.098	0.0146472
617.176	0.0147625
617.254	0.0147318
617.332	0.0147508
617.410	0.0147194
617.488	0.0148023
617.567	0.0147609
617.645	0.0146725
617.723	0.0146525
617.801	0.0147992
617.879	0.0148214
617.957	0.0147284
618.035	0.0147266
618.113	0.0147540
618.192	0.0148297
618.270	0.0148484
618.348	0.0147908
618.426	0.0146905
618.504	0.0148608
618.582	0.0146512
618.660	0.0147844
618.738	0.0148660
618.817	0.0148191
618.895	0.0148350
618.973	0.0147768
619.051	0.0148289
619.129	0.0147406
619.207	0.0147898
619.285	0.0147485
619.363	0.0147531
619.442	0.0147935
619.520	0.0148563
619.598	0.0146902
619.676	0.0146111
619.754	0.0146637
619.832	0.0147372
619.910	0.0145979
619.988	0.0146970
620.067	0.0147411
620.145	0.0145879
620.223	0.0147461
620.301	0.0146774
620.379	0.0146971
620.457	0.0146826
620.535	0.0146101
620.613	0.0147291
620.692	0.0148027
620.770	0.0147863
620.848	0.0146974
620.926	0.0147540
621.004	0.0147549
621.082	0.0147674
621.160	0.0148618
621.238	0.0147291
621.317	0.0149186
621.395	0.0148682
621.473	0.0147415
621.551	0.0147954
621.629	0.0148363
621.707	0.0147485
621.785	0.0147697
621.863	0.0146796
621.942	0.0146983
622.020	0.0147678
622.098	0.0147795
622.176	0.0146812
622.254	0.0148887
622.332	0.0147775
622.410	0.0146714
622.488	0.0147399
622.567	0.0147722
622.645	0.0148413
622.723	0.0146799
622.801	0.0148590
622.879	0.0146253
622.957	0.0147635
623.035	0.0146585
623.113	0.0147993
623.192	0.0147510
623.270	0.0147567
623.348	0.0148495
623.426	0.0148770
623.504	0.0148994
623.582	0.0148545
623.660	0.0147879
623.738	0.0148466
623.817	0.0148305
623.895	0.0147920
623.973	0.0147650
624.051	0.0147574
624.129	0.0149584
624.207	0.0148194
624.285	0.0148172
624.363	0.0147057
624.442	0.0147304
624.520	0.0147955
624.598	0.0148560
624.676	0.0148544
624.754	0.0147375
624.832	0.0147855
624.910	0.0147558
624.988	0.0147844
625.067	0.0147701
625.145	0.0147558
625.223	0.0145959
625.301	0.0147077
625.379	0.0147688
625.457	0.0147789
625.535	0.0148191
625.613	0.0147072
625.692	0.0148353
625.770	0.0148519
625.848	0.0147713
625.926	0.0147449
626.004	0.0148257
626.082	0.0147223
626.160	0.0147626
626.238	0.0148090
626.317	0.0147678
626.395	0.0148497
626.473	0.0149232
626.551	0.0146943
626.629	0.0148440
626.707	0.0146720
626.785	0.0147373
626.863	0.0147694
626.942	0.0146937
627.020	0.0148251
627.098	0.0147707
627.176	0.0147683
627.254	0.0148576
627.332	0.0148360
627.410	0.0146983
627.488	0.0147090
627.567	0.0147292
627.645	0.0148030
627.723	0.0147277
627.801	0.0146638
627.879	0.0147981
627.957	0.0148930
628.035	0.0147721
628.113	0.0147600
628.192	0.0148122
628.270	0.0147551
628.348	0.0148238
628.426	0.0146040
628.504	0.0146944
628.582	0.0148746
628.660	0.0147279
628.738	0.0148061
628.817	0.0148431
628.895	0.0147484
628.973	0.0148407
629.051	0.0147541
629.129	0.0147217
629.207	0.0147816
629.285	0.0148700
629.363	0.0147775
629.442	0.0147617
629.520	0.0147997
629.598	0.0148484
629.676	0.0148044
629.754	0.0147437
629.832	0.0147252
629.910	0.0148201
629.988	0.0148872
630.067	0.0147157
630.145	0.0146947
630.223	0.0147926
630.301	0.0146905
630.379	0.0147088
630.457	0.0148212
630.535	0.0147020
630.613	0.0147549
630.692	0.0147734
630.770	0.0147699
630.848	0.0148455
630.926	0.0145432
631.004	0.0148646
631.082	0.0147783
631.160	0.0147181
631.238	0.0148283
631.317	0.0147514
631.395	0.0147820
631.473	0.0146893
631.551	0.0147284
631.629	0.0147141
631.707	0.0147213
631.785	0.0146989
631.863	0.0148803
631.942	0.0147958
632.020	0.0146656
632.098	0.0148260
632.176	0.0147322
632.254	0.0148640
632.332	0.0147254
632.410	0.0148460
632.488	0.0148187
632.567	0.0147850
632.645	0.0147298
632.723	0.0148099
632.801	0.0148447
632.879	0.0147356
632.957	0.0149282
633.035	0.0147739
633.113	0.0147609
633.192	0.0148433
633.270	0.0146894
633.348	0.0147880
633.426	0.0147984
633.504	0.0148593
633.582	0.0147282
633.660	0.0149165
633.738	0.0148244
633.817	0.0147916
633.895	0.0145850
633.973	0.0146915
634.051	0.0147575
634.129	0.0148721
634.207	0.0149192
634.285	0.0149143
634.363	0.0147555
634.442	0.0149343
634.520	0.0148335
634.598	0.0147569
634.676	0.0148011
634.754	0.0147741
634.832	0.0147057
634.910	0.0148336
634.988	0.0147349
635.067	0.0147845
635.145	0.0148705
635.223	0.0147427
635.301	0.0146813
635.379	0.0147327
635.457	0.0147501
635.535	0.0147883
635.613	0.0147640
635.692	0.0147104
635.770	0.0148186
635.848	0.0147989
635.926	0.0147719
636.004	0.0147337
636.082	0.0148090
636.160	0.0147350
636.238	0.0148063
636.317	0.0147108
636.395	0.0147497
636.473	0.0147305
636.551	0.0147713
636.629	0.0147662
636.707	0.0146306
636.785	0.0148012
636.863	0.0146764
636.942	0.0148040
637.020	0.0147212
637.098	0.0147208
637.176	0.0147623
637.254	0.0147780
637.332	0.0147282
637.410	0.0147297
637.488	0.0148394
637.567	0.0147380
637.645	0.0147075
637.723	0.0147906
637.801	0.0146468
637.879	0.0147699
637.957	0.0148435
638.035	0.0147637
638.113	0.0147240
638.192	0.0147108
638.270	0.0145515
638.348	0.0145621
638.426	0.0148108
638.504	0.0147860
638.582	0.0148299
638.660	0.0147656
638.738	0.0147213
638.817	0.0149011
638.895	0.0148007
638.973	0.0147826
639.051	0.0147698
639.129	0.0148164
639.207	0.0147279
639.285	0.0147942
639.363	0.0146494
639.442	0.0147686
639.520	0.0147928
639.598	0.0148372
639.676	0.0147120
639.754	0.0147326
639.832	0.0147506
639.910	0.0148390
639.988	0.0146446
640.067	0.0147317
640.145	0.0148201
640.223	0.0147561
640.301	0.0147845
640.379	0.0147678
640.457	0.0148520
640.535	0.0147723
640.613	0.0147560
640.692	0.0147523
640.770	0.0147687
640.848	0.0145950
640.926	0.0148266
641.004	0.0148409
641.082	0.0147197
641.160	0.0147935
641.238	0.0147173
641.317	0.0146970
641.395	0.0148133
641.473	0.0148425
641.551	0.0148728
641.629	0.0147475
641.707	0.0147461
641.785	0.0147607
641.863	0.0147699
641.942	0.0147720
642.020	0.0148816
642.098	0.0147726
642.176	0.0147827
642.254	0.0146709
642.332	0.0146962
642.410	0.0147137
642.488	0.0146500
642.567	0.0146616
642.645	0.0146797
642.723	0.0147986
642.801	0.0148162
642.879	0.0147655
642.957	0.0146921
643.035	0.0148025
643.113	0.0147157
643.192	0.0147765
643.270	0.0147198
643.348	0.0148692
643.426	0.0147607
643.504	0.0147428
643.582	0.0148273
643.660	0.0147864
643.738	0.0146149
643.817	0.0147004
643.895	0.0147253
643.973	0.0147544
644.051	0.0148054
644.129	0.0147502
644.207	0.0147065
644.285	0.0147652
644.363	0.0148103
644.442	0.0147401
644.520	0.0149484
644.598	0.0149195
644.676	0.0148391
644.754	0.0147523
644.832	0.0147971
644.910	0.0149301
644.988	0.0147681
645.067	0.0147732
645.145	0.0147312
645.223	0.0148835
645.301	0.0147909
645.379	0.0147698
645.457	0.0149809
645.535	0.0148618
645.613	0.0147535
645.692	0.0147371
645.770	0.0148627
645.848	0.0148622
645.926	0.0148135
646.004	0.0147376
646.082	0.0148460
646.160	0.0147572
646.238	0.0148086
646.317	0.0149002
646.395	0.0148491
646.473	0.0147872
646.551	0.0148282
646.629	0.0147657
646.707	0.0146672
646.785	0.0147332
646.863	0.0147502
646.942	0.0148317
647.020	0.0149018
647.098	0.0148325
647.176	0.0147443
647.254	0.0147834
647.332	0.0147842
647.410	0.0147109
647.488	0.0148812
647.567	0.0147971
647.645	0.0148267
647.723	0.0148170
647.801	0.0147497
647.879	0.0148389
647.957	0.0148938
648.035	0.0147520
648.113	0.0148112
648.192	0.0149017
648.270	0.0148531
648.348	0.0148579
648.426	0.0148703
648.504	0.0148328
648.582	0.0147884
648.660	0.0147598
648.738	0.0148780
648.817	0.0148986
648.895	0.0147662
648.973	0.0147615
649.051	0.0148727
649.129	0.0148063
649.207	0.0146881
649.285	0.0147443
649.363	0.0147913
649.442	0.0147923
649.520	0.0148436
649.598	0.0148203
649.676	0.0147694
649.754	0.0146586
649.832	0.0147090
649.910	0.0148492
649.988	0.0148599
650.067	0.0147998
650.145	0.0148036
650.223	0.0146812
650.301	0.0146465
650.379	0.0147089
650.457	0.0147963
650.535	0.0148408
650.613	0.0148148
650.692	0.0146672
650.770	0.0147067
650.848	0.0147980
650.926	0.0146500
651.004	0.0147846
651.082	0.0147854
651.160	0.0147061
651.238	0.0148129
651.317	0.0147815
651.395	0.0146738
651.473	0.0146631
651.551	0.0147672
651.629	0.0148166
651.707	0.0146547
651.785	0.0148009
651.863	0.0146766
651.942	0.0147695
652.020	0.0147652
652.098	0.0147581
652.176	0.0148821
652.254	0.0147496
652.332	0.0147748
652.410	0.0146740
652.488	0.0148312
652.567	0.0148062
652.645	0.0147038
652.723	0.0147904
652.801	0.0147494
652.879	0.0146964
652.957	0.0147717
653.035	0.0147939
653.113	0.0148057
653.192	0.0148289
653.270	0.0148875
653.348	0.0147686
653.426	0.0147202
653.504	0.0146600
653.582	0.0147536
653.660	0.0148130
653.738	0.0147372
653.817	0.0146938
653.895	0.0146957
653.973	0.0147556
654.051	0.0146156
654.129	0.0147974
654.207	0.0148614
654.285	0.0148011
654.363	0.0147590
654.442	0.0148332
654.520	0.0147989
654.598	0.0148566
654.676	0.0148184
654.754	0.0146921
654.832	0.0146993
654.910	0.0147829
654.988	0.0148135
655.067	0.0146512
655.145	0.0147493
655.223	0.0148335
655.301	0.0148267
655.379	0.0147799
655.457	0.0147708
655.535	0.0147420
655.613	0.0145844
655.692	0.0146174
655.770	0.0148014
655.848	0.0147861
655.926	0.0147688
656.004	0.0147713
656.082	0.0147034
656.160	0.0146154
656.238	0.0147070
656.317	0.0147765
656.395	0.0146835
656.473	0.0146777
656.551	0.0147183
656.629	0.0148445
656.707	0.0147367
656.785	0.0148385
656.863	0.0147137
656.942	0.0146178
657.020	0.0146199
657.098	0.0146899
657.176	0.0147692
657.254	0.0147855
657.332	0.0147667
657.410	0.0147712
657.488	0.0146820
657.567	0.0146770
657.645	0.0146171
657.723	0.0146704
657.801	0.0148163
657.879	0.0148579
657.957	0.0148463
658.035	0.0145882
658.113	0.0147404
658.192	0.0147614
658.270	0.0146213
658.348	0.0147885
658.426	0.0148241
658.504	0.0147569
658.582	0.0147355
658.660	0.0146571
658.738	0.0148895
658.817	0.0148899
658.895	0.0147729
658.973	0.0148029
659.051	0.0148363
659.129	0.0147527
659.207	0.0148336
659.285	0.0148427
659.363	0.0146670
659.442	0.0147017
659.520	0.0147779
659.598	0.0147875
659.676	0.0146681
659.754	0.0147900
659.832	0.0148567
659.910	0.0148122
659.988	0.0148096
660.067	0.0147997
660.145	0.0146534
660.223	0.0147039
660.301	0.0147424
660.379	0.0149608
660.457	0.0147055
660.535	0.0147025
660.613	0.0147637
660.692	0.0148276
660.770	0.0147081
660.848	0.0146535
660.926	0.0147352
661.004	0.0147829
661.082	0.0147201
661.160	0.0149322
661.238	0.0147497
661.317	0.0147498
661.395	0.0148364
661.473	0.0149175
661.551	0.0149186
661.629	0.0149247
661.707	0.0148027
661.785	0.0146663
661.863	0.0149521
661.942	0.0148546
662.020	0.0146537
662.098	0.0147433
662.176	0.0148076
662.254	0.0147579
662.332	0.0146973
662.410	0.0147556
662.488	0.0148747
662.567	0.0148782
662.645	0.0147138
662.723	0.0148238
662.801	0.0147379
662.879	0.0147714
662.957	0.0147292
663.035	0.0147500
663.113	0.0147450
663.192	0.0146664
663.270	0.0146327
663.348	0.0148167
663.426	0.0146771
663.504	0.0148284
663.582	0.0147363
663.660	0.0146918
663.738	0.0147456
663.817	0.0147331
663.895	0.0147628
663.973	0.0147291
664.051	0.0147310
664.129	0.0148139
664.207	0.0148219
664.285	0.0147063
664.363	0.0147664
664.442	0.0147945
664.520	0.0147277
664.598	0.0147868
664.676	0.0149004
664.754	0.0148078
664.832	0.0146041
664.910	0.0147874
664.988	0.0147218
665.067	0.0147599
665.145	0.0149824
665.223	0.0147845
665.301	0.0147150
665.379	0.0146695
665.457	0.0147276
665.535	0.0148510
665.613	0.0147201
665.692	0.0147863
665.770	0.0148237
665.848	0.0148181
665.926	0.0147420
666.004	0.0146777
666.082	0.0147437
666.160	0.0147579
666.238	0.0147908
666.317	0.0146430
666.395	0.0147602
666.473	0.0147027
666.551	0.0145840
666.629	0.0146527
666.707	0.0149158
666.785	0.0148030
666.863	0.0147721
666.942	0.0146470
667.020	0.0147363
667.098	0.0147095
667.176	0.0147364
667.254	0.0146807
667.332	0.0147166
667.410	0.0148044
667.488	0.0147650
667.567	0.0146813
667.645	0.0147736
667.723	0.0146935
667.801	0.0146304
667.879	0.0147329
667.957	0.0147510
668.035	0.0146586
668.113	0.0147596
668.192	0.0146500
668.270	0.0145808
668.348	0.0147269
668.426	0.0148350
668.504	0.0146703
668.582	0.0145532
668.660	0.0146876
668.738	0.0147361
668.817	0.0147375
668.895	0.0147121
668.973	0.0146703
669.051	0.0146845
669.129	0.0145876
669.207	0.0147222
669.285	0.0147859
669.363	0.0148259
669.442	0.0148287
669.520	0.0145442
669.598	0.0147323
669.676	0.0146642
669.754	0.0147458
669.832	0.0149136
669.910	0.0146436
669.988	0.0147367
670.067	0.0149000
670.145	0.0147932
670.223	0.0147291
670.301	0.0146961
670.379	0.0146541
670.457	0.0147478
670.535	0.0147414
670.613	0.0147472
670.692	0.0146244
670.770	0.0147451
670.848	0.0147990
670.926	0.0147095
671.004	0.0147174
671.082	0.0147944
671.160	0.0148308
671.238	0.0147765
671.317	0.0148245
671.395	0.0147050
671.473	0.0145798
671.551	0.0147108
671.629	0.0146556
671.707	0.0147440
671.785	0.0146619
671.863	0.0148205
671.942	0.0147931
672.020	0.0147901
672.098	0.0146246
672.176	0.0146598
672.254	0.0147449
672.332	0.0147616
672.410	0.0147919
672.488	0.0147802
672.567	0.0145844
672.645	0.0148032
672.723	0.0149014
672.801	0.0149077
672.879	0.0146573
672.957	0.0147379
673.035	0.0149844
673.113	0.0148366
673.192	0.0148385
673.270	0.0147923
673.348	0.0148086
673.426	0.0147685
673.504	0.0148429
673.582	0.0147090
673.660	0.0147511
673.738	0.0147786
673.817	0.0148231
673.895	0.0148326
673.973	0.0148700
674.051	0.0146985
674.129	0.0148548
674.207	0.0148395
674.285	0.0149278
674.363	0.0148552
674.442	0.0147948
674.520	0.0147605
674.598	0.0148390
674.676	0.0149095
674.754	0.0148705
674.832	0.0150193
674.910	0.0148582
674.988	0.0147666
675.067	0.0149668
675.145	0.0148116
675.223	0.0148125
675.301	0.0146890
675.379	0.0149120
675.457	0.0148026
675.535	0.0148429
675.613	0.0149265
675.692	0.0148263
675.770	0.0149211
675.848	0.0148271
675.926	0.0148364
676.004	0.0148325
676.082	0.0148460
676.160	0.0147698
676.238	0.0147491
676.317	0.0148225
676.395	0.0148406
676.473	0.0147440
676.551	0.0148528
676.629	0.0147318
676.707	0.0149066
676.785	0.0148531
676.863	0.0148445
676.942	0.0148175
677.020	0.0148476
677.098	0.0147442
677.176	0.0147334
677.254	0.0149358
677.332	0.0149738
677.410	0.0146574
677.488	0.0148677
677.567	0.0147086
677.645	0.0147737
677.723	0.0147166
677.801	0.0146326
677.879	0.0147070
677.957	0.0148070
678.035	0.0148155
678.113	0.0147626
678.192	0.0147015
678.270	0.0147869
678.348	0.0147636
678.426	0.0146477
678.504	0.0146899
678.582	0.0146938
678.660	0.0147601
678.738	0.0146922
678.817	0.0146942
678.895	0.0147111
678.973	0.0146367
679.051	0.0146626
679.129	0.0147461
679.207	0.0146488
679.285	0.0146934
679.363	0.0148162
679.442	0.0148376
679.520	0.0147021
679.598	0.0146158
679.676	0.0147273
679.754	0.0146133
679.832	0.0147378
679.910	0.0146390
679.988	0.0148085
680.067	0.0147429
680.145	0.0147922
680.223	0.0146426
680.301	0.0145726
680.379	0.0147694
680.457	0.0146821
680.535	0.0146806
680.613	0.0145552
680.692	0.0147134
680.770	0.0146935
680.848	0.0147296
680.926	0.0146589
681.004	0.0147117
681.082	0.0147397
681.160	0.0146494
681.238	0.0146524
681.317	0.0147092
681.395	0.0147642
681.473	0.0145617
681.551	0.0146471
681.629	0.0146537
681.707	0.0146674
681.785	0.0147059
681.863	0.0146087
681.942	0.0146532
682.020	0.0147686
682.098	0.0145985
682.176	0.0147449
682.254	0.0146159
682.332	0.0147177
682.410	0.0147381
682.488	0.0147739
682.567	0.0146678
682.645	0.0146201
682.723	0.0147150
682.801	0.0147599
682.879	0.0146421
682.957	0.0147752
683.035	0.0147146
683.113	0.0147978
683.192	0.0146700
683.270	0.0147217
683.348	0.0146925
683.426	0.0147302
683.504	0.0147815
683.582	0.0147625
683.660	0.0147227
683.738	0.0148572
683.817	0.0148212
683.895	0.0146934
683.973	0.0146880
684.051	0.0148081
684.129	0.0148071
684.207	0.0146689
684.285	0.0147431
684.363	0.0149072
684.442	0.0147418
684.520	0.0146798
684.598	0.0147384
684.676	0.0147443
684.754	0.0147155
684.832	0.0146600
684.910	0.0147707
684.988	0.0146614
685.067	0.0147178
685.145	0.0148154
685.223	0.0147337
685.301	0.0148442
685.379	0.0147562
685.457	0.0148354
685.535	0.0149532
685.613	0.0148527
685.692	0.0148276
685.770	0.0149059
685.848	0.0149356
685.926	0.0146439
686.004	0.0148071
686.082	0.0148554
686.160	0.0148975
686.238	0.0147810
686.317	0.0147060
686.395	0.0147049
686.473	0.0149265
686.551	0.0149005
686.629	0.0147490
686.707	0.0147681
686.785	0.0148096
686.863	0.0147599
686.942	0.0147916
687.020	0.0148140
687.098	0.0148283
687.176	0.0146474
687.254	0.0145750
687.332	0.0146792
687.410	0.0146698
687.488	0.0147812
687.567	0.0147274
687.645	0.0146764
687.723	0.0147744
687.801	0.0147952
687.879	0.0147382
687.957	0.0145309
688.035	0.0146386
688.113	0.0145468
688.192	0.0145538
688.270	0.0144910
688.348	0.0145105
688.426	0.0145733
688.504	0.0146431
688.582	0.0146251
688.660	0.0146201
688.738	0.0147553
688.817	0.0148484
688.895	0.0147831
688.973	0.0150165
689.051	0.0152380
689.129	0.0151886
689.207	0.0150753
689.285	0.0152023
689.363	0.0152359
689.442	0.0149516
689.520	0.0149191
689.598	0.0149464
689.676	0.0147702
689.754	0.0146485
689.832	0.0144780
689.910	0.0143378
689.988	0.0142074
690.067	0.0142199
690.145	0.0140553
690.223	0.0140675
690.301	0.0140392
690.379	0.0139207
690.457	0.0141242
690.535	0.0141496
690.613	0.0143321
690.692	0.0146309
690.770	0.0149157
690.848	0.0151616
690.926	0.0152236
691.004	0.0154875
691.082	0.0158307
691.160	0.0160847
691.238	0.0162314
691.317	0.0161736
691.395	0.0163177
691.473	0.0166103
691.551	0.0163702
691.629	0.0163625
691.707	0.0159650
691.785	0.0155031
691.863	0.0151366
691.942	0.0147018
692.020	0.0142062
692.098	0.0135921
692.176	0.0131559
692.254	0.0128588
692.332	0.0124090
692.410	0.0122661
692.488	0.0121476
692.567	0.0120151
692.645	0.0122531
692.723	0.0125830
692.801	0.0129576
692.879	0.0133964
692.957	0.0138687
693.035	0.0143654
693.113	0.0149728
693.192	0.0155752
693.270	0.0161634
693.348	0.0165823
693.426	0.0169271
693.504	0.0172952
693.582	0.0175938
693.660	0.0176160
693.738	0.0175718
693.817	0.0173979
693.895	0.0171353
693.973	0.0167084
694.051	0.0160217
694.129	0.0155056
694.207	0.0147913
694.285	0.0141396
694.363	0.0133511
694.442	0.0130370
694.520	0.0124701
694.598	0.0122649
694.676	0.0119360
694.754	0.0119489
694.832	0.0117669
694.910	0.0120036
694.988	0.0124403
695.067	0.0128905
695.145	0.0134417
695.223	0.0141949
695.301	0.0146882
695.379	0.0155145
695.457	0.0161779
695.535	0.0167561
695.613	0.0172519
695.692	0.0176550
695.770	0.0178399
695.848	0.0182088
695.926	0.0180726
696.004	0.0178883
696.082	0.0174140
696.160	0.0169672
696.238	0.0163694
696.317	0.0155511
696.395	0.0146809
696.473	0.0137382
696.551	0.0128497
696.629	0.0118813
696.707	0.0110701
696.785	0.0104314
696.863	0.0100024
696.942	0.00965340
697.020	0.00946014
697.098	0.00972023
697.176	0.0101253
697.254	0.0107919
697.332	0.0116815
697.410	0.0126775
697.488	0.0139108
697.567	0.0149784
697.645	0.0164446
697.723	0.0175282
697.801	0.0185768
697.879	0.0194923
697.957	0.0202233
698.035	0.0207561
698.113	0.0211979
698.192	0.0213051
698.270	0.0211075
698.348	0.0206806
698.426	0.0204103
698.504	0.0197127
698.582	0.0188232
698.660	0.0176605
698.738	0.0162148
698.817	0.0150624
698.895	0.0137292
698.973	0.0121916
699.051	0.0109351
699.129	0.00988724
699.207	0.00906723
699.285	0.00840523
699.363	0.00824654
699.442	0.00799332
699.520	0.00805122
699.598	0.00875069
699.676	0.00946098
699.754	0.0103384
699.832	0.0112402
699.910	0.0124353
699.988	0.0135120
700.067	0.0146572
700.145	0.0157893
700.223	0.0168423
700.301	0.0178660
700.379	0.0186467
700.457	0.0193069
700.535	0.0197166
700.613	0.0200444
700.692	0.0202873
700.770	0.0200319
700.848	0.0196627
700.926	0.0193375
701.004	0.0186403
701.082	0.0178588
701.160	0.0170814
701.238	0.0163693
701.317	0.0152831
701.395	0.0144038
701.473	0.0134745
701.551	0.0126530
701.629	0.0120001
701.707	0.0114545
701.785	0.0108897
701.863	0.0102101
701.942	0.0101842
702.020	0.0100924
702.098	0.0104359
702.176	0.0106298
702.254	0.0112157
702.332	0.0117160
702.410	0.0124950
702.488	0.0131631
702.567	0.0139304
702.645	0.0149245
702.723	0.0157180
702.801	0.0162625
702.879	0.0172118
702.957	0.0177257
703.035	0.0180564
703.113	0.0184609
703.192	0.0185607
703.270	0.0185787
703.348	0.0184859
703.426	0.0183014
703.504	0.0178952
703.582	0.0175040
703.660	0.0169831
703.738	0.0165887
703.817	0.0161151
703.895	0.0155793
703.973	0.0151389
704.051	0.0147032
704.129	0.0141537
704.207	0.0136839
704.285	0.0132793
704.363	0.0130479
704.442	0.0125430
704.520	0.0124220
704.598	0.0122774
704.676	0.0120641
704.754	0.0120976
704.832	0.0121408
704.910	0.0120292
704.988	0.0123036
705.067	0.0125465
705.145	0.0128118
705.223	0.0131754
705.301	0.0134361
705.379	0.0138553
705.457	0.0142166
705.535	0.0145621
705.613	0.0149207
705.692	0.0152631
705.770	0.0155511
705.848	0.0158994
705.926	0.0161658
706.004	0.0164199
706.082	0.0166304
706.160	0.0168092
706.238	0.0168839
706.317	0.0167974
706.395	0.0166055
706.473	0.0163408
706.551	0.0161494
706.629	0.0158122
706.707	0.0155136
706.785	0.0149936
706.863	0.0147334
706.942	0.0143274
707.020	0.0140955
707.098	0.0138730
707.176	0.0135493
707.254	0.0132436
707.332	0.0130097
707.410	0.0128596
707.488	0.0129440
707.567	0.0129604
707.645	0.0129265
707.723	0.0130723
707.801	0.0133121
707.879	0.0135965
707.957	0.0140817
708.035	0.0144487
708.113	0.0148988
708.192	0.0151949
708.270	0.0158041
708.348	0.0161555
708.426	0.0165057
708.504	0.0167513
708.582	0.0169946
708.660	0.0170082
708.738	0.0171908
708.817	0.0171784
708.895	0.0169885
708.973	0.0168748
709.051	0.0166026
709.129	0.0162807
709.207	0.0159827
709.285	0.0157592
709.363	0.0152673
709.442	0.0149052
709.520	0.0143867
709.598	0.0140038
709.676	0.0137486
709.754	0.0132838
709.832	0.0128870
709.910	0.0127252
709.988	0.0127306
710.067	0.0126017
710.145	0.0125664
710.223	0.0125127
710.301	0.0125494
710.379	0.0126387
710.457	0.0129005
710.535	0.0131485
710.613	0.0133447
710.692	0.0136814
710.770	0.0138881
710.848	0.0140010
710.926	0.0144679
711.004	0.0146280
711.082	0.0147987
711.160	0.0151043
711.238	0.0154320
711.317	0.0154485
711.395	0.0156709
711.473	0.0158600
711.551	0.0159600
711.629	0.0161013
711.707	0.0160365
711.785	0.0160961
711.863	0.0161006
711.942	0.0160748
712.020	0.0158873
712.098	0.0157926
712.176	0.0155729
712.254	0.0155531
712.332	0.0152810
712.410	0.0151627
712.488	0.0147018
712.567	0.0144326
712.645	0.0144339
712.723	0.0143276
712.801	0.0141940
712.879	0.0141283
712.957	0.0139838
713.035	0.0138550
713.113	0.0138998
713.192	0.0140991
713.270	0.0138563
713.348	0.0139765
713.426	0.0140659
713.504	0.0139593
713.582	0.0142274
713.660	0.0142620
713.738	0.0142339
713.817	0.0145495
713.895	0.0145552
713.973	0.0144867
714.051	0.0145721
714.129	0.0146555
714.207	0.0146515
714.285	0.0148214
714.363	0.0148686
714.442	0.0147461
714.520	0.0148577
714.598	0.0149464
714.676	0.0150404
714.754	0.0151328
714.832	0.0151759
714.910	0.0151608
714.988	0.0153240
715.067	0.0153384
715.145	0.0154775
715.223	0.0154585
715.301	0.0155556
715.379	0.0154298
715.457	0.0154275
715.535	0.0152537
715.613	0.0152653
715.692	0.0151611
715.770	0.0149512
715.848	0.0146904
715.926	0.0147483
716.004	0.0146743
716.082	0.0146344
716.160	0.0144479
716.238	0.0143236
716.317	0.0143323
716.395	0.0141413
716.473	0.0139859
716.551	0.0140148
716.629	0.0139126
716.707	0.0138000
716.785	0.0138857
716.863	0.0137820
716.942	0.0137667
717.020	0.0138853
717.098	0.0140041
717.176	0.0139941
717.254	0.0140036
717.332	0.0141595
717.410	0.0143909
717.488	0.0143355
717.567	0.0144383
717.645	0.0145958
717.723	0.0147247
717.801	0.0147514
717.879	0.0148061
717.957	0.0149854
718.035	0.0151262
718.113	0.0151564
718.192	0.0154177
718.270	0.0153191
718.348	0.0154537
718.426	0.0153365
718.504	0.0153757
718.582	0.0154379
718.660	0.0153786
718.738	0.0154680
718.817	0.0153825
718.895	0.0154862
718.973	0.0154871
719.051	0.0153568
719.129	0.0153394
719.207	0.0153320
719.285	0.0154144
719.363	0.0153391
719.442	0.0152998
719.520	0.0151569
719.598	0.0150278
719.676	0.0148383
719.754	0.0147580
719.832	0.0146333
719.910	0.0143963
719.988	0.0142810
720.067	0.0141518
720.145	0.0141360
720.223	0.0140407
720.301	0.0140937
720.379	0.0139142
720.457	0.0140141
720.535	0.0139897
720.613	0.0138112
720.692	0.0140295
720.770	0.0141114
720.848	0.0139055
720.926	0.0143552
721.004	0.0143748
721.082	0.0144537
721.160	0.0145891
721.238	0.0146636
721.317	0.0148582
721.395	0.0147983
721.473	0.0150214
721.551	0.0150993
721.629	0.0151256
721.707	0.0153332
721.785	0.0152211
721.863	0.0151533
721.942	0.0151798
722.020	0.0150861
722.098	0.0151328
722.176	0.0148656
722.254	0.0148116
722.332	0.0147072
722.410	0.0146998
722.488	0.0144970
722.567	0.0144061
722.645	0.0143758
722.723	0.0143307
722.801	0.0143423
722.879	0.0143510
722.957	0.0143224
723.035	0.0144199
723.113	0.0145335
723.192	0.0145206
723.270	0.0148672
723.348	0.0148034
723.426	0.0149419
723.504	0.0149528
723.582	0.0148813
723.660	0.0149217
723.738	0.0149781
723.817	0.0150497
723.895	0.0151368
723.973	0.0151369
724.051	0.0151209
724.129	0.0151682
724.207	0.0148785
724.285	0.0149799
724.363	0.0149519
724.442	0.0148627
724.520	0.0148265
724.598	0.0147206
724.676	0.0146474
724.754	0.0146216
724.832	0.0145903
724.910	0.0145948
724.988	0.0146793
725.067	0.0146353
725.145	0.0146829
725.223	0.0146796
725.301	0.0145718
725.379	0.0146129
725.457	0.0146327
725.535	0.0148112
725.613	0.0146313
725.692	0.0146508
725.770	0.0146836
725.848	0.0147225
725.926	0.0145943
726.004	0.0147338
726.082	0.0145330
726.160	0.0145921
726.238	0.0146094
726.317	0.0145396
726.395	0.0144953
726.473	0.0145308
726.551	0.0144044
726.629	0.0144489
726.707	0.0145134
726.785	0.0144798
726.863	0.0146573
726.942	0.0145459
727.020	0.0145180
727.098	0.0146927
727.176	0.0149132
727.254	0.0149553
727.332	0.0150403
727.410	0.0152076
727.488	0.0150962
727.567	0.0151485
727.645	0.0149986
727.723	0.0151204
727.801	0.0152125
727.879	0.0151470
727.957	0.0149918
728.035	0.0150379
728.113	0.0149203
728.192	0.0148596
728.270	0.0148899
728.348	0.0149065
728.426	0.0148547
728.504	0.0147540
728.582	0.0148883
728.660	0.0149481
728.738	0.0148716
728.817	0.0148940
728.895	0.0147961
728.973	0.0148557
729.051	0.0147855
729.129	0.0148249
729.207	0.0147593
729.285	0.0148320
729.363	0.0147203
729.442	0.0147392
729.520	0.0147784
729.598	0.0148308
729.676	0.0148747
729.754	0.0148360
729.832	0.0147611
729.910	0.0147794
729.988	0.0148480
730.067	0.0150223
730.145	0.0149329
730.223	0.0148333
730.301	0.0148882
730.379	0.0147555
730.457	0.0147366
730.535	0.0146204
730.613	0.0145420
730.692	0.0146826
730.770	0.0145338
730.848	0.0144175
730.926	0.0145633
731.004	0.0143611
731.082	0.0144933
731.160	0.0145018
731.238	0.0144995
731.317	0.0144154
731.395	0.0147196
731.473	0.0145892
731.551	0.0145642
731.629	0.0144284
731.707	0.0145577
731.785	0.0145427
731.863	0.0144949
731.942	0.0144489
732.020	0.0145571
732.098	0.0146887
732.176	0.0147379
732.254	0.0146057
732.332	0.0149601
732.410	0.0148923
732.488	0.0149671
732.567	0.0151077
732.645	0.0150739
732.723	0.0150903
732.801	0.0151998
732.879	0.0153395
732.957	0.0152435
733.035	0.0151022
733.113	0.0152174
733.192	0.0150634
733.270	0.0150551
733.348	0.0151559
733.426	0.0150688
733.504	0.0148051
733.582	0.0147676
733.660	0.0146507
733.738	0.0146676
733.817	0.0145480
733.895	0.0145078
733.973	0.0144295
734.051	0.0143682
734.129	0.0141551
734.207	0.0141225
734.285	0.0141523
734.363	0.0140801
734.442	0.0140640
734.520	0.0140412
734.598	0.0141486
734.676	0.0140804
734.754	0.0141548
734.832	0.0143517
734.910	0.0144643
734.988	0.0144193
735.067	0.0145355
735.145	0.0146733
735.223	0.0147853
735.301	0.0150934
735.379	0.0150551
735.457	0.0153040
735.535	0.0152448
735.613	0.0153205
735.692	0.0153465
735.770	0.0153250
735.848	0.0152532
735.926	0.0151876
736.004	0.0151891
736.082	0.0150830
736.160	0.0150961
736.238	0.0149233
736.317	0.0150143
736.395	0.0148268
736.473	0.0146695
736.551	0.0145876
736.629	0.0146159
736.707	0.0145559
736.785	0.0145118
736.863	0.0144138
736.942	0.0143137
737.020	0.0144110
737.098	0.0143532
737.176	0.0143606
737.254	0.0143794
737.332	0.0143413
737.410	0.0142718
737.488	0.0144605
737.567	0.0145940
737.645	0.0145493
737.723	0.0146783
737.801	0.0148576
737.879	0.0148610
737.957	0.0149857
738.035	0.0150709
738.113	0.0151125
738.192	0.0150849
738.270	0.0151164
738.348	0.0150447
738.426	0.0151977
738.504	0.0150537
738.582	0.0149775
738.660	0.0149012
738.738	0.0149332
738.817	0.0149214
738.895	0.0148843
738.973	0.0149626
739.051	0.0147061
739.129	0.0147305
739.207	0.0147187
739.285	0.0147659
739.363	0.0147561
739.442	0.0145229
739.520	0.0145748
739.598	0.0145626
739.676	0.0145265
739.754	0.0146034
739.832	0.0145094
739.910	0.0146429
739.988	0.0145811
740.067	0.0146685
740.145	0.0147123
740.223	0.0146477
740.301	0.0148173
740.379	0.0148017
740.457	0.0148524
740.535	0.0147391
740.613	0.0148138
740.692	0.0149235
740.770	0.0149498
740.848	0.0147659
740.926	0.0148150
741.004	0.0149204
741.082	0.0148284
741.160	0.0147519
741.238	0.0148193
741.317	0.0148172
741.395	0.0148584
741.473	0.0148537
741.551	0.0148082
741.629	0.0149249
741.707	0.0148301
741.785	0.0146788
741.863	0.0148551
741.942	0.0146632
742.020	0.0146593
742.098	0.0146439
742.176	0.0145135
742.254	0.0145617
742.332	0.0146267
742.410	0.0146365
742.488	0.0146604
742.567	0.0143766
742.645	0.0146101
742.723	0.0147193
742.801	0.0145914
742.879	0.0146194
742.957	0.0147421
743.035	0.0149226
743.113	0.0150216
743.192	0.0147600
743.270	0.0149896
743.348	0.0150425
743.426	0.0150142
743.504	0.0153793
743.582	0.0153106
743.660	0.0152071
743.738	0.0151395
743.817	0.0153334
743.895	0.0151682
743.973	0.0151673
744.051	0.0149772
744.129	0.0149255
744.207	0.0149089
744.285	0.0147065
744.363	0.0144941
744.442	0.0144913
744.520	0.0143873
744.598	0.0143507
744.676	0.0142841
744.754	0.0141891
744.832	0.0141595
744.910	0.0140581
744.988	0.0140167
745.067	0.0140780
745.145	0.0140467
745.223	0.0140993
745.301	0.0140358
745.379	0.0142279
745.457	0.0142916
745.535	0.0145377
745.613	0.0144476
745.692	0.0145451
745.770	0.0147588
745.848	0.0148389
745.926	0.0148776
746.004	0.0150060
746.082	0.0151875
746.160	0.0151273
746.238	0.0151160
746.317	0.0151076
746.395	0.0150836
746.473	0.0150975
746.551	0.0150386
746.629	0.0150126
746.707	0.0149375
746.785	0.0149374
746.863	0.0147430
746.942	0.0146770
747.020	0.0147326
747.098	0.0145079
747.176	0.0145187
747.254	0.0144499
747.332	0.0143460
747.410	0.0143400
747.488	0.0142098
747.567	0.0143877
747.645	0.0143077
747.723	0.0143955
747.801	0.0144257
747.879	0.0145076
747.957	0.0145867
748.035	0.0146730
748.113	0.0146476
748.192	0.0145807
748.270	0.0149858
748.348	0.0150394
748.426	0.0150380
748.504	0.0151860
748.582	0.0152291
748.660	0.0151582
748.738	0.0152563
748.817	0.0151854
748.895	0.0150674
748.973	0.0150802
749.051	0.0150325
749.129	0.0149772
749.207	0.0148699
749.285	0.0146870
749.363	0.0145977
749.442	0.0145149
749.520	0.0142844
749.598	0.0143690
749.676	0.0143924
749.754	0.0142722
749.832	0.0142358
749.910	0.0141319
749.988	0.0141531
750.067	0.0143028
750.145	0.0141530
750.223	0.0143298
750.301	0.0145222
750.379	0.0146165
750.457	0.0144774
750.535	0.0145810
750.613	0.0148369
750.692	0.0148133
750.770	0.0147962
750.848	0.0149395
750.926	0.0150325
751.004	0.0151276
751.082	0.0151602
751.160	0.0153258
751.238	0.0152304
751.317	0.0152545
751.395	0.0152537
751.473	0.0153664
751.551	0.0153982
751.629	0.0153638
751.707	0.0153325
751.785	0.0151895
751.863	0.0151447
751.942	0.0149812
752.020	0.0149193
752.098	0.0149297
752.176	0.0148091
752.254	0.0148927
752.332	0.0147861
752.410	0.0146362
752.488	0.0145241
752.567	0.0144907
752.645	0.0144659
752.723	0.0143338
752.801	0.0145499
752.879	0.0145435
752.957	0.0145691
753.035	0.0144263
753.113	0.0145973
753.192	0.0146619
753.270	0.0146193
753.348	0.0147041
753.426	0.0146678
753.504	0.0148122
753.582	0.0147597
753.660	0.0146673
753.738	0.0147826
753.817	0.0147858
753.895	0.0148615
753.973	0.0148985
754.051	0.0149539
754.129	0.0149562
754.207	0.0150436
754.285	0.0151379
754.363	0.0151175
754.442	0.0148055
754.520	0.0149577
754.598	0.0151382
754.676	0.0151121
754.754	0.0149254
754.832	0.0146988
754.910	0.0147719
754.988	0.0147092
755.067	0.0146239
755.145	0.0146400
755.223	0.0144352
755.301	0.0144918
755.379	0.0145262
755.457	0.0146120
755.535	0.0144524
755.613	0.0146243
755.692	0.0146468
755.770	0.0146257
755.848	0.0146663
755.926	0.0145731
756.004	0.0147138
756.082	0.0147476
756.160	0.0148012
756.238	0.0147932
756.317	0.0147315
756.395	0.0147938
756.473	0.0148161
756.551	0.0148405
756.629	0.0149642
756.707	0.0148568
756.785	0.0149290
756.863	0.0150344
756.942	0.0151198
757.020	0.0150500
757.098	0.0150651
757.176	0.0149390
757.254	0.0148744
757.332	0.0147154
757.410	0.0147729
757.488	0.0147148
757.567	0.0145382
757.645	0.0145023
757.723	0.0144675
757.801	0.0144556
757.879	0.0144881
757.957	0.0145310
758.035	0.0144291
758.113	0.0143726
758.192	0.0144619
758.270	0.0144360
758.348	0.0144632
758.426	0.0144744
758.504	0.0144447
758.582	0.0145482
758.660	0.0147720
758.738	0.0146279
758.817	0.0147898
758.895	0.0149297
758.973	0.0148491
759.051	0.0148223
759.129	0.0149708
759.207	0.0151202
759.285	0.0149744
759.363	0.0150392
759.442	0.0150636
759.520	0.0151862
759.598	0.0151898
759.676	0.0151340
759.754	0.0151396
759.832	0.0150797
759.910	0.0151955
759.988	0.0151976
760.067	0.0152019
760.145	0.0151370
760.223	0.0150371
760.301	0.0149802
760.379	0.0150522
760.457	0.0149700
760.535	0.0149432
760.613	0.0147394
760.692	0.0148158
760.770	0.0149215
760.848	0.0148466
760.926	0.0147645
761.004	0.0146834
761.082	0.0146169
761.160	0.0147847
761.238	0.0147987
761.317	0.0146983
761.395	0.0146942
761.473	0.0147219
761.551	0.0147424
761.629	0.0146178
761.707	0.0148506
761.785	0.0145928
761.863	0.0146844
761.942	0.0148182
762.020	0.0147438
762.098	0.0147137
762.176	0.0146508
762.254	0.0146986
762.332	0.0147612
762.410	0.0148376
762.488	0.0147703
762.567	0.0146391
762.645	0.0146993
762.723	0.0146154
762.801	0.0146458
762.879	0.0146422
762.957	0.0145452
763.035	0.0145582
763.113	0.0145644
763.192	0.0145744
763.270	0.0145259
763.348	0.0145790
763.426	0.0145844
763.504	0.0146866
763.582	0.0147553
763.660	0.0148963
763.738	0.0149928
763.817	0.0149625
763.895	0.0148281
763.973	0.0149554
764.051	0.0150878
764.129	0.0151006
764.207	0.0149815
764.285	0.0150517
764.363	0.0149630
764.442	0.0150447
764.520	0.0149417
764.598	0.0149871
764.676	0.0149506
764.754	0.0147842
764.832	0.0148069
764.910	0.0148257
764.988	0.0147533
765.067	0.0146738
765.145	0.0147395
765.223	0.0147209
765.301	0.0146445
765.379	0.0145766
765.457	0.0143935
765.535	0.0145206
765.613	0.0146017
765.692	0.0145447
765.770	0.0145252
765.848	0.0144717
765.926	0.0145883
766.004	0.0145471
766.082	0.0147858
766.160	0.0147297
766.238	0.0147440
766.317	0.0148254
766.395	0.0148083
766.473	0.0148473
766.551	0.0150060
766.629	0.0150285
766.707	0.0147912
766.785	0.0148266
766.863	0.0148186
766.942	0.0148328
767.020	0.0148360
767.098	0.0146830
767.176	0.0147502
767.254	0.0148047
767.332	0.0149091
767.410	0.0146830
767.488	0.0147211
767.567	0.0147141
767.645	0.0148176
767.723	0.0148764
767.801	0.0145974
767.879	0.0146889
767.957	0.0146603
768.035	0.0146775
768.113	0.0148289
768.192	0.0147533
768.270	0.0147448
768.348	0.0149054
768.426	0.0149673
768.504	0.0149229
768.582	0.0149481
768.660	0.0148811
768.738	0.0149142
768.817	0.0149228
768.895	0.0149226
768.973	0.0148622
769.051	0.0148185
769.129	0.0147084
769.207	0.0146970
769.285	0.0146654
769.363	0.0146894
769.442	0.0145872
769.520	0.0145457
769.598	0.0145305
769.676	0.0144220
769.754	0.0144154
769.832	0.0144398
769.910	0.0144070
769.988	0.0145702
770.067	0.0145515
770.145	0.0146181
770.223	0.0147179
770.301	0.0147556
770.379	0.0146950
770.457	0.0147910
770.535	0.0149199
770.613	0.0149133
770.692	0.0149188
770.770	0.0150346
770.848	0.0148422
770.926	0.0147935
771.004	0.0148655
771.082	0.0148803
771.160	0.0148876
771.238	0.0147654
771.317	0.0147629
771.395	0.0148780
771.473	0.0147344
771.551	0.0147159
771.629	0.0147297
771.707	0.0146777
771.785	0.0148435
771.863	0.0148247
771.942	0.0148581
772.020	0.0147134
772.098	0.0147424
772.176	0.0146434
772.254	0.0147427
772.332	0.0148108
772.410	0.0146922
772.488	0.0147015
772.567	0.0147481
772.645	0.0147679
772.723	0.0145528
772.801	0.0145937
772.879	0.0145545
772.957	0.0147346
773.035	0.0146736
773.113	0.0146829
773.192	0.0146232
773.270	0.0146017
773.348	0.0146978
773.426	0.0146883
773.504	0.0147308
773.582	0.0146822
773.660	0.0147382
773.738	0.0147765
773.817	0.0148627
773.895	0.0148420
773.973	0.0148961
774.051	0.0149438
774.129	0.0148058
774.207	0.0146341
774.285	0.0149419
774.363	0.0148282
774.442	0.0147250
774.520	0.0148463
774.598	0.0147318
774.676	0.0147205
774.754	0.0147152
774.832	0.0146822
774.910	0.0146889
774.988	0.0146165
775.067	0.0146653
775.145	0.0146415
775.223	0.0146879
775.301	0.0145873
775.379	0.0145079
775.457	0.0145370
775.535	0.0145708
775.613	0.0146535
775.692	0.0145031
775.770	0.0145513
775.848	0.0146214
775.926	0.0146781
776.004	0.0147353
776.082	0.0146840
776.160	0.0146781
776.238	0.0147832
776.317	0.0148248
776.395	0.0147336
776.473	0.0149174
776.551	0.0150826
776.629	0.0148546
776.707	0.0149738
776.785	0.0150427
776.863	0.0150543
776.942	0.0150399
777.020	0.0150774
777.098	0.0149689
777.176	0.0149619
777.254	0.0150174
777.332	0.0149449
777.410	0.0149283
777.488	0.0149175
777.567	0.0147913
777.645	0.0148823
777.723	0.0148458
777.801	0.0146659
777.879	0.0146471
777.957	0.0146835
778.035	0.0147090
778.113	0.0145027
778.192	0.0144772
778.270	0.0145113
778.348	0.0144115
778.426	0.0144731
778.504	0.0143419
778.582	0.0143839
778.660	0.0143856
778.738	0.0146062
778.817	0.0144779
778.895	0.0146112
778.973	0.0146423
779.051	0.0146202
779.129	0.0148518
779.207	0.0147578
779.285	0.0147581
779.363	0.0149405
779.442	0.0149037
779.520	0.0149126
779.598	0.0148123
779.676	0.0148170
779.754	0.0148308
779.832	0.0150974
779.910	0.0150031
779.988	0.0148423
780.067	0.0150636
780.145	0.0149081
780.223	0.0148122
780.301	0.0149469
780.379	0.0149690
780.457	0.0148930
780.535	0.0149134
780.613	0.0148246
780.692	0.0148051
780.770	0.0149139
780.848	0.0148418
780.926	0.0147566
781.004	0.0147395
781.082	0.0147058
781.160	0.0147627
781.238	0.0146764
781.317	0.0146477
781.395	0.0146326
781.473	0.0146703
781.551	0.0146465
781.629	0.0147683
781.707	0.0147356
781.785	0.0147960
781.863	0.0146637
781.942	0.0147182
782.020	0.0148830
782.098	0.0148948
782.176	0.0147979
782.254	0.0147785
782.332	0.0148106
782.410	0.0148591
782.488	0.0147596
782.567	0.0148447
782.645	0.0147750
782.723	0.0146677
782.801	0.0148849
782.879	0.0148801
782.957	0.0148900
783.035	0.0148054
783.113	0.0148143
783.192	0.0149809
783.270	0.0149320
783.348	0.0149019
783.426	0.0149609
783.504	0.0148962
783.582	0.0148180
783.660	0.0147712
783.738	0.0149052
783.817	0.0148116
783.895	0.0148694
783.973	0.0146491
784.051	0.0146377
784.129	0.0147173
784.207	0.0146107
784.285	0.0146691
784.363	0.0147010
784.442	0.0145975
784.520	0.0145273
784.598	0.0146451
784.676	0.0147361
784.754	0.0146953
784.832	0.0146442
784.910	0.0148036
784.988	0.0147225
785.067	0.0147476
785.145	0.0146172
785.223	0.0149860
785.301	0.0149648
785.379	0.0149335
785.457	0.0149220
785.535	0.0149236
785.613	0.0150023
785.692	0.0150121
785.770	0.0147894
785.848	0.0149237
785.926	0.0149754
786.004	0.0148266
786.082	0.0146946
786.160	0.0147993
786.238	0.0144498
786.317	0.0144855
786.395	0.0145391
786.473	0.0144296
786.551	0.0144608
786.629	0.0143710
786.707	0.0144263
786.785	0.0144154
786.863	0.0145514
786.942	0.0145428
787.020	0.0145712
787.098	0.0145667
787.176	0.0147721
787.254	0.0149500
787.332	0.0148799
787.410	0.0147927
787.488	0.0149663
787.567	0.0149583
787.645	0.0149757
787.723	0.0149982
787.801	0.0151746
787.879	0.0150064
787.957	0.0150376
788.035	0.0150168
788.113	0.0149519
788.192	0.0149388
788.270	0.0148817
788.348	0.0146984
788.426	0.0146281
788.504	0.0145802
788.582	0.0146089
788.660	0.0144827
788.738	0.0145152
788.817	0.0144537
788.895	0.0143404
788.973	0.0145200
789.051	0.0145352
789.129	0.0144505
789.207	0.0144955
789.285	0.0145772
789.363	0.0146630
789.442	0.0145692
789.520	0.0147373
789.598	0.0149803
789.676	0.0148942
789.754	0.0149299
789.832	0.0150016
789.910	0.0150565
789.988	0.0151215
790.067	0.0151850
790.145	0.0151285
790.223	0.0149836
790.301	0.0150525
790.379	0.0150069
790.457	0.0149957
790.535	0.0148923
790.613	0.0149323
790.692	0.0148288
790.770	0.0146162
790.848	0.0146567
790.926	0.0145260
791.004	0.0144779
791.082	0.0145145
791.160	0.0143939
791.238	0.0144071
791.317	0.0144579
791.395	0.0144781
791.473	0.0146647
791.551	0.0146692
791.629	0.0145747
791.707	0.0147874
791.785	0.0148816
791.863	0.0148463
791.942	0.0149696
792.020	0.0149334
792.098	0.0148881
792.176	0.0149404
792.254	0.0150526
792.332	0.0148990
792.410	0.0149299
792.488	0.0149105
792.567	0.0150120
792.645	0.0148359
792.723	0.0148287
792.801	0.0146417
792.879	0.0146484
792.957	0.0147719
793.035	0.0146575
793.113	0.0145262
793.192	0.0145245
793.270	0.0145161
793.348	0.0145248
793.426	0.0146054
793.504	0.0145873
793.582	0.0146021
793.660	0.0146452
793.738	0.0146523
793.817	0.0147285
793.895	0.0147947
793.973	0.0149751
794.051	0.0148843
794.129	0.0149624
794.207	0.0149217
794.285	0.0149501
794.363	0.0149976
794.442	0.0149902
794.520	0.0150454
794.598	0.0149127
794.676	0.0149978
794.754	0.0150465
794.832	0.0149508
794.910	0.0149225
794.988	0.0148684
795.067	0.0147666
795.145	0.0147062
795.223	0.0145812
795.301	0.0146763
795.379	0.0145755
795.457	0.0145949
795.535	0.0146101
795.613	0.0145319
795.692	0.0144619
795.770	0.0145723
795.848	0.0145480
795.926	0.0145390
796.004	0.0146197
796.082	0.0145488
796.160	0.0145303
796.238	0.0145905
796.317	0.0147231
796.395	0.0146258
796.473	0.0145917
796.551	0.0146439
796.629	0.0146441
796.707	0.0147301
796.785	0.0148296
796.863	0.0147672
796.942	0.0147938
797.020	0.0147473
797.098	0.0147724
797.176	0.0146955
797.254	0.0147863
797.332	0.0146593
797.410	0.0149142
797.488	0.0148460
797.567	0.0146869
797.645	0.0146990
797.723	0.0146824
797.801	0.0146443
797.879	0.0146156
797.957	0.0148125
798.035	0.0147057
798.113	0.0147189
798.192	0.0145525
798.270	0.0145643
798.348	0.0145306
798.426	0.0146391
798.504	0.0146219
798.582	0.0145770
798.660	0.0145969
798.738	0.0147084
798.817	0.0147140
798.895	0.0148497
798.973	0.0149437
799.051	0.0148413
799.129	0.0148186
799.207	0.0150117
799.285	0.0149887
799.363	0.0149138
799.442	0.0149531
799.520	0.0148721
799.598	0.0150082
799.676	0.0148837
799.754	0.0148538
799.832	0.0149490
799.910	0.0148680
799.988	0.0146766
800.067	0.0148115
800.145	0.0146342
800.223	0.0145932
800.301	0.0145312
800.379	0.0146397
800.457	0.0146091
800.535	0.0145979
800.613	0.0147282
800.692	0.0144575
800.770	0.0144963
800.848	0.0145512
800.926	0.0145637
801.004	0.0146368
801.082	0.0145531
801.160	0.0145643
801.238	0.0146117
801.317	0.0148218
801.395	0.0148885
801.473	0.0147639
801.551	0.0147532
801.629	0.0147642
801.707	0.0146931
801.785	0.0149401
801.863	0.0149350
801.942	0.0148077
802.020	0.0148283
802.098	0.0147767
802.176	0.0148003
802.254	0.0147095
802.332	0.0146011
802.410	0.0146946
802.488	0.0146166
802.567	0.0144408
802.645	0.0145904
802.723	0.0146067
802.801	0.0146014
802.879	0.0145313
802.957	0.0144514
803.035	0.0145385
803.113	0.0146625
803.192	0.0146671
803.270	0.0146074
803.348	0.0145811
803.426	0.0146113
803.504	0.0146869
803.582	0.0147404
803.660	0.0147900
803.738	0.0148354
803.817	0.0147625
803.895	0.0148562
803.973	0.0149640
804.051	0.0149502
804.129	0.0150069
804.207	0.0150507
804.285	0.0149763
804.363	0.0149476
804.442	0.0149780
804.520	0.0149664
804.598	0.0149512
804.676	0.0147736
804.754	0.0147681
804.832	0.0148752
804.910	0.0148472
804.988	0.0147761
805.067	0.0148034
805.145	0.0146886
805.223	0.0146110
805.301	0.0147632
805.379	0.0148231
805.457	0.0146220
805.535	0.0146854
805.613	0.0145928
805.692	0.0146387
805.770	0.0147849
805.848	0.0146365
805.926	0.0146872
806.004	0.0147601
806.082	0.0146410
806.160	0.0146072
806.238	0.0146985
806.317	0.0145951
806.395	0.0145923
806.473	0.0146532
806.551	0.0146576
806.629	0.0146355
806.707	0.0147101
806.785	0.0145138
806.863	0.0147108
806.942	0.0145694
807.020	0.0147301
807.098	0.0146156
807.176	0.0145772
807.254	0.0148169
807.332	0.0147714
807.410	0.0147478
807.488	0.0147227
807.567	0.0147644
807.645	0.0146606
807.723	0.0146602
807.801	0.0147958
807.879	0.0147057
807.957	0.0147186
808.035	0.0147235
808.113	0.0147852
808.192	0.0148692
808.270	0.0147924
808.348	0.0148298
808.426	0.0146320
808.504	0.0147450
808.582	0.0148251
808.660	0.0147346
808.738	0.0148199
808.817	0.0147191
808.895	0.0147561
808.973	0.0146892
809.051	0.0148003
809.129	0.0147099
809.207	0.0146754
809.285	0.0146776
809.363	0.0147064
809.442	0.0147342
809.520	0.0148369
809.598	0.0147145
809.676	0.0148129
809.754	0.0147580
809.832	0.0147590
809.910	0.0146848
809.988	0.0149015
810.067	0.0148406
810.145	0.0148051
810.223	0.0147451
810.301	0.0148022
810.379	0.0146674
810.457	0.0147101
810.535	0.0148905
810.613	0.0147930
810.692	0.0146794
810.770	0.0146317
810.848	0.0146608
810.926	0.0146143
811.004	0.0147318
811.082	0.0147717
811.160	0.0148594
811.238	0.0147820
811.317	0.0145967
811.395	0.0145938
811.473	0.0146202
811.551	0.0147342
811.629	0.0147272
811.707	0.0146510
811.785	0.0146925
811.863	0.0146501
811.942	0.0146640
812.020	0.0146738
812.098	0.0145325
812.176	0.0146581
812.254	0.0146590
812.332	0.0147108
812.410	0.0147777
812.488	0.0148610
812.567	0.0147567
812.645	0.0146810
812.723	0.0146932
812.801	0.0147066
812.879	0.0148969
812.957	0.0148013
813.035	0.0148431
813.113	0.0147929
813.192	0.0148569
813.270	0.0145913
813.348	0.0147395
813.426	0.0146657
813.504	0.0146317
813.582	0.0146712
813.660	0.0146373
813.738	0.0145687
813.817	0.0145528
813.895	0.0146709
813.973	0.0146275
814.051	0.0146941
814.129	0.0146798
814.207	0.0146674
814.285	0.0146748
814.363	0.0146069
814.442	0.0146526
814.520	0.0147121
814.598	0.0147284
814.676	0.0147945
814.754	0.0146655
814.832	0.0147629
814.910	0.0148126
814.988	0.0148487
815.067	0.0146803
815.145	0.0148357
815.223	0.0149085
815.301	0.0148308
815.379	0.0147948
815.457	0.0149655
815.535	0.0150515
815.613	0.0149126
815.692	0.0149413
815.770	0.0150136
815.848	0.0149340
815.926	0.0147724
816.004	0.0149107
816.082	0.0148794
816.160	0.0148453
816.238	0.0148067
816.317	0.0147636
816.395	0.0146814
816.473	0.0147111
816.551	0.0147398
816.629	0.0146520
816.707	0.0146316
816.785	0.0147089
816.863	0.0145876
816.942	0.0146181
817.020	0.0145115
817.098	0.0145932
817.176	0.0145521
817.254	0.0145725
817.332	0.0146363
817.410	0.0144831
817.488	0.0145666
817.567	0.0146880
817.645	0.0145167
817.723	0.0146656
817.801	0.0146194
817.879	0.0145353
817.957	0.0146865
818.035	0.0148881
818.113	0.0147918
818.192	0.0148224
818.270	0.0148413
818.348	0.0147243
818.426	0.0148380
818.504	0.0148256
818.582	0.0148618
818.660	0.0147431
818.738	0.0147722
818.817	0.0147418
818.895	0.0147443
818.973	0.0146493
819.051	0.0146016
819.129	0.0146719
819.207	0.0147439
819.285	0.0146056
819.363	0.0146743
819.442	0.0147128
819.520	0.0145831
819.598	0.0146687
819.676	0.0146531
819.754	0.0148483
819.832	0.0148329
819.910	0.0146445
819.988	0.0148892
820.067	0.0148515
820.145	0.0148473
820.223	0.0148874
820.301	0.0147562
820.379	0.0148603
820.457	0.0147995
820.535	0.0148186
820.613	0.0147527
820.692	0.0147317
820.770	0.0147419
820.848	0.0147968
820.926	0.0147267
821.004	0.0146301
821.082	0.0146471
821.160	0.0145970
821.238	0.0146873
821.317	0.0147032
821.395	0.0147446
821.473	0.0145553
821.551	0.0146203
821.629	0.0145959
821.707	0.0145256
821.785	0.0144839
821.863	0.0146384
821.942	0.0145926
822.020	0.0146898
822.098	0.0145926
822.176	0.0145084
822.254	0.0146921
822.332	0.0146267
822.410	0.0146934
822.488	0.0148024
822.567	0.0147228
822.645	0.0147076
822.723	0.0148416
822.801	0.0148698
822.879	0.0148090
822.957	0.0148467
823.035	0.0148587
823.113	0.0148872
823.192	0.0148008
823.270	0.0148800
823.348	0.0147752
823.426	0.0146176
823.504	0.0147490
823.582	0.0149099
823.660	0.0148659
823.738	0.0147171
823.817	0.0147238
823.895	0.0147552
823.973	0.0147102
824.051	0.0147193
824.129	0.0147215
824.207	0.0146336
824.285	0.0145482
824.363	0.0147613
824.442	0.0146493
824.520	0.0146380
824.598	0.0147207
824.676	0.0146404
824.754	0.0147881
824.832	0.0147542
824.910	0.0147460
824.988	0.0145844
825.067	0.0148407
825.145	0.0146849
825.223	0.0147192
825.301	0.0149092
825.379	0.0148733
825.457	0.0148314
825.535	0.0148962
825.613	0.0149426
825.692	0.0148685
825.770	0.0148262
825.848	0.0149422
825.926	0.0147190
826.004	0.0147356
826.082	0.0147848
826.160	0.0148779
826.238	0.0149469
826.317	0.0147980
826.395	0.0147015
826.473	0.0146851
826.551	0.0148144
826.629	0.0147336
826.707	0.0146991
826.785	0.0146738
826.863	0.0145587
826.942	0.0147022
827.020	0.0147431
827.098	0.0146992
827.176	0.0147099
827.254	0.0148090
827.332	0.0148283
827.410	0.0146684
827.488	0.0147491
827.567	0.0149325
827.645	0.0147813
827.723	0.0146016
827.801	0.0147943
827.879	0.0147636
827.957	0.0147917
828.035	0.0146821
828.113	0.0146296
828.192	0.0146563
828.270	0.0147388
828.348	0.0146909
828.426	0.0146069
828.504	0.0147128
828.582	0.0148546
828.660	0.0147130
828.738	0.0145073
828.817	0.0146283
828.895	0.0146259
828.973	0.0147229
829.051	0.0146019
829.129	0.0147790
829.207	0.0146403
829.285	0.0146903
829.363	0.0146067
829.442	0.0147714
829.520	0.0148270
829.598	0.0146794
829.676	0.0147832
829.754	0.0147472
829.832	0.0147543
829.910	0.0146534
829.988	0.0148298
830.067	0.0147777
830.145	0.0148235
830.223	0.0149151
830.301	0.0148646
830.379	0.0148726
830.457	0.0148482
830.535	0.0149509
830.613	0.0147903
830.692	0.0148637
830.770	0.0148483
830.848	0.0148708
830.926	0.0149446
831.004	0.0148978
831.082	0.0148265
831.160	0.0147305
831.238	0.0147763
831.317	0.0148473
831.395	0.0147112
831.473	0.0147569
831.551	0.0146917
831.629	0.0146719
831.707	0.0147157
831.785	0.0146503
831.863	0.0146040
831.942	0.0146416
832.020	0.0146468
832.098	0.0146155
832.176	0.0146719
832.254	0.0148334
832.332	0.0146275
832.410	0.0145300
832.488	0.0146920
832.567	0.0146995
832.645	0.0147678
832.723	0.0147279
832.801	0.0147083
832.879	0.0146889
832.957	0.0147861
833.035	0.0148283
833.113	0.0147541
833.192	0.0149358
833.270	0.0149133
833.348	0.0147980
833.426	0.0149008
833.504	0.0149036
833.582	0.0149014
833.660	0.0149124
833.738	0.0148025
833.817	0.0148280
833.895	0.0148841
833.973	0.0146745
834.051	0.0146316
834.129	0.0148278
834.207	0.0147285
834.285	0.0145470
834.363	0.0145466
834.442	0.0147780
834.520	0.0147032
834.598	0.0147278
834.676	0.0147625
834.754	0.0147182
834.832	0.0146876
834.910	0.0146384
834.988	0.0147948
835.067	0.0146419
835.145	0.0145509
835.223	0.0146935
835.301	0.0146843
835.379	0.0145998
835.457	0.0146663
835.535	0.0146693
835.613	0.0145483
835.692	0.0147307
835.770	0.0145599
835.848	0.0147259
835.926	0.0147468
836.004	0.0145779
836.082	0.0147641
836.160	0.0146699
836.238	0.0147227
836.317	0.0147872
836.395	0.0148304
836.473	0.0148174
836.551	0.0148744
836.629	0.0148040
836.707	0.0148152
836.785	0.0149277
836.863	0.0149480
836.942	0.0147648
837.020	0.0149256
837.098	0.0148578
837.176	0.0146814
837.254	0.0147980
837.332	0.0147527
837.410	0.0147767
837.488	0.0148483
837.567	0.0147760
837.645	0.0148029
837.723	0.0148222
837.801	0.0147430
837.879	0.0147384
837.957	0.0146647
838.035	0.0146986
838.113	0.0147269
838.192	0.0146969
838.270	0.0146637
838.348	0.0147117
838.426	0.0146706
838.504	0.0146761
838.582	0.0147497
838.660	0.0147385
838.738	0.0146989
838.817	0.0146742
838.895	0.0148023
838.973	0.0147695
839.051	0.0147897
839.129	0.0147032
839.207	0.0147769
839.285	0.0148399
839.363	0.0146746
839.442	0.0147060
839.520	0.0146379
839.598	0.0147031
839.676	0.0146906
839.754	0.0148560
839.832	0.0147794
839.910	0.0146394
839.988	0.0147635
840.067	0.0146190
840.145	0.0146496
840.223	0.0147395
840.301	0.0147160
840.379	0.0145985
840.457	0.0147291
840.535	0.0145988
840.613	0.0146785
840.692	0.0147302
840.770	0.0148878
840.848	0.0148893
840.926	0.0147106
841.004	0.0147769
841.082	0.0148576
841.160	0.0147360
841.238	0.0146864
841.317	0.0149146
841.395	0.0149352
841.473	0.0148435
841.551	0.0149168
841.629	0.0149416
841.707	0.0147623
841.785	0.0148487
841.863	0.0147922
841.942	0.0149210
842.020	0.0147588
842.098	0.0148454
842.176	0.0148779
842.254	0.0148446
842.332	0.0147035
842.410	0.0146881
842.488	0.0147195
842.567	0.0147340
842.645	0.0146065
842.723	0.0145466
842.801	0.0146258
842.879	0.0145850
842.957	0.0145565
843.035	0.0144209
843.113	0.0144291
843.192	0.0145068
843.270	0.0144070
843.348	0.0145653
843.426	0.0145037
843.504	0.0143895
843.582	0.0144376
843.660	0.0144309
843.738	0.0145165
843.817	0.0146707
843.895	0.0145807
843.973	0.0145868
844.051	0.0147240
844.129	0.0146746
844.207	0.0148097
844.285	0.0148160
844.363	0.0148920
844.442	0.0148045
844.520	0.0147403
844.598	0.0148888
844.676	0.0149200
844.754	0.0150231
844.832	0.0148450
844.910	0.0148048
844.988	0.0149387
845.067	0.0148112
845.145	0.0148512
845.223	0.0148308
845.301	0.0148306
845.379	0.0146662
845.457	0.0147715
845.535	0.0147095
845.613	0.0147633
845.692	0.0146861
845.770	0.0145578
845.848	0.0146007
845.926	0.0145598
846.004	0.0145915
846.082	0.0144279
846.160	0.0145589
846.238	0.0146548
846.317	0.0145915
846.395	0.0147575
846.473	0.0147402
846.551	0.0145937
846.629	0.0148350
846.707	0.0146809
846.785	0.0149629
846.863	0.0148502
846.942	0.0149531
847.020	0.0148524
847.098	0.0147942
847.176	0.0149217
847.254	0.0148023
847.332	0.0149687
847.410	0.0148658
847.488	0.0148909
847.567	0.0149272
847.645	0.0148449
847.723	0.0147222
847.801	0.0147798
847.879	0.0147976
847.957	0.0147248
848.035	0.0147244
848.113	0.0147265
848.192	0.0146751
848.270	0.0147250
848.348	0.0145847
848.426	0.0144819
848.504	0.0146300
848.582	0.0145660
848.660	0.0146649
848.738	0.0144608
848.817	0.0145331
848.895	0.0146178
848.973	0.0146416
849.051	0.0145461
849.129	0.0146127
849.207	0.0149601
849.285	0.0148315
849.363	0.0148374
849.442	0.0148773
849.520	0.0148379
849.598	0.0149257
849.676	0.0147353
849.754	0.0149040
849.832	0.0147535
849.910	0.0147668
849.988	0.0147952
850.067	0.0148289
850.145	0.0148336
850.223	0.0148346
850.301	0.0148193
850.379	0.0147441
850.457	0.0146769
850.535	0.0149118
850.613	0.0147610
850.692	0.0148132
850.770	0.0146877
850.848	0.0148546
850.926	0.0146941
851.004	0.0146152
851.082	0.0146865
851.160	0.0147437
851.238	0.0146960
851.317	0.0146181
851.395	0.0148665
851.473	0.0146822
851.551	0.0147248
851.629	0.0146664
851.707	0.0147581
851.785	0.0147587
851.863	0.0146980
851.942	0.0146336
852.020	0.0146339
852.098	0.0147797
852.176	0.0146703
852.254	0.0146609
852.332	0.0147070
852.410	0.0146273
852.488	0.0146751
852.567	0.0147573
852.645	0.0146019
852.723	0.0147463
852.801	0.0147186
852.879	0.0146500
852.957	0.0146636
853.035	0.0147113
853.113	0.0146947
853.192	0.0147305
853.270	0.0147812
853.348	0.0147248
853.426	0.0146647
853.504	0.0144916
853.582	0.0146048
853.660	0.0147095
853.738	0.0147948
853.817	0.0147218
853.895	0.0148184
853.973	0.0147249
854.051	0.0146812
854.129	0.0148785
854.207	0.0148116
854.285	0.0147356
854.363	0.0149141
854.442	0.0149585
854.520	0.0147933
854.598	0.0148854
854.676	0.0148542
854.754	0.0149449
854.832	0.0148867
854.910	0.0149059
854.988	0.0150419
855.067	0.0149567
855.145	0.0149471
855.223	0.0149351
855.301	0.0149310
855.379	0.0149358
855.457	0.0149828
855.535	0.0149206
855.613	0.0149012
855.692	0.0149548
855.770	0.0150042
855.848	0.0149837
855.926	0.0148840
856.004	0.0147047
856.082	0.0147721
856.160	0.0147720
856.238	0.0146276
856.317	0.0146807
856.395	0.0146884
856.473	0.0145468
856.551	0.0147430
856.629	0.0147224
856.707	0.0146094
856.785	0.0145545
856.863	0.0146198
856.942	0.0145581
857.020	0.0146252
857.098	0.0145071
857.176	0.0146274
857.254	0.0145206
857.332	0.0144661
857.410	0.0147150
857.488	0.0145016
857.567	0.0146554
857.645	0.0145451
857.723	0.0146696
857.801	0.0147330
857.879	0.0147487
857.957	0.0146313
858.035	0.0148491
858.113	0.0148557
858.192	0.0148277
858.270	0.0149462
858.348	0.0149902
858.426	0.0149445
858.504	0.0149277
858.582	0.0148249
858.660	0.0148978
858.738	0.0150227
858.817	0.0148833
858.895	0.0149302
858.973	0.0149780
859.051	0.0149747
859.129	0.0150132
859.207	0.0148798
859.285	0.0148294
859.363	0.0148264
859.442	0.0149237
859.520	0.0149841
859.598	0.0148611
859.676	0.0148703
859.754	0.0149908
859.832	0.0148827
859.910	0.0148664
859.988	0.0149313
860.067	0.0147742
860.145	0.0146779
860.223	0.0147172
860.301	0.0147121
860.379	0.0147334
860.457	0.0146999
860.535	0.0147458
860.613	0.0146060
860.692	0.0146066
860.770	0.0145242
860.848	0.0146388
860.926	0.0145675
861.004	0.0145179
861.082	0.0146172
861.160	0.0146732
861.238	0.0146027
861.317	0.0145663
861.395	0.0146219
861.473	0.0146582
861.551	0.0147118
861.629	0.0147925
861.707	0.0146037
861.785	0.0147936
861.863	0.0147251
861.942	0.0148108
862.020	0.0148388
862.098	0.0147254
862.176	0.0147160
862.254	0.0148246
862.332	0.0148217
862.410	0.0148907
862.488	0.0147757
862.567	0.0147346
862.645	0.0146825
862.723	0.0147446
862.801	0.0147346
862.879	0.0148144
862.957	0.0148101
863.035	0.0147671
863.113	0.0148031
863.192	0.0147456
863.270	0.0147694
863.348	0.0148437
863.426	0.0147532
863.504	0.0148208
863.582	0.0146012
863.660	0.0148742
863.738	0.0148364
863.817	0.0147822
863.895	0.0148677
863.973	0.0147457
864.051	0.0147689
864.129	0.0148221
864.207	0.0150086
864.285	0.0148238
864.363	0.0149500
864.442	0.0148891
864.520	0.0149060
864.598	0.0149029
864.676	0.0148318
864.754	0.0148552
864.832	0.0148651
864.910	0.0146847
864.988	0.0147166
865.067	0.0147223
865.145	0.0147883
865.223	0.0146712
865.301	0.0145667
865.379	0.0145592
865.457	0.0144929
865.535	0.0144774
865.613	0.0146104
865.692	0.0146941
865.770	0.0144743
865.848	0.0146181
865.926	0.0146143
866.004	0.0145665
866.082	0.0145237
866.160	0.0145994
866.238	0.0146137
866.317	0.0146217
866.395	0.0145738
866.473	0.0147301
866.551	0.0147208
866.629	0.0146675
866.707	0.0146711
866.785	0.0146928
866.863	0.0148335
866.942	0.0148503
867.020	0.0147613
867.098	0.0147630
867.176	0.0145653
867.254	0.0146494
867.332	0.0146428
867.410	0.0145750
867.488	0.0145004
867.567	0.0147096
867.645	0.0145811
867.723	0.0145997
867.801	0.0146384
867.879	0.0146136
867.957	0.0146393
868.035	0.0147288
868.113	0.0145831
868.192	0.0147986
868.270	0.0147852
868.348	0.0148449
868.426	0.0147406
868.504	0.0149741
868.582	0.0150822
868.660	0.0148806
868.738	0.0151580
868.817	0.0150654
868.895	0.0150116
868.973	0.0149876
869.051	0.0149326
869.129	0.0149930
869.207	0.0150001
869.285	0.0151335
869.363	0.0149616
869.442	0.0149840
869.520	0.0148331
869.598	0.0148676
869.676	0.0147445
869.754	0.0148206
869.832	0.0146745
869.910	0.0146770
869.988	0.0147536
870.067	0.0145378
870.145	0.0145563
870.223	0.0145296
870.301	0.0145343
870.379	0.0143993
870.457	0.0144492
870.535	0.0143006
870.613	0.0144887
870.692	0.0144870
870.770	0.0143047
870.848	0.0144717
870.926	0.0146033
871.004	0.0146620
871.082	0.0145876
871.160	0.0147015
871.238	0.0148022
871.317	0.0147125
871.395	0.0146911
871.473	0.0147862
871.551	0.0148437
871.629	0.0147001
871.707	0.0147488
871.785	0.0148279
871.863	0.0148502
871.942	0.0147746
872.020	0.0148001
872.098	0.0148377
872.176	0.0149187
872.254	0.0147128
872.332	0.0147606
872.410	0.0147102
872.488	0.0148116
872.567	0.0148221
872.645	0.0147690
872.723	0.0148083
872.801	0.0147815
872.879	0.0146310
872.957	0.0147839
873.035	0.0147637
873.113	0.0148409
873.192	0.0148613
873.270	0.0148056
873.348	0.0148962
873.426	0.0147806
873.504	0.0149587
873.582	0.0150718
873.660	0.0149750
873.738	0.0149113
873.817	0.0148539
873.895	0.0149023
873.973	0.0148911
874.051	0.0148301
874.129	0.0147817
874.207	0.0148875
874.285	0.0146967
874.363	0.0146476
874.442	0.0145937
874.520	0.0145625
874.598	0.0145169
874.676	0.0145423
874.754	0.0145204
874.832	0.0145862
874.910	0.0145471
874.988	0.0145517
875.067	0.0145182
875.145	0.0144997
875.223	0.0144491
875.301	0.0144912
875.379	0.0145235
875.457	0.0145744
875.535	0.0145507
875.613	0.0144976
875.692	0.0146677
875.770	0.0145973
875.848	0.0146564
875.926	0.0145296
876.004	0.0146951
876.082	0.0147073
876.160	0.0147055
876.238	0.0148623
876.317	0.0148714
876.395	0.0147514
876.473	0.0148341
876.551	0.0148760
876.629	0.0149194
876.707	0.0147545
876.785	0.0148950
876.863	0.0148197
876.942	0.0147224
877.020	0.0148007
877.098	0.0148270
877.176	0.0146888
877.254	0.0147034
877.332	0.0147478
877.410	0.0148008
877.488	0.0148176
877.567	0.0147724
877.645	0.0146220
877.723	0.0146631
877.801	0.0145164
877.879	0.0146304
877.957	0.0145287
878.035	0.0145585
878.113	0.0146024
878.192	0.0147308
878.270	0.0146249
878.348	0.0146664
878.426	0.0145152
878.504	0.0146976
878.582	0.0147383
878.660	0.0145672
878.738	0.0148212
878.817	0.0148476
878.895	0.0145695
878.973	0.0147639
879.051	0.0147510
879.129	0.0149447
879.207	0.0149980
879.285	0.0147478
879.363	0.0147836
879.442	0.0147995
879.520	0.0148395
879.598	0.0148513
879.676	0.0148833
879.754	0.0147327
879.832	0.0149039
879.910	0.0148432
879.988	0.0148707
880.067	0.0147443
880.145	0.0147668
880.223	0.0147776
880.301	0.0147649
880.379	0.0146980
880.457	0.0145326
880.535	0.0147043
880.613	0.0146725
880.692	0.0146008
880.770	0.0146039
880.848	0.0145846
880.926	0.0145301
881.004	0.0145620
881.082	0.0145584
881.160	0.0145247
881.238	0.0145496
881.317	0.0146587
881.395	0.0146977
881.473	0.0146761
881.551	0.0147546
881.629	0.0146907
881.707	0.0146572
881.785	0.0146217
881.863	0.0147404
881.942	0.0146861
882.020	0.0146018
882.098	0.0147098
882.176	0.0148241
882.254	0.0148032
882.332	0.0147468
882.410	0.0147756
882.488	0.0148912
882.567	0.0148850
882.645	0.0149290
882.723	0.0149164
882.801	0.0148815
882.879	0.0149010
882.957	0.0149139
883.035	0.0147558
883.113	0.0148023
883.192	0.0148137
883.270	0.0148801
883.348	0.0147746
883.426	0.0147130
883.504	0.0146902
883.582	0.0147271
883.660	0.0147025
883.738	0.0145321
883.817	0.0146165
883.895	0.0145672
883.973	0.0145398
884.051	0.0144737
884.129	0.0144466
884.207	0.0146566
884.285	0.0146107
884.363	0.0147147
884.442	0.0146333
884.520	0.0147409
884.598	0.0148057
884.676	0.0149081
884.754	0.0149248
884.832	0.0149713
884.910	0.0149319
884.988	0.0149745
885.067	0.0149688
885.145	0.0149234
885.223	0.0151048
885.301	0.0151186
885.379	0.0150954
885.457	0.0147739
885.535	0.0148864
885.613	0.0146765
885.692	0.0147182
885.770	0.0145539
885.848	0.0144901
885.926	0.0145290
886.004	0.0144848
886.082	0.0142119
886.160	0.0142271
886.238	0.0143957
886.317	0.0144034
886.395	0.0144540
886.473	0.0144933
886.551	0.0144893
886.629	0.0146265
886.707	0.0145894
886.785	0.0148499
886.863	0.0148463
886.942	0.0150255
887.020	0.0150549
887.098	0.0151130
887.176	0.0151347
887.254	0.0151833
887.332	0.0153176
887.410	0.0151850
887.488	0.0150472
887.567	0.0151359
887.645	0.0151374
887.723	0.0147950
887.801	0.0148685
887.879	0.0148611
887.957	0.0146944
888.035	0.0146156
888.113	0.0144666
888.192	0.0145631
888.270	0.0143158
888.348	0.0143150
888.426	0.0142777
888.504	0.0142859
888.582	0.0141406
888.660	0.0142804
888.738	0.0143586
888.817	0.0143710
888.895	0.0144907
888.973	0.0146928
889.051	0.0145894
889.129	0.0148365
889.207	0.0148367
889.285	0.0149163
889.363	0.0150716
889.442	0.0152074
889.520	0.0152564
889.598	0.0151807
889.676	0.0152631
889.754	0.0152803
889.832	0.0151661
889.910	0.0151981
889.988	0.0151330
890.067	0.0150420
890.145	0.0149143
890.223	0.0147322
890.301	0.0147005
890.379	0.0146740
890.457	0.0145541
890.535	0.0144464
890.613	0.0144070
890.692	0.0143380
890.770	0.0142163
890.848	0.0141087
890.926	0.0139938
891.004	0.0139636
891.082	0.0141297
891.160	0.0140918
891.238	0.0142295
891.317	0.0144311
891.395	0.0144477
891.473	0.0145660
891.551	0.0145171
891.629	0.0147263
891.707	0.0147451
891.785	0.0148767
891.863	0.0150784
891.942	0.0152044
892.020	0.0152684
892.098	0.0152462
892.176	0.0152628
892.254	0.0153463
892.332	0.0153886
892.410	0.0154241
892.488	0.0151787
892.567	0.0151976
892.645	0.0151328
892.723	0.0149846
892.801	0.0148395
892.879	0.0146730
892.957	0.0147540
893.035	0.0145876
893.113	0.0145527
893.192	0.0143906
893.270	0.0143780
893.348	0.0143611
893.426	0.0142197
893.504	0.0142158
893.582	0.0142430
893.660	0.0142402
893.738	0.0143605
893.817	0.0143276
893.895	0.0145824
893.973	0.0146679
894.051	0.0145234
894.129	0.0147884
894.207	0.0149303
894.285	0.0149985
894.363	0.0150209
894.442	0.0151733
894.520	0.0149519
894.598	0.0151082
894.676	0.0151303
894.754	0.0150524
894.832	0.0149213
894.910	0.0149973
894.988	0.0149548
895.067	0.0149100
895.145	0.0148557
895.223	0.0148018
895.301	0.0147617
895.379	0.0145700
895.457	0.0145145
895.535	0.0144119
895.613	0.0145540
895.692	0.0145074
895.770	0.0144273
895.848	0.0143381
895.926	0.0144773
896.004	0.0144318
896.082	0.0144285
896.160	0.0144366
896.238	0.0143282
896.317	0.0143461
896.395	0.0145538
896.473	0.0147321
896.551	0.0145846
896.629	0.0145606
896.707	0.0145271
896.785	0.0146202
896.863	0.0146871
896.942	0.0147743
897.020	0.0147572
897.098	0.0149172
897.176	0.0149384
897.254	0.0148918
897.332	0.0149602
897.410	0.0150202
897.488	0.0149307
897.567	0.0149672
897.645	0.0149934
897.723	0.0148349
897.801	0.0149719
897.879	0.0150610
897.957	0.0149742
898.035	0.0148515
898.113	0.0148259
898.192	0.0146838
898.270	0.0146456
898.348	0.0146828
898.426	0.0144726
898.504	0.0144536
898.582	0.0144516
898.660	0.0143561
898.738	0.0144592
898.817	0.0143537
898.895	0.0144405
898.973	0.0141618
899.051	0.0142812
899.129	0.0143268
899.207	0.0144093
899.285	0.0143786
899.363	0.0144038
899.442	0.0144798
899.520	0.0145678
899.598	0.0145832
899.676	0.0145401
899.754	0.0147707
899.832	0.0148865
899.910	0.0148895
899.988	0.0149033
900.067	0.0149154
900.145	0.0149865
900.223	0.0150996
900.301	0.0149911
900.379	0.0149629
900.457	0.0149722
900.535	0.0149915
900.613	0.0149146
900.692	0.0150191
900.770	0.0148431
900.848	0.0146445
900.926	0.0147573
901.004	0.0146143
901.082	0.0144871
901.160	0.0145998
901.238	0.0145031
901.317	0.0142911
901.395	0.0144743
901.473	0.0144250
901.551	0.0142811
901.629	0.0143774
901.707	0.0143592
901.785	0.0144906
901.863	0.0144881
901.942	0.0145253
902.020	0.0144830
902.098	0.0146180
902.176	0.0146796
902.254	0.0147167
902.332	0.0147658
902.410	0.0148178
902.488	0.0147443
902.567	0.0148601
902.645	0.0148502
902.723	0.0149357
902.801	0.0148987
902.879	0.0148674
902.957	0.0147893
903.035	0.0148574
903.113	0.0147536
903.192	0.0147955
903.270	0.0147153
903.348	0.0148041
903.426	0.0147385
903.504	0.0147918
903.582	0.0148065
903.660	0.0147521
903.738	0.0146613
903.817	0.0147938
903.895	0.0148175
903.973	0.0147338
904.051	0.0146976
904.129	0.0145805
904.207	0.0147469
904.285	0.0145995
904.363	0.0146719
904.442	0.0146967
904.520	0.0145515
904.598	0.0145793
904.676	0.0144873
904.754	0.0144390
904.832	0.0146105
904.910	0.0145887
904.988	0.0145712
905.067	0.0148315
905.145	0.0146682
905.223	0.0147710
905.301	0.0146767
905.379	0.0145771
905.457	0.0148040
905.535	0.0147114
905.613	0.0147475
905.692	0.0148697
905.770	0.0147752
905.848	0.0146832
905.926	0.0149272
906.004	0.0149239
906.082	0.0149506
906.160	0.0146902
906.238	0.0147829
906.317	0.0147845
906.395	0.0147090
906.473	0.0148477
906.551	0.0147645
906.629	0.0146722
906.707	0.0147263
906.785	0.0148164
906.863	0.0146094
906.942	0.0146179
907.020	0.0147279
907.098	0.0145674
907.176	0.0148084
907.254	0.0147037
907.332	0.0146095
907.410	0.0146472
907.488	0.0146913
907.567	0.0147918
907.645	0.0145370
907.723	0.0147006
907.801	0.0146465
907.879	0.0147955
907.957	0.0147423
908.035	0.0147681
908.113	0.0146746
908.192	0.0147387
908.270	0.0147562
908.348	0.0147620
908.426	0.0148060
908.504	0.0148518
908.582	0.0148106
908.660	0.0149514
908.738	0.0147922
908.817	0.0148049
908.895	0.0146836
908.973	0.0146610
909.051	0.0148322
909.129	0.0145345
909.207	0.0145393
909.285	0.0144956
909.363	0.0146194
909.442	0.0145631
909.520	0.0145465
909.598	0.0145875
909.676	0.0145547
909.754	0.0145365
909.832	0.0147343
909.910	0.0146248
909.988	0.0146537
910.067	0.0146496
910.145	0.0147838
910.223	0.0148156
910.301	0.0147517
910.379	0.0148225
910.457	0.0147961
910.535	0.0150182
910.613	0.0149486
910.692	0.0149261
910.770	0.0148570
910.848	0.0148227
910.926	0.0149390
911.004	0.0148335
911.082	0.0150334
911.160	0.0149101
911.238	0.0148743
911.317	0.0147219
911.395	0.0147658
911.473	0.0149116
911.551	0.0147481
911.629	0.0146472
911.707	0.0147801
911.785	0.0146997
911.863	0.0146259
911.942	0.0146455
912.020	0.0145679
912.098	0.0147075
912.176	0.0146104
912.254	0.0145116
912.332	0.0146792
912.410	0.0146926
912.488	0.0146017
912.567	0.0146677
912.645	0.0146200
912.723	0.0145960
912.801	0.0146099
912.879	0.0147015
912.957	0.0144472
913.035	0.0146565
913.113	0.0146142
913.192	0.0147701
913.270	0.0146304
913.348	0.0145701
913.426	0.0148058
913.504	0.0148141
913.582	0.0148411
913.660	0.0148021
913.738	0.0148178
913.817	0.0147697
913.895	0.0148547
913.973	0.0149671
914.051	0.0148254
914.129	0.0147182
914.207	0.0149322
914.285	0.0146621
914.363	0.0147668
914.442	0.0147321
914.520	0.0146994
914.598	0.0147272
914.676	0.0147622
914.754	0.0146301
914.832	0.0146857
914.910	0.0146879
914.988	0.0146355
915.067	0.0146772
915.145	0.0146163
915.223	0.0146490
915.301	0.0146600
915.379	0.0146384
915.457	0.0146445
915.535	0.0147754
915.613	0.0146815
915.692	0.0145885
915.770	0.0148003
915.848	0.0145510
915.926	0.0146266
916.004	0.0147338
916.082	0.0146941
916.160	0.0147021
916.238	0.0148266
916.317	0.0148169
916.395	0.0147420
916.473	0.0146341
916.551	0.0147879
916.629	0.0146743
916.707	0.0147488
916.785	0.0147619
916.863	0.0146516
916.942	0.0147179
917.020	0.0146698
917.098	0.0145934
917.176	0.0146407
917.254	0.0145523
917.332	0.0145191
917.410	0.0146276
917.488	0.0145308
917.567	0.0144720
917.645	0.0144801
917.723	0.0146050
917.801	0.0147211
917.879	0.0144727
917.957	0.0146661
918.035	0.0146418
918.113	0.0146843
918.192	0.0146790
918.270	0.0147546
918.348	0.0147320
918.426	0.0147746
918.504	0.0146992
918.582	0.0148457
918.660	0.0147733
918.738	0.0148980
918.817	0.0149004
918.895	0.0147946
918.973	0.0149065
919.051	0.0149763
919.129	0.0148985
919.207	0.0147942
919.285	0.0147566
919.363	0.0148185
919.442	0.0147063
919.520	0.0145959
919.598	0.0146724
919.676	0.0147295
919.754	0.0144746
919.832	0.0145772
919.910	0.0144706
