05/28/2022	13:57:15	Ver.	4.1	UNKNOWN
Optical Delay	599.988409	Delta X		0.078125	Sweeps	1	Scan Rate	0/0
Coordinates	Axis 1	NaN	Axis 2	NaN	Axis 3	NaN	Axis 4	NaN	Axis 5	NaN	Axis 6	0.000000
TX Power	0.000000	RX Power	0.000000

599.988	0.0148949
600.067	0.0149174
600.145	0.0148475
600.223	0.0148536
600.301	0.0148640
600.379	0.0148244
600.457	0.0150193
600.535	0.0148071
600.613	0.0148260
600.692	0.0150402
600.770	0.0148814
600.848	0.0148133
600.926	0.0149030
601.004	0.0148756
601.082	0.0147893
601.160	0.0148911
601.238	0.0148854
601.317	0.0149049
601.395	0.0149419
601.473	0.0148171
601.551	0.0149039
601.629	0.0148889
601.707	0.0147169
601.785	0.0149217
601.863	0.0150189
601.942	0.0149478
602.020	0.0149245
602.098	0.0149126
602.176	0.0148486
602.254	0.0148736
602.332	0.0148761
602.410	0.0148428
602.488	0.0148622
602.567	0.0149438
602.645	0.0149876
602.723	0.0148903
602.801	0.0148105
602.879	0.0149505
602.957	0.0149490
603.035	0.0148872
603.113	0.0147813
603.192	0.0150398
603.270	0.0150086
603.348	0.0148792
603.426	0.0148320
603.504	0.0149594
603.582	0.0148959
603.660	0.0149564
603.738	0.0150091
603.817	0.0148647
603.895	0.0147533
603.973	0.0148454
604.051	0.0148934
604.129	0.0148898
604.207	0.0148753
604.285	0.0148629
604.363	0.0148692
604.442	0.0148740
604.520	0.0149609
604.598	0.0148838
604.676	0.0149134
604.754	0.0148172
604.832	0.0149110
604.910	0.0148843
604.988	0.0150195
605.067	0.0149265
605.145	0.0149715
605.223	0.0149182
605.301	0.0149206
605.379	0.0148403
605.457	0.0148555
605.535	0.0149012
605.613	0.0149410
605.692	0.0149718
605.770	0.0149496
605.848	0.0148997
605.926	0.0148338
606.004	0.0149793
606.082	0.0149478
606.160	0.0148737
606.238	0.0149726
606.317	0.0150927
606.395	0.0148078
606.473	0.0148152
606.551	0.0149052
606.629	0.0148458
606.707	0.0149316
606.785	0.0148692
606.863	0.0148642
606.942	0.0148461
607.020	0.0148842
607.098	0.0149546
607.176	0.0148627
607.254	0.0149786
607.332	0.0148776
607.410	0.0148391
607.488	0.0149829
607.567	0.0149368
607.645	0.0150069
607.723	0.0149417
607.801	0.0149146
607.879	0.0149547
607.957	0.0148862
608.035	0.0148203
608.113	0.0148629
608.192	0.0148808
608.270	0.0146670
608.348	0.0149580
608.426	0.0149798
608.504	0.0148987
608.582	0.0148900
608.660	0.0149661
608.738	0.0149215
608.817	0.0148267
608.895	0.0149517
608.973	0.0149406
609.051	0.0148602
609.129	0.0147782
609.207	0.0148408
609.285	0.0147739
609.363	0.0148631
609.442	0.0148927
609.520	0.0148934
609.598	0.0148431
609.676	0.0149442
609.754	0.0148752
609.832	0.0148447
609.910	0.0148645
609.988	0.0148995
610.067	0.0149155
610.145	0.0148388
610.223	0.0148714
610.301	0.0149615
610.379	0.0148699
610.457	0.0149159
610.535	0.0147144
610.613	0.0148765
610.692	0.0148136
610.770	0.0148602
610.848	0.0148282
610.926	0.0149082
611.004	0.0148905
611.082	0.0149058
611.160	0.0148325
611.238	0.0148824
611.317	0.0149191
611.395	0.0148219
611.473	0.0148797
611.551	0.0148327
611.629	0.0148079
611.707	0.0147332
611.785	0.0149369
611.863	0.0149171
611.942	0.0147877
612.020	0.0148141
612.098	0.0148296
612.176	0.0148444
612.254	0.0148683
612.332	0.0149718
612.410	0.0149391
612.488	0.0147758
612.567	0.0148306
612.645	0.0148727
612.723	0.0148988
612.801	0.0148373
612.879	0.0149185
612.957	0.0149413
613.035	0.0148405
613.113	0.0148501
613.192	0.0149689
613.270	0.0148988
613.348	0.0149438
613.426	0.0149236
613.504	0.0149237
613.582	0.0149103
613.660	0.0149437
613.738	0.0149272
613.817	0.0148064
613.895	0.0148763
613.973	0.0148318
614.051	0.0149287
614.129	0.0147539
614.207	0.0147910
614.285	0.0147859
614.363	0.0149138
614.442	0.0148883
614.520	0.0148456
614.598	0.0149644
614.676	0.0149655
614.754	0.0149689
614.832	0.0149351
614.910	0.0148760
614.988	0.0149100
615.067	0.0147844
615.145	0.0147666
615.223	0.0148379
615.301	0.0149553
615.379	0.0149591
615.457	0.0149776
615.535	0.0149529
615.613	0.0149386
615.692	0.0148435
615.770	0.0148462
615.848	0.0149641
615.926	0.0148223
616.004	0.0149114
616.082	0.0149325
616.160	0.0148388
616.238	0.0148843
616.317	0.0148608
616.395	0.0148042
616.473	0.0150230
616.551	0.0149237
616.629	0.0148969
616.707	0.0148575
616.785	0.0149423
616.863	0.0148154
616.942	0.0146893
617.020	0.0149924
617.098	0.0149048
617.176	0.0148138
617.254	0.0150127
617.332	0.0148145
617.410	0.0148584
617.488	0.0148971
617.567	0.0149436
617.645	0.0149184
617.723	0.0148666
617.801	0.0148332
617.879	0.0149259
617.957	0.0148985
618.035	0.0148257
618.113	0.0149440
618.192	0.0150728
618.270	0.0149268
618.348	0.0147523
618.426	0.0148577
618.504	0.0147835
618.582	0.0150804
618.660	0.0148422
618.738	0.0148962
618.817	0.0148072
618.895	0.0148584
618.973	0.0148056
619.051	0.0147213
619.129	0.0147729
619.207	0.0148307
619.285	0.0148717
619.363	0.0147146
619.442	0.0148530
619.520	0.0147991
619.598	0.0147940
619.676	0.0148145
619.754	0.0147296
619.832	0.0148823
619.910	0.0148177
619.988	0.0148185
620.067	0.0148078
620.145	0.0148769
620.223	0.0148817
620.301	0.0147572
620.379	0.0148013
620.457	0.0148793
620.535	0.0148210
620.613	0.0147767
620.692	0.0148535
620.770	0.0148971
620.848	0.0147958
620.926	0.0148723
621.004	0.0149262
621.082	0.0148936
621.160	0.0149789
621.238	0.0148477
621.317	0.0148179
621.395	0.0149003
621.473	0.0148838
621.551	0.0149358
621.629	0.0148553
621.707	0.0148345
621.785	0.0149173
621.863	0.0148663
621.942	0.0147704
622.020	0.0147598
622.098	0.0147030
622.176	0.0148161
622.254	0.0148691
622.332	0.0149459
622.410	0.0149055
622.488	0.0148386
622.567	0.0148542
622.645	0.0147463
622.723	0.0148654
622.801	0.0148582
622.879	0.0147768
622.957	0.0148214
623.035	0.0149191
623.113	0.0148022
623.192	0.0148902
623.270	0.0148273
623.348	0.0148483
623.426	0.0149097
623.504	0.0149535
623.582	0.0147718
623.660	0.0148930
623.738	0.0148152
623.817	0.0148826
623.895	0.0148370
623.973	0.0148389
624.051	0.0148592
624.129	0.0148988
624.207	0.0150146
624.285	0.0149069
624.363	0.0147955
624.442	0.0148140
624.520	0.0149429
624.598	0.0148571
624.676	0.0148361
624.754	0.0148611
624.832	0.0149185
624.910	0.0148806
624.988	0.0148571
625.067	0.0147833
625.145	0.0148933
625.223	0.0148509
625.301	0.0149754
625.379	0.0150203
625.457	0.0148177
625.535	0.0148557
625.613	0.0149899
625.692	0.0149906
625.770	0.0147962
625.848	0.0148465
625.926	0.0149564
626.004	0.0149315
626.082	0.0149474
626.160	0.0149744
626.238	0.0148401
626.317	0.0148331
626.395	0.0150105
626.473	0.0147753
626.551	0.0148203
626.629	0.0147873
626.707	0.0149376
626.785	0.0149027
626.863	0.0149313
626.942	0.0148738
627.020	0.0148547
627.098	0.0147902
627.176	0.0149947
627.254	0.0147674
627.332	0.0148165
627.410	0.0149419
627.488	0.0149760
627.567	0.0149287
627.645	0.0148698
627.723	0.0150050
627.801	0.0146700
627.879	0.0149635
627.957	0.0147892
628.035	0.0147939
628.113	0.0147797
628.192	0.0149419
628.270	0.0150486
628.348	0.0149353
628.426	0.0148988
628.504	0.0149294
628.582	0.0148721
628.660	0.0149270
628.738	0.0148811
628.817	0.0148197
628.895	0.0148223
628.973	0.0149184
629.051	0.0147442
629.129	0.0148482
629.207	0.0149244
629.285	0.0148387
629.363	0.0149292
629.442	0.0148972
629.520	0.0149244
629.598	0.0150134
629.676	0.0146989
629.754	0.0147598
629.832	0.0149304
629.910	0.0149499
629.988	0.0148797
630.067	0.0147749
630.145	0.0148579
630.223	0.0149695
630.301	0.0147651
630.379	0.0148701
630.457	0.0149031
630.535	0.0148907
630.613	0.0150026
630.692	0.0149227
630.770	0.0147301
630.848	0.0148620
630.926	0.0149003
631.004	0.0149294
631.082	0.0149197
631.160	0.0149568
631.238	0.0148981
631.317	0.0149669
631.395	0.0150194
631.473	0.0149987
631.551	0.0149135
631.629	0.0149245
631.707	0.0149075
631.785	0.0148012
631.863	0.0148122
631.942	0.0148775
632.020	0.0148771
632.098	0.0149807
632.176	0.0148595
632.254	0.0148426
632.332	0.0148053
632.410	0.0148793
632.488	0.0148602
632.567	0.0148934
632.645	0.0149658
632.723	0.0149283
632.801	0.0148710
632.879	0.0149667
632.957	0.0149071
633.035	0.0148392
633.113	0.0148980
633.192	0.0148438
633.270	0.0149755
633.348	0.0148209
633.426	0.0149503
633.504	0.0149118
633.582	0.0149558
633.660	0.0147842
633.738	0.0150824
633.817	0.0148745
633.895	0.0147440
633.973	0.0146973
634.051	0.0148207
634.129	0.0149592
634.207	0.0149577
634.285	0.0148949
634.363	0.0150237
634.442	0.0148598
634.520	0.0148949
634.598	0.0148788
634.676	0.0148376
634.754	0.0148442
634.832	0.0148572
634.910	0.0147764
634.988	0.0148663
635.067	0.0150067
635.145	0.0148560
635.223	0.0147675
635.301	0.0149124
635.379	0.0148702
635.457	0.0148351
635.535	0.0148664
635.613	0.0148190
635.692	0.0149380
635.770	0.0149071
635.848	0.0149818
635.926	0.0149107
636.004	0.0148878
636.082	0.0147624
636.160	0.0148152
636.238	0.0150004
636.317	0.0149988
636.395	0.0149342
636.473	0.0149006
636.551	0.0147694
636.629	0.0147877
636.707	0.0149575
636.785	0.0149807
636.863	0.0149451
636.942	0.0148599
637.020	0.0148226
637.098	0.0150021
637.176	0.0149472
637.254	0.0147678
637.332	0.0148882
637.410	0.0148637
637.488	0.0148682
637.567	0.0148065
637.645	0.0149613
637.723	0.0149102
637.801	0.0147651
637.879	0.0148497
637.957	0.0147144
638.035	0.0149150
638.113	0.0149507
638.192	0.0149622
638.270	0.0148380
638.348	0.0148968
638.426	0.0148255
638.504	0.0149179
638.582	0.0150502
638.660	0.0148038
638.738	0.0148058
638.817	0.0150117
638.895	0.0148606
638.973	0.0149173
639.051	0.0150763
639.129	0.0148244
639.207	0.0148810
639.285	0.0149203
639.363	0.0149207
639.442	0.0148927
639.520	0.0148172
639.598	0.0150539
639.676	0.0148833
639.754	0.0148595
639.832	0.0147997
639.910	0.0149223
639.988	0.0149137
640.067	0.0148383
640.145	0.0149017
640.223	0.0149081
640.301	0.0148935
640.379	0.0150066
640.457	0.0149607
640.535	0.0149193
640.613	0.0149020
640.692	0.0150418
640.770	0.0147547
640.848	0.0149277
640.926	0.0149731
641.004	0.0148629
641.082	0.0149464
641.160	0.0148450
641.238	0.0147919
641.317	0.0149068
641.395	0.0148837
641.473	0.0149426
641.551	0.0148087
641.629	0.0148060
641.707	0.0148902
641.785	0.0147652
641.863	0.0149648
641.942	0.0149097
642.020	0.0148329
642.098	0.0146941
642.176	0.0148563
642.254	0.0148910
642.332	0.0147631
642.410	0.0149851
642.488	0.0148176
642.567	0.0148579
642.645	0.0149120
642.723	0.0148725
642.801	0.0149761
642.879	0.0149250
642.957	0.0148137
643.035	0.0148975
643.113	0.0148999
643.192	0.0150385
643.270	0.0150094
643.348	0.0148767
643.426	0.0149523
643.504	0.0148863
643.582	0.0148126
643.660	0.0147775
643.738	0.0148293
643.817	0.0148476
643.895	0.0148724
643.973	0.0149546
644.051	0.0149379
644.129	0.0149473
644.207	0.0149356
644.285	0.0149064
644.363	0.0148723
644.442	0.0148079
644.520	0.0148564
644.598	0.0149210
644.676	0.0149484
644.754	0.0148876
644.832	0.0149038
644.910	0.0148392
644.988	0.0148780
645.067	0.0148495
645.145	0.0148853
645.223	0.0149851
645.301	0.0148686
645.379	0.0148952
645.457	0.0147034
645.535	0.0150067
645.613	0.0148739
645.692	0.0148479
645.770	0.0148145
645.848	0.0149136
645.926	0.0148766
646.004	0.0149676
646.082	0.0148617
646.160	0.0147851
646.238	0.0149178
646.317	0.0148230
646.395	0.0148405
646.473	0.0150015
646.551	0.0149779
646.629	0.0149519
646.707	0.0148293
646.785	0.0148963
646.863	0.0149287
646.942	0.0148812
647.020	0.0147799
647.098	0.0148213
647.176	0.0148017
647.254	0.0148637
647.332	0.0150494
647.410	0.0148850
647.488	0.0149055
647.567	0.0147658
647.645	0.0148387
647.723	0.0148951
647.801	0.0150076
647.879	0.0148981
647.957	0.0148319
648.035	0.0150143
648.113	0.0148842
648.192	0.0149488
648.270	0.0148639
648.348	0.0150413
648.426	0.0148798
648.504	0.0150020
648.582	0.0149165
648.660	0.0149250
648.738	0.0149883
648.817	0.0148904
648.895	0.0148372
648.973	0.0149247
649.051	0.0149447
649.129	0.0147968
649.207	0.0149902
649.285	0.0149677
649.363	0.0148997
649.442	0.0149719
649.520	0.0148030
649.598	0.0149648
649.676	0.0149854
649.754	0.0148755
649.832	0.0148643
649.910	0.0147817
649.988	0.0148580
650.067	0.0151052
650.145	0.0149552
650.223	0.0149458
650.301	0.0148347
650.379	0.0149969
650.457	0.0150224
650.535	0.0148372
650.613	0.0149561
650.692	0.0150990
650.770	0.0148341
650.848	0.0148818
650.926	0.0149983
651.004	0.0149252
651.082	0.0149003
651.160	0.0149377
651.238	0.0148165
651.317	0.0148487
651.395	0.0149934
651.473	0.0149171
651.551	0.0148618
651.629	0.0150037
651.707	0.0148430
651.785	0.0148036
651.863	0.0148421
651.942	0.0149474
652.020	0.0150224
652.098	0.0148506
652.176	0.0149438
652.254	0.0148419
652.332	0.0147720
652.410	0.0149541
652.488	0.0147520
652.567	0.0149673
652.645	0.0149469
652.723	0.0149275
652.801	0.0148897
652.879	0.0147929
652.957	0.0149152
653.035	0.0148820
653.113	0.0148623
653.192	0.0149162
653.270	0.0149929
653.348	0.0149192
653.426	0.0149485
653.504	0.0150291
653.582	0.0148726
653.660	0.0150145
653.738	0.0148766
653.817	0.0147296
653.895	0.0148049
653.973	0.0149035
654.051	0.0150224
654.129	0.0149501
654.207	0.0149279
654.285	0.0148984
654.363	0.0148068
654.442	0.0148594
654.520	0.0148763
654.598	0.0149416
654.676	0.0147571
654.754	0.0147604
654.832	0.0149389
654.910	0.0147980
654.988	0.0146946
655.067	0.0147511
655.145	0.0148691
655.223	0.0149772
655.301	0.0150076
655.379	0.0149281
655.457	0.0149462
655.535	0.0148145
655.613	0.0147332
655.692	0.0150101
655.770	0.0148281
655.848	0.0148846
655.926	0.0148709
656.004	0.0149283
656.082	0.0149313
656.160	0.0148988
656.238	0.0148611
656.317	0.0150329
656.395	0.0149725
656.473	0.0148562
656.551	0.0148546
656.629	0.0149609
656.707	0.0148030
656.785	0.0147829
656.863	0.0148618
656.942	0.0148673
657.020	0.0149448
657.098	0.0149245
657.176	0.0148682
657.254	0.0148782
657.332	0.0149244
657.410	0.0149005
657.488	0.0148447
657.567	0.0149214
657.645	0.0149695
657.723	0.0149557
657.801	0.0148581
657.879	0.0149089
657.957	0.0149327
658.035	0.0149873
658.113	0.0147951
658.192	0.0149480
658.270	0.0148318
658.348	0.0150227
658.426	0.0149221
658.504	0.0148914
658.582	0.0149249
658.660	0.0149722
658.738	0.0148971
658.817	0.0150843
658.895	0.0149529
658.973	0.0148617
659.051	0.0148120
659.129	0.0149781
659.207	0.0148824
659.285	0.0149030
659.363	0.0149148
659.442	0.0149080
659.520	0.0149281
659.598	0.0148153
659.676	0.0150307
659.754	0.0149568
659.832	0.0147466
659.910	0.0149238
659.988	0.0148263
660.067	0.0149776
660.145	0.0148521
660.223	0.0149921
660.301	0.0150465
660.379	0.0149205
660.457	0.0147202
660.535	0.0148158
660.613	0.0149225
660.692	0.0148483
660.770	0.0150151
660.848	0.0148521
660.926	0.0149618
661.004	0.0149039
661.082	0.0147971
661.160	0.0148925
661.238	0.0148215
661.317	0.0148318
661.395	0.0149478
661.473	0.0149697
661.551	0.0148821
661.629	0.0148757
661.707	0.0148273
661.785	0.0148659
661.863	0.0149514
661.942	0.0148761
662.020	0.0149239
662.098	0.0148556
662.176	0.0148982
662.254	0.0148256
662.332	0.0148149
662.410	0.0148084
662.488	0.0147878
662.567	0.0148922
662.645	0.0151433
662.723	0.0149017
662.801	0.0148569
662.879	0.0148720
662.957	0.0148656
663.035	0.0148379
663.113	0.0148315
663.192	0.0148503
663.270	0.0149104
663.348	0.0148423
663.426	0.0148408
663.504	0.0149844
663.582	0.0148041
663.660	0.0148322
663.738	0.0147964
663.817	0.0147490
663.895	0.0148456
663.973	0.0147701
664.051	0.0147877
664.129	0.0148969
664.207	0.0147229
664.285	0.0148626
664.363	0.0148813
664.442	0.0149263
664.520	0.0149155
664.598	0.0147952
664.676	0.0148048
664.754	0.0147556
664.832	0.0147213
664.910	0.0147363
664.988	0.0150298
665.067	0.0149363
665.145	0.0149345
665.223	0.0148145
665.301	0.0148569
665.379	0.0150007
665.457	0.0148662
665.535	0.0147521
665.613	0.0148914
665.692	0.0148927
665.770	0.0149058
665.848	0.0148946
665.926	0.0148065
666.004	0.0148848
666.082	0.0148316
666.160	0.0148875
666.238	0.0146906
666.317	0.0148122
666.395	0.0148723
666.473	0.0147233
666.551	0.0148350
666.629	0.0147633
666.707	0.0147867
666.785	0.0149055
666.863	0.0148676
666.942	0.0147044
667.020	0.0147660
667.098	0.0149093
667.176	0.0147992
667.254	0.0148174
667.332	0.0147131
667.410	0.0147977
667.488	0.0147935
667.567	0.0148623
667.645	0.0148251
667.723	0.0148652
667.801	0.0147890
667.879	0.0148759
667.957	0.0148925
668.035	0.0149473
668.113	0.0148381
668.192	0.0148725
668.270	0.0148581
668.348	0.0148307
668.426	0.0149671
668.504	0.0148489
668.582	0.0149265
668.660	0.0148223
668.738	0.0149072
668.817	0.0148203
668.895	0.0146706
668.973	0.0149297
669.051	0.0148592
669.129	0.0148735
669.207	0.0147689
669.285	0.0148049
669.363	0.0148394
669.442	0.0149210
669.520	0.0148650
669.598	0.0148543
669.676	0.0148446
669.754	0.0148442
669.832	0.0149125
669.910	0.0147382
669.988	0.0148761
670.067	0.0148053
670.145	0.0147900
670.223	0.0148409
670.301	0.0149078
670.379	0.0148505
670.457	0.0150032
670.535	0.0148924
670.613	0.0148067
670.692	0.0148365
670.770	0.0147758
670.848	0.0147947
670.926	0.0148685
671.004	0.0149537
671.082	0.0148081
671.160	0.0150368
671.238	0.0148914
671.317	0.0148735
671.395	0.0148555
671.473	0.0148714
671.551	0.0148451
671.629	0.0149226
671.707	0.0148225
671.785	0.0149660
671.863	0.0148235
671.942	0.0150644
672.020	0.0150361
672.098	0.0149918
672.176	0.0149139
672.254	0.0149037
672.332	0.0148175
672.410	0.0149005
672.488	0.0149330
672.567	0.0148256
672.645	0.0148774
672.723	0.0148660
672.801	0.0148397
672.879	0.0148441
672.957	0.0149340
673.035	0.0148086
673.113	0.0148673
673.192	0.0149393
673.270	0.0149007
673.348	0.0149620
673.426	0.0150333
673.504	0.0148949
673.582	0.0149068
673.660	0.0149416
673.738	0.0148000
673.817	0.0150015
673.895	0.0148706
673.973	0.0149532
674.051	0.0149216
674.129	0.0149654
674.207	0.0148343
674.285	0.0148410
674.363	0.0150208
674.442	0.0149002
674.520	0.0148470
674.598	0.0150051
674.676	0.0149654
674.754	0.0148978
674.832	0.0148421
674.910	0.0148407
674.988	0.0148746
675.067	0.0148428
675.145	0.0148790
675.223	0.0148589
675.301	0.0149691
675.379	0.0149831
675.457	0.0146748
675.535	0.0148257
675.613	0.0149027
675.692	0.0148194
675.770	0.0148128
675.848	0.0148190
675.926	0.0148591
676.004	0.0148684
676.082	0.0147596
676.160	0.0148553
676.238	0.0148194
676.317	0.0148853
676.395	0.0148419
676.473	0.0149511
676.551	0.0147842
676.629	0.0146656
676.707	0.0148131
676.785	0.0147728
676.863	0.0148520
676.942	0.0148666
677.020	0.0147211
677.098	0.0148067
677.176	0.0147913
677.254	0.0148916
677.332	0.0147977
677.410	0.0147003
677.488	0.0147480
677.567	0.0147067
677.645	0.0147974
677.723	0.0148219
677.801	0.0148524
677.879	0.0147404
677.957	0.0147307
678.035	0.0148853
678.113	0.0148463
678.192	0.0148810
678.270	0.0147399
678.348	0.0148223
678.426	0.0148589
678.504	0.0149049
678.582	0.0148223
678.660	0.0147737
678.738	0.0148141
678.817	0.0147012
678.895	0.0147955
678.973	0.0148074
679.051	0.0147536
679.129	0.0149280
679.207	0.0147295
679.285	0.0148372
679.363	0.0148949
679.442	0.0148912
679.520	0.0149315
679.598	0.0148190
679.676	0.0147773
679.754	0.0147090
679.832	0.0147063
679.910	0.0148364
679.988	0.0147666
680.067	0.0148313
680.145	0.0147034
680.223	0.0147160
680.301	0.0148918
680.379	0.0148222
680.457	0.0148642
680.535	0.0148434
680.613	0.0147974
680.692	0.0148178
680.770	0.0149063
680.848	0.0148619
680.926	0.0148299
681.004	0.0148042
681.082	0.0146973
681.160	0.0148057
681.238	0.0146734
681.317	0.0148965
681.395	0.0148851
681.473	0.0149554
681.551	0.0147495
681.629	0.0148046
681.707	0.0149026
681.785	0.0148801
681.863	0.0147920
681.942	0.0148561
682.020	0.0148065
682.098	0.0149308
682.176	0.0148441
682.254	0.0149043
682.332	0.0147601
682.410	0.0147108
682.488	0.0148113
682.567	0.0149113
682.645	0.0149619
682.723	0.0148296
682.801	0.0147971
682.879	0.0148791
682.957	0.0148647
683.035	0.0148343
683.113	0.0147391
683.192	0.0148329
683.270	0.0149219
683.348	0.0149866
683.426	0.0149292
683.504	0.0148402
683.582	0.0149619
683.660	0.0149100
683.738	0.0148861
683.817	0.0149354
683.895	0.0149383
683.973	0.0149287
684.051	0.0148502
684.129	0.0147292
684.207	0.0149345
684.285	0.0147882
684.363	0.0148035
684.442	0.0148537
684.520	0.0148026
684.598	0.0148942
684.676	0.0149316
684.754	0.0148901
684.832	0.0148735
684.910	0.0149009
684.988	0.0148885
685.067	0.0148552
685.145	0.0148775
685.223	0.0147501
685.301	0.0149829
685.379	0.0148767
685.457	0.0149936
685.535	0.0148257
685.613	0.0148125
685.692	0.0148990
685.770	0.0148703
685.848	0.0147985
685.926	0.0147595
686.004	0.0149272
686.082	0.0149774
686.160	0.0149025
686.238	0.0148546
686.317	0.0148585
686.395	0.0146790
686.473	0.0147974
686.551	0.0145696
686.629	0.0146239
686.707	0.0148514
686.785	0.0146597
686.863	0.0147169
686.942	0.0147472
687.020	0.0146864
687.098	0.0147315
687.176	0.0146867
687.254	0.0147953
687.332	0.0147632
687.410	0.0149622
687.488	0.0148965
687.567	0.0150521
687.645	0.0150478
687.723	0.0151373
687.801	0.0152216
687.879	0.0151949
687.957	0.0152752
688.035	0.0153791
688.113	0.0152524
688.192	0.0152972
688.270	0.0152229
688.348	0.0150211
688.426	0.0148534
688.504	0.0147674
688.582	0.0146995
688.660	0.0145250
688.738	0.0144002
688.817	0.0143047
688.895	0.0141965
688.973	0.0142018
689.051	0.0141875
689.129	0.0140987
689.207	0.0141346
689.285	0.0142884
689.363	0.0144594
689.442	0.0146841
689.520	0.0148520
689.598	0.0151548
689.676	0.0151441
689.754	0.0154477
689.832	0.0157473
689.910	0.0156706
689.988	0.0159183
690.067	0.0163605
690.145	0.0163426
690.223	0.0163425
690.301	0.0164432
690.379	0.0164877
690.457	0.0163717
690.535	0.0161962
690.613	0.0158147
690.692	0.0155170
690.770	0.0151637
690.848	0.0145476
690.926	0.0142690
691.004	0.0137781
691.082	0.0131600
691.160	0.0127831
691.238	0.0124171
691.317	0.0121867
691.395	0.0119569
691.473	0.0118090
691.551	0.0118671
691.629	0.0120435
691.707	0.0124714
691.785	0.0127477
691.863	0.0133294
691.942	0.0142358
692.020	0.0148414
692.098	0.0154649
692.176	0.0163280
692.254	0.0170126
692.332	0.0175652
692.410	0.0181741
692.488	0.0186341
692.567	0.0189254
692.645	0.0189584
692.723	0.0186797
692.801	0.0185667
692.879	0.0182199
692.957	0.0176836
693.035	0.0170656
693.113	0.0163183
693.192	0.0154647
693.270	0.0145786
693.348	0.0135522
693.426	0.0127656
693.504	0.0119834
693.582	0.0111192
693.660	0.0104734
693.738	0.0102879
693.817	0.00992783
693.895	0.0100655
693.973	0.0103517
694.051	0.0109308
694.129	0.0116386
694.207	0.0126111
694.285	0.0135304
694.363	0.0146591
694.442	0.0156989
694.520	0.0166858
694.598	0.0176746
694.676	0.0185143
694.754	0.0191760
694.832	0.0197172
694.910	0.0199655
694.988	0.0199627
695.067	0.0198075
695.145	0.0193017
695.223	0.0186791
695.301	0.0179571
695.379	0.0169516
695.457	0.0158720
695.535	0.0147457
695.613	0.0135526
695.692	0.0123724
695.770	0.0115915
695.848	0.0107800
695.926	0.00996788
696.004	0.00949547
696.082	0.00907318
696.160	0.00913429
696.238	0.00921455
696.317	0.00957413
696.395	0.0101806
696.473	0.0109571
696.551	0.0119166
696.629	0.0129529
696.707	0.0140338
696.785	0.0152698
696.863	0.0163556
696.942	0.0174827
697.020	0.0186831
697.098	0.0197829
697.176	0.0206908
697.254	0.0214169
697.332	0.0218974
697.410	0.0221265
697.488	0.0221559
697.567	0.0220493
697.645	0.0213659
697.723	0.0205063
697.801	0.0195268
697.879	0.0184370
697.957	0.0171474
698.035	0.0156765
698.113	0.0143374
698.192	0.0127721
698.270	0.0114082
698.348	0.00986694
698.426	0.00894920
698.504	0.00798195
698.582	0.00724144
698.660	0.00683693
698.738	0.00689026
698.817	0.00705475
698.895	0.00772064
698.973	0.00859039
699.051	0.00958374
699.129	0.0106849
699.207	0.0116981
699.285	0.0130358
699.363	0.0146377
699.442	0.0158055
699.520	0.0170219
699.598	0.0181200
699.676	0.0188830
699.754	0.0195959
699.832	0.0201311
699.910	0.0204964
699.988	0.0207535
700.067	0.0208417
700.145	0.0206654
700.223	0.0204048
700.301	0.0201066
700.379	0.0194730
700.457	0.0190147
700.535	0.0182151
700.613	0.0172794
700.692	0.0163715
700.770	0.0154230
700.848	0.0145845
700.926	0.0134689
701.004	0.0126567
701.082	0.0117948
701.160	0.0110030
701.238	0.0104455
701.317	0.00994301
701.395	0.00979546
701.473	0.00976944
701.551	0.00996513
701.629	0.0103219
701.707	0.0109299
701.785	0.0117207
701.863	0.0123969
701.942	0.0131652
702.020	0.0140836
702.098	0.0149958
702.176	0.0157634
702.254	0.0162866
702.332	0.0167937
702.410	0.0173322
702.488	0.0176452
702.567	0.0177700
702.645	0.0177818
702.723	0.0178411
702.801	0.0178699
702.879	0.0176939
702.957	0.0175150
703.035	0.0172863
703.113	0.0171265
703.192	0.0165656
703.270	0.0162078
703.348	0.0159567
703.426	0.0156428
703.504	0.0152970
703.582	0.0149077
703.660	0.0146330
703.738	0.0141238
703.817	0.0138059
703.895	0.0134527
703.973	0.0131136
704.051	0.0128893
704.129	0.0124403
704.207	0.0121254
704.285	0.0121143
704.363	0.0117808
704.442	0.0116702
704.520	0.0119483
704.598	0.0118874
704.676	0.0124445
704.754	0.0128680
704.832	0.0132288
704.910	0.0137717
704.988	0.0142139
705.067	0.0148536
705.145	0.0154851
705.223	0.0159849
705.301	0.0164481
705.379	0.0168867
705.457	0.0171582
705.535	0.0173666
705.613	0.0174418
705.692	0.0174742
705.770	0.0173248
705.848	0.0171642
705.926	0.0170227
706.004	0.0165354
706.082	0.0160902
706.160	0.0157080
706.238	0.0152586
706.317	0.0147437
706.395	0.0144171
706.473	0.0141258
706.551	0.0136356
706.629	0.0134625
706.707	0.0133752
706.785	0.0132378
706.863	0.0133128
706.942	0.0134962
707.020	0.0136876
707.098	0.0137777
707.176	0.0140404
707.254	0.0144984
707.332	0.0148943
707.410	0.0150113
707.488	0.0152647
707.567	0.0156068
707.645	0.0159506
707.723	0.0162432
707.801	0.0163699
707.879	0.0163797
707.957	0.0166773
708.035	0.0166652
708.113	0.0165707
708.192	0.0163696
708.270	0.0161320
708.348	0.0159000
708.426	0.0155984
708.504	0.0152721
708.582	0.0149641
708.660	0.0145191
708.738	0.0143073
708.817	0.0141276
708.895	0.0135476
708.973	0.0133363
709.051	0.0130197
709.129	0.0128685
709.207	0.0126426
709.285	0.0126842
709.363	0.0125246
709.442	0.0127030
709.520	0.0126909
709.598	0.0129402
709.676	0.0132952
709.754	0.0133661
709.832	0.0138002
709.910	0.0140546
709.988	0.0141134
710.067	0.0144846
710.145	0.0146470
710.223	0.0149610
710.301	0.0152020
710.379	0.0154382
710.457	0.0154870
710.535	0.0156718
710.613	0.0160942
710.692	0.0162232
710.770	0.0162566
710.848	0.0165090
710.926	0.0165604
711.004	0.0165997
711.082	0.0165096
711.160	0.0166768
711.238	0.0167439
711.317	0.0166329
711.395	0.0163024
711.473	0.0161102
711.551	0.0160587
711.629	0.0157099
711.707	0.0155039
711.785	0.0153148
711.863	0.0149643
711.942	0.0146929
712.020	0.0144350
712.098	0.0141219
712.176	0.0137965
712.254	0.0136720
712.332	0.0134153
712.410	0.0133799
712.488	0.0131829
712.567	0.0132571
712.645	0.0132643
712.723	0.0132996
712.801	0.0134705
712.879	0.0134825
712.957	0.0136623
713.035	0.0137054
713.113	0.0140028
713.192	0.0141805
713.270	0.0142860
713.348	0.0143085
713.426	0.0146561
713.504	0.0148727
713.582	0.0148624
713.660	0.0151373
713.738	0.0153189
713.817	0.0153465
713.895	0.0154520
713.973	0.0154427
714.051	0.0155753
714.129	0.0156786
714.207	0.0157018
714.285	0.0156210
714.363	0.0157015
714.442	0.0156245
714.520	0.0157819
714.598	0.0157522
714.676	0.0156991
714.754	0.0157594
714.832	0.0155413
714.910	0.0154920
714.988	0.0153592
715.067	0.0155599
715.145	0.0153705
715.223	0.0153712
715.301	0.0150421
715.379	0.0150632
715.457	0.0150007
715.535	0.0147919
715.613	0.0148181
715.692	0.0146562
715.770	0.0146523
715.848	0.0145171
715.926	0.0144028
716.004	0.0141596
716.082	0.0142044
716.160	0.0138885
716.238	0.0137843
716.317	0.0136676
716.395	0.0135155
716.473	0.0134093
716.551	0.0132811
716.629	0.0132883
716.707	0.0132682
716.785	0.0133866
716.863	0.0133626
716.942	0.0135165
717.020	0.0135778
717.098	0.0139070
717.176	0.0140610
717.254	0.0145825
717.332	0.0150012
717.410	0.0152671
717.488	0.0156239
717.567	0.0158910
717.645	0.0159211
717.723	0.0162974
717.801	0.0165852
717.879	0.0169018
717.957	0.0169154
718.035	0.0170110
718.113	0.0171735
718.192	0.0170686
718.270	0.0169275
718.348	0.0168667
718.426	0.0166030
718.504	0.0163366
718.582	0.0160899
718.660	0.0158839
718.738	0.0155759
718.817	0.0152123
718.895	0.0148216
718.973	0.0144751
719.051	0.0141853
719.129	0.0138448
719.207	0.0135844
719.285	0.0133098
719.363	0.0131573
719.442	0.0131248
719.520	0.0129240
719.598	0.0129868
719.676	0.0131047
719.754	0.0131808
719.832	0.0132639
719.910	0.0134704
719.988	0.0137182
720.067	0.0139571
720.145	0.0142700
720.223	0.0143307
720.301	0.0145210
720.379	0.0148551
720.457	0.0150268
720.535	0.0152177
720.613	0.0153630
720.692	0.0155000
720.770	0.0157409
720.848	0.0156953
720.926	0.0157082
721.004	0.0156658
721.082	0.0156744
721.160	0.0156266
721.238	0.0155278
721.317	0.0153738
721.395	0.0151956
721.473	0.0151787
721.551	0.0152170
721.629	0.0150118
721.707	0.0148382
721.785	0.0149172
721.863	0.0147906
721.942	0.0148648
722.020	0.0147558
722.098	0.0148301
722.176	0.0149956
722.254	0.0150314
722.332	0.0150687
722.410	0.0151321
722.488	0.0151762
722.567	0.0152434
722.645	0.0152268
722.723	0.0152574
722.801	0.0152038
722.879	0.0150595
722.957	0.0150308
723.035	0.0149847
723.113	0.0149044
723.192	0.0148680
723.270	0.0146201
723.348	0.0145984
723.426	0.0145882
723.504	0.0143514
723.582	0.0144362
723.660	0.0143027
723.738	0.0144346
723.817	0.0143919
723.895	0.0143478
723.973	0.0144020
724.051	0.0145950
724.129	0.0145850
724.207	0.0148395
724.285	0.0148487
724.363	0.0151074
724.442	0.0150628
724.520	0.0151886
724.598	0.0153011
724.676	0.0153065
724.754	0.0154809
724.832	0.0154587
724.910	0.0154834
724.988	0.0154959
725.067	0.0154412
725.145	0.0153148
725.223	0.0152970
725.301	0.0151237
725.379	0.0150147
725.457	0.0149751
725.535	0.0149327
725.613	0.0147269
725.692	0.0145950
725.770	0.0143801
725.848	0.0144263
725.926	0.0143748
726.004	0.0142991
726.082	0.0142371
726.160	0.0143465
726.238	0.0142905
726.317	0.0145653
726.395	0.0146499
726.473	0.0146368
726.551	0.0145506
726.629	0.0147940
726.707	0.0147725
726.785	0.0147743
726.863	0.0148822
726.942	0.0149873
727.020	0.0150480
727.098	0.0150471
727.176	0.0150645
727.254	0.0151918
727.332	0.0151884
727.410	0.0152535
727.488	0.0151192
727.567	0.0152576
727.645	0.0151572
727.723	0.0151619
727.801	0.0150534
727.879	0.0152330
727.957	0.0151105
728.035	0.0150808
728.113	0.0149519
728.192	0.0150698
728.270	0.0150387
728.348	0.0150471
728.426	0.0150052
728.504	0.0149367
728.582	0.0149281
728.660	0.0149900
728.738	0.0148601
728.817	0.0149677
728.895	0.0150222
728.973	0.0151081
729.051	0.0151569
729.129	0.0150816
729.207	0.0151517
729.285	0.0151106
729.363	0.0153690
729.442	0.0155453
729.520	0.0151864
729.598	0.0152457
729.676	0.0152572
729.754	0.0152132
729.832	0.0151948
729.910	0.0151173
729.988	0.0149897
730.067	0.0146927
730.145	0.0145227
730.223	0.0145689
730.301	0.0142507
730.379	0.0141483
730.457	0.0139729
730.535	0.0139762
730.613	0.0137600
730.692	0.0138522
730.770	0.0138600
730.848	0.0136431
730.926	0.0139146
731.004	0.0140031
731.082	0.0143100
731.160	0.0144608
731.238	0.0147367
731.317	0.0147122
731.395	0.0149871
731.473	0.0151604
731.551	0.0153617
731.629	0.0155412
731.707	0.0156982
731.785	0.0157408
731.863	0.0156506
731.942	0.0158949
732.020	0.0156993
732.098	0.0157756
732.176	0.0157571
732.254	0.0157329
732.332	0.0155524
732.410	0.0155039
732.488	0.0154713
732.567	0.0153698
732.645	0.0150771
732.723	0.0148230
732.801	0.0146688
732.879	0.0144598
732.957	0.0143635
733.035	0.0142707
733.113	0.0142760
733.192	0.0139538
733.270	0.0140177
733.348	0.0141365
733.426	0.0139667
733.504	0.0142091
733.582	0.0139912
733.660	0.0142021
733.738	0.0142728
733.817	0.0144237
733.895	0.0146066
733.973	0.0146811
734.051	0.0148040
734.129	0.0150742
734.207	0.0151328
734.285	0.0153110
734.363	0.0154765
734.442	0.0154305
734.520	0.0153471
734.598	0.0155298
734.676	0.0157519
734.754	0.0156987
734.832	0.0155752
734.910	0.0155347
734.988	0.0154471
735.067	0.0152918
735.145	0.0152316
735.223	0.0149428
735.301	0.0148365
735.379	0.0148628
735.457	0.0146859
735.535	0.0144219
735.613	0.0144351
735.692	0.0142323
735.770	0.0143080
735.848	0.0140963
735.926	0.0142793
736.004	0.0142500
736.082	0.0143610
736.160	0.0144578
736.238	0.0144726
736.317	0.0146682
736.395	0.0148119
736.473	0.0147664
736.551	0.0149544
736.629	0.0150504
736.707	0.0151041
736.785	0.0151566
736.863	0.0152760
736.942	0.0152059
737.020	0.0153961
737.098	0.0152404
737.176	0.0153349
737.254	0.0152796
737.332	0.0154068
737.410	0.0150902
737.488	0.0151197
737.567	0.0149358
737.645	0.0149453
737.723	0.0148962
737.801	0.0148504
737.879	0.0147277
737.957	0.0147103
738.035	0.0146684
738.113	0.0144737
738.192	0.0145864
738.270	0.0145003
738.348	0.0144475
738.426	0.0145114
738.504	0.0145179
738.582	0.0146198
738.660	0.0145597
738.738	0.0146436
738.817	0.0147215
738.895	0.0147770
738.973	0.0149564
739.051	0.0149942
739.129	0.0150397
739.207	0.0150575
739.285	0.0151547
739.363	0.0151620
739.442	0.0152203
739.520	0.0150994
739.598	0.0151479
739.676	0.0152072
739.754	0.0150468
739.832	0.0151308
739.910	0.0150262
739.988	0.0147890
740.067	0.0148795
740.145	0.0148254
740.223	0.0148582
740.301	0.0146684
740.379	0.0146375
740.457	0.0147055
740.535	0.0146868
740.613	0.0147292
740.692	0.0147311
740.770	0.0146325
740.848	0.0146687
740.926	0.0146576
741.004	0.0148005
741.082	0.0147184
741.160	0.0147362
741.238	0.0146963
741.317	0.0145509
741.395	0.0147771
741.473	0.0147630
741.551	0.0148367
741.629	0.0148096
741.707	0.0148130
741.785	0.0148550
741.863	0.0148425
741.942	0.0149049
742.020	0.0150000
742.098	0.0151805
742.176	0.0150918
742.254	0.0151927
742.332	0.0151881
742.410	0.0151091
742.488	0.0152190
742.567	0.0152547
742.645	0.0150974
742.723	0.0152067
742.801	0.0150797
742.879	0.0149556
742.957	0.0149001
743.035	0.0150367
743.113	0.0149217
743.192	0.0147311
743.270	0.0145206
743.348	0.0146556
743.426	0.0146614
743.504	0.0145281
743.582	0.0143742
743.660	0.0145278
743.738	0.0145448
743.817	0.0147548
743.895	0.0146068
743.973	0.0144313
744.051	0.0146507
744.129	0.0145706
744.207	0.0147372
744.285	0.0148055
744.363	0.0148450
744.442	0.0149700
744.520	0.0149188
744.598	0.0149434
744.676	0.0149483
744.754	0.0149218
744.832	0.0148944
744.910	0.0149502
744.988	0.0147965
745.067	0.0148853
745.145	0.0148165
745.223	0.0148342
745.301	0.0148656
745.379	0.0146906
745.457	0.0148007
745.535	0.0148923
745.613	0.0148162
745.692	0.0147298
745.770	0.0147415
745.848	0.0148184
745.926	0.0148281
746.004	0.0148876
746.082	0.0147723
746.160	0.0147363
746.238	0.0147553
746.317	0.0146120
746.395	0.0147901
746.473	0.0147797
746.551	0.0147736
746.629	0.0146995
746.707	0.0147902
746.785	0.0147981
746.863	0.0148514
746.942	0.0150400
747.020	0.0149133
747.098	0.0149317
747.176	0.0150925
747.254	0.0150694
747.332	0.0151735
747.410	0.0151888
747.488	0.0150898
747.567	0.0151464
747.645	0.0150890
747.723	0.0149854
747.801	0.0150672
747.879	0.0149862
747.957	0.0147829
748.035	0.0148096
748.113	0.0148071
748.192	0.0147539
748.270	0.0147871
748.348	0.0145952
748.426	0.0146253
748.504	0.0146598
748.582	0.0145535
748.660	0.0146175
748.738	0.0145713
748.817	0.0146863
748.895	0.0145264
748.973	0.0146448
749.051	0.0146169
749.129	0.0146517
749.207	0.0147589
749.285	0.0146873
749.363	0.0146970
749.442	0.0147386
749.520	0.0148102
749.598	0.0148184
749.676	0.0150022
749.754	0.0149115
749.832	0.0150504
749.910	0.0151650
749.988	0.0151495
750.067	0.0152128
750.145	0.0153269
750.223	0.0151365
750.301	0.0153070
750.379	0.0153183
750.457	0.0153371
750.535	0.0152469
750.613	0.0152890
750.692	0.0151527
750.770	0.0150189
750.848	0.0150380
750.926	0.0149452
751.004	0.0148453
751.082	0.0149110
751.160	0.0149108
751.238	0.0148072
751.317	0.0148868
751.395	0.0147496
751.473	0.0145872
751.551	0.0147250
751.629	0.0146766
751.707	0.0147267
751.785	0.0147321
751.863	0.0147039
751.942	0.0147292
752.020	0.0148233
752.098	0.0149472
752.176	0.0148975
752.254	0.0148495
752.332	0.0148888
752.410	0.0147691
752.488	0.0149791
752.567	0.0148435
752.645	0.0149642
752.723	0.0149776
752.801	0.0149614
752.879	0.0150250
752.957	0.0149333
753.035	0.0148683
753.113	0.0148267
753.192	0.0149471
753.270	0.0147875
753.348	0.0148245
753.426	0.0148502
753.504	0.0148013
753.582	0.0147855
753.660	0.0147684
753.738	0.0148620
753.817	0.0148605
753.895	0.0147881
753.973	0.0147509
754.051	0.0147645
754.129	0.0148202
754.207	0.0148563
754.285	0.0148341
754.363	0.0147977
754.442	0.0148525
754.520	0.0148457
754.598	0.0148875
754.676	0.0147523
754.754	0.0148351
754.832	0.0149484
754.910	0.0148082
754.988	0.0150065
755.067	0.0149489
755.145	0.0149095
755.223	0.0149950
755.301	0.0149795
755.379	0.0150334
755.457	0.0149174
755.535	0.0149776
755.613	0.0149995
755.692	0.0148862
755.770	0.0149474
755.848	0.0149539
755.926	0.0148444
756.004	0.0147681
756.082	0.0146812
756.160	0.0148534
756.238	0.0147655
756.317	0.0146964
756.395	0.0146979
756.473	0.0148056
756.551	0.0147237
756.629	0.0147141
756.707	0.0148326
756.785	0.0148091
756.863	0.0148573
756.942	0.0148859
757.020	0.0147076
757.098	0.0147865
757.176	0.0148483
757.254	0.0148128
757.332	0.0148869
757.410	0.0147626
757.488	0.0147646
757.567	0.0147941
757.645	0.0147060
757.723	0.0147604
757.801	0.0148063
757.879	0.0148089
757.957	0.0147935
758.035	0.0148045
758.113	0.0149450
758.192	0.0150510
758.270	0.0148899
758.348	0.0149754
758.426	0.0150655
758.504	0.0151014
758.582	0.0150098
758.660	0.0151083
758.738	0.0151389
758.817	0.0152428
758.895	0.0150267
758.973	0.0150978
759.051	0.0149864
759.129	0.0149929
759.207	0.0149445
759.285	0.0149804
759.363	0.0150382
759.442	0.0149790
759.520	0.0148500
759.598	0.0149319
759.676	0.0149973
759.754	0.0150615
759.832	0.0150756
759.910	0.0151228
759.988	0.0152477
760.067	0.0151702
760.145	0.0150224
760.223	0.0150981
760.301	0.0150464
760.379	0.0150107
760.457	0.0150208
760.535	0.0149648
760.613	0.0148801
760.692	0.0150066
760.770	0.0149339
760.848	0.0148073
760.926	0.0148302
761.004	0.0145901
761.082	0.0147358
761.160	0.0147001
761.238	0.0146267
761.317	0.0146336
761.395	0.0145443
761.473	0.0144340
761.551	0.0144253
761.629	0.0144980
761.707	0.0145995
761.785	0.0145611
761.863	0.0144939
761.942	0.0146413
762.020	0.0146963
762.098	0.0146862
762.176	0.0147131
762.254	0.0148418
762.332	0.0149413
762.410	0.0148170
762.488	0.0148296
762.567	0.0150600
762.645	0.0152105
762.723	0.0150278
762.801	0.0153121
762.879	0.0151586
762.957	0.0152397
763.035	0.0152333
763.113	0.0151502
763.192	0.0152088
763.270	0.0152981
763.348	0.0150769
763.426	0.0150723
763.504	0.0150633
763.582	0.0150246
763.660	0.0148314
763.738	0.0149348
763.817	0.0146548
763.895	0.0147119
763.973	0.0146165
764.051	0.0146915
764.129	0.0146568
764.207	0.0144607
764.285	0.0145568
764.363	0.0147058
764.442	0.0145584
764.520	0.0145319
764.598	0.0146670
764.676	0.0147286
764.754	0.0148933
764.832	0.0150059
764.910	0.0149486
764.988	0.0149487
765.067	0.0150047
765.145	0.0150809
765.223	0.0151227
765.301	0.0150523
765.379	0.0151706
765.457	0.0150246
765.535	0.0150668
765.613	0.0150036
765.692	0.0151065
765.770	0.0150397
765.848	0.0149953
765.926	0.0148977
766.004	0.0149157
766.082	0.0149324
766.160	0.0149252
766.238	0.0148656
766.317	0.0147084
766.395	0.0146386
766.473	0.0147854
766.551	0.0147634
766.629	0.0148489
766.707	0.0146910
766.785	0.0146793
766.863	0.0149170
766.942	0.0146948
767.020	0.0148125
767.098	0.0147538
767.176	0.0150043
767.254	0.0149540
767.332	0.0149203
767.410	0.0150289
767.488	0.0149711
767.567	0.0150195
767.645	0.0151281
767.723	0.0150446
767.801	0.0151604
767.879	0.0151805
767.957	0.0149323
768.035	0.0149320
768.113	0.0148796
768.192	0.0149586
768.270	0.0148535
768.348	0.0148504
768.426	0.0149103
768.504	0.0147147
768.582	0.0146324
768.660	0.0148186
768.738	0.0147633
768.817	0.0145816
768.895	0.0146180
768.973	0.0146812
769.051	0.0147342
769.129	0.0146134
769.207	0.0146707
769.285	0.0146716
769.363	0.0146581
769.442	0.0146867
769.520	0.0145801
769.598	0.0146970
769.676	0.0147205
769.754	0.0148346
769.832	0.0148351
769.910	0.0148093
769.988	0.0146796
770.067	0.0148634
770.145	0.0148860
770.223	0.0148617
770.301	0.0149463
770.379	0.0149702
770.457	0.0150180
770.535	0.0151479
770.613	0.0149704
770.692	0.0150423
770.770	0.0150444
770.848	0.0149472
770.926	0.0149929
771.004	0.0152000
771.082	0.0149767
771.160	0.0148571
771.238	0.0148961
771.317	0.0148948
771.395	0.0150490
771.473	0.0147564
771.551	0.0147116
771.629	0.0149147
771.707	0.0148761
771.785	0.0147831
771.863	0.0147511
771.942	0.0147596
772.020	0.0147002
772.098	0.0147644
772.176	0.0148013
772.254	0.0148085
772.332	0.0145972
772.410	0.0146182
772.488	0.0147420
772.567	0.0147974
772.645	0.0148203
772.723	0.0146400
772.801	0.0149526
772.879	0.0149615
772.957	0.0149139
773.035	0.0149633
773.113	0.0150648
773.192	0.0150057
773.270	0.0149610
773.348	0.0149604
773.426	0.0151041
773.504	0.0148542
773.582	0.0147967
773.660	0.0148597
773.738	0.0146971
773.817	0.0149249
773.895	0.0148914
773.973	0.0148646
774.051	0.0147887
774.129	0.0148204
774.207	0.0145683
774.285	0.0146031
774.363	0.0147124
774.442	0.0146400
774.520	0.0145219
774.598	0.0145802
774.676	0.0145305
774.754	0.0146326
774.832	0.0145543
774.910	0.0146537
774.988	0.0146938
775.067	0.0147459
775.145	0.0149038
775.223	0.0148978
775.301	0.0148785
775.379	0.0149477
775.457	0.0149532
775.535	0.0151817
775.613	0.0150904
775.692	0.0152129
775.770	0.0152615
775.848	0.0152436
775.926	0.0151971
776.004	0.0153889
776.082	0.0153007
776.160	0.0152891
776.238	0.0153331
776.317	0.0151615
776.395	0.0151786
776.473	0.0150513
776.551	0.0151201
776.629	0.0150640
776.707	0.0149041
776.785	0.0147549
776.863	0.0147713
776.942	0.0147086
777.020	0.0146388
777.098	0.0145563
777.176	0.0145795
777.254	0.0145974
777.332	0.0145960
777.410	0.0144584
777.488	0.0143371
777.567	0.0145240
777.645	0.0145906
777.723	0.0144506
777.801	0.0145277
777.879	0.0144981
777.957	0.0147099
778.035	0.0145535
778.113	0.0146450
778.192	0.0146829
778.270	0.0147556
778.348	0.0148589
778.426	0.0149061
778.504	0.0149275
778.582	0.0150699
778.660	0.0151201
778.738	0.0151572
778.817	0.0151699
778.895	0.0150597
778.973	0.0150113
779.051	0.0151599
779.129	0.0152415
779.207	0.0151154
779.285	0.0150323
779.363	0.0151899
779.442	0.0150890
779.520	0.0149176
779.598	0.0149345
779.676	0.0149887
779.754	0.0149169
779.832	0.0149426
779.910	0.0149224
779.988	0.0148273
780.067	0.0148691
780.145	0.0147767
780.223	0.0147526
780.301	0.0148005
780.379	0.0147501
780.457	0.0145849
780.535	0.0146592
780.613	0.0147552
780.692	0.0147752
780.770	0.0146955
780.848	0.0147482
780.926	0.0147320
781.004	0.0147063
781.082	0.0148791
781.160	0.0147306
781.238	0.0147823
781.317	0.0149718
781.395	0.0151205
781.473	0.0151459
781.551	0.0150376
781.629	0.0150732
781.707	0.0149441
781.785	0.0149057
781.863	0.0150971
781.942	0.0148842
782.020	0.0150396
782.098	0.0149939
782.176	0.0148769
782.254	0.0149718
782.332	0.0149608
782.410	0.0145982
782.488	0.0147852
782.567	0.0148119
782.645	0.0148673
782.723	0.0148064
782.801	0.0147119
782.879	0.0147086
782.957	0.0147174
783.035	0.0147569
783.113	0.0147754
783.192	0.0147271
783.270	0.0149077
783.348	0.0147878
783.426	0.0148798
783.504	0.0149398
783.582	0.0148333
783.660	0.0148125
783.738	0.0149277
783.817	0.0150755
783.895	0.0150959
783.973	0.0149734
784.051	0.0149902
784.129	0.0150314
784.207	0.0149520
784.285	0.0148920
784.363	0.0148524
784.442	0.0149032
784.520	0.0149637
784.598	0.0149279
784.676	0.0149329
784.754	0.0148692
784.832	0.0147485
784.910	0.0147941
784.988	0.0146164
785.067	0.0146307
785.145	0.0146651
785.223	0.0145876
785.301	0.0145309
785.379	0.0144613
785.457	0.0145266
785.535	0.0146024
785.613	0.0146569
785.692	0.0146460
785.770	0.0146825
785.848	0.0146194
785.926	0.0146535
786.004	0.0147296
786.082	0.0148709
786.160	0.0150590
786.238	0.0150628
786.317	0.0150074
786.395	0.0150241
786.473	0.0150397
786.551	0.0152043
786.629	0.0150929
786.707	0.0151244
786.785	0.0150903
786.863	0.0150748
786.942	0.0151401
787.020	0.0150722
787.098	0.0149651
787.176	0.0149577
787.254	0.0147768
787.332	0.0147559
787.410	0.0146353
787.488	0.0146333
787.567	0.0146046
787.645	0.0146849
787.723	0.0145989
787.801	0.0144759
787.879	0.0143234
787.957	0.0144895
788.035	0.0146336
788.113	0.0145140
788.192	0.0147014
788.270	0.0147052
788.348	0.0146825
788.426	0.0147959
788.504	0.0149780
788.582	0.0151154
788.660	0.0151466
788.738	0.0151711
788.817	0.0152685
788.895	0.0152609
788.973	0.0152597
789.051	0.0153898
789.129	0.0154159
789.207	0.0153624
789.285	0.0152879
789.363	0.0153637
789.442	0.0152083
789.520	0.0149398
789.598	0.0148159
789.676	0.0151096
789.754	0.0149008
789.832	0.0147272
789.910	0.0145634
789.988	0.0146162
790.067	0.0145034
790.145	0.0145913
790.223	0.0145769
790.301	0.0144678
790.379	0.0144533
790.457	0.0145738
790.535	0.0145294
790.613	0.0146925
790.692	0.0145985
790.770	0.0146782
790.848	0.0148081
790.926	0.0147845
791.004	0.0149277
791.082	0.0148869
791.160	0.0148740
791.238	0.0149968
791.317	0.0149732
791.395	0.0151021
791.473	0.0150300
791.551	0.0150521
791.629	0.0149700
791.707	0.0150912
791.785	0.0150649
791.863	0.0149882
791.942	0.0150545
792.020	0.0148841
792.098	0.0149803
792.176	0.0148785
792.254	0.0148429
792.332	0.0147955
792.410	0.0147165
792.488	0.0146977
792.567	0.0148085
792.645	0.0146790
792.723	0.0147979
792.801	0.0148282
792.879	0.0148591
792.957	0.0147523
793.035	0.0147672
793.113	0.0148391
793.192	0.0150338
793.270	0.0149018
793.348	0.0150884
793.426	0.0150908
793.504	0.0150252
793.582	0.0150237
793.660	0.0151075
793.738	0.0151156
793.817	0.0151909
793.895	0.0153075
793.973	0.0150355
794.051	0.0149889
794.129	0.0150272
794.207	0.0150668
794.285	0.0148913
794.363	0.0149124
794.442	0.0149769
794.520	0.0148627
794.598	0.0148013
794.676	0.0148148
794.754	0.0146955
794.832	0.0145975
794.910	0.0145856
794.988	0.0145473
795.067	0.0144142
795.145	0.0145803
795.223	0.0144725
795.301	0.0144403
795.379	0.0144728
795.457	0.0145454
795.535	0.0145755
795.613	0.0144689
795.692	0.0146748
795.770	0.0146856
795.848	0.0148649
795.926	0.0148058
796.004	0.0148722
796.082	0.0148224
796.160	0.0149911
796.238	0.0150522
796.317	0.0149796
796.395	0.0150236
796.473	0.0151772
796.551	0.0149638
796.629	0.0149841
796.707	0.0148569
796.785	0.0149629
796.863	0.0149113
796.942	0.0148273
797.020	0.0147662
797.098	0.0148950
797.176	0.0149450
797.254	0.0150236
797.332	0.0148234
797.410	0.0147611
797.488	0.0150400
797.567	0.0149456
797.645	0.0150165
797.723	0.0148466
797.801	0.0149844
797.879	0.0149116
797.957	0.0149692
798.035	0.0148604
798.113	0.0150223
798.192	0.0148042
798.270	0.0149505
798.348	0.0150624
798.426	0.0148943
798.504	0.0150063
798.582	0.0149814
798.660	0.0148746
798.738	0.0149671
798.817	0.0148444
798.895	0.0147838
798.973	0.0147935
799.051	0.0146813
799.129	0.0147082
799.207	0.0146115
799.285	0.0145674
799.363	0.0145762
799.442	0.0145983
799.520	0.0145087
799.598	0.0146544
799.676	0.0147981
799.754	0.0147327
799.832	0.0148795
799.910	0.0150100
799.988	0.0150521
800.067	0.0149843
800.145	0.0152171
800.223	0.0149323
800.301	0.0151070
800.379	0.0150966
800.457	0.0151949
800.535	0.0150673
800.613	0.0151156
800.692	0.0150499
800.770	0.0151147
800.848	0.0150860
800.926	0.0149290
801.004	0.0150130
801.082	0.0148576
801.160	0.0147768
801.238	0.0146487
801.317	0.0147934
801.395	0.0146758
801.473	0.0146410
801.551	0.0147249
801.629	0.0146001
801.707	0.0146813
801.785	0.0144020
801.863	0.0145783
801.942	0.0146902
802.020	0.0146096
802.098	0.0146638
802.176	0.0147013
802.254	0.0147946
802.332	0.0147427
802.410	0.0148232
802.488	0.0147500
802.567	0.0147964
802.645	0.0149301
802.723	0.0151620
802.801	0.0150999
802.879	0.0150523
802.957	0.0151989
803.035	0.0151360
803.113	0.0150648
803.192	0.0152260
803.270	0.0150979
803.348	0.0152687
803.426	0.0150433
803.504	0.0150146
803.582	0.0150596
803.660	0.0150758
803.738	0.0151472
803.817	0.0149852
803.895	0.0149284
803.973	0.0148891
804.051	0.0148103
804.129	0.0147342
804.207	0.0146947
804.285	0.0146561
804.363	0.0148406
804.442	0.0149219
804.520	0.0147559
804.598	0.0147205
804.676	0.0147601
804.754	0.0147391
804.832	0.0147576
804.910	0.0148726
804.988	0.0147847
805.067	0.0148086
805.145	0.0147309
805.223	0.0146176
805.301	0.0147993
805.379	0.0147371
805.457	0.0147181
805.535	0.0147701
805.613	0.0147103
805.692	0.0146947
805.770	0.0147678
805.848	0.0147561
805.926	0.0148117
806.004	0.0148502
806.082	0.0146397
806.160	0.0148316
806.238	0.0149030
806.317	0.0149118
806.395	0.0148556
806.473	0.0148775
806.551	0.0148012
806.629	0.0149248
806.707	0.0147514
806.785	0.0149200
806.863	0.0147417
806.942	0.0147572
807.020	0.0148508
807.098	0.0149050
807.176	0.0147491
807.254	0.0147886
807.332	0.0146829
807.410	0.0146468
807.488	0.0146627
807.567	0.0147151
807.645	0.0149540
807.723	0.0148000
807.801	0.0147445
807.879	0.0148446
807.957	0.0149023
808.035	0.0149916
808.113	0.0148119
808.192	0.0148328
808.270	0.0149836
808.348	0.0149783
808.426	0.0150484
808.504	0.0151076
808.582	0.0151026
808.660	0.0150924
808.738	0.0151360
808.817	0.0150892
808.895	0.0150739
808.973	0.0150286
809.051	0.0150912
809.129	0.0150607
809.207	0.0149373
809.285	0.0148830
809.363	0.0148801
809.442	0.0149339
809.520	0.0147083
809.598	0.0148155
809.676	0.0147997
809.754	0.0148225
809.832	0.0145710
809.910	0.0145698
809.988	0.0147269
810.067	0.0145518
810.145	0.0145757
810.223	0.0145650
810.301	0.0145638
810.379	0.0147077
810.457	0.0147079
810.535	0.0146510
810.613	0.0146992
810.692	0.0145797
810.770	0.0147516
810.848	0.0147160
810.926	0.0147491
811.004	0.0148663
811.082	0.0148863
811.160	0.0148840
811.238	0.0150186
811.317	0.0151372
811.395	0.0149850
811.473	0.0151366
811.551	0.0150101
811.629	0.0151065
811.707	0.0151489
811.785	0.0151720
811.863	0.0151222
811.942	0.0151488
812.020	0.0151255
812.098	0.0151802
812.176	0.0151874
812.254	0.0150634
812.332	0.0148555
812.410	0.0148745
812.488	0.0150101
812.567	0.0148526
812.645	0.0148160
812.723	0.0146818
812.801	0.0146882
812.879	0.0146814
812.957	0.0147226
813.035	0.0148022
813.113	0.0145847
813.192	0.0146568
813.270	0.0145697
813.348	0.0146486
813.426	0.0146256
813.504	0.0146011
813.582	0.0148209
813.660	0.0147330
813.738	0.0147710
813.817	0.0145971
813.895	0.0146680
813.973	0.0146971
814.051	0.0149442
814.129	0.0150173
814.207	0.0149496
814.285	0.0149844
814.363	0.0151464
814.442	0.0151015
814.520	0.0151566
814.598	0.0150474
814.676	0.0149999
814.754	0.0152203
814.832	0.0151392
814.910	0.0151965
814.988	0.0153185
815.067	0.0150079
815.145	0.0147919
815.223	0.0149841
815.301	0.0149105
815.379	0.0148618
815.457	0.0149458
815.535	0.0147771
815.613	0.0147131
815.692	0.0146363
815.770	0.0147309
815.848	0.0146282
815.926	0.0148098
816.004	0.0146066
816.082	0.0146754
816.160	0.0147654
816.238	0.0147189
816.317	0.0146320
816.395	0.0147642
816.473	0.0146712
816.551	0.0147646
816.629	0.0148075
816.707	0.0147626
816.785	0.0148884
816.863	0.0148280
816.942	0.0148986
817.020	0.0148914
817.098	0.0149630
817.176	0.0148650
817.254	0.0148730
817.332	0.0147447
817.410	0.0148745
817.488	0.0149521
817.567	0.0148210
817.645	0.0148219
817.723	0.0146181
817.801	0.0147810
817.879	0.0146730
817.957	0.0147922
818.035	0.0148227
818.113	0.0147319
818.192	0.0148701
818.270	0.0147288
818.348	0.0148333
818.426	0.0147855
818.504	0.0148244
818.582	0.0148938
818.660	0.0148278
818.738	0.0148873
818.817	0.0150005
818.895	0.0150215
818.973	0.0150372
819.051	0.0150963
819.129	0.0150323
819.207	0.0150819
819.285	0.0150977
819.363	0.0151241
819.442	0.0151292
819.520	0.0151247
819.598	0.0151728
819.676	0.0148508
819.754	0.0149102
819.832	0.0149146
819.910	0.0148844
819.988	0.0147771
820.067	0.0146706
820.145	0.0146181
820.223	0.0147187
820.301	0.0148174
820.379	0.0146153
820.457	0.0146583
820.535	0.0146198
820.613	0.0146151
820.692	0.0146073
820.770	0.0145803
820.848	0.0145880
820.926	0.0145918
821.004	0.0147642
821.082	0.0149014
821.160	0.0147964
821.238	0.0148415
821.317	0.0147120
821.395	0.0149598
821.473	0.0148080
821.551	0.0148522
821.629	0.0150018
821.707	0.0150079
821.785	0.0150350
821.863	0.0149010
821.942	0.0148615
822.020	0.0151093
822.098	0.0150996
822.176	0.0150684
822.254	0.0150837
822.332	0.0148524
822.410	0.0149245
822.488	0.0149494
822.567	0.0149757
822.645	0.0149585
822.723	0.0149254
822.801	0.0148384
822.879	0.0148860
822.957	0.0148623
823.035	0.0148999
823.113	0.0149060
823.192	0.0147532
823.270	0.0149491
823.348	0.0148211
823.426	0.0147104
823.504	0.0148035
823.582	0.0149183
823.660	0.0149172
823.738	0.0148476
823.817	0.0149313
823.895	0.0148568
823.973	0.0149448
824.051	0.0148820
824.129	0.0148900
824.207	0.0147431
824.285	0.0149011
824.363	0.0148841
824.442	0.0149992
824.520	0.0149635
824.598	0.0149241
824.676	0.0150764
824.754	0.0149974
824.832	0.0148608
824.910	0.0150636
824.988	0.0149588
825.067	0.0149603
825.145	0.0149818
825.223	0.0150703
825.301	0.0148643
825.379	0.0148819
825.457	0.0149147
825.535	0.0149514
825.613	0.0149590
825.692	0.0149863
825.770	0.0147874
825.848	0.0149032
825.926	0.0148163
826.004	0.0147851
826.082	0.0148173
826.160	0.0147254
826.238	0.0148218
826.317	0.0147224
826.395	0.0147759
826.473	0.0147495
826.551	0.0148363
826.629	0.0147511
826.707	0.0148844
826.785	0.0150661
826.863	0.0148454
826.942	0.0148522
827.020	0.0148984
827.098	0.0150120
827.176	0.0150000
827.254	0.0148980
827.332	0.0149342
827.410	0.0149117
827.488	0.0151252
827.567	0.0150761
827.645	0.0148318
827.723	0.0149457
827.801	0.0149576
827.879	0.0149036
827.957	0.0148634
828.035	0.0146790
828.113	0.0146775
828.192	0.0148718
828.270	0.0148209
828.348	0.0147395
828.426	0.0147382
828.504	0.0147501
828.582	0.0147794
828.660	0.0147639
828.738	0.0146728
828.817	0.0147556
828.895	0.0147339
828.973	0.0147584
829.051	0.0147773
829.129	0.0149121
829.207	0.0148254
829.285	0.0147414
829.363	0.0149405
829.442	0.0149026
829.520	0.0149774
829.598	0.0150301
829.676	0.0150397
829.754	0.0149004
829.832	0.0150719
829.910	0.0149725
829.988	0.0148860
830.067	0.0147860
830.145	0.0151698
830.223	0.0149937
830.301	0.0150031
830.379	0.0151286
830.457	0.0149030
830.535	0.0149189
830.613	0.0149075
830.692	0.0149036
830.770	0.0150013
830.848	0.0147798
830.926	0.0148166
831.004	0.0147807
831.082	0.0148641
831.160	0.0149397
831.238	0.0148306
831.317	0.0147228
831.395	0.0148235
831.473	0.0148053
831.551	0.0148975
831.629	0.0148287
831.707	0.0148581
831.785	0.0148736
831.863	0.0147665
831.942	0.0148846
832.020	0.0148423
832.098	0.0148544
832.176	0.0149484
832.254	0.0147894
832.332	0.0148594
832.410	0.0150110
832.488	0.0149116
832.567	0.0148999
832.645	0.0148435
832.723	0.0147356
832.801	0.0148936
832.879	0.0148716
832.957	0.0148999
833.035	0.0149492
833.113	0.0149531
833.192	0.0150141
833.270	0.0150011
833.348	0.0149641
833.426	0.0151192
833.504	0.0149693
833.582	0.0149414
833.660	0.0150525
833.738	0.0149657
833.817	0.0151612
833.895	0.0149651
833.973	0.0150293
834.051	0.0150093
834.129	0.0148893
834.207	0.0149918
834.285	0.0149268
834.363	0.0148396
834.442	0.0148403
834.520	0.0149064
834.598	0.0148438
834.676	0.0147939
834.754	0.0146923
834.832	0.0147916
834.910	0.0147140
834.988	0.0147849
835.067	0.0147938
835.145	0.0147158
835.223	0.0147628
835.301	0.0148199
835.379	0.0148026
835.457	0.0147824
835.535	0.0148376
835.613	0.0149216
835.692	0.0149555
835.770	0.0149388
835.848	0.0149944
835.926	0.0150064
836.004	0.0149557
836.082	0.0150188
836.160	0.0150032
836.238	0.0149548
836.317	0.0149954
836.395	0.0150532
836.473	0.0150105
836.551	0.0148647
836.629	0.0149768
836.707	0.0148408
836.785	0.0148425
836.863	0.0148154
836.942	0.0149406
837.020	0.0148201
837.098	0.0147001
837.176	0.0148753
837.254	0.0148627
837.332	0.0147734
837.410	0.0148067
837.488	0.0147044
837.567	0.0149285
837.645	0.0148066
837.723	0.0148357
837.801	0.0147724
837.879	0.0148775
837.957	0.0148938
838.035	0.0147532
838.113	0.0148637
838.192	0.0148968
838.270	0.0148499
838.348	0.0147874
838.426	0.0148705
838.504	0.0147676
838.582	0.0150066
838.660	0.0148632
838.738	0.0149081
838.817	0.0148296
838.895	0.0148647
838.973	0.0148612
839.051	0.0149594
839.129	0.0149805
839.207	0.0149452
839.285	0.0150196
839.363	0.0147713
839.442	0.0150467
839.520	0.0150155
839.598	0.0149747
839.676	0.0149832
839.754	0.0149198
839.832	0.0150159
839.910	0.0149276
839.988	0.0149600
840.067	0.0148293
840.145	0.0150075
840.223	0.0148518
840.301	0.0148557
840.379	0.0148763
840.457	0.0147813
840.535	0.0148233
840.613	0.0148044
840.692	0.0148812
840.770	0.0147556
840.848	0.0148523
840.926	0.0148272
841.004	0.0150401
841.082	0.0149203
841.160	0.0149343
841.238	0.0149800
841.317	0.0149324
841.395	0.0149242
841.473	0.0148675
841.551	0.0150208
841.629	0.0150388
841.707	0.0148887
841.785	0.0147565
841.863	0.0148798
841.942	0.0149322
842.020	0.0147579
842.098	0.0147617
842.176	0.0148268
842.254	0.0148608
842.332	0.0146559
842.410	0.0146810
842.488	0.0146644
842.567	0.0147947
842.645	0.0146233
842.723	0.0145646
842.801	0.0147500
842.879	0.0147208
842.957	0.0147618
843.035	0.0148448
843.113	0.0148573
843.192	0.0148013
843.270	0.0148025
843.348	0.0148560
843.426	0.0147467
843.504	0.0149026
843.582	0.0149947
843.660	0.0150434
843.738	0.0150537
843.817	0.0150549
843.895	0.0150332
843.973	0.0150580
844.051	0.0150370
844.129	0.0151089
844.207	0.0150978
844.285	0.0151175
844.363	0.0151393
844.442	0.0151119
844.520	0.0149960
844.598	0.0149538
844.676	0.0148102
844.754	0.0148964
844.832	0.0149158
844.910	0.0149994
844.988	0.0149726
845.067	0.0147157
845.145	0.0147203
845.223	0.0146991
845.301	0.0148323
845.379	0.0147041
845.457	0.0148940
845.535	0.0148586
845.613	0.0148073
845.692	0.0147879
845.770	0.0148058
845.848	0.0147802
845.926	0.0149798
846.004	0.0148553
846.082	0.0149110
846.160	0.0150045
846.238	0.0148961
846.317	0.0148326
846.395	0.0150510
846.473	0.0151405
846.551	0.0148676
846.629	0.0148843
846.707	0.0150465
846.785	0.0151318
846.863	0.0147675
846.942	0.0150651
847.020	0.0149804
847.098	0.0148199
847.176	0.0147926
847.254	0.0148740
847.332	0.0149454
847.410	0.0148952
847.488	0.0147323
847.567	0.0147691
847.645	0.0146820
847.723	0.0147533
847.801	0.0147599
847.879	0.0148799
847.957	0.0147681
848.035	0.0147865
848.113	0.0147958
848.192	0.0147267
848.270	0.0148616
848.348	0.0148117
848.426	0.0148575
848.504	0.0149709
848.582	0.0148826
848.660	0.0149010
848.738	0.0148689
848.817	0.0149429
848.895	0.0148376
848.973	0.0150357
849.051	0.0149796
849.129	0.0149744
849.207	0.0149378
849.285	0.0150297
849.363	0.0149330
849.442	0.0148759
849.520	0.0149717
849.598	0.0147256
849.676	0.0148776
849.754	0.0148437
849.832	0.0149422
849.910	0.0150925
849.988	0.0148339
850.067	0.0148607
850.145	0.0150687
850.223	0.0150089
850.301	0.0147769
850.379	0.0148392
850.457	0.0149558
850.535	0.0147848
850.613	0.0148197
850.692	0.0150174
850.770	0.0149216
850.848	0.0147938
850.926	0.0148419
851.004	0.0148318
851.082	0.0148278
851.160	0.0149243
851.238	0.0148582
851.317	0.0148154
851.395	0.0147221
851.473	0.0147002
851.551	0.0147713
851.629	0.0148455
851.707	0.0147545
851.785	0.0149487
851.863	0.0148868
851.942	0.0148520
852.020	0.0148631
852.098	0.0148225
852.176	0.0148009
852.254	0.0149821
852.332	0.0148283
852.410	0.0146823
852.488	0.0148812
852.567	0.0148339
852.645	0.0149007
852.723	0.0147885
852.801	0.0149155
852.879	0.0149420
852.957	0.0149807
853.035	0.0148435
853.113	0.0148557
853.192	0.0149522
853.270	0.0148976
853.348	0.0148681
853.426	0.0148823
853.504	0.0149620
853.582	0.0150800
853.660	0.0150316
853.738	0.0149931
853.817	0.0150036
853.895	0.0150021
853.973	0.0151485
854.051	0.0151148
854.129	0.0150158
854.207	0.0151816
854.285	0.0151791
854.363	0.0151167
854.442	0.0150660
854.520	0.0150576
854.598	0.0151658
854.676	0.0149550
854.754	0.0151019
854.832	0.0149928
854.910	0.0149458
854.988	0.0149852
855.067	0.0151331
855.145	0.0150310
855.223	0.0148825
855.301	0.0148229
855.379	0.0150127
855.457	0.0148549
855.535	0.0148251
855.613	0.0147919
855.692	0.0149104
855.770	0.0148884
855.848	0.0148576
855.926	0.0149024
856.004	0.0148037
856.082	0.0149317
856.160	0.0147885
856.238	0.0148151
856.317	0.0148470
856.395	0.0146584
856.473	0.0147514
856.551	0.0148416
856.629	0.0146935
856.707	0.0147356
856.785	0.0148299
856.863	0.0147939
856.942	0.0147375
857.020	0.0146977
857.098	0.0147586
857.176	0.0148196
857.254	0.0149112
857.332	0.0149299
857.410	0.0148072
857.488	0.0148298
857.567	0.0148823
857.645	0.0149489
857.723	0.0148476
857.801	0.0149784
857.879	0.0151699
857.957	0.0149791
858.035	0.0150898
858.113	0.0151858
858.192	0.0151153
858.270	0.0151790
858.348	0.0150292
858.426	0.0150114
858.504	0.0151873
858.582	0.0151999
858.660	0.0150666
858.738	0.0150330
858.817	0.0150503
858.895	0.0149805
858.973	0.0150103
859.051	0.0150135
859.129	0.0149174
859.207	0.0148939
859.285	0.0149879
859.363	0.0147952
859.442	0.0148382
859.520	0.0148356
859.598	0.0148695
859.676	0.0148336
859.754	0.0147308
859.832	0.0148199
859.910	0.0147963
859.988	0.0147878
860.067	0.0146522
860.145	0.0149086
860.223	0.0146711
860.301	0.0148024
860.379	0.0147595
860.457	0.0147301
860.535	0.0146867
860.613	0.0150176
860.692	0.0149084
860.770	0.0149692
860.848	0.0150001
860.926	0.0147891
861.004	0.0149213
861.082	0.0148195
861.160	0.0148194
861.238	0.0147266
861.317	0.0148312
861.395	0.0148531
861.473	0.0149852
861.551	0.0147853
861.629	0.0148374
861.707	0.0148096
861.785	0.0148389
861.863	0.0148486
861.942	0.0148845
862.020	0.0148215
862.098	0.0149491
862.176	0.0148489
862.254	0.0150497
862.332	0.0148131
862.410	0.0148801
862.488	0.0148800
862.567	0.0149251
862.645	0.0150269
862.723	0.0148488
862.801	0.0147377
862.879	0.0149759
862.957	0.0149001
863.035	0.0150165
863.113	0.0150719
863.192	0.0149802
863.270	0.0150426
863.348	0.0150414
863.426	0.0150018
863.504	0.0149464
863.582	0.0148968
863.660	0.0151292
863.738	0.0150809
863.817	0.0150235
863.895	0.0150906
863.973	0.0149825
864.051	0.0150291
864.129	0.0149713
864.207	0.0149798
864.285	0.0148804
864.363	0.0148653
864.442	0.0150050
864.520	0.0149239
864.598	0.0148833
864.676	0.0148136
864.754	0.0148987
864.832	0.0148362
864.910	0.0148544
864.988	0.0149571
865.067	0.0149252
865.145	0.0148612
865.223	0.0147610
865.301	0.0148763
865.379	0.0148657
865.457	0.0148409
865.535	0.0149583
865.613	0.0148384
865.692	0.0148499
865.770	0.0149483
865.848	0.0148313
865.926	0.0148871
866.004	0.0148423
866.082	0.0148548
866.160	0.0148950
866.238	0.0147746
866.317	0.0148016
866.395	0.0148753
866.473	0.0147054
866.551	0.0146581
866.629	0.0147622
866.707	0.0147687
866.785	0.0148846
866.863	0.0148770
866.942	0.0146717
867.020	0.0147727
867.098	0.0147626
867.176	0.0148336
867.254	0.0149742
867.332	0.0148550
867.410	0.0150420
867.488	0.0149730
867.567	0.0149676
867.645	0.0151032
867.723	0.0149168
867.801	0.0150299
867.879	0.0151500
867.957	0.0151059
868.035	0.0151158
868.113	0.0152208
868.192	0.0152934
868.270	0.0152651
868.348	0.0151584
868.426	0.0151846
868.504	0.0151804
868.582	0.0152094
868.660	0.0151187
868.738	0.0150616
868.817	0.0151024
868.895	0.0149426
868.973	0.0149763
869.051	0.0148618
869.129	0.0149245
869.207	0.0148553
869.285	0.0149871
869.363	0.0148173
869.442	0.0147475
869.520	0.0148122
869.598	0.0146893
869.676	0.0147141
869.754	0.0147866
869.832	0.0146998
869.910	0.0147739
869.988	0.0146478
870.067	0.0146741
870.145	0.0147113
870.223	0.0146272
870.301	0.0147095
870.379	0.0146581
870.457	0.0146413
870.535	0.0146890
870.613	0.0147936
870.692	0.0147399
870.770	0.0146995
870.848	0.0147247
870.926	0.0149057
871.004	0.0149754
871.082	0.0149777
871.160	0.0147847
871.238	0.0149471
871.317	0.0148857
871.395	0.0148833
871.473	0.0148331
871.551	0.0149452
871.629	0.0149538
871.707	0.0148913
871.785	0.0149225
871.863	0.0149152
871.942	0.0150736
872.020	0.0150115
872.098	0.0150368
872.176	0.0149637
872.254	0.0149200
872.332	0.0151210
872.410	0.0150481
872.488	0.0149535
872.567	0.0150110
872.645	0.0149281
872.723	0.0151169
872.801	0.0151342
872.879	0.0149203
872.957	0.0149613
873.035	0.0150717
873.113	0.0149428
873.192	0.0150238
873.270	0.0149764
873.348	0.0150058
873.426	0.0149534
873.504	0.0148714
873.582	0.0150089
873.660	0.0150269
873.738	0.0148578
873.817	0.0148220
873.895	0.0149771
873.973	0.0147957
874.051	0.0147676
874.129	0.0148367
874.207	0.0147720
874.285	0.0148191
874.363	0.0147712
874.442	0.0147475
874.520	0.0146697
874.598	0.0145663
874.676	0.0146553
874.754	0.0149086
874.832	0.0146639
874.910	0.0146507
874.988	0.0146475
875.067	0.0146741
875.145	0.0147043
875.223	0.0148050
875.301	0.0148695
875.379	0.0148670
875.457	0.0148653
875.535	0.0148223
875.613	0.0148375
875.692	0.0150027
875.770	0.0149166
875.848	0.0149538
875.926	0.0149673
876.004	0.0150422
876.082	0.0149796
876.160	0.0150723
876.238	0.0150333
876.317	0.0150294
876.395	0.0149364
876.473	0.0150578
876.551	0.0150172
876.629	0.0149065
876.707	0.0148347
876.785	0.0149058
876.863	0.0148632
876.942	0.0147399
877.020	0.0148005
877.098	0.0146971
877.176	0.0148087
877.254	0.0148563
877.332	0.0147693
877.410	0.0148545
877.488	0.0148734
877.567	0.0147443
877.645	0.0148538
877.723	0.0148807
877.801	0.0148661
877.879	0.0147472
877.957	0.0149562
878.035	0.0149640
878.113	0.0149420
878.192	0.0148485
878.270	0.0149425
878.348	0.0150286
878.426	0.0149582
878.504	0.0149707
878.582	0.0149876
878.660	0.0149314
878.738	0.0148906
878.817	0.0150368
878.895	0.0151379
878.973	0.0149623
879.051	0.0149371
879.129	0.0151470
879.207	0.0149860
879.285	0.0150574
879.363	0.0149232
879.442	0.0149224
879.520	0.0148312
879.598	0.0147575
879.676	0.0147045
879.754	0.0148481
879.832	0.0147958
879.910	0.0146616
879.988	0.0147655
880.067	0.0147762
880.145	0.0146710
880.223	0.0146706
880.301	0.0146942
880.379	0.0147012
880.457	0.0146634
880.535	0.0147015
880.613	0.0147106
880.692	0.0148185
880.770	0.0147200
880.848	0.0147588
880.926	0.0148405
881.004	0.0149580
881.082	0.0149290
881.160	0.0149005
881.238	0.0150250
881.317	0.0149390
881.395	0.0149061
881.473	0.0151021
881.551	0.0149503
881.629	0.0149376
881.707	0.0150517
881.785	0.0151229
881.863	0.0149413
881.942	0.0148969
882.020	0.0148782
882.098	0.0149274
882.176	0.0149401
882.254	0.0150256
882.332	0.0148051
882.410	0.0148711
882.488	0.0148844
882.567	0.0147548
882.645	0.0147942
882.723	0.0147153
882.801	0.0147095
882.879	0.0147695
882.957	0.0146781
883.035	0.0146770
883.113	0.0147813
883.192	0.0148492
883.270	0.0147178
883.348	0.0147392
883.426	0.0148444
883.504	0.0148920
883.582	0.0151068
883.660	0.0152052
883.738	0.0151107
883.817	0.0152670
883.895	0.0151119
883.973	0.0151195
884.051	0.0151778
884.129	0.0150937
884.207	0.0150431
884.285	0.0150492
884.363	0.0150450
884.442	0.0149725
884.520	0.0148746
884.598	0.0149689
884.676	0.0148174
884.754	0.0147697
884.832	0.0147282
884.910	0.0145924
884.988	0.0145576
885.067	0.0145402
885.145	0.0144989
885.223	0.0146149
885.301	0.0144356
885.379	0.0144415
885.457	0.0145616
885.535	0.0145097
885.613	0.0145690
885.692	0.0145925
885.770	0.0147899
885.848	0.0148476
885.926	0.0150827
886.004	0.0151945
886.082	0.0151668
886.160	0.0152714
886.238	0.0153848
886.317	0.0154969
886.395	0.0153290
886.473	0.0153218
886.551	0.0153097
886.629	0.0153817
886.707	0.0152011
886.785	0.0151952
886.863	0.0150653
886.942	0.0150393
887.020	0.0148928
887.098	0.0147634
887.176	0.0146300
887.254	0.0146849
887.332	0.0145325
887.410	0.0143433
887.488	0.0143286
887.567	0.0143264
887.645	0.0143110
887.723	0.0143202
887.801	0.0143397
887.879	0.0144440
887.957	0.0144785
888.035	0.0145116
888.113	0.0145962
888.192	0.0146833
888.270	0.0148267
888.348	0.0149174
888.426	0.0151797
888.504	0.0152277
888.582	0.0151373
888.660	0.0152859
888.738	0.0153636
888.817	0.0155737
888.895	0.0154049
888.973	0.0155122
889.051	0.0154802
889.129	0.0154410
889.207	0.0154446
889.285	0.0152795
889.363	0.0151762
889.442	0.0152683
889.520	0.0150739
889.598	0.0149313
889.676	0.0147854
889.754	0.0148763
889.832	0.0144512
889.910	0.0142908
889.988	0.0141328
890.067	0.0141569
890.145	0.0142640
890.223	0.0142020
890.301	0.0142792
890.379	0.0142710
890.457	0.0141263
890.535	0.0143753
890.613	0.0143957
890.692	0.0146019
890.770	0.0146890
890.848	0.0148938
890.926	0.0151840
891.004	0.0152283
891.082	0.0153271
891.160	0.0153916
891.238	0.0155403
891.317	0.0155044
891.395	0.0155486
891.473	0.0155109
891.551	0.0155016
891.629	0.0156331
891.707	0.0154801
891.785	0.0154769
891.863	0.0152345
891.942	0.0153142
892.020	0.0151219
892.098	0.0150596
892.176	0.0148567
892.254	0.0149476
892.332	0.0147334
892.410	0.0146921
892.488	0.0146254
892.567	0.0144823
892.645	0.0144569
892.723	0.0143776
892.801	0.0143235
892.879	0.0142100
892.957	0.0143508
893.035	0.0143318
893.113	0.0144603
893.192	0.0147349
893.270	0.0146524
893.348	0.0146243
893.426	0.0147961
893.504	0.0148351
893.582	0.0150460
893.660	0.0150307
893.738	0.0150688
893.817	0.0152829
893.895	0.0152633
893.973	0.0151681
894.051	0.0152394
894.129	0.0153014
894.207	0.0153433
894.285	0.0151829
894.363	0.0151933
894.442	0.0150507
894.520	0.0148739
894.598	0.0149959
894.676	0.0149033
894.754	0.0146651
894.832	0.0146966
894.910	0.0147570
894.988	0.0146786
895.067	0.0146316
895.145	0.0147819
895.223	0.0146884
895.301	0.0147603
895.379	0.0146790
895.457	0.0145757
895.535	0.0145593
895.613	0.0145590
895.692	0.0146927
895.770	0.0146815
895.848	0.0147305
895.926	0.0146696
896.004	0.0147382
896.082	0.0146978
896.160	0.0148775
896.238	0.0149004
896.317	0.0148476
896.395	0.0148920
896.473	0.0150504
896.551	0.0150244
896.629	0.0149919
896.707	0.0151189
896.785	0.0151245
896.863	0.0151215
896.942	0.0151472
897.020	0.0151270
897.098	0.0152116
897.176	0.0151478
897.254	0.0150150
897.332	0.0148672
897.410	0.0148982
897.488	0.0149442
897.567	0.0148528
897.645	0.0147366
897.723	0.0147170
897.801	0.0145731
897.879	0.0145865
897.957	0.0145748
898.035	0.0146165
898.113	0.0144600
898.192	0.0144615
898.270	0.0144229
898.348	0.0145002
898.426	0.0145956
898.504	0.0146127
898.582	0.0146861
898.660	0.0146141
898.738	0.0146658
898.817	0.0147909
898.895	0.0148150
898.973	0.0150939
899.051	0.0149953
899.129	0.0149841
899.207	0.0151620
899.285	0.0151316
899.363	0.0151266
899.442	0.0153098
899.520	0.0152763
899.598	0.0152711
899.676	0.0151978
899.754	0.0150328
899.832	0.0152583
899.910	0.0150916
899.988	0.0151402
900.067	0.0149979
900.145	0.0148168
900.223	0.0148521
900.301	0.0148793
900.379	0.0147321
900.457	0.0146377
900.535	0.0145962
900.613	0.0145621
900.692	0.0145420
900.770	0.0145596
900.848	0.0144218
900.926	0.0146473
901.004	0.0145698
901.082	0.0146183
901.160	0.0146651
901.238	0.0146767
901.317	0.0148164
901.395	0.0148985
901.473	0.0149868
901.551	0.0150195
901.629	0.0149647
901.707	0.0150603
901.785	0.0151045
901.863	0.0150136
901.942	0.0151726
902.020	0.0151980
902.098	0.0151860
902.176	0.0151307
902.254	0.0151602
902.332	0.0150954
902.410	0.0152485
902.488	0.0151862
902.567	0.0150527
902.645	0.0150135
902.723	0.0150500
902.801	0.0150383
902.879	0.0149318
902.957	0.0148616
903.035	0.0147855
903.113	0.0149100
903.192	0.0148862
903.270	0.0147581
903.348	0.0146994
903.426	0.0147613
903.504	0.0148032
903.582	0.0146133
903.660	0.0147649
903.738	0.0148277
903.817	0.0147607
903.895	0.0144906
903.973	0.0146191
904.051	0.0147696
904.129	0.0147352
904.207	0.0147792
904.285	0.0149802
904.363	0.0150125
904.442	0.0150878
904.520	0.0147870
904.598	0.0149610
904.676	0.0149918
904.754	0.0149815
904.832	0.0150318
904.910	0.0151711
904.988	0.0148998
905.067	0.0150751
905.145	0.0150288
905.223	0.0151192
905.301	0.0150256
905.379	0.0148235
905.457	0.0150021
905.535	0.0148695
905.613	0.0148178
905.692	0.0147424
905.770	0.0148404
905.848	0.0147054
905.926	0.0148180
906.004	0.0146954
906.082	0.0147800
906.160	0.0146943
906.238	0.0147321
906.317	0.0147392
906.395	0.0148053
906.473	0.0148437
906.551	0.0149082
906.629	0.0149502
906.707	0.0149702
906.785	0.0150251
906.863	0.0149873
906.942	0.0149799
907.020	0.0149435
907.098	0.0151025
907.176	0.0149323
907.254	0.0150123
907.332	0.0150705
907.410	0.0148959
907.488	0.0148487
907.567	0.0147369
907.645	0.0147343
907.723	0.0148006
907.801	0.0149805
907.879	0.0148251
907.957	0.0146039
908.035	0.0145946
908.113	0.0147758
908.192	0.0146827
908.270	0.0147047
908.348	0.0146746
908.426	0.0145367
908.504	0.0146437
908.582	0.0147314
908.660	0.0146572
908.738	0.0145458
908.817	0.0147876
908.895	0.0146957
908.973	0.0148374
909.051	0.0149046
909.129	0.0147119
909.207	0.0149870
909.285	0.0148878
909.363	0.0150704
909.442	0.0150834
909.520	0.0149808
909.598	0.0151653
909.676	0.0150800
909.754	0.0150809
909.832	0.0150272
909.910	0.0151064
909.988	0.0151296
910.067	0.0150808
910.145	0.0150341
910.223	0.0150117
910.301	0.0151284
910.379	0.0150889
910.457	0.0148586
910.535	0.0150034
910.613	0.0150238
910.692	0.0148720
910.770	0.0148599
910.848	0.0146745
910.926	0.0147985
911.004	0.0148589
911.082	0.0148710
911.160	0.0147170
911.238	0.0146788
911.317	0.0147759
911.395	0.0148065
911.473	0.0147942
911.551	0.0146630
911.629	0.0148742
911.707	0.0147707
911.785	0.0146505
911.863	0.0147391
911.942	0.0147338
912.020	0.0147932
912.098	0.0148257
912.176	0.0148790
912.254	0.0147835
912.332	0.0149477
912.410	0.0148103
912.488	0.0149952
912.567	0.0148433
912.645	0.0149266
912.723	0.0149410
912.801	0.0148997
912.879	0.0149775
912.957	0.0150140
913.035	0.0149500
913.113	0.0148769
913.192	0.0148287
913.270	0.0150118
913.348	0.0149487
913.426	0.0149980
913.504	0.0149171
913.582	0.0148653
913.660	0.0148668
913.738	0.0148403
913.817	0.0148400
913.895	0.0148522
913.973	0.0149110
914.051	0.0149540
914.129	0.0147390
914.207	0.0148278
914.285	0.0148125
914.363	0.0149121
914.442	0.0149940
914.520	0.0147298
914.598	0.0147788
914.676	0.0148621
914.754	0.0148813
914.832	0.0148834
914.910	0.0149117
914.988	0.0148512
915.067	0.0148689
915.145	0.0148873
915.223	0.0149041
915.301	0.0148522
915.379	0.0149281
915.457	0.0147889
915.535	0.0149245
915.613	0.0150337
915.692	0.0149806
915.770	0.0149960
915.848	0.0148718
915.926	0.0149541
916.004	0.0150570
916.082	0.0149723
916.160	0.0148579
916.238	0.0149985
916.317	0.0148463
916.395	0.0149625
916.473	0.0149472
916.551	0.0148746
916.629	0.0147301
916.707	0.0147009
916.785	0.0146957
916.863	0.0148716
916.942	0.0146117
917.020	0.0147809
917.098	0.0147992
917.176	0.0147562
917.254	0.0148273
917.332	0.0147440
917.410	0.0147442
917.488	0.0148506
917.567	0.0148805
917.645	0.0148513
917.723	0.0146957
917.801	0.0147781
917.879	0.0149830
917.957	0.0150274
918.035	0.0149365
918.113	0.0149995
918.192	0.0147704
918.270	0.0148235
918.348	0.0148708
918.426	0.0150121
918.504	0.0150244
918.582	0.0147173
918.660	0.0150005
918.738	0.0148830
918.817	0.0148893
918.895	0.0147099
918.973	0.0148317
919.051	0.0148476
919.129	0.0148282
919.207	0.0147330
919.285	0.0146941
919.363	0.0148318
919.442	0.0148128
919.520	0.0146346
919.598	0.0147987
919.676	0.0147835
919.754	0.0147857
919.832	0.0148186
919.910	0.0147018
