05/28/2022	14:10:01	Ver.	4.1	UNKNOWN
Optical Delay	599.988409	Delta X		0.078125	Sweeps	1	Scan Rate	0/0
Coordinates	Axis 1	NaN	Axis 2	NaN	Axis 3	NaN	Axis 4	NaN	Axis 5	NaN	Axis 6	0.000000
TX Power	0.000000	RX Power	0.000000

599.988	0.0142616
600.067	0.0142106
600.145	0.0141932
600.223	0.0142688
600.301	0.0142404
600.379	0.0141769
600.457	0.0142531
600.535	0.0141021
600.613	0.0143133
600.692	0.0142173
600.770	0.0142450
600.848	0.0143185
600.926	0.0143256
601.004	0.0142222
601.082	0.0142575
601.160	0.0142340
601.238	0.0142582
601.317	0.0142815
601.395	0.0142201
601.473	0.0142486
601.551	0.0140314
601.629	0.0142950
601.707	0.0143493
601.785	0.0143171
601.863	0.0142719
601.942	0.0142371
602.020	0.0142482
602.098	0.0141587
602.176	0.0142763
602.254	0.0141804
602.332	0.0141187
602.410	0.0142853
602.488	0.0141849
602.567	0.0142909
602.645	0.0141827
602.723	0.0141698
602.801	0.0141216
602.879	0.0142583
602.957	0.0142408
603.035	0.0141285
603.113	0.0141557
603.192	0.0142045
603.270	0.0141237
603.348	0.0142406
603.426	0.0141479
603.504	0.0141035
603.582	0.0142590
603.660	0.0141387
603.738	0.0141383
603.817	0.0141874
603.895	0.0141734
603.973	0.0142272
604.051	0.0142912
604.129	0.0142336
604.207	0.0141943
604.285	0.0140956
604.363	0.0141464
604.442	0.0142229
604.520	0.0143374
604.598	0.0143251
604.676	0.0140952
604.754	0.0142647
604.832	0.0143108
604.910	0.0141903
604.988	0.0142779
605.067	0.0141590
605.145	0.0142314
605.223	0.0142201
605.301	0.0142606
605.379	0.0140592
605.457	0.0141826
605.535	0.0141144
605.613	0.0142210
605.692	0.0142184
605.770	0.0140446
605.848	0.0141579
605.926	0.0142451
606.004	0.0141423
606.082	0.0142578
606.160	0.0141969
606.238	0.0141166
606.317	0.0142455
606.395	0.0141917
606.473	0.0141335
606.551	0.0142886
606.629	0.0141633
606.707	0.0141650
606.785	0.0141920
606.863	0.0140920
606.942	0.0141513
607.020	0.0141011
607.098	0.0141533
607.176	0.0142068
607.254	0.0141602
607.332	0.0142309
607.410	0.0142295
607.488	0.0142605
607.567	0.0142793
607.645	0.0142493
607.723	0.0142218
607.801	0.0141190
607.879	0.0141807
607.957	0.0141100
608.035	0.0141736
608.113	0.0141084
608.192	0.0142834
608.270	0.0142453
608.348	0.0142116
608.426	0.0141722
608.504	0.0142534
608.582	0.0142254
608.660	0.0141953
608.738	0.0140694
608.817	0.0141824
608.895	0.0143781
608.973	0.0142310
609.051	0.0142299
609.129	0.0140974
609.207	0.0141610
609.285	0.0141499
609.363	0.0141518
609.442	0.0142858
609.520	0.0141953
609.598	0.0142796
609.676	0.0140942
609.754	0.0141869
609.832	0.0141078
609.910	0.0141963
609.988	0.0142081
610.067	0.0142243
610.145	0.0141280
610.223	0.0141919
610.301	0.0140511
610.379	0.0141753
610.457	0.0141958
610.535	0.0142033
610.613	0.0143255
610.692	0.0141669
610.770	0.0140659
610.848	0.0142750
610.926	0.0141856
611.004	0.0141190
611.082	0.0142164
611.160	0.0142365
611.238	0.0142685
611.317	0.0143604
611.395	0.0140558
611.473	0.0141155
611.551	0.0142360
611.629	0.0141706
611.707	0.0142207
611.785	0.0142068
611.863	0.0141593
611.942	0.0141653
612.020	0.0142843
612.098	0.0141908
612.176	0.0142739
612.254	0.0142161
612.332	0.0141090
612.410	0.0142403
612.488	0.0142752
612.567	0.0142398
612.645	0.0141180
612.723	0.0141801
612.801	0.0142478
612.879	0.0143619
612.957	0.0141941
613.035	0.0142551
613.113	0.0141634
613.192	0.0141599
613.270	0.0141617
613.348	0.0141989
613.426	0.0142519
613.504	0.0142765
613.582	0.0142686
613.660	0.0141754
613.738	0.0141666
613.817	0.0143997
613.895	0.0141995
613.973	0.0142593
614.051	0.0143145
614.129	0.0142153
614.207	0.0142673
614.285	0.0142323
614.363	0.0141563
614.442	0.0142773
614.520	0.0142290
614.598	0.0142451
614.676	0.0142574
614.754	0.0143109
614.832	0.0142693
614.910	0.0143152
614.988	0.0142829
615.067	0.0141253
615.145	0.0143026
615.223	0.0142137
615.301	0.0142692
615.379	0.0141871
615.457	0.0142995
615.535	0.0142071
615.613	0.0141230
615.692	0.0142634
615.770	0.0143512
615.848	0.0143106
615.926	0.0141752
616.004	0.0141862
616.082	0.0142282
616.160	0.0142471
616.238	0.0143726
616.317	0.0143179
616.395	0.0142349
616.473	0.0142871
616.551	0.0143124
616.629	0.0142255
616.707	0.0142932
616.785	0.0142596
616.863	0.0142238
616.942	0.0142744
617.020	0.0143011
617.098	0.0144032
617.176	0.0142525
617.254	0.0143472
617.332	0.0142815
617.410	0.0143217
617.488	0.0143078
617.567	0.0143952
617.645	0.0143083
617.723	0.0143237
617.801	0.0142566
617.879	0.0143066
617.957	0.0142221
618.035	0.0141955
618.113	0.0140807
618.192	0.0141774
618.270	0.0143162
618.348	0.0143021
618.426	0.0143031
618.504	0.0143465
618.582	0.0142027
618.660	0.0142230
618.738	0.0142454
618.817	0.0142100
618.895	0.0143505
618.973	0.0143027
619.051	0.0142851
619.129	0.0142189
619.207	0.0142427
619.285	0.0142271
619.363	0.0142302
619.442	0.0141084
619.520	0.0141669
619.598	0.0141652
619.676	0.0143214
619.754	0.0142090
619.832	0.0142968
619.910	0.0142216
619.988	0.0143272
620.067	0.0142614
620.145	0.0142066
620.223	0.0142633
620.301	0.0142783
620.379	0.0142195
620.457	0.0142419
620.535	0.0141960
620.613	0.0141959
620.692	0.0141837
620.770	0.0141795
620.848	0.0142850
620.926	0.0140731
621.004	0.0142534
621.082	0.0142888
621.160	0.0141659
621.238	0.0142532
621.317	0.0141773
621.395	0.0141703
621.473	0.0141362
621.551	0.0141472
621.629	0.0143301
621.707	0.0142332
621.785	0.0142143
621.863	0.0142866
621.942	0.0141270
622.020	0.0142080
622.098	0.0141854
622.176	0.0143142
622.254	0.0142442
622.332	0.0141370
622.410	0.0142189
622.488	0.0141996
622.567	0.0143913
622.645	0.0142130
622.723	0.0141911
622.801	0.0142986
622.879	0.0140722
622.957	0.0141615
623.035	0.0141001
623.113	0.0140245
623.192	0.0140943
623.270	0.0141134
623.348	0.0143177
623.426	0.0141263
623.504	0.0140854
623.582	0.0140656
623.660	0.0140907
623.738	0.0141566
623.817	0.0142624
623.895	0.0141729
623.973	0.0141647
624.051	0.0140865
624.129	0.0141870
624.207	0.0141106
624.285	0.0140884
624.363	0.0141087
624.442	0.0142245
624.520	0.0142390
624.598	0.0141694
624.676	0.0140834
624.754	0.0142206
624.832	0.0140478
624.910	0.0142844
624.988	0.0141627
625.067	0.0141396
625.145	0.0142223
625.223	0.0143011
625.301	0.0141621
625.379	0.0142160
625.457	0.0141600
625.535	0.0141879
625.613	0.0142220
625.692	0.0142355
625.770	0.0142999
625.848	0.0142712
625.926	0.0141370
626.004	0.0142345
626.082	0.0140309
626.160	0.0141500
626.238	0.0142464
626.317	0.0140689
626.395	0.0141774
626.473	0.0142207
626.551	0.0140400
626.629	0.0140166
626.707	0.0141936
626.785	0.0141617
626.863	0.0140541
626.942	0.0141212
627.020	0.0142313
627.098	0.0142148
627.176	0.0142229
627.254	0.0140891
627.332	0.0141457
627.410	0.0141631
627.488	0.0140076
627.567	0.0141745
627.645	0.0141151
627.723	0.0142108
627.801	0.0141340
627.879	0.0142401
627.957	0.0141295
628.035	0.0141997
628.113	0.0141319
628.192	0.0141320
628.270	0.0142677
628.348	0.0141918
628.426	0.0141196
628.504	0.0141266
628.582	0.0142285
628.660	0.0141152
628.738	0.0140651
628.817	0.0142905
628.895	0.0140987
628.973	0.0141324
629.051	0.0140700
629.129	0.0141701
629.207	0.0141487
629.285	0.0140900
629.363	0.0141949
629.442	0.0141465
629.520	0.0140546
629.598	0.0142200
629.676	0.0142707
629.754	0.0142333
629.832	0.0141856
629.910	0.0141737
629.988	0.0141162
630.067	0.0142552
630.145	0.0142858
630.223	0.0141941
630.301	0.0141558
630.379	0.0141611
630.457	0.0140903
630.535	0.0142315
630.613	0.0141885
630.692	0.0142596
630.770	0.0141936
630.848	0.0141881
630.926	0.0141132
631.004	0.0140905
631.082	0.0141754
631.160	0.0142011
631.238	0.0142042
631.317	0.0141532
631.395	0.0143280
631.473	0.0141420
631.551	0.0140101
631.629	0.0142966
631.707	0.0141766
631.785	0.0142535
631.863	0.0141668
631.942	0.0141814
632.020	0.0142944
632.098	0.0140295
632.176	0.0140760
632.254	0.0141103
632.332	0.0142279
632.410	0.0141837
632.488	0.0142379
632.567	0.0139789
632.645	0.0141850
632.723	0.0141793
632.801	0.0142264
632.879	0.0141597
632.957	0.0141584
633.035	0.0141116
633.113	0.0141317
633.192	0.0143132
633.270	0.0142945
633.348	0.0142648
633.426	0.0141999
633.504	0.0140960
633.582	0.0142166
633.660	0.0141705
633.738	0.0142663
633.817	0.0142338
633.895	0.0142167
633.973	0.0142634
634.051	0.0142012
634.129	0.0142033
634.207	0.0141769
634.285	0.0141930
634.363	0.0141184
634.442	0.0141987
634.520	0.0141949
634.598	0.0141736
634.676	0.0143192
634.754	0.0143050
634.832	0.0142816
634.910	0.0142068
634.988	0.0141043
635.067	0.0143489
635.145	0.0142600
635.223	0.0143038
635.301	0.0143342
635.379	0.0142030
635.457	0.0141615
635.535	0.0143284
635.613	0.0142168
635.692	0.0141429
635.770	0.0141066
635.848	0.0142619
635.926	0.0143321
636.004	0.0141998
636.082	0.0143195
636.160	0.0142457
636.238	0.0141438
636.317	0.0140443
636.395	0.0141855
636.473	0.0142085
636.551	0.0141615
636.629	0.0143063
636.707	0.0142527
636.785	0.0142746
636.863	0.0141788
636.942	0.0143041
637.020	0.0142639
637.098	0.0142511
637.176	0.0141618
637.254	0.0142923
637.332	0.0142439
637.410	0.0142451
637.488	0.0142509
637.567	0.0141837
637.645	0.0142606
637.723	0.0142369
637.801	0.0141360
637.879	0.0144043
637.957	0.0143069
638.035	0.0141459
638.113	0.0142063
638.192	0.0144498
638.270	0.0142475
638.348	0.0142667
638.426	0.0141685
638.504	0.0142436
638.582	0.0142085
638.660	0.0142755
638.738	0.0141926
638.817	0.0141654
638.895	0.0143521
638.973	0.0143039
639.051	0.0141396
639.129	0.0141563
639.207	0.0141564
639.285	0.0142280
639.363	0.0142661
639.442	0.0142050
639.520	0.0142170
639.598	0.0142179
639.676	0.0143243
639.754	0.0143102
639.832	0.0142857
639.910	0.0142004
639.988	0.0142786
640.067	0.0142178
640.145	0.0142205
640.223	0.0141219
640.301	0.0140981
640.379	0.0142834
640.457	0.0142648
640.535	0.0142413
640.613	0.0142334
640.692	0.0141644
640.770	0.0143076
640.848	0.0140851
640.926	0.0142607
641.004	0.0141912
641.082	0.0141901
641.160	0.0142335
641.238	0.0141132
641.317	0.0141274
641.395	0.0143102
641.473	0.0142291
641.551	0.0142878
641.629	0.0142574
641.707	0.0142789
641.785	0.0141786
641.863	0.0141871
641.942	0.0141823
642.020	0.0142838
642.098	0.0142599
642.176	0.0142502
642.254	0.0142523
642.332	0.0143703
642.410	0.0142101
642.488	0.0142600
642.567	0.0143287
642.645	0.0141666
642.723	0.0142599
642.801	0.0141711
642.879	0.0142525
642.957	0.0142461
643.035	0.0142078
643.113	0.0142188
643.192	0.0141190
643.270	0.0142796
643.348	0.0142865
643.426	0.0141642
643.504	0.0143123
643.582	0.0141651
643.660	0.0143174
643.738	0.0142906
643.817	0.0141383
643.895	0.0141882
643.973	0.0141491
644.051	0.0142813
644.129	0.0142881
644.207	0.0142222
644.285	0.0141771
644.363	0.0141409
644.442	0.0141575
644.520	0.0143724
644.598	0.0142771
644.676	0.0141378
644.754	0.0141135
644.832	0.0142695
644.910	0.0143040
644.988	0.0142354
645.067	0.0142647
645.145	0.0141867
645.223	0.0141348
645.301	0.0142429
645.379	0.0142135
645.457	0.0141953
645.535	0.0142874
645.613	0.0142722
645.692	0.0142553
645.770	0.0140698
645.848	0.0140694
645.926	0.0141454
646.004	0.0141559
646.082	0.0142849
646.160	0.0143339
646.238	0.0143108
646.317	0.0142384
646.395	0.0142832
646.473	0.0142662
646.551	0.0141945
646.629	0.0143586
646.707	0.0142817
646.785	0.0142957
646.863	0.0141954
646.942	0.0141489
647.020	0.0142651
647.098	0.0142001
647.176	0.0142183
647.254	0.0141831
647.332	0.0142483
647.410	0.0142130
647.488	0.0142487
647.567	0.0141905
647.645	0.0142632
647.723	0.0143467
647.801	0.0142805
647.879	0.0143105
647.957	0.0143605
648.035	0.0143136
648.113	0.0142025
648.192	0.0142521
648.270	0.0143854
648.348	0.0143169
648.426	0.0142017
648.504	0.0141875
648.582	0.0143625
648.660	0.0142889
648.738	0.0142780
648.817	0.0142237
648.895	0.0142837
648.973	0.0144300
649.051	0.0142722
649.129	0.0143014
649.207	0.0143039
649.285	0.0142403
649.363	0.0141698
649.442	0.0141189
649.520	0.0141353
649.598	0.0140652
649.676	0.0142703
649.754	0.0142471
649.832	0.0141798
649.910	0.0142512
649.988	0.0141004
650.067	0.0142322
650.145	0.0142974
650.223	0.0141901
650.301	0.0142224
650.379	0.0143317
650.457	0.0142425
650.535	0.0143854
650.613	0.0143120
650.692	0.0141261
650.770	0.0142628
650.848	0.0142691
650.926	0.0143449
651.004	0.0143568
651.082	0.0142382
651.160	0.0141472
651.238	0.0142187
651.317	0.0140969
651.395	0.0142164
651.473	0.0142890
651.551	0.0143247
651.629	0.0143493
651.707	0.0143667
651.785	0.0144858
651.863	0.0142283
651.942	0.0142014
652.020	0.0141871
652.098	0.0142071
652.176	0.0142587
652.254	0.0142185
652.332	0.0142719
652.410	0.0142287
652.488	0.0143004
652.567	0.0142671
652.645	0.0142820
652.723	0.0142649
652.801	0.0142390
652.879	0.0142331
652.957	0.0142316
653.035	0.0141100
653.113	0.0143340
653.192	0.0142537
653.270	0.0141932
653.348	0.0141940
653.426	0.0141199
653.504	0.0141827
653.582	0.0142017
653.660	0.0141962
653.738	0.0143114
653.817	0.0142545
653.895	0.0140891
653.973	0.0140800
654.051	0.0141890
654.129	0.0143026
654.207	0.0141731
654.285	0.0142848
654.363	0.0143272
654.442	0.0141839
654.520	0.0141384
654.598	0.0142263
654.676	0.0141456
654.754	0.0141511
654.832	0.0141542
654.910	0.0142245
654.988	0.0140144
655.067	0.0140907
655.145	0.0142542
655.223	0.0141024
655.301	0.0142725
655.379	0.0141538
655.457	0.0141698
655.535	0.0141746
655.613	0.0141503
655.692	0.0141072
655.770	0.0141376
655.848	0.0140441
655.926	0.0141530
656.004	0.0141930
656.082	0.0141459
656.160	0.0142270
656.238	0.0142351
656.317	0.0141939
656.395	0.0142715
656.473	0.0142441
656.551	0.0141444
656.629	0.0141299
656.707	0.0143049
656.785	0.0142452
656.863	0.0142779
656.942	0.0142596
657.020	0.0142397
657.098	0.0142506
657.176	0.0140625
657.254	0.0141895
657.332	0.0142198
657.410	0.0142557
657.488	0.0141279
657.567	0.0142238
657.645	0.0142356
657.723	0.0142369
657.801	0.0141512
657.879	0.0141183
657.957	0.0140524
658.035	0.0141602
658.113	0.0141640
658.192	0.0140166
658.270	0.0142596
658.348	0.0142514
658.426	0.0139421
658.504	0.0140352
658.582	0.0141442
658.660	0.0142144
658.738	0.0142039
658.817	0.0143787
658.895	0.0142775
658.973	0.0143761
659.051	0.0144054
659.129	0.0144778
659.207	0.0144479
659.285	0.0144216
659.363	0.0145362
659.442	0.0143095
659.520	0.0144453
659.598	0.0146008
659.676	0.0145080
659.754	0.0144954
659.832	0.0143995
659.910	0.0142134
659.988	0.0141077
660.067	0.0140613
660.145	0.0138210
660.223	0.0139034
660.301	0.0137300
660.379	0.0136393
660.457	0.0137910
660.535	0.0136657
660.613	0.0137377
660.692	0.0137737
660.770	0.0138898
660.848	0.0139729
660.926	0.0140186
661.004	0.0140257
661.082	0.0141194
661.160	0.0141618
661.238	0.0141519
661.317	0.0140970
661.395	0.0140514
661.473	0.0142457
661.551	0.0143325
661.629	0.0143722
661.707	0.0143853
661.785	0.0144532
661.863	0.0144017
661.942	0.0143623
662.020	0.0144593
662.098	0.0145536
662.176	0.0145357
662.254	0.0143418
662.332	0.0142826
662.410	0.0142012
662.488	0.0142072
662.567	0.0141281
662.645	0.0142156
662.723	0.0142471
662.801	0.0143600
662.879	0.0143144
662.957	0.0144199
663.035	0.0145663
663.113	0.0145715
663.192	0.0146760
663.270	0.0146692
663.348	0.0146778
663.426	0.0146413
663.504	0.0143965
663.582	0.0144798
663.660	0.0144424
663.738	0.0144232
663.817	0.0143404
663.895	0.0142255
663.973	0.0141781
664.051	0.0140866
664.129	0.0140013
664.207	0.0141135
664.285	0.0140952
664.363	0.0139055
664.442	0.0139445
664.520	0.0138082
664.598	0.0137643
664.676	0.0136145
664.754	0.0135706
664.832	0.0136118
664.910	0.0135518
664.988	0.0134520
665.067	0.0133316
665.145	0.0132275
665.223	0.0134434
665.301	0.0135074
665.379	0.0134947
665.457	0.0136936
665.535	0.0139126
665.613	0.0139612
665.692	0.0143314
665.770	0.0145267
665.848	0.0145975
665.926	0.0148891
666.004	0.0149267
666.082	0.0149909
666.160	0.0151591
666.238	0.0152834
666.317	0.0150667
666.395	0.0148865
666.473	0.0149416
666.551	0.0147676
666.629	0.0148162
666.707	0.0147723
666.785	0.0146359
666.863	0.0147308
666.942	0.0145730
667.020	0.0145569
667.098	0.0146530
667.176	0.0146666
667.254	0.0146239
667.332	0.0144296
667.410	0.0144238
667.488	0.0142416
667.567	0.0142474
667.645	0.0142854
667.723	0.0141535
667.801	0.0141906
667.879	0.0142371
667.957	0.0143256
668.035	0.0141435
668.113	0.0141402
668.192	0.0140908
668.270	0.0141013
668.348	0.0141928
668.426	0.0140000
668.504	0.0139319
668.582	0.0137511
668.660	0.0136603
668.738	0.0134668
668.817	0.0133770
668.895	0.0131322
668.973	0.0130984
669.051	0.0129269
669.129	0.0129221
669.207	0.0128083
669.285	0.0127870
669.363	0.0127637
669.442	0.0127750
669.520	0.0129082
669.598	0.0129712
669.676	0.0131060
669.754	0.0135588
669.832	0.0138243
669.910	0.0141368
669.988	0.0142403
670.067	0.0144071
670.145	0.0148097
670.223	0.0149621
670.301	0.0150303
670.379	0.0154816
670.457	0.0154056
670.535	0.0153516
670.613	0.0153593
670.692	0.0152225
670.770	0.0151970
670.848	0.0151095
670.926	0.0150948
671.004	0.0149264
671.082	0.0148315
671.160	0.0148473
671.238	0.0147221
671.317	0.0146716
671.395	0.0147502
671.473	0.0146973
671.551	0.0146666
671.629	0.0146516
671.707	0.0146394
671.785	0.0145280
671.863	0.0145860
671.942	0.0145531
672.020	0.0146400
672.098	0.0144364
672.176	0.0145361
672.254	0.0145335
672.332	0.0143871
672.410	0.0145153
672.488	0.0144556
672.567	0.0144975
672.645	0.0144737
672.723	0.0144245
672.801	0.0143108
672.879	0.0141228
672.957	0.0140774
673.035	0.0140068
673.113	0.0138245
673.192	0.0138152
673.270	0.0137333
673.348	0.0135608
673.426	0.0133512
673.504	0.0134889
673.582	0.0135091
673.660	0.0135465
673.738	0.0134017
673.817	0.0134226
673.895	0.0134068
673.973	0.0134902
674.051	0.0135485
674.129	0.0134167
674.207	0.0134781
674.285	0.0135612
674.363	0.0134449
674.442	0.0135927
674.520	0.0135513
674.598	0.0135233
674.676	0.0135419
674.754	0.0135323
674.832	0.0133521
674.910	0.0134282
674.988	0.0133917
675.067	0.0135582
675.145	0.0136221
675.223	0.0137033
675.301	0.0138181
675.379	0.0141621
675.457	0.0143807
675.535	0.0145138
675.613	0.0147272
675.692	0.0150112
675.770	0.0150546
675.848	0.0152472
675.926	0.0155217
676.004	0.0156197
676.082	0.0157360
676.160	0.0157546
676.238	0.0158347
676.317	0.0159608
676.395	0.0158736
676.473	0.0159490
676.551	0.0158212
676.629	0.0156699
676.707	0.0157549
676.785	0.0156297
676.863	0.0154922
676.942	0.0151292
677.020	0.0150435
677.098	0.0148739
677.176	0.0146773
677.254	0.0146690
677.332	0.0144940
677.410	0.0144042
677.488	0.0142458
677.567	0.0142661
677.645	0.0141003
677.723	0.0139759
677.801	0.0138897
677.879	0.0138284
677.957	0.0136739
678.035	0.0137198
678.113	0.0135500
678.192	0.0135863
678.270	0.0136107
678.348	0.0135534
678.426	0.0135061
678.504	0.0135796
678.582	0.0137123
678.660	0.0137521
678.738	0.0135843
678.817	0.0136576
678.895	0.0136619
678.973	0.0134617
679.051	0.0133138
679.129	0.0130865
679.207	0.0130096
679.285	0.0129533
679.363	0.0128342
679.442	0.0126382
679.520	0.0125581
679.598	0.0124574
679.676	0.0122518
679.754	0.0123408
679.832	0.0124070
679.910	0.0123959
679.988	0.0125703
680.067	0.0127351
680.145	0.0130309
680.223	0.0133363
680.301	0.0136325
680.379	0.0139268
680.457	0.0141735
680.535	0.0146029
680.613	0.0150901
680.692	0.0154884
680.770	0.0157720
680.848	0.0158656
680.926	0.0160212
681.004	0.0164378
681.082	0.0164397
681.160	0.0165059
681.238	0.0167472
681.317	0.0166806
681.395	0.0165641
681.473	0.0168227
681.551	0.0166426
681.629	0.0165695
681.707	0.0165157
681.785	0.0163570
681.863	0.0162057
681.942	0.0159322
682.020	0.0156737
682.098	0.0153957
682.176	0.0150877
682.254	0.0147900
682.332	0.0144884
682.410	0.0141978
682.488	0.0140139
682.567	0.0136834
682.645	0.0135030
682.723	0.0132036
682.801	0.0131203
682.879	0.0129297
682.957	0.0128008
683.035	0.0128258
683.113	0.0126979
683.192	0.0127550
683.270	0.0127153
683.348	0.0128001
683.426	0.0128157
683.504	0.0129677
683.582	0.0129704
683.660	0.0130036
683.738	0.0129971
683.817	0.0130654
683.895	0.0133044
683.973	0.0134644
684.051	0.0133883
684.129	0.0135080
684.207	0.0136339
684.285	0.0136739
684.363	0.0138337
684.442	0.0138420
684.520	0.0139134
684.598	0.0139466
684.676	0.0139732
684.754	0.0139587
684.832	0.0140669
684.910	0.0141109
684.988	0.0139963
685.067	0.0140102
685.145	0.0140205
685.223	0.0140412
685.301	0.0140536
685.379	0.0139169
685.457	0.0140757
685.535	0.0140024
685.613	0.0141126
685.692	0.0141552
685.770	0.0142073
685.848	0.0140383
685.926	0.0143087
686.004	0.0144125
686.082	0.0144768
686.160	0.0145881
686.238	0.0147260
686.317	0.0148400
686.395	0.0151469
686.473	0.0152338
686.551	0.0150716
686.629	0.0149888
686.707	0.0150681
686.785	0.0151431
686.863	0.0151089
686.942	0.0149248
687.020	0.0150014
687.098	0.0148140
687.176	0.0149374
687.254	0.0150060
687.332	0.0148785
687.410	0.0149125
687.488	0.0148920
687.567	0.0148257
687.645	0.0149499
687.723	0.0147956
687.801	0.0146831
687.879	0.0146437
687.957	0.0147465
688.035	0.0146975
688.113	0.0144666
688.192	0.0143876
688.270	0.0145424
688.348	0.0143392
688.426	0.0142849
688.504	0.0143029
688.582	0.0142960
688.660	0.0141299
688.738	0.0141570
688.817	0.0141322
688.895	0.0141087
688.973	0.0140681
689.051	0.0141789
689.129	0.0140172
689.207	0.0138844
689.285	0.0138321
689.363	0.0137322
689.442	0.0135603
689.520	0.0134258
689.598	0.0133138
689.676	0.0131995
689.754	0.0130885
689.832	0.0128993
689.910	0.0127580
689.988	0.0127426
690.067	0.0127772
690.145	0.0125521
690.223	0.0125641
690.301	0.0125710
690.379	0.0124586
690.457	0.0124716
690.535	0.0126485
690.613	0.0127419
690.692	0.0128957
690.770	0.0131367
690.848	0.0133216
690.926	0.0135658
691.004	0.0139747
691.082	0.0143208
691.160	0.0146148
691.238	0.0149019
691.317	0.0152544
691.395	0.0153578
691.473	0.0155154
691.551	0.0157392
691.629	0.0156232
691.707	0.0155589
691.785	0.0154774
691.863	0.0155037
691.942	0.0150625
692.020	0.0149224
692.098	0.0149506
692.176	0.0147516
692.254	0.0146276
692.332	0.0145935
692.410	0.0144639
692.488	0.0145338
692.567	0.0146131
692.645	0.0145572
692.723	0.0145641
692.801	0.0147414
692.879	0.0148071
692.957	0.0148611
693.035	0.0152002
693.113	0.0152281
693.192	0.0152850
693.270	0.0153683
693.348	0.0152467
693.426	0.0152726
693.504	0.0153578
693.582	0.0151994
693.660	0.0151183
693.738	0.0147334
693.817	0.0144610
693.895	0.0144185
693.973	0.0139737
694.051	0.0137299
694.129	0.0135674
694.207	0.0134087
694.285	0.0132092
694.363	0.0131573
694.442	0.0130952
694.520	0.0129589
694.598	0.0129482
694.676	0.0131374
694.754	0.0132220
694.832	0.0133237
694.910	0.0134288
694.988	0.0135378
695.067	0.0136988
695.145	0.0137928
695.223	0.0139011
695.301	0.0140375
695.379	0.0140482
695.457	0.0141470
695.535	0.0142190
695.613	0.0141943
695.692	0.0142847
695.770	0.0140515
695.848	0.0139707
695.926	0.0138567
696.004	0.0138571
696.082	0.0137765
696.160	0.0136783
696.238	0.0136794
696.317	0.0137328
696.395	0.0137000
696.473	0.0137831
696.551	0.0139129
696.629	0.0138828
696.707	0.0139938
696.785	0.0139938
696.863	0.0141891
696.942	0.0141087
697.020	0.0141753
697.098	0.0143490
697.176	0.0143031
697.254	0.0143410
697.332	0.0142815
697.410	0.0145728
697.488	0.0146042
697.567	0.0144896
697.645	0.0144855
697.723	0.0145541
697.801	0.0147057
697.879	0.0147504
697.957	0.0147011
698.035	0.0147033
698.113	0.0147127
698.192	0.0147620
698.270	0.0147623
698.348	0.0149236
698.426	0.0149830
698.504	0.0150454
698.582	0.0152872
698.660	0.0151558
698.738	0.0153507
698.817	0.0152192
698.895	0.0150601
698.973	0.0151281
699.051	0.0151060
699.129	0.0150639
699.207	0.0149709
699.285	0.0148038
699.363	0.0147809
699.442	0.0146471
699.520	0.0145966
699.598	0.0144056
699.676	0.0140014
699.754	0.0140228
699.832	0.0138969
699.910	0.0137460
699.988	0.0136755
700.067	0.0136337
700.145	0.0133836
700.223	0.0134839
700.301	0.0134267
700.379	0.0133358
700.457	0.0134644
700.535	0.0135637
700.613	0.0135883
700.692	0.0137469
700.770	0.0139660
700.848	0.0138727
700.926	0.0140301
701.004	0.0141158
701.082	0.0141410
701.160	0.0143127
701.238	0.0142091
701.317	0.0139841
701.395	0.0139893
701.473	0.0139612
701.551	0.0138245
701.629	0.0137796
701.707	0.0136723
701.785	0.0134976
701.863	0.0134785
701.942	0.0134469
702.020	0.0135575
702.098	0.0135773
702.176	0.0136448
702.254	0.0137720
702.332	0.0140491
702.410	0.0139906
702.488	0.0141548
702.567	0.0141930
702.645	0.0143799
702.723	0.0145013
702.801	0.0148089
702.879	0.0148415
702.957	0.0148854
703.035	0.0150786
703.113	0.0150660
703.192	0.0151411
703.270	0.0150848
703.348	0.0152604
703.426	0.0151527
703.504	0.0150634
703.582	0.0148600
703.660	0.0146955
703.738	0.0145583
703.817	0.0144809
703.895	0.0142577
703.973	0.0140643
704.051	0.0137897
704.129	0.0138626
704.207	0.0137383
704.285	0.0137877
704.363	0.0137757
704.442	0.0138287
704.520	0.0139200
704.598	0.0140929
704.676	0.0141325
704.754	0.0142359
704.832	0.0143485
704.910	0.0144273
704.988	0.0144020
705.067	0.0143855
705.145	0.0145465
705.223	0.0145049
705.301	0.0144857
705.379	0.0145403
705.457	0.0145695
705.535	0.0145319
705.613	0.0145618
705.692	0.0144463
705.770	0.0143873
705.848	0.0143978
705.926	0.0143771
706.004	0.0143550
706.082	0.0143366
706.160	0.0144181
706.238	0.0142818
706.317	0.0140925
706.395	0.0141270
706.473	0.0142159
706.551	0.0139112
706.629	0.0137627
706.707	0.0138252
706.785	0.0139024
706.863	0.0138836
706.942	0.0139733
707.020	0.0139197
707.098	0.0139431
707.176	0.0139667
707.254	0.0139102
707.332	0.0140585
707.410	0.0138416
707.488	0.0138354
707.567	0.0139587
707.645	0.0137687
707.723	0.0138260
707.801	0.0137919
707.879	0.0137479
707.957	0.0136723
708.035	0.0137311
708.113	0.0135154
708.192	0.0137034
708.270	0.0136052
708.348	0.0137960
708.426	0.0136961
708.504	0.0138396
708.582	0.0141260
708.660	0.0141955
708.738	0.0143953
708.817	0.0145667
708.895	0.0146240
708.973	0.0147481
709.051	0.0148824
709.129	0.0151036
709.207	0.0150416
709.285	0.0149445
709.363	0.0149522
709.442	0.0149268
709.520	0.0149445
709.598	0.0147457
709.676	0.0146505
709.754	0.0146445
709.832	0.0144586
709.910	0.0145559
709.988	0.0144968
710.067	0.0144215
710.145	0.0144051
710.223	0.0144418
710.301	0.0143911
710.379	0.0143029
710.457	0.0142738
710.535	0.0143655
710.613	0.0143017
710.692	0.0141727
710.770	0.0142094
710.848	0.0141933
710.926	0.0140953
711.004	0.0140795
711.082	0.0140974
711.160	0.0141465
711.238	0.0141974
711.317	0.0140246
711.395	0.0141359
711.473	0.0140429
711.551	0.0140766
711.629	0.0141482
711.707	0.0140882
711.785	0.0140116
711.863	0.0140334
711.942	0.0138808
712.020	0.0139762
712.098	0.0139098
712.176	0.0137778
712.254	0.0137885
712.332	0.0138690
712.410	0.0138202
712.488	0.0138376
712.567	0.0137769
712.645	0.0137580
712.723	0.0138906
712.801	0.0138563
712.879	0.0138258
712.957	0.0140295
713.035	0.0141145
713.113	0.0140372
713.192	0.0141825
713.270	0.0142588
713.348	0.0143306
713.426	0.0142937
713.504	0.0144576
713.582	0.0143249
713.660	0.0143519
713.738	0.0143893
713.817	0.0145226
713.895	0.0144318
713.973	0.0146147
714.051	0.0146380
714.129	0.0145178
714.207	0.0145437
714.285	0.0146756
714.363	0.0146349
714.442	0.0145553
714.520	0.0145044
714.598	0.0144016
714.676	0.0141570
714.754	0.0143788
714.832	0.0141732
714.910	0.0140635
714.988	0.0141808
715.067	0.0141469
715.145	0.0139978
715.223	0.0141142
715.301	0.0140774
715.379	0.0141561
715.457	0.0142432
715.535	0.0141729
715.613	0.0144315
715.692	0.0142388
715.770	0.0142971
715.848	0.0142818
715.926	0.0143376
716.004	0.0143414
716.082	0.0142009
716.160	0.0142393
716.238	0.0141525
716.317	0.0140288
716.395	0.0140160
716.473	0.0141388
716.551	0.0138460
716.629	0.0139467
716.707	0.0137506
716.785	0.0137772
716.863	0.0138113
716.942	0.0137280
717.020	0.0139145
717.098	0.0139525
717.176	0.0138663
717.254	0.0139449
717.332	0.0140887
717.410	0.0140281
717.488	0.0139709
717.567	0.0140363
717.645	0.0141250
717.723	0.0141895
717.801	0.0142992
717.879	0.0142266
717.957	0.0143986
718.035	0.0143768
718.113	0.0144650
718.192	0.0146022
718.270	0.0147049
718.348	0.0146540
718.426	0.0146828
718.504	0.0145713
718.582	0.0147950
718.660	0.0147469
718.738	0.0147539
718.817	0.0146565
718.895	0.0146535
718.973	0.0145818
719.051	0.0144489
719.129	0.0143317
719.207	0.0143729
719.285	0.0141978
719.363	0.0142535
719.442	0.0141712
719.520	0.0140144
719.598	0.0141608
719.676	0.0140677
719.754	0.0138214
719.832	0.0137684
719.910	0.0138789
719.988	0.0138050
720.067	0.0138078
720.145	0.0138567
720.223	0.0138863
720.301	0.0138101
720.379	0.0139146
720.457	0.0138102
720.535	0.0138618
720.613	0.0140579
720.692	0.0141272
720.770	0.0141240
720.848	0.0141340
720.926	0.0142619
721.004	0.0143359
721.082	0.0143087
721.160	0.0142143
721.238	0.0144330
721.317	0.0144469
721.395	0.0144813
721.473	0.0145105
721.551	0.0141922
721.629	0.0142250
721.707	0.0143986
721.785	0.0142909
721.863	0.0141476
721.942	0.0141348
722.020	0.0143391
722.098	0.0141952
722.176	0.0140871
722.254	0.0142567
722.332	0.0142485
722.410	0.0140712
722.488	0.0141280
722.567	0.0141940
722.645	0.0142053
722.723	0.0142238
722.801	0.0140834
722.879	0.0142517
722.957	0.0143209
723.035	0.0142343
723.113	0.0142668
723.192	0.0143746
723.270	0.0144772
723.348	0.0143866
723.426	0.0144315
723.504	0.0143438
723.582	0.0143443
723.660	0.0144531
723.738	0.0145828
723.817	0.0144915
723.895	0.0145748
723.973	0.0145131
724.051	0.0142966
724.129	0.0144624
724.207	0.0143310
724.285	0.0142529
724.363	0.0141992
724.442	0.0141930
724.520	0.0140489
724.598	0.0140115
724.676	0.0139502
724.754	0.0140047
724.832	0.0138889
724.910	0.0139162
724.988	0.0139231
725.067	0.0140213
725.145	0.0139376
725.223	0.0139963
725.301	0.0140165
725.379	0.0140551
725.457	0.0140028
725.535	0.0139475
725.613	0.0140900
725.692	0.0140324
725.770	0.0140448
725.848	0.0139596
725.926	0.0139105
726.004	0.0140112
726.082	0.0142281
726.160	0.0141747
726.238	0.0141206
726.317	0.0143378
726.395	0.0142362
726.473	0.0143228
726.551	0.0145453
726.629	0.0146326
726.707	0.0145223
726.785	0.0145964
726.863	0.0145533
726.942	0.0145222
727.020	0.0143758
727.098	0.0143437
727.176	0.0144925
727.254	0.0143280
727.332	0.0142234
727.410	0.0142115
727.488	0.0141698
727.567	0.0139271
727.645	0.0139607
727.723	0.0138250
727.801	0.0141240
727.879	0.0140132
727.957	0.0140364
728.035	0.0140334
728.113	0.0140347
728.192	0.0139526
728.270	0.0139931
728.348	0.0141701
728.426	0.0140678
728.504	0.0141305
728.582	0.0139741
728.660	0.0141053
728.738	0.0141431
728.817	0.0140220
728.895	0.0139745
728.973	0.0139719
729.051	0.0139954
729.129	0.0139506
729.207	0.0140396
729.285	0.0138782
729.363	0.0138209
729.442	0.0140147
729.520	0.0141319
729.598	0.0142525
729.676	0.0142229
729.754	0.0141058
729.832	0.0141435
729.910	0.0143631
729.988	0.0143554
730.067	0.0143741
730.145	0.0146118
730.223	0.0147236
730.301	0.0145226
730.379	0.0145985
730.457	0.0146755
730.535	0.0146912
730.613	0.0146153
730.692	0.0145397
730.770	0.0146697
730.848	0.0144859
730.926	0.0142950
731.004	0.0142624
731.082	0.0141636
731.160	0.0140083
731.238	0.0140096
731.317	0.0137881
731.395	0.0138432
731.473	0.0138026
731.551	0.0136777
731.629	0.0137527
731.707	0.0136253
731.785	0.0136825
731.863	0.0138132
731.942	0.0137982
732.020	0.0138646
732.098	0.0138956
732.176	0.0141346
732.254	0.0142057
732.332	0.0139939
732.410	0.0142559
732.488	0.0143174
732.567	0.0143855
732.645	0.0143636
732.723	0.0143303
732.801	0.0144565
732.879	0.0143085
732.957	0.0143148
733.035	0.0143961
733.113	0.0144047
733.192	0.0143494
733.270	0.0144522
733.348	0.0143880
733.426	0.0143439
733.504	0.0143750
733.582	0.0142665
733.660	0.0142012
733.738	0.0142278
733.817	0.0141784
733.895	0.0141237
733.973	0.0142718
734.051	0.0140961
734.129	0.0141305
734.207	0.0141845
734.285	0.0141752
734.363	0.0140125
734.442	0.0140925
734.520	0.0141448
734.598	0.0142699
734.676	0.0141199
734.754	0.0141741
734.832	0.0143356
734.910	0.0141848
734.988	0.0142384
735.067	0.0141096
735.145	0.0140167
735.223	0.0141486
735.301	0.0142601
735.379	0.0142092
735.457	0.0141665
735.535	0.0142203
735.613	0.0142303
735.692	0.0143647
735.770	0.0143718
735.848	0.0142995
735.926	0.0144715
736.004	0.0145144
736.082	0.0144516
736.160	0.0143951
736.238	0.0141814
736.317	0.0143214
736.395	0.0143724
736.473	0.0142975
736.551	0.0142477
736.629	0.0141389
736.707	0.0142076
736.785	0.0142099
736.863	0.0140880
736.942	0.0142002
737.020	0.0141077
737.098	0.0142729
737.176	0.0140518
737.254	0.0143512
737.332	0.0142241
737.410	0.0142979
737.488	0.0142709
737.567	0.0142258
737.645	0.0142478
737.723	0.0142604
737.801	0.0141960
737.879	0.0142303
737.957	0.0144025
738.035	0.0143283
738.113	0.0140873
738.192	0.0141531
738.270	0.0141511
738.348	0.0141616
738.426	0.0140895
738.504	0.0142260
738.582	0.0140965
738.660	0.0140559
738.738	0.0142092
738.817	0.0140450
738.895	0.0139692
738.973	0.0140919
739.051	0.0139686
739.129	0.0138868
739.207	0.0139052
739.285	0.0139855
739.363	0.0138144
739.442	0.0139259
739.520	0.0139513
739.598	0.0141718
739.676	0.0140739
739.754	0.0140161
739.832	0.0140932
739.910	0.0141351
739.988	0.0142184
740.067	0.0143057
740.145	0.0142280
740.223	0.0144000
740.301	0.0144656
740.379	0.0143739
740.457	0.0141972
740.535	0.0144474
740.613	0.0144761
740.692	0.0144453
740.770	0.0143790
740.848	0.0143861
740.926	0.0144910
741.004	0.0144416
741.082	0.0143609
741.160	0.0142992
741.238	0.0143288
741.317	0.0144144
741.395	0.0143703
741.473	0.0144312
741.551	0.0144525
741.629	0.0142448
741.707	0.0141998
741.785	0.0143037
741.863	0.0141654
741.942	0.0142240
742.020	0.0142181
742.098	0.0143697
742.176	0.0143568
742.254	0.0143790
742.332	0.0143623
742.410	0.0144768
742.488	0.0143845
742.567	0.0144808
742.645	0.0145180
742.723	0.0143945
742.801	0.0145181
742.879	0.0143537
742.957	0.0142700
743.035	0.0142012
743.113	0.0140742
743.192	0.0140600
743.270	0.0141029
743.348	0.0138619
743.426	0.0138186
743.504	0.0138557
743.582	0.0138301
743.660	0.0137652
743.738	0.0137691
743.817	0.0137453
743.895	0.0136831
743.973	0.0138370
744.051	0.0138111
744.129	0.0138892
744.207	0.0140668
744.285	0.0141335
744.363	0.0141093
744.442	0.0141087
744.520	0.0140680
744.598	0.0141954
744.676	0.0140852
744.754	0.0141918
744.832	0.0144946
744.910	0.0143800
744.988	0.0142772
745.067	0.0143436
745.145	0.0143750
745.223	0.0144211
745.301	0.0144711
745.379	0.0142723
745.457	0.0143832
745.535	0.0142203
745.613	0.0141763
745.692	0.0142471
745.770	0.0143271
745.848	0.0142532
745.926	0.0142500
746.004	0.0144386
746.082	0.0142976
746.160	0.0142284
746.238	0.0144333
746.317	0.0143424
746.395	0.0144413
746.473	0.0142508
746.551	0.0144328
746.629	0.0143750
746.707	0.0143449
746.785	0.0142883
746.863	0.0144000
746.942	0.0143346
747.020	0.0142277
747.098	0.0142377
747.176	0.0143057
747.254	0.0143002
747.332	0.0143511
747.410	0.0142214
747.488	0.0142495
747.567	0.0142006
747.645	0.0142401
747.723	0.0142768
747.801	0.0142558
747.879	0.0142325
747.957	0.0143385
748.035	0.0143090
748.113	0.0143797
748.192	0.0141940
748.270	0.0142278
748.348	0.0143885
748.426	0.0142266
748.504	0.0143220
748.582	0.0143102
748.660	0.0140955
748.738	0.0140501
748.817	0.0141016
748.895	0.0141537
748.973	0.0140910
749.051	0.0141060
749.129	0.0140777
749.207	0.0141218
749.285	0.0139642
749.363	0.0140070
749.442	0.0140936
749.520	0.0141813
749.598	0.0140096
749.676	0.0139482
749.754	0.0140911
749.832	0.0140178
749.910	0.0141808
749.988	0.0141095
750.067	0.0141884
750.145	0.0142603
750.223	0.0142697
750.301	0.0141999
750.379	0.0143652
750.457	0.0142338
750.535	0.0143842
750.613	0.0143405
750.692	0.0142926
750.770	0.0142533
750.848	0.0142958
750.926	0.0142413
751.004	0.0141938
751.082	0.0142467
751.160	0.0142206
751.238	0.0142269
751.317	0.0141415
751.395	0.0140074
751.473	0.0141688
751.551	0.0142337
751.629	0.0141200
751.707	0.0141622
751.785	0.0142522
751.863	0.0142502
751.942	0.0141814
752.020	0.0141724
752.098	0.0142521
752.176	0.0143265
752.254	0.0142538
752.332	0.0143930
752.410	0.0143001
752.488	0.0144131
752.567	0.0144034
752.645	0.0143627
752.723	0.0141660
752.801	0.0143594
752.879	0.0143827
752.957	0.0141273
753.035	0.0141658
753.113	0.0141861
753.192	0.0141158
753.270	0.0139673
753.348	0.0141821
753.426	0.0141416
753.504	0.0142137
753.582	0.0141486
753.660	0.0140430
753.738	0.0139641
753.817	0.0139668
753.895	0.0138943
753.973	0.0139245
754.051	0.0139944
754.129	0.0141189
754.207	0.0140463
754.285	0.0140779
754.363	0.0141611
754.442	0.0140412
754.520	0.0142101
754.598	0.0142902
754.676	0.0142459
754.754	0.0145570
754.832	0.0143703
754.910	0.0143832
754.988	0.0144710
755.067	0.0145018
755.145	0.0144159
755.223	0.0145158
755.301	0.0144106
755.379	0.0143551
755.457	0.0145126
755.535	0.0143982
755.613	0.0144100
755.692	0.0142931
755.770	0.0142153
755.848	0.0142229
755.926	0.0143002
756.004	0.0142014
756.082	0.0143375
756.160	0.0141590
756.238	0.0140891
756.317	0.0141875
756.395	0.0142780
756.473	0.0142588
756.551	0.0141113
756.629	0.0143262
756.707	0.0140716
756.785	0.0140805
756.863	0.0140821
756.942	0.0141393
757.020	0.0139373
757.098	0.0140320
757.176	0.0142191
757.254	0.0142500
757.332	0.0140981
757.410	0.0141643
757.488	0.0142445
757.567	0.0142448
757.645	0.0142885
757.723	0.0142416
757.801	0.0143487
757.879	0.0143180
757.957	0.0144246
758.035	0.0143320
758.113	0.0142508
758.192	0.0143284
758.270	0.0144289
758.348	0.0144511
758.426	0.0144442
758.504	0.0142447
758.582	0.0142814
758.660	0.0142952
758.738	0.0144036
758.817	0.0143867
758.895	0.0143977
758.973	0.0143529
759.051	0.0143821
759.129	0.0143427
759.207	0.0141989
759.285	0.0142891
759.363	0.0141953
759.442	0.0141442
759.520	0.0139769
759.598	0.0139095
759.676	0.0140011
759.754	0.0140942
759.832	0.0140427
759.910	0.0140370
759.988	0.0140984
760.067	0.0139449
760.145	0.0141769
760.223	0.0140451
760.301	0.0140636
760.379	0.0141313
760.457	0.0141070
760.535	0.0142533
760.613	0.0143549
760.692	0.0142156
760.770	0.0141979
760.848	0.0142328
760.926	0.0142436
761.004	0.0141174
761.082	0.0141457
761.160	0.0140614
761.238	0.0140720
761.317	0.0142363
761.395	0.0142008
761.473	0.0141491
761.551	0.0140110
761.629	0.0140389
761.707	0.0140896
761.785	0.0140923
761.863	0.0143071
761.942	0.0139822
762.020	0.0142481
762.098	0.0141610
762.176	0.0142269
762.254	0.0142272
762.332	0.0144784
762.410	0.0144072
762.488	0.0143452
762.567	0.0145380
762.645	0.0143918
762.723	0.0143305
762.801	0.0145763
762.879	0.0143982
762.957	0.0142902
763.035	0.0144355
763.113	0.0143211
763.192	0.0143288
763.270	0.0143984
763.348	0.0143956
763.426	0.0143089
763.504	0.0143507
763.582	0.0142834
763.660	0.0144126
763.738	0.0142734
763.817	0.0143694
763.895	0.0143459
763.973	0.0142023
764.051	0.0143847
764.129	0.0144079
764.207	0.0144109
764.285	0.0144046
764.363	0.0143116
764.442	0.0142747
764.520	0.0142892
764.598	0.0142904
764.676	0.0142572
764.754	0.0141545
764.832	0.0140040
764.910	0.0141007
764.988	0.0139491
765.067	0.0139254
765.145	0.0139313
765.223	0.0139101
765.301	0.0138557
765.379	0.0138136
765.457	0.0137482
765.535	0.0137744
765.613	0.0137975
765.692	0.0138174
765.770	0.0139380
765.848	0.0140487
765.926	0.0139680
766.004	0.0140217
766.082	0.0140810
766.160	0.0140751
766.238	0.0141678
766.317	0.0143237
766.395	0.0142453
766.473	0.0143227
766.551	0.0144554
766.629	0.0144154
766.707	0.0146030
766.785	0.0144485
766.863	0.0144430
766.942	0.0146509
767.020	0.0144183
767.098	0.0146112
767.176	0.0142725
767.254	0.0142966
767.332	0.0145699
767.410	0.0145100
767.488	0.0144031
767.567	0.0142500
767.645	0.0143145
767.723	0.0141447
767.801	0.0140533
767.879	0.0141087
767.957	0.0141444
768.035	0.0140780
768.113	0.0142345
768.192	0.0142713
768.270	0.0141494
768.348	0.0140989
768.426	0.0142742
768.504	0.0142751
768.582	0.0142418
768.660	0.0142626
768.738	0.0142399
768.817	0.0141850
768.895	0.0143072
768.973	0.0142669
769.051	0.0142007
769.129	0.0141296
769.207	0.0141455
769.285	0.0142885
769.363	0.0143026
769.442	0.0141973
769.520	0.0143167
769.598	0.0142909
769.676	0.0142222
769.754	0.0142439
769.832	0.0141337
769.910	0.0141911
769.988	0.0143020
770.067	0.0142292
770.145	0.0141428
770.223	0.0141775
770.301	0.0142731
770.379	0.0143273
770.457	0.0142865
770.535	0.0141689
770.613	0.0142385
770.692	0.0141753
770.770	0.0141201
770.848	0.0141520
770.926	0.0142043
771.004	0.0141594
771.082	0.0140708
771.160	0.0140367
771.238	0.0141566
771.317	0.0140118
771.395	0.0138737
771.473	0.0140871
771.551	0.0142001
771.629	0.0141802
771.707	0.0142464
771.785	0.0142641
771.863	0.0142672
771.942	0.0142023
772.020	0.0142590
772.098	0.0141570
772.176	0.0142397
772.254	0.0144004
772.332	0.0144658
772.410	0.0143208
772.488	0.0143161
772.567	0.0145405
772.645	0.0143613
772.723	0.0145567
772.801	0.0144546
772.879	0.0143388
772.957	0.0144061
773.035	0.0143980
773.113	0.0144471
773.192	0.0143740
773.270	0.0143967
773.348	0.0142521
773.426	0.0142395
773.504	0.0142740
773.582	0.0142417
773.660	0.0141340
773.738	0.0142595
773.817	0.0141427
773.895	0.0140770
773.973	0.0141486
774.051	0.0142411
774.129	0.0142183
774.207	0.0140446
774.285	0.0142197
774.363	0.0143439
774.442	0.0143462
774.520	0.0141517
774.598	0.0144221
774.676	0.0143633
774.754	0.0142999
774.832	0.0143438
774.910	0.0143449
774.988	0.0143421
775.067	0.0143653
775.145	0.0144976
775.223	0.0144100
775.301	0.0144220
775.379	0.0142963
775.457	0.0143307
775.535	0.0141673
775.613	0.0142220
775.692	0.0142460
775.770	0.0140554
775.848	0.0140084
775.926	0.0140260
776.004	0.0139246
776.082	0.0139150
776.160	0.0140269
776.238	0.0139657
776.317	0.0139263
776.395	0.0140157
776.473	0.0140343
776.551	0.0140237
776.629	0.0139117
776.707	0.0140773
776.785	0.0141692
776.863	0.0141102
776.942	0.0142069
777.020	0.0143027
777.098	0.0142472
777.176	0.0144296
777.254	0.0143230
777.332	0.0142742
777.410	0.0145004
777.488	0.0143363
777.567	0.0144167
777.645	0.0143976
777.723	0.0143488
777.801	0.0145011
777.879	0.0143987
777.957	0.0146329
778.035	0.0144890
778.113	0.0144028
778.192	0.0144810
778.270	0.0146095
778.348	0.0144397
778.426	0.0144569
778.504	0.0145060
778.582	0.0145732
778.660	0.0145229
778.738	0.0144553
778.817	0.0144727
778.895	0.0143479
778.973	0.0143231
779.051	0.0143283
779.129	0.0141943
779.207	0.0142139
779.285	0.0141629
779.363	0.0142431
779.442	0.0141214
779.520	0.0139685
779.598	0.0141901
779.676	0.0141039
779.754	0.0141022
779.832	0.0141389
779.910	0.0139214
779.988	0.0140160
780.067	0.0140336
780.145	0.0141557
780.223	0.0141212
780.301	0.0141527
780.379	0.0142312
780.457	0.0140938
780.535	0.0141427
780.613	0.0141994
780.692	0.0142021
780.770	0.0141268
780.848	0.0140307
780.926	0.0140459
781.004	0.0140823
781.082	0.0140561
781.160	0.0141833
781.238	0.0140972
781.317	0.0139545
781.395	0.0140802
781.473	0.0141821
781.551	0.0140440
781.629	0.0138725
781.707	0.0141871
781.785	0.0141499
781.863	0.0141252
781.942	0.0141682
782.020	0.0142847
782.098	0.0141947
782.176	0.0142929
782.254	0.0142708
782.332	0.0142365
782.410	0.0143160
782.488	0.0143267
782.567	0.0143314
782.645	0.0144288
782.723	0.0142744
782.801	0.0143323
782.879	0.0143930
782.957	0.0144649
783.035	0.0143723
783.113	0.0144846
783.192	0.0146080
783.270	0.0145660
783.348	0.0144316
783.426	0.0145480
783.504	0.0146071
783.582	0.0144733
783.660	0.0146007
783.738	0.0145618
783.817	0.0144598
783.895	0.0145169
783.973	0.0143911
784.051	0.0141879
784.129	0.0143979
784.207	0.0142558
784.285	0.0143267
784.363	0.0142856
784.442	0.0140284
784.520	0.0140967
784.598	0.0140630
784.676	0.0141508
784.754	0.0139932
784.832	0.0139247
784.910	0.0139411
784.988	0.0137816
785.067	0.0142393
785.145	0.0141152
785.223	0.0139552
785.301	0.0141808
785.379	0.0141463
785.457	0.0141438
785.535	0.0141481
785.613	0.0141813
785.692	0.0139923
785.770	0.0141141
785.848	0.0142453
785.926	0.0141717
786.004	0.0141364
786.082	0.0141368
786.160	0.0141130
786.238	0.0139855
786.317	0.0140959
786.395	0.0140506
786.473	0.0141649
786.551	0.0142376
786.629	0.0141557
786.707	0.0140878
786.785	0.0140894
786.863	0.0142381
786.942	0.0141137
787.020	0.0141632
787.098	0.0142682
787.176	0.0143250
787.254	0.0143956
787.332	0.0142494
787.410	0.0142322
787.488	0.0143627
787.567	0.0143677
787.645	0.0143433
787.723	0.0142466
787.801	0.0143118
787.879	0.0143063
787.957	0.0143252
788.035	0.0142235
788.113	0.0141340
788.192	0.0143245
788.270	0.0143191
788.348	0.0141814
788.426	0.0142275
788.504	0.0142429
788.582	0.0143092
788.660	0.0142156
788.738	0.0143653
788.817	0.0144747
788.895	0.0143546
788.973	0.0144811
789.051	0.0145827
789.129	0.0144877
789.207	0.0143912
789.285	0.0143736
789.363	0.0143413
789.442	0.0144999
789.520	0.0143038
789.598	0.0143439
789.676	0.0141569
789.754	0.0142889
789.832	0.0142888
789.910	0.0141013
789.988	0.0140760
790.067	0.0140943
790.145	0.0139772
790.223	0.0140019
790.301	0.0140410
790.379	0.0140016
790.457	0.0138976
790.535	0.0138731
790.613	0.0139301
790.692	0.0139127
790.770	0.0138721
790.848	0.0139016
790.926	0.0139872
791.004	0.0140836
791.082	0.0140867
791.160	0.0139063
791.238	0.0140588
791.317	0.0141631
791.395	0.0142186
791.473	0.0141555
791.551	0.0142393
791.629	0.0143006
791.707	0.0143166
791.785	0.0143288
791.863	0.0142835
791.942	0.0142915
792.020	0.0142281
792.098	0.0142854
792.176	0.0142713
792.254	0.0142930
792.332	0.0143665
792.410	0.0142037
792.488	0.0142686
792.567	0.0141811
792.645	0.0142563
792.723	0.0143211
792.801	0.0142910
792.879	0.0142905
792.957	0.0142812
793.035	0.0142268
793.113	0.0143954
793.192	0.0143401
793.270	0.0140533
793.348	0.0142432
793.426	0.0142256
793.504	0.0141794
793.582	0.0140456
793.660	0.0141568
793.738	0.0142300
793.817	0.0141570
793.895	0.0141093
793.973	0.0141887
794.051	0.0140618
794.129	0.0142374
794.207	0.0142374
794.285	0.0142530
794.363	0.0142717
794.442	0.0142315
794.520	0.0141979
794.598	0.0142723
794.676	0.0143208
794.754	0.0143226
794.832	0.0143608
794.910	0.0142375
794.988	0.0143351
795.067	0.0142856
795.145	0.0142879
795.223	0.0143085
795.301	0.0141270
795.379	0.0141235
795.457	0.0142378
795.535	0.0141653
795.613	0.0142833
795.692	0.0142549
795.770	0.0142451
795.848	0.0141914
795.926	0.0142275
796.004	0.0141911
796.082	0.0141021
796.160	0.0141959
796.238	0.0141575
796.317	0.0140762
796.395	0.0140797
796.473	0.0142585
796.551	0.0142439
796.629	0.0141785
796.707	0.0142495
796.785	0.0142073
796.863	0.0141953
796.942	0.0143316
797.020	0.0143519
797.098	0.0143037
797.176	0.0142458
797.254	0.0141446
797.332	0.0141135
797.410	0.0141113
797.488	0.0142163
797.567	0.0142164
797.645	0.0142130
797.723	0.0142171
797.801	0.0142503
797.879	0.0142493
797.957	0.0140854
798.035	0.0141901
798.113	0.0142383
798.192	0.0140962
798.270	0.0141072
798.348	0.0141917
798.426	0.0141331
798.504	0.0141879
798.582	0.0141342
798.660	0.0140789
798.738	0.0141109
798.817	0.0142825
798.895	0.0140835
798.973	0.0141149
799.051	0.0143058
799.129	0.0141496
799.207	0.0141073
799.285	0.0142485
799.363	0.0142284
799.442	0.0143341
799.520	0.0143464
799.598	0.0142290
799.676	0.0142591
799.754	0.0143008
799.832	0.0142666
799.910	0.0142157
799.988	0.0143858
800.067	0.0144526
800.145	0.0143322
800.223	0.0144798
800.301	0.0144275
800.379	0.0145554
800.457	0.0145217
800.535	0.0144772
800.613	0.0143959
800.692	0.0143466
800.770	0.0142394
800.848	0.0144695
800.926	0.0143299
801.004	0.0143497
801.082	0.0142587
801.160	0.0142539
801.238	0.0142628
801.317	0.0141990
801.395	0.0140501
801.473	0.0141403
801.551	0.0141479
801.629	0.0141044
801.707	0.0140828
801.785	0.0141507
801.863	0.0140512
801.942	0.0141699
802.020	0.0141135
802.098	0.0140725
802.176	0.0141193
802.254	0.0142567
802.332	0.0141793
802.410	0.0141940
802.488	0.0142711
802.567	0.0142442
802.645	0.0142923
802.723	0.0143804
802.801	0.0143307
802.879	0.0144932
802.957	0.0142776
803.035	0.0142887
803.113	0.0144001
803.192	0.0143933
803.270	0.0143657
803.348	0.0144092
803.426	0.0143039
803.504	0.0141936
803.582	0.0141579
803.660	0.0142044
803.738	0.0142680
803.817	0.0141386
803.895	0.0142889
803.973	0.0141682
804.051	0.0143015
804.129	0.0141888
804.207	0.0140916
804.285	0.0141786
804.363	0.0140466
804.442	0.0141241
804.520	0.0141555
804.598	0.0142255
804.676	0.0140699
804.754	0.0140421
804.832	0.0140808
804.910	0.0141096
804.988	0.0141824
805.067	0.0141928
805.145	0.0142123
805.223	0.0142704
805.301	0.0142047
805.379	0.0143160
805.457	0.0142107
805.535	0.0142957
805.613	0.0142867
805.692	0.0143123
805.770	0.0142305
805.848	0.0142361
805.926	0.0143019
806.004	0.0142681
806.082	0.0143264
806.160	0.0141975
806.238	0.0142229
806.317	0.0142753
806.395	0.0143429
806.473	0.0143501
806.551	0.0142611
806.629	0.0142743
806.707	0.0140536
806.785	0.0141749
806.863	0.0140984
806.942	0.0142432
807.020	0.0141605
807.098	0.0141206
807.176	0.0141058
807.254	0.0140969
807.332	0.0140827
807.410	0.0141331
807.488	0.0142757
807.567	0.0142168
807.645	0.0141992
807.723	0.0142536
807.801	0.0142875
807.879	0.0142933
807.957	0.0142498
808.035	0.0143261
808.113	0.0143268
808.192	0.0143309
808.270	0.0143095
808.348	0.0143579
808.426	0.0143308
808.504	0.0144688
808.582	0.0143709
808.660	0.0144263
808.738	0.0144749
808.817	0.0144230
808.895	0.0143774
808.973	0.0143890
809.051	0.0143246
809.129	0.0143241
809.207	0.0142541
809.285	0.0141183
809.363	0.0142895
809.442	0.0142928
809.520	0.0141978
809.598	0.0142124
809.676	0.0141113
809.754	0.0142558
809.832	0.0142007
809.910	0.0142011
809.988	0.0141515
810.067	0.0142833
810.145	0.0141540
810.223	0.0140662
810.301	0.0141652
810.379	0.0141525
810.457	0.0141956
810.535	0.0141773
810.613	0.0141962
810.692	0.0141397
810.770	0.0140762
810.848	0.0141755
810.926	0.0141019
811.004	0.0140902
811.082	0.0138954
811.160	0.0140682
811.238	0.0140367
811.317	0.0141805
811.395	0.0141060
811.473	0.0141028
811.551	0.0141316
811.629	0.0142104
811.707	0.0142780
811.785	0.0141269
811.863	0.0142284
811.942	0.0142490
812.020	0.0141711
812.098	0.0141948
812.176	0.0143214
812.254	0.0141991
812.332	0.0141909
812.410	0.0143356
812.488	0.0142255
812.567	0.0142014
812.645	0.0142406
812.723	0.0142663
812.801	0.0142535
812.879	0.0142271
812.957	0.0143130
813.035	0.0140846
813.113	0.0142014
813.192	0.0141396
813.270	0.0142963
813.348	0.0141222
813.426	0.0141207
813.504	0.0141620
813.582	0.0142503
813.660	0.0142274
813.738	0.0142482
813.817	0.0143256
813.895	0.0144215
813.973	0.0143478
814.051	0.0143561
814.129	0.0143480
814.207	0.0144636
814.285	0.0143857
814.363	0.0143398
814.442	0.0145680
814.520	0.0145532
814.598	0.0145309
814.676	0.0144238
814.754	0.0143494
814.832	0.0145324
814.910	0.0143645
814.988	0.0142412
815.067	0.0142406
815.145	0.0141858
815.223	0.0142216
815.301	0.0140836
815.379	0.0141002
815.457	0.0139980
815.535	0.0139690
815.613	0.0139174
815.692	0.0140594
815.770	0.0140070
815.848	0.0139352
815.926	0.0140452
816.004	0.0138147
816.082	0.0140881
816.160	0.0138521
816.238	0.0140015
816.317	0.0140654
816.395	0.0139745
816.473	0.0140723
816.551	0.0140644
816.629	0.0141034
816.707	0.0141904
816.785	0.0142904
816.863	0.0143229
816.942	0.0141330
817.020	0.0142740
817.098	0.0143436
817.176	0.0141743
817.254	0.0141012
817.332	0.0143375
817.410	0.0143704
817.488	0.0142056
817.567	0.0143147
817.645	0.0141354
817.723	0.0142396
817.801	0.0142181
817.879	0.0143423
817.957	0.0142660
818.035	0.0142477
818.113	0.0142506
818.192	0.0141394
818.270	0.0142683
818.348	0.0143044
818.426	0.0142107
818.504	0.0142403
818.582	0.0141130
818.660	0.0141540
818.738	0.0141947
818.817	0.0142239
818.895	0.0142044
818.973	0.0142456
819.051	0.0141675
819.129	0.0142277
819.207	0.0142767
819.285	0.0142865
819.363	0.0143324
819.442	0.0142213
819.520	0.0141399
819.598	0.0144476
819.676	0.0143029
819.754	0.0143191
819.832	0.0144434
819.910	0.0143893
819.988	0.0144246
820.067	0.0145621
820.145	0.0143624
820.223	0.0142554
820.301	0.0143800
820.379	0.0144380
820.457	0.0143819
820.535	0.0141981
820.613	0.0142122
820.692	0.0142403
820.770	0.0140133
820.848	0.0141299
820.926	0.0140984
821.004	0.0140623
821.082	0.0141087
821.160	0.0139696
821.238	0.0140034
821.317	0.0140182
821.395	0.0139037
821.473	0.0140195
821.551	0.0141612
821.629	0.0140141
821.707	0.0140411
821.785	0.0139973
821.863	0.0140956
821.942	0.0141151
822.020	0.0141516
822.098	0.0140642
822.176	0.0141248
822.254	0.0140242
822.332	0.0141464
822.410	0.0142326
822.488	0.0143166
822.567	0.0142749
822.645	0.0142637
822.723	0.0141380
822.801	0.0142944
822.879	0.0142956
822.957	0.0142107
823.035	0.0142815
823.113	0.0142891
823.192	0.0143104
823.270	0.0143524
823.348	0.0143090
823.426	0.0141663
823.504	0.0142068
823.582	0.0142097
823.660	0.0142487
823.738	0.0141395
823.817	0.0140562
823.895	0.0141958
823.973	0.0141294
824.051	0.0142342
824.129	0.0141894
824.207	0.0143096
824.285	0.0142261
824.363	0.0142691
824.442	0.0141312
824.520	0.0141463
824.598	0.0139944
824.676	0.0142670
824.754	0.0141653
824.832	0.0140669
824.910	0.0141940
824.988	0.0142586
825.067	0.0142518
825.145	0.0141225
825.223	0.0142355
825.301	0.0142897
825.379	0.0142628
825.457	0.0142735
825.535	0.0141083
825.613	0.0142287
825.692	0.0142999
825.770	0.0141796
825.848	0.0142687
825.926	0.0140278
826.004	0.0142856
826.082	0.0142716
826.160	0.0141708
826.238	0.0142505
826.317	0.0141815
826.395	0.0141368
826.473	0.0142729
826.551	0.0142270
826.629	0.0142049
826.707	0.0142927
826.785	0.0142462
826.863	0.0142927
826.942	0.0142699
827.020	0.0142568
827.098	0.0142129
827.176	0.0140259
827.254	0.0141286
827.332	0.0142358
827.410	0.0141052
827.488	0.0140880
827.567	0.0141673
827.645	0.0140945
827.723	0.0142071
827.801	0.0142386
827.879	0.0141631
827.957	0.0141156
828.035	0.0142240
828.113	0.0141854
828.192	0.0142667
828.270	0.0142343
828.348	0.0144011
828.426	0.0143701
828.504	0.0142262
828.582	0.0143283
828.660	0.0142489
828.738	0.0143984
828.817	0.0142583
828.895	0.0141978
828.973	0.0143127
829.051	0.0142507
829.129	0.0143150
829.207	0.0141495
829.285	0.0141752
829.363	0.0143123
829.442	0.0141917
829.520	0.0141742
829.598	0.0140880
829.676	0.0140785
829.754	0.0142381
829.832	0.0141590
829.910	0.0140852
829.988	0.0140827
830.067	0.0141399
830.145	0.0141798
830.223	0.0141602
830.301	0.0141880
830.379	0.0142973
830.457	0.0142337
830.535	0.0142948
830.613	0.0144002
830.692	0.0143114
830.770	0.0142747
830.848	0.0142831
830.926	0.0142270
831.004	0.0143506
831.082	0.0142641
831.160	0.0143106
831.238	0.0142802
831.317	0.0144006
831.395	0.0143335
831.473	0.0141930
831.551	0.0142011
831.629	0.0142231
831.707	0.0141383
831.785	0.0141080
831.863	0.0142150
831.942	0.0140667
832.020	0.0141519
832.098	0.0142081
832.176	0.0141645
832.254	0.0141484
832.332	0.0141994
832.410	0.0140189
832.488	0.0140607
832.567	0.0142405
832.645	0.0143214
832.723	0.0140711
832.801	0.0139986
832.879	0.0142214
832.957	0.0142131
833.035	0.0141257
833.113	0.0142943
833.192	0.0140771
833.270	0.0142078
833.348	0.0141258
833.426	0.0141484
833.504	0.0141872
833.582	0.0142064
833.660	0.0141917
833.738	0.0142222
833.817	0.0141570
833.895	0.0141116
833.973	0.0142543
834.051	0.0141512
834.129	0.0142453
834.207	0.0141431
834.285	0.0141628
834.363	0.0141701
834.442	0.0141232
834.520	0.0142439
834.598	0.0143567
834.676	0.0141313
834.754	0.0142290
834.832	0.0142307
834.910	0.0142638
834.988	0.0143572
835.067	0.0143671
835.145	0.0141796
835.223	0.0142390
835.301	0.0143357
835.379	0.0143440
835.457	0.0142475
835.535	0.0142483
835.613	0.0143235
835.692	0.0142872
835.770	0.0143269
835.848	0.0142677
835.926	0.0143796
836.004	0.0142884
836.082	0.0143205
836.160	0.0141582
836.238	0.0143064
836.317	0.0142919
836.395	0.0143330
836.473	0.0142973
836.551	0.0143812
836.629	0.0141164
836.707	0.0143036
836.785	0.0142699
836.863	0.0142772
836.942	0.0142360
837.020	0.0142405
837.098	0.0143310
837.176	0.0141793
837.254	0.0142243
837.332	0.0143418
837.410	0.0143185
837.488	0.0142445
837.567	0.0142175
837.645	0.0141640
837.723	0.0142098
837.801	0.0142485
837.879	0.0141705
837.957	0.0140843
838.035	0.0141572
838.113	0.0139912
838.192	0.0141472
838.270	0.0141627
838.348	0.0141110
838.426	0.0140608
838.504	0.0142001
838.582	0.0143604
838.660	0.0142480
838.738	0.0140524
838.817	0.0140392
838.895	0.0141984
838.973	0.0141457
839.051	0.0141415
839.129	0.0141223
839.207	0.0141626
839.285	0.0143543
839.363	0.0141231
839.442	0.0141901
839.520	0.0141840
839.598	0.0141238
839.676	0.0141315
839.754	0.0141298
839.832	0.0141784
839.910	0.0142971
839.988	0.0141674
840.067	0.0142065
840.145	0.0143477
840.223	0.0142439
840.301	0.0142416
840.379	0.0142832
840.457	0.0142844
840.535	0.0142484
840.613	0.0143398
840.692	0.0141946
840.770	0.0142162
840.848	0.0142336
840.926	0.0141815
841.004	0.0141443
841.082	0.0141364
841.160	0.0142660
841.238	0.0140784
841.317	0.0142406
841.395	0.0142100
841.473	0.0143487
841.551	0.0143948
841.629	0.0142175
841.707	0.0141627
841.785	0.0141191
841.863	0.0142245
841.942	0.0143655
842.020	0.0142659
842.098	0.0143342
842.176	0.0143391
842.254	0.0142075
842.332	0.0141796
842.410	0.0141069
842.488	0.0141492
842.567	0.0141718
842.645	0.0141867
842.723	0.0141955
842.801	0.0141649
842.879	0.0142554
842.957	0.0142596
843.035	0.0140884
843.113	0.0141980
843.192	0.0142551
843.270	0.0141260
843.348	0.0139420
843.426	0.0141440
843.504	0.0140797
843.582	0.0139783
843.660	0.0142528
843.738	0.0142183
843.817	0.0142502
843.895	0.0140070
843.973	0.0142043
844.051	0.0142587
844.129	0.0141925
844.207	0.0141589
844.285	0.0140542
844.363	0.0141553
844.442	0.0142559
844.520	0.0142865
844.598	0.0143153
844.676	0.0142935
844.754	0.0142424
844.832	0.0141717
844.910	0.0143013
844.988	0.0142026
845.067	0.0141780
845.145	0.0142407
845.223	0.0141454
845.301	0.0142309
845.379	0.0142889
845.457	0.0141584
845.535	0.0142603
845.613	0.0142114
845.692	0.0142551
845.770	0.0142648
845.848	0.0141253
845.926	0.0140619
846.004	0.0141665
846.082	0.0141786
846.160	0.0141220
846.238	0.0140924
846.317	0.0142307
846.395	0.0140865
846.473	0.0140902
846.551	0.0141196
846.629	0.0141446
846.707	0.0141370
846.785	0.0141757
846.863	0.0142867
846.942	0.0141108
847.020	0.0141937
847.098	0.0142486
847.176	0.0141667
847.254	0.0141995
847.332	0.0141281
847.410	0.0142168
847.488	0.0141649
847.567	0.0140995
847.645	0.0141425
847.723	0.0142184
847.801	0.0143147
847.879	0.0141416
847.957	0.0141486
848.035	0.0142333
848.113	0.0141687
848.192	0.0142617
848.270	0.0141684
848.348	0.0143181
848.426	0.0142631
848.504	0.0141720
848.582	0.0141882
848.660	0.0141949
848.738	0.0141739
848.817	0.0142108
848.895	0.0142532
848.973	0.0143150
849.051	0.0141736
849.129	0.0142334
849.207	0.0143218
849.285	0.0142531
849.363	0.0140327
849.442	0.0142027
849.520	0.0142442
849.598	0.0141889
849.676	0.0141628
849.754	0.0141995
849.832	0.0141808
849.910	0.0141355
849.988	0.0141032
850.067	0.0140545
850.145	0.0140883
850.223	0.0141240
850.301	0.0142255
850.379	0.0140438
850.457	0.0141551
850.535	0.0140760
850.613	0.0140733
850.692	0.0141028
850.770	0.0141440
850.848	0.0142420
850.926	0.0141050
851.004	0.0141829
851.082	0.0141019
851.160	0.0142622
851.238	0.0142314
851.317	0.0142210
851.395	0.0142297
851.473	0.0143532
851.551	0.0141718
851.629	0.0142010
851.707	0.0143445
851.785	0.0143441
851.863	0.0143657
851.942	0.0143026
852.020	0.0142771
852.098	0.0142154
852.176	0.0141701
852.254	0.0143300
852.332	0.0143324
852.410	0.0142410
852.488	0.0143001
852.567	0.0142554
852.645	0.0142885
852.723	0.0143487
852.801	0.0143145
852.879	0.0143357
852.957	0.0141655
853.035	0.0143376
853.113	0.0142995
853.192	0.0141211
853.270	0.0141144
853.348	0.0140820
853.426	0.0142069
853.504	0.0141672
853.582	0.0140907
853.660	0.0142348
853.738	0.0142841
853.817	0.0143011
853.895	0.0143340
853.973	0.0140800
854.051	0.0142963
854.129	0.0142918
854.207	0.0142259
854.285	0.0141859
854.363	0.0144064
854.442	0.0140215
854.520	0.0142937
854.598	0.0142598
854.676	0.0142536
854.754	0.0142995
854.832	0.0142851
854.910	0.0143736
854.988	0.0142226
855.067	0.0144904
855.145	0.0143350
855.223	0.0143085
855.301	0.0141952
855.379	0.0141374
855.457	0.0141249
855.535	0.0139717
855.613	0.0140768
855.692	0.0141626
855.770	0.0139918
855.848	0.0142123
855.926	0.0141814
856.004	0.0143005
856.082	0.0141234
856.160	0.0140107
856.238	0.0141936
856.317	0.0139874
856.395	0.0141264
856.473	0.0141055
856.551	0.0141753
856.629	0.0141206
856.707	0.0142300
856.785	0.0142182
856.863	0.0140910
856.942	0.0141343
857.020	0.0142967
857.098	0.0144234
857.176	0.0142083
857.254	0.0143081
857.332	0.0143275
857.410	0.0143374
857.488	0.0141875
857.567	0.0140849
857.645	0.0140810
857.723	0.0142677
857.801	0.0144023
857.879	0.0142175
857.957	0.0141872
858.035	0.0141540
858.113	0.0142867
858.192	0.0141530
858.270	0.0142036
858.348	0.0142156
858.426	0.0141508
858.504	0.0142350
858.582	0.0143475
858.660	0.0142294
858.738	0.0142274
858.817	0.0142231
858.895	0.0144023
858.973	0.0144547
859.051	0.0143321
859.129	0.0142936
859.207	0.0144424
859.285	0.0142220
859.363	0.0143318
859.442	0.0144288
859.520	0.0143497
859.598	0.0143243
859.676	0.0143343
859.754	0.0142179
859.832	0.0142259
859.910	0.0142801
859.988	0.0140968
860.067	0.0141656
860.145	0.0141030
860.223	0.0141541
860.301	0.0141809
860.379	0.0140919
860.457	0.0139335
860.535	0.0140027
860.613	0.0141702
860.692	0.0141251
860.770	0.0140244
860.848	0.0139165
860.926	0.0141221
861.004	0.0140283
861.082	0.0141487
861.160	0.0142182
861.238	0.0143732
861.317	0.0141542
861.395	0.0140575
861.473	0.0141450
861.551	0.0141151
861.629	0.0141521
861.707	0.0143536
861.785	0.0143378
861.863	0.0141212
861.942	0.0141916
862.020	0.0141608
862.098	0.0141611
862.176	0.0141169
862.254	0.0142043
862.332	0.0141895
862.410	0.0141193
862.488	0.0142896
862.567	0.0139981
862.645	0.0141044
862.723	0.0142549
862.801	0.0142838
862.879	0.0142306
862.957	0.0144117
863.035	0.0144844
863.113	0.0141882
863.192	0.0143102
863.270	0.0144370
863.348	0.0143665
863.426	0.0144251
863.504	0.0144817
863.582	0.0143458
863.660	0.0144177
863.738	0.0142816
863.817	0.0143941
863.895	0.0143060
863.973	0.0142016
864.051	0.0142843
864.129	0.0143449
864.207	0.0142506
864.285	0.0142765
864.363	0.0140984
864.442	0.0143145
864.520	0.0142094
864.598	0.0140104
864.676	0.0141551
864.754	0.0139864
864.832	0.0141547
864.910	0.0140833
864.988	0.0141449
865.067	0.0142045
865.145	0.0140968
865.223	0.0140408
865.301	0.0140899
865.379	0.0141919
865.457	0.0142624
865.535	0.0141167
865.613	0.0141453
865.692	0.0143018
865.770	0.0141619
865.848	0.0141507
865.926	0.0141070
866.004	0.0141862
866.082	0.0142850
866.160	0.0141061
866.238	0.0141010
866.317	0.0141631
866.395	0.0142148
866.473	0.0141173
866.551	0.0140406
866.629	0.0140588
866.707	0.0139897
866.785	0.0140849
866.863	0.0140986
866.942	0.0141306
867.020	0.0140639
867.098	0.0141414
867.176	0.0141207
867.254	0.0141705
867.332	0.0143291
867.410	0.0143223
867.488	0.0142764
867.567	0.0142854
867.645	0.0142980
867.723	0.0142993
867.801	0.0142849
867.879	0.0142172
867.957	0.0143269
868.035	0.0143826
868.113	0.0142864
868.192	0.0143082
868.270	0.0143468
868.348	0.0142831
868.426	0.0142578
868.504	0.0142072
868.582	0.0142693
868.660	0.0143748
868.738	0.0142883
868.817	0.0141864
868.895	0.0142347
868.973	0.0142454
869.051	0.0141780
869.129	0.0141310
869.207	0.0142580
869.285	0.0141372
869.363	0.0141840
869.442	0.0142016
869.520	0.0141361
869.598	0.0141238
869.676	0.0142945
869.754	0.0142115
869.832	0.0141689
869.910	0.0140593
869.988	0.0141222
870.067	0.0141496
870.145	0.0143021
870.223	0.0141087
870.301	0.0142310
870.379	0.0142562
870.457	0.0141770
870.535	0.0141309
870.613	0.0141777
870.692	0.0141911
870.770	0.0141854
870.848	0.0141905
870.926	0.0140742
871.004	0.0140916
871.082	0.0139986
871.160	0.0139486
871.238	0.0140116
871.317	0.0139640
871.395	0.0139249
871.473	0.0139719
871.551	0.0140214
871.629	0.0140982
871.707	0.0140990
871.785	0.0140629
871.863	0.0140295
871.942	0.0140811
872.020	0.0142782
872.098	0.0141778
872.176	0.0142377
872.254	0.0142750
872.332	0.0144460
872.410	0.0143444
872.488	0.0143333
872.567	0.0144100
872.645	0.0144759
872.723	0.0142175
872.801	0.0143272
872.879	0.0144982
872.957	0.0144442
873.035	0.0143887
873.113	0.0143940
873.192	0.0143203
873.270	0.0142485
873.348	0.0143475
873.426	0.0142976
873.504	0.0144418
873.582	0.0143661
873.660	0.0142609
873.738	0.0143019
873.817	0.0142778
873.895	0.0143404
873.973	0.0141478
874.051	0.0141201
874.129	0.0142693
874.207	0.0141821
874.285	0.0142445
874.363	0.0141045
874.442	0.0142026
874.520	0.0141016
874.598	0.0141348
874.676	0.0141607
874.754	0.0140858
874.832	0.0140383
874.910	0.0140662
874.988	0.0142049
875.067	0.0141146
875.145	0.0141817
875.223	0.0140776
875.301	0.0140495
875.379	0.0141534
875.457	0.0140575
875.535	0.0142783
875.613	0.0141697
875.692	0.0141471
875.770	0.0141508
875.848	0.0139435
875.926	0.0140955
876.004	0.0141554
876.082	0.0140715
876.160	0.0141944
876.238	0.0143123
876.317	0.0141653
876.395	0.0142339
876.473	0.0142963
876.551	0.0141949
876.629	0.0143797
876.707	0.0143601
876.785	0.0140941
876.863	0.0143127
876.942	0.0143218
877.020	0.0142712
877.098	0.0141767
877.176	0.0142505
877.254	0.0142338
877.332	0.0142360
877.410	0.0143489
877.488	0.0143042
877.567	0.0143452
877.645	0.0141766
877.723	0.0144499
877.801	0.0144147
877.879	0.0143356
877.957	0.0143186
878.035	0.0143806
878.113	0.0144336
878.192	0.0143129
878.270	0.0143073
878.348	0.0141248
878.426	0.0141824
878.504	0.0142572
878.582	0.0141129
878.660	0.0142408
878.738	0.0142019
878.817	0.0141031
878.895	0.0140813
878.973	0.0139648
879.051	0.0140836
879.129	0.0140890
879.207	0.0139529
879.285	0.0140411
879.363	0.0141000
879.442	0.0141656
879.520	0.0141496
879.598	0.0141740
879.676	0.0140887
879.754	0.0142162
879.832	0.0141747
879.910	0.0143093
879.988	0.0142970
880.067	0.0142101
880.145	0.0143272
880.223	0.0143818
880.301	0.0143201
880.379	0.0142270
880.457	0.0142257
880.535	0.0143819
880.613	0.0143000
880.692	0.0143700
880.770	0.0142513
880.848	0.0141913
880.926	0.0141399
881.004	0.0142896
881.082	0.0141117
881.160	0.0141885
881.238	0.0141243
881.317	0.0141692
881.395	0.0141083
881.473	0.0141615
881.551	0.0141303
881.629	0.0140788
881.707	0.0140492
881.785	0.0141357
881.863	0.0141827
881.942	0.0141228
882.020	0.0140891
882.098	0.0142206
882.176	0.0142370
882.254	0.0141656
882.332	0.0141790
882.410	0.0142590
882.488	0.0142966
882.567	0.0142554
882.645	0.0141813
882.723	0.0141436
882.801	0.0140824
882.879	0.0142776
882.957	0.0143558
883.035	0.0142021
883.113	0.0141729
883.192	0.0142027
883.270	0.0141873
883.348	0.0140984
883.426	0.0141305
883.504	0.0141508
883.582	0.0141154
883.660	0.0141438
883.738	0.0141028
883.817	0.0140729
883.895	0.0140916
883.973	0.0141446
884.051	0.0141425
884.129	0.0142270
884.207	0.0142232
884.285	0.0141781
884.363	0.0141759
884.442	0.0141592
884.520	0.0142570
884.598	0.0142863
884.676	0.0144059
884.754	0.0142673
884.832	0.0143980
884.910	0.0143332
884.988	0.0142886
885.067	0.0142336
885.145	0.0144186
885.223	0.0142699
885.301	0.0143077
885.379	0.0142484
885.457	0.0141943
885.535	0.0141940
885.613	0.0141572
885.692	0.0142075
885.770	0.0140142
885.848	0.0140456
885.926	0.0141354
886.004	0.0141956
886.082	0.0141055
886.160	0.0141753
886.238	0.0141732
886.317	0.0139693
886.395	0.0140289
886.473	0.0141494
886.551	0.0142638
886.629	0.0142032
886.707	0.0143046
886.785	0.0142448
886.863	0.0141904
886.942	0.0141990
887.020	0.0140734
887.098	0.0141759
887.176	0.0142030
887.254	0.0142200
887.332	0.0142555
887.410	0.0141833
887.488	0.0141011
887.567	0.0142773
887.645	0.0141240
887.723	0.0141647
887.801	0.0140955
887.879	0.0141362
887.957	0.0141151
888.035	0.0141557
888.113	0.0141399
888.192	0.0140728
888.270	0.0140820
888.348	0.0141882
888.426	0.0139844
888.504	0.0141016
888.582	0.0141669
888.660	0.0141234
888.738	0.0141711
888.817	0.0142177
888.895	0.0142564
888.973	0.0140319
889.051	0.0141741
889.129	0.0143176
889.207	0.0142706
889.285	0.0141418
889.363	0.0142397
889.442	0.0143612
889.520	0.0143501
889.598	0.0142568
889.676	0.0143140
889.754	0.0143147
889.832	0.0142478
889.910	0.0143412
889.988	0.0143559
890.067	0.0143145
890.145	0.0142307
890.223	0.0142276
890.301	0.0142293
890.379	0.0142822
890.457	0.0143086
890.535	0.0141595
890.613	0.0142520
890.692	0.0143074
890.770	0.0140508
890.848	0.0141306
890.926	0.0143398
891.004	0.0142857
891.082	0.0140707
891.160	0.0140420
891.238	0.0141892
891.317	0.0141623
891.395	0.0141350
891.473	0.0141686
891.551	0.0142599
891.629	0.0142367
891.707	0.0141280
891.785	0.0140677
891.863	0.0140507
891.942	0.0141879
892.020	0.0139790
892.098	0.0142183
892.176	0.0142109
892.254	0.0141558
892.332	0.0141573
892.410	0.0141700
892.488	0.0141223
892.567	0.0141044
892.645	0.0142238
892.723	0.0141211
892.801	0.0142643
892.879	0.0141660
892.957	0.0142205
893.035	0.0140800
893.113	0.0141633
893.192	0.0141213
893.270	0.0141827
893.348	0.0141582
893.426	0.0140818
893.504	0.0142763
893.582	0.0142117
893.660	0.0141064
893.738	0.0141306
893.817	0.0141917
893.895	0.0142496
893.973	0.0141971
894.051	0.0139690
894.129	0.0141786
894.207	0.0142386
894.285	0.0141410
894.363	0.0143244
894.442	0.0142716
894.520	0.0141940
894.598	0.0142597
894.676	0.0142782
894.754	0.0141991
894.832	0.0143323
894.910	0.0143350
894.988	0.0142115
895.067	0.0141515
895.145	0.0142142
895.223	0.0142715
895.301	0.0142869
895.379	0.0141376
895.457	0.0141372
895.535	0.0141666
895.613	0.0142319
895.692	0.0143169
895.770	0.0143593
895.848	0.0143662
895.926	0.0144604
896.004	0.0143453
896.082	0.0144305
896.160	0.0143536
896.238	0.0142969
896.317	0.0144329
896.395	0.0143555
896.473	0.0144118
896.551	0.0142310
896.629	0.0143262
896.707	0.0143481
896.785	0.0142065
896.863	0.0143232
896.942	0.0143713
897.020	0.0143727
897.098	0.0141743
897.176	0.0141220
897.254	0.0142125
897.332	0.0142195
897.410	0.0141019
897.488	0.0139649
897.567	0.0141892
897.645	0.0140980
897.723	0.0139854
897.801	0.0140594
897.879	0.0141121
897.957	0.0141316
898.035	0.0141290
898.113	0.0139969
898.192	0.0140194
898.270	0.0140965
898.348	0.0141319
898.426	0.0141409
898.504	0.0140347
898.582	0.0141161
898.660	0.0142084
898.738	0.0142348
898.817	0.0142229
898.895	0.0140791
898.973	0.0143040
899.051	0.0141864
899.129	0.0142033
899.207	0.0142596
899.285	0.0143811
899.363	0.0142486
899.442	0.0142236
899.520	0.0141711
899.598	0.0141578
899.676	0.0141683
899.754	0.0141531
899.832	0.0141636
899.910	0.0142992
899.988	0.0142651
900.067	0.0142921
900.145	0.0141903
900.223	0.0144094
900.301	0.0142307
900.379	0.0141479
900.457	0.0142655
900.535	0.0143761
900.613	0.0141737
900.692	0.0143394
900.770	0.0143818
900.848	0.0143305
900.926	0.0142543
901.004	0.0143752
901.082	0.0143592
901.160	0.0143298
901.238	0.0143465
901.317	0.0142950
901.395	0.0144662
901.473	0.0144068
901.551	0.0144025
901.629	0.0143794
901.707	0.0144194
901.785	0.0143212
901.863	0.0143890
901.942	0.0143569
902.020	0.0143032
902.098	0.0143256
902.176	0.0143201
902.254	0.0140887
902.332	0.0142662
902.410	0.0143140
902.488	0.0142510
902.567	0.0141771
902.645	0.0142390
902.723	0.0140765
902.801	0.0141550
902.879	0.0140259
902.957	0.0140893
903.035	0.0141741
903.113	0.0141080
903.192	0.0139751
903.270	0.0140485
903.348	0.0141347
903.426	0.0141053
903.504	0.0140594
903.582	0.0140873
903.660	0.0142692
903.738	0.0140226
903.817	0.0140597
903.895	0.0141534
903.973	0.0140437
904.051	0.0141077
904.129	0.0139790
904.207	0.0140508
904.285	0.0140741
904.363	0.0143480
904.442	0.0141094
904.520	0.0140992
904.598	0.0141187
904.676	0.0141500
904.754	0.0141416
904.832	0.0142372
904.910	0.0143200
904.988	0.0141564
905.067	0.0142575
905.145	0.0141788
905.223	0.0141116
905.301	0.0140930
905.379	0.0142426
905.457	0.0142533
905.535	0.0143543
905.613	0.0143559
905.692	0.0143314
905.770	0.0144026
905.848	0.0142464
905.926	0.0141920
906.004	0.0143272
906.082	0.0142381
906.160	0.0143990
906.238	0.0143012
906.317	0.0142742
906.395	0.0143092
906.473	0.0142662
906.551	0.0143204
906.629	0.0143874
906.707	0.0143489
906.785	0.0142191
906.863	0.0142052
906.942	0.0142734
907.020	0.0142234
907.098	0.0142709
907.176	0.0142702
907.254	0.0143091
907.332	0.0141108
907.410	0.0142716
907.488	0.0141602
907.567	0.0142223
907.645	0.0141988
907.723	0.0142590
907.801	0.0143204
907.879	0.0142587
907.957	0.0142039
908.035	0.0142161
908.113	0.0141279
908.192	0.0141958
908.270	0.0140982
908.348	0.0140783
908.426	0.0141506
908.504	0.0141888
908.582	0.0142376
908.660	0.0141334
908.738	0.0141416
908.817	0.0141094
908.895	0.0141762
908.973	0.0141506
909.051	0.0140543
909.129	0.0141387
909.207	0.0141728
909.285	0.0139728
909.363	0.0140217
909.442	0.0141922
909.520	0.0139885
909.598	0.0140613
909.676	0.0139568
909.754	0.0142077
909.832	0.0142159
909.910	0.0141678
909.988	0.0141184
910.067	0.0142601
910.145	0.0143657
910.223	0.0141107
910.301	0.0141869
910.379	0.0143822
910.457	0.0142121
910.535	0.0141856
910.613	0.0143882
910.692	0.0143197
910.770	0.0142335
910.848	0.0142701
910.926	0.0143468
911.004	0.0143444
911.082	0.0142595
911.160	0.0142575
911.238	0.0143153
911.317	0.0142030
911.395	0.0141956
911.473	0.0143454
911.551	0.0142226
911.629	0.0141292
911.707	0.0141125
911.785	0.0143608
911.863	0.0142667
911.942	0.0143118
912.020	0.0143410
912.098	0.0143262
912.176	0.0142547
912.254	0.0143165
912.332	0.0142049
912.410	0.0142683
912.488	0.0142938
912.567	0.0141685
912.645	0.0141177
912.723	0.0141189
912.801	0.0141714
912.879	0.0140683
912.957	0.0141353
913.035	0.0142700
913.113	0.0141948
913.192	0.0142060
913.270	0.0141383
913.348	0.0141278
913.426	0.0141013
913.504	0.0140594
913.582	0.0140234
913.660	0.0139582
913.738	0.0139996
913.817	0.0139520
913.895	0.0141439
913.973	0.0140553
914.051	0.0140266
914.129	0.0141365
914.207	0.0141637
914.285	0.0141031
914.363	0.0140357
914.442	0.0140427
914.520	0.0140681
914.598	0.0141825
914.676	0.0141393
914.754	0.0140439
914.832	0.0141059
914.910	0.0140818
914.988	0.0141605
915.067	0.0142139
915.145	0.0142129
915.223	0.0143775
915.301	0.0142837
915.379	0.0143275
915.457	0.0143169
915.535	0.0142348
915.613	0.0143593
915.692	0.0142652
915.770	0.0142527
915.848	0.0143813
915.926	0.0142763
916.004	0.0141413
916.082	0.0142725
916.160	0.0142650
916.238	0.0143027
916.317	0.0141322
916.395	0.0140334
916.473	0.0141576
916.551	0.0141875
916.629	0.0141429
916.707	0.0143093
916.785	0.0142549
916.863	0.0142559
916.942	0.0142049
917.020	0.0143317
917.098	0.0142748
917.176	0.0142164
917.254	0.0141815
917.332	0.0141821
917.410	0.0143478
917.488	0.0142290
917.567	0.0141164
917.645	0.0143344
917.723	0.0142355
917.801	0.0141921
917.879	0.0141515
917.957	0.0142072
918.035	0.0141433
918.113	0.0141656
918.192	0.0141348
918.270	0.0141776
918.348	0.0141418
918.426	0.0141459
918.504	0.0140673
918.582	0.0140845
918.660	0.0140871
918.738	0.0140625
918.817	0.0140712
918.895	0.0140794
918.973	0.0141676
919.051	0.0141625
919.129	0.0140034
919.207	0.0140871
919.285	0.0142465
919.363	0.0141614
919.442	0.0141084
919.520	0.0141724
919.598	0.0142238
919.676	0.0141009
919.754	0.0142142
919.832	0.0142102
919.910	0.0141776
