05/28/2022	14:16:41	Ver.	4.1	UNKNOWN
Optical Delay	599.988409	Delta X		0.078125	Sweeps	1	Scan Rate	0/0
Coordinates	Axis 1	NaN	Axis 2	NaN	Axis 3	NaN	Axis 4	NaN	Axis 5	NaN	Axis 6	0.000000
TX Power	0.000000	RX Power	0.000000

599.988	0.0143803
600.067	0.0143599
600.145	0.0144505
600.223	0.0145702
600.301	0.0142747
600.379	0.0143705
600.457	0.0143967
600.535	0.0143538
600.613	0.0142037
600.692	0.0143733
600.770	0.0143736
600.848	0.0144395
600.926	0.0144634
601.004	0.0143938
601.082	0.0142986
601.160	0.0143645
601.238	0.0143334
601.317	0.0143806
601.395	0.0144414
601.473	0.0142578
601.551	0.0142300
601.629	0.0143890
601.707	0.0143820
601.785	0.0144289
601.863	0.0143687
601.942	0.0143541
602.020	0.0143527
602.098	0.0144036
602.176	0.0143320
602.254	0.0143298
602.332	0.0144186
602.410	0.0142652
602.488	0.0144031
602.567	0.0143603
602.645	0.0144805
602.723	0.0144562
602.801	0.0143404
602.879	0.0143957
602.957	0.0142403
603.035	0.0143910
603.113	0.0143927
603.192	0.0143389
603.270	0.0144533
603.348	0.0143582
603.426	0.0144321
603.504	0.0143179
603.582	0.0144816
603.660	0.0144319
603.738	0.0143992
603.817	0.0144382
603.895	0.0144394
603.973	0.0144452
604.051	0.0144335
604.129	0.0143392
604.207	0.0144298
604.285	0.0143159
604.363	0.0142896
604.442	0.0143943
604.520	0.0143113
604.598	0.0144818
604.676	0.0144682
604.754	0.0143089
604.832	0.0144430
604.910	0.0145331
604.988	0.0144109
605.067	0.0143871
605.145	0.0143065
605.223	0.0144539
605.301	0.0144453
605.379	0.0143032
605.457	0.0144358
605.535	0.0144367
605.613	0.0144466
605.692	0.0145065
605.770	0.0143366
605.848	0.0143896
605.926	0.0143896
606.004	0.0143758
606.082	0.0143343
606.160	0.0142188
606.238	0.0143797
606.317	0.0143469
606.395	0.0143824
606.473	0.0143441
606.551	0.0143503
606.629	0.0144125
606.707	0.0143264
606.785	0.0142184
606.863	0.0143847
606.942	0.0143683
607.020	0.0143797
607.098	0.0144517
607.176	0.0144061
607.254	0.0144962
607.332	0.0143558
607.410	0.0143876
607.488	0.0143557
607.567	0.0142441
607.645	0.0144160
607.723	0.0143748
607.801	0.0143017
607.879	0.0143986
607.957	0.0143988
608.035	0.0144263
608.113	0.0144149
608.192	0.0143445
608.270	0.0143925
608.348	0.0144178
608.426	0.0143481
608.504	0.0145392
608.582	0.0144593
608.660	0.0144099
608.738	0.0144368
608.817	0.0144019
608.895	0.0143320
608.973	0.0143960
609.051	0.0144215
609.129	0.0144129
609.207	0.0144202
609.285	0.0144012
609.363	0.0144009
609.442	0.0142918
609.520	0.0143358
609.598	0.0143497
609.676	0.0144260
609.754	0.0144421
609.832	0.0143164
609.910	0.0142947
609.988	0.0145045
610.067	0.0144059
610.145	0.0142011
610.223	0.0143748
610.301	0.0144762
610.379	0.0144084
610.457	0.0142295
610.535	0.0143426
610.613	0.0144559
610.692	0.0143554
610.770	0.0143211
610.848	0.0143414
610.926	0.0143124
611.004	0.0144028
611.082	0.0143486
611.160	0.0142762
611.238	0.0143086
611.317	0.0144427
611.395	0.0143742
611.473	0.0143316
611.551	0.0144041
611.629	0.0144246
611.707	0.0145407
611.785	0.0145052
611.863	0.0145258
611.942	0.0144047
612.020	0.0143223
612.098	0.0144121
612.176	0.0143474
612.254	0.0144012
612.332	0.0143865
612.410	0.0144087
612.488	0.0143870
612.567	0.0142717
612.645	0.0144128
612.723	0.0143427
612.801	0.0143388
612.879	0.0144293
612.957	0.0144087
613.035	0.0143196
613.113	0.0143678
613.192	0.0144565
613.270	0.0142342
613.348	0.0143526
613.426	0.0144270
613.504	0.0143706
613.582	0.0144848
613.660	0.0144382
613.738	0.0143964
613.817	0.0142577
613.895	0.0143529
613.973	0.0143311
614.051	0.0143346
614.129	0.0143162
614.207	0.0142893
614.285	0.0143065
614.363	0.0142089
614.442	0.0142949
614.520	0.0143019
614.598	0.0142078
614.676	0.0142826
614.754	0.0142738
614.832	0.0142399
614.910	0.0141550
614.988	0.0143761
615.067	0.0141776
615.145	0.0142388
615.223	0.0141611
615.301	0.0142056
615.379	0.0144328
615.457	0.0142621
615.535	0.0141901
615.613	0.0140974
615.692	0.0141116
615.770	0.0143165
615.848	0.0143585
615.926	0.0143834
616.004	0.0143812
616.082	0.0143066
616.160	0.0142281
616.238	0.0142419
616.317	0.0143593
616.395	0.0142950
616.473	0.0143210
616.551	0.0143720
616.629	0.0143333
616.707	0.0143636
616.785	0.0144982
616.863	0.0144025
616.942	0.0143230
617.020	0.0142515
617.098	0.0143652
617.176	0.0144797
617.254	0.0144086
617.332	0.0143440
617.410	0.0144186
617.488	0.0143173
617.567	0.0144931
617.645	0.0143974
617.723	0.0142384
617.801	0.0144105
617.879	0.0145074
617.957	0.0144608
618.035	0.0143115
618.113	0.0142985
618.192	0.0143523
618.270	0.0144282
618.348	0.0142362
618.426	0.0143634
618.504	0.0144219
618.582	0.0142728
618.660	0.0144495
618.738	0.0143362
618.817	0.0143437
618.895	0.0143661
618.973	0.0142959
619.051	0.0144547
619.129	0.0142805
619.207	0.0144958
619.285	0.0144379
619.363	0.0143970
619.442	0.0143440
619.520	0.0143948
619.598	0.0143374
619.676	0.0144561
619.754	0.0143982
619.832	0.0142632
619.910	0.0144557
619.988	0.0145103
620.067	0.0143404
620.145	0.0144041
620.223	0.0143478
620.301	0.0144048
620.379	0.0143512
620.457	0.0143382
620.535	0.0143778
620.613	0.0143301
620.692	0.0144797
620.770	0.0146351
620.848	0.0144445
620.926	0.0143387
621.004	0.0143048
621.082	0.0144160
621.160	0.0144222
621.238	0.0143458
621.317	0.0143023
621.395	0.0143961
621.473	0.0144281
621.551	0.0144437
621.629	0.0143907
621.707	0.0143898
621.785	0.0142535
621.863	0.0143368
621.942	0.0143993
622.020	0.0142948
622.098	0.0145161
622.176	0.0143520
622.254	0.0143066
622.332	0.0142892
622.410	0.0143547
622.488	0.0142178
622.567	0.0143528
622.645	0.0142638
622.723	0.0143508
622.801	0.0143478
622.879	0.0143244
622.957	0.0143497
623.035	0.0143485
623.113	0.0143610
623.192	0.0142597
623.270	0.0143774
623.348	0.0143565
623.426	0.0144311
623.504	0.0143065
623.582	0.0143570
623.660	0.0142857
623.738	0.0143035
623.817	0.0142892
623.895	0.0144778
623.973	0.0145600
624.051	0.0144463
624.129	0.0144378
624.207	0.0144073
624.285	0.0143699
624.363	0.0144847
624.442	0.0143835
624.520	0.0143835
624.598	0.0143829
624.676	0.0143791
624.754	0.0144143
624.832	0.0144476
624.910	0.0144610
624.988	0.0143333
625.067	0.0143201
625.145	0.0143565
625.223	0.0142935
625.301	0.0142278
625.379	0.0143933
625.457	0.0143238
625.535	0.0143098
625.613	0.0142527
625.692	0.0143494
625.770	0.0143096
625.848	0.0142722
625.926	0.0142494
626.004	0.0143041
626.082	0.0144408
626.160	0.0144296
626.238	0.0144069
626.317	0.0144402
626.395	0.0143579
626.473	0.0143028
626.551	0.0143237
626.629	0.0144138
626.707	0.0144180
626.785	0.0143885
626.863	0.0144129
626.942	0.0143956
627.020	0.0143350
627.098	0.0145294
627.176	0.0144097
627.254	0.0143076
627.332	0.0145250
627.410	0.0144555
627.488	0.0142662
627.567	0.0143855
627.645	0.0144525
627.723	0.0144958
627.801	0.0146355
627.879	0.0143808
627.957	0.0144020
628.035	0.0144843
628.113	0.0143299
628.192	0.0144562
628.270	0.0143940
628.348	0.0145567
628.426	0.0142760
628.504	0.0144530
628.582	0.0145220
628.660	0.0145367
628.738	0.0144270
628.817	0.0143963
628.895	0.0142996
628.973	0.0143732
629.051	0.0143804
629.129	0.0143196
629.207	0.0144704
629.285	0.0143752
629.363	0.0144514
629.442	0.0143262
629.520	0.0143965
629.598	0.0145974
629.676	0.0144118
629.754	0.0144085
629.832	0.0143787
629.910	0.0143785
629.988	0.0144691
630.067	0.0144315
630.145	0.0144022
630.223	0.0142805
630.301	0.0143839
630.379	0.0143843
630.457	0.0143315
630.535	0.0144373
630.613	0.0144115
630.692	0.0144492
630.770	0.0144446
630.848	0.0144560
630.926	0.0144592
631.004	0.0143950
631.082	0.0144939
631.160	0.0143774
631.238	0.0144829
631.317	0.0142593
631.395	0.0143820
631.473	0.0143848
631.551	0.0142834
631.629	0.0143346
631.707	0.0143740
631.785	0.0143980
631.863	0.0143745
631.942	0.0143352
632.020	0.0144186
632.098	0.0143219
632.176	0.0143487
632.254	0.0144032
632.332	0.0144126
632.410	0.0142694
632.488	0.0143812
632.567	0.0143085
632.645	0.0142445
632.723	0.0142161
632.801	0.0142310
632.879	0.0142423
632.957	0.0142732
633.035	0.0143705
633.113	0.0142812
633.192	0.0141280
633.270	0.0143707
633.348	0.0143800
633.426	0.0142963
633.504	0.0140614
633.582	0.0143066
633.660	0.0143855
633.738	0.0142386
633.817	0.0142845
633.895	0.0143427
633.973	0.0143896
634.051	0.0144229
634.129	0.0142924
634.207	0.0141857
634.285	0.0143042
634.363	0.0142349
634.442	0.0143391
634.520	0.0142170
634.598	0.0142608
634.676	0.0142028
634.754	0.0143076
634.832	0.0142513
634.910	0.0144080
634.988	0.0142864
635.067	0.0144105
635.145	0.0144279
635.223	0.0143041
635.301	0.0141608
635.379	0.0142854
635.457	0.0142851
635.535	0.0142999
635.613	0.0143354
635.692	0.0142203
635.770	0.0142895
635.848	0.0143163
635.926	0.0142385
636.004	0.0143397
636.082	0.0141862
636.160	0.0143320
636.238	0.0143829
636.317	0.0143223
636.395	0.0143455
636.473	0.0142070
636.551	0.0144550
636.629	0.0141947
636.707	0.0142970
636.785	0.0143017
636.863	0.0143485
636.942	0.0143793
637.020	0.0143848
637.098	0.0142943
637.176	0.0141893
637.254	0.0144691
637.332	0.0144217
637.410	0.0144698
637.488	0.0142606
637.567	0.0143398
637.645	0.0144077
637.723	0.0143755
637.801	0.0144341
637.879	0.0142059
637.957	0.0143112
638.035	0.0142873
638.113	0.0142532
638.192	0.0143081
638.270	0.0142997
638.348	0.0143516
638.426	0.0143855
638.504	0.0142889
638.582	0.0143607
638.660	0.0143852
638.738	0.0144508
638.817	0.0142186
638.895	0.0143999
638.973	0.0143257
639.051	0.0143866
639.129	0.0141927
639.207	0.0142128
639.285	0.0142703
639.363	0.0143556
639.442	0.0143439
639.520	0.0144627
639.598	0.0143369
639.676	0.0143633
639.754	0.0145246
639.832	0.0144382
639.910	0.0144618
639.988	0.0144866
640.067	0.0144324
640.145	0.0145064
640.223	0.0145033
640.301	0.0145236
640.379	0.0144747
640.457	0.0143787
640.535	0.0145937
640.613	0.0143561
640.692	0.0144151
640.770	0.0142599
640.848	0.0143362
640.926	0.0144637
641.004	0.0144566
641.082	0.0142805
641.160	0.0142224
641.238	0.0142783
641.317	0.0142641
641.395	0.0141507
641.473	0.0141732
641.551	0.0142254
641.629	0.0142052
641.707	0.0142625
641.785	0.0142383
641.863	0.0142571
641.942	0.0142030
642.020	0.0143349
642.098	0.0143010
642.176	0.0143852
642.254	0.0143462
642.332	0.0143816
642.410	0.0145091
642.488	0.0145547
642.567	0.0144741
642.645	0.0144742
642.723	0.0142574
642.801	0.0145483
642.879	0.0145348
642.957	0.0143627
643.035	0.0144740
643.113	0.0143323
643.192	0.0143269
643.270	0.0145139
643.348	0.0143110
643.426	0.0144363
643.504	0.0146448
643.582	0.0145231
643.660	0.0145701
643.738	0.0145583
643.817	0.0147442
643.895	0.0146648
643.973	0.0146800
644.051	0.0144675
644.129	0.0145416
644.207	0.0145123
644.285	0.0144734
644.363	0.0145785
644.442	0.0145456
644.520	0.0143781
644.598	0.0143957
644.676	0.0142899
644.754	0.0143208
644.832	0.0143503
644.910	0.0142788
644.988	0.0142424
645.067	0.0144088
645.145	0.0143931
645.223	0.0143928
645.301	0.0143894
645.379	0.0143642
645.457	0.0143279
645.535	0.0144080
645.613	0.0144344
645.692	0.0142841
645.770	0.0143183
645.848	0.0144073
645.926	0.0140965
646.004	0.0141602
646.082	0.0140926
646.160	0.0141144
646.238	0.0141843
646.317	0.0139340
646.395	0.0140541
646.473	0.0141103
646.551	0.0142178
646.629	0.0142509
646.707	0.0141851
646.785	0.0144443
646.863	0.0144733
646.942	0.0143927
647.020	0.0144760
647.098	0.0144917
647.176	0.0145957
647.254	0.0145594
647.332	0.0147600
647.410	0.0147511
647.488	0.0147598
647.567	0.0146693
647.645	0.0146783
647.723	0.0147408
647.801	0.0148034
647.879	0.0148248
647.957	0.0148713
648.035	0.0147398
648.113	0.0147003
648.192	0.0145895
648.270	0.0145743
648.348	0.0145068
648.426	0.0144363
648.504	0.0144657
648.582	0.0145452
648.660	0.0144228
648.738	0.0144118
648.817	0.0145033
648.895	0.0146201
648.973	0.0144970
649.051	0.0143950
649.129	0.0143790
649.207	0.0144023
649.285	0.0142877
649.363	0.0142905
649.442	0.0143161
649.520	0.0142682
649.598	0.0141810
649.676	0.0143020
649.754	0.0142140
649.832	0.0139828
649.910	0.0141102
649.988	0.0139781
650.067	0.0140066
650.145	0.0139829
650.223	0.0140004
650.301	0.0139759
650.379	0.0139622
650.457	0.0137940
650.535	0.0139188
650.613	0.0139849
650.692	0.0139520
650.770	0.0139367
650.848	0.0140184
650.926	0.0138406
651.004	0.0141687
651.082	0.0142793
651.160	0.0141270
651.238	0.0141901
651.317	0.0142847
651.395	0.0143513
651.473	0.0144034
651.551	0.0143154
651.629	0.0145083
651.707	0.0144330
651.785	0.0144647
651.863	0.0144275
651.942	0.0144025
652.020	0.0145409
652.098	0.0145818
652.176	0.0145773
652.254	0.0145392
652.332	0.0147663
652.410	0.0145423
652.488	0.0144718
652.567	0.0146134
652.645	0.0145486
652.723	0.0144653
652.801	0.0146044
652.879	0.0144897
652.957	0.0144182
653.035	0.0146944
653.113	0.0145049
653.192	0.0145466
653.270	0.0145747
653.348	0.0146066
653.426	0.0145308
653.504	0.0145480
653.582	0.0142814
653.660	0.0145135
653.738	0.0144637
653.817	0.0145243
653.895	0.0143299
653.973	0.0142701
654.051	0.0143381
654.129	0.0142523
654.207	0.0141269
654.285	0.0139906
654.363	0.0142216
654.442	0.0141039
654.520	0.0138622
654.598	0.0142190
654.676	0.0141908
654.754	0.0140759
654.832	0.0140353
654.910	0.0139249
654.988	0.0138923
655.067	0.0140469
655.145	0.0139109
655.223	0.0139691
655.301	0.0139772
655.379	0.0139808
655.457	0.0139767
655.535	0.0140752
655.613	0.0141264
655.692	0.0139039
655.770	0.0138971
655.848	0.0139325
655.926	0.0139329
656.004	0.0139252
656.082	0.0141055
656.160	0.0139740
656.238	0.0141282
656.317	0.0142406
656.395	0.0142692
656.473	0.0142316
656.551	0.0143185
656.629	0.0144588
656.707	0.0143958
656.785	0.0144225
656.863	0.0146709
656.942	0.0146927
657.020	0.0148824
657.098	0.0148766
657.176	0.0148304
657.254	0.0149068
657.332	0.0149551
657.410	0.0148978
657.488	0.0149983
657.567	0.0149039
657.645	0.0151176
657.723	0.0150882
657.801	0.0148925
657.879	0.0147469
657.957	0.0148053
658.035	0.0147373
658.113	0.0146938
658.192	0.0145585
658.270	0.0146622
658.348	0.0146387
658.426	0.0145984
658.504	0.0144297
658.582	0.0143635
658.660	0.0144127
658.738	0.0144643
658.817	0.0144911
658.895	0.0144196
658.973	0.0142681
659.051	0.0142885
659.129	0.0141965
659.207	0.0142190
659.285	0.0139830
659.363	0.0139331
659.442	0.0139131
659.520	0.0140008
659.598	0.0138910
659.676	0.0139156
659.754	0.0139416
659.832	0.0137535
659.910	0.0137698
659.988	0.0139188
660.067	0.0137968
660.145	0.0139016
660.223	0.0139263
660.301	0.0138379
660.379	0.0138823
660.457	0.0139482
660.535	0.0140436
660.613	0.0141827
660.692	0.0142285
660.770	0.0143468
660.848	0.0143823
660.926	0.0144695
661.004	0.0146460
661.082	0.0146185
661.160	0.0146233
661.238	0.0146846
661.317	0.0146280
661.395	0.0146354
661.473	0.0145935
661.551	0.0146574
661.629	0.0147322
661.707	0.0147086
661.785	0.0145830
661.863	0.0145667
661.942	0.0147158
662.020	0.0147542
662.098	0.0147456
662.176	0.0145071
662.254	0.0146987
662.332	0.0148390
662.410	0.0148403
662.488	0.0148424
662.567	0.0147918
662.645	0.0149556
662.723	0.0150958
662.801	0.0148878
662.879	0.0149741
662.957	0.0150298
663.035	0.0150922
663.113	0.0151781
663.192	0.0150687
663.270	0.0149699
663.348	0.0147476
663.426	0.0147836
663.504	0.0147648
663.582	0.0146774
663.660	0.0145760
663.738	0.0146828
663.817	0.0143613
663.895	0.0144280
663.973	0.0144250
664.051	0.0142394
664.129	0.0142545
664.207	0.0140119
664.285	0.0139301
664.363	0.0138301
664.442	0.0138623
664.520	0.0140252
664.598	0.0139214
664.676	0.0137758
664.754	0.0138500
664.832	0.0138205
664.910	0.0138876
664.988	0.0139020
665.067	0.0138857
665.145	0.0138725
665.223	0.0140452
665.301	0.0139529
665.379	0.0140257
665.457	0.0140543
665.535	0.0140821
665.613	0.0142632
665.692	0.0142664
665.770	0.0142677
665.848	0.0143347
665.926	0.0145258
666.004	0.0145142
666.082	0.0145847
666.160	0.0146374
666.238	0.0145796
666.317	0.0146325
666.395	0.0147124
666.473	0.0146912
666.551	0.0147949
666.629	0.0148290
666.707	0.0145414
666.785	0.0145014
666.863	0.0146350
666.942	0.0144685
667.020	0.0145277
667.098	0.0144799
667.176	0.0144659
667.254	0.0144482
667.332	0.0142059
667.410	0.0143775
667.488	0.0142175
667.567	0.0143107
667.645	0.0142924
667.723	0.0141730
667.801	0.0141139
667.879	0.0140896
667.957	0.0139742
668.035	0.0141476
668.113	0.0141871
668.192	0.0140192
668.270	0.0141505
668.348	0.0142484
668.426	0.0143060
668.504	0.0143446
668.582	0.0144633
668.660	0.0145874
668.738	0.0144968
668.817	0.0145378
668.895	0.0146847
668.973	0.0146755
669.051	0.0146365
669.129	0.0145754
669.207	0.0146629
669.285	0.0147809
669.363	0.0147989
669.442	0.0147159
669.520	0.0147689
669.598	0.0147812
669.676	0.0148785
669.754	0.0149021
669.832	0.0146872
669.910	0.0145569
669.988	0.0146161
670.067	0.0145451
670.145	0.0143724
670.223	0.0144839
670.301	0.0143382
670.379	0.0143358
670.457	0.0142886
670.535	0.0140874
670.613	0.0141977
670.692	0.0140849
670.770	0.0141210
670.848	0.0139010
670.926	0.0138105
671.004	0.0137449
671.082	0.0138403
671.160	0.0138053
671.238	0.0138718
671.317	0.0139386
671.395	0.0140275
671.473	0.0139087
671.551	0.0140327
671.629	0.0140906
671.707	0.0142741
671.785	0.0142676
671.863	0.0142861
671.942	0.0144841
672.020	0.0145015
672.098	0.0146334
672.176	0.0147260
672.254	0.0148156
672.332	0.0146413
672.410	0.0147812
672.488	0.0147757
672.567	0.0147073
672.645	0.0146698
672.723	0.0145233
672.801	0.0143227
672.879	0.0142358
672.957	0.0140379
673.035	0.0140374
673.113	0.0138266
673.192	0.0137896
673.270	0.0135070
673.348	0.0135616
673.426	0.0134367
673.504	0.0134913
673.582	0.0135846
673.660	0.0136494
673.738	0.0136485
673.817	0.0138304
673.895	0.0137767
673.973	0.0139684
674.051	0.0140856
674.129	0.0142554
674.207	0.0146188
674.285	0.0147364
674.363	0.0149062
674.442	0.0149667
674.520	0.0149547
674.598	0.0152008
674.676	0.0151920
674.754	0.0150455
674.832	0.0153578
674.910	0.0152422
674.988	0.0150368
675.067	0.0151671
675.145	0.0150323
675.223	0.0150685
675.301	0.0148869
675.379	0.0147245
675.457	0.0146875
675.535	0.0144777
675.613	0.0144952
675.692	0.0143733
675.770	0.0141283
675.848	0.0141853
675.926	0.0140284
676.004	0.0138213
676.082	0.0137477
676.160	0.0137344
676.238	0.0136864
676.317	0.0136597
676.395	0.0135064
676.473	0.0136660
676.551	0.0136605
676.629	0.0137054
676.707	0.0135908
676.785	0.0137818
676.863	0.0136454
676.942	0.0138126
677.020	0.0137778
677.098	0.0138575
677.176	0.0139399
677.254	0.0139562
677.332	0.0140536
677.410	0.0141753
677.488	0.0141838
677.567	0.0143546
677.645	0.0143859
677.723	0.0145206
677.801	0.0145494
677.879	0.0145634
677.957	0.0147640
678.035	0.0147052
678.113	0.0148032
678.192	0.0149295
678.270	0.0148090
678.348	0.0149205
678.426	0.0150013
678.504	0.0150536
678.582	0.0149667
678.660	0.0149798
678.738	0.0148826
678.817	0.0150932
678.895	0.0148942
678.973	0.0148456
679.051	0.0149048
679.129	0.0147056
679.207	0.0147178
679.285	0.0145869
679.363	0.0145455
679.442	0.0144610
679.520	0.0143649
679.598	0.0143463
679.676	0.0142722
679.754	0.0142036
679.832	0.0140385
679.910	0.0139911
679.988	0.0139227
680.067	0.0137981
680.145	0.0137672
680.223	0.0137277
680.301	0.0135930
680.379	0.0135401
680.457	0.0135764
680.535	0.0135197
680.613	0.0136641
680.692	0.0137706
680.770	0.0136682
680.848	0.0138261
680.926	0.0139644
681.004	0.0140638
681.082	0.0142918
681.160	0.0143814
681.238	0.0145603
681.317	0.0146124
681.395	0.0148048
681.473	0.0149003
681.551	0.0150467
681.629	0.0150285
681.707	0.0149906
681.785	0.0151620
681.863	0.0152234
681.942	0.0150420
682.020	0.0150261
682.098	0.0148602
682.176	0.0149487
682.254	0.0148363
682.332	0.0147552
682.410	0.0146724
682.488	0.0146700
682.567	0.0145293
682.645	0.0146096
682.723	0.0146735
682.801	0.0144839
682.879	0.0145293
682.957	0.0144061
683.035	0.0145210
683.113	0.0142917
683.192	0.0144765
683.270	0.0142930
683.348	0.0144182
683.426	0.0141668
683.504	0.0141782
683.582	0.0141058
683.660	0.0140470
683.738	0.0140619
683.817	0.0140223
683.895	0.0140234
683.973	0.0139738
684.051	0.0138803
684.129	0.0140291
684.207	0.0139561
684.285	0.0140067
684.363	0.0139363
684.442	0.0139591
684.520	0.0139832
684.598	0.0140244
684.676	0.0139428
684.754	0.0140612
684.832	0.0140714
684.910	0.0140182
684.988	0.0140834
685.067	0.0139663
685.145	0.0139272
685.223	0.0141166
685.301	0.0139784
685.379	0.0140967
685.457	0.0141647
685.535	0.0143207
685.613	0.0142781
685.692	0.0142017
685.770	0.0142670
685.848	0.0144624
685.926	0.0145470
686.004	0.0147429
686.082	0.0149241
686.160	0.0149667
686.238	0.0149643
686.317	0.0150510
686.395	0.0152028
686.473	0.0152570
686.551	0.0153392
686.629	0.0152745
686.707	0.0153001
686.785	0.0151981
686.863	0.0151103
686.942	0.0149590
687.020	0.0150237
687.098	0.0148253
687.176	0.0147314
687.254	0.0146168
687.332	0.0143632
687.410	0.0144878
687.488	0.0141199
687.567	0.0141506
687.645	0.0139527
687.723	0.0137804
687.801	0.0136105
687.879	0.0135771
687.957	0.0135063
688.035	0.0134422
688.113	0.0133663
688.192	0.0135033
688.270	0.0133998
688.348	0.0134357
688.426	0.0134246
688.504	0.0135431
688.582	0.0136488
688.660	0.0138465
688.738	0.0139160
688.817	0.0140187
688.895	0.0141200
688.973	0.0141537
689.051	0.0141712
689.129	0.0143680
689.207	0.0143759
689.285	0.0145238
689.363	0.0147222
689.442	0.0147146
689.520	0.0147166
689.598	0.0148296
689.676	0.0148589
689.754	0.0148037
689.832	0.0149556
689.910	0.0149082
689.988	0.0149559
690.067	0.0150236
690.145	0.0149358
690.223	0.0150009
690.301	0.0148241
690.379	0.0147525
690.457	0.0147329
690.535	0.0147517
690.613	0.0146435
690.692	0.0144646
690.770	0.0144414
690.848	0.0144810
690.926	0.0144324
691.004	0.0143408
691.082	0.0143726
691.160	0.0144186
691.238	0.0143643
691.317	0.0143474
691.395	0.0144418
691.473	0.0143362
691.551	0.0144035
691.629	0.0142090
691.707	0.0143848
691.785	0.0144382
691.863	0.0144666
691.942	0.0143372
692.020	0.0141444
692.098	0.0143381
692.176	0.0143372
692.254	0.0142464
692.332	0.0143719
692.410	0.0144547
692.488	0.0144831
692.567	0.0144123
692.645	0.0144178
692.723	0.0143244
692.801	0.0143649
692.879	0.0144698
692.957	0.0142920
693.035	0.0143438
693.113	0.0142825
693.192	0.0142866
693.270	0.0142567
693.348	0.0142236
693.426	0.0143549
693.504	0.0142084
693.582	0.0141514
693.660	0.0139678
693.738	0.0139554
693.817	0.0138849
693.895	0.0137941
693.973	0.0138603
694.051	0.0138511
694.129	0.0138354
694.207	0.0138450
694.285	0.0137283
694.363	0.0136591
694.442	0.0137327
694.520	0.0139704
694.598	0.0140090
694.676	0.0140881
694.754	0.0142429
694.832	0.0143764
694.910	0.0144123
694.988	0.0146125
695.067	0.0145953
695.145	0.0146636
695.223	0.0148577
695.301	0.0149969
695.379	0.0150546
695.457	0.0149310
695.535	0.0150851
695.613	0.0151749
695.692	0.0151095
695.770	0.0151729
695.848	0.0154034
695.926	0.0151131
696.004	0.0152222
696.082	0.0153358
696.160	0.0152815
696.238	0.0150228
696.317	0.0151571
696.395	0.0151232
696.473	0.0149913
696.551	0.0151766
696.629	0.0149659
696.707	0.0149396
696.785	0.0147033
696.863	0.0146144
696.942	0.0146684
697.020	0.0144724
697.098	0.0142504
697.176	0.0142655
697.254	0.0139648
697.332	0.0138477
697.410	0.0136779
697.488	0.0136127
697.567	0.0132516
697.645	0.0130676
697.723	0.0131532
697.801	0.0130750
697.879	0.0128477
697.957	0.0129066
698.035	0.0128611
698.113	0.0128932
698.192	0.0128879
698.270	0.0131477
698.348	0.0131686
698.426	0.0132960
698.504	0.0135076
698.582	0.0135146
698.660	0.0134915
698.738	0.0138164
698.817	0.0140208
698.895	0.0140963
698.973	0.0143691
699.051	0.0144294
699.129	0.0145911
699.207	0.0148267
699.285	0.0150174
699.363	0.0150105
699.442	0.0152402
699.520	0.0152456
699.598	0.0154710
699.676	0.0154497
699.754	0.0155558
699.832	0.0157918
699.910	0.0157895
699.988	0.0160291
700.067	0.0159488
700.145	0.0159067
700.223	0.0158432
700.301	0.0158485
700.379	0.0158931
700.457	0.0156362
700.535	0.0156581
700.613	0.0156382
700.692	0.0154734
700.770	0.0152919
700.848	0.0151318
700.926	0.0149599
701.004	0.0147123
701.082	0.0145667
701.160	0.0143105
701.238	0.0141491
701.317	0.0138957
701.395	0.0137177
701.473	0.0133968
701.551	0.0131477
701.629	0.0130682
701.707	0.0129163
701.785	0.0130064
701.863	0.0127447
701.942	0.0127269
702.020	0.0128324
702.098	0.0128901
702.176	0.0128992
702.254	0.0129834
702.332	0.0129633
702.410	0.0130645
702.488	0.0132207
702.567	0.0131342
702.645	0.0134776
702.723	0.0135895
702.801	0.0136427
702.879	0.0137180
702.957	0.0137701
703.035	0.0139022
703.113	0.0140414
703.192	0.0141624
703.270	0.0143378
703.348	0.0145130
703.426	0.0146482
703.504	0.0147882
703.582	0.0149226
703.660	0.0149537
703.738	0.0150760
703.817	0.0152422
703.895	0.0152197
703.973	0.0153257
704.051	0.0153274
704.129	0.0152385
704.207	0.0154106
704.285	0.0154184
704.363	0.0152099
704.442	0.0150874
704.520	0.0153160
704.598	0.0152688
704.676	0.0150080
704.754	0.0150945
704.832	0.0151954
704.910	0.0149040
704.988	0.0149148
705.067	0.0148134
705.145	0.0147901
705.223	0.0146106
705.301	0.0143993
705.379	0.0144672
705.457	0.0142767
705.535	0.0140764
705.613	0.0140694
705.692	0.0139735
705.770	0.0140375
705.848	0.0138190
705.926	0.0138974
706.004	0.0137383
706.082	0.0136815
706.160	0.0135574
706.238	0.0136383
706.317	0.0136753
706.395	0.0135986
706.473	0.0136641
706.551	0.0136794
706.629	0.0136220
706.707	0.0138869
706.785	0.0138546
706.863	0.0137594
706.942	0.0138199
707.020	0.0140315
707.098	0.0139976
707.176	0.0140768
707.254	0.0141409
707.332	0.0142195
707.410	0.0143583
707.488	0.0143580
707.567	0.0144015
707.645	0.0145033
707.723	0.0145353
707.801	0.0143543
707.879	0.0144648
707.957	0.0144308
708.035	0.0143987
708.113	0.0144585
708.192	0.0144463
708.270	0.0142584
708.348	0.0143225
708.426	0.0143150
708.504	0.0142637
708.582	0.0142973
708.660	0.0141570
708.738	0.0141737
708.817	0.0143400
708.895	0.0142169
708.973	0.0143042
709.051	0.0144127
709.129	0.0143674
709.207	0.0144371
709.285	0.0144355
709.363	0.0143912
709.442	0.0142783
709.520	0.0145100
709.598	0.0144090
709.676	0.0143885
709.754	0.0144837
709.832	0.0145255
709.910	0.0144717
709.988	0.0144297
710.067	0.0144843
710.145	0.0146464
710.223	0.0143481
710.301	0.0145938
710.379	0.0146754
710.457	0.0145084
710.535	0.0145574
710.613	0.0146207
710.692	0.0143805
710.770	0.0144773
710.848	0.0144395
710.926	0.0145843
711.004	0.0144735
711.082	0.0144571
711.160	0.0145003
711.238	0.0142598
711.317	0.0144247
711.395	0.0143056
711.473	0.0142852
711.551	0.0142442
711.629	0.0140829
711.707	0.0141476
711.785	0.0142820
711.863	0.0142561
711.942	0.0141834
712.020	0.0141371
712.098	0.0140355
712.176	0.0141199
712.254	0.0140145
712.332	0.0140776
712.410	0.0139754
712.488	0.0138118
712.567	0.0139246
712.645	0.0141093
712.723	0.0140044
712.801	0.0139930
712.879	0.0138882
712.957	0.0140166
713.035	0.0139705
713.113	0.0139390
713.192	0.0139819
713.270	0.0138764
713.348	0.0139227
713.426	0.0139503
713.504	0.0139816
713.582	0.0140226
713.660	0.0142019
713.738	0.0142377
713.817	0.0142093
713.895	0.0143314
713.973	0.0145629
714.051	0.0147094
714.129	0.0146576
714.207	0.0148094
714.285	0.0148057
714.363	0.0147894
714.442	0.0148735
714.520	0.0147910
714.598	0.0147527
714.676	0.0145277
714.754	0.0146301
714.832	0.0146264
714.910	0.0144803
714.988	0.0145361
715.067	0.0146584
715.145	0.0145500
715.223	0.0144923
715.301	0.0144605
715.379	0.0145355
715.457	0.0145456
715.535	0.0144907
715.613	0.0146419
715.692	0.0145134
715.770	0.0145933
715.848	0.0144574
715.926	0.0142545
716.004	0.0144040
716.082	0.0143823
716.160	0.0142326
716.238	0.0141698
716.317	0.0142003
716.395	0.0141640
716.473	0.0141327
716.551	0.0140041
716.629	0.0140659
716.707	0.0141456
716.785	0.0140734
716.863	0.0140768
716.942	0.0142245
717.020	0.0140835
717.098	0.0142300
717.176	0.0141879
717.254	0.0141492
717.332	0.0143234
717.410	0.0142535
717.488	0.0142951
717.567	0.0142709
717.645	0.0143176
717.723	0.0142561
717.801	0.0144595
717.879	0.0142796
717.957	0.0144198
718.035	0.0143267
718.113	0.0142802
718.192	0.0144103
718.270	0.0144833
718.348	0.0143751
718.426	0.0144666
718.504	0.0146308
718.582	0.0145053
718.660	0.0146033
718.738	0.0146996
718.817	0.0145773
718.895	0.0145515
718.973	0.0144218
719.051	0.0143851
719.129	0.0144941
719.207	0.0143638
719.285	0.0141479
719.363	0.0141671
719.442	0.0142157
719.520	0.0141740
719.598	0.0142219
719.676	0.0141763
719.754	0.0142635
719.832	0.0141634
719.910	0.0142087
719.988	0.0142399
720.067	0.0141331
720.145	0.0142091
720.223	0.0143810
720.301	0.0143190
720.379	0.0143552
720.457	0.0142957
720.535	0.0143856
720.613	0.0144250
720.692	0.0143792
720.770	0.0145078
720.848	0.0144881
720.926	0.0145076
721.004	0.0146575
721.082	0.0147246
721.160	0.0147521
721.238	0.0148578
721.317	0.0147271
721.395	0.0146363
721.473	0.0146856
721.551	0.0146163
721.629	0.0146054
721.707	0.0145561
721.785	0.0145119
721.863	0.0144966
721.942	0.0145515
722.020	0.0146063
722.098	0.0143324
722.176	0.0143710
722.254	0.0144124
722.332	0.0142312
722.410	0.0143095
722.488	0.0142023
722.567	0.0142921
722.645	0.0141366
722.723	0.0142551
722.801	0.0141270
722.879	0.0140878
722.957	0.0141721
723.035	0.0141591
723.113	0.0141911
723.192	0.0142888
723.270	0.0142530
723.348	0.0143129
723.426	0.0141900
723.504	0.0143744
723.582	0.0144315
723.660	0.0145158
723.738	0.0144215
723.817	0.0144684
723.895	0.0142820
723.973	0.0144106
724.051	0.0144872
724.129	0.0144874
724.207	0.0144293
724.285	0.0145091
724.363	0.0144189
724.442	0.0143868
724.520	0.0143579
724.598	0.0143741
724.676	0.0143452
724.754	0.0143112
724.832	0.0143786
724.910	0.0143245
724.988	0.0143549
725.067	0.0142445
725.145	0.0142665
725.223	0.0143145
725.301	0.0143942
725.379	0.0142522
725.457	0.0142682
725.535	0.0144701
725.613	0.0145639
725.692	0.0144659
725.770	0.0143882
725.848	0.0144584
725.926	0.0144611
726.004	0.0144775
726.082	0.0145272
726.160	0.0146340
726.238	0.0145258
726.317	0.0144976
726.395	0.0145613
726.473	0.0143740
726.551	0.0144409
726.629	0.0143666
726.707	0.0143303
726.785	0.0143030
726.863	0.0141943
726.942	0.0141931
727.020	0.0142811
727.098	0.0141944
727.176	0.0141100
727.254	0.0140383
727.332	0.0140988
727.410	0.0142139
727.488	0.0139940
727.567	0.0141063
727.645	0.0141094
727.723	0.0141293
727.801	0.0140280
727.879	0.0141057
727.957	0.0141509
728.035	0.0142734
728.113	0.0140506
728.192	0.0141839
728.270	0.0142425
728.348	0.0142794
728.426	0.0143055
728.504	0.0142943
728.582	0.0142885
728.660	0.0143800
728.738	0.0145090
728.817	0.0143484
728.895	0.0143565
728.973	0.0144125
729.051	0.0144186
729.129	0.0144457
729.207	0.0143030
729.285	0.0143956
729.363	0.0144978
729.442	0.0143738
729.520	0.0141992
729.598	0.0141494
729.676	0.0140556
729.754	0.0140512
729.832	0.0141483
729.910	0.0140160
729.988	0.0140147
730.067	0.0139926
730.145	0.0139180
730.223	0.0140667
730.301	0.0139696
730.379	0.0140022
730.457	0.0140811
730.535	0.0140525
730.613	0.0141351
730.692	0.0140237
730.770	0.0141376
730.848	0.0142835
730.926	0.0143317
731.004	0.0143054
731.082	0.0144376
731.160	0.0145113
731.238	0.0143997
731.317	0.0144157
731.395	0.0143761
731.473	0.0144817
731.551	0.0145325
731.629	0.0144884
731.707	0.0143799
731.785	0.0143911
731.863	0.0143957
731.942	0.0143575
732.020	0.0144677
732.098	0.0144151
732.176	0.0142361
732.254	0.0143330
732.332	0.0143801
732.410	0.0143061
732.488	0.0142082
732.567	0.0141956
732.645	0.0143952
732.723	0.0144231
732.801	0.0143106
732.879	0.0144000
732.957	0.0143069
733.035	0.0142474
733.113	0.0142636
733.192	0.0143101
733.270	0.0143943
733.348	0.0142793
733.426	0.0142513
733.504	0.0144063
733.582	0.0143676
733.660	0.0141994
733.738	0.0142483
733.817	0.0141850
733.895	0.0142378
733.973	0.0142785
734.051	0.0141454
734.129	0.0140928
734.207	0.0142139
734.285	0.0143718
734.363	0.0142755
734.442	0.0141518
734.520	0.0141457
734.598	0.0141885
734.676	0.0139635
734.754	0.0139973
734.832	0.0141932
734.910	0.0142049
734.988	0.0140141
735.067	0.0140003
735.145	0.0142361
735.223	0.0142162
735.301	0.0141771
735.379	0.0143182
735.457	0.0141955
735.535	0.0142273
735.613	0.0144321
735.692	0.0143285
735.770	0.0144431
735.848	0.0143888
735.926	0.0142706
736.004	0.0142992
736.082	0.0143969
736.160	0.0145860
736.238	0.0145477
736.317	0.0144457
736.395	0.0143420
736.473	0.0143822
736.551	0.0144832
736.629	0.0144626
736.707	0.0145012
736.785	0.0144949
736.863	0.0144598
736.942	0.0144283
737.020	0.0144675
737.098	0.0143864
737.176	0.0143106
737.254	0.0142954
737.332	0.0143867
737.410	0.0143011
737.488	0.0143597
737.567	0.0142746
737.645	0.0143123
737.723	0.0143973
737.801	0.0143742
737.879	0.0142485
737.957	0.0142274
738.035	0.0142274
738.113	0.0142096
738.192	0.0141476
738.270	0.0141184
738.348	0.0141196
738.426	0.0141814
738.504	0.0142651
738.582	0.0143033
738.660	0.0142462
738.738	0.0141465
738.817	0.0142317
738.895	0.0143630
738.973	0.0142957
739.051	0.0142947
739.129	0.0144650
739.207	0.0144104
739.285	0.0144905
739.363	0.0144272
739.442	0.0144465
739.520	0.0143231
739.598	0.0144473
739.676	0.0146315
739.754	0.0144463
739.832	0.0145116
739.910	0.0144687
739.988	0.0144788
740.067	0.0145816
740.145	0.0144703
740.223	0.0145130
740.301	0.0144698
740.379	0.0144096
740.457	0.0143944
740.535	0.0145066
740.613	0.0144860
740.692	0.0143343
740.770	0.0143156
740.848	0.0143256
740.926	0.0144002
741.004	0.0143434
741.082	0.0143984
741.160	0.0143837
741.238	0.0142876
741.317	0.0144044
741.395	0.0143917
741.473	0.0143580
741.551	0.0144480
741.629	0.0143552
741.707	0.0144451
741.785	0.0143784
741.863	0.0143658
741.942	0.0144051
742.020	0.0144369
742.098	0.0143321
742.176	0.0145010
742.254	0.0144901
742.332	0.0144440
742.410	0.0144591
742.488	0.0144273
742.567	0.0144031
742.645	0.0144497
742.723	0.0143178
742.801	0.0143702
742.879	0.0143569
742.957	0.0142290
743.035	0.0142522
743.113	0.0143903
743.192	0.0143680
743.270	0.0142188
743.348	0.0143856
743.426	0.0143218
743.504	0.0142996
743.582	0.0143092
743.660	0.0143050
743.738	0.0145605
743.817	0.0145164
743.895	0.0144164
743.973	0.0143655
744.051	0.0145914
744.129	0.0144018
744.207	0.0144826
744.285	0.0146151
744.363	0.0144631
744.442	0.0145866
744.520	0.0143809
744.598	0.0144035
744.676	0.0144904
744.754	0.0145329
744.832	0.0144731
744.910	0.0144717
744.988	0.0145384
745.067	0.0143005
745.145	0.0144168
745.223	0.0146009
745.301	0.0144866
745.379	0.0145680
745.457	0.0144483
745.535	0.0143959
745.613	0.0142602
745.692	0.0142419
745.770	0.0142528
745.848	0.0142660
745.926	0.0141486
746.004	0.0142739
746.082	0.0142371
746.160	0.0141403
746.238	0.0141409
746.317	0.0140765
746.395	0.0141644
746.473	0.0142354
746.551	0.0141010
746.629	0.0142540
746.707	0.0142460
746.785	0.0142049
746.863	0.0142302
746.942	0.0143219
747.020	0.0143149
747.098	0.0143051
747.176	0.0140833
747.254	0.0142505
747.332	0.0143484
747.410	0.0142906
747.488	0.0141990
747.567	0.0143369
747.645	0.0143711
747.723	0.0143131
747.801	0.0144241
747.879	0.0144118
747.957	0.0145156
748.035	0.0144166
748.113	0.0143996
748.192	0.0146001
748.270	0.0143641
748.348	0.0143939
748.426	0.0145679
748.504	0.0144894
748.582	0.0145187
748.660	0.0144370
748.738	0.0144761
748.817	0.0143938
748.895	0.0144309
748.973	0.0144347
749.051	0.0143814
749.129	0.0144189
749.207	0.0143591
749.285	0.0144160
749.363	0.0143983
749.442	0.0143842
749.520	0.0144669
749.598	0.0144514
749.676	0.0143592
749.754	0.0143063
749.832	0.0143246
749.910	0.0143920
749.988	0.0144283
750.067	0.0144122
750.145	0.0143511
750.223	0.0143705
750.301	0.0144086
750.379	0.0143040
750.457	0.0144524
750.535	0.0144011
750.613	0.0142921
750.692	0.0142890
750.770	0.0143749
750.848	0.0143436
750.926	0.0142983
751.004	0.0142245
751.082	0.0142601
751.160	0.0142449
751.238	0.0142516
751.317	0.0143063
751.395	0.0142568
751.473	0.0142009
751.551	0.0142330
751.629	0.0141411
751.707	0.0142329
751.785	0.0142385
751.863	0.0142680
751.942	0.0143114
752.020	0.0141959
752.098	0.0142811
752.176	0.0142139
752.254	0.0143745
752.332	0.0144136
752.410	0.0144177
752.488	0.0143995
752.567	0.0144369
752.645	0.0144395
752.723	0.0144305
752.801	0.0143974
752.879	0.0143739
752.957	0.0145601
753.035	0.0144398
753.113	0.0145057
753.192	0.0144399
753.270	0.0142577
753.348	0.0143801
753.426	0.0143829
753.504	0.0142919
753.582	0.0142079
753.660	0.0143646
753.738	0.0142928
753.817	0.0143386
753.895	0.0143381
753.973	0.0143297
754.051	0.0144980
754.129	0.0143154
754.207	0.0143178
754.285	0.0143229
754.363	0.0142801
754.442	0.0142884
754.520	0.0142119
754.598	0.0144016
754.676	0.0141956
754.754	0.0142645
754.832	0.0142283
754.910	0.0142829
754.988	0.0142419
755.067	0.0142358
755.145	0.0142723
755.223	0.0142773
755.301	0.0143625
755.379	0.0142093
755.457	0.0143610
755.535	0.0143159
755.613	0.0143864
755.692	0.0143420
755.770	0.0144376
755.848	0.0143615
755.926	0.0144347
756.004	0.0144086
756.082	0.0143518
756.160	0.0144200
756.238	0.0143833
756.317	0.0143620
756.395	0.0144723
756.473	0.0144176
756.551	0.0143718
756.629	0.0142249
756.707	0.0143057
756.785	0.0142461
756.863	0.0142115
756.942	0.0142587
757.020	0.0142493
757.098	0.0143169
757.176	0.0143693
757.254	0.0144858
757.332	0.0143336
757.410	0.0143117
757.488	0.0145277
757.567	0.0144616
757.645	0.0145683
757.723	0.0145246
757.801	0.0143537
757.879	0.0144441
757.957	0.0145859
758.035	0.0144691
758.113	0.0143109
758.192	0.0141598
758.270	0.0144122
758.348	0.0144328
758.426	0.0143916
758.504	0.0143444
758.582	0.0142952
758.660	0.0145170
758.738	0.0144324
758.817	0.0144612
758.895	0.0142923
758.973	0.0142495
759.051	0.0143978
759.129	0.0143510
759.207	0.0143956
759.285	0.0143709
759.363	0.0143822
759.442	0.0143604
759.520	0.0143938
759.598	0.0143369
759.676	0.0144083
759.754	0.0144040
759.832	0.0143091
759.910	0.0142528
759.988	0.0145457
760.067	0.0143536
760.145	0.0142702
760.223	0.0144439
760.301	0.0144245
760.379	0.0143883
760.457	0.0146416
760.535	0.0145931
760.613	0.0145004
760.692	0.0145331
760.770	0.0145769
760.848	0.0145929
760.926	0.0146317
761.004	0.0144946
761.082	0.0145000
761.160	0.0145062
761.238	0.0145038
761.317	0.0144973
761.395	0.0144713
761.473	0.0143584
761.551	0.0144025
761.629	0.0143974
761.707	0.0144300
761.785	0.0142715
761.863	0.0141647
761.942	0.0141045
762.020	0.0141239
762.098	0.0141306
762.176	0.0140484
762.254	0.0140430
762.332	0.0142141
762.410	0.0141106
762.488	0.0142060
762.567	0.0142181
762.645	0.0142419
762.723	0.0143152
762.801	0.0143641
762.879	0.0143512
762.957	0.0143108
763.035	0.0141874
763.113	0.0143711
763.192	0.0143304
763.270	0.0144056
763.348	0.0144073
763.426	0.0142920
763.504	0.0144086
763.582	0.0145410
763.660	0.0144393
763.738	0.0143224
763.817	0.0145150
763.895	0.0145030
763.973	0.0143335
764.051	0.0146122
764.129	0.0145030
764.207	0.0144983
764.285	0.0143913
764.363	0.0144834
764.442	0.0144672
764.520	0.0144138
764.598	0.0144592
764.676	0.0145152
764.754	0.0143835
764.832	0.0145293
764.910	0.0145829
764.988	0.0143614
765.067	0.0143432
765.145	0.0144035
765.223	0.0144823
765.301	0.0144672
765.379	0.0144177
765.457	0.0143814
765.535	0.0146539
765.613	0.0144740
765.692	0.0144907
765.770	0.0144724
765.848	0.0145473
765.926	0.0145533
766.004	0.0145110
766.082	0.0145776
766.160	0.0145683
766.238	0.0144272
766.317	0.0145391
766.395	0.0143959
766.473	0.0145008
766.551	0.0145514
766.629	0.0145894
766.707	0.0143732
766.785	0.0143120
766.863	0.0144602
766.942	0.0142898
767.020	0.0143394
767.098	0.0142574
767.176	0.0142396
767.254	0.0142692
767.332	0.0142999
767.410	0.0141309
767.488	0.0140752
767.567	0.0140046
767.645	0.0142091
767.723	0.0144052
767.801	0.0142487
767.879	0.0142466
767.957	0.0143184
768.035	0.0142839
768.113	0.0142892
768.192	0.0143176
768.270	0.0144628
768.348	0.0143861
768.426	0.0143811
768.504	0.0145073
768.582	0.0146535
768.660	0.0145407
768.738	0.0145352
768.817	0.0145865
768.895	0.0146314
768.973	0.0145398
769.051	0.0144283
769.129	0.0145822
769.207	0.0144740
769.285	0.0145198
769.363	0.0145233
769.442	0.0144473
769.520	0.0143849
769.598	0.0144635
769.676	0.0145009
769.754	0.0143232
769.832	0.0143147
769.910	0.0141978
769.988	0.0143158
770.067	0.0141991
770.145	0.0142347
770.223	0.0141958
770.301	0.0142957
770.379	0.0142723
770.457	0.0141475
770.535	0.0141382
770.613	0.0143340
770.692	0.0144192
770.770	0.0143301
770.848	0.0141881
770.926	0.0142895
771.004	0.0143861
771.082	0.0143775
771.160	0.0144012
771.238	0.0142959
771.317	0.0143572
771.395	0.0143246
771.473	0.0143659
771.551	0.0145322
771.629	0.0143884
771.707	0.0144367
771.785	0.0144814
771.863	0.0144398
771.942	0.0143468
772.020	0.0143365
772.098	0.0142852
772.176	0.0144037
772.254	0.0142642
772.332	0.0142502
772.410	0.0143107
772.488	0.0143313
772.567	0.0142171
772.645	0.0143195
772.723	0.0142683
772.801	0.0142373
772.879	0.0142642
772.957	0.0141795
773.035	0.0141639
773.113	0.0141406
773.192	0.0142726
773.270	0.0142445
773.348	0.0143613
773.426	0.0143887
773.504	0.0142082
773.582	0.0143431
773.660	0.0144763
773.738	0.0144595
773.817	0.0143502
773.895	0.0144697
773.973	0.0142413
774.051	0.0143560
774.129	0.0143853
774.207	0.0143837
774.285	0.0144273
774.363	0.0144079
774.442	0.0144835
774.520	0.0145277
774.598	0.0142818
774.676	0.0143026
774.754	0.0145239
774.832	0.0146029
774.910	0.0145111
774.988	0.0144368
775.067	0.0144786
775.145	0.0144764
775.223	0.0144395
775.301	0.0143882
775.379	0.0142080
775.457	0.0142876
775.535	0.0142992
775.613	0.0143510
775.692	0.0143626
775.770	0.0143263
775.848	0.0143008
775.926	0.0141127
776.004	0.0141859
776.082	0.0141850
776.160	0.0141887
776.238	0.0143162
776.317	0.0143437
776.395	0.0141647
776.473	0.0142162
776.551	0.0141933
776.629	0.0141701
776.707	0.0143462
776.785	0.0143137
776.863	0.0142124
776.942	0.0142043
777.020	0.0141517
777.098	0.0141891
777.176	0.0143121
777.254	0.0142813
777.332	0.0142269
777.410	0.0142734
777.488	0.0143081
777.567	0.0141934
777.645	0.0142147
777.723	0.0143245
777.801	0.0143017
777.879	0.0143203
777.957	0.0141985
778.035	0.0142731
778.113	0.0143705
778.192	0.0142365
778.270	0.0142521
778.348	0.0142332
778.426	0.0142794
778.504	0.0142472
778.582	0.0143442
778.660	0.0143059
778.738	0.0142877
778.817	0.0143145
778.895	0.0143597
778.973	0.0142196
779.051	0.0142190
779.129	0.0142218
779.207	0.0143371
779.285	0.0142711
779.363	0.0143497
779.442	0.0143459
779.520	0.0143002
779.598	0.0142627
779.676	0.0142533
779.754	0.0142136
779.832	0.0143967
779.910	0.0142332
779.988	0.0143458
780.067	0.0142669
780.145	0.0143860
780.223	0.0144147
780.301	0.0143053
780.379	0.0143573
780.457	0.0143222
780.535	0.0143940
780.613	0.0142738
780.692	0.0142933
780.770	0.0142629
780.848	0.0142883
780.926	0.0143575
781.004	0.0144129
781.082	0.0142878
781.160	0.0144061
781.238	0.0143637
781.317	0.0144175
781.395	0.0144237
781.473	0.0143876
781.551	0.0144194
781.629	0.0143598
781.707	0.0143591
781.785	0.0143668
781.863	0.0143943
781.942	0.0143783
782.020	0.0144714
782.098	0.0144272
782.176	0.0144774
782.254	0.0144893
782.332	0.0144636
782.410	0.0144067
782.488	0.0143915
782.567	0.0145802
782.645	0.0145181
782.723	0.0144827
782.801	0.0142970
782.879	0.0145033
782.957	0.0144952
783.035	0.0144131
783.113	0.0144262
783.192	0.0144644
783.270	0.0144958
783.348	0.0144527
783.426	0.0144020
783.504	0.0144067
783.582	0.0143494
783.660	0.0144555
783.738	0.0143548
783.817	0.0144226
783.895	0.0143428
783.973	0.0142403
784.051	0.0143587
784.129	0.0144305
784.207	0.0142212
784.285	0.0143576
784.363	0.0144096
784.442	0.0143843
784.520	0.0143873
784.598	0.0143964
784.676	0.0144355
784.754	0.0144703
784.832	0.0143295
784.910	0.0142676
784.988	0.0144032
785.067	0.0144593
785.145	0.0143739
785.223	0.0144627
785.301	0.0143658
785.379	0.0143314
785.457	0.0143855
785.535	0.0143688
785.613	0.0144189
785.692	0.0143250
785.770	0.0145522
785.848	0.0143320
785.926	0.0144627
786.004	0.0144533
786.082	0.0145085
786.160	0.0143884
786.238	0.0144470
786.317	0.0145289
786.395	0.0145061
786.473	0.0146022
786.551	0.0145645
786.629	0.0144528
786.707	0.0143381
786.785	0.0144631
786.863	0.0144656
786.942	0.0144318
787.020	0.0143733
787.098	0.0144708
787.176	0.0144286
787.254	0.0144221
787.332	0.0145195
787.410	0.0143363
787.488	0.0143890
787.567	0.0143781
787.645	0.0142844
787.723	0.0142690
787.801	0.0143271
787.879	0.0142883
787.957	0.0144020
788.035	0.0143008
788.113	0.0143172
788.192	0.0143747
788.270	0.0143890
788.348	0.0142541
788.426	0.0143979
788.504	0.0143161
788.582	0.0143336
788.660	0.0143270
788.738	0.0143899
788.817	0.0142502
788.895	0.0142624
788.973	0.0144315
789.051	0.0144225
789.129	0.0143385
789.207	0.0144404
789.285	0.0145220
789.363	0.0144035
789.442	0.0144884
789.520	0.0145349
789.598	0.0145225
789.676	0.0145644
789.754	0.0145242
789.832	0.0146473
789.910	0.0144478
789.988	0.0144923
790.067	0.0145506
790.145	0.0145573
790.223	0.0144356
790.301	0.0143914
790.379	0.0144094
790.457	0.0143866
790.535	0.0144038
790.613	0.0143314
790.692	0.0144608
790.770	0.0144493
790.848	0.0144097
790.926	0.0143278
791.004	0.0143863
791.082	0.0143048
791.160	0.0143307
791.238	0.0142781
791.317	0.0142590
791.395	0.0145435
791.473	0.0145014
791.551	0.0142850
791.629	0.0144820
791.707	0.0144630
791.785	0.0144404
791.863	0.0144537
791.942	0.0144196
792.020	0.0143451
792.098	0.0145305
792.176	0.0144875
792.254	0.0143639
792.332	0.0143242
792.410	0.0143708
792.488	0.0143745
792.567	0.0143770
792.645	0.0142292
792.723	0.0143362
792.801	0.0143143
792.879	0.0142487
792.957	0.0142707
793.035	0.0143808
793.113	0.0142685
793.192	0.0143544
793.270	0.0143199
793.348	0.0142765
793.426	0.0141460
793.504	0.0144476
793.582	0.0143092
793.660	0.0140622
793.738	0.0143013
793.817	0.0142622
793.895	0.0140965
793.973	0.0142423
794.051	0.0142547
794.129	0.0142649
794.207	0.0143101
794.285	0.0141427
794.363	0.0141734
794.442	0.0142130
794.520	0.0143530
794.598	0.0142340
794.676	0.0142156
794.754	0.0142027
794.832	0.0142270
794.910	0.0142850
794.988	0.0143431
795.067	0.0143003
795.145	0.0141828
795.223	0.0142998
795.301	0.0143212
795.379	0.0141838
795.457	0.0142359
795.535	0.0141507
795.613	0.0141962
795.692	0.0142063
795.770	0.0143745
795.848	0.0142183
795.926	0.0142984
796.004	0.0143734
796.082	0.0141710
796.160	0.0143842
796.238	0.0143703
796.317	0.0142074
796.395	0.0142812
796.473	0.0144530
796.551	0.0142987
796.629	0.0144140
796.707	0.0143396
796.785	0.0144963
796.863	0.0144408
796.942	0.0144073
797.020	0.0143818
797.098	0.0144543
797.176	0.0144867
797.254	0.0145054
797.332	0.0144828
797.410	0.0144659
797.488	0.0144804
797.567	0.0145134
797.645	0.0143747
797.723	0.0144975
797.801	0.0144557
797.879	0.0145216
797.957	0.0144213
798.035	0.0143469
798.113	0.0144515
798.192	0.0142281
798.270	0.0144553
798.348	0.0144324
798.426	0.0141592
798.504	0.0143285
798.582	0.0143571
798.660	0.0141663
798.738	0.0140323
798.817	0.0142503
798.895	0.0141574
798.973	0.0142451
799.051	0.0142311
799.129	0.0142484
799.207	0.0141470
799.285	0.0141705
799.363	0.0141681
799.442	0.0140856
799.520	0.0141779
799.598	0.0143303
799.676	0.0142189
799.754	0.0143043
799.832	0.0142212
799.910	0.0141699
799.988	0.0141955
800.067	0.0143347
800.145	0.0144156
800.223	0.0143337
800.301	0.0143380
800.379	0.0142532
800.457	0.0144334
800.535	0.0142992
800.613	0.0142195
800.692	0.0142513
800.770	0.0141982
800.848	0.0143410
800.926	0.0143623
801.004	0.0143423
801.082	0.0143118
801.160	0.0142506
801.238	0.0143460
801.317	0.0142831
801.395	0.0142105
801.473	0.0141774
801.551	0.0142038
801.629	0.0143472
801.707	0.0144537
801.785	0.0142999
801.863	0.0144338
801.942	0.0143154
802.020	0.0140948
802.098	0.0144010
802.176	0.0143650
802.254	0.0142542
802.332	0.0142918
802.410	0.0141775
802.488	0.0142489
802.567	0.0142507
802.645	0.0144208
802.723	0.0144969
802.801	0.0143354
802.879	0.0143929
802.957	0.0142596
803.035	0.0142061
803.113	0.0143360
803.192	0.0142780
803.270	0.0143530
803.348	0.0143496
803.426	0.0142473
803.504	0.0143472
803.582	0.0142074
803.660	0.0141994
803.738	0.0143192
803.817	0.0141459
803.895	0.0141111
803.973	0.0141202
804.051	0.0141048
804.129	0.0141511
804.207	0.0143142
804.285	0.0141087
804.363	0.0141696
804.442	0.0142085
804.520	0.0143408
804.598	0.0142795
804.676	0.0142377
804.754	0.0142487
804.832	0.0144068
804.910	0.0143961
804.988	0.0143075
805.067	0.0142594
805.145	0.0142732
805.223	0.0144031
805.301	0.0144011
805.379	0.0143501
805.457	0.0145415
805.535	0.0144990
805.613	0.0145952
805.692	0.0145249
805.770	0.0144519
805.848	0.0145364
805.926	0.0144043
806.004	0.0144768
806.082	0.0142712
806.160	0.0143068
806.238	0.0143015
806.317	0.0142225
806.395	0.0143623
806.473	0.0143826
806.551	0.0142107
806.629	0.0142026
806.707	0.0142427
806.785	0.0143067
806.863	0.0143788
806.942	0.0142599
807.020	0.0140816
807.098	0.0142898
807.176	0.0143333
807.254	0.0142612
807.332	0.0142233
807.410	0.0142515
807.488	0.0141729
807.567	0.0144951
807.645	0.0142870
807.723	0.0143810
807.801	0.0144711
807.879	0.0143761
807.957	0.0143411
808.035	0.0143364
808.113	0.0143201
808.192	0.0144090
808.270	0.0144147
808.348	0.0145978
808.426	0.0145444
808.504	0.0144051
808.582	0.0143626
808.660	0.0143303
808.738	0.0144209
808.817	0.0145000
808.895	0.0142861
808.973	0.0142454
809.051	0.0143456
809.129	0.0142249
809.207	0.0142974
809.285	0.0144469
809.363	0.0142206
809.442	0.0141962
809.520	0.0142794
809.598	0.0142254
809.676	0.0143787
809.754	0.0142244
809.832	0.0141939
809.910	0.0143295
809.988	0.0142352
810.067	0.0141566
810.145	0.0144264
810.223	0.0142609
810.301	0.0142054
810.379	0.0143127
810.457	0.0141967
810.535	0.0144231
810.613	0.0143936
810.692	0.0144993
810.770	0.0144106
810.848	0.0143464
810.926	0.0144902
811.004	0.0145983
811.082	0.0145366
811.160	0.0145496
811.238	0.0145648
811.317	0.0145097
811.395	0.0145517
811.473	0.0145758
811.551	0.0146498
811.629	0.0145414
811.707	0.0146143
811.785	0.0145747
811.863	0.0143654
811.942	0.0144882
812.020	0.0146120
812.098	0.0144922
812.176	0.0145709
812.254	0.0145611
812.332	0.0144234
812.410	0.0144616
812.488	0.0144376
812.567	0.0143467
812.645	0.0143272
812.723	0.0145452
812.801	0.0144021
812.879	0.0145355
812.957	0.0144406
813.035	0.0143995
813.113	0.0143692
813.192	0.0143417
813.270	0.0143047
813.348	0.0143519
813.426	0.0142149
813.504	0.0145667
813.582	0.0144357
813.660	0.0144483
813.738	0.0144815
813.817	0.0145030
813.895	0.0144218
813.973	0.0143699
814.051	0.0142188
814.129	0.0143867
814.207	0.0144458
814.285	0.0144033
814.363	0.0142717
814.442	0.0142869
814.520	0.0142654
814.598	0.0141519
814.676	0.0141996
814.754	0.0142839
814.832	0.0142312
814.910	0.0142035
814.988	0.0141589
815.067	0.0142976
815.145	0.0143510
815.223	0.0141270
815.301	0.0143755
815.379	0.0142117
815.457	0.0141478
815.535	0.0143587
815.613	0.0143140
815.692	0.0143464
815.770	0.0142828
815.848	0.0142895
815.926	0.0143099
816.004	0.0144312
816.082	0.0143713
816.160	0.0142227
816.238	0.0143249
816.317	0.0144595
816.395	0.0143391
816.473	0.0144565
816.551	0.0144166
816.629	0.0144041
816.707	0.0142696
816.785	0.0144930
816.863	0.0146230
816.942	0.0145670
817.020	0.0143373
817.098	0.0144592
817.176	0.0144509
817.254	0.0144448
817.332	0.0144192
817.410	0.0144383
817.488	0.0144364
817.567	0.0144843
817.645	0.0143279
817.723	0.0143678
817.801	0.0143472
817.879	0.0143671
817.957	0.0143571
818.035	0.0142815
818.113	0.0143655
818.192	0.0143808
818.270	0.0142274
818.348	0.0142325
818.426	0.0142604
818.504	0.0143420
818.582	0.0142935
818.660	0.0142467
818.738	0.0143903
818.817	0.0142957
818.895	0.0143698
818.973	0.0143178
819.051	0.0142103
819.129	0.0141597
819.207	0.0143416
819.285	0.0144308
819.363	0.0144218
819.442	0.0144742
819.520	0.0144373
819.598	0.0144983
819.676	0.0144495
819.754	0.0144023
819.832	0.0144217
819.910	0.0144474
819.988	0.0143272
820.067	0.0143782
820.145	0.0144735
820.223	0.0143814
820.301	0.0142574
820.379	0.0142917
820.457	0.0143844
820.535	0.0142435
820.613	0.0142579
820.692	0.0143468
820.770	0.0142767
820.848	0.0143118
820.926	0.0143430
821.004	0.0143565
821.082	0.0141926
821.160	0.0141574
821.238	0.0143652
821.317	0.0144254
821.395	0.0142720
821.473	0.0142282
821.551	0.0144358
821.629	0.0142661
821.707	0.0143756
821.785	0.0143935
821.863	0.0144314
821.942	0.0145609
822.020	0.0144042
822.098	0.0144106
822.176	0.0144846
822.254	0.0144810
822.332	0.0144055
822.410	0.0144297
822.488	0.0144490
822.567	0.0142869
822.645	0.0144370
822.723	0.0144154
822.801	0.0145617
822.879	0.0143777
822.957	0.0143240
823.035	0.0143578
823.113	0.0144659
823.192	0.0143778
823.270	0.0143945
823.348	0.0144698
823.426	0.0144428
823.504	0.0144609
823.582	0.0143574
823.660	0.0143145
823.738	0.0142042
823.817	0.0143667
823.895	0.0143631
823.973	0.0142513
824.051	0.0143579
824.129	0.0141947
824.207	0.0143591
824.285	0.0143288
824.363	0.0142128
824.442	0.0142602
824.520	0.0143727
824.598	0.0142589
824.676	0.0142075
824.754	0.0141454
824.832	0.0142242
824.910	0.0143308
824.988	0.0142887
825.067	0.0142865
825.145	0.0143030
825.223	0.0143999
825.301	0.0143275
825.379	0.0144067
825.457	0.0144440
825.535	0.0143122
825.613	0.0144450
825.692	0.0143645
825.770	0.0143169
825.848	0.0143053
825.926	0.0143158
826.004	0.0143436
826.082	0.0142944
826.160	0.0142839
826.238	0.0142751
826.317	0.0143476
826.395	0.0142339
826.473	0.0142484
826.551	0.0143063
826.629	0.0143842
826.707	0.0144769
826.785	0.0143414
826.863	0.0142612
826.942	0.0142439
827.020	0.0143002
827.098	0.0143359
827.176	0.0145000
827.254	0.0143495
827.332	0.0143701
827.410	0.0144118
827.488	0.0142768
827.567	0.0143333
827.645	0.0143651
827.723	0.0144604
827.801	0.0142927
827.879	0.0142800
827.957	0.0143507
828.035	0.0144025
828.113	0.0144561
828.192	0.0143211
828.270	0.0143974
828.348	0.0142777
828.426	0.0143007
828.504	0.0142926
828.582	0.0142210
828.660	0.0143947
828.738	0.0141946
828.817	0.0141143
828.895	0.0143219
828.973	0.0142905
829.051	0.0141866
829.129	0.0142657
829.207	0.0143376
829.285	0.0142608
829.363	0.0141930
829.442	0.0141869
829.520	0.0142125
829.598	0.0142963
829.676	0.0143532
829.754	0.0141762
829.832	0.0141555
829.910	0.0141274
829.988	0.0141744
830.067	0.0143064
830.145	0.0142125
830.223	0.0141996
830.301	0.0142035
830.379	0.0141704
830.457	0.0142246
830.535	0.0142944
830.613	0.0142109
830.692	0.0142155
830.770	0.0141982
830.848	0.0141942
830.926	0.0142579
831.004	0.0142830
831.082	0.0143168
831.160	0.0143513
831.238	0.0142392
831.317	0.0143611
831.395	0.0142979
831.473	0.0143332
831.551	0.0141808
831.629	0.0142278
831.707	0.0142944
831.785	0.0142355
831.863	0.0142062
831.942	0.0143058
832.020	0.0141708
832.098	0.0142977
832.176	0.0140849
832.254	0.0143387
832.332	0.0143692
832.410	0.0142189
832.488	0.0141575
832.567	0.0143047
832.645	0.0144024
832.723	0.0143015
832.801	0.0144747
832.879	0.0143278
832.957	0.0143736
833.035	0.0143296
833.113	0.0143282
833.192	0.0143437
833.270	0.0144301
833.348	0.0145762
833.426	0.0144289
833.504	0.0143522
833.582	0.0144122
833.660	0.0145702
833.738	0.0143832
833.817	0.0145238
833.895	0.0144485
833.973	0.0144024
834.051	0.0144629
834.129	0.0144043
834.207	0.0143093
834.285	0.0144186
834.363	0.0143215
834.442	0.0143035
834.520	0.0142593
834.598	0.0143486
834.676	0.0144511
834.754	0.0143079
834.832	0.0142683
834.910	0.0143037
834.988	0.0142311
835.067	0.0143856
835.145	0.0142527
835.223	0.0143516
835.301	0.0144464
835.379	0.0143041
835.457	0.0144791
835.535	0.0143916
835.613	0.0143964
835.692	0.0143613
835.770	0.0145246
835.848	0.0144244
835.926	0.0144157
836.004	0.0144718
836.082	0.0145674
836.160	0.0144063
836.238	0.0144443
836.317	0.0144373
836.395	0.0145622
836.473	0.0144866
836.551	0.0143321
836.629	0.0143757
836.707	0.0144901
836.785	0.0144207
836.863	0.0143055
836.942	0.0143824
837.020	0.0144193
837.098	0.0142453
837.176	0.0143635
837.254	0.0145407
837.332	0.0144492
837.410	0.0143329
837.488	0.0142696
837.567	0.0143521
837.645	0.0144003
837.723	0.0143864
837.801	0.0143401
837.879	0.0143851
837.957	0.0144403
838.035	0.0143275
838.113	0.0144153
838.192	0.0143720
838.270	0.0145103
838.348	0.0143353
838.426	0.0144534
838.504	0.0145495
838.582	0.0143470
838.660	0.0143517
838.738	0.0143624
838.817	0.0144087
838.895	0.0144725
838.973	0.0145337
839.051	0.0144385
839.129	0.0143811
839.207	0.0143143
839.285	0.0144310
839.363	0.0144075
839.442	0.0144069
839.520	0.0145179
839.598	0.0144575
839.676	0.0144167
839.754	0.0145769
839.832	0.0143451
839.910	0.0143782
839.988	0.0144585
840.067	0.0144778
840.145	0.0145557
840.223	0.0142815
840.301	0.0144716
840.379	0.0144309
840.457	0.0143883
840.535	0.0144077
840.613	0.0143330
840.692	0.0142228
840.770	0.0143867
840.848	0.0143582
840.926	0.0143051
841.004	0.0143640
841.082	0.0143675
841.160	0.0145095
841.238	0.0144972
841.317	0.0143856
841.395	0.0142896
841.473	0.0142145
841.551	0.0144007
841.629	0.0144853
841.707	0.0144077
841.785	0.0143942
841.863	0.0142651
841.942	0.0142970
842.020	0.0143116
842.098	0.0143462
842.176	0.0143682
842.254	0.0144659
842.332	0.0144704
842.410	0.0144164
842.488	0.0145660
842.567	0.0144200
842.645	0.0144038
842.723	0.0146488
842.801	0.0144829
842.879	0.0144702
842.957	0.0144989
843.035	0.0144657
843.113	0.0143841
843.192	0.0144292
843.270	0.0143805
843.348	0.0144476
843.426	0.0141613
843.504	0.0144279
843.582	0.0143768
843.660	0.0145260
843.738	0.0144501
843.817	0.0143547
843.895	0.0144878
843.973	0.0144605
844.051	0.0144994
844.129	0.0144149
844.207	0.0142390
844.285	0.0143777
844.363	0.0143674
844.442	0.0144051
844.520	0.0143148
844.598	0.0143099
844.676	0.0143468
844.754	0.0143732
844.832	0.0144075
844.910	0.0144330
844.988	0.0143954
845.067	0.0145006
845.145	0.0143864
845.223	0.0143768
845.301	0.0145721
845.379	0.0145228
845.457	0.0145718
845.535	0.0144368
845.613	0.0144237
845.692	0.0145473
845.770	0.0145719
845.848	0.0144955
845.926	0.0144518
846.004	0.0143896
846.082	0.0144178
846.160	0.0144411
846.238	0.0143538
846.317	0.0143195
846.395	0.0144002
846.473	0.0143747
846.551	0.0144737
846.629	0.0143900
846.707	0.0145192
846.785	0.0144745
846.863	0.0142493
846.942	0.0143940
847.020	0.0143436
847.098	0.0143935
847.176	0.0143952
847.254	0.0142560
847.332	0.0143445
847.410	0.0142031
847.488	0.0143218
847.567	0.0144053
847.645	0.0143601
847.723	0.0143053
847.801	0.0143309
847.879	0.0143758
847.957	0.0145068
848.035	0.0144227
848.113	0.0143715
848.192	0.0143884
848.270	0.0143667
848.348	0.0142844
848.426	0.0144634
848.504	0.0144184
848.582	0.0144041
848.660	0.0143670
848.738	0.0143158
848.817	0.0142329
848.895	0.0143067
848.973	0.0144424
849.051	0.0143320
849.129	0.0142852
849.207	0.0143382
849.285	0.0142844
849.363	0.0143179
849.442	0.0144810
849.520	0.0143289
849.598	0.0143169
849.676	0.0144888
849.754	0.0143532
849.832	0.0144023
849.910	0.0144241
849.988	0.0144442
850.067	0.0144558
850.145	0.0145109
850.223	0.0144027
850.301	0.0144797
850.379	0.0144360
850.457	0.0144656
850.535	0.0144373
850.613	0.0143090
850.692	0.0143508
850.770	0.0143677
850.848	0.0144015
850.926	0.0145206
851.004	0.0146220
851.082	0.0142327
851.160	0.0143438
851.238	0.0144357
851.317	0.0142627
851.395	0.0142987
851.473	0.0144743
851.551	0.0142783
851.629	0.0142594
851.707	0.0142472
851.785	0.0143774
851.863	0.0143866
851.942	0.0143065
852.020	0.0142467
852.098	0.0143801
852.176	0.0143704
852.254	0.0142564
852.332	0.0143138
852.410	0.0143164
852.488	0.0144198
852.567	0.0144182
852.645	0.0143938
852.723	0.0142971
852.801	0.0143450
852.879	0.0145104
852.957	0.0144171
853.035	0.0144413
853.113	0.0143810
853.192	0.0143481
853.270	0.0143217
853.348	0.0144354
853.426	0.0143207
853.504	0.0144370
853.582	0.0142738
853.660	0.0143599
853.738	0.0143091
853.817	0.0143439
853.895	0.0143588
853.973	0.0143407
854.051	0.0143719
854.129	0.0144585
854.207	0.0144703
854.285	0.0142268
854.363	0.0142825
854.442	0.0144867
854.520	0.0142691
854.598	0.0144002
854.676	0.0143847
854.754	0.0144013
854.832	0.0142853
854.910	0.0142925
854.988	0.0141727
855.067	0.0143297
855.145	0.0142054
855.223	0.0141966
855.301	0.0143529
855.379	0.0142356
855.457	0.0142942
855.535	0.0141950
855.613	0.0141110
855.692	0.0141852
855.770	0.0141814
855.848	0.0142720
855.926	0.0141751
856.004	0.0143008
856.082	0.0141894
856.160	0.0142314
856.238	0.0142519
856.317	0.0142883
856.395	0.0142769
856.473	0.0142339
856.551	0.0142836
856.629	0.0143323
856.707	0.0141695
856.785	0.0142757
856.863	0.0142455
856.942	0.0143109
857.020	0.0141547
857.098	0.0141756
857.176	0.0142657
857.254	0.0141712
857.332	0.0142735
857.410	0.0142577
857.488	0.0141946
857.567	0.0142776
857.645	0.0143006
857.723	0.0142369
857.801	0.0143758
857.879	0.0143072
857.957	0.0143217
858.035	0.0141616
858.113	0.0142288
858.192	0.0142165
858.270	0.0142921
858.348	0.0143353
858.426	0.0144555
858.504	0.0143404
858.582	0.0142349
858.660	0.0142800
858.738	0.0144331
858.817	0.0142456
858.895	0.0143744
858.973	0.0142231
859.051	0.0143482
859.129	0.0143300
859.207	0.0141995
859.285	0.0142420
859.363	0.0142809
859.442	0.0143507
859.520	0.0143545
859.598	0.0144547
859.676	0.0142230
859.754	0.0141891
859.832	0.0142102
859.910	0.0141410
859.988	0.0141917
860.067	0.0143987
860.145	0.0143053
860.223	0.0142947
860.301	0.0143679
860.379	0.0142476
860.457	0.0141251
860.535	0.0142110
860.613	0.0143173
860.692	0.0143150
860.770	0.0141346
860.848	0.0142104
860.926	0.0142450
861.004	0.0141417
861.082	0.0141643
861.160	0.0141171
861.238	0.0142807
861.317	0.0143135
861.395	0.0142842
861.473	0.0143681
861.551	0.0143365
861.629	0.0142634
861.707	0.0142036
861.785	0.0142230
861.863	0.0143031
861.942	0.0143017
862.020	0.0142963
862.098	0.0143578
862.176	0.0144061
862.254	0.0143018
862.332	0.0142352
862.410	0.0143211
862.488	0.0143636
862.567	0.0142744
862.645	0.0143129
862.723	0.0143799
862.801	0.0143279
862.879	0.0144162
862.957	0.0143468
863.035	0.0144063
863.113	0.0142837
863.192	0.0142392
863.270	0.0144040
863.348	0.0143655
863.426	0.0143870
863.504	0.0142624
863.582	0.0143877
863.660	0.0144093
863.738	0.0142793
863.817	0.0143887
863.895	0.0142537
863.973	0.0143145
864.051	0.0143851
864.129	0.0142481
864.207	0.0143226
864.285	0.0143556
864.363	0.0141610
864.442	0.0142052
864.520	0.0143743
864.598	0.0141927
864.676	0.0142780
864.754	0.0142953
864.832	0.0143869
864.910	0.0141745
864.988	0.0142745
865.067	0.0143633
865.145	0.0142879
865.223	0.0143050
865.301	0.0144045
865.379	0.0143687
865.457	0.0142860
865.535	0.0143298
865.613	0.0144939
865.692	0.0145565
865.770	0.0144793
865.848	0.0144637
865.926	0.0144206
866.004	0.0143392
866.082	0.0144639
866.160	0.0144733
866.238	0.0144984
866.317	0.0143327
866.395	0.0144263
866.473	0.0144244
866.551	0.0144580
866.629	0.0145272
866.707	0.0144636
866.785	0.0144895
866.863	0.0143348
866.942	0.0144035
867.020	0.0143676
867.098	0.0142561
867.176	0.0143224
867.254	0.0145005
867.332	0.0143761
867.410	0.0142738
867.488	0.0143326
867.567	0.0143958
867.645	0.0143629
867.723	0.0144394
867.801	0.0143327
867.879	0.0143166
867.957	0.0144054
868.035	0.0143204
868.113	0.0143513
868.192	0.0143799
868.270	0.0144627
868.348	0.0143762
868.426	0.0145435
868.504	0.0143626
868.582	0.0144336
868.660	0.0144470
868.738	0.0144409
868.817	0.0145065
868.895	0.0145954
868.973	0.0145906
869.051	0.0144947
869.129	0.0143879
869.207	0.0145540
869.285	0.0144454
869.363	0.0146014
869.442	0.0144592
869.520	0.0144160
869.598	0.0144827
869.676	0.0145364
869.754	0.0144210
869.832	0.0145573
869.910	0.0143363
869.988	0.0144508
870.067	0.0144216
870.145	0.0144285
870.223	0.0144863
870.301	0.0145148
870.379	0.0145588
870.457	0.0144263
870.535	0.0145212
870.613	0.0144070
870.692	0.0144556
870.770	0.0146647
870.848	0.0144584
870.926	0.0143674
871.004	0.0144093
871.082	0.0144230
871.160	0.0145165
871.238	0.0144165
871.317	0.0144167
871.395	0.0143253
871.473	0.0142979
871.551	0.0144157
871.629	0.0143478
871.707	0.0143520
871.785	0.0142935
871.863	0.0142858
871.942	0.0142033
872.020	0.0142145
872.098	0.0142867
872.176	0.0142802
872.254	0.0143347
872.332	0.0142600
872.410	0.0141500
872.488	0.0142111
872.567	0.0142632
872.645	0.0142569
872.723	0.0143072
872.801	0.0142350
872.879	0.0142781
872.957	0.0141743
873.035	0.0142464
873.113	0.0143941
873.192	0.0144141
873.270	0.0141974
873.348	0.0142749
873.426	0.0144605
873.504	0.0143561
873.582	0.0142256
873.660	0.0141938
873.738	0.0142992
873.817	0.0143565
873.895	0.0143288
873.973	0.0144781
874.051	0.0143065
874.129	0.0143798
874.207	0.0144722
874.285	0.0143302
874.363	0.0143401
874.442	0.0144487
874.520	0.0142930
874.598	0.0143311
874.676	0.0144655
874.754	0.0143225
874.832	0.0143769
874.910	0.0143935
874.988	0.0142789
875.067	0.0143551
875.145	0.0143583
875.223	0.0141566
875.301	0.0143172
875.379	0.0141022
875.457	0.0141768
875.535	0.0142429
875.613	0.0142259
875.692	0.0142384
875.770	0.0140770
875.848	0.0143144
875.926	0.0143609
876.004	0.0142652
876.082	0.0142579
876.160	0.0143141
876.238	0.0142010
876.317	0.0142650
876.395	0.0142451
876.473	0.0143509
876.551	0.0142283
876.629	0.0143179
876.707	0.0143009
876.785	0.0141947
876.863	0.0143641
876.942	0.0143624
877.020	0.0144492
877.098	0.0142966
877.176	0.0143978
877.254	0.0143437
877.332	0.0143867
877.410	0.0143641
877.488	0.0143494
877.567	0.0143875
877.645	0.0143221
877.723	0.0143047
877.801	0.0144349
877.879	0.0144376
877.957	0.0143703
878.035	0.0142966
878.113	0.0143269
878.192	0.0143322
878.270	0.0142242
878.348	0.0142242
878.426	0.0143017
878.504	0.0143014
878.582	0.0141602
878.660	0.0142416
878.738	0.0142145
878.817	0.0142010
878.895	0.0141605
878.973	0.0142008
879.051	0.0141467
879.129	0.0142108
879.207	0.0143014
879.285	0.0141415
879.363	0.0142121
879.442	0.0141956
879.520	0.0141428
879.598	0.0140839
879.676	0.0141874
879.754	0.0142483
879.832	0.0140981
879.910	0.0141499
879.988	0.0142507
880.067	0.0142204
880.145	0.0142596
880.223	0.0141790
880.301	0.0141696
880.379	0.0143557
880.457	0.0144325
880.535	0.0143864
880.613	0.0144934
880.692	0.0144841
880.770	0.0144891
880.848	0.0143911
880.926	0.0144151
881.004	0.0143285
881.082	0.0143687
881.160	0.0143426
881.238	0.0144278
881.317	0.0143300
881.395	0.0142680
881.473	0.0143040
881.551	0.0143865
881.629	0.0142801
881.707	0.0144141
881.785	0.0143307
881.863	0.0143886
881.942	0.0143541
882.020	0.0143141
882.098	0.0142947
882.176	0.0143008
882.254	0.0142728
882.332	0.0143655
882.410	0.0142506
882.488	0.0143109
882.567	0.0144260
882.645	0.0142928
882.723	0.0141981
882.801	0.0143191
882.879	0.0142310
882.957	0.0141395
883.035	0.0143160
883.113	0.0143993
883.192	0.0143517
883.270	0.0142268
883.348	0.0142376
883.426	0.0142305
883.504	0.0143457
883.582	0.0142888
883.660	0.0142473
883.738	0.0142326
883.817	0.0142276
883.895	0.0141576
883.973	0.0141364
884.051	0.0143612
884.129	0.0143593
884.207	0.0142517
884.285	0.0143509
884.363	0.0143701
884.442	0.0143845
884.520	0.0142497
884.598	0.0143793
884.676	0.0143265
884.754	0.0143554
884.832	0.0143402
884.910	0.0141950
884.988	0.0144781
885.067	0.0144478
885.145	0.0143774
885.223	0.0145445
885.301	0.0144621
885.379	0.0143127
885.457	0.0143555
885.535	0.0144512
885.613	0.0143343
885.692	0.0144421
885.770	0.0144485
885.848	0.0143818
885.926	0.0142637
886.004	0.0143048
886.082	0.0144460
886.160	0.0144189
886.238	0.0143717
886.317	0.0143688
886.395	0.0144878
886.473	0.0143881
886.551	0.0143172
886.629	0.0143304
886.707	0.0145107
886.785	0.0143842
886.863	0.0144409
886.942	0.0143996
887.020	0.0144119
887.098	0.0143155
887.176	0.0143834
887.254	0.0143565
887.332	0.0144204
887.410	0.0144665
887.488	0.0143655
887.567	0.0143506
887.645	0.0143359
887.723	0.0143715
887.801	0.0143907
887.879	0.0143217
887.957	0.0142821
888.035	0.0142932
888.113	0.0143360
888.192	0.0142922
888.270	0.0144327
888.348	0.0142856
888.426	0.0143878
888.504	0.0142707
888.582	0.0143149
888.660	0.0142439
888.738	0.0143135
888.817	0.0143678
888.895	0.0143471
888.973	0.0143104
889.051	0.0143655
889.129	0.0143692
889.207	0.0142959
889.285	0.0143678
889.363	0.0142406
889.442	0.0142140
889.520	0.0143504
889.598	0.0143243
889.676	0.0144113
889.754	0.0144069
889.832	0.0142887
889.910	0.0143203
889.988	0.0143398
890.067	0.0144095
890.145	0.0144189
890.223	0.0144557
890.301	0.0144173
890.379	0.0144897
890.457	0.0143543
890.535	0.0144896
890.613	0.0144825
890.692	0.0143588
890.770	0.0142349
890.848	0.0144926
890.926	0.0145810
891.004	0.0143671
891.082	0.0144558
891.160	0.0144020
891.238	0.0142840
891.317	0.0143962
891.395	0.0143900
891.473	0.0143589
891.551	0.0144010
891.629	0.0144004
891.707	0.0143276
891.785	0.0143493
891.863	0.0143394
891.942	0.0143805
892.020	0.0144706
892.098	0.0143176
892.176	0.0144514
892.254	0.0144202
892.332	0.0143076
892.410	0.0143208
892.488	0.0143607
892.567	0.0145078
892.645	0.0144577
892.723	0.0142381
892.801	0.0142933
892.879	0.0143812
892.957	0.0143108
893.035	0.0141932
893.113	0.0142503
893.192	0.0143118
893.270	0.0141609
893.348	0.0142336
893.426	0.0142677
893.504	0.0142055
893.582	0.0144073
893.660	0.0142754
893.738	0.0141355
893.817	0.0143517
893.895	0.0142516
893.973	0.0143372
894.051	0.0142680
894.129	0.0144452
894.207	0.0143385
894.285	0.0143188
894.363	0.0141476
894.442	0.0142798
894.520	0.0142825
894.598	0.0144366
894.676	0.0143555
894.754	0.0143903
894.832	0.0144018
894.910	0.0144263
894.988	0.0143203
895.067	0.0143408
895.145	0.0144743
895.223	0.0144933
895.301	0.0144215
895.379	0.0145110
895.457	0.0143748
895.535	0.0144677
895.613	0.0144386
895.692	0.0143937
895.770	0.0144356
895.848	0.0144822
895.926	0.0143791
896.004	0.0143111
896.082	0.0143582
896.160	0.0143839
896.238	0.0143343
896.317	0.0142770
896.395	0.0143783
896.473	0.0143148
896.551	0.0142999
896.629	0.0143764
896.707	0.0143639
896.785	0.0142786
896.863	0.0143059
896.942	0.0142856
897.020	0.0141826
897.098	0.0143216
897.176	0.0143215
897.254	0.0142249
897.332	0.0143707
897.410	0.0143411
897.488	0.0143530
897.567	0.0142787
897.645	0.0142379
897.723	0.0142811
897.801	0.0143300
897.879	0.0142828
897.957	0.0143152
898.035	0.0144051
898.113	0.0142122
898.192	0.0143017
898.270	0.0142760
898.348	0.0142587
898.426	0.0142093
898.504	0.0143191
898.582	0.0142442
898.660	0.0142331
898.738	0.0142780
898.817	0.0141645
898.895	0.0142606
898.973	0.0143184
899.051	0.0143445
899.129	0.0143761
899.207	0.0142814
899.285	0.0144846
899.363	0.0142150
899.442	0.0143565
899.520	0.0143123
899.598	0.0144314
899.676	0.0143765
899.754	0.0141619
899.832	0.0141694
899.910	0.0141904
899.988	0.0144205
900.067	0.0143635
900.145	0.0142467
900.223	0.0144646
900.301	0.0143288
900.379	0.0142793
900.457	0.0144056
900.535	0.0143279
900.613	0.0142043
900.692	0.0142886
900.770	0.0144110
900.848	0.0143050
900.926	0.0143285
901.004	0.0143551
901.082	0.0142050
901.160	0.0142867
901.238	0.0143031
901.317	0.0142218
901.395	0.0144292
901.473	0.0144283
901.551	0.0142805
901.629	0.0142722
901.707	0.0143571
901.785	0.0141962
901.863	0.0143291
901.942	0.0144099
902.020	0.0143548
902.098	0.0144434
902.176	0.0143674
902.254	0.0143731
902.332	0.0143746
902.410	0.0142554
902.488	0.0142689
902.567	0.0143248
902.645	0.0144017
902.723	0.0142931
902.801	0.0141660
902.879	0.0143763
902.957	0.0143962
903.035	0.0144485
903.113	0.0143056
903.192	0.0143161
903.270	0.0143287
903.348	0.0142946
903.426	0.0143135
903.504	0.0144527
903.582	0.0142857
903.660	0.0145132
903.738	0.0143959
903.817	0.0141898
903.895	0.0144127
903.973	0.0144610
904.051	0.0143029
904.129	0.0143893
904.207	0.0142979
904.285	0.0142867
904.363	0.0143707
904.442	0.0142919
904.520	0.0143193
904.598	0.0143533
904.676	0.0143499
904.754	0.0143873
904.832	0.0142551
904.910	0.0142484
904.988	0.0143938
905.067	0.0143228
905.145	0.0143281
905.223	0.0143761
905.301	0.0144345
905.379	0.0142860
905.457	0.0142866
905.535	0.0143458
905.613	0.0144594
905.692	0.0143610
905.770	0.0142622
905.848	0.0143737
905.926	0.0142852
906.004	0.0142187
906.082	0.0144397
906.160	0.0143790
906.238	0.0142062
906.317	0.0142861
906.395	0.0142847
906.473	0.0142729
906.551	0.0143143
906.629	0.0143405
906.707	0.0142944
906.785	0.0142073
906.863	0.0142744
906.942	0.0144183
907.020	0.0143504
907.098	0.0143388
907.176	0.0143514
907.254	0.0144669
907.332	0.0143160
907.410	0.0142746
907.488	0.0143456
907.567	0.0142241
907.645	0.0143188
907.723	0.0142968
907.801	0.0143459
907.879	0.0145054
907.957	0.0144016
908.035	0.0143159
908.113	0.0144202
908.192	0.0144090
908.270	0.0142392
908.348	0.0143913
908.426	0.0144328
908.504	0.0143785
908.582	0.0143419
908.660	0.0144147
908.738	0.0144399
908.817	0.0143143
908.895	0.0142506
908.973	0.0144256
909.051	0.0143214
909.129	0.0143719
909.207	0.0144476
909.285	0.0144037
909.363	0.0143773
909.442	0.0143500
909.520	0.0142214
909.598	0.0143558
909.676	0.0144382
909.754	0.0144137
909.832	0.0142794
909.910	0.0142712
909.988	0.0143803
910.067	0.0142948
910.145	0.0143301
910.223	0.0143635
910.301	0.0141770
910.379	0.0142769
910.457	0.0142313
910.535	0.0143700
910.613	0.0143642
910.692	0.0142966
910.770	0.0143078
910.848	0.0143498
910.926	0.0143114
911.004	0.0143318
911.082	0.0142858
911.160	0.0142841
911.238	0.0143022
911.317	0.0143504
911.395	0.0142978
911.473	0.0142262
911.551	0.0142078
911.629	0.0142393
911.707	0.0144248
911.785	0.0142688
911.863	0.0143347
911.942	0.0143991
912.020	0.0144756
912.098	0.0143669
912.176	0.0143538
912.254	0.0143687
912.332	0.0144279
912.410	0.0143861
912.488	0.0143184
912.567	0.0144225
912.645	0.0145182
912.723	0.0145697
912.801	0.0144337
912.879	0.0145716
912.957	0.0144416
913.035	0.0144502
913.113	0.0144003
913.192	0.0144083
913.270	0.0145460
913.348	0.0142897
913.426	0.0145113
913.504	0.0145979
913.582	0.0144709
913.660	0.0144309
913.738	0.0142643
913.817	0.0142915
913.895	0.0142588
913.973	0.0144656
914.051	0.0143812
914.129	0.0143562
914.207	0.0142963
914.285	0.0142336
914.363	0.0143422
914.442	0.0143682
914.520	0.0142442
914.598	0.0142113
914.676	0.0142280
914.754	0.0142356
914.832	0.0140176
914.910	0.0141372
914.988	0.0142168
915.067	0.0142680
915.145	0.0143661
915.223	0.0143227
915.301	0.0142576
915.379	0.0143141
915.457	0.0143521
915.535	0.0142098
915.613	0.0142213
915.692	0.0143216
915.770	0.0143667
915.848	0.0142840
915.926	0.0143448
916.004	0.0142731
916.082	0.0143081
916.160	0.0143039
916.238	0.0143726
916.317	0.0142695
916.395	0.0143136
916.473	0.0142245
916.551	0.0141928
916.629	0.0142286
916.707	0.0142469
916.785	0.0142941
916.863	0.0141662
916.942	0.0141270
917.020	0.0141973
917.098	0.0142477
917.176	0.0142114
917.254	0.0142143
917.332	0.0143111
917.410	0.0142049
917.488	0.0142172
917.567	0.0142937
917.645	0.0142796
917.723	0.0141644
917.801	0.0144083
917.879	0.0144129
917.957	0.0141360
918.035	0.0141900
918.113	0.0143290
918.192	0.0142525
918.270	0.0142594
918.348	0.0143604
918.426	0.0142633
918.504	0.0143274
918.582	0.0142959
918.660	0.0142962
918.738	0.0142550
918.817	0.0143370
918.895	0.0143211
918.973	0.0141981
919.051	0.0144499
919.129	0.0143483
919.207	0.0144765
919.285	0.0142133
919.363	0.0143459
919.442	0.0143936
919.520	0.0142744
919.598	0.0144128
919.676	0.0143345
919.754	0.0143135
919.832	0.0143761
919.910	0.0143801
