05/26/2022	21:12:16	Ver.	4.1	UNKNOWN
Optical Delay	400.043419	Delta X		0.078125	Sweeps	1	Scan Rate	0/0
Coordinates	Axis 1	NaN	Axis 2	NaN	Axis 3	NaN	Axis 4	NaN	Axis 5	NaN	Axis 6	0.000000
TX Power	0.000000	RX Power	0.000000

400.043	0.0147721
400.122	0.0147968
400.200	0.0147500
400.278	0.0148277
400.356	0.0146281
400.434	0.0147244
400.512	0.0146455
400.590	0.0148444
400.668	0.0148309
400.747	0.0147506
400.825	0.0147298
400.903	0.0146823
400.981	0.0147229
401.059	0.0147622
401.137	0.0148231
401.215	0.0148790
401.293	0.0148166
401.372	0.0147442
401.450	0.0148538
401.528	0.0147050
401.606	0.0146895
401.684	0.0149367
401.762	0.0148307
401.840	0.0147322
401.918	0.0147014
401.997	0.0147826
402.075	0.0148415
402.153	0.0148368
402.231	0.0147747
402.309	0.0147720
402.387	0.0147648
402.465	0.0147874
402.543	0.0147542
402.622	0.0148544
402.700	0.0148172
402.778	0.0147260
402.856	0.0147334
402.934	0.0147433
403.012	0.0147733
403.090	0.0146271
403.168	0.0147559
403.247	0.0146595
403.325	0.0146977
403.403	0.0147904
403.481	0.0147532
403.559	0.0148474
403.637	0.0149299
403.715	0.0149146
403.793	0.0148836
403.872	0.0147263
403.950	0.0148383
404.028	0.0148208
404.106	0.0146405
404.184	0.0147960
404.262	0.0147247
404.340	0.0147315
404.418	0.0148775
404.497	0.0147086
404.575	0.0147186
404.653	0.0148344
404.731	0.0147532
404.809	0.0147235
404.887	0.0147094
404.965	0.0147581
405.043	0.0146968
405.122	0.0148840
405.200	0.0148027
405.278	0.0147777
405.356	0.0147254
405.434	0.0148690
405.512	0.0147512
405.590	0.0147846
405.668	0.0147448
405.747	0.0148367
405.825	0.0148430
405.903	0.0148373
405.981	0.0148309
406.059	0.0147373
406.137	0.0148206
406.215	0.0147767
406.293	0.0146535
406.372	0.0146591
406.450	0.0147258
406.528	0.0148457
406.606	0.0147915
406.684	0.0148489
406.762	0.0146741
406.840	0.0147843
406.918	0.0147270
406.997	0.0148196
407.075	0.0148161
407.153	0.0146470
407.231	0.0146570
407.309	0.0146989
407.387	0.0146052
407.465	0.0146415
407.543	0.0147408
407.622	0.0147189
407.700	0.0148232
407.778	0.0148358
407.856	0.0147898
407.934	0.0147601
408.012	0.0147449
408.090	0.0148553
408.168	0.0147511
408.247	0.0149290
408.325	0.0148243
408.403	0.0146909
408.481	0.0148648
408.559	0.0147927
408.637	0.0148099
408.715	0.0146455
408.793	0.0147686
408.872	0.0147644
408.950	0.0147461
409.028	0.0148301
409.106	0.0147543
409.184	0.0147239
409.262	0.0148106
409.340	0.0147746
409.418	0.0148307
409.497	0.0147571
409.575	0.0147438
409.653	0.0148005
409.731	0.0146477
409.809	0.0146814
409.887	0.0146723
409.965	0.0147086
410.043	0.0148417
410.122	0.0147726
410.200	0.0147030
410.278	0.0147340
410.356	0.0148534
410.434	0.0147890
410.512	0.0147891
410.590	0.0149036
410.668	0.0148148
410.747	0.0147968
410.825	0.0147849
410.903	0.0148067
410.981	0.0149309
411.059	0.0148203
411.137	0.0147717
411.215	0.0147022
411.293	0.0147807
411.372	0.0148645
411.450	0.0148476
411.528	0.0147400
411.606	0.0147347
411.684	0.0146975
411.762	0.0147995
411.840	0.0148532
411.918	0.0147713
411.997	0.0147777
412.075	0.0148667
412.153	0.0148463
412.231	0.0148055
412.309	0.0148737
412.387	0.0147692
412.465	0.0148157
412.543	0.0148751
412.622	0.0147729
412.700	0.0147314
412.778	0.0148181
412.856	0.0148015
412.934	0.0149323
413.012	0.0147307
413.090	0.0147150
413.168	0.0146358
413.247	0.0146904
413.325	0.0147820
413.403	0.0148531
413.481	0.0146896
413.559	0.0147361
413.637	0.0147160
413.715	0.0147810
413.793	0.0146820
413.872	0.0149369
413.950	0.0148559
414.028	0.0148363
414.106	0.0147568
414.184	0.0148324
414.262	0.0148150
414.340	0.0148806
414.418	0.0147009
414.497	0.0147307
414.575	0.0148176
414.653	0.0147343
414.731	0.0147142
414.809	0.0147268
414.887	0.0148036
414.965	0.0147205
415.043	0.0148754
415.122	0.0148786
415.200	0.0148405
415.278	0.0148198
415.356	0.0148080
415.434	0.0147633
415.512	0.0148829
415.590	0.0148505
415.668	0.0147390
415.747	0.0146778
415.825	0.0146710
415.903	0.0149065
415.981	0.0146876
416.059	0.0148096
416.137	0.0147817
416.215	0.0146923
416.293	0.0149162
416.372	0.0148103
416.450	0.0148615
416.528	0.0148788
416.606	0.0149498
416.684	0.0147651
416.762	0.0145725
416.840	0.0147378
416.918	0.0147901
416.997	0.0147076
417.075	0.0147775
417.153	0.0147861
417.231	0.0148016
417.309	0.0148067
417.387	0.0148091
417.465	0.0148254
417.543	0.0146992
417.622	0.0147456
417.700	0.0148077
417.778	0.0146780
417.856	0.0146663
417.934	0.0148330
418.012	0.0147323
418.090	0.0147060
418.168	0.0147577
418.247	0.0147298
418.325	0.0145512
418.403	0.0147617
418.481	0.0147437
418.559	0.0147451
418.637	0.0147739
418.715	0.0147544
418.793	0.0147218
418.872	0.0148005
418.950	0.0148236
419.028	0.0147685
419.106	0.0147256
419.184	0.0146720
419.262	0.0147849
419.340	0.0147762
419.418	0.0147622
419.497	0.0148013
419.575	0.0147531
419.653	0.0147449
419.731	0.0147868
419.809	0.0148386
419.887	0.0148302
419.965	0.0147805
420.043	0.0148979
420.122	0.0147023
420.200	0.0148725
420.278	0.0149535
420.356	0.0147141
420.434	0.0148399
420.512	0.0147364
420.590	0.0147321
420.668	0.0148067
420.747	0.0147852
420.825	0.0148001
420.903	0.0147411
420.981	0.0148251
421.059	0.0147398
421.137	0.0147280
421.215	0.0149200
421.293	0.0147186
421.372	0.0147653
421.450	0.0147438
421.528	0.0146763
421.606	0.0147466
421.684	0.0148048
421.762	0.0147442
421.840	0.0147709
421.918	0.0148371
421.997	0.0147360
422.075	0.0148516
422.153	0.0148465
422.231	0.0148422
422.309	0.0148718
422.387	0.0147682
422.465	0.0147264
422.543	0.0146962
422.622	0.0147350
422.700	0.0148550
422.778	0.0148129
422.856	0.0147504
422.934	0.0146953
423.012	0.0147491
423.090	0.0148613
423.168	0.0147706
423.247	0.0147937
423.325	0.0146702
423.403	0.0147385
423.481	0.0147974
423.559	0.0147893
423.637	0.0148454
423.715	0.0147990
423.793	0.0147105
423.872	0.0147672
423.950	0.0147933
424.028	0.0146943
424.106	0.0147988
424.184	0.0146599
424.262	0.0148003
424.340	0.0147771
424.418	0.0147177
424.497	0.0146592
424.575	0.0147174
424.653	0.0148698
424.731	0.0148225
424.809	0.0147156
424.887	0.0147916
424.965	0.0147940
425.043	0.0147152
425.122	0.0147068
425.200	0.0147729
425.278	0.0147299
425.356	0.0148289
425.434	0.0146884
425.512	0.0147190
425.590	0.0146994
425.668	0.0147036
425.747	0.0146826
425.825	0.0147391
425.903	0.0148134
425.981	0.0147182
426.059	0.0147787
426.137	0.0147875
426.215	0.0148413
426.293	0.0148665
426.372	0.0148215
426.450	0.0147646
426.528	0.0147992
426.606	0.0147656
426.684	0.0147455
426.762	0.0146122
426.840	0.0146773
426.918	0.0147949
426.997	0.0147375
427.075	0.0147092
427.153	0.0147355
427.231	0.0147308
427.309	0.0147443
427.387	0.0146751
427.465	0.0148139
427.543	0.0148701
427.622	0.0148587
427.700	0.0147051
427.778	0.0147805
427.856	0.0147297
427.934	0.0148035
428.012	0.0147572
428.090	0.0147852
428.168	0.0147668
428.247	0.0148505
428.325	0.0148020
428.403	0.0148196
428.481	0.0146066
428.559	0.0147860
428.637	0.0147676
428.715	0.0148260
428.793	0.0147234
428.872	0.0146928
428.950	0.0145288
429.028	0.0146068
429.106	0.0147222
429.184	0.0148155
429.262	0.0149416
429.340	0.0146854
429.418	0.0148000
429.497	0.0146804
429.575	0.0147112
429.653	0.0148906
429.731	0.0147768
429.809	0.0149489
429.887	0.0148222
429.965	0.0147034
430.043	0.0147910
430.122	0.0147607
430.200	0.0147460
430.278	0.0147726
430.356	0.0148443
430.434	0.0147682
430.512	0.0147574
430.590	0.0146403
430.668	0.0147342
430.747	0.0147964
430.825	0.0147798
430.903	0.0148551
430.981	0.0147678
431.059	0.0148307
431.137	0.0148227
431.215	0.0147871
431.293	0.0147651
431.372	0.0148013
431.450	0.0147144
431.528	0.0147488
431.606	0.0148058
431.684	0.0147834
431.762	0.0147720
431.840	0.0148262
431.918	0.0147876
431.997	0.0148657
432.075	0.0148503
432.153	0.0147714
432.231	0.0146913
432.309	0.0147652
432.387	0.0148395
432.465	0.0147401
432.543	0.0147747
432.622	0.0147184
432.700	0.0147241
432.778	0.0147673
432.856	0.0147068
432.934	0.0148257
433.012	0.0148772
433.090	0.0149515
433.168	0.0148589
433.247	0.0147203
433.325	0.0147032
433.403	0.0148642
433.481	0.0147076
433.559	0.0147726
433.637	0.0147854
433.715	0.0148054
433.793	0.0148564
433.872	0.0147850
433.950	0.0148918
434.028	0.0147595
434.106	0.0147184
434.184	0.0148717
434.262	0.0148064
434.340	0.0148151
434.418	0.0148029
434.497	0.0148379
434.575	0.0147655
434.653	0.0146856
434.731	0.0147401
434.809	0.0147536
434.887	0.0148608
434.965	0.0147862
435.043	0.0150106
435.122	0.0147918
435.200	0.0146970
435.278	0.0146989
435.356	0.0146446
435.434	0.0146988
435.512	0.0147237
435.590	0.0147388
435.668	0.0146321
435.747	0.0148466
435.825	0.0147993
435.903	0.0147371
435.981	0.0148813
436.059	0.0147697
436.137	0.0148205
436.215	0.0147746
436.293	0.0146221
436.372	0.0147154
436.450	0.0148327
436.528	0.0147962
436.606	0.0147250
436.684	0.0148727
436.762	0.0147798
436.840	0.0147289
436.918	0.0147997
436.997	0.0147628
437.075	0.0147775
437.153	0.0147717
437.231	0.0148291
437.309	0.0148766
437.387	0.0147355
437.465	0.0147526
437.543	0.0148061
437.622	0.0147829
437.700	0.0147425
437.778	0.0147932
437.856	0.0148053
437.934	0.0148606
438.012	0.0146929
438.090	0.0149483
438.168	0.0148580
438.247	0.0147468
438.325	0.0146386
438.403	0.0147453
438.481	0.0146946
438.559	0.0147239
438.637	0.0146803
438.715	0.0147881
438.793	0.0147136
438.872	0.0146407
438.950	0.0148390
439.028	0.0148457
439.106	0.0146968
439.184	0.0146343
439.262	0.0148116
439.340	0.0146758
439.418	0.0147115
439.497	0.0149298
439.575	0.0147861
439.653	0.0147766
439.731	0.0148593
439.809	0.0148186
439.887	0.0148425
439.965	0.0149507
440.043	0.0148314
440.122	0.0146482
440.200	0.0148682
440.278	0.0148798
440.356	0.0147348
440.434	0.0147614
440.512	0.0148700
440.590	0.0148482
440.668	0.0147594
440.747	0.0148000
440.825	0.0147497
440.903	0.0147470
440.981	0.0148658
441.059	0.0146819
441.137	0.0146779
441.215	0.0146911
441.293	0.0147328
441.372	0.0148019
441.450	0.0148389
441.528	0.0148729
441.606	0.0147069
441.684	0.0147344
441.762	0.0147765
441.840	0.0146578
441.918	0.0148063
441.997	0.0147661
442.075	0.0147497
442.153	0.0148090
442.231	0.0148016
442.309	0.0147148
442.387	0.0146892
442.465	0.0147015
442.543	0.0147419
442.622	0.0147166
442.700	0.0148456
442.778	0.0146507
442.856	0.0146213
442.934	0.0147184
443.012	0.0147954
443.090	0.0146904
443.168	0.0147625
443.247	0.0148903
443.325	0.0147118
443.403	0.0146987
443.481	0.0148931
443.559	0.0147149
443.637	0.0148454
443.715	0.0148042
443.793	0.0148174
443.872	0.0147731
443.950	0.0147040
444.028	0.0147175
444.106	0.0149128
444.184	0.0148798
444.262	0.0145716
444.340	0.0146983
444.418	0.0148811
444.497	0.0148183
444.575	0.0148202
444.653	0.0148372
444.731	0.0148431
444.809	0.0148633
444.887	0.0147186
444.965	0.0147785
445.043	0.0146790
445.122	0.0146676
445.200	0.0147523
445.278	0.0147786
445.356	0.0148102
445.434	0.0147604
445.512	0.0147759
445.590	0.0147964
445.668	0.0147961
445.747	0.0147729
445.825	0.0147754
445.903	0.0148948
445.981	0.0147844
446.059	0.0147736
446.137	0.0148977
446.215	0.0149547
446.293	0.0148358
446.372	0.0146960
446.450	0.0148119
446.528	0.0147756
446.606	0.0147665
446.684	0.0149065
446.762	0.0148480
446.840	0.0149553
446.918	0.0147794
446.997	0.0147007
447.075	0.0148191
447.153	0.0149093
447.231	0.0147308
447.309	0.0148498
447.387	0.0147375
447.465	0.0146805
447.543	0.0149339
447.622	0.0147059
447.700	0.0146602
447.778	0.0147064
447.856	0.0147276
447.934	0.0148508
448.012	0.0146893
448.090	0.0147485
448.168	0.0145858
448.247	0.0148845
448.325	0.0148299
448.403	0.0146890
448.481	0.0147732
448.559	0.0147681
448.637	0.0147026
448.715	0.0148394
448.793	0.0148124
448.872	0.0146458
448.950	0.0147442
449.028	0.0148803
449.106	0.0148286
449.184	0.0147142
449.262	0.0147066
449.340	0.0146774
449.418	0.0148313
449.497	0.0148802
449.575	0.0147893
449.653	0.0148472
449.731	0.0148513
449.809	0.0148036
449.887	0.0147126
449.965	0.0147253
450.043	0.0148936
450.122	0.0147274
450.200	0.0147774
450.278	0.0148621
450.356	0.0147757
450.434	0.0147227
450.512	0.0148199
450.590	0.0148140
450.668	0.0148524
450.747	0.0149091
450.825	0.0148749
450.903	0.0147572
450.981	0.0149099
451.059	0.0148175
451.137	0.0148790
451.215	0.0147996
451.293	0.0147435
451.372	0.0148025
451.450	0.0147250
451.528	0.0147412
451.606	0.0147775
451.684	0.0148641
451.762	0.0147159
451.840	0.0146822
451.918	0.0147401
451.997	0.0147421
452.075	0.0146970
452.153	0.0147699
452.231	0.0147104
452.309	0.0147736
452.387	0.0147242
452.465	0.0147707
452.543	0.0147638
452.622	0.0148515
452.700	0.0146341
452.778	0.0146969
452.856	0.0147030
452.934	0.0147465
453.012	0.0147456
453.090	0.0147366
453.168	0.0147356
453.247	0.0146599
453.325	0.0149142
453.403	0.0148869
453.481	0.0147437
453.559	0.0146758
453.637	0.0147523
453.715	0.0148328
453.793	0.0147528
453.872	0.0147120
453.950	0.0146835
454.028	0.0148822
454.106	0.0147980
454.184	0.0148016
454.262	0.0148048
454.340	0.0147475
454.418	0.0147739
454.497	0.0146723
454.575	0.0147326
454.653	0.0149431
454.731	0.0148010
454.809	0.0147127
454.887	0.0148038
454.965	0.0148154
455.043	0.0148007
455.122	0.0147540
455.200	0.0148201
455.278	0.0147735
455.356	0.0147656
455.434	0.0148415
455.512	0.0149005
455.590	0.0147173
455.668	0.0147346
455.747	0.0147412
455.825	0.0146922
455.903	0.0147089
455.981	0.0148653
456.059	0.0147549
456.137	0.0146180
456.215	0.0146873
456.293	0.0147353
456.372	0.0148274
456.450	0.0146279
456.528	0.0147639
456.606	0.0148212
456.684	0.0147343
456.762	0.0146547
456.840	0.0147188
456.918	0.0147298
456.997	0.0147650
457.075	0.0148070
457.153	0.0147522
457.231	0.0147530
457.309	0.0149300
457.387	0.0148672
457.465	0.0148878
457.543	0.0146551
457.622	0.0148169
457.700	0.0148301
457.778	0.0147427
457.856	0.0147401
457.934	0.0145844
458.012	0.0147959
458.090	0.0148763
458.168	0.0147916
458.247	0.0147250
458.325	0.0147289
458.403	0.0147250
458.481	0.0148013
458.559	0.0148521
458.637	0.0147756
458.715	0.0147115
458.793	0.0147677
458.872	0.0149353
458.950	0.0148907
459.028	0.0147558
459.106	0.0146711
459.184	0.0148689
459.262	0.0148709
459.340	0.0147710
459.418	0.0147903
459.497	0.0147493
459.575	0.0149100
459.653	0.0147672
459.731	0.0147831
459.809	0.0148526
459.887	0.0148217
459.965	0.0149113
460.043	0.0148304
460.122	0.0148239
460.200	0.0147213
460.278	0.0147239
460.356	0.0148716
460.434	0.0147966
460.512	0.0147959
460.590	0.0147916
460.668	0.0146936
460.747	0.0148651
460.825	0.0149261
460.903	0.0147539
460.981	0.0147520
461.059	0.0148610
461.137	0.0148792
461.215	0.0148927
461.293	0.0147701
461.372	0.0148393
461.450	0.0148193
461.528	0.0147747
461.606	0.0148551
461.684	0.0147715
461.762	0.0146410
461.840	0.0148175
461.918	0.0149213
461.997	0.0148299
462.075	0.0147305
462.153	0.0147887
462.231	0.0147535
462.309	0.0147288
462.387	0.0148381
462.465	0.0148075
462.543	0.0146460
462.622	0.0147318
462.700	0.0147226
462.778	0.0147572
462.856	0.0148701
462.934	0.0146934
463.012	0.0147089
463.090	0.0147842
463.168	0.0147953
463.247	0.0146581
463.325	0.0147837
463.403	0.0148495
463.481	0.0149584
463.559	0.0147868
463.637	0.0147815
463.715	0.0147561
463.793	0.0146326
463.872	0.0148135
463.950	0.0146616
464.028	0.0146420
464.106	0.0148090
464.184	0.0147747
464.262	0.0147409
464.340	0.0147471
464.418	0.0147654
464.497	0.0147586
464.575	0.0146875
464.653	0.0146777
464.731	0.0147506
464.809	0.0147695
464.887	0.0147184
464.965	0.0147408
465.043	0.0146828
465.122	0.0146867
465.200	0.0146849
465.278	0.0146167
465.356	0.0147053
465.434	0.0146784
465.512	0.0146214
465.590	0.0147059
465.668	0.0147297
465.747	0.0148894
465.825	0.0148181
465.903	0.0147511
465.981	0.0147274
466.059	0.0147914
466.137	0.0146391
466.215	0.0146514
466.293	0.0146757
466.372	0.0146410
466.450	0.0148526
466.528	0.0146833
466.606	0.0146656
466.684	0.0146708
466.762	0.0146420
466.840	0.0147810
466.918	0.0146786
466.997	0.0147438
467.075	0.0146725
467.153	0.0147079
467.231	0.0147391
467.309	0.0147729
467.387	0.0147575
467.465	0.0147887
467.543	0.0149397
467.622	0.0147691
467.700	0.0146822
467.778	0.0147207
467.856	0.0147551
467.934	0.0148004
468.012	0.0147156
468.090	0.0147295
468.168	0.0147632
468.247	0.0146262
468.325	0.0148328
468.403	0.0148839
468.481	0.0146867
468.559	0.0147293
468.637	0.0147599
468.715	0.0148322
468.793	0.0148280
468.872	0.0146782
468.950	0.0147356
469.028	0.0148257
469.106	0.0148524
469.184	0.0149406
469.262	0.0145749
469.340	0.0147073
469.418	0.0148386
469.497	0.0147234
469.575	0.0148213
469.653	0.0146488
469.731	0.0147519
469.809	0.0147027
469.887	0.0148756
469.965	0.0146853
470.043	0.0146478
470.122	0.0147640
470.200	0.0148048
470.278	0.0148402
470.356	0.0148106
470.434	0.0148997
470.512	0.0145885
470.590	0.0148091
470.668	0.0147228
470.747	0.0146790
470.825	0.0147742
470.903	0.0148476
470.981	0.0147751
471.059	0.0148313
471.137	0.0147710
471.215	0.0147001
471.293	0.0147599
471.372	0.0147684
471.450	0.0147925
471.528	0.0147952
471.606	0.0148298
471.684	0.0148527
471.762	0.0147022
471.840	0.0148100
471.918	0.0147802
471.997	0.0147798
472.075	0.0148556
472.153	0.0147052
472.231	0.0147720
472.309	0.0148138
472.387	0.0148133
472.465	0.0148221
472.543	0.0148140
472.622	0.0147186
472.700	0.0146463
472.778	0.0148236
472.856	0.0147427
472.934	0.0145159
473.012	0.0145890
473.090	0.0147148
473.168	0.0148379
473.247	0.0148748
473.325	0.0148116
473.403	0.0147334
473.481	0.0147420
473.559	0.0147337
473.637	0.0146841
473.715	0.0147668
473.793	0.0147652
473.872	0.0147240
473.950	0.0147681
474.028	0.0147403
474.106	0.0146403
474.184	0.0147076
474.262	0.0146774
474.340	0.0148128
474.418	0.0148108
474.497	0.0146347
474.575	0.0147551
474.653	0.0147164
474.731	0.0147560
474.809	0.0148654
474.887	0.0148167
474.965	0.0148417
475.043	0.0147643
475.122	0.0147033
475.200	0.0146741
475.278	0.0146793
475.356	0.0147663
475.434	0.0146748
475.512	0.0148589
475.590	0.0147918
475.668	0.0148790
475.747	0.0147061
475.825	0.0147480
475.903	0.0147484
475.981	0.0146732
476.059	0.0147811
476.137	0.0146488
476.215	0.0146988
476.293	0.0148396
476.372	0.0148025
476.450	0.0148357
476.528	0.0147466
476.606	0.0146301
476.684	0.0148122
476.762	0.0148200
476.840	0.0146872
476.918	0.0147103
476.997	0.0147416
477.075	0.0147582
477.153	0.0148856
477.231	0.0148257
477.309	0.0148373
477.387	0.0147724
477.465	0.0147364
477.543	0.0146606
477.622	0.0148190
477.700	0.0147779
477.778	0.0147055
477.856	0.0148435
477.934	0.0147485
478.012	0.0146412
478.090	0.0146794
478.168	0.0147739
478.247	0.0146907
478.325	0.0147279
478.403	0.0146793
478.481	0.0147649
478.559	0.0148016
478.637	0.0147491
478.715	0.0146509
478.793	0.0146007
478.872	0.0148158
478.950	0.0147541
479.028	0.0147364
479.106	0.0147575
479.184	0.0147436
479.262	0.0148257
479.340	0.0147977
479.418	0.0148688
479.497	0.0148083
479.575	0.0147903
479.653	0.0147905
479.731	0.0146974
479.809	0.0148756
479.887	0.0146638
479.965	0.0148193
480.043	0.0147600
480.122	0.0147543
480.200	0.0147575
480.278	0.0146201
480.356	0.0147482
480.434	0.0148544
480.512	0.0147980
480.590	0.0147087
480.668	0.0147587
480.747	0.0147291
480.825	0.0148134
480.903	0.0147687
480.981	0.0146400
481.059	0.0147006
481.137	0.0147065
481.215	0.0147573
481.293	0.0148450
481.372	0.0147336
481.450	0.0147836
481.528	0.0148307
481.606	0.0148154
481.684	0.0147070
481.762	0.0146692
481.840	0.0147859
481.918	0.0149240
481.997	0.0147105
482.075	0.0148275
482.153	0.0147460
482.231	0.0147962
482.309	0.0146958
482.387	0.0147585
482.465	0.0148350
482.543	0.0147446
482.622	0.0147087
482.700	0.0146711
482.778	0.0147398
482.856	0.0148726
482.934	0.0146197
483.012	0.0146957
483.090	0.0147118
483.168	0.0147490
483.247	0.0147777
483.325	0.0145769
483.403	0.0146615
483.481	0.0147828
483.559	0.0148138
483.637	0.0148217
483.715	0.0147008
483.793	0.0147668
483.872	0.0147515
483.950	0.0147128
484.028	0.0146788
484.106	0.0147260
484.184	0.0147681
484.262	0.0147562
484.340	0.0148355
484.418	0.0147003
484.497	0.0147114
484.575	0.0147925
484.653	0.0147945
484.731	0.0147337
484.809	0.0148386
484.887	0.0147521
484.965	0.0146384
485.043	0.0147322
485.122	0.0148489
485.200	0.0147820
485.278	0.0147852
485.356	0.0147923
485.434	0.0147936
485.512	0.0147691
485.590	0.0148082
485.668	0.0146976
485.747	0.0147993
485.825	0.0147762
485.903	0.0147465
485.981	0.0147771
486.059	0.0147958
486.137	0.0147060
486.215	0.0147327
486.293	0.0147012
486.372	0.0146816
486.450	0.0148892
486.528	0.0148295
486.606	0.0147372
486.684	0.0147012
486.762	0.0147516
486.840	0.0147718
486.918	0.0147183
486.997	0.0148686
487.075	0.0148138
487.153	0.0147208
487.231	0.0147797
487.309	0.0147094
487.387	0.0146709
487.465	0.0147633
487.543	0.0147844
487.622	0.0147834
487.700	0.0147013
487.778	0.0146577
487.856	0.0145907
487.934	0.0147617
488.012	0.0148331
488.090	0.0148203
488.168	0.0148460
488.247	0.0146066
488.325	0.0148372
488.403	0.0147034
488.481	0.0147743
488.559	0.0147626
488.637	0.0147346
488.715	0.0146388
488.793	0.0147211
488.872	0.0148943
488.950	0.0148118
489.028	0.0147296
489.106	0.0147251
489.184	0.0146736
489.262	0.0147192
489.340	0.0147222
489.418	0.0147050
489.497	0.0146001
489.575	0.0147237
489.653	0.0147336
489.731	0.0147697
489.809	0.0147241
489.887	0.0145766
489.965	0.0147619
490.043	0.0148210
490.122	0.0147584
490.200	0.0147160
490.278	0.0146983
490.356	0.0146804
490.434	0.0146532
490.512	0.0147540
490.590	0.0147676
490.668	0.0148016
490.747	0.0149162
490.825	0.0147579
490.903	0.0148331
490.981	0.0147391
491.059	0.0147536
491.137	0.0146204
491.215	0.0147738
491.293	0.0147918
491.372	0.0147187
491.450	0.0148779
491.528	0.0147238
491.606	0.0147940
491.684	0.0148108
491.762	0.0148392
491.840	0.0147366
491.918	0.0146216
491.997	0.0146329
492.075	0.0147765
492.153	0.0147639
492.231	0.0146142
492.309	0.0147478
492.387	0.0147780
492.465	0.0148905
492.543	0.0147684
492.622	0.0147583
492.700	0.0147579
492.778	0.0148475
492.856	0.0147158
492.934	0.0147928
493.012	0.0147807
493.090	0.0147430
493.168	0.0148074
493.247	0.0149310
493.325	0.0147219
493.403	0.0146584
493.481	0.0145985
493.559	0.0146928
493.637	0.0148788
493.715	0.0146642
493.793	0.0147519
493.872	0.0147350
493.950	0.0146055
494.028	0.0147073
494.106	0.0149833
494.184	0.0147666
494.262	0.0147758
494.340	0.0149033
494.418	0.0147442
494.497	0.0146701
494.575	0.0146882
494.653	0.0147717
494.731	0.0146946
494.809	0.0148705
494.887	0.0147589
494.965	0.0147295
495.043	0.0146148
495.122	0.0147948
495.200	0.0147428
495.278	0.0147046
495.356	0.0147147
495.434	0.0147462
495.512	0.0146349
495.590	0.0146484
495.668	0.0148295
495.747	0.0147137
495.825	0.0146876
495.903	0.0147312
495.981	0.0147897
496.059	0.0147671
496.137	0.0147794
496.215	0.0146925
496.293	0.0148027
496.372	0.0146642
496.450	0.0148135
496.528	0.0147630
496.606	0.0146929
496.684	0.0148735
496.762	0.0148208
496.840	0.0148173
496.918	0.0148212
496.997	0.0146503
497.075	0.0148499
497.153	0.0148576
497.231	0.0147321
497.309	0.0147836
497.387	0.0147263
497.465	0.0148259
497.543	0.0148353
497.622	0.0148833
497.700	0.0147657
497.778	0.0148125
497.856	0.0147356
497.934	0.0147150
498.012	0.0148575
498.090	0.0146452
498.168	0.0147484
498.247	0.0147394
498.325	0.0147152
498.403	0.0145914
498.481	0.0147337
498.559	0.0145783
498.637	0.0146703
498.715	0.0148294
498.793	0.0148328
498.872	0.0146114
498.950	0.0146220
499.028	0.0147680
499.106	0.0147947
499.184	0.0146635
499.262	0.0147095
499.340	0.0147791
499.418	0.0145255
499.497	0.0147579
499.575	0.0147546
499.653	0.0147424
499.731	0.0147454
499.809	0.0147339
499.887	0.0148031
499.965	0.0148598
500.043	0.0147576
500.122	0.0147846
500.200	0.0148639
500.278	0.0148076
500.356	0.0148693
500.434	0.0146973
500.512	0.0147251
500.590	0.0147897
500.668	0.0147653
500.747	0.0146637
500.825	0.0148721
500.903	0.0147536
500.981	0.0147109
501.059	0.0146507
501.137	0.0147935
501.215	0.0147748
501.293	0.0147063
501.372	0.0147962
501.450	0.0148993
501.528	0.0148178
501.606	0.0148080
501.684	0.0148734
501.762	0.0146980
501.840	0.0147176
501.918	0.0147784
501.997	0.0149698
502.075	0.0146190
502.153	0.0145615
502.231	0.0150130
502.309	0.0147952
502.387	0.0148882
502.465	0.0147875
502.543	0.0147245
502.622	0.0147512
502.700	0.0147266
502.778	0.0147259
502.856	0.0146512
502.934	0.0149197
503.012	0.0148128
503.090	0.0147639
503.168	0.0146725
503.247	0.0149459
503.325	0.0147620
503.403	0.0147014
503.481	0.0149281
503.559	0.0147842
503.637	0.0147846
503.715	0.0147242
503.793	0.0146948
503.872	0.0146712
503.950	0.0146174
504.028	0.0147338
504.106	0.0147787
504.184	0.0147628
504.262	0.0148006
504.340	0.0147661
504.418	0.0148205
504.497	0.0148071
504.575	0.0147070
504.653	0.0147141
504.731	0.0148934
504.809	0.0147118
504.887	0.0146437
504.965	0.0146913
505.043	0.0147742
505.122	0.0147988
505.200	0.0148431
505.278	0.0147414
505.356	0.0148314
505.434	0.0147113
505.512	0.0146893
505.590	0.0147404
505.668	0.0147428
505.747	0.0147984
505.825	0.0147751
505.903	0.0148317
505.981	0.0147954
506.059	0.0147000
506.137	0.0146932
506.215	0.0147804
506.293	0.0148327
506.372	0.0147087
506.450	0.0147401
506.528	0.0147515
506.606	0.0146793
506.684	0.0147398
506.762	0.0148872
506.840	0.0147968
506.918	0.0149268
506.997	0.0147591
507.075	0.0146177
507.153	0.0148756
507.231	0.0146669
507.309	0.0147723
507.387	0.0147659
507.465	0.0147916
507.543	0.0149412
507.622	0.0146249
507.700	0.0147492
507.778	0.0148515
507.856	0.0147453
507.934	0.0147415
508.012	0.0148524
508.090	0.0146317
508.168	0.0146716
508.247	0.0147172
508.325	0.0147493
508.403	0.0148203
508.481	0.0147246
508.559	0.0148244
508.637	0.0146541
508.715	0.0148922
508.793	0.0148083
508.872	0.0147424
508.950	0.0146886
509.028	0.0147601
509.106	0.0147579
509.184	0.0146779
509.262	0.0146542
509.340	0.0148096
509.418	0.0146817
509.497	0.0147992
509.575	0.0147321
509.653	0.0147621
509.731	0.0147109
509.809	0.0147395
509.887	0.0148003
509.965	0.0146457
510.043	0.0146896
510.122	0.0147764
510.200	0.0147972
510.278	0.0148258
510.356	0.0147882
510.434	0.0146865
510.512	0.0148022
510.590	0.0147645
510.668	0.0147405
510.747	0.0147490
510.825	0.0146687
510.903	0.0147552
510.981	0.0147031
511.059	0.0148674
511.137	0.0147748
511.215	0.0145919
511.293	0.0146437
511.372	0.0147484
511.450	0.0147371
511.528	0.0148433
511.606	0.0146791
511.684	0.0147626
511.762	0.0148534
511.840	0.0148020
511.918	0.0148222
511.997	0.0148595
512.075	0.0145543
512.153	0.0145657
512.231	0.0147716
512.309	0.0146510
512.387	0.0147935
512.465	0.0147045
512.543	0.0147852
512.622	0.0146857
512.700	0.0147437
512.778	0.0148772
512.856	0.0147850
512.934	0.0148763
513.012	0.0148435
513.090	0.0147501
513.168	0.0148715
513.247	0.0147392
513.325	0.0147931
513.403	0.0147318
513.481	0.0147720
513.559	0.0146799
513.637	0.0148396
513.715	0.0147810
513.793	0.0147543
513.872	0.0148415
513.950	0.0148071
514.028	0.0147685
514.106	0.0146195
514.184	0.0148075
514.262	0.0147893
514.340	0.0147115
514.418	0.0147755
514.497	0.0147621
514.575	0.0147572
514.653	0.0147334
514.731	0.0147271
514.809	0.0147066
514.887	0.0146969
514.965	0.0146608
515.043	0.0146316
515.122	0.0148360
515.200	0.0148250
515.278	0.0147807
515.356	0.0148083
515.434	0.0146470
515.512	0.0146845
515.590	0.0148515
515.668	0.0148123
515.747	0.0147710
515.825	0.0146577
515.903	0.0148428
515.981	0.0147903
516.059	0.0147319
516.137	0.0146966
516.215	0.0147354
516.293	0.0147286
516.372	0.0148447
516.450	0.0147375
516.528	0.0146315
516.606	0.0148479
516.684	0.0147306
516.762	0.0147308
516.840	0.0148555
516.918	0.0147688
516.997	0.0146696
517.075	0.0148542
517.153	0.0148129
517.231	0.0147911
517.309	0.0147588
517.387	0.0146909
517.465	0.0148667
517.543	0.0146775
517.622	0.0146945
517.700	0.0147386
517.778	0.0145898
517.856	0.0146309
517.934	0.0148331
518.012	0.0148280
518.090	0.0148226
518.168	0.0147137
518.247	0.0147806
518.325	0.0146091
518.403	0.0147243
518.481	0.0146867
518.559	0.0148806
518.637	0.0147607
518.715	0.0148050
518.793	0.0147316
518.872	0.0147552
518.950	0.0148105
519.028	0.0148373
519.106	0.0147710
519.184	0.0147269
519.262	0.0147227
519.340	0.0147976
519.418	0.0146773
519.497	0.0147563
519.575	0.0148240
519.653	0.0147697
519.731	0.0147755
519.809	0.0147874
519.887	0.0148688
519.965	0.0147419
520.043	0.0148562
520.122	0.0148006
520.200	0.0147356
520.278	0.0147895
520.356	0.0147971
520.434	0.0147375
520.512	0.0147982
520.590	0.0147919
520.668	0.0147252
520.747	0.0147414
520.825	0.0147202
520.903	0.0147145
520.981	0.0148080
521.059	0.0147741
521.137	0.0146930
521.215	0.0147971
521.293	0.0148129
521.372	0.0147636
521.450	0.0147647
521.528	0.0148242
521.606	0.0148501
521.684	0.0147326
521.762	0.0147559
521.840	0.0146221
521.918	0.0147381
521.997	0.0147292
522.075	0.0147540
522.153	0.0146852
522.231	0.0147598
522.309	0.0147961
522.387	0.0147903
522.465	0.0148106
522.543	0.0147509
522.622	0.0147102
522.700	0.0147183
522.778	0.0147861
522.856	0.0147601
522.934	0.0148739
523.012	0.0148455
523.090	0.0147098
523.168	0.0148170
523.247	0.0147422
523.325	0.0149033
523.403	0.0148474
523.481	0.0148579
523.559	0.0147494
523.637	0.0147144
523.715	0.0146938
523.793	0.0147594
523.872	0.0149084
523.950	0.0147540
524.028	0.0147441
524.106	0.0146090
524.184	0.0148144
524.262	0.0148087
524.340	0.0149187
524.418	0.0147870
524.497	0.0147012
524.575	0.0148457
524.653	0.0146989
524.731	0.0149086
524.809	0.0148421
524.887	0.0148886
524.965	0.0147501
525.043	0.0147085
525.122	0.0147917
525.200	0.0146745
525.278	0.0148361
525.356	0.0146950
525.434	0.0145991
525.512	0.0146668
525.590	0.0147058
525.668	0.0148048
525.747	0.0146896
525.825	0.0147084
525.903	0.0147617
525.981	0.0147381
526.059	0.0147332
526.137	0.0148055
526.215	0.0146815
526.293	0.0146614
526.372	0.0147433
526.450	0.0148091
526.528	0.0148168
526.606	0.0147519
526.684	0.0147131
526.762	0.0147199
526.840	0.0147389
526.918	0.0148813
526.997	0.0147788
527.075	0.0147013
527.153	0.0146729
527.231	0.0147495
527.309	0.0147417
527.387	0.0147778
527.465	0.0147156
527.543	0.0147442
527.622	0.0149303
527.700	0.0146593
527.778	0.0148473
527.856	0.0147902
527.934	0.0148091
528.012	0.0146216
528.090	0.0147411
528.168	0.0147758
528.247	0.0147684
528.325	0.0146394
528.403	0.0149039
528.481	0.0148524
528.559	0.0147713
528.637	0.0147609
528.715	0.0147184
528.793	0.0148397
528.872	0.0148450
528.950	0.0147439
529.028	0.0147949
529.106	0.0147462
529.184	0.0148363
529.262	0.0147359
529.340	0.0147845
529.418	0.0146735
529.497	0.0147897
529.575	0.0148187
529.653	0.0147495
529.731	0.0147589
529.809	0.0147336
529.887	0.0147082
529.965	0.0148648
530.043	0.0148324
530.122	0.0147121
530.200	0.0146950
530.278	0.0146348
530.356	0.0148434
530.434	0.0147906
530.512	0.0148889
530.590	0.0146849
530.668	0.0147088
530.747	0.0146931
530.825	0.0147473
530.903	0.0146857
530.981	0.0148888
531.059	0.0148880
531.137	0.0147518
531.215	0.0147723
531.293	0.0147393
531.372	0.0147997
531.450	0.0148232
531.528	0.0147714
531.606	0.0147900
531.684	0.0148566
531.762	0.0148353
531.840	0.0147176
531.918	0.0147870
531.997	0.0147542
532.075	0.0147272
532.153	0.0146964
532.231	0.0148335
532.309	0.0147742
532.387	0.0148990
532.465	0.0146844
532.543	0.0147017
532.622	0.0148749
532.700	0.0147883
532.778	0.0147333
532.856	0.0149421
532.934	0.0147105
533.012	0.0148870
533.090	0.0147782
533.168	0.0149257
533.247	0.0148839
533.325	0.0147111
533.403	0.0146679
533.481	0.0147211
533.559	0.0149002
533.637	0.0148312
533.715	0.0147959
533.793	0.0147195
533.872	0.0147742
533.950	0.0146524
534.028	0.0146528
534.106	0.0148274
534.184	0.0148306
534.262	0.0147620
534.340	0.0148278
534.418	0.0148716
534.497	0.0147711
534.575	0.0147345
534.653	0.0148488
534.731	0.0147543
534.809	0.0148848
534.887	0.0148051
534.965	0.0147888
535.043	0.0148703
535.122	0.0148767
535.200	0.0146854
535.278	0.0149092
535.356	0.0148627
535.434	0.0148187
535.512	0.0147937
535.590	0.0146685
535.668	0.0148118
535.747	0.0148280
535.825	0.0146987
535.903	0.0147456
535.981	0.0148080
536.059	0.0146915
536.137	0.0148507
536.215	0.0147727
536.293	0.0147478
536.372	0.0147617
536.450	0.0147364
536.528	0.0148996
536.606	0.0147875
536.684	0.0147154
536.762	0.0147289
536.840	0.0148623
536.918	0.0147510
536.997	0.0147707
537.075	0.0148183
537.153	0.0147872
537.231	0.0148141
537.309	0.0147136
537.387	0.0147746
537.465	0.0147049
537.543	0.0148701
537.622	0.0147380
537.700	0.0146578
537.778	0.0148818
537.856	0.0147798
537.934	0.0146414
538.012	0.0146655
538.090	0.0147870
538.168	0.0148869
538.247	0.0146416
538.325	0.0147200
538.403	0.0147866
538.481	0.0148236
538.559	0.0146291
538.637	0.0147552
538.715	0.0148652
538.793	0.0149220
538.872	0.0146536
538.950	0.0147851
539.028	0.0147430
539.106	0.0147898
539.184	0.0148829
539.262	0.0148379
539.340	0.0146400
539.418	0.0146460
539.497	0.0147356
539.575	0.0149010
539.653	0.0148131
539.731	0.0146596
539.809	0.0147387
539.887	0.0148006
539.965	0.0146923
540.043	0.0148313
540.122	0.0148668
540.200	0.0147134
540.278	0.0147007
540.356	0.0149151
540.434	0.0147545
540.512	0.0147623
540.590	0.0147626
540.668	0.0146322
540.747	0.0147398
540.825	0.0148723
540.903	0.0146935
540.981	0.0149277
541.059	0.0148714
541.137	0.0147347
541.215	0.0147444
541.293	0.0149093
541.372	0.0147590
541.450	0.0146901
541.528	0.0147800
541.606	0.0148045
541.684	0.0147721
541.762	0.0147880
541.840	0.0147282
541.918	0.0147682
541.997	0.0148397
542.075	0.0148636
542.153	0.0148598
542.231	0.0147688
542.309	0.0149257
542.387	0.0147584
542.465	0.0147789
542.543	0.0148266
542.622	0.0147753
542.700	0.0147910
542.778	0.0148361
542.856	0.0147993
542.934	0.0148338
543.012	0.0148357
543.090	0.0148746
543.168	0.0147194
543.247	0.0148386
543.325	0.0148185
543.403	0.0147800
543.481	0.0147839
543.559	0.0148763
543.637	0.0148060
543.715	0.0149110
543.793	0.0149435
543.872	0.0147373
543.950	0.0147555
544.028	0.0149300
544.106	0.0148841
544.184	0.0148571
544.262	0.0147800
544.340	0.0146395
544.418	0.0147429
544.497	0.0148715
544.575	0.0147964
544.653	0.0147755
544.731	0.0147816
544.809	0.0147164
544.887	0.0148406
544.965	0.0147920
545.043	0.0148308
545.122	0.0146977
545.200	0.0149638
545.278	0.0146991
545.356	0.0147331
545.434	0.0148324
545.512	0.0148431
545.590	0.0147352
545.668	0.0147506
545.747	0.0147820
545.825	0.0148492
545.903	0.0149400
545.981	0.0147890
546.059	0.0147610
546.137	0.0147655
546.215	0.0148749
546.293	0.0148158
546.372	0.0147539
546.450	0.0148162
546.528	0.0148672
546.606	0.0147031
546.684	0.0147580
546.762	0.0148341
546.840	0.0146937
546.918	0.0146288
546.997	0.0146142
547.075	0.0147060
547.153	0.0147358
547.231	0.0148763
547.309	0.0146077
547.387	0.0147008
547.465	0.0146490
547.543	0.0147521
547.622	0.0148079
547.700	0.0146972
547.778	0.0146576
547.856	0.0147681
547.934	0.0147246
548.012	0.0147424
548.090	0.0147047
548.168	0.0146322
548.247	0.0146915
548.325	0.0148689
548.403	0.0147912
548.481	0.0147498
548.559	0.0149178
548.637	0.0148605
548.715	0.0148491
548.793	0.0148064
548.872	0.0147172
548.950	0.0147770
549.028	0.0147913
549.106	0.0147659
549.184	0.0148568
549.262	0.0147970
549.340	0.0146941
549.418	0.0147684
549.497	0.0147508
549.575	0.0147469
549.653	0.0148319
549.731	0.0147625
549.809	0.0146716
549.887	0.0148027
549.965	0.0148856
550.043	0.0147681
550.122	0.0149392
550.200	0.0148942
550.278	0.0147832
550.356	0.0148261
550.434	0.0149046
550.512	0.0147043
550.590	0.0147861
550.668	0.0148308
550.747	0.0148830
550.825	0.0148978
550.903	0.0148486
550.981	0.0147444
551.059	0.0148446
551.137	0.0147570
551.215	0.0148274
551.293	0.0147990
551.372	0.0148795
551.450	0.0148432
551.528	0.0148009
551.606	0.0147275
551.684	0.0147403
551.762	0.0148399
551.840	0.0149186
551.918	0.0147362
551.997	0.0146822
552.075	0.0148102
552.153	0.0147369
552.231	0.0148804
552.309	0.0148940
552.387	0.0148576
552.465	0.0148350
552.543	0.0147210
552.622	0.0148209
552.700	0.0148451
552.778	0.0148905
552.856	0.0147684
552.934	0.0148253
553.012	0.0147655
553.090	0.0147749
553.168	0.0146649
553.247	0.0148512
553.325	0.0148441
553.403	0.0147676
553.481	0.0147447
553.559	0.0149335
553.637	0.0148563
553.715	0.0148276
553.793	0.0148511
553.872	0.0149347
553.950	0.0147984
554.028	0.0148714
554.106	0.0146918
554.184	0.0147056
554.262	0.0148221
554.340	0.0149308
554.418	0.0148083
554.497	0.0147066
554.575	0.0147368
554.653	0.0148216
554.731	0.0147832
554.809	0.0148416
554.887	0.0148173
554.965	0.0147382
555.043	0.0147926
555.122	0.0148647
555.200	0.0147348
555.278	0.0147146
555.356	0.0147372
555.434	0.0146865
555.512	0.0149087
555.590	0.0148903
555.668	0.0146319
555.747	0.0148195
555.825	0.0149239
555.903	0.0149889
555.981	0.0147555
556.059	0.0149178
556.137	0.0147049
556.215	0.0149532
556.293	0.0149168
556.372	0.0147835
556.450	0.0148370
556.528	0.0148737
556.606	0.0147599
556.684	0.0148874
556.762	0.0148947
556.840	0.0147751
556.918	0.0148714
556.997	0.0149228
557.075	0.0147018
557.153	0.0146474
557.231	0.0148823
557.309	0.0149656
557.387	0.0147679
557.465	0.0147796
557.543	0.0147325
557.622	0.0148805
557.700	0.0148502
557.778	0.0148603
557.856	0.0148151
557.934	0.0146236
558.012	0.0147895
558.090	0.0149494
558.168	0.0147090
558.247	0.0147386
558.325	0.0148286
558.403	0.0148442
558.481	0.0147404
558.559	0.0147993
558.637	0.0147599
558.715	0.0147926
558.793	0.0148040
558.872	0.0147469
558.950	0.0147708
559.028	0.0148280
559.106	0.0147900
559.184	0.0147071
559.262	0.0148300
559.340	0.0147385
559.418	0.0147979
559.497	0.0146050
559.575	0.0147520
559.653	0.0148615
559.731	0.0146199
559.809	0.0146191
559.887	0.0147083
559.965	0.0149130
560.043	0.0148434
560.122	0.0148000
560.200	0.0147623
560.278	0.0146848
560.356	0.0147442
560.434	0.0146428
560.512	0.0146970
560.590	0.0148163
560.668	0.0148146
560.747	0.0147965
560.825	0.0147142
560.903	0.0147869
560.981	0.0148699
561.059	0.0148939
561.137	0.0146607
561.215	0.0147145
561.293	0.0146747
561.372	0.0148242
561.450	0.0147160
561.528	0.0146959
561.606	0.0146990
561.684	0.0146733
561.762	0.0147319
561.840	0.0148091
561.918	0.0146765
561.997	0.0146586
562.075	0.0147516
562.153	0.0147540
562.231	0.0148116
562.309	0.0148067
562.387	0.0147968
562.465	0.0149001
562.543	0.0148944
562.622	0.0146946
562.700	0.0147340
562.778	0.0147883
562.856	0.0146823
562.934	0.0148041
563.012	0.0147212
563.090	0.0147675
563.168	0.0147600
563.247	0.0147172
563.325	0.0146643
563.403	0.0147853
563.481	0.0147367
563.559	0.0147055
563.637	0.0148553
563.715	0.0147005
563.793	0.0147092
563.872	0.0146793
563.950	0.0146507
564.028	0.0146880
564.106	0.0146770
564.184	0.0147413
564.262	0.0148159
564.340	0.0148639
564.418	0.0148601
564.497	0.0148141
564.575	0.0146250
564.653	0.0148409
564.731	0.0147939
564.809	0.0148902
564.887	0.0149151
564.965	0.0148495
565.043	0.0148065
565.122	0.0147079
565.200	0.0147634
565.278	0.0147947
565.356	0.0146311
565.434	0.0149594
565.512	0.0147649
565.590	0.0147874
565.668	0.0147076
565.747	0.0148431
565.825	0.0147851
565.903	0.0147530
565.981	0.0147939
566.059	0.0146645
566.137	0.0147935
566.215	0.0146860
566.293	0.0147530
566.372	0.0146568
566.450	0.0148523
566.528	0.0148065
566.606	0.0147118
566.684	0.0147745
566.762	0.0148338
566.840	0.0147309
566.918	0.0147189
566.997	0.0147417
567.075	0.0147900
567.153	0.0147644
567.231	0.0146399
567.309	0.0145884
567.387	0.0147885
567.465	0.0147103
567.543	0.0146329
567.622	0.0146947
567.700	0.0146552
567.778	0.0148166
567.856	0.0148391
567.934	0.0147091
568.012	0.0147986
568.090	0.0148454
568.168	0.0147832
568.247	0.0148235
568.325	0.0148688
568.403	0.0147017
568.481	0.0147964
568.559	0.0148538
568.637	0.0148152
568.715	0.0147130
568.793	0.0147155
568.872	0.0147173
568.950	0.0147125
569.028	0.0148464
569.106	0.0147792
569.184	0.0147141
569.262	0.0147665
569.340	0.0146298
569.418	0.0147202
569.497	0.0147929
569.575	0.0147375
569.653	0.0147641
569.731	0.0147206
569.809	0.0147280
569.887	0.0147588
569.965	0.0147858
570.043	0.0147440
570.122	0.0147678
570.200	0.0147614
570.278	0.0147965
570.356	0.0147710
570.434	0.0148763
570.512	0.0148413
570.590	0.0149060
570.668	0.0148043
570.747	0.0147404
570.825	0.0148240
570.903	0.0146554
570.981	0.0148512
571.059	0.0148228
571.137	0.0147288
571.215	0.0147503
571.293	0.0147741
571.372	0.0147260
571.450	0.0148403
571.528	0.0148405
571.606	0.0147277
571.684	0.0148369
571.762	0.0147005
571.840	0.0148261
571.918	0.0147801
571.997	0.0147556
572.075	0.0147593
572.153	0.0146833
572.231	0.0148225
572.309	0.0148543
572.387	0.0148089
572.465	0.0148208
572.543	0.0146821
572.622	0.0148569
572.700	0.0147549
572.778	0.0147009
572.856	0.0149289
572.934	0.0148218
573.012	0.0147514
573.090	0.0147992
573.168	0.0147753
573.247	0.0146880
573.325	0.0148120
573.403	0.0147276
573.481	0.0147089
573.559	0.0146622
573.637	0.0147621
573.715	0.0148901
573.793	0.0147430
573.872	0.0147906
573.950	0.0148118
574.028	0.0147533
574.106	0.0147192
574.184	0.0147063
574.262	0.0147531
574.340	0.0147723
574.418	0.0148592
574.497	0.0147765
574.575	0.0147018
574.653	0.0147905
574.731	0.0149086
574.809	0.0147855
574.887	0.0147588
574.965	0.0148398
575.043	0.0148395
575.122	0.0146896
575.200	0.0148386
575.278	0.0147881
575.356	0.0145868
575.434	0.0147502
575.512	0.0145649
575.590	0.0147821
575.668	0.0148454
575.747	0.0147932
575.825	0.0147132
575.903	0.0146709
575.981	0.0148339
576.059	0.0147766
576.137	0.0148212
576.215	0.0146971
576.293	0.0148560
576.372	0.0146789
576.450	0.0147388
576.528	0.0147878
576.606	0.0148122
576.684	0.0147886
576.762	0.0148427
576.840	0.0146703
576.918	0.0148367
576.997	0.0146616
577.075	0.0147842
577.153	0.0148515
577.231	0.0146989
577.309	0.0147585
577.387	0.0147404
577.465	0.0146828
577.543	0.0146989
577.622	0.0148405
577.700	0.0148284
577.778	0.0147677
577.856	0.0147863
577.934	0.0147634
578.012	0.0147890
578.090	0.0148486
578.168	0.0148149
578.247	0.0147129
578.325	0.0149171
578.403	0.0146651
578.481	0.0147511
578.559	0.0148301
578.637	0.0148161
578.715	0.0147962
578.793	0.0148956
578.872	0.0148212
578.950	0.0147146
579.028	0.0147900
579.106	0.0148981
579.184	0.0149073
579.262	0.0147989
579.340	0.0147537
579.418	0.0147899
579.497	0.0148815
579.575	0.0148272
579.653	0.0148656
579.731	0.0148321
579.809	0.0147240
579.887	0.0147727
579.965	0.0148551
580.043	0.0148145
580.122	0.0148708
580.200	0.0147281
580.278	0.0147618
580.356	0.0146776
580.434	0.0147424
580.512	0.0146957
580.590	0.0147897
580.668	0.0148488
580.747	0.0148721
580.825	0.0148147
580.903	0.0148951
580.981	0.0147408
581.059	0.0147055
581.137	0.0148246
581.215	0.0147620
581.293	0.0146925
581.372	0.0148492
581.450	0.0148849
581.528	0.0148029
581.606	0.0148676
581.684	0.0148218
581.762	0.0146858
581.840	0.0147707
581.918	0.0149299
581.997	0.0147644
582.075	0.0146290
582.153	0.0146878
582.231	0.0147517
582.309	0.0146677
582.387	0.0147765
582.465	0.0148318
582.543	0.0146451
582.622	0.0146421
582.700	0.0147955
582.778	0.0147375
582.856	0.0147912
582.934	0.0147160
583.012	0.0147073
583.090	0.0146696
583.168	0.0146372
583.247	0.0147250
583.325	0.0147412
583.403	0.0148463
583.481	0.0147057
583.559	0.0147556
583.637	0.0148178
583.715	0.0147298
583.793	0.0147205
583.872	0.0146088
583.950	0.0146801
584.028	0.0147227
584.106	0.0147954
584.184	0.0146978
584.262	0.0148248
584.340	0.0147927
584.418	0.0146365
584.497	0.0147691
584.575	0.0148480
584.653	0.0147582
584.731	0.0148199
584.809	0.0148461
584.887	0.0148477
584.965	0.0149220
585.043	0.0147633
585.122	0.0148241
585.200	0.0149455
585.278	0.0147762
585.356	0.0148507
585.434	0.0147057
585.512	0.0147523
585.590	0.0148217
585.668	0.0146849
585.747	0.0146661
585.825	0.0148683
585.903	0.0148620
585.981	0.0146646
586.059	0.0147719
586.137	0.0148858
586.215	0.0147511
586.293	0.0148102
586.372	0.0147084
586.450	0.0148497
586.528	0.0148092
586.606	0.0147865
586.684	0.0147460
586.762	0.0147586
586.840	0.0147755
586.918	0.0147950
586.997	0.0148859
587.075	0.0147968
587.153	0.0147321
587.231	0.0148197
587.309	0.0147203
587.387	0.0147375
587.465	0.0147293
587.543	0.0146666
587.622	0.0148370
587.700	0.0146484
587.778	0.0147495
587.856	0.0148062
587.934	0.0146983
588.012	0.0146802
588.090	0.0147482
588.168	0.0147322
588.247	0.0147102
588.325	0.0148158
588.403	0.0148949
588.481	0.0148231
588.559	0.0147925
588.637	0.0147511
588.715	0.0148141
588.793	0.0146857
588.872	0.0148147
588.950	0.0148386
589.028	0.0148813
589.106	0.0148795
589.184	0.0148107
589.262	0.0148346
589.340	0.0148222
589.418	0.0148439
589.497	0.0147405
589.575	0.0148844
589.653	0.0147048
589.731	0.0147062
589.809	0.0147481
589.887	0.0148729
589.965	0.0148136
590.043	0.0148098
590.122	0.0148469
590.200	0.0148195
590.278	0.0148308
590.356	0.0147827
590.434	0.0146976
590.512	0.0147725
590.590	0.0147753
590.668	0.0147894
590.747	0.0147401
590.825	0.0146802
590.903	0.0147117
590.981	0.0146603
591.059	0.0148023
591.137	0.0146969
591.215	0.0147623
591.293	0.0149090
591.372	0.0146642
591.450	0.0147613
591.528	0.0148186
591.606	0.0147382
591.684	0.0147910
591.762	0.0147567
591.840	0.0147497
591.918	0.0148582
591.997	0.0147384
592.075	0.0147662
592.153	0.0147686
592.231	0.0147786
592.309	0.0147630
592.387	0.0148483
592.465	0.0147746
592.543	0.0148547
592.622	0.0148057
592.700	0.0149037
592.778	0.0147538
592.856	0.0146062
592.934	0.0146876
593.012	0.0148548
593.090	0.0148413
593.168	0.0147386
593.247	0.0145769
593.325	0.0147316
593.403	0.0147234
593.481	0.0147136
593.559	0.0147990
593.637	0.0147495
593.715	0.0147831
593.793	0.0146361
593.872	0.0146699
593.950	0.0147899
594.028	0.0147066
594.106	0.0147070
594.184	0.0146479
594.262	0.0148133
594.340	0.0148286
594.418	0.0147361
594.497	0.0147891
594.575	0.0146991
594.653	0.0147954
594.731	0.0147580
594.809	0.0147965
594.887	0.0148216
594.965	0.0146700
595.043	0.0147811
595.122	0.0147502
595.200	0.0147604
595.278	0.0148809
595.356	0.0148489
595.434	0.0148396
595.512	0.0147379
595.590	0.0147836
595.668	0.0147256
595.747	0.0147092
595.825	0.0148289
595.903	0.0148901
595.981	0.0148737
596.059	0.0147061
596.137	0.0147357
596.215	0.0148242
596.293	0.0147972
596.372	0.0147335
596.450	0.0148159
596.528	0.0147677
596.606	0.0148609
596.684	0.0148586
596.762	0.0145705
596.840	0.0147276
596.918	0.0147622
596.997	0.0147871
597.075	0.0148060
597.153	0.0146838
597.231	0.0148953
597.309	0.0148135
597.387	0.0148151
597.465	0.0147234
597.543	0.0147705
597.622	0.0148067
597.700	0.0147977
597.778	0.0147098
597.856	0.0146853
597.934	0.0150126
598.012	0.0148276
598.090	0.0146970
598.168	0.0147305
598.247	0.0147762
598.325	0.0147620
598.403	0.0147629
598.481	0.0148946
598.559	0.0148255
598.637	0.0148305
598.715	0.0147940
598.793	0.0148788
598.872	0.0148227
598.950	0.0146851
599.028	0.0148883
599.106	0.0147230
599.184	0.0147906
599.262	0.0147263
599.340	0.0148238
599.418	0.0147268
599.497	0.0147280
599.575	0.0148597
599.653	0.0148443
599.731	0.0147990
599.809	0.0148682
599.887	0.0148190
599.965	0.0147746
600.043	0.0147355
600.122	0.0147287
600.200	0.0149027
600.278	0.0148818
600.356	0.0148074
600.434	0.0148134
600.512	0.0147884
600.590	0.0148052
600.668	0.0147538
600.747	0.0146980
600.825	0.0147278
600.903	0.0148749
600.981	0.0149179
601.059	0.0148013
601.137	0.0148045
601.215	0.0147008
601.293	0.0146208
601.372	0.0148068
601.450	0.0148071
601.528	0.0148117
601.606	0.0148486
601.684	0.0148459
601.762	0.0148947
601.840	0.0147954
601.918	0.0149134
601.997	0.0148763
602.075	0.0147578
602.153	0.0148432
602.231	0.0149104
602.309	0.0149328
602.387	0.0148020
602.465	0.0146960
602.543	0.0148676
602.622	0.0148009
602.700	0.0148668
602.778	0.0147796
602.856	0.0147596
602.934	0.0148645
603.012	0.0149403
603.090	0.0147082
603.168	0.0147967
603.247	0.0147105
603.325	0.0146703
603.403	0.0147708
603.481	0.0148128
603.559	0.0146187
603.637	0.0147207
603.715	0.0149062
603.793	0.0148554
603.872	0.0148190
603.950	0.0148514
604.028	0.0147625
604.106	0.0147766
604.184	0.0148177
604.262	0.0147836
604.340	0.0147675
604.418	0.0148252
604.497	0.0147461
604.575	0.0147467
604.653	0.0147912
604.731	0.0145373
604.809	0.0148513
604.887	0.0147825
604.965	0.0149163
605.043	0.0146899
605.122	0.0149038
605.200	0.0148687
605.278	0.0147471
605.356	0.0147765
605.434	0.0149253
605.512	0.0148254
605.590	0.0147490
605.668	0.0148096
605.747	0.0147646
605.825	0.0147502
605.903	0.0148064
605.981	0.0148202
606.059	0.0149020
606.137	0.0147119
606.215	0.0148289
606.293	0.0147792
606.372	0.0147220
606.450	0.0148804
606.528	0.0147232
606.606	0.0148693
606.684	0.0147658
606.762	0.0147916
606.840	0.0147058
606.918	0.0146954
606.997	0.0149001
607.075	0.0148648
607.153	0.0148727
607.231	0.0147655
607.309	0.0147616
607.387	0.0146646
607.465	0.0146646
607.543	0.0148768
607.622	0.0147703
607.700	0.0146807
607.778	0.0146619
607.856	0.0148275
607.934	0.0148296
608.012	0.0146996
608.090	0.0147755
608.168	0.0146861
608.247	0.0146353
608.325	0.0148407
608.403	0.0148448
608.481	0.0146635
608.559	0.0146065
608.637	0.0146182
608.715	0.0146894
608.793	0.0146926
608.872	0.0148000
608.950	0.0147256
609.028	0.0147468
609.106	0.0148306
609.184	0.0149812
609.262	0.0149916
609.340	0.0150590
609.418	0.0151647
609.497	0.0150797
609.575	0.0150096
609.653	0.0152386
609.731	0.0153581
609.809	0.0152405
609.887	0.0153211
609.965	0.0153236
610.043	0.0153648
610.122	0.0152654
610.200	0.0152559
610.278	0.0153322
610.356	0.0154121
610.434	0.0153671
610.512	0.0152958
610.590	0.0150068
610.668	0.0149710
610.747	0.0149428
610.825	0.0148704
610.903	0.0148483
610.981	0.0149496
611.059	0.0147426
611.137	0.0145884
611.215	0.0146852
611.293	0.0145773
611.372	0.0145474
611.450	0.0144988
611.528	0.0145096
611.606	0.0144592
611.684	0.0144425
611.762	0.0144093
611.840	0.0143359
611.918	0.0145168
611.997	0.0145091
612.075	0.0145206
612.153	0.0144656
612.231	0.0145625
612.309	0.0146881
612.387	0.0146088
612.465	0.0146336
612.543	0.0146430
612.622	0.0146995
612.700	0.0147855
612.778	0.0147038
612.856	0.0147414
612.934	0.0147372
613.012	0.0148534
613.090	0.0147570
613.168	0.0148272
613.247	0.0148325
613.325	0.0146849
613.403	0.0147494
613.481	0.0148008
613.559	0.0146756
613.637	0.0147964
613.715	0.0147186
613.793	0.0146567
613.872	0.0146650
613.950	0.0147269
614.028	0.0147005
614.106	0.0148386
614.184	0.0146487
614.262	0.0145702
614.340	0.0145912
614.418	0.0147029
614.497	0.0147176
614.575	0.0146504
614.653	0.0146670
614.731	0.0146004
614.809	0.0148763
614.887	0.0148303
614.965	0.0148540
615.043	0.0147354
615.122	0.0147914
615.200	0.0147635
615.278	0.0147098
615.356	0.0148666
615.434	0.0147552
615.512	0.0147322
615.590	0.0147131
615.668	0.0146411
615.747	0.0147047
615.825	0.0147330
615.903	0.0147731
615.981	0.0147321
616.059	0.0147063
616.137	0.0147484
616.215	0.0147805
616.293	0.0147349
616.372	0.0148917
616.450	0.0149004
616.528	0.0147117
616.606	0.0148074
616.684	0.0148479
616.762	0.0146861
616.840	0.0146615
616.918	0.0147820
616.997	0.0145982
617.075	0.0146922
617.153	0.0147112
617.231	0.0147086
617.309	0.0148135
617.387	0.0147775
617.465	0.0147894
617.543	0.0147696
617.622	0.0148103
617.700	0.0148659
617.778	0.0149496
617.856	0.0147781
617.934	0.0148559
618.012	0.0146690
618.090	0.0148215
618.168	0.0147556
618.247	0.0146912
618.325	0.0148299
618.403	0.0148435
618.481	0.0146461
618.559	0.0147737
618.637	0.0147108
618.715	0.0147874
618.793	0.0148228
618.872	0.0147651
618.950	0.0147959
619.028	0.0146842
619.106	0.0147697
619.184	0.0148309
619.262	0.0147712
619.340	0.0147784
619.418	0.0147651
619.497	0.0149490
619.575	0.0147006
619.653	0.0148692
619.731	0.0147598
619.809	0.0148422
619.887	0.0149011
619.965	0.0148721
620.043	0.0148952
620.122	0.0148214
620.200	0.0147476
620.278	0.0147729
620.356	0.0147301
620.434	0.0147894
620.512	0.0147987
620.590	0.0149677
620.668	0.0148590
620.747	0.0148633
620.825	0.0147803
620.903	0.0148340
620.981	0.0148093
621.059	0.0148114
621.137	0.0148167
621.215	0.0148019
621.293	0.0147626
621.372	0.0147216
621.450	0.0147408
621.528	0.0147869
621.606	0.0147141
621.684	0.0146622
621.762	0.0147689
621.840	0.0147861
621.918	0.0146506
621.997	0.0146576
622.075	0.0147173
622.153	0.0148179
622.231	0.0146799
622.309	0.0147841
622.387	0.0147494
622.465	0.0148244
622.543	0.0147761
622.622	0.0148362
622.700	0.0147770
622.778	0.0148080
622.856	0.0146999
622.934	0.0147493
623.012	0.0146935
623.090	0.0147132
623.168	0.0146646
623.247	0.0147836
623.325	0.0147874
623.403	0.0147711
623.481	0.0146915
623.559	0.0146708
623.637	0.0148163
623.715	0.0148618
623.793	0.0147440
623.872	0.0148073
623.950	0.0146539
624.028	0.0147735
624.106	0.0147852
624.184	0.0147491
624.262	0.0147240
624.340	0.0148039
624.418	0.0148650
624.497	0.0146914
624.575	0.0147334
624.653	0.0147844
624.731	0.0146910
624.809	0.0147689
624.887	0.0147789
624.965	0.0147229
625.043	0.0146153
625.122	0.0147427
625.200	0.0147437
625.278	0.0148174
625.356	0.0146879
625.434	0.0146253
625.512	0.0147589
625.590	0.0147171
625.668	0.0146260
625.747	0.0146781
625.825	0.0147727
625.903	0.0146999
625.981	0.0148027
626.059	0.0147423
626.137	0.0147677
626.215	0.0148257
626.293	0.0146777
626.372	0.0147023
626.450	0.0147775
626.528	0.0146690
626.606	0.0147388
626.684	0.0147695
626.762	0.0148062
626.840	0.0147197
626.918	0.0147871
626.997	0.0147430
627.075	0.0147067
627.153	0.0148572
627.231	0.0147807
627.309	0.0147506
627.387	0.0147175
627.465	0.0147839
627.543	0.0147750
627.622	0.0148347
627.700	0.0148676
627.778	0.0147307
627.856	0.0148913
627.934	0.0148685
628.012	0.0147643
628.090	0.0147563
628.168	0.0146935
628.247	0.0147604
628.325	0.0147942
628.403	0.0147178
628.481	0.0147642
628.559	0.0147315
628.637	0.0147990
628.715	0.0148142
628.793	0.0147495
628.872	0.0148003
628.950	0.0147850
629.028	0.0147633
629.106	0.0147430
629.184	0.0146604
629.262	0.0147635
629.340	0.0147561
629.418	0.0148269
629.497	0.0147114
629.575	0.0147155
629.653	0.0147189
629.731	0.0147124
629.809	0.0146799
629.887	0.0147499
629.965	0.0146887
630.043	0.0147803
630.122	0.0147460
630.200	0.0147653
630.278	0.0147952
630.356	0.0148582
630.434	0.0148975
630.512	0.0146998
630.590	0.0147416
630.668	0.0146983
630.747	0.0147792
630.825	0.0147689
630.903	0.0147955
630.981	0.0148685
631.059	0.0148746
631.137	0.0147567
631.215	0.0146559
631.293	0.0149052
631.372	0.0148742
631.450	0.0148096
631.528	0.0147130
631.606	0.0147128
631.684	0.0148312
631.762	0.0149401
631.840	0.0147479
631.918	0.0146901
631.997	0.0147607
632.075	0.0149187
632.153	0.0148233
632.231	0.0148605
632.309	0.0147156
632.387	0.0148155
632.465	0.0148563
632.543	0.0146786
632.622	0.0147699
632.700	0.0147668
632.778	0.0148432
632.856	0.0147073
632.934	0.0146828
633.012	0.0147569
633.090	0.0146973
633.168	0.0148280
633.247	0.0146967
633.325	0.0146493
633.403	0.0147743
633.481	0.0148729
633.559	0.0148195
633.637	0.0147712
633.715	0.0147946
633.793	0.0147657
633.872	0.0147430
633.950	0.0147532
634.028	0.0148365
634.106	0.0147251
634.184	0.0147734
634.262	0.0148027
634.340	0.0146944
634.418	0.0146722
634.497	0.0147482
634.575	0.0147140
634.653	0.0146754
634.731	0.0147058
634.809	0.0148056
634.887	0.0149011
634.965	0.0147229
635.043	0.0146960
635.122	0.0147645
635.200	0.0148073
635.278	0.0147366
635.356	0.0145911
635.434	0.0146738
635.512	0.0148664
635.590	0.0147936
635.668	0.0147446
635.747	0.0145903
635.825	0.0147662
635.903	0.0147735
635.981	0.0146851
636.059	0.0147614
636.137	0.0148214
636.215	0.0148150
636.293	0.0147449
636.372	0.0146860
636.450	0.0147589
636.528	0.0147657
636.606	0.0147859
636.684	0.0147838
636.762	0.0147218
636.840	0.0146832
636.918	0.0146699
636.997	0.0147483
637.075	0.0147929
637.153	0.0147807
637.231	0.0148013
637.309	0.0146920
637.387	0.0148579
637.465	0.0147445
637.543	0.0147880
637.622	0.0147646
637.700	0.0148128
637.778	0.0148293
637.856	0.0148028
637.934	0.0147557
638.012	0.0149149
638.090	0.0149268
638.168	0.0149224
638.247	0.0148698
638.325	0.0146561
638.403	0.0148521
638.481	0.0147577
638.559	0.0148042
638.637	0.0146954
638.715	0.0147958
638.793	0.0148087
638.872	0.0147189
638.950	0.0148060
639.028	0.0147134
639.106	0.0148852
639.184	0.0148427
639.262	0.0147861
639.340	0.0147729
639.418	0.0148087
639.497	0.0146559
639.575	0.0148352
639.653	0.0148044
639.731	0.0147683
639.809	0.0147929
639.887	0.0149446
639.965	0.0146976
640.043	0.0148923
640.122	0.0147667
640.200	0.0146656
640.278	0.0146109
640.356	0.0149092
640.434	0.0147411
640.512	0.0147092
640.590	0.0148466
640.668	0.0147228
640.747	0.0147591
640.825	0.0147315
640.903	0.0148504
640.981	0.0147225
641.059	0.0146256
641.137	0.0148283
641.215	0.0147360
641.293	0.0147788
641.372	0.0148147
641.450	0.0148465
641.528	0.0147341
641.606	0.0148582
641.684	0.0147266
641.762	0.0146259
641.840	0.0148186
641.918	0.0147023
641.997	0.0147568
642.075	0.0147756
642.153	0.0147090
642.231	0.0147653
642.309	0.0147763
642.387	0.0147517
642.465	0.0147840
642.543	0.0148289
642.622	0.0147523
642.700	0.0147395
642.778	0.0148039
642.856	0.0146748
642.934	0.0147854
643.012	0.0149233
643.090	0.0148588
643.168	0.0147262
643.247	0.0147833
643.325	0.0146284
643.403	0.0147533
643.481	0.0147887
643.559	0.0147855
643.637	0.0146660
643.715	0.0147392
643.793	0.0147807
643.872	0.0147047
643.950	0.0147636
644.028	0.0148369
644.106	0.0147853
644.184	0.0147771
644.262	0.0148458
644.340	0.0148271
644.418	0.0148084
644.497	0.0148050
644.575	0.0148862
644.653	0.0147626
644.731	0.0146033
644.809	0.0147607
644.887	0.0147077
644.965	0.0147882
645.043	0.0147462
645.122	0.0147986
645.200	0.0147179
645.278	0.0148772
645.356	0.0147011
645.434	0.0148415
645.512	0.0146989
645.590	0.0147902
645.668	0.0148432
645.747	0.0147662
645.825	0.0148614
645.903	0.0149260
645.981	0.0148038
646.059	0.0147892
646.137	0.0147263
646.215	0.0147325
646.293	0.0148129
646.372	0.0148493
646.450	0.0148032
646.528	0.0147364
646.606	0.0148011
646.684	0.0148456
646.762	0.0148316
646.840	0.0147446
646.918	0.0148640
646.997	0.0149507
647.075	0.0148598
647.153	0.0148386
647.231	0.0150050
647.309	0.0149562
647.387	0.0147536
647.465	0.0148686
647.543	0.0147652
647.622	0.0147594
647.700	0.0149012
647.778	0.0147345
647.856	0.0148258
647.934	0.0147254
648.012	0.0147932
648.090	0.0149921
648.168	0.0146491
648.247	0.0148071
648.325	0.0148341
648.403	0.0147977
648.481	0.0147277
648.559	0.0147306
648.637	0.0148067
648.715	0.0148171
648.793	0.0147052
648.872	0.0147816
648.950	0.0148814
649.028	0.0148283
649.106	0.0148025
649.184	0.0147130
649.262	0.0147471
649.340	0.0147943
649.418	0.0148533
649.497	0.0147593
649.575	0.0147993
649.653	0.0146642
649.731	0.0148897
649.809	0.0148520
649.887	0.0148534
649.965	0.0147569
650.043	0.0148877
650.122	0.0147972
650.200	0.0149005
650.278	0.0147682
650.356	0.0147907
650.434	0.0146688
650.512	0.0147458
650.590	0.0149406
650.668	0.0148361
650.747	0.0147292
650.825	0.0146253
650.903	0.0148721
650.981	0.0147745
651.059	0.0147906
651.137	0.0148653
651.215	0.0146914
651.293	0.0148371
651.372	0.0147764
651.450	0.0147179
651.528	0.0147079
651.606	0.0148490
651.684	0.0146516
651.762	0.0147887
651.840	0.0146949
651.918	0.0148023
651.997	0.0148407
652.075	0.0147339
652.153	0.0147214
652.231	0.0148321
652.309	0.0147984
652.387	0.0148529
652.465	0.0147108
652.543	0.0147575
652.622	0.0147970
652.700	0.0147648
652.778	0.0148667
652.856	0.0148523
652.934	0.0146634
653.012	0.0146370
653.090	0.0147186
653.168	0.0147727
653.247	0.0147976
653.325	0.0148481
653.403	0.0148576
653.481	0.0148322
653.559	0.0146840
653.637	0.0147575
653.715	0.0148485
653.793	0.0148061
653.872	0.0147156
653.950	0.0150032
654.028	0.0147242
654.106	0.0148215
654.184	0.0148817
654.262	0.0147525
654.340	0.0148164
654.418	0.0147016
654.497	0.0148203
654.575	0.0149592
654.653	0.0148521
654.731	0.0147561
654.809	0.0147527
654.887	0.0147169
654.965	0.0148448
655.043	0.0147132
655.122	0.0149184
655.200	0.0148592
655.278	0.0147155
655.356	0.0148466
655.434	0.0147268
655.512	0.0147811
655.590	0.0146840
655.668	0.0148228
655.747	0.0148277
655.825	0.0147546
655.903	0.0147505
655.981	0.0147800
656.059	0.0148727
656.137	0.0146982
656.215	0.0147625
656.293	0.0147049
656.372	0.0148151
656.450	0.0147950
656.528	0.0147661
656.606	0.0147856
656.684	0.0146954
656.762	0.0148499
656.840	0.0148000
656.918	0.0148204
656.997	0.0147763
657.075	0.0148663
657.153	0.0148966
657.231	0.0149092
657.309	0.0147699
657.387	0.0147688
657.465	0.0147190
657.543	0.0148290
657.622	0.0149158
657.700	0.0149525
657.778	0.0148373
657.856	0.0148143
657.934	0.0147732
658.012	0.0146745
658.090	0.0148235
658.168	0.0148859
658.247	0.0149091
658.325	0.0148459
658.403	0.0148107
658.481	0.0146797
658.559	0.0148816
658.637	0.0148220
658.715	0.0148080
658.793	0.0149274
658.872	0.0148010
658.950	0.0148717
659.028	0.0148630
659.106	0.0150158
659.184	0.0150529
659.262	0.0147932
659.340	0.0148942
659.418	0.0149352
659.497	0.0149234
659.575	0.0148442
659.653	0.0149204
659.731	0.0148555
659.809	0.0148715
659.887	0.0149037
659.965	0.0150001
660.043	0.0148621
660.122	0.0148975
660.200	0.0150018
660.278	0.0148309
660.356	0.0148791
660.434	0.0148467
660.512	0.0148241
660.590	0.0149547
660.668	0.0149335
660.747	0.0148309
660.825	0.0147636
660.903	0.0148966
660.981	0.0149815
661.059	0.0149547
661.137	0.0147985
661.215	0.0147990
661.293	0.0148828
661.372	0.0148643
661.450	0.0147932
661.528	0.0147618
661.606	0.0148856
661.684	0.0148887
661.762	0.0148236
661.840	0.0148150
661.918	0.0147532
661.997	0.0148334
662.075	0.0147829
662.153	0.0147929
662.231	0.0147884
662.309	0.0146896
662.387	0.0149364
662.465	0.0148588
662.543	0.0148057
662.622	0.0147687
662.700	0.0147506
662.778	0.0148009
662.856	0.0147012
662.934	0.0146561
663.012	0.0148830
663.090	0.0147749
663.168	0.0148983
663.247	0.0147389
663.325	0.0147126
663.403	0.0146254
663.481	0.0147494
663.559	0.0148011
663.637	0.0147150
663.715	0.0148598
663.793	0.0147771
663.872	0.0147262
663.950	0.0147379
664.028	0.0147961
664.106	0.0147137
664.184	0.0146510
664.262	0.0146218
664.340	0.0147544
664.418	0.0148045
664.497	0.0147290
664.575	0.0147015
664.653	0.0146471
664.731	0.0148307
664.809	0.0146583
664.887	0.0146530
664.965	0.0146305
665.043	0.0146317
665.122	0.0146256
665.200	0.0147939
665.278	0.0146953
665.356	0.0146387
665.434	0.0145786
665.512	0.0146664
665.590	0.0147057
665.668	0.0146463
665.747	0.0146831
665.825	0.0146101
665.903	0.0146805
665.981	0.0147668
666.059	0.0146594
666.137	0.0146425
666.215	0.0146780
666.293	0.0147746
666.372	0.0146428
666.450	0.0148718
666.528	0.0148156
666.606	0.0148330
666.684	0.0147507
666.762	0.0147288
666.840	0.0147681
666.918	0.0148651
666.997	0.0146328
667.075	0.0147813
667.153	0.0147309
667.231	0.0146395
667.309	0.0146702
667.387	0.0146171
667.465	0.0148080
667.543	0.0147820
667.622	0.0147657
667.700	0.0148141
667.778	0.0148056
667.856	0.0147753
667.934	0.0147494
668.012	0.0148576
668.090	0.0147593
668.168	0.0147669
668.247	0.0147860
668.325	0.0148020
668.403	0.0148835
668.481	0.0148112
668.559	0.0147864
668.637	0.0148422
668.715	0.0147842
668.793	0.0149283
668.872	0.0148380
668.950	0.0148703
669.028	0.0148070
669.106	0.0148457
669.184	0.0148715
669.262	0.0149609
669.340	0.0149356
669.418	0.0148987
669.497	0.0149084
669.575	0.0148787
669.653	0.0148846
669.731	0.0149339
669.809	0.0149261
669.887	0.0149928
669.965	0.0148833
670.043	0.0148932
670.122	0.0149953
670.200	0.0149897
670.278	0.0149393
670.356	0.0149467
670.434	0.0150298
670.512	0.0149735
670.590	0.0149869
670.668	0.0149950
670.747	0.0149001
670.825	0.0150243
670.903	0.0150876
670.981	0.0149011
671.059	0.0149492
671.137	0.0149636
671.215	0.0148743
671.293	0.0150553
671.372	0.0150394
671.450	0.0149117
671.528	0.0148395
671.606	0.0150375
671.684	0.0150139
671.762	0.0149628
671.840	0.0150729
671.918	0.0149966
671.997	0.0150628
672.075	0.0150258
672.153	0.0150185
672.231	0.0149693
672.309	0.0150282
672.387	0.0151110
672.465	0.0149908
672.543	0.0150140
672.622	0.0150164
672.700	0.0149754
672.778	0.0149890
672.856	0.0149509
672.934	0.0150607
673.012	0.0148887
673.090	0.0149378
673.168	0.0149039
673.247	0.0148737
673.325	0.0149943
673.403	0.0150413
673.481	0.0149542
673.559	0.0150677
673.637	0.0148706
673.715	0.0150312
673.793	0.0148488
673.872	0.0149567
673.950	0.0149995
674.028	0.0149539
674.106	0.0149754
674.184	0.0149241
674.262	0.0149828
674.340	0.0149591
674.418	0.0149076
674.497	0.0149841
674.575	0.0147602
674.653	0.0148222
674.731	0.0148013
674.809	0.0148144
674.887	0.0148430
674.965	0.0147769
675.043	0.0147050
675.122	0.0147378
675.200	0.0146508
675.278	0.0148526
675.356	0.0147820
675.434	0.0147868
675.512	0.0146624
675.590	0.0147462
675.668	0.0145744
675.747	0.0146141
675.825	0.0146453
675.903	0.0146194
675.981	0.0145886
676.059	0.0144875
676.137	0.0145339
676.215	0.0144895
676.293	0.0144020
676.372	0.0145253
676.450	0.0144391
676.528	0.0144611
676.606	0.0147041
676.684	0.0144780
676.762	0.0144942
676.840	0.0145931
676.918	0.0146586
676.997	0.0145483
677.075	0.0145803
677.153	0.0145537
677.231	0.0145285
677.309	0.0146789
677.387	0.0147784
677.465	0.0146782
677.543	0.0145834
677.622	0.0146700
677.700	0.0146610
677.778	0.0147409
677.856	0.0144424
677.934	0.0145370
678.012	0.0146822
678.090	0.0146196
678.168	0.0145615
678.247	0.0145325
678.325	0.0145721
678.403	0.0144350
678.481	0.0144427
678.559	0.0143848
678.637	0.0144176
678.715	0.0144572
678.793	0.0143179
678.872	0.0143136
678.950	0.0142439
679.028	0.0141677
679.106	0.0143510
679.184	0.0143329
679.262	0.0143568
679.340	0.0141940
679.418	0.0143494
679.497	0.0143501
679.575	0.0143051
679.653	0.0142381
679.731	0.0143203
679.809	0.0142149
679.887	0.0141512
679.965	0.0142967
680.043	0.0143844
680.122	0.0142240
680.200	0.0142658
680.278	0.0141890
680.356	0.0141936
680.434	0.0143798
680.512	0.0143048
680.590	0.0142212
680.668	0.0142291
680.747	0.0142079
680.825	0.0142117
680.903	0.0142675
680.981	0.0142381
681.059	0.0141759
681.137	0.0141215
681.215	0.0141758
681.293	0.0141939
681.372	0.0140299
681.450	0.0139688
681.528	0.0139169
681.606	0.0139780
681.684	0.0140151
681.762	0.0137888
681.840	0.0138029
681.918	0.0137391
681.997	0.0136604
682.075	0.0137290
682.153	0.0138321
682.231	0.0137267
682.309	0.0135892
682.387	0.0135829
682.465	0.0135789
682.543	0.0134631
682.622	0.0134626
682.700	0.0135670
682.778	0.0134183
682.856	0.0134046
682.934	0.0134512
683.012	0.0135973
683.090	0.0133432
683.168	0.0132762
683.247	0.0133446
683.325	0.0133073
683.403	0.0134730
683.481	0.0134788
683.559	0.0132708
683.637	0.0133427
683.715	0.0133451
683.793	0.0132080
683.872	0.0130729
683.950	0.0130074
684.028	0.0131818
684.106	0.0131362
684.184	0.0131317
684.262	0.0128750
684.340	0.0127374
684.418	0.0126773
684.497	0.0127220
684.575	0.0124654
684.653	0.0122429
684.731	0.0120975
684.809	0.0120424
684.887	0.0119174
684.965	0.0116003
685.043	0.0115299
685.122	0.0113728
685.200	0.0110518
685.278	0.0108640
685.356	0.0107596
685.434	0.0103870
685.512	0.0100570
685.590	0.00985046
685.668	0.00953751
685.747	0.00928581
685.825	0.00895447
685.903	0.00852707
685.981	0.00819405
686.059	0.00778046
686.137	0.00727119
686.215	0.00695099
686.293	0.00641853
686.372	0.00593781
686.450	0.00538567
686.528	0.00478508
686.606	0.00426277
686.684	0.00363319
686.762	0.00302864
686.840	0.00250992
686.918	0.00183510
686.997	0.00109352
687.075	0.000467224
687.153	-0.000238571
687.231	-0.000864182
687.309	-0.00163033
687.387	-0.00233772
687.465	-0.00320473
687.543	-0.00380890
687.622	-0.00459663
687.700	-0.00506630
687.778	-0.00541847
687.856	-0.00518127
687.934	-0.00427650
688.012	-0.00233383
688.090	0.000605087
688.168	0.00496727
688.247	0.0108171
688.325	0.0184685
688.403	0.0274104
688.481	0.0378398
688.559	0.0492864
688.637	0.0612739
688.715	0.0734686
688.793	0.0856002
688.872	0.0972237
688.950	0.107779
689.028	0.116884
689.106	0.124291
689.184	0.129986
689.262	0.133362
689.340	0.134415
689.418	0.133165
689.497	0.129629
689.575	0.123957
689.653	0.116313
689.731	0.107095
689.809	0.0964079
689.887	0.0844828
689.965	0.0714468
690.043	0.0577844
690.122	0.0434205
690.200	0.0291543
690.278	0.0148923
690.356	0.000923538
690.434	-0.0122320
690.512	-0.0241332
690.590	-0.0347752
690.668	-0.0438400
690.747	-0.0513023
690.825	-0.0569727
690.903	-0.0604125
690.981	-0.0623178
691.059	-0.0625311
691.137	-0.0610004
691.215	-0.0579965
691.293	-0.0538400
691.372	-0.0486019
691.450	-0.0425278
691.528	-0.0361394
691.606	-0.0295230
691.684	-0.0231490
691.762	-0.0169392
691.840	-0.0112295
691.918	-0.00595375
691.997	-0.00142952
692.075	0.00221085
692.153	0.00542107
692.231	0.00759369
692.309	0.00937576
692.387	0.0102187
692.465	0.0103529
692.543	0.0100778
692.622	0.00918610
692.700	0.00797096
692.778	0.00674774
692.856	0.00534195
692.934	0.00397858
693.012	0.00255974
693.090	0.00113472
693.168	-0.0000100708
693.247	-0.000947418
693.325	-0.00167938
693.403	-0.00215080
693.481	-0.00222557
693.559	-0.00226204
693.637	-0.00149895
693.715	-0.000430679
693.793	0.000754471
693.872	0.00199089
693.950	0.00318123
694.028	0.00457703
694.106	0.00586777
694.184	0.00720154
694.262	0.00810966
694.340	0.00900917
694.418	0.00976967
694.497	0.0103744
694.575	0.0106327
694.653	0.0111156
694.731	0.0111816
694.809	0.0110464
694.887	0.0109563
694.965	0.0104613
695.043	0.0101418
695.122	0.00976738
695.200	0.00935814
695.278	0.00906075
695.356	0.00867554
695.434	0.00840469
695.512	0.00809715
695.590	0.00810097
695.668	0.00779877
695.747	0.00797859
695.825	0.00804893
695.903	0.00823212
695.981	0.00864250
696.059	0.00911705
696.137	0.00951424
696.215	0.0100272
696.293	0.0106926
696.372	0.0114891
696.450	0.0121721
696.528	0.0128198
696.606	0.0136361
696.684	0.0142365
696.762	0.0150229
696.840	0.0158599
696.918	0.0164567
696.997	0.0174732
697.075	0.0182344
697.153	0.0187843
697.231	0.0195331
697.309	0.0202103
697.387	0.0205585
697.465	0.0210148
697.543	0.0212670
697.622	0.0213401
697.700	0.0215868
697.778	0.0215103
697.856	0.0211534
697.934	0.0210747
698.012	0.0207207
698.090	0.0202924
698.168	0.0198441
698.247	0.0194904
698.325	0.0191460
698.403	0.0188378
698.481	0.0186522
698.559	0.0185744
698.637	0.0184299
698.715	0.0187002
698.793	0.0190730
698.872	0.0193791
698.950	0.0199329
699.028	0.0206983
699.106	0.0212832
699.184	0.0219664
699.262	0.0228593
699.340	0.0235706
699.418	0.0241600
699.497	0.0248637
699.575	0.0254674
699.653	0.0259070
699.731	0.0261536
699.809	0.0264175
699.887	0.0265530
699.965	0.0263890
700.043	0.0261761
700.122	0.0259620
700.200	0.0254156
700.278	0.0247215
700.356	0.0238503
700.434	0.0228806
700.512	0.0221626
700.590	0.0209695
700.668	0.0200938
700.747	0.0191016
700.825	0.0179559
700.903	0.0170441
700.981	0.0160851
701.059	0.0153415
701.137	0.0145306
701.215	0.0137807
701.293	0.0132859
701.372	0.0128900
701.450	0.0124980
701.528	0.0124171
701.606	0.0122675
701.684	0.0122334
701.762	0.0124438
701.840	0.0125478
701.918	0.0127599
701.997	0.0130295
702.075	0.0133044
702.153	0.0135892
702.231	0.0139311
702.309	0.0142548
702.387	0.0145361
702.465	0.0147514
702.543	0.0150642
702.622	0.0152010
702.700	0.0153133
702.778	0.0155077
702.856	0.0153277
702.934	0.0152415
703.012	0.0149483
703.090	0.0147405
703.168	0.0145766
703.247	0.0142085
703.325	0.0139693
703.403	0.0138329
703.481	0.0135460
703.559	0.0132608
703.637	0.0129895
703.715	0.0130238
703.793	0.0130206
703.872	0.0128362
703.950	0.0128001
704.028	0.0127798
704.106	0.0128157
704.184	0.0130080
704.262	0.0131422
704.340	0.0132533
704.418	0.0132720
704.497	0.0133080
704.575	0.0135243
704.653	0.0136547
704.731	0.0133366
704.809	0.0133449
704.887	0.0134457
704.965	0.0133457
705.043	0.0132368
705.122	0.0133444
705.200	0.0133790
705.278	0.0135311
705.356	0.0137027
705.434	0.0136304
705.512	0.0136289
705.590	0.0136878
705.668	0.0139433
705.747	0.0140338
705.825	0.0140915
705.903	0.0144227
705.981	0.0145865
706.059	0.0147424
706.137	0.0149021
706.215	0.0150748
706.293	0.0153068
706.372	0.0154125
706.450	0.0155302
706.528	0.0153160
706.606	0.0153472
706.684	0.0153470
706.762	0.0153465
706.840	0.0150183
706.918	0.0151860
706.997	0.0148016
707.075	0.0149491
707.153	0.0149158
707.231	0.0147466
707.309	0.0145815
707.387	0.0145256
707.465	0.0145827
707.543	0.0146507
707.622	0.0147829
707.700	0.0147941
707.778	0.0150037
707.856	0.0151501
707.934	0.0154485
708.012	0.0154740
708.090	0.0157238
708.168	0.0155941
708.247	0.0155503
708.325	0.0154115
708.403	0.0152076
708.481	0.0152971
708.559	0.0152019
708.637	0.0147107
708.715	0.0146305
708.793	0.0147179
708.872	0.0146422
708.950	0.0143695
709.028	0.0144112
709.106	0.0145521
709.184	0.0146873
709.262	0.0147970
709.340	0.0150443
709.418	0.0151584
709.497	0.0154366
709.575	0.0157126
709.653	0.0160252
709.731	0.0163679
709.809	0.0165725
709.887	0.0166854
709.965	0.0169498
710.043	0.0171206
710.122	0.0171868
710.200	0.0173344
710.278	0.0174613
710.356	0.0175480
710.434	0.0176878
710.512	0.0177631
710.590	0.0179440
710.668	0.0177802
710.747	0.0178966
710.825	0.0180082
710.903	0.0178578
710.981	0.0179097
711.059	0.0178127
711.137	0.0178813
711.215	0.0179554
711.293	0.0177016
711.372	0.0178493
711.450	0.0177721
711.528	0.0177493
711.606	0.0177848
711.684	0.0178170
711.762	0.0177823
711.840	0.0178403
711.918	0.0176481
711.997	0.0176378
712.075	0.0177589
712.153	0.0177423
712.231	0.0175794
712.309	0.0175430
712.387	0.0177169
712.465	0.0176476
712.543	0.0176405
712.622	0.0175467
712.700	0.0175598
712.778	0.0174832
712.856	0.0174215
712.934	0.0170986
713.012	0.0172353
713.090	0.0171193
713.168	0.0170840
713.247	0.0168674
713.325	0.0165867
713.403	0.0164750
713.481	0.0163052
713.559	0.0158972
713.637	0.0154766
713.715	0.0150528
713.793	0.0145925
713.872	0.0142731
713.950	0.0137632
714.028	0.0132541
714.106	0.0128825
714.184	0.0124360
714.262	0.0120690
714.340	0.0117018
714.418	0.0116811
714.497	0.0113254
714.575	0.0112689
714.653	0.0113931
714.731	0.0112415
714.809	0.0112486
714.887	0.0112411
714.965	0.0112408
715.043	0.0113760
715.122	0.0115145
715.200	0.0116211
715.278	0.0116822
715.356	0.0116132
715.434	0.0118741
715.512	0.0118990
715.590	0.0120130
715.668	0.0119113
715.747	0.0121011
715.825	0.0121952
715.903	0.0124599
715.981	0.0125093
716.059	0.0125185
716.137	0.0126810
716.215	0.0126977
716.293	0.0128049
716.372	0.0128539
716.450	0.0130132
716.528	0.0131439
716.606	0.0129856
716.684	0.0132204
716.762	0.0131518
716.840	0.0130363
716.918	0.0131158
716.997	0.0130567
717.075	0.0130091
717.153	0.0129547
717.231	0.0128916
717.309	0.0127254
717.387	0.0127979
717.465	0.0126492
717.543	0.0126186
717.622	0.0126559
717.700	0.0126014
717.778	0.0126863
717.856	0.0127553
717.934	0.0128999
718.012	0.0130692
718.090	0.0131048
718.168	0.0134545
718.247	0.0135296
718.325	0.0137225
718.403	0.0138100
718.481	0.0142467
718.559	0.0144219
718.637	0.0143430
718.715	0.0146516
718.793	0.0147426
718.872	0.0149155
718.950	0.0149718
719.028	0.0149979
719.106	0.0150493
719.184	0.0150596
719.262	0.0150196
719.340	0.0149883
719.418	0.0149223
719.497	0.0149989
719.575	0.0148763
719.653	0.0148550
719.731	0.0150410
719.809	0.0150600
719.887	0.0149648
719.965	0.0150388
