05/04/2022	20:50:06	Ver.	4.1	UNKNOWN
Optical Delay	679.003072	Delta X		0.078125	Sweeps	1	Scan Rate	0/0
Coordinates	Axis 1	NaN	Axis 2	NaN	Axis 3	NaN	Axis 4	NaN	Axis 5	NaN	Axis 6	0.000000
TX Power	0.000000	RX Power	0.000000

679.003	0.0142798
679.081	0.0142673
679.159	0.0142417
679.237	0.0141866
679.316	0.0143259
679.394	0.0143422
679.472	0.0142612
679.550	0.0143118
679.628	0.0143019
679.706	0.0143082
679.784	0.0142702
679.862	0.0143223
679.941	0.0142229
680.019	0.0142292
680.097	0.0143105
680.175	0.0141695
680.253	0.0143316
680.331	0.0142735
680.409	0.0143229
680.487	0.0141903
680.566	0.0142702
680.644	0.0142706
680.722	0.0143246
680.800	0.0142374
680.878	0.0142557
680.956	0.0143244
681.034	0.0142694
681.112	0.0142666
681.191	0.0141996
681.269	0.0143112
681.347	0.0143890
681.425	0.0143210
681.503	0.0142583
681.581	0.0142655
681.659	0.0141927
681.737	0.0142620
681.816	0.0143323
681.894	0.0142537
681.972	0.0142921
682.050	0.0143089
682.128	0.0143799
682.206	0.0143314
682.284	0.0142117
682.362	0.0143969
682.441	0.0143404
682.519	0.0143469
682.597	0.0142776
682.675	0.0143150
682.753	0.0143846
682.831	0.0142635
682.909	0.0143884
682.987	0.0142567
683.066	0.0142822
683.144	0.0143696
683.222	0.0142514
683.300	0.0142532
683.378	0.0142328
683.456	0.0143573
683.534	0.0142073
683.612	0.0142273
683.691	0.0142856
683.769	0.0141818
683.847	0.0143753
683.925	0.0143316
684.003	0.0142712
684.081	0.0143024
684.159	0.0143662
684.237	0.0143115
684.316	0.0142046
684.394	0.0142729
684.472	0.0140944
684.550	0.0143214
684.628	0.0143415
684.706	0.0142954
684.784	0.0144431
684.862	0.0143648
684.941	0.0142191
685.019	0.0142563
685.097	0.0142406
685.175	0.0143198
685.253	0.0143146
685.331	0.0143439
685.409	0.0142623
685.487	0.0143732
685.566	0.0142708
685.644	0.0141228
685.722	0.0141026
685.800	0.0141848
685.878	0.0141895
685.956	0.0143288
686.034	0.0143339
686.112	0.0143481
686.191	0.0141962
686.269	0.0142628
686.347	0.0143708
686.425	0.0143399
686.503	0.0142556
686.581	0.0144598
686.659	0.0143049
686.737	0.0140964
686.816	0.0144080
686.894	0.0142567
686.972	0.0143697
687.050	0.0143797
687.128	0.0142045
687.206	0.0143282
687.284	0.0142200
687.362	0.0143536
687.441	0.0144448
687.519	0.0142928
687.597	0.0143484
687.675	0.0143532
687.753	0.0142293
687.831	0.0143554
687.909	0.0143267
687.987	0.0142705
688.066	0.0143650
688.144	0.0143571
688.222	0.0143751
688.300	0.0142716
688.378	0.0144476
688.456	0.0143754
688.534	0.0142632
688.612	0.0142929
688.691	0.0142265
688.769	0.0142571
688.847	0.0141500
688.925	0.0143380
689.003	0.0144859
689.081	0.0142242
689.159	0.0141772
689.237	0.0142765
689.316	0.0143873
689.394	0.0141864
689.472	0.0142451
689.550	0.0142383
689.628	0.0143056
689.706	0.0143113
689.784	0.0142883
689.862	0.0142445
689.941	0.0142815
690.019	0.0142469
690.097	0.0142480
690.175	0.0143505
690.253	0.0143842
690.331	0.0143697
690.409	0.0142431
690.487	0.0142667
690.566	0.0144838
690.644	0.0142509
690.722	0.0142610
690.800	0.0141841
690.878	0.0143282
690.956	0.0143002
691.034	0.0143524
691.112	0.0142410
691.191	0.0143356
691.269	0.0142325
691.347	0.0144120
691.425	0.0144336
691.503	0.0143407
691.581	0.0143620
691.659	0.0143245
691.737	0.0143858
691.816	0.0142916
691.894	0.0144981
691.972	0.0142953
692.050	0.0143103
692.128	0.0145050
692.206	0.0143388
692.284	0.0142709
692.362	0.0143214
692.441	0.0143635
692.519	0.0142011
692.597	0.0142156
692.675	0.0144286
692.753	0.0143655
692.831	0.0142305
692.909	0.0142235
692.987	0.0143326
693.066	0.0143668
693.144	0.0142775
693.222	0.0141891
693.300	0.0143591
693.378	0.0143571
693.456	0.0143400
693.534	0.0142917
693.612	0.0142841
693.691	0.0143359
693.769	0.0142786
693.847	0.0143622
693.925	0.0144513
694.003	0.0143375
694.081	0.0143220
694.159	0.0143980
694.237	0.0144138
694.316	0.0142394
694.394	0.0144073
694.472	0.0143570
694.550	0.0144544
694.628	0.0142780
694.706	0.0141806
694.784	0.0143350
694.862	0.0143717
694.941	0.0143202
695.019	0.0144003
695.097	0.0143177
695.175	0.0143313
695.253	0.0142170
695.331	0.0144266
695.409	0.0143137
695.487	0.0141611
695.566	0.0143136
695.644	0.0142881
695.722	0.0144036
695.800	0.0143619
695.878	0.0142599
695.956	0.0142539
696.034	0.0142284
696.112	0.0142050
696.191	0.0144428
696.269	0.0143047
696.347	0.0143233
696.425	0.0142233
696.503	0.0141396
696.581	0.0142516
696.659	0.0142841
696.737	0.0141888
696.816	0.0143883
696.894	0.0143250
696.972	0.0141409
697.050	0.0142303
697.128	0.0141794
697.206	0.0142255
697.284	0.0143233
697.362	0.0143652
697.441	0.0142741
697.519	0.0143890
697.597	0.0142139
697.675	0.0142124
697.753	0.0143015
697.831	0.0142699
697.909	0.0141408
697.987	0.0140839
698.066	0.0141634
698.144	0.0143732
698.222	0.0143214
698.300	0.0142355
698.378	0.0143213
698.456	0.0141821
698.534	0.0142850
698.612	0.0143285
698.691	0.0143547
698.769	0.0143743
698.847	0.0143073
698.925	0.0142938
699.003	0.0141940
699.081	0.0142445
699.159	0.0141703
699.237	0.0143527
699.316	0.0142481
699.394	0.0142170
699.472	0.0142336
699.550	0.0143272
699.628	0.0142360
699.706	0.0142630
699.784	0.0143378
699.862	0.0143928
699.941	0.0142647
700.019	0.0143150
700.097	0.0142849
700.175	0.0141648
700.253	0.0143352
700.331	0.0141113
700.409	0.0142605
700.487	0.0142334
700.566	0.0141779
700.644	0.0141774
700.722	0.0142831
700.800	0.0142182
700.878	0.0143362
700.956	0.0142821
701.034	0.0143542
701.112	0.0141620
701.191	0.0141082
701.269	0.0143285
701.347	0.0142333
701.425	0.0143411
701.503	0.0143068
701.581	0.0142030
701.659	0.0143240
701.737	0.0142706
701.816	0.0144271
701.894	0.0142681
701.972	0.0141836
702.050	0.0141857
702.128	0.0141044
702.206	0.0143183
702.284	0.0142523
702.362	0.0143261
702.441	0.0142229
702.519	0.0143039
702.597	0.0142640
702.675	0.0142368
702.753	0.0143053
702.831	0.0143301
702.909	0.0142438
702.987	0.0142414
703.066	0.0141653
703.144	0.0142342
703.222	0.0142809
703.300	0.0142420
703.378	0.0142704
703.456	0.0141871
703.534	0.0142041
703.612	0.0142654
703.691	0.0143020
703.769	0.0142950
703.847	0.0142537
703.925	0.0141522
704.003	0.0141859
704.081	0.0141572
704.159	0.0141801
704.237	0.0144145
704.316	0.0142478
704.394	0.0141642
704.472	0.0142368
704.550	0.0141942
704.628	0.0141611
704.706	0.0143828
704.784	0.0142860
704.862	0.0142504
704.941	0.0141423
705.019	0.0141844
705.097	0.0141714
705.175	0.0143248
705.253	0.0141795
705.331	0.0142310
705.409	0.0141873
705.487	0.0142991
705.566	0.0142163
705.644	0.0142385
705.722	0.0142194
705.800	0.0142441
705.878	0.0143192
705.956	0.0141624
706.034	0.0141677
706.112	0.0143608
706.191	0.0142751
706.269	0.0141772
706.347	0.0144074
706.425	0.0143280
706.503	0.0141225
706.581	0.0141085
706.659	0.0142863
706.737	0.0142971
706.816	0.0142310
706.894	0.0142886
706.972	0.0142681
707.050	0.0142458
707.128	0.0141963
707.206	0.0144221
707.284	0.0142607
707.362	0.0142485
707.441	0.0143066
707.519	0.0142898
707.597	0.0142426
707.675	0.0143327
707.753	0.0142567
707.831	0.0143777
707.909	0.0142647
707.987	0.0142538
708.066	0.0143363
708.144	0.0143057
708.222	0.0141521
708.300	0.0143414
708.378	0.0144244
708.456	0.0143838
708.534	0.0143063
708.612	0.0142142
708.691	0.0143093
708.769	0.0142706
708.847	0.0142255
708.925	0.0142623
709.003	0.0141634
709.081	0.0142667
709.159	0.0143410
709.237	0.0142937
709.316	0.0143127
709.394	0.0142726
709.472	0.0142867
709.550	0.0142273
709.628	0.0143549
709.706	0.0142651
709.784	0.0143231
709.862	0.0142130
709.941	0.0141705
710.019	0.0142271
710.097	0.0142646
710.175	0.0141207
710.253	0.0143090
710.331	0.0144256
710.409	0.0141908
710.487	0.0142357
710.566	0.0142024
710.644	0.0142674
710.722	0.0142963
710.800	0.0141949
710.878	0.0141725
710.956	0.0143268
711.034	0.0143539
711.112	0.0143472
711.191	0.0142509
711.269	0.0143613
711.347	0.0144256
711.425	0.0143533
711.503	0.0144056
711.581	0.0142976
711.659	0.0144110
711.737	0.0144080
711.816	0.0142735
711.894	0.0143913
711.972	0.0142912
712.050	0.0143038
712.128	0.0142960
712.206	0.0143241
712.284	0.0142119
712.362	0.0144503
712.441	0.0143555
712.519	0.0142215
712.597	0.0142983
712.675	0.0143507
712.753	0.0142625
712.831	0.0140989
712.909	0.0140569
712.987	0.0141673
713.066	0.0141927
713.144	0.0141576
713.222	0.0143442
713.300	0.0142994
713.378	0.0143337
713.456	0.0143774
713.534	0.0144661
713.612	0.0144754
713.691	0.0143630
713.769	0.0144465
713.847	0.0143684
713.925	0.0143951
714.003	0.0143005
714.081	0.0142953
714.159	0.0144592
714.237	0.0143678
714.316	0.0144215
714.394	0.0145666
714.472	0.0143552
714.550	0.0144630
714.628	0.0145352
714.706	0.0144251
714.784	0.0142618
714.862	0.0142066
714.941	0.0142279
715.019	0.0142550
715.097	0.0140604
715.175	0.0140904
715.253	0.0142608
715.331	0.0139764
715.409	0.0138266
715.487	0.0138949
715.566	0.0139725
715.644	0.0139131
715.722	0.0139390
715.800	0.0140980
715.878	0.0140421
715.956	0.0141534
716.034	0.0142190
716.112	0.0142542
716.191	0.0142960
716.269	0.0145284
716.347	0.0145060
716.425	0.0146849
716.503	0.0147443
716.581	0.0146632
716.659	0.0146600
716.737	0.0144838
716.816	0.0141722
716.894	0.0141200
716.972	0.0139555
717.050	0.0137784
717.128	0.0137598
717.206	0.0134268
717.284	0.0135049
717.362	0.0134997
717.441	0.0135951
717.519	0.0136604
717.597	0.0137383
717.675	0.0139391
717.753	0.0141017
717.831	0.0142709
717.909	0.0143276
717.987	0.0143678
718.066	0.0145480
718.144	0.0143958
718.222	0.0145370
718.300	0.0144029
718.378	0.0143475
718.456	0.0143135
718.534	0.0142988
718.612	0.0144772
718.691	0.0143149
718.769	0.0142659
718.847	0.0143390
718.925	0.0143680
719.003	0.0142741
719.081	0.0143253
719.159	0.0144885
719.237	0.0147518
719.316	0.0145510
719.394	0.0148736
719.472	0.0149225
719.550	0.0150627
719.628	0.0149282
719.706	0.0148817
719.784	0.0148839
719.862	0.0147504
719.941	0.0144520
720.019	0.0142280
720.097	0.0142024
720.175	0.0138956
720.253	0.0136469
720.331	0.0135986
720.409	0.0133846
720.487	0.0133088
720.566	0.0136114
720.644	0.0135738
720.722	0.0136214
720.800	0.0139396
720.878	0.0141516
720.956	0.0141933
721.034	0.0146296
721.112	0.0146239
721.191	0.0145677
721.269	0.0146603
721.347	0.0146896
721.425	0.0145728
721.503	0.0142973
721.581	0.0144067
721.659	0.0143035
721.737	0.0139801
721.816	0.0140235
721.894	0.0139075
721.972	0.0139045
722.050	0.0139069
722.128	0.0138720
722.206	0.0140906
722.284	0.0141009
722.362	0.0140777
722.441	0.0144035
722.519	0.0145285
722.597	0.0144733
722.675	0.0146107
722.753	0.0145144
722.831	0.0146157
722.909	0.0146908
722.987	0.0146978
723.066	0.0143964
723.144	0.0143263
723.222	0.0143478
723.300	0.0142082
723.378	0.0140665
723.456	0.0139416
723.534	0.0136889
723.612	0.0137336
723.691	0.0138689
723.769	0.0137672
723.847	0.0140433
723.925	0.0142371
724.003	0.0142210
724.081	0.0143456
724.159	0.0146611
724.237	0.0146902
724.316	0.0146223
724.394	0.0148576
724.472	0.0148471
724.550	0.0149520
724.628	0.0149669
724.706	0.0149017
724.784	0.0149464
724.862	0.0146782
724.941	0.0145426
725.019	0.0144955
725.097	0.0142730
725.175	0.0139944
725.253	0.0141173
725.331	0.0139476
725.409	0.0137978
725.487	0.0137453
725.566	0.0138848
725.644	0.0137962
725.722	0.0138245
725.800	0.0140019
725.878	0.0141680
725.956	0.0143179
726.034	0.0143941
726.112	0.0143673
726.191	0.0145422
726.269	0.0145930
726.347	0.0145435
726.425	0.0145203
726.503	0.0144634
726.581	0.0144428
726.659	0.0144595
726.737	0.0143005
726.816	0.0141070
726.894	0.0139789
726.972	0.0139672
727.050	0.0139323
727.128	0.0137064
727.206	0.0137325
727.284	0.0137817
727.362	0.0140157
727.441	0.0136909
727.519	0.0140800
727.597	0.0141174
727.675	0.0142825
727.753	0.0144456
727.831	0.0143791
727.909	0.0146540
727.987	0.0147116
728.066	0.0148309
728.144	0.0147914
728.222	0.0147144
728.300	0.0146908
728.378	0.0146107
728.456	0.0144390
728.534	0.0144914
728.612	0.0143703
728.691	0.0142781
728.769	0.0140272
728.847	0.0139364
728.925	0.0139388
729.003	0.0138781
729.081	0.0140089
729.159	0.0139915
729.237	0.0139566
729.316	0.0142504
729.394	0.0142848
729.472	0.0143823
729.550	0.0143137
729.628	0.0142808
729.706	0.0143822
729.784	0.0146809
729.862	0.0147754
729.941	0.0145982
730.019	0.0144070
730.097	0.0146519
730.175	0.0145499
730.253	0.0145271
730.331	0.0145688
730.409	0.0142944
730.487	0.0142007
730.566	0.0143281
730.644	0.0141191
730.722	0.0143231
730.800	0.0142639
730.878	0.0141944
730.956	0.0142070
731.034	0.0143016
731.112	0.0142255
731.191	0.0142643
731.269	0.0142754
731.347	0.0143392
731.425	0.0143118
731.503	0.0144046
731.581	0.0145140
731.659	0.0143758
731.737	0.0141640
731.816	0.0141526
731.894	0.0143558
731.972	0.0142124
732.050	0.0141010
732.128	0.0141573
732.206	0.0140059
732.284	0.0139165
732.362	0.0139960
732.441	0.0139723
732.519	0.0141222
732.597	0.0139958
732.675	0.0138765
732.753	0.0140370
732.831	0.0142382
732.909	0.0141065
732.987	0.0142120
733.066	0.0142021
733.144	0.0142845
733.222	0.0142068
733.300	0.0141852
733.378	0.0142201
733.456	0.0143398
733.534	0.0143133
733.612	0.0143590
733.691	0.0142564
733.769	0.0142731
733.847	0.0143823
733.925	0.0142772
734.003	0.0142839
734.081	0.0142702
734.159	0.0143645
734.237	0.0142246
734.316	0.0142961
734.394	0.0142039
734.472	0.0141795
734.550	0.0142052
734.628	0.0142923
734.706	0.0143403
734.784	0.0142951
734.862	0.0141827
734.941	0.0142131
735.019	0.0141267
735.097	0.0141432
735.175	0.0141573
735.253	0.0141754
735.331	0.0142954
735.409	0.0142202
735.487	0.0140727
735.566	0.0143711
735.644	0.0144815
735.722	0.0142713
735.800	0.0142565
735.878	0.0144783
735.956	0.0144492
736.034	0.0144254
736.112	0.0145570
736.191	0.0145340
736.269	0.0144267
736.347	0.0143259
736.425	0.0142929
736.503	0.0143652
736.581	0.0143483
736.659	0.0140562
736.737	0.0140894
736.816	0.0141389
736.894	0.0141824
736.972	0.0140611
737.050	0.0140920
737.128	0.0140422
737.206	0.0138202
737.284	0.0141321
737.362	0.0141335
737.441	0.0141186
737.519	0.0139168
737.597	0.0140038
737.675	0.0142058
737.753	0.0141457
737.831	0.0142058
737.909	0.0143236
737.987	0.0141996
738.066	0.0142535
738.144	0.0144053
738.222	0.0144946
738.300	0.0143502
738.378	0.0144658
738.456	0.0145229
738.534	0.0145969
738.612	0.0142944
738.691	0.0142172
738.769	0.0143187
738.847	0.0142535
738.925	0.0142039
739.003	0.0141207
739.081	0.0139995
739.159	0.0140674
739.237	0.0140456
739.316	0.0140450
739.394	0.0140441
739.472	0.0141020
739.550	0.0140424
739.628	0.0140939
739.706	0.0142384
739.784	0.0144102
739.862	0.0143816
739.941	0.0144882
740.019	0.0143574
740.097	0.0144601
740.175	0.0144767
740.253	0.0144466
740.331	0.0144660
740.409	0.0143301
740.487	0.0144129
740.566	0.0143437
740.644	0.0143625
740.722	0.0142955
740.800	0.0141721
740.878	0.0142334
740.956	0.0140295
741.034	0.0141137
741.112	0.0140696
741.191	0.0140943
741.269	0.0141366
741.347	0.0140984
741.425	0.0140182
741.503	0.0141876
741.581	0.0140413
741.659	0.0140362
741.737	0.0140919
741.816	0.0140237
741.894	0.0138824
741.972	0.0140052
742.050	0.0140578
742.128	0.0139951
742.206	0.0141940
742.284	0.0141880
742.362	0.0142136
742.441	0.0141873
742.519	0.0142033
742.597	0.0142513
742.675	0.0143658
742.753	0.0145300
742.831	0.0143958
742.909	0.0144569
742.987	0.0146148
743.066	0.0145301
743.144	0.0144711
743.222	0.0145168
743.300	0.0144881
743.378	0.0144279
743.456	0.0144957
743.534	0.0143680
743.612	0.0142147
743.691	0.0141415
743.769	0.0141878
743.847	0.0141311
743.925	0.0140734
744.003	0.0140516
744.081	0.0141613
744.159	0.0143305
744.237	0.0141328
744.316	0.0141503
744.394	0.0142645
744.472	0.0141637
744.550	0.0142757
744.628	0.0143655
744.706	0.0143098
744.784	0.0142080
744.862	0.0142475
744.941	0.0142968
745.019	0.0142844
745.097	0.0144408
745.175	0.0145039
745.253	0.0145016
745.331	0.0143427
745.409	0.0144723
745.487	0.0143399
745.566	0.0143801
745.644	0.0144444
745.722	0.0144417
745.800	0.0142953
745.878	0.0143492
745.956	0.0143513
746.034	0.0143025
746.112	0.0144250
746.191	0.0143608
746.269	0.0142490
746.347	0.0142979
746.425	0.0142635
746.503	0.0142083
746.581	0.0142061
746.659	0.0141934
746.737	0.0142958
746.816	0.0143919
746.894	0.0143985
746.972	0.0142666
747.050	0.0143302
747.128	0.0143970
747.206	0.0142457
747.284	0.0144029
747.362	0.0142031
747.441	0.0143675
747.519	0.0141869
747.597	0.0141633
747.675	0.0142241
747.753	0.0142927
747.831	0.0141817
747.909	0.0141107
747.987	0.0141671
748.066	0.0140804
748.144	0.0138947
748.222	0.0139906
748.300	0.0141761
748.378	0.0142011
748.456	0.0142345
748.534	0.0142964
748.612	0.0144032
748.691	0.0144424
748.769	0.0144240
748.847	0.0142780
748.925	0.0143578
749.003	0.0143542
749.081	0.0142612
749.159	0.0143512
749.237	0.0143733
749.316	0.0142854
749.394	0.0141811
749.472	0.0141556
749.550	0.0141969
749.628	0.0140786
749.706	0.0139063
749.784	0.0139973
749.862	0.0140400
749.941	0.0140917
750.019	0.0142611
750.097	0.0141533
750.175	0.0143237
750.253	0.0144178
750.331	0.0143231
750.409	0.0144428
750.487	0.0144559
750.566	0.0145119
750.644	0.0144463
750.722	0.0145431
750.800	0.0144347
750.878	0.0144714
750.956	0.0144247
751.034	0.0145016
751.112	0.0144643
751.191	0.0143585
751.269	0.0143452
751.347	0.0140468
751.425	0.0140890
751.503	0.0140565
751.581	0.0140295
751.659	0.0140054
751.737	0.0141337
751.816	0.0140810
751.894	0.0141713
751.972	0.0141324
752.050	0.0142196
752.128	0.0143517
752.206	0.0142542
752.284	0.0141655
752.362	0.0142683
752.441	0.0143847
752.519	0.0144386
752.597	0.0142277
752.675	0.0144040
752.753	0.0143910
752.831	0.0142374
752.909	0.0142709
752.987	0.0143277
753.066	0.0142631
753.144	0.0142569
753.222	0.0141399
753.300	0.0142886
753.378	0.0141566
753.456	0.0142129
753.534	0.0143070
753.612	0.0140791
753.691	0.0139859
753.769	0.0141847
753.847	0.0140903
753.925	0.0141026
754.003	0.0141193
754.081	0.0141870
754.159	0.0141862
754.237	0.0141228
754.316	0.0142935
754.394	0.0142170
754.472	0.0141552
754.550	0.0141084
754.628	0.0142239
754.706	0.0144046
754.784	0.0144625
754.862	0.0143394
754.941	0.0143273
755.019	0.0142454
755.097	0.0144188
755.175	0.0143855
755.253	0.0144482
755.331	0.0142823
755.409	0.0142315
755.487	0.0142467
755.566	0.0142219
755.644	0.0141256
755.722	0.0142538
755.800	0.0141887
755.878	0.0140936
755.956	0.0142206
756.034	0.0142227
756.112	0.0141167
756.191	0.0141227
756.269	0.0140774
756.347	0.0143739
756.425	0.0142903
756.503	0.0143105
756.581	0.0142424
756.659	0.0143387
756.737	0.0143147
756.816	0.0143459
756.894	0.0143298
756.972	0.0142359
757.050	0.0142678
757.128	0.0143659
757.206	0.0141527
757.284	0.0142850
757.362	0.0143196
757.441	0.0142951
757.519	0.0143213
757.597	0.0143629
757.675	0.0142512
757.753	0.0142773
757.831	0.0143864
757.909	0.0145429
757.987	0.0144367
758.066	0.0144093
758.144	0.0144449
758.222	0.0142554
758.300	0.0143256
758.378	0.0143855
758.456	0.0143104
758.534	0.0143230
758.612	0.0142512
758.691	0.0141356
758.769	0.0141946
758.847	0.0144086
758.925	0.0141557
759.003	0.0141706
759.081	0.0141949
759.159	0.0140060
759.237	0.0140860
759.316	0.0141579
759.394	0.0141261
759.472	0.0141769
759.550	0.0142235
759.628	0.0142448
759.706	0.0142445
759.784	0.0141171
759.862	0.0142590
759.941	0.0142573
760.019	0.0143669
760.097	0.0141532
760.175	0.0142931
760.253	0.0143158
760.331	0.0142828
760.409	0.0141802
760.487	0.0142693
760.566	0.0141854
760.644	0.0143197
760.722	0.0143684
760.800	0.0142999
760.878	0.0144644
760.956	0.0142722
761.034	0.0143995
761.112	0.0143491
761.191	0.0143255
761.269	0.0143423
761.347	0.0142453
761.425	0.0143007
761.503	0.0142788
761.581	0.0143324
761.659	0.0142184
761.737	0.0142887
761.816	0.0142492
761.894	0.0142607
761.972	0.0142996
762.050	0.0142953
762.128	0.0142242
762.206	0.0142831
762.284	0.0142656
762.362	0.0141486
762.441	0.0144414
762.519	0.0142689
762.597	0.0143151
762.675	0.0143435
762.753	0.0143889
762.831	0.0144151
762.909	0.0144870
762.987	0.0144647
763.066	0.0143837
763.144	0.0144029
763.222	0.0143230
763.300	0.0142727
763.378	0.0143024
763.456	0.0142916
763.534	0.0142480
763.612	0.0142724
763.691	0.0143106
763.769	0.0143456
763.847	0.0142409
763.925	0.0143156
764.003	0.0142965
764.081	0.0142838
764.159	0.0141920
764.237	0.0142899
764.316	0.0142220
764.394	0.0142663
764.472	0.0142207
764.550	0.0143076
764.628	0.0142677
764.706	0.0142773
764.784	0.0142243
764.862	0.0143569
764.941	0.0144296
765.019	0.0142648
765.097	0.0142405
765.175	0.0143358
765.253	0.0143719
765.331	0.0143125
765.409	0.0142833
765.487	0.0142061
765.566	0.0143136
765.644	0.0142766
765.722	0.0144279
765.800	0.0142510
765.878	0.0141990
765.956	0.0141923
766.034	0.0141491
766.112	0.0141599
766.191	0.0140835
766.269	0.0142414
766.347	0.0142592
766.425	0.0142528
766.503	0.0141863
766.581	0.0140955
766.659	0.0141731
766.737	0.0141985
766.816	0.0143461
766.894	0.0141966
766.972	0.0142303
767.050	0.0141702
767.128	0.0143085
767.206	0.0142358
767.284	0.0142135
767.362	0.0142546
767.441	0.0142157
767.519	0.0143056
767.597	0.0142969
767.675	0.0144529
767.753	0.0142484
767.831	0.0142048
767.909	0.0143246
767.987	0.0142865
768.066	0.0143391
768.144	0.0142718
768.222	0.0141897
768.300	0.0142057
768.378	0.0143040
768.456	0.0143764
768.534	0.0142513
768.612	0.0142863
768.691	0.0141486
768.769	0.0142713
768.847	0.0142918
768.925	0.0142418
769.003	0.0141355
769.081	0.0143130
769.159	0.0142041
769.237	0.0141774
769.316	0.0142229
769.394	0.0143330
769.472	0.0141834
769.550	0.0141170
769.628	0.0141696
769.706	0.0141840
769.784	0.0141616
769.862	0.0142844
769.941	0.0143729
770.019	0.0142719
770.097	0.0142403
770.175	0.0143667
770.253	0.0143052
770.331	0.0143076
770.409	0.0143011
770.487	0.0143967
770.566	0.0142688
770.644	0.0144389
770.722	0.0142812
770.800	0.0142438
770.878	0.0143020
770.956	0.0141806
771.034	0.0141656
771.112	0.0141920
771.191	0.0143493
771.269	0.0143013
771.347	0.0141695
771.425	0.0142144
771.503	0.0141917
771.581	0.0142372
771.659	0.0141903
771.737	0.0143575
771.816	0.0143372
771.894	0.0143743
771.972	0.0141947
772.050	0.0144436
772.128	0.0143746
772.206	0.0143150
772.284	0.0144232
772.362	0.0144433
772.441	0.0143510
772.519	0.0143689
772.597	0.0142538
772.675	0.0144264
772.753	0.0142967
772.831	0.0142770
772.909	0.0143633
772.987	0.0143031
773.066	0.0142382
773.144	0.0142458
773.222	0.0142870
773.300	0.0143143
773.378	0.0142577
773.456	0.0142224
773.534	0.0141775
773.612	0.0141730
773.691	0.0142683
773.769	0.0141995
773.847	0.0141924
773.925	0.0143715
774.003	0.0141607
774.081	0.0143250
774.159	0.0143065
774.237	0.0143140
774.316	0.0141926
774.394	0.0142176
774.472	0.0144186
774.550	0.0143021
774.628	0.0142573
774.706	0.0143668
774.784	0.0142999
774.862	0.0142061
774.941	0.0142072
775.019	0.0142165
775.097	0.0143340
775.175	0.0143615
775.253	0.0142896
775.331	0.0142803
775.409	0.0142292
775.487	0.0143739
775.566	0.0141791
775.644	0.0142992
775.722	0.0142790
775.800	0.0143465
775.878	0.0142977
775.956	0.0141482
776.034	0.0142381
776.112	0.0143521
776.191	0.0143010
776.269	0.0141122
776.347	0.0142712
776.425	0.0143269
776.503	0.0144337
776.581	0.0142558
776.659	0.0142043
776.737	0.0142713
776.816	0.0142241
776.894	0.0143112
776.972	0.0143337
777.050	0.0142827
777.128	0.0143597
777.206	0.0142417
777.284	0.0143803
777.362	0.0142454
777.441	0.0143051
777.519	0.0143084
777.597	0.0141571
777.675	0.0143673
777.753	0.0143008
777.831	0.0141728
777.909	0.0143360
777.987	0.0143076
778.066	0.0141979
778.144	0.0144003
778.222	0.0142316
778.300	0.0142032
778.378	0.0143172
778.456	0.0142651
778.534	0.0144090
778.612	0.0143691
778.691	0.0143116
778.769	0.0143208
778.847	0.0143463
778.925	0.0143313
779.003	0.0144059
779.081	0.0143037
779.159	0.0143369
779.237	0.0142931
779.316	0.0142683
779.394	0.0143157
779.472	0.0141985
779.550	0.0143332
779.628	0.0143785
779.706	0.0143913
779.784	0.0143088
779.862	0.0144641
779.941	0.0144585
780.019	0.0144363
780.097	0.0143275
780.175	0.0142728
780.253	0.0143262
780.331	0.0143819
780.409	0.0142558
780.487	0.0143443
780.566	0.0143330
780.644	0.0142235
780.722	0.0144134
780.800	0.0143356
780.878	0.0142550
780.956	0.0142919
781.034	0.0143990
781.112	0.0143439
781.191	0.0143804
781.269	0.0144138
781.347	0.0144457
781.425	0.0142868
781.503	0.0144159
781.581	0.0142751
781.659	0.0143542
781.737	0.0142783
781.816	0.0143454
781.894	0.0143974
781.972	0.0142953
782.050	0.0141884
782.128	0.0142769
782.206	0.0142538
782.284	0.0142705
782.362	0.0142220
782.441	0.0142120
782.519	0.0142398
782.597	0.0142197
782.675	0.0144102
782.753	0.0144460
782.831	0.0142356
782.909	0.0140706
782.987	0.0141310
783.066	0.0141793
783.144	0.0144979
783.222	0.0142809
783.300	0.0141549
783.378	0.0142628
783.456	0.0143748
783.534	0.0143945
783.612	0.0142741
783.691	0.0142014
783.769	0.0141866
783.847	0.0143391
783.925	0.0143143
784.003	0.0143296
784.081	0.0141634
784.159	0.0143868
784.237	0.0142765
784.316	0.0142902
784.394	0.0143665
784.472	0.0143324
784.550	0.0143690
784.628	0.0142433
784.706	0.0143357
784.784	0.0143053
784.862	0.0142056
784.941	0.0142118
785.019	0.0142501
785.097	0.0143173
785.175	0.0141895
785.253	0.0142898
785.331	0.0143056
785.409	0.0143678
785.487	0.0143021
785.566	0.0143146
785.644	0.0143317
785.722	0.0142873
785.800	0.0143741
785.878	0.0143759
785.956	0.0142197
786.034	0.0144187
786.112	0.0144733
786.191	0.0143774
786.269	0.0144021
786.347	0.0142858
786.425	0.0142287
786.503	0.0142542
786.581	0.0142260
786.659	0.0143477
786.737	0.0145012
786.816	0.0142435
786.894	0.0142947
786.972	0.0142648
787.050	0.0142366
787.128	0.0142516
787.206	0.0142132
787.284	0.0142589
787.362	0.0142913
787.441	0.0141956
787.519	0.0142390
787.597	0.0143553
787.675	0.0143108
787.753	0.0142588
787.831	0.0144148
787.909	0.0141373
787.987	0.0142224
788.066	0.0142294
788.144	0.0142065
788.222	0.0143216
788.300	0.0144085
788.378	0.0143637
788.456	0.0144159
788.534	0.0143065
788.612	0.0140828
788.691	0.0143105
788.769	0.0143978
788.847	0.0144316
788.925	0.0143871
789.003	0.0143521
789.081	0.0142160
789.159	0.0142662
789.237	0.0142248
789.316	0.0143037
789.394	0.0143505
789.472	0.0144110
789.550	0.0143520
789.628	0.0142367
789.706	0.0141550
789.784	0.0141714
789.862	0.0142847
789.941	0.0142736
790.019	0.0142245
790.097	0.0142712
790.175	0.0142228
790.253	0.0141539
790.331	0.0143083
790.409	0.0143852
790.487	0.0142746
790.566	0.0142475
790.644	0.0141032
790.722	0.0141319
790.800	0.0143395
790.878	0.0142660
790.956	0.0144358
791.034	0.0143979
791.112	0.0142840
791.191	0.0141941
791.269	0.0141851
791.347	0.0143334
791.425	0.0143421
791.503	0.0142282
791.581	0.0142840
791.659	0.0143813
791.737	0.0142460
791.816	0.0143250
791.894	0.0142625
791.972	0.0143874
792.050	0.0144456
792.128	0.0143928
792.206	0.0141969
792.284	0.0141460
792.362	0.0142876
792.441	0.0142798
792.519	0.0142447
792.597	0.0142149
792.675	0.0142448
792.753	0.0143695
792.831	0.0142918
792.909	0.0142666
792.987	0.0142122
793.066	0.0143658
793.144	0.0142184
793.222	0.0141866
793.300	0.0143940
793.378	0.0143723
793.456	0.0142035
793.534	0.0143179
793.612	0.0143652
793.691	0.0142540
793.769	0.0144254
793.847	0.0143093
793.925	0.0143710
794.003	0.0142911
794.081	0.0144464
794.159	0.0143101
794.237	0.0143062
794.316	0.0144070
794.394	0.0143475
794.472	0.0143066
794.550	0.0142149
794.628	0.0142638
794.706	0.0142912
794.784	0.0142319
794.862	0.0140956
794.941	0.0143530
795.019	0.0142236
795.097	0.0143221
795.175	0.0142229
795.253	0.0143683
795.331	0.0142661
795.409	0.0143103
795.487	0.0143227
795.566	0.0142749
795.644	0.0142648
795.722	0.0142152
795.800	0.0143069
795.878	0.0143343
795.956	0.0143584
796.034	0.0143529
796.112	0.0142429
796.191	0.0141485
796.269	0.0143410
796.347	0.0142822
796.425	0.0142357
796.503	0.0142542
796.581	0.0141778
796.659	0.0141621
796.737	0.0142944
796.816	0.0144136
796.894	0.0143742
796.972	0.0142566
797.050	0.0143216
797.128	0.0144116
797.206	0.0142991
797.284	0.0143208
797.362	0.0144267
797.441	0.0143568
797.519	0.0142983
797.597	0.0144270
797.675	0.0141690
797.753	0.0143032
797.831	0.0143654
797.909	0.0141357
797.987	0.0142382
798.066	0.0142115
798.144	0.0142530
798.222	0.0141157
798.300	0.0142293
798.378	0.0143148
798.456	0.0142606
798.534	0.0142754
798.612	0.0142175
798.691	0.0142332
798.769	0.0141868
798.847	0.0142925
798.925	0.0142697
799.003	0.0143619
799.081	0.0142675
799.159	0.0143096
799.237	0.0143777
799.316	0.0142784
799.394	0.0144554
799.472	0.0144091
799.550	0.0141145
799.628	0.0144223
799.706	0.0142888
799.784	0.0142244
799.862	0.0142754
799.941	0.0142215
800.019	0.0142840
800.097	0.0142110
800.175	0.0142999
800.253	0.0144422
800.331	0.0143192
800.409	0.0143148
800.487	0.0143473
800.566	0.0143179
800.644	0.0143192
800.722	0.0141566
800.800	0.0143076
800.878	0.0142581
800.956	0.0143400
801.034	0.0142386
801.112	0.0142136
801.191	0.0143951
801.269	0.0142406
801.347	0.0142211
801.425	0.0141912
801.503	0.0143551
801.581	0.0142835
801.659	0.0144228
801.737	0.0143417
801.816	0.0141805
801.894	0.0142015
801.972	0.0142483
802.050	0.0142476
802.128	0.0142532
802.206	0.0142275
802.284	0.0142397
802.362	0.0143710
802.441	0.0143295
802.519	0.0141951
802.597	0.0142661
802.675	0.0143510
802.753	0.0142301
802.831	0.0142389
802.909	0.0141183
802.987	0.0143377
803.066	0.0143333
803.144	0.0143217
803.222	0.0145469
803.300	0.0142912
803.378	0.0143208
803.456	0.0142426
803.534	0.0143160
803.612	0.0142976
803.691	0.0143522
803.769	0.0143750
803.847	0.0144207
803.925	0.0142472
804.003	0.0142787
804.081	0.0142773
804.159	0.0143952
804.237	0.0143301
804.316	0.0143469
804.394	0.0143267
804.472	0.0142265
804.550	0.0144540
804.628	0.0143943
804.706	0.0143302
804.784	0.0144664
804.862	0.0143945
804.941	0.0142177
805.019	0.0143430
805.097	0.0143108
805.175	0.0143717
805.253	0.0142781
805.331	0.0143363
805.409	0.0141878
805.487	0.0143206
805.566	0.0143324
805.644	0.0143206
805.722	0.0143468
805.800	0.0143494
805.878	0.0144021
805.956	0.0144266
806.034	0.0143450
806.112	0.0142467
806.191	0.0143060
806.269	0.0143188
806.347	0.0143929
806.425	0.0143567
806.503	0.0143549
806.581	0.0142999
806.659	0.0143894
806.737	0.0144096
806.816	0.0142657
806.894	0.0143836
806.972	0.0143623
807.050	0.0142957
807.128	0.0144662
807.206	0.0142901
807.284	0.0143771
807.362	0.0143508
807.441	0.0143348
807.519	0.0143124
807.597	0.0144439
807.675	0.0142686
807.753	0.0142536
807.831	0.0142090
807.909	0.0142224
807.987	0.0142496
808.066	0.0143369
808.144	0.0143482
808.222	0.0142822
808.300	0.0141966
808.378	0.0142722
808.456	0.0142599
808.534	0.0143406
808.612	0.0143626
808.691	0.0143408
808.769	0.0143526
808.847	0.0143446
808.925	0.0143337
809.003	0.0143874
809.081	0.0143418
809.159	0.0144374
809.237	0.0143343
809.316	0.0143949
809.394	0.0143201
809.472	0.0142985
809.550	0.0143616
809.628	0.0143652
809.706	0.0142639
809.784	0.0143260
809.862	0.0143730
809.941	0.0143738
810.019	0.0143127
810.097	0.0141732
810.175	0.0142943
810.253	0.0143790
810.331	0.0142758
810.409	0.0141888
810.487	0.0141769
810.566	0.0142667
810.644	0.0142499
810.722	0.0142415
810.800	0.0141846
810.878	0.0143003
810.956	0.0142255
811.034	0.0141993
811.112	0.0142775
811.191	0.0143591
811.269	0.0142671
811.347	0.0143703
811.425	0.0142802
811.503	0.0143113
811.581	0.0141815
811.659	0.0142731
811.737	0.0143253
811.816	0.0143854
811.894	0.0143071
811.972	0.0142038
812.050	0.0142709
812.128	0.0142653
812.206	0.0142267
812.284	0.0141725
812.362	0.0142542
812.441	0.0142031
812.519	0.0141473
812.597	0.0141595
812.675	0.0142902
812.753	0.0141247
812.831	0.0141111
812.909	0.0142781
812.987	0.0142158
813.066	0.0142637
813.144	0.0142175
813.222	0.0143538
813.300	0.0142287
813.378	0.0142639
813.456	0.0143370
813.534	0.0141763
813.612	0.0142068
813.691	0.0143513
813.769	0.0141334
813.847	0.0142335
813.925	0.0141371
814.003	0.0141531
814.081	0.0140896
814.159	0.0142396
814.237	0.0142537
814.316	0.0143051
814.394	0.0142469
814.472	0.0141755
814.550	0.0143913
814.628	0.0143068
814.706	0.0141833
814.784	0.0142247
814.862	0.0142764
814.941	0.0142374
815.019	0.0142654
815.097	0.0142678
815.175	0.0143228
815.253	0.0144521
815.331	0.0142799
815.409	0.0143054
815.487	0.0143884
815.566	0.0145607
815.644	0.0142929
815.722	0.0142679
815.800	0.0142405
815.878	0.0143836
815.956	0.0143415
816.034	0.0143855
816.112	0.0142895
816.191	0.0143666
816.269	0.0141682
816.347	0.0142832
816.425	0.0144171
816.503	0.0142020
816.581	0.0141946
816.659	0.0143459
816.737	0.0142463
816.816	0.0141019
816.894	0.0141684
816.972	0.0141463
817.050	0.0142020
817.128	0.0143451
817.206	0.0142197
817.284	0.0140913
817.362	0.0142538
817.441	0.0142809
817.519	0.0142157
817.597	0.0142104
817.675	0.0142622
817.753	0.0142765
817.831	0.0142973
817.909	0.0143782
817.987	0.0145144
818.066	0.0143991
818.144	0.0142928
818.222	0.0143333
818.300	0.0144089
818.378	0.0143243
818.456	0.0143365
818.534	0.0141687
818.612	0.0142491
818.691	0.0141947
818.769	0.0142963
818.847	0.0142707
818.925	0.0143558
819.003	0.0142515
819.081	0.0142829
819.159	0.0143285
819.237	0.0141451
819.316	0.0142273
819.394	0.0142462
819.472	0.0141602
819.550	0.0142948
819.628	0.0142404
819.706	0.0142439
819.784	0.0143074
819.862	0.0141947
819.941	0.0141319
820.019	0.0143590
820.097	0.0142370
820.175	0.0141687
820.253	0.0142829
820.331	0.0142558
820.409	0.0141452
820.487	0.0142377
820.566	0.0143187
820.644	0.0143053
820.722	0.0142365
820.800	0.0141979
820.878	0.0141822
820.956	0.0141442
821.034	0.0141192
821.112	0.0141088
821.191	0.0141654
821.269	0.0141554
821.347	0.0141683
821.425	0.0142056
821.503	0.0141550
821.581	0.0142063
821.659	0.0142574
821.737	0.0143259
821.816	0.0142693
821.894	0.0142329
821.972	0.0143517
822.050	0.0142580
822.128	0.0143224
822.206	0.0142905
822.284	0.0141846
822.362	0.0142910
822.441	0.0143288
822.519	0.0142501
822.597	0.0142352
822.675	0.0140572
822.753	0.0140986
822.831	0.0142624
822.909	0.0142125
822.987	0.0142653
823.066	0.0141237
823.144	0.0142624
823.222	0.0141914
823.300	0.0142612
823.378	0.0141189
823.456	0.0141264
823.534	0.0141238
823.612	0.0142020
823.691	0.0141910
823.769	0.0140975
823.847	0.0142252
823.925	0.0143473
824.003	0.0143914
824.081	0.0141971
824.159	0.0143240
824.237	0.0142310
824.316	0.0142788
824.394	0.0142514
824.472	0.0143233
824.550	0.0142946
824.628	0.0142388
824.706	0.0142459
824.784	0.0143884
824.862	0.0141545
824.941	0.0141990
825.019	0.0143303
825.097	0.0142838
825.175	0.0141664
825.253	0.0143293
825.331	0.0142378
825.409	0.0143218
825.487	0.0142642
825.566	0.0143169
825.644	0.0144372
825.722	0.0143874
825.800	0.0142947
825.878	0.0143302
825.956	0.0144368
826.034	0.0144889
826.112	0.0144804
826.191	0.0142197
826.269	0.0143302
826.347	0.0145007
826.425	0.0144306
826.503	0.0142931
826.581	0.0143195
826.659	0.0143526
826.737	0.0144859
826.816	0.0143398
826.894	0.0143777
826.972	0.0144211
827.050	0.0143656
827.128	0.0142445
827.206	0.0144253
827.284	0.0143463
827.362	0.0143683
827.441	0.0143738
827.519	0.0144631
827.597	0.0143659
827.675	0.0142939
827.753	0.0144534
827.831	0.0144888
827.909	0.0144135
827.987	0.0143482
828.066	0.0143641
828.144	0.0143834
828.222	0.0142581
828.300	0.0142992
828.378	0.0143443
828.456	0.0142538
828.534	0.0143105
828.612	0.0144438
828.691	0.0144402
828.769	0.0144243
828.847	0.0143390
828.925	0.0143578
829.003	0.0142612
829.081	0.0141679
829.159	0.0141772
829.237	0.0141355
829.316	0.0143498
829.394	0.0142590
829.472	0.0142760
829.550	0.0142852
829.628	0.0142284
829.706	0.0142832
829.784	0.0142086
829.862	0.0142014
829.941	0.0143008
830.019	0.0141641
830.097	0.0142944
830.175	0.0141690
830.253	0.0142582
830.331	0.0143635
830.409	0.0142384
830.487	0.0143311
830.566	0.0142643
830.644	0.0143163
830.722	0.0143841
830.800	0.0143866
830.878	0.0142929
830.956	0.0140462
831.034	0.0143202
831.112	0.0142077
831.191	0.0141713
831.269	0.0141794
831.347	0.0141427
831.425	0.0142196
831.503	0.0141209
831.581	0.0142196
831.659	0.0142319
831.737	0.0142001
831.816	0.0141084
831.894	0.0140267
831.972	0.0141897
832.050	0.0142168
832.128	0.0142253
832.206	0.0141740
832.284	0.0143777
832.362	0.0142826
832.441	0.0141898
832.519	0.0142799
832.597	0.0143331
832.675	0.0142818
832.753	0.0141116
832.831	0.0142563
832.909	0.0143784
832.987	0.0142761
833.066	0.0143594
833.144	0.0142664
833.222	0.0142611
833.300	0.0142757
833.378	0.0143709
833.456	0.0141950
833.534	0.0142089
833.612	0.0142003
833.691	0.0143193
833.769	0.0144248
833.847	0.0143356
833.925	0.0143213
834.003	0.0141663
834.081	0.0142511
834.159	0.0142379
834.237	0.0141784
834.316	0.0142990
834.394	0.0143462
834.472	0.0143699
834.550	0.0143761
834.628	0.0143002
834.706	0.0143232
834.784	0.0142323
834.862	0.0141594
834.941	0.0143270
835.019	0.0144833
835.097	0.0142358
835.175	0.0143620
835.253	0.0143322
835.331	0.0141836
835.409	0.0141862
835.487	0.0143379
835.566	0.0141667
835.644	0.0143715
835.722	0.0143320
835.800	0.0142117
835.878	0.0143230
835.956	0.0143152
836.034	0.0142368
836.112	0.0142281
836.191	0.0143040
836.269	0.0142202
836.347	0.0144040
836.425	0.0142266
836.503	0.0142918
836.581	0.0144111
836.659	0.0142097
836.737	0.0142562
836.816	0.0142906
836.894	0.0142242
836.972	0.0143410
837.050	0.0141357
837.128	0.0143400
837.206	0.0143859
837.284	0.0143755
837.362	0.0142904
837.441	0.0143426
837.519	0.0141963
837.597	0.0143767
837.675	0.0144373
837.753	0.0143316
837.831	0.0142868
837.909	0.0142289
837.987	0.0143640
838.066	0.0143294
838.144	0.0143499
838.222	0.0142225
838.300	0.0142009
838.378	0.0143695
838.456	0.0143201
838.534	0.0142107
838.612	0.0143097
838.691	0.0142899
838.769	0.0141891
838.847	0.0142943
838.925	0.0143552
839.003	0.0144243
839.081	0.0142935
839.159	0.0143354
839.237	0.0142950
839.316	0.0142902
839.394	0.0142378
839.472	0.0142351
839.550	0.0143550
839.628	0.0142893
839.706	0.0141787
839.784	0.0142416
839.862	0.0142300
839.941	0.0141438
840.019	0.0142485
840.097	0.0143430
840.175	0.0142805
840.253	0.0141441
840.331	0.0142696
840.409	0.0143892
840.487	0.0141003
840.566	0.0143385
840.644	0.0142207
840.722	0.0141393
840.800	0.0143414
840.878	0.0143724
840.956	0.0142683
841.034	0.0143570
841.112	0.0143210
841.191	0.0143447
841.269	0.0142205
841.347	0.0141396
841.425	0.0141786
841.503	0.0141885
841.581	0.0140744
841.659	0.0141463
841.737	0.0141340
841.816	0.0141541
841.894	0.0141260
841.972	0.0142018
842.050	0.0142864
842.128	0.0144213
842.206	0.0141618
842.284	0.0141856
842.362	0.0142120
842.441	0.0141959
842.519	0.0143447
842.597	0.0143866
842.675	0.0142320
842.753	0.0141926
842.831	0.0143499
842.909	0.0143298
842.987	0.0144623
843.066	0.0143812
843.144	0.0141872
843.222	0.0142339
843.300	0.0142170
843.378	0.0142561
843.456	0.0141695
843.534	0.0142526
843.612	0.0142526
843.691	0.0142122
843.769	0.0143470
843.847	0.0143638
843.925	0.0141900
844.003	0.0143752
844.081	0.0143532
844.159	0.0142103
844.237	0.0142519
844.316	0.0143563
844.394	0.0144232
844.472	0.0142546
844.550	0.0142387
844.628	0.0143759
844.706	0.0143566
844.784	0.0141617
844.862	0.0141940
844.941	0.0142122
845.019	0.0142605
845.097	0.0143320
845.175	0.0143600
845.253	0.0142859
845.331	0.0141831
845.409	0.0143023
845.487	0.0142741
845.566	0.0142462
845.644	0.0143991
845.722	0.0143134
845.800	0.0142691
845.878	0.0143471
845.956	0.0143570
846.034	0.0143301
846.112	0.0143782
846.191	0.0142578
846.269	0.0141632
846.347	0.0143700
846.425	0.0142741
846.503	0.0142446
846.581	0.0144264
846.659	0.0143229
846.737	0.0143056
846.816	0.0143947
846.894	0.0143040
846.972	0.0142928
847.050	0.0144805
847.128	0.0142632
847.206	0.0144497
847.284	0.0142731
847.362	0.0143684
847.441	0.0145101
847.519	0.0143916
847.597	0.0143636
847.675	0.0143404
847.753	0.0142908
847.831	0.0144105
847.909	0.0144183
847.987	0.0143607
848.066	0.0142858
848.144	0.0143215
848.222	0.0143533
848.300	0.0143435
848.378	0.0143327
848.456	0.0143997
848.534	0.0142940
848.612	0.0141822
848.691	0.0143243
848.769	0.0142799
848.847	0.0143082
848.925	0.0144062
849.003	0.0144579
849.081	0.0143677
849.159	0.0143607
849.237	0.0142435
849.316	0.0144133
849.394	0.0144284
849.472	0.0142089
849.550	0.0141689
849.628	0.0144119
849.706	0.0142506
849.784	0.0142625
849.862	0.0141829
849.941	0.0142021
850.019	0.0143541
850.097	0.0143158
850.175	0.0143347
850.253	0.0142099
850.331	0.0141990
850.409	0.0143252
850.487	0.0143037
850.566	0.0142247
850.644	0.0141807
850.722	0.0143032
850.800	0.0143545
850.878	0.0143268
850.956	0.0143921
851.034	0.0142350
851.112	0.0142143
851.191	0.0142461
851.269	0.0142924
851.347	0.0143396
851.425	0.0143648
851.503	0.0142656
851.581	0.0143826
851.659	0.0143187
851.737	0.0142172
851.816	0.0142460
851.894	0.0141143
851.972	0.0142689
852.050	0.0142850
852.128	0.0142863
852.206	0.0142512
852.284	0.0142642
852.362	0.0141935
852.441	0.0143464
852.519	0.0143341
852.597	0.0144220
852.675	0.0143537
852.753	0.0143297
852.831	0.0142923
852.909	0.0142976
852.987	0.0142854
853.066	0.0142765
853.144	0.0142514
853.222	0.0143343
853.300	0.0143005
853.378	0.0142332
853.456	0.0142680
853.534	0.0142672
853.612	0.0142396
853.691	0.0141559
853.769	0.0141833
853.847	0.0140974
853.925	0.0141444
854.003	0.0142207
854.081	0.0143118
854.159	0.0142943
854.237	0.0141599
854.316	0.0142874
854.394	0.0143064
854.472	0.0142280
854.550	0.0143708
854.628	0.0143029
854.706	0.0141292
854.784	0.0143336
854.862	0.0143137
854.941	0.0142617
855.019	0.0142494
855.097	0.0143662
855.175	0.0143955
855.253	0.0142709
855.331	0.0142376
855.409	0.0142000
855.487	0.0143134
855.566	0.0143075
855.644	0.0141740
855.722	0.0142271
855.800	0.0142714
855.878	0.0141029
855.956	0.0142883
856.034	0.0144239
856.112	0.0142581
856.191	0.0141211
856.269	0.0142460
856.347	0.0141618
856.425	0.0141494
856.503	0.0143607
856.581	0.0144023
856.659	0.0142833
856.737	0.0142931
856.816	0.0142094
856.894	0.0141856
856.972	0.0142834
857.050	0.0141935
857.128	0.0142432
857.206	0.0143414
857.284	0.0143474
857.362	0.0142839
857.441	0.0143446
857.519	0.0143592
857.597	0.0141053
857.675	0.0143597
857.753	0.0143755
857.831	0.0143504
857.909	0.0143281
857.987	0.0142760
858.066	0.0141669
858.144	0.0142566
858.222	0.0143222
858.300	0.0143652
858.378	0.0143818
858.456	0.0143066
858.534	0.0143961
858.612	0.0143465
858.691	0.0142244
858.769	0.0142510
858.847	0.0144563
858.925	0.0144065
859.003	0.0144337
859.081	0.0144027
859.159	0.0143807
859.237	0.0143735
859.316	0.0144078
859.394	0.0144401
859.472	0.0142792
859.550	0.0144061
859.628	0.0143016
859.706	0.0141870
859.784	0.0141701
859.862	0.0142062
859.941	0.0141930
860.019	0.0143407
860.097	0.0143444
860.175	0.0143420
860.253	0.0142967
860.331	0.0143831
860.409	0.0143321
860.487	0.0141658
860.566	0.0143344
860.644	0.0142761
860.722	0.0142467
860.800	0.0143156
860.878	0.0143150
860.956	0.0143095
861.034	0.0142994
861.112	0.0142311
861.191	0.0142853
861.269	0.0144162
861.347	0.0142448
861.425	0.0143465
861.503	0.0141482
861.581	0.0140519
861.659	0.0143229
861.737	0.0143363
861.816	0.0143305
861.894	0.0143969
861.972	0.0142701
862.050	0.0142377
862.128	0.0141801
862.206	0.0143502
862.284	0.0143261
862.362	0.0142564
862.441	0.0143523
862.519	0.0142007
862.597	0.0142266
862.675	0.0143745
862.753	0.0143915
862.831	0.0143653
862.909	0.0142391
862.987	0.0142379
863.066	0.0142824
863.144	0.0141372
863.222	0.0142531
863.300	0.0142243
863.378	0.0141354
863.456	0.0142538
863.534	0.0141825
863.612	0.0142709
863.691	0.0142133
863.769	0.0141267
863.847	0.0142097
863.925	0.0142459
864.003	0.0141843
864.081	0.0142481
864.159	0.0142859
864.237	0.0141912
864.316	0.0142561
864.394	0.0140422
864.472	0.0141855
864.550	0.0143872
864.628	0.0141941
864.706	0.0141485
864.784	0.0142010
864.862	0.0143092
864.941	0.0141506
865.019	0.0141116
865.097	0.0143470
865.175	0.0142451
865.253	0.0142516
865.331	0.0142886
865.409	0.0143305
865.487	0.0142133
865.566	0.0141171
865.644	0.0142267
865.722	0.0143205
865.800	0.0142809
865.878	0.0141680
865.956	0.0142667
866.034	0.0141392
866.112	0.0142276
866.191	0.0142420
866.269	0.0142372
866.347	0.0141936
866.425	0.0142437
866.503	0.0143490
866.581	0.0143266
866.659	0.0140682
866.737	0.0141238
866.816	0.0141681
866.894	0.0141610
866.972	0.0143634
867.050	0.0144953
867.128	0.0142887
867.206	0.0143032
867.284	0.0143113
867.362	0.0143306
867.441	0.0143132
867.519	0.0141372
867.597	0.0141959
867.675	0.0143626
867.753	0.0142908
867.831	0.0141908
867.909	0.0141920
867.987	0.0142316
868.066	0.0140994
868.144	0.0142937
868.222	0.0144012
868.300	0.0143227
868.378	0.0142381
868.456	0.0143021
868.534	0.0143174
868.612	0.0142879
868.691	0.0142622
868.769	0.0143509
868.847	0.0143233
868.925	0.0141746
869.003	0.0141795
869.081	0.0144057
869.159	0.0142836
869.237	0.0142990
869.316	0.0143770
869.394	0.0142053
869.472	0.0142346
869.550	0.0141763
869.628	0.0143452
869.706	0.0142525
869.784	0.0142688
869.862	0.0141792
869.941	0.0143152
870.019	0.0143034
870.097	0.0142290
870.175	0.0141581
870.253	0.0144141
870.331	0.0142416
870.409	0.0142662
870.487	0.0143221
870.566	0.0142380
870.644	0.0141723
870.722	0.0142581
870.800	0.0142242
870.878	0.0142522
870.956	0.0143279
871.034	0.0141834
871.112	0.0142575
871.191	0.0143154
871.269	0.0142139
871.347	0.0143797
871.425	0.0142788
871.503	0.0143301
871.581	0.0142812
871.659	0.0142756
871.737	0.0142751
871.816	0.0142174
871.894	0.0143102
871.972	0.0143296
872.050	0.0142348
872.128	0.0142944
872.206	0.0142011
872.284	0.0142286
872.362	0.0141934
872.441	0.0143878
872.519	0.0142843
872.597	0.0142453
872.675	0.0143661
872.753	0.0143504
872.831	0.0143025
872.909	0.0143105
872.987	0.0143471
873.066	0.0143493
873.144	0.0144563
873.222	0.0145376
873.300	0.0143266
873.378	0.0142717
873.456	0.0144197
873.534	0.0144057
873.612	0.0143361
873.691	0.0143389
873.769	0.0142566
873.847	0.0143650
873.925	0.0143405
874.003	0.0143063
874.081	0.0143056
874.159	0.0143404
874.237	0.0143832
874.316	0.0142481
874.394	0.0142549
874.472	0.0143238
874.550	0.0142442
874.628	0.0143839
874.706	0.0142840
874.784	0.0144211
874.862	0.0143379
874.941	0.0142274
875.019	0.0143853
875.097	0.0143154
875.175	0.0143298
875.253	0.0144437
875.331	0.0143200
875.409	0.0142686
875.487	0.0142171
875.566	0.0143016
875.644	0.0143307
875.722	0.0142290
875.800	0.0143862
875.878	0.0143224
875.956	0.0142884
876.034	0.0142413
876.112	0.0142538
876.191	0.0144469
876.269	0.0143347
876.347	0.0143250
876.425	0.0142158
876.503	0.0141724
876.581	0.0141452
876.659	0.0142683
876.737	0.0142926
876.816	0.0142958
876.894	0.0142809
876.972	0.0143703
877.050	0.0142724
877.128	0.0143255
877.206	0.0142835
877.284	0.0142345
877.362	0.0142880
877.441	0.0143382
877.519	0.0143243
877.597	0.0143237
877.675	0.0143620
877.753	0.0143243
877.831	0.0142297
877.909	0.0142178
877.987	0.0142858
878.066	0.0142780
878.144	0.0141808
878.222	0.0142642
878.300	0.0143140
878.378	0.0141916
878.456	0.0142355
878.534	0.0143091
878.612	0.0143030
878.691	0.0141299
878.769	0.0142686
878.847	0.0142725
878.925	0.0142834
879.003	0.0141090
879.081	0.0141772
879.159	0.0143608
879.237	0.0142713
879.316	0.0142660
879.394	0.0142645
879.472	0.0142979
879.550	0.0143974
879.628	0.0142609
879.706	0.0142876
879.784	0.0143990
879.862	0.0143297
879.941	0.0142315
880.019	0.0141998
880.097	0.0143217
880.175	0.0142834
880.253	0.0142594
880.331	0.0142722
880.409	0.0142128
880.487	0.0142794
880.566	0.0143385
880.644	0.0142583
880.722	0.0141581
880.800	0.0142569
880.878	0.0143285
880.956	0.0142284
881.034	0.0142857
881.112	0.0143353
881.191	0.0142358
881.269	0.0141893
881.347	0.0143407
881.425	0.0143365
881.503	0.0144038
881.581	0.0143138
881.659	0.0143757
881.737	0.0143640
881.816	0.0143124
881.894	0.0143530
881.972	0.0143267
882.050	0.0142406
882.128	0.0143008
882.206	0.0143310
882.284	0.0143124
882.362	0.0142183
882.441	0.0141969
882.519	0.0142675
882.597	0.0143073
882.675	0.0142511
882.753	0.0142858
882.831	0.0142181
882.909	0.0143180
882.987	0.0143432
883.066	0.0142244
883.144	0.0143067
883.222	0.0143743
883.300	0.0142204
883.378	0.0141320
883.456	0.0141992
883.534	0.0142335
883.612	0.0143567
883.691	0.0142850
883.769	0.0143192
883.847	0.0143707
883.925	0.0143652
884.003	0.0142467
884.081	0.0143143
884.159	0.0143127
884.237	0.0141700
884.316	0.0141322
884.394	0.0143138
884.472	0.0142822
884.550	0.0142941
884.628	0.0142023
884.706	0.0141481
884.784	0.0141277
884.862	0.0144667
884.941	0.0144276
885.019	0.0143283
885.097	0.0142136
885.175	0.0142612
885.253	0.0141823
885.331	0.0142760
885.409	0.0144367
885.487	0.0143065
885.566	0.0142776
885.644	0.0143486
885.722	0.0143811
885.800	0.0144176
885.878	0.0142666
885.956	0.0142847
886.034	0.0143303
886.112	0.0145249
886.191	0.0142597
886.269	0.0141788
886.347	0.0143664
886.425	0.0144110
886.503	0.0143171
886.581	0.0142216
886.659	0.0142997
886.737	0.0144645
886.816	0.0142290
886.894	0.0142723
886.972	0.0143209
887.050	0.0142846
887.128	0.0141777
887.206	0.0144089
887.284	0.0143279
887.362	0.0142422
887.441	0.0142844
887.519	0.0142425
887.597	0.0142793
887.675	0.0143770
887.753	0.0143048
887.831	0.0142747
887.909	0.0143726
887.987	0.0142776
888.066	0.0142381
888.144	0.0141731
888.222	0.0143081
888.300	0.0142828
888.378	0.0142445
888.456	0.0143687
888.534	0.0143971
888.612	0.0143011
888.691	0.0143282
888.769	0.0141685
888.847	0.0142902
888.925	0.0141756
889.003	0.0143137
889.081	0.0142455
889.159	0.0144065
889.237	0.0141956
889.316	0.0141224
889.394	0.0142645
889.472	0.0143192
889.550	0.0143423
889.628	0.0141628
889.706	0.0143880
889.784	0.0141990
889.862	0.0142303
889.941	0.0142793
890.019	0.0142162
890.097	0.0142630
890.175	0.0143328
890.253	0.0141631
890.331	0.0142107
890.409	0.0142240
890.487	0.0142770
890.566	0.0140096
890.644	0.0141472
890.722	0.0142429
890.800	0.0142509
890.878	0.0142017
890.956	0.0142648
891.034	0.0141985
891.112	0.0141161
891.191	0.0141607
891.269	0.0142159
891.347	0.0141368
891.425	0.0143282
891.503	0.0142194
891.581	0.0141638
891.659	0.0141853
891.737	0.0141214
891.816	0.0141872
891.894	0.0141998
891.972	0.0142616
892.050	0.0142068
892.128	0.0141840
892.206	0.0142246
892.284	0.0142689
892.362	0.0141982
892.441	0.0141040
892.519	0.0140695
892.597	0.0141222
892.675	0.0141441
892.753	0.0143565
892.831	0.0142185
892.909	0.0141293
892.987	0.0143335
893.066	0.0142432
893.144	0.0141937
893.222	0.0142799
893.300	0.0143332
893.378	0.0141436
893.456	0.0142922
893.534	0.0143027
893.612	0.0143853
893.691	0.0141653
893.769	0.0141375
893.847	0.0142007
893.925	0.0142535
894.003	0.0141978
894.081	0.0142435
894.159	0.0143218
894.237	0.0142937
894.316	0.0143536
894.394	0.0142550
894.472	0.0142151
894.550	0.0142898
894.628	0.0142598
894.706	0.0143060
894.784	0.0142844
894.862	0.0141755
894.941	0.0142675
895.019	0.0144133
895.097	0.0143597
895.175	0.0143240
895.253	0.0142016
895.331	0.0142364
895.409	0.0143935
895.487	0.0142776
895.566	0.0142871
895.644	0.0143639
895.722	0.0142912
895.800	0.0143601
895.878	0.0143846
895.956	0.0143836
896.034	0.0143514
896.112	0.0144283
896.191	0.0143322
896.269	0.0143222
896.347	0.0143075
896.425	0.0143596
896.503	0.0142813
896.581	0.0144344
896.659	0.0144007
896.737	0.0143392
896.816	0.0142950
896.894	0.0142478
896.972	0.0143190
897.050	0.0143472
897.128	0.0143729
897.206	0.0144349
897.284	0.0144518
897.362	0.0142229
897.441	0.0142793
897.519	0.0142052
897.597	0.0144519
897.675	0.0142901
897.753	0.0143788
897.831	0.0143438
897.909	0.0142726
897.987	0.0142440
898.066	0.0142088
898.144	0.0143825
898.222	0.0143050
898.300	0.0142158
898.378	0.0143340
898.456	0.0143536
898.534	0.0142419
898.612	0.0142161
898.691	0.0142077
898.769	0.0142352
898.847	0.0142769
898.925	0.0142809
899.003	0.0142122
899.081	0.0142164
899.159	0.0142447
899.237	0.0144527
899.316	0.0143322
899.394	0.0143890
899.472	0.0142280
899.550	0.0142664
899.628	0.0142245
899.706	0.0142460
899.784	0.0143642
899.862	0.0141366
899.941	0.0142513
900.019	0.0142834
900.097	0.0142751
900.175	0.0141846
900.253	0.0141875
900.331	0.0143131
900.409	0.0142681
900.487	0.0142651
900.566	0.0142799
900.644	0.0142329
900.722	0.0144224
900.800	0.0141788
900.878	0.0141371
900.956	0.0142216
901.034	0.0142385
901.112	0.0142165
901.191	0.0141850
901.269	0.0141450
901.347	0.0142822
901.425	0.0142287
901.503	0.0142622
901.581	0.0142378
901.659	0.0141813
901.737	0.0141300
901.816	0.0142164
901.894	0.0142643
901.972	0.0142130
902.050	0.0142720
902.128	0.0142383
902.206	0.0142732
902.284	0.0142393
902.362	0.0141827
902.441	0.0141515
902.519	0.0142123
902.597	0.0143674
902.675	0.0142368
902.753	0.0142023
902.831	0.0142139
902.909	0.0142424
902.987	0.0141676
903.066	0.0141570
903.144	0.0142931
903.222	0.0141869
903.300	0.0142499
903.378	0.0142151
903.456	0.0142078
903.534	0.0143073
903.612	0.0142902
903.691	0.0141942
903.769	0.0142028
903.847	0.0143351
903.925	0.0142661
904.003	0.0143326
904.081	0.0141779
904.159	0.0143382
904.237	0.0142709
904.316	0.0141474
904.394	0.0141917
904.472	0.0141294
904.550	0.0142119
904.628	0.0142116
904.706	0.0142406
904.784	0.0142533
904.862	0.0142388
904.941	0.0143835
905.019	0.0142766
905.097	0.0142432
905.175	0.0142495
905.253	0.0141541
905.331	0.0142478
905.409	0.0142889
905.487	0.0141959
905.566	0.0142202
905.644	0.0141466
905.722	0.0142874
905.800	0.0142855
905.878	0.0141573
905.956	0.0143320
906.034	0.0143530
906.112	0.0144491
906.191	0.0143312
906.269	0.0144083
906.347	0.0142947
906.425	0.0143138
906.503	0.0142867
906.581	0.0143632
906.659	0.0143581
906.737	0.0141965
906.816	0.0142290
906.894	0.0142092
906.972	0.0142180
907.050	0.0142997
907.128	0.0142026
907.206	0.0141463
907.284	0.0142909
907.362	0.0141673
907.441	0.0141710
907.519	0.0141975
907.597	0.0142894
907.675	0.0141888
907.753	0.0144129
907.831	0.0142477
907.909	0.0143877
907.987	0.0142522
908.066	0.0143983
908.144	0.0144968
908.222	0.0143417
908.300	0.0142893
908.378	0.0143347
908.456	0.0143098
908.534	0.0142484
908.612	0.0143450
908.691	0.0142826
908.769	0.0142888
908.847	0.0141263
908.925	0.0142507
909.003	0.0142397
909.081	0.0141898
909.159	0.0142905
909.237	0.0142896
909.316	0.0142317
909.394	0.0142097
909.472	0.0142552
909.550	0.0143086
909.628	0.0143495
909.706	0.0143118
909.784	0.0143201
909.862	0.0143482
909.941	0.0141097
910.019	0.0142080
910.097	0.0142458
910.175	0.0142464
910.253	0.0142213
910.331	0.0143127
910.409	0.0142534
910.487	0.0141960
910.566	0.0142665
910.644	0.0143309
910.722	0.0144463
910.800	0.0143054
910.878	0.0143279
910.956	0.0143317
911.034	0.0142419
911.112	0.0142797
911.191	0.0140456
911.269	0.0141644
911.347	0.0142171
911.425	0.0142777
911.503	0.0141402
911.581	0.0141548
911.659	0.0141705
911.737	0.0141613
911.816	0.0140763
911.894	0.0141282
911.972	0.0140359
912.050	0.0140433
912.128	0.0140928
912.206	0.0141963
912.284	0.0141601
912.362	0.0142785
912.441	0.0140091
912.519	0.0141321
912.597	0.0140893
912.675	0.0141670
912.753	0.0142985
912.831	0.0142396
912.909	0.0142760
912.987	0.0141712
913.066	0.0141280
913.144	0.0142871
913.222	0.0141838
913.300	0.0140997
913.378	0.0141200
913.456	0.0140680
913.534	0.0140983
913.612	0.0141641
913.691	0.0141851
913.769	0.0141383
913.847	0.0141689
913.925	0.0141242
914.003	0.0140791
914.081	0.0142420
914.159	0.0142964
914.237	0.0142788
914.316	0.0141160
914.394	0.0141904
914.472	0.0142594
914.550	0.0141656
914.628	0.0142607
914.706	0.0142297
914.784	0.0141466
914.862	0.0141945
914.941	0.0140552
915.019	0.0142135
915.097	0.0143330
915.175	0.0142332
915.253	0.0141247
915.331	0.0140930
915.409	0.0141897
915.487	0.0141728
915.566	0.0142135
915.644	0.0141254
915.722	0.0142597
915.800	0.0141337
915.878	0.0141254
915.956	0.0143726
916.034	0.0142912
916.112	0.0141865
916.191	0.0142606
916.269	0.0143670
916.347	0.0142857
916.425	0.0142800
916.503	0.0142460
916.581	0.0142923
916.659	0.0143237
916.737	0.0141673
916.816	0.0140829
916.894	0.0143716
916.972	0.0143002
917.050	0.0142087
917.128	0.0141560
917.206	0.0142043
917.284	0.0143698
917.362	0.0144353
917.441	0.0142165
917.519	0.0141997
917.597	0.0143109
917.675	0.0142554
917.753	0.0141796
917.831	0.0143673
917.909	0.0142928
917.987	0.0142861
918.066	0.0142907
918.144	0.0142445
918.222	0.0143032
918.300	0.0142640
918.378	0.0142339
918.456	0.0141681
918.534	0.0142910
918.612	0.0142264
918.691	0.0141995
918.769	0.0142442
918.847	0.0142183
918.925	0.0142657
919.003	0.0142136
919.081	0.0141895
919.159	0.0143198
919.237	0.0143938
919.316	0.0142210
919.394	0.0143088
919.472	0.0142801
919.550	0.0143740
919.628	0.0144103
919.706	0.0142814
919.784	0.0143098
919.862	0.0143599
919.941	0.0143418
920.019	0.0142544
920.097	0.0142165
920.175	0.0143087
920.253	0.0143634
920.331	0.0143452
920.409	0.0142204
920.487	0.0142628
920.566	0.0142300
920.644	0.0142818
920.722	0.0143301
920.800	0.0142806
920.878	0.0141657
920.956	0.0142009
921.034	0.0143182
921.112	0.0143047
921.191	0.0142424
921.269	0.0143377
921.347	0.0142567
921.425	0.0142816
921.503	0.0142744
921.581	0.0142781
921.659	0.0142289
921.737	0.0143346
921.816	0.0142541
921.894	0.0142735
921.972	0.0142881
922.050	0.0142799
922.128	0.0142082
922.206	0.0142975
922.284	0.0142165
922.362	0.0142011
922.441	0.0143004
922.519	0.0142888
922.597	0.0143562
922.675	0.0143564
922.753	0.0143607
922.831	0.0143061
922.909	0.0142693
922.987	0.0143105
923.066	0.0143176
923.144	0.0142319
923.222	0.0141827
923.300	0.0142048
923.378	0.0142052
923.456	0.0141487
923.534	0.0142257
923.612	0.0141035
923.691	0.0141743
923.769	0.0140066
923.847	0.0141698
923.925	0.0142155
924.003	0.0141071
924.081	0.0141196
924.159	0.0142405
924.237	0.0142485
924.316	0.0141996
924.394	0.0141116
924.472	0.0142863
924.550	0.0142761
924.628	0.0141665
924.706	0.0142024
924.784	0.0142277
924.862	0.0144234
924.941	0.0143416
925.019	0.0141894
925.097	0.0141449
925.175	0.0142438
925.253	0.0142050
925.331	0.0142808
925.409	0.0142552
925.487	0.0140974
925.566	0.0142220
925.644	0.0142125
925.722	0.0143321
925.800	0.0142333
925.878	0.0142046
925.956	0.0142762
926.034	0.0142679
926.112	0.0142720
926.191	0.0141757
926.269	0.0141602
926.347	0.0142695
926.425	0.0142622
926.503	0.0142877
926.581	0.0142817
926.659	0.0143517
926.737	0.0142413
926.816	0.0143592
926.894	0.0142860
926.972	0.0142296
927.050	0.0143279
927.128	0.0142709
927.206	0.0143299
927.284	0.0143212
927.362	0.0143514
927.441	0.0144231
927.519	0.0142782
927.597	0.0141915
927.675	0.0143913
927.753	0.0143162
927.831	0.0144007
927.909	0.0142548
927.987	0.0142514
928.066	0.0142645
928.144	0.0141946
928.222	0.0142979
928.300	0.0141958
928.378	0.0144890
928.456	0.0142538
928.534	0.0142453
928.612	0.0142861
928.691	0.0141850
928.769	0.0141704
928.847	0.0142436
928.925	0.0143114
929.003	0.0143268
929.081	0.0142022
929.159	0.0143153
929.237	0.0143678
929.316	0.0142630
929.394	0.0144585
929.472	0.0142398
929.550	0.0141575
929.628	0.0143070
929.706	0.0142000
929.784	0.0143367
929.862	0.0143087
929.941	0.0143659
930.019	0.0142542
930.097	0.0144877
930.175	0.0144152
930.253	0.0143063
930.331	0.0144073
930.409	0.0142415
930.487	0.0142999
930.566	0.0142966
930.644	0.0143032
930.722	0.0143009
930.800	0.0142619
930.878	0.0142229
930.956	0.0143545
931.034	0.0143820
931.112	0.0142025
931.191	0.0142595
931.269	0.0142817
931.347	0.0142530
931.425	0.0143533
931.503	0.0143954
931.581	0.0143298
931.659	0.0142616
931.737	0.0143779
931.816	0.0143069
931.894	0.0144577
931.972	0.0144354
932.050	0.0143338
932.128	0.0144463
932.206	0.0142891
932.284	0.0142590
932.362	0.0141503
932.441	0.0141766
932.519	0.0142518
932.597	0.0143235
932.675	0.0142397
932.753	0.0142884
932.831	0.0143169
932.909	0.0142673
932.987	0.0143603
933.066	0.0142554
933.144	0.0141401
933.222	0.0141962
933.300	0.0141311
933.378	0.0142877
933.456	0.0142435
933.534	0.0143042
933.612	0.0140427
933.691	0.0140752
933.769	0.0141858
933.847	0.0142887
933.925	0.0142698
934.003	0.0140637
934.081	0.0142714
934.159	0.0142381
934.237	0.0142149
934.316	0.0141410
934.394	0.0141744
934.472	0.0141881
934.550	0.0141586
934.628	0.0143900
934.706	0.0142965
934.784	0.0141679
934.862	0.0142902
934.941	0.0143419
935.019	0.0141739
935.097	0.0142589
935.175	0.0142445
935.253	0.0142078
935.331	0.0142870
935.409	0.0143995
935.487	0.0141499
935.566	0.0143365
935.644	0.0141805
935.722	0.0141209
935.800	0.0142448
935.878	0.0141174
935.956	0.0142498
936.034	0.0140881
936.112	0.0143033
936.191	0.0141554
936.269	0.0141032
936.347	0.0140926
936.425	0.0142274
936.503	0.0142954
936.581	0.0143134
936.659	0.0142081
936.737	0.0141479
936.816	0.0142800
936.894	0.0143556
936.972	0.0141619
937.050	0.0141807
937.128	0.0143645
937.206	0.0143420
937.284	0.0141586
937.362	0.0143878
937.441	0.0142262
937.519	0.0142678
937.597	0.0143216
937.675	0.0142944
937.753	0.0143292
937.831	0.0142628
937.909	0.0142434
937.987	0.0142274
938.066	0.0142632
938.144	0.0143089
938.222	0.0143039
938.300	0.0142571
938.378	0.0143181
938.456	0.0144076
938.534	0.0142603
938.612	0.0142455
938.691	0.0143578
938.769	0.0143211
938.847	0.0142706
938.925	0.0143416
939.003	0.0143391
939.081	0.0142830
939.159	0.0142708
939.237	0.0141769
939.316	0.0141940
939.394	0.0142968
939.472	0.0142637
939.550	0.0141966
939.628	0.0141883
939.706	0.0142101
939.784	0.0142976
939.862	0.0143256
939.941	0.0142970
940.019	0.0141798
940.097	0.0142532
940.175	0.0144376
940.253	0.0142239
940.331	0.0143034
940.409	0.0143567
940.487	0.0142094
940.566	0.0142972
940.644	0.0142116
940.722	0.0142623
940.800	0.0143365
940.878	0.0144241
940.956	0.0141730
941.034	0.0141366
941.112	0.0143041
941.191	0.0143627
941.269	0.0142924
941.347	0.0143443
941.425	0.0142784
941.503	0.0142993
941.581	0.0141992
941.659	0.0142542
941.737	0.0143513
941.816	0.0143818
941.894	0.0143222
941.972	0.0144585
942.050	0.0143669
942.128	0.0144004
942.206	0.0143226
942.284	0.0144321
942.362	0.0145405
942.441	0.0143719
942.519	0.0144280
942.597	0.0143248
942.675	0.0143413
942.753	0.0144336
942.831	0.0142930
942.909	0.0143614
942.987	0.0143555
943.066	0.0144013
943.144	0.0143063
943.222	0.0143201
943.300	0.0143388
943.378	0.0143753
943.456	0.0144284
943.534	0.0142015
943.612	0.0141869
943.691	0.0143526
943.769	0.0143835
943.847	0.0142847
943.925	0.0142116
944.003	0.0142031
944.081	0.0141901
944.159	0.0142946
944.237	0.0144096
944.316	0.0142659
944.394	0.0142651
944.472	0.0142468
944.550	0.0141953
944.628	0.0142804
944.706	0.0142049
944.784	0.0141819
944.862	0.0142007
944.941	0.0142411
945.019	0.0142696
945.097	0.0142262
945.175	0.0143156
945.253	0.0141282
945.331	0.0141795
945.409	0.0142590
945.487	0.0143989
945.566	0.0142374
945.644	0.0142028
945.722	0.0142834
945.800	0.0143185
945.878	0.0142969
945.956	0.0142766
946.034	0.0142785
946.112	0.0142142
946.191	0.0142820
946.269	0.0141718
946.347	0.0141547
946.425	0.0141802
946.503	0.0142425
946.581	0.0142500
946.659	0.0143262
946.737	0.0142617
946.816	0.0141505
946.894	0.0141846
946.972	0.0142972
947.050	0.0142210
947.128	0.0141242
947.206	0.0142262
947.284	0.0141582
947.362	0.0143784
947.441	0.0143562
947.519	0.0140366
947.597	0.0142297
947.675	0.0143438
947.753	0.0142303
947.831	0.0142583
947.909	0.0142531
947.987	0.0141917
948.066	0.0142944
948.144	0.0143253
948.222	0.0143397
948.300	0.0143745
948.378	0.0142793
948.456	0.0142789
948.534	0.0142184
948.612	0.0142876
948.691	0.0143580
948.769	0.0143068
948.847	0.0142220
948.925	0.0144040
949.003	0.0144126
949.081	0.0141736
949.159	0.0141148
949.237	0.0143844
949.316	0.0143752
949.394	0.0142793
949.472	0.0141889
949.550	0.0142496
949.628	0.0143449
949.706	0.0144004
949.784	0.0143054
949.862	0.0144581
949.941	0.0141870
950.019	0.0142916
950.097	0.0142333
950.175	0.0142956
950.253	0.0142950
950.331	0.0143145
950.409	0.0143055
950.487	0.0143015
950.566	0.0142017
950.644	0.0141439
950.722	0.0143279
950.800	0.0142657
950.878	0.0143836
950.956	0.0142326
951.034	0.0143472
951.112	0.0142080
951.191	0.0143380
951.269	0.0143899
951.347	0.0144359
951.425	0.0144022
951.503	0.0142039
951.581	0.0142487
951.659	0.0143926
951.737	0.0144041
951.816	0.0143665
951.894	0.0144498
951.972	0.0144201
952.050	0.0143316
952.128	0.0143510
952.206	0.0142576
952.284	0.0142561
952.362	0.0143060
952.441	0.0143117
952.519	0.0143970
952.597	0.0143856
952.675	0.0143145
952.753	0.0142577
952.831	0.0145090
952.909	0.0143155
952.987	0.0142879
953.066	0.0143552
953.144	0.0141772
953.222	0.0144293
953.300	0.0143681
953.378	0.0142251
953.456	0.0142937
953.534	0.0143341
953.612	0.0143946
953.691	0.0142976
953.769	0.0144599
953.847	0.0143461
953.925	0.0143128
954.003	0.0142621
954.081	0.0142809
954.159	0.0143781
954.237	0.0146200
954.316	0.0143156
954.394	0.0141779
954.472	0.0143620
954.550	0.0143718
954.628	0.0143789
954.706	0.0143040
954.784	0.0143322
954.862	0.0142326
954.941	0.0143639
955.019	0.0143774
955.097	0.0144135
955.175	0.0143597
955.253	0.0143375
955.331	0.0143349
955.409	0.0141428
955.487	0.0142158
955.566	0.0142108
955.644	0.0143172
955.722	0.0142465
955.800	0.0142542
955.878	0.0142509
955.956	0.0142107
956.034	0.0141612
956.112	0.0143793
956.191	0.0142949
956.269	0.0142674
956.347	0.0141283
956.425	0.0142830
956.503	0.0142611
956.581	0.0141790
956.659	0.0142015
956.737	0.0141907
956.816	0.0141586
956.894	0.0143085
956.972	0.0141251
957.050	0.0141947
957.128	0.0140874
957.206	0.0141969
957.284	0.0143545
957.362	0.0142941
957.441	0.0143304
957.519	0.0143217
957.597	0.0142788
957.675	0.0142636
957.753	0.0144618
957.831	0.0142233
957.909	0.0143616
957.987	0.0141679
958.066	0.0143002
958.144	0.0143430
958.222	0.0143061
958.300	0.0142888
958.378	0.0142241
958.456	0.0141399
958.534	0.0142799
958.612	0.0141956
958.691	0.0141727
958.769	0.0142322
958.847	0.0141970
958.925	0.0143148
959.003	0.0142353
959.081	0.0142828
959.159	0.0142519
959.237	0.0142207
959.316	0.0142268
959.394	0.0141518
959.472	0.0141776
959.550	0.0143064
959.628	0.0141879
959.706	0.0142864
959.784	0.0143451
959.862	0.0142866
959.941	0.0141610
960.019	0.0142240
960.097	0.0141915
960.175	0.0142365
960.253	0.0141834
960.331	0.0140747
960.409	0.0141679
960.487	0.0141865
960.566	0.0141693
960.644	0.0142690
960.722	0.0141929
960.800	0.0141957
960.878	0.0141770
960.956	0.0142410
961.034	0.0142799
961.112	0.0143877
961.191	0.0143753
961.269	0.0142940
961.347	0.0142492
961.425	0.0141289
961.503	0.0142162
961.581	0.0143130
961.659	0.0143257
961.737	0.0141719
961.816	0.0141972
961.894	0.0144009
961.972	0.0142496
962.050	0.0141479
962.128	0.0142513
962.206	0.0142709
962.284	0.0141686
962.362	0.0141418
962.441	0.0142764
962.519	0.0142587
962.597	0.0142909
962.675	0.0144081
962.753	0.0143440
962.831	0.0143257
962.909	0.0142280
962.987	0.0143667
963.066	0.0143520
963.144	0.0143101
963.222	0.0142369
963.300	0.0142758
963.378	0.0142788
963.456	0.0142764
963.534	0.0142647
963.612	0.0142857
963.691	0.0142921
963.769	0.0142486
963.847	0.0141164
963.925	0.0141922
964.003	0.0142804
964.081	0.0142696
964.159	0.0143173
964.237	0.0141843
964.316	0.0142781
964.394	0.0141867
964.472	0.0143018
964.550	0.0143546
964.628	0.0141155
964.706	0.0141588
964.784	0.0144633
964.862	0.0142279
964.941	0.0143333
965.019	0.0142431
965.097	0.0143592
965.175	0.0143076
965.253	0.0142358
965.331	0.0143074
965.409	0.0144450
965.487	0.0144031
965.566	0.0142330
965.644	0.0142949
965.722	0.0143325
965.800	0.0142539
965.878	0.0142949
965.956	0.0144212
966.034	0.0142011
966.112	0.0143581
966.191	0.0143233
966.269	0.0142413
966.347	0.0143526
966.425	0.0141311
966.503	0.0143385
966.581	0.0144157
966.659	0.0142582
966.737	0.0141695
966.816	0.0143009
966.894	0.0143157
966.972	0.0143489
967.050	0.0143044
967.128	0.0142216
967.206	0.0141776
967.284	0.0142812
967.362	0.0143867
967.441	0.0142918
967.519	0.0143914
967.597	0.0142354
967.675	0.0142950
967.753	0.0141958
967.831	0.0143092
967.909	0.0141691
967.987	0.0141726
968.066	0.0142577
968.144	0.0142101
968.222	0.0141928
968.300	0.0142287
968.378	0.0142232
968.456	0.0143020
968.534	0.0142997
968.612	0.0142731
968.691	0.0142281
968.769	0.0143417
968.847	0.0141771
968.925	0.0143605
969.003	0.0143872
969.081	0.0143356
969.159	0.0141140
969.237	0.0142371
969.316	0.0142824
969.394	0.0142998
969.472	0.0144010
969.550	0.0142711
969.628	0.0142650
969.706	0.0143145
969.784	0.0141786
969.862	0.0143981
969.941	0.0143018
970.019	0.0142402
970.097	0.0142907
970.175	0.0141236
970.253	0.0143010
970.331	0.0143501
970.409	0.0141739
970.487	0.0141469
970.566	0.0142252
970.644	0.0141331
970.722	0.0143397
970.800	0.0141603
970.878	0.0142844
970.956	0.0141901
971.034	0.0142620
971.112	0.0143214
971.191	0.0142020
971.269	0.0141738
971.347	0.0144081
971.425	0.0142612
971.503	0.0142519
971.581	0.0143038
971.659	0.0142677
971.737	0.0142251
971.816	0.0143478
971.894	0.0142594
971.972	0.0142614
972.050	0.0142770
972.128	0.0142413
972.206	0.0143054
972.284	0.0143371
972.362	0.0142455
972.441	0.0143135
972.519	0.0143398
972.597	0.0144376
972.675	0.0144144
972.753	0.0142966
972.831	0.0142649
972.909	0.0142557
972.987	0.0141963
973.066	0.0142068
973.144	0.0143201
973.222	0.0142787
973.300	0.0143383
973.378	0.0144418
973.456	0.0144212
973.534	0.0143808
973.612	0.0143124
973.691	0.0143314
973.769	0.0143311
973.847	0.0142828
973.925	0.0142342
974.003	0.0142694
974.081	0.0143634
974.159	0.0143047
974.237	0.0142555
974.316	0.0144662
974.394	0.0144426
974.472	0.0143872
974.550	0.0143262
974.628	0.0142719
974.706	0.0143285
974.784	0.0144006
974.862	0.0143764
974.941	0.0143189
975.019	0.0144308
975.097	0.0143097
975.175	0.0142572
975.253	0.0143140
975.331	0.0143889
975.409	0.0142548
975.487	0.0143621
975.566	0.0144008
975.644	0.0143642
975.722	0.0143504
975.800	0.0143616
975.878	0.0143877
975.956	0.0143027
976.034	0.0144587
976.112	0.0144704
976.191	0.0143144
976.269	0.0141944
976.347	0.0144481
976.425	0.0143231
976.503	0.0144473
976.581	0.0143668
976.659	0.0144205
976.737	0.0143143
976.816	0.0142236
976.894	0.0143233
976.972	0.0144380
977.050	0.0144431
977.128	0.0143243
977.206	0.0142922
977.284	0.0142508
977.362	0.0143335
977.441	0.0142793
977.519	0.0143244
977.597	0.0142635
977.675	0.0142347
977.753	0.0142986
977.831	0.0143942
977.909	0.0143407
977.987	0.0143124
978.066	0.0143894
978.144	0.0143479
978.222	0.0144234
978.300	0.0143458
978.378	0.0142982
978.456	0.0143423
978.534	0.0142671
978.612	0.0142326
978.691	0.0143555
978.769	0.0143250
978.847	0.0143421
978.925	0.0143717
979.003	0.0143431
979.081	0.0142706
979.159	0.0143148
979.237	0.0143186
979.316	0.0143391
979.394	0.0142489
979.472	0.0142900
979.550	0.0142590
979.628	0.0143424
979.706	0.0143166
979.784	0.0143775
979.862	0.0142889
979.941	0.0143004
980.019	0.0142628
980.097	0.0142731
980.175	0.0142201
980.253	0.0142363
980.331	0.0140549
980.409	0.0141044
980.487	0.0141792
980.566	0.0142236
980.644	0.0143417
980.722	0.0141947
980.800	0.0142834
980.878	0.0144127
980.956	0.0141717
981.034	0.0141511
981.112	0.0141611
981.191	0.0141187
981.269	0.0141643
981.347	0.0142393
981.425	0.0142101
981.503	0.0142901
981.581	0.0142981
981.659	0.0143286
981.737	0.0141573
981.816	0.0142762
981.894	0.0143395
981.972	0.0142020
982.050	0.0141820
982.128	0.0142782
982.206	0.0142474
982.284	0.0142690
982.362	0.0143898
982.441	0.0143530
982.519	0.0142867
982.597	0.0142046
982.675	0.0142881
982.753	0.0142086
982.831	0.0141135
982.909	0.0141366
982.987	0.0142889
983.066	0.0142392
983.144	0.0141756
983.222	0.0143451
983.300	0.0142854
983.378	0.0142852
983.456	0.0142323
983.534	0.0143881
983.612	0.0143908
983.691	0.0142256
983.769	0.0143113
983.847	0.0142501
983.925	0.0142385
984.003	0.0143417
984.081	0.0141313
984.159	0.0143042
984.237	0.0143117
984.316	0.0142950
984.394	0.0143236
984.472	0.0143541
984.550	0.0142102
984.628	0.0141921
984.706	0.0142887
984.784	0.0142467
984.862	0.0143143
984.941	0.0142124
985.019	0.0142475
985.097	0.0143613
985.175	0.0143442
985.253	0.0143200
985.331	0.0142912
985.409	0.0142997
985.487	0.0141132
985.566	0.0143745
985.644	0.0142546
985.722	0.0142984
985.800	0.0143970
985.878	0.0142738
985.956	0.0142532
986.034	0.0143069
986.112	0.0142288
986.191	0.0143315
986.269	0.0142950
986.347	0.0142005
986.425	0.0142459
986.503	0.0142293
986.581	0.0141589
986.659	0.0143816
986.737	0.0143976
986.816	0.0143007
986.894	0.0144124
986.972	0.0143548
987.050	0.0143212
987.128	0.0142926
987.206	0.0143369
987.284	0.0142194
987.362	0.0144059
987.441	0.0143652
987.519	0.0143413
987.597	0.0143097
987.675	0.0142283
987.753	0.0142950
987.831	0.0142814
987.909	0.0143535
987.987	0.0144176
988.066	0.0142426
988.144	0.0142315
988.222	0.0142644
988.300	0.0141986
988.378	0.0144382
988.456	0.0143302
988.534	0.0143684
988.612	0.0144122
988.691	0.0142708
988.769	0.0142345
988.847	0.0143687
988.925	0.0143134
989.003	0.0143520
989.081	0.0142799
989.159	0.0142055
989.237	0.0143601
989.316	0.0142483
989.394	0.0142717
989.472	0.0142554
989.550	0.0142110
989.628	0.0142284
989.706	0.0142977
989.784	0.0142913
989.862	0.0142355
989.941	0.0142437
990.019	0.0143551
990.097	0.0142120
990.175	0.0142667
990.253	0.0143449
990.331	0.0142534
990.409	0.0143003
990.487	0.0141694
990.566	0.0143039
990.644	0.0142204
990.722	0.0142278
990.800	0.0142521
990.878	0.0142540
990.956	0.0143420
991.034	0.0142892
991.112	0.0141440
991.191	0.0143462
991.269	0.0143026
991.347	0.0142051
991.425	0.0142796
991.503	0.0142940
991.581	0.0140891
991.659	0.0142723
991.737	0.0142932
991.816	0.0143129
991.894	0.0141525
991.972	0.0142149
992.050	0.0141358
992.128	0.0141502
992.206	0.0142163
992.284	0.0142284
992.362	0.0141722
992.441	0.0141829
992.519	0.0141824
992.597	0.0141246
992.675	0.0142496
992.753	0.0142005
992.831	0.0142181
992.909	0.0143723
992.987	0.0143481
993.066	0.0143524
993.144	0.0142536
993.222	0.0142367
993.300	0.0143155
993.378	0.0141950
993.456	0.0142033
993.534	0.0142863
993.612	0.0143491
993.691	0.0141672
993.769	0.0142731
993.847	0.0142424
993.925	0.0143358
994.003	0.0143671
994.081	0.0142252
994.159	0.0142792
994.237	0.0142645
994.316	0.0143624
994.394	0.0144405
994.472	0.0143179
994.550	0.0142025
994.628	0.0142354
994.706	0.0142504
994.784	0.0143420
994.862	0.0142911
994.941	0.0142561
995.019	0.0141530
995.097	0.0142870
995.175	0.0143014
995.253	0.0141499
995.331	0.0142220
995.409	0.0141875
995.487	0.0141947
995.566	0.0143156
995.644	0.0143266
995.722	0.0143636
995.800	0.0143652
995.878	0.0142759
995.956	0.0143037
996.034	0.0142379
996.112	0.0143951
996.191	0.0143322
996.269	0.0142775
996.347	0.0142121
996.425	0.0141369
996.503	0.0142854
996.581	0.0142411
996.659	0.0142496
996.737	0.0143058
996.816	0.0141853
996.894	0.0142879
996.972	0.0142812
997.050	0.0142881
997.128	0.0143459
997.206	0.0143433
997.284	0.0142847
997.362	0.0142080
997.441	0.0143254
997.519	0.0141679
997.597	0.0144006
997.675	0.0142619
997.753	0.0142573
997.831	0.0142226
997.909	0.0142633
997.987	0.0142438
998.066	0.0141254
998.144	0.0142210
998.222	0.0141826
998.300	0.0143356
998.378	0.0142625
998.456	0.0141387
998.534	0.0142705
998.612	0.0142165
998.691	0.0141138
998.769	0.0142064
998.847	0.0142802
998.925	0.0141319
