05/04/2022	21:33:33	Ver.	4.1	UNKNOWN
Optical Delay	678.996401	Delta X		0.078125	Sweeps	1	Scan Rate	0/0
Coordinates	Axis 1	NaN	Axis 2	NaN	Axis 3	NaN	Axis 4	NaN	Axis 5	NaN	Axis 6	0.000000
TX Power	0.000000	RX Power	0.000000

678.996	0.0144254
679.075	0.0144731
679.153	0.0144733
679.231	0.0143727
679.309	0.0142287
679.387	0.0144909
679.465	0.0144950
679.543	0.0145033
679.621	0.0145229
679.700	0.0143567
679.778	0.0145616
679.856	0.0145103
679.934	0.0143407
680.012	0.0144316
680.090	0.0144175
680.168	0.0143631
680.246	0.0144369
680.325	0.0145006
680.403	0.0143249
680.481	0.0144881
680.559	0.0146370
680.637	0.0144138
680.715	0.0144006
680.793	0.0145642
680.871	0.0144299
680.950	0.0143964
681.028	0.0144149
681.106	0.0144383
681.184	0.0142378
681.262	0.0140977
681.340	0.0143228
681.418	0.0145193
681.496	0.0145171
681.575	0.0143909
681.653	0.0142392
681.731	0.0144405
681.809	0.0144502
681.887	0.0145086
681.965	0.0145555
682.043	0.0146304
682.121	0.0145085
682.200	0.0144657
682.278	0.0144561
682.356	0.0143280
682.434	0.0144351
682.512	0.0146365
682.590	0.0144575
682.668	0.0144644
682.746	0.0146378
682.825	0.0145683
682.903	0.0143981
682.981	0.0144382
683.059	0.0143964
683.137	0.0144078
683.215	0.0143911
683.293	0.0143047
683.371	0.0143390
683.450	0.0142432
683.528	0.0143102
683.606	0.0143686
683.684	0.0144460
683.762	0.0144905
683.840	0.0143848
683.918	0.0144897
683.996	0.0145402
684.075	0.0143977
684.153	0.0144556
684.231	0.0145053
684.309	0.0146521
684.387	0.0144737
684.465	0.0145937
684.543	0.0145692
684.621	0.0145902
684.700	0.0146848
684.778	0.0146212
684.856	0.0146445
684.934	0.0145277
685.012	0.0145950
685.090	0.0143956
685.168	0.0144182
685.246	0.0144057
685.325	0.0142988
685.403	0.0142283
685.481	0.0143251
685.559	0.0143703
685.637	0.0142799
685.715	0.0142538
685.793	0.0142640
685.871	0.0142649
685.950	0.0142991
686.028	0.0143712
686.106	0.0143642
686.184	0.0144649
686.262	0.0144830
686.340	0.0143525
686.418	0.0145421
686.496	0.0145448
686.575	0.0145483
686.653	0.0146146
686.731	0.0147757
686.809	0.0147620
686.887	0.0149742
686.965	0.0148354
687.043	0.0148920
687.121	0.0147566
687.200	0.0147896
687.278	0.0148152
687.356	0.0146843
687.434	0.0144409
687.512	0.0144069
687.590	0.0143515
687.668	0.0140691
687.746	0.0141726
687.825	0.0142818
687.903	0.0140913
687.981	0.0138850
688.059	0.0140958
688.137	0.0141428
688.215	0.0141602
688.293	0.0139510
688.371	0.0141681
688.450	0.0143111
688.528	0.0142725
688.606	0.0143183
688.684	0.0143895
688.762	0.0144589
688.840	0.0145305
688.918	0.0147237
688.996	0.0146526
689.075	0.0148338
689.153	0.0148966
689.231	0.0147522
689.309	0.0149550
689.387	0.0148843
689.465	0.0146296
689.543	0.0146579
689.621	0.0147015
689.700	0.0147046
689.778	0.0147253
689.856	0.0146459
689.934	0.0145769
690.012	0.0147548
690.090	0.0147156
690.168	0.0145087
690.246	0.0146336
690.325	0.0145549
690.403	0.0143497
690.481	0.0143773
690.559	0.0144680
690.637	0.0142490
690.715	0.0141527
690.793	0.0142284
690.871	0.0143372
690.950	0.0141950
691.028	0.0141269
691.106	0.0140708
691.184	0.0141348
691.262	0.0143403
691.340	0.0141399
691.418	0.0142736
691.496	0.0142606
691.575	0.0142575
691.653	0.0142581
691.731	0.0142219
691.809	0.0143569
691.887	0.0143829
691.965	0.0143920
692.043	0.0145992
692.121	0.0145200
692.200	0.0146218
692.278	0.0146201
692.356	0.0147476
692.434	0.0147446
692.512	0.0148078
692.590	0.0146568
692.668	0.0147325
692.746	0.0146979
692.825	0.0146662
692.903	0.0146087
692.981	0.0148372
693.059	0.0147414
693.137	0.0146508
693.215	0.0145303
693.293	0.0145649
693.371	0.0146633
693.450	0.0146078
693.528	0.0143996
693.606	0.0143426
693.684	0.0142116
693.762	0.0141849
693.840	0.0143877
693.918	0.0142470
693.996	0.0142390
694.075	0.0142423
694.153	0.0142989
694.231	0.0142582
694.309	0.0142442
694.387	0.0141898
694.465	0.0142788
694.543	0.0141540
694.621	0.0140985
694.700	0.0141303
694.778	0.0141830
694.856	0.0142361
694.934	0.0143758
695.012	0.0142932
695.090	0.0143504
695.168	0.0144432
695.246	0.0146613
695.325	0.0148639
695.403	0.0149273
695.481	0.0149186
695.559	0.0149780
695.637	0.0150828
695.715	0.0150531
695.793	0.0149325
695.871	0.0149110
695.950	0.0147701
696.028	0.0147083
696.106	0.0148237
696.184	0.0147186
696.262	0.0145761
696.340	0.0147165
696.418	0.0145548
696.496	0.0145315
696.575	0.0144727
696.653	0.0144403
696.731	0.0143666
696.809	0.0143229
696.887	0.0143369
696.965	0.0142880
697.043	0.0142079
697.121	0.0140623
697.200	0.0141752
697.278	0.0141583
697.356	0.0141405
697.434	0.0140155
697.512	0.0141853
697.590	0.0143497
697.668	0.0143117
697.746	0.0142854
697.825	0.0142571
697.903	0.0143935
697.981	0.0143996
698.059	0.0143991
698.137	0.0143592
698.215	0.0143522
698.293	0.0143342
698.371	0.0143319
698.450	0.0145233
698.528	0.0145058
698.606	0.0145020
698.684	0.0146709
698.762	0.0146804
698.840	0.0146798
698.918	0.0146261
698.996	0.0146992
699.075	0.0146912
699.153	0.0146030
699.231	0.0145753
699.309	0.0145849
699.387	0.0147640
699.465	0.0149164
699.543	0.0150727
699.621	0.0149305
699.700	0.0147784
699.778	0.0148200
699.856	0.0148151
699.934	0.0147726
700.012	0.0144704
700.090	0.0143412
700.168	0.0141120
700.246	0.0139780
700.325	0.0140325
700.403	0.0138475
700.481	0.0138106
700.559	0.0138657
700.637	0.0139796
700.715	0.0140245
700.793	0.0139995
700.871	0.0140368
700.950	0.0143341
701.028	0.0144350
701.106	0.0144841
701.184	0.0144860
701.262	0.0145500
701.340	0.0146432
701.418	0.0147240
701.496	0.0147359
701.575	0.0147568
701.653	0.0146857
701.731	0.0145318
701.809	0.0145639
701.887	0.0144660
701.965	0.0145104
702.043	0.0145261
702.121	0.0143816
702.200	0.0143452
702.278	0.0144204
702.356	0.0145975
702.434	0.0147114
702.512	0.0148907
702.590	0.0148158
702.668	0.0147965
702.746	0.0149202
702.825	0.0148158
702.903	0.0148559
702.981	0.0147643
703.059	0.0146732
703.137	0.0144016
703.215	0.0142814
703.293	0.0141945
703.371	0.0140865
703.450	0.0141138
703.528	0.0139520
703.606	0.0139332
703.684	0.0140926
703.762	0.0139701
703.840	0.0140493
703.918	0.0141388
703.996	0.0142372
704.075	0.0142210
704.153	0.0141225
704.231	0.0144427
704.309	0.0144688
704.387	0.0144077
704.465	0.0145789
704.543	0.0144509
704.621	0.0145379
704.700	0.0145165
704.778	0.0143765
704.856	0.0142949
704.934	0.0143240
705.012	0.0142814
705.090	0.0143501
705.168	0.0144241
705.246	0.0142975
705.325	0.0144139
705.403	0.0146177
705.481	0.0145868
705.559	0.0146518
705.637	0.0147134
705.715	0.0149640
705.793	0.0150363
705.871	0.0149136
705.950	0.0150557
706.028	0.0149350
706.106	0.0147968
706.184	0.0147255
706.262	0.0146933
706.340	0.0145505
706.418	0.0143969
706.496	0.0141953
706.575	0.0142564
706.653	0.0141431
706.731	0.0140158
706.809	0.0141521
706.887	0.0143282
706.965	0.0142510
707.043	0.0143615
707.121	0.0144790
707.200	0.0144463
707.278	0.0144635
707.356	0.0146030
707.434	0.0144731
707.512	0.0143900
707.590	0.0144868
707.668	0.0143269
707.746	0.0142928
707.825	0.0144304
707.903	0.0143289
707.981	0.0142741
708.059	0.0141628
708.137	0.0141451
708.215	0.0143939
708.293	0.0142513
708.371	0.0142933
708.450	0.0144498
708.528	0.0144710
708.606	0.0145161
708.684	0.0146147
708.762	0.0145174
708.840	0.0146032
708.918	0.0147961
708.996	0.0148201
709.075	0.0147223
709.153	0.0146340
709.231	0.0145906
709.309	0.0146188
709.387	0.0145126
709.465	0.0144817
709.543	0.0144789
709.621	0.0142999
709.700	0.0143568
709.778	0.0144500
709.856	0.0143621
709.934	0.0143732
710.012	0.0143665
710.090	0.0143975
710.168	0.0143833
710.246	0.0144505
710.325	0.0143714
710.403	0.0143215
710.481	0.0142963
710.559	0.0142454
710.637	0.0141505
710.715	0.0143131
710.793	0.0142193
710.871	0.0142590
710.950	0.0141399
711.028	0.0142386
711.106	0.0143724
711.184	0.0141998
711.262	0.0143878
711.340	0.0144950
711.418	0.0144775
711.496	0.0145718
711.575	0.0144944
711.653	0.0144414
711.731	0.0144761
711.809	0.0144823
711.887	0.0146620
711.965	0.0145060
712.043	0.0145440
712.121	0.0147826
712.200	0.0145150
712.278	0.0146309
712.356	0.0145927
712.434	0.0144389
712.512	0.0145470
712.590	0.0144854
712.668	0.0144617
712.746	0.0144334
712.825	0.0143977
712.903	0.0144761
712.981	0.0144019
713.059	0.0145102
713.137	0.0144857
713.215	0.0144648
713.293	0.0144682
713.371	0.0144652
713.450	0.0146014
713.528	0.0144727
713.606	0.0144877
713.684	0.0144429
713.762	0.0143793
713.840	0.0145634
713.918	0.0145147
713.996	0.0144046
714.075	0.0143932
714.153	0.0144789
714.231	0.0144490
714.309	0.0143342
714.387	0.0143056
714.465	0.0143977
714.543	0.0143627
714.621	0.0144234
714.700	0.0144664
714.778	0.0145356
714.856	0.0144807
714.934	0.0143314
715.012	0.0142725
715.090	0.0146069
715.168	0.0144742
715.246	0.0144611
715.325	0.0144707
715.403	0.0144872
715.481	0.0143378
715.559	0.0143266
715.637	0.0143265
715.715	0.0145444
715.793	0.0143563
715.871	0.0144924
715.950	0.0145875
716.028	0.0144151
716.106	0.0145715
716.184	0.0146429
716.262	0.0146123
716.340	0.0145953
716.418	0.0146844
716.496	0.0145926
716.575	0.0148174
716.653	0.0145992
716.731	0.0146499
716.809	0.0145129
716.887	0.0146690
716.965	0.0144627
717.043	0.0144048
717.121	0.0142231
717.200	0.0140114
717.278	0.0143016
717.356	0.0142303
717.434	0.0142187
717.512	0.0141389
717.590	0.0140823
717.668	0.0142706
717.746	0.0142932
717.825	0.0143159
717.903	0.0142139
717.981	0.0144420
718.059	0.0146379
718.137	0.0144562
718.215	0.0144953
718.293	0.0145132
718.371	0.0144357
718.450	0.0147292
718.528	0.0148305
718.606	0.0148573
718.684	0.0148026
718.762	0.0146413
718.840	0.0148314
718.918	0.0147434
718.996	0.0146722
719.075	0.0146018
719.153	0.0145029
719.231	0.0145078
719.309	0.0146158
719.387	0.0144906
719.465	0.0145101
719.543	0.0144767
719.621	0.0144949
719.700	0.0143779
719.778	0.0143632
719.856	0.0144389
719.934	0.0145724
720.012	0.0143718
720.090	0.0142087
720.168	0.0142394
720.246	0.0142609
720.325	0.0141647
720.403	0.0141637
720.481	0.0143292
720.559	0.0142148
720.637	0.0143746
720.715	0.0142435
720.793	0.0143410
720.871	0.0144046
720.950	0.0144286
721.028	0.0144489
721.106	0.0143301
721.184	0.0144376
721.262	0.0144514
721.340	0.0144665
721.418	0.0144350
721.496	0.0145520
721.575	0.0146365
721.653	0.0146753
721.731	0.0146370
721.809	0.0146912
721.887	0.0145910
721.965	0.0146198
722.043	0.0145948
722.121	0.0145896
722.200	0.0146356
722.278	0.0145512
722.356	0.0144519
722.434	0.0144806
722.512	0.0144113
722.590	0.0145324
722.668	0.0145257
722.746	0.0144408
722.825	0.0144874
722.903	0.0143948
722.981	0.0144806
723.059	0.0144698
723.137	0.0145063
723.215	0.0144825
723.293	0.0144790
723.371	0.0144073
723.450	0.0143987
723.528	0.0144688
723.606	0.0144915
723.684	0.0145638
723.762	0.0144057
723.840	0.0145089
723.918	0.0145769
723.996	0.0144817
724.075	0.0144271
724.153	0.0144909
724.231	0.0143760
724.309	0.0144335
724.387	0.0143327
724.465	0.0142323
724.543	0.0143324
724.621	0.0144209
724.700	0.0143076
724.778	0.0143198
724.856	0.0141576
724.934	0.0141959
725.012	0.0143122
725.090	0.0144772
725.168	0.0144569
725.246	0.0144092
725.325	0.0145936
725.403	0.0145830
725.481	0.0146542
725.559	0.0145627
725.637	0.0146342
725.715	0.0145468
725.793	0.0145293
725.871	0.0147301
725.950	0.0146069
726.028	0.0147616
726.106	0.0148049
726.184	0.0146504
726.262	0.0144552
726.340	0.0145295
726.418	0.0146152
726.496	0.0144584
726.575	0.0144955
726.653	0.0145233
726.731	0.0143858
726.809	0.0143349
726.887	0.0142812
726.965	0.0142796
727.043	0.0142700
727.121	0.0143221
727.200	0.0141748
727.278	0.0142249
727.356	0.0142612
727.434	0.0140665
727.512	0.0141948
727.590	0.0143715
727.668	0.0141601
727.746	0.0142255
727.825	0.0142709
727.903	0.0143236
727.981	0.0143982
728.059	0.0144342
728.137	0.0145066
728.215	0.0145325
728.293	0.0144724
728.371	0.0145819
728.450	0.0145259
728.528	0.0148038
728.606	0.0146451
728.684	0.0145821
728.762	0.0146451
728.840	0.0145707
728.918	0.0147195
728.996	0.0146876
729.075	0.0145886
729.153	0.0147990
729.231	0.0146194
729.309	0.0146450
729.387	0.0145895
729.465	0.0144841
729.543	0.0145946
729.621	0.0145239
729.700	0.0144505
729.778	0.0145356
729.856	0.0143057
729.934	0.0143683
730.012	0.0143098
730.090	0.0142896
730.168	0.0143958
730.246	0.0144505
730.325	0.0142803
730.403	0.0142844
730.481	0.0143282
730.559	0.0143984
730.637	0.0143679
730.715	0.0144293
730.793	0.0145100
730.871	0.0144277
730.950	0.0145088
731.028	0.0144727
731.106	0.0144324
731.184	0.0144650
731.262	0.0145368
731.340	0.0145994
731.418	0.0145579
731.496	0.0145728
731.575	0.0144788
731.653	0.0143124
731.731	0.0145324
731.809	0.0143541
731.887	0.0143505
731.965	0.0143983
732.043	0.0145070
732.121	0.0144602
732.200	0.0144221
732.278	0.0146127
732.356	0.0145935
732.434	0.0145468
732.512	0.0145679
732.590	0.0145470
732.668	0.0146359
732.746	0.0147198
732.825	0.0146176
732.903	0.0146384
732.981	0.0146674
733.059	0.0147038
733.137	0.0144848
733.215	0.0145184
733.293	0.0142595
733.371	0.0143827
733.450	0.0144367
733.528	0.0145852
733.606	0.0144098
733.684	0.0143878
733.762	0.0144411
733.840	0.0143652
733.918	0.0143552
733.996	0.0144152
734.075	0.0143890
734.153	0.0144267
734.231	0.0141864
734.309	0.0142580
734.387	0.0142709
734.465	0.0142361
734.543	0.0142469
734.621	0.0143730
734.700	0.0141779
734.778	0.0143050
734.856	0.0142337
734.934	0.0142535
735.012	0.0142972
735.090	0.0144083
735.168	0.0143492
735.246	0.0144403
735.325	0.0145084
735.403	0.0146227
735.481	0.0145496
735.559	0.0146271
735.637	0.0146075
735.715	0.0146820
735.793	0.0144878
735.871	0.0144973
735.950	0.0145825
736.028	0.0146126
736.106	0.0145586
736.184	0.0143311
736.262	0.0143711
736.340	0.0143743
736.418	0.0144329
736.496	0.0143534
736.575	0.0142160
736.653	0.0143710
736.731	0.0143666
736.809	0.0143248
736.887	0.0143448
736.965	0.0143569
737.043	0.0143087
737.121	0.0144547
737.200	0.0144108
737.278	0.0142534
737.356	0.0144775
737.434	0.0143663
737.512	0.0143963
737.590	0.0144987
737.668	0.0144142
737.746	0.0142944
737.825	0.0144247
737.903	0.0142680
737.981	0.0143208
738.059	0.0143862
738.137	0.0143610
738.215	0.0144426
738.293	0.0145025
738.371	0.0145318
738.450	0.0145657
738.528	0.0144221
738.606	0.0143555
738.684	0.0144755
738.762	0.0146329
738.840	0.0146257
738.918	0.0144547
738.996	0.0142087
739.075	0.0145193
739.153	0.0145103
739.231	0.0144167
739.309	0.0143770
739.387	0.0143553
739.465	0.0144051
739.543	0.0144321
739.621	0.0144423
739.700	0.0144215
739.778	0.0143601
739.856	0.0144350
739.934	0.0143543
740.012	0.0142812
740.090	0.0144024
740.168	0.0144196
740.246	0.0142484
740.325	0.0142686
740.403	0.0142627
740.481	0.0143151
740.559	0.0143028
740.637	0.0143673
740.715	0.0142995
740.793	0.0142962
740.871	0.0142539
740.950	0.0145428
741.028	0.0146058
741.106	0.0145479
741.184	0.0144291
741.262	0.0143449
741.340	0.0145088
741.418	0.0145941
741.496	0.0144669
741.575	0.0145499
741.653	0.0146659
741.731	0.0145065
741.809	0.0146061
741.887	0.0145354
741.965	0.0145750
742.043	0.0145142
742.121	0.0143768
742.200	0.0144727
742.278	0.0144001
742.356	0.0144664
742.434	0.0144352
742.512	0.0145313
742.590	0.0144036
742.668	0.0144593
742.746	0.0144392
742.825	0.0144404
742.903	0.0144969
742.981	0.0144262
743.059	0.0144631
743.137	0.0145092
743.215	0.0143257
743.293	0.0143623
743.371	0.0143427
743.450	0.0143481
743.528	0.0144904
743.606	0.0142461
743.684	0.0143922
743.762	0.0144732
743.840	0.0144527
743.918	0.0144357
743.996	0.0144222
744.075	0.0144080
744.153	0.0144819
744.231	0.0144915
744.309	0.0144849
744.387	0.0143947
744.465	0.0145246
744.543	0.0144336
744.621	0.0143913
744.700	0.0143356
744.778	0.0144398
744.856	0.0143242
744.934	0.0144006
745.012	0.0145548
745.090	0.0144595
745.168	0.0144111
745.246	0.0145926
745.325	0.0145927
745.403	0.0143963
745.481	0.0145943
745.559	0.0145177
745.637	0.0145345
745.715	0.0144665
745.793	0.0145879
745.871	0.0146136
745.950	0.0146102
746.028	0.0147807
746.106	0.0144571
746.184	0.0143816
746.262	0.0145316
746.340	0.0144650
746.418	0.0144370
746.496	0.0144818
746.575	0.0143696
746.653	0.0145161
746.731	0.0143520
746.809	0.0143418
746.887	0.0143958
746.965	0.0142271
747.043	0.0142544
747.121	0.0142401
747.200	0.0142547
747.278	0.0141535
747.356	0.0142097
747.434	0.0143035
747.512	0.0143742
747.590	0.0142560
747.668	0.0142295
747.746	0.0145226
747.825	0.0145411
747.903	0.0144315
747.981	0.0145915
748.059	0.0145470
748.137	0.0145828
748.215	0.0144689
748.293	0.0145351
748.371	0.0147422
748.450	0.0146603
748.528	0.0146568
748.606	0.0145892
748.684	0.0147029
748.762	0.0145747
748.840	0.0146920
748.918	0.0146478
748.996	0.0145567
749.075	0.0145073
749.153	0.0144664
749.231	0.0145957
749.309	0.0144799
749.387	0.0144112
749.465	0.0144434
749.543	0.0145734
749.621	0.0142434
749.700	0.0144587
749.778	0.0144716
749.856	0.0144919
749.934	0.0144691
750.012	0.0145403
750.090	0.0144727
750.168	0.0145334
750.246	0.0144308
750.325	0.0144723
750.403	0.0145369
750.481	0.0145694
750.559	0.0144939
750.637	0.0144971
750.715	0.0145074
750.793	0.0143901
750.871	0.0143876
750.950	0.0145410
751.028	0.0145490
751.106	0.0143834
751.184	0.0145212
751.262	0.0144991
751.340	0.0143729
751.418	0.0143148
751.496	0.0143533
751.575	0.0143618
751.653	0.0142886
751.731	0.0143471
751.809	0.0144341
751.887	0.0144102
751.965	0.0145016
752.043	0.0145272
752.121	0.0144074
752.200	0.0145693
752.278	0.0144196
752.356	0.0144129
752.434	0.0145361
752.512	0.0144927
752.590	0.0145894
752.668	0.0145167
752.746	0.0144550
752.825	0.0144349
752.903	0.0143971
752.981	0.0144845
753.059	0.0146054
753.137	0.0145340
753.215	0.0145119
753.293	0.0145666
753.371	0.0146039
753.450	0.0145346
753.528	0.0144150
753.606	0.0145758
753.684	0.0145538
753.762	0.0145623
753.840	0.0145250
753.918	0.0145484
753.996	0.0144083
754.075	0.0145139
754.153	0.0145040
754.231	0.0143199
754.309	0.0144507
754.387	0.0144423
754.465	0.0142191
754.543	0.0143046
754.621	0.0143573
754.700	0.0143250
754.778	0.0143414
754.856	0.0143015
754.934	0.0144599
755.012	0.0142554
755.090	0.0142728
755.168	0.0142887
755.246	0.0144511
755.325	0.0144825
755.403	0.0143417
755.481	0.0143691
755.559	0.0145001
755.637	0.0144402
755.715	0.0145044
755.793	0.0145119
755.871	0.0145954
755.950	0.0145744
756.028	0.0146632
756.106	0.0145484
756.184	0.0144815
756.262	0.0143764
756.340	0.0144636
756.418	0.0144238
756.496	0.0144168
756.575	0.0144162
756.653	0.0144849
756.731	0.0144246
756.809	0.0144317
756.887	0.0143586
756.965	0.0144878
757.043	0.0144042
757.121	0.0144781
757.200	0.0144383
757.278	0.0144380
757.356	0.0145132
757.434	0.0145104
757.512	0.0144553
757.590	0.0146306
757.668	0.0145428
757.746	0.0144875
757.825	0.0143107
757.903	0.0144146
757.981	0.0143951
758.059	0.0145222
758.137	0.0145013
758.215	0.0144205
758.293	0.0144706
758.371	0.0143558
758.450	0.0143322
758.528	0.0144654
758.606	0.0144778
758.684	0.0143124
758.762	0.0144171
758.840	0.0143816
758.918	0.0144210
758.996	0.0146438
759.075	0.0144522
759.153	0.0144646
759.231	0.0144739
759.309	0.0144542
759.387	0.0144093
759.465	0.0144831
759.543	0.0144485
759.621	0.0143596
759.700	0.0144802
759.778	0.0143484
759.856	0.0144840
759.934	0.0144035
760.012	0.0143468
760.090	0.0145164
760.168	0.0144886
760.246	0.0144511
760.325	0.0143787
760.403	0.0142867
760.481	0.0145294
760.559	0.0145531
760.637	0.0144596
760.715	0.0142884
760.793	0.0145527
760.871	0.0145951
760.950	0.0144662
761.028	0.0143171
761.106	0.0144857
761.184	0.0145999
761.262	0.0144503
761.340	0.0144569
761.418	0.0146286
761.496	0.0145374
761.575	0.0143609
761.653	0.0145528
761.731	0.0144897
761.809	0.0144618
761.887	0.0145298
761.965	0.0145062
762.043	0.0145444
762.121	0.0144325
762.200	0.0145634
762.278	0.0145885
762.356	0.0144837
762.434	0.0144354
762.512	0.0143785
762.590	0.0144038
762.668	0.0144062
762.746	0.0144234
762.825	0.0144508
762.903	0.0143794
762.981	0.0144647
763.059	0.0143542
763.137	0.0143257
763.215	0.0145654
763.293	0.0145785
763.371	0.0144724
763.450	0.0144794
763.528	0.0145243
763.606	0.0145535
763.684	0.0144948
763.762	0.0145063
763.840	0.0144656
763.918	0.0145541
763.996	0.0145592
764.075	0.0144420
764.153	0.0144820
764.231	0.0145216
764.309	0.0145872
764.387	0.0144112
764.465	0.0143079
764.543	0.0144614
764.621	0.0144156
764.700	0.0144600
764.778	0.0143879
764.856	0.0144093
764.934	0.0144193
765.012	0.0144427
765.090	0.0144145
765.168	0.0145385
765.246	0.0145058
765.325	0.0145102
765.403	0.0144615
765.481	0.0145428
765.559	0.0144391
765.637	0.0144841
765.715	0.0145407
765.793	0.0145762
765.871	0.0145057
765.950	0.0144713
766.028	0.0145504
766.106	0.0144977
766.184	0.0144589
766.262	0.0145924
766.340	0.0145056
766.418	0.0144815
766.496	0.0145953
766.575	0.0145058
766.653	0.0143859
766.731	0.0144271
766.809	0.0145326
766.887	0.0146133
766.965	0.0144396
767.043	0.0144451
767.121	0.0144666
767.200	0.0145038
767.278	0.0144349
767.356	0.0144341
767.434	0.0145305
767.512	0.0144698
767.590	0.0144105
767.668	0.0144258
767.746	0.0144712
767.825	0.0143576
767.903	0.0143423
767.981	0.0144504
768.059	0.0144959
768.137	0.0143885
768.215	0.0144454
768.293	0.0146457
768.371	0.0146868
768.450	0.0145335
768.528	0.0144287
768.606	0.0145178
768.684	0.0146860
768.762	0.0146711
768.840	0.0145808
768.918	0.0146430
768.996	0.0148125
769.075	0.0145918
769.153	0.0145914
769.231	0.0145734
769.309	0.0147008
769.387	0.0145579
769.465	0.0146036
769.543	0.0145777
769.621	0.0146500
769.700	0.0146272
769.778	0.0144994
769.856	0.0144611
769.934	0.0145039
770.012	0.0145609
770.090	0.0144695
770.168	0.0144081
770.246	0.0145119
770.325	0.0144964
770.403	0.0144363
770.481	0.0144971
770.559	0.0144826
770.637	0.0145135
770.715	0.0145521
770.793	0.0144248
770.871	0.0144835
770.950	0.0145340
771.028	0.0145686
771.106	0.0146181
771.184	0.0146641
771.262	0.0144884
771.340	0.0145030
771.418	0.0144386
771.496	0.0143639
771.575	0.0144308
771.653	0.0144438
771.731	0.0145744
771.809	0.0146609
771.887	0.0144317
771.965	0.0143732
772.043	0.0144746
772.121	0.0145428
772.200	0.0144698
772.278	0.0145188
772.356	0.0145981
772.434	0.0145055
772.512	0.0144599
772.590	0.0143799
772.668	0.0145043
772.746	0.0145638
772.825	0.0145461
772.903	0.0143646
772.981	0.0146054
773.059	0.0144288
773.137	0.0144325
773.215	0.0144602
773.293	0.0143822
773.371	0.0143854
773.450	0.0144843
773.528	0.0144985
773.606	0.0145769
773.684	0.0145198
773.762	0.0143643
773.840	0.0143877
773.918	0.0145117
773.996	0.0144754
774.075	0.0144403
774.153	0.0144066
774.231	0.0144821
774.309	0.0144614
774.387	0.0144051
774.465	0.0145569
774.543	0.0145466
774.621	0.0144122
774.700	0.0143756
774.778	0.0143331
774.856	0.0144595
774.934	0.0145029
775.012	0.0144318
775.090	0.0144653
775.168	0.0144393
775.246	0.0143734
775.325	0.0142193
775.403	0.0144350
775.481	0.0143893
775.559	0.0143757
775.637	0.0145384
775.715	0.0145354
775.793	0.0144306
775.871	0.0143695
775.950	0.0143983
776.028	0.0146548
776.106	0.0143207
776.184	0.0143767
776.262	0.0143755
776.340	0.0144292
776.418	0.0144363
776.496	0.0145866
776.575	0.0144846
776.653	0.0144248
776.731	0.0143470
776.809	0.0142100
776.887	0.0144722
776.965	0.0144313
777.043	0.0144335
777.121	0.0144173
777.200	0.0144862
777.278	0.0144492
777.356	0.0143580
777.434	0.0144501
777.512	0.0145151
777.590	0.0144350
777.668	0.0144964
777.746	0.0144393
777.825	0.0145049
777.903	0.0145284
777.981	0.0144527
778.059	0.0144721
778.137	0.0144077
778.215	0.0143584
778.293	0.0144193
778.371	0.0144581
778.450	0.0143512
778.528	0.0144622
778.606	0.0144342
778.684	0.0144318
778.762	0.0144270
778.840	0.0143923
778.918	0.0145011
778.996	0.0144398
779.075	0.0145683
779.153	0.0144761
779.231	0.0143306
779.309	0.0144854
779.387	0.0144279
779.465	0.0143214
779.543	0.0144555
779.621	0.0143066
779.700	0.0142879
779.778	0.0143240
779.856	0.0144260
779.934	0.0143688
780.012	0.0143771
780.090	0.0143513
780.168	0.0143340
780.246	0.0143974
780.325	0.0144044
780.403	0.0144382
780.481	0.0144939
780.559	0.0144682
780.637	0.0143533
780.715	0.0144832
780.793	0.0145357
780.871	0.0144452
780.950	0.0143303
781.028	0.0145117
781.106	0.0144773
781.184	0.0145006
781.262	0.0143784
781.340	0.0144903
781.418	0.0145038
781.496	0.0144055
781.575	0.0144768
781.653	0.0143566
781.731	0.0145242
781.809	0.0144208
781.887	0.0142886
781.965	0.0143443
782.043	0.0144920
782.121	0.0144682
782.200	0.0145301
782.278	0.0143867
782.356	0.0143008
782.434	0.0144649
782.512	0.0145470
782.590	0.0144613
782.668	0.0144175
782.746	0.0144685
782.825	0.0143971
782.903	0.0143706
782.981	0.0143493
783.059	0.0143800
783.137	0.0144862
783.215	0.0144334
783.293	0.0145043
783.371	0.0142590
783.450	0.0144130
783.528	0.0144177
783.606	0.0143999
783.684	0.0144238
783.762	0.0143185
783.840	0.0143361
783.918	0.0144765
783.996	0.0143185
784.075	0.0145016
784.153	0.0143473
784.231	0.0143531
784.309	0.0142612
784.387	0.0143980
784.465	0.0143068
784.543	0.0144642
784.621	0.0143197
784.700	0.0146027
784.778	0.0145026
784.856	0.0144119
784.934	0.0144042
785.012	0.0143702
785.090	0.0144301
785.168	0.0143673
785.246	0.0144495
785.325	0.0144007
785.403	0.0144235
785.481	0.0145193
785.559	0.0145096
785.637	0.0144221
785.715	0.0145211
785.793	0.0145708
785.871	0.0145837
785.950	0.0144908
786.028	0.0145078
786.106	0.0145237
786.184	0.0144946
786.262	0.0146474
786.340	0.0145115
786.418	0.0144425
786.496	0.0145381
786.575	0.0144121
786.653	0.0145648
786.731	0.0144390
786.809	0.0144492
786.887	0.0145896
786.965	0.0144344
787.043	0.0144624
787.121	0.0144164
787.200	0.0144447
787.278	0.0145117
787.356	0.0145014
787.434	0.0144781
787.512	0.0144337
787.590	0.0144836
787.668	0.0145388
787.746	0.0144400
787.825	0.0143356
787.903	0.0144878
787.981	0.0145918
788.059	0.0143644
788.137	0.0144845
788.215	0.0145440
788.293	0.0144316
788.371	0.0144254
788.450	0.0144966
788.528	0.0145197
788.606	0.0146288
788.684	0.0146398
788.762	0.0145760
788.840	0.0145120
788.918	0.0144859
788.996	0.0144682
789.075	0.0144888
789.153	0.0144498
789.231	0.0145575
789.309	0.0145220
789.387	0.0146610
789.465	0.0145099
789.543	0.0144965
789.621	0.0144043
789.700	0.0144761
789.778	0.0145288
789.856	0.0145296
789.934	0.0144525
790.012	0.0145078
790.090	0.0145725
790.168	0.0145744
790.246	0.0145895
790.325	0.0146331
790.403	0.0144814
790.481	0.0146407
790.559	0.0144774
790.637	0.0146061
790.715	0.0145654
790.793	0.0145509
790.871	0.0145394
790.950	0.0144117
791.028	0.0144558
791.106	0.0144761
791.184	0.0144418
791.262	0.0145315
791.340	0.0145617
791.418	0.0145461
791.496	0.0145214
791.575	0.0143993
791.653	0.0145486
791.731	0.0145635
791.809	0.0145327
791.887	0.0145016
791.965	0.0144889
792.043	0.0142685
792.121	0.0145089
792.200	0.0145332
792.278	0.0144949
792.356	0.0145164
792.434	0.0145346
792.512	0.0145417
792.590	0.0145021
792.668	0.0145401
792.746	0.0144239
792.825	0.0145479
792.903	0.0146021
792.981	0.0144588
793.059	0.0144814
793.137	0.0144732
793.215	0.0144946
793.293	0.0143932
793.371	0.0145115
793.450	0.0144958
793.528	0.0143692
793.606	0.0144505
793.684	0.0145079
793.762	0.0143938
793.840	0.0145155
793.918	0.0145522
793.996	0.0144999
794.075	0.0146387
794.153	0.0144675
794.231	0.0144993
794.309	0.0145235
794.387	0.0145343
794.465	0.0145599
794.543	0.0146278
794.621	0.0145013
794.700	0.0144639
794.778	0.0144808
794.856	0.0145343
794.934	0.0143552
795.012	0.0144511
795.090	0.0145831
795.168	0.0146111
795.246	0.0145147
795.325	0.0145088
795.403	0.0145121
795.481	0.0145597
795.559	0.0145621
795.637	0.0146286
795.715	0.0145617
795.793	0.0144572
795.871	0.0144016
795.950	0.0143178
796.028	0.0144753
796.106	0.0145715
796.184	0.0144001
796.262	0.0143847
796.340	0.0145899
796.418	0.0144392
796.496	0.0143447
796.575	0.0144960
796.653	0.0143913
796.731	0.0143494
796.809	0.0145050
796.887	0.0143157
796.965	0.0144695
797.043	0.0146957
797.121	0.0144135
797.200	0.0144624
797.278	0.0143386
797.356	0.0145934
797.434	0.0145843
797.512	0.0145515
797.590	0.0144760
797.668	0.0145373
797.746	0.0144749
797.825	0.0143919
797.903	0.0144484
797.981	0.0145932
798.059	0.0144678
798.137	0.0144836
798.215	0.0144235
798.293	0.0144157
798.371	0.0144283
798.450	0.0144479
798.528	0.0145345
798.606	0.0144189
798.684	0.0144355
798.762	0.0144605
798.840	0.0143578
798.918	0.0144753
798.996	0.0144961
799.075	0.0144639
799.153	0.0144438
799.231	0.0143143
799.309	0.0144474
799.387	0.0145444
799.465	0.0144709
799.543	0.0144048
799.621	0.0143898
799.700	0.0145248
799.778	0.0144721
799.856	0.0143960
799.934	0.0144015
800.012	0.0145033
800.090	0.0142768
800.168	0.0144891
800.246	0.0143976
800.325	0.0143399
800.403	0.0144165
800.481	0.0143817
800.559	0.0144231
800.637	0.0145599
800.715	0.0144811
800.793	0.0144138
800.871	0.0144307
800.950	0.0144114
801.028	0.0143000
801.106	0.0144551
801.184	0.0145072
801.262	0.0144102
801.340	0.0144182
801.418	0.0144404
801.496	0.0143835
801.575	0.0143762
801.653	0.0146168
801.731	0.0143099
801.809	0.0143808
801.887	0.0144915
801.965	0.0144730
802.043	0.0143908
802.121	0.0144837
802.200	0.0145280
802.278	0.0144416
802.356	0.0144333
802.434	0.0143601
802.512	0.0144382
802.590	0.0145000
802.668	0.0144844
802.746	0.0144481
802.825	0.0144823
802.903	0.0143800
802.981	0.0144349
803.059	0.0143548
803.137	0.0143877
803.215	0.0144189
803.293	0.0143822
803.371	0.0144371
803.450	0.0145655
803.528	0.0144808
803.606	0.0145013
803.684	0.0144105
803.762	0.0143504
803.840	0.0143977
803.918	0.0144568
803.996	0.0145937
804.075	0.0144225
804.153	0.0143793
804.231	0.0145488
804.309	0.0145570
804.387	0.0144514
804.465	0.0144318
804.543	0.0144548
804.621	0.0145860
804.700	0.0144843
804.778	0.0144292
804.856	0.0145154
804.934	0.0143478
805.012	0.0144927
805.090	0.0144661
805.168	0.0146327
805.246	0.0144378
805.325	0.0143160
805.403	0.0145859
805.481	0.0145186
805.559	0.0143777
805.637	0.0144894
805.715	0.0144835
805.793	0.0144754
805.871	0.0144884
805.950	0.0143665
806.028	0.0142906
806.106	0.0142796
806.184	0.0143109
806.262	0.0144407
806.340	0.0143829
806.418	0.0144285
806.496	0.0145757
806.575	0.0144727
806.653	0.0144926
806.731	0.0144524
806.809	0.0144109
806.887	0.0144259
806.965	0.0144994
807.043	0.0145896
807.121	0.0145222
807.200	0.0144842
807.278	0.0145740
807.356	0.0145036
807.434	0.0144180
807.512	0.0144795
807.590	0.0143642
807.668	0.0145125
807.746	0.0145000
807.825	0.0144813
807.903	0.0145161
807.981	0.0145741
808.059	0.0143843
808.137	0.0145052
808.215	0.0146220
808.293	0.0143819
808.371	0.0144347
808.450	0.0143819
808.528	0.0144253
808.606	0.0144844
808.684	0.0145905
808.762	0.0145859
808.840	0.0145486
808.918	0.0144619
808.996	0.0145372
809.075	0.0145164
809.153	0.0144597
809.231	0.0144928
809.309	0.0144702
809.387	0.0144827
809.465	0.0144233
809.543	0.0144559
809.621	0.0143716
809.700	0.0145913
809.778	0.0145422
809.856	0.0145328
809.934	0.0145148
810.012	0.0145152
810.090	0.0145542
810.168	0.0144440
810.246	0.0145933
810.325	0.0144094
810.403	0.0143993
810.481	0.0145588
810.559	0.0144777
810.637	0.0144569
810.715	0.0144331
810.793	0.0144604
810.871	0.0143858
810.950	0.0145248
811.028	0.0145313
811.106	0.0144587
811.184	0.0145642
811.262	0.0144296
811.340	0.0143849
811.418	0.0144500
811.496	0.0144924
811.575	0.0145232
811.653	0.0143877
811.731	0.0143907
811.809	0.0145417
811.887	0.0145149
811.965	0.0144698
812.043	0.0143320
812.121	0.0143893
812.200	0.0143936
812.278	0.0144423
812.356	0.0145892
812.434	0.0144984
812.512	0.0143601
812.590	0.0143862
812.668	0.0146298
812.746	0.0145106
812.825	0.0143945
812.903	0.0144995
812.981	0.0145905
813.059	0.0146043
813.137	0.0144735
813.215	0.0144557
813.293	0.0144726
813.371	0.0145055
813.450	0.0145073
813.528	0.0145068
813.606	0.0144801
813.684	0.0143436
813.762	0.0145313
813.840	0.0144447
813.918	0.0144748
813.996	0.0144744
814.075	0.0145628
814.153	0.0145664
814.231	0.0144951
814.309	0.0144597
814.387	0.0145523
814.465	0.0144348
814.543	0.0145234
814.621	0.0144988
814.700	0.0144949
814.778	0.0145876
814.856	0.0146561
814.934	0.0145428
815.012	0.0145602
815.090	0.0144566
815.168	0.0145202
815.246	0.0144909
815.325	0.0143506
815.403	0.0144166
815.481	0.0145010
815.559	0.0146513
815.637	0.0144719
815.715	0.0145097
815.793	0.0145765
815.871	0.0144451
815.950	0.0143225
816.028	0.0144212
816.106	0.0143832
816.184	0.0144341
816.262	0.0145532
816.340	0.0143433
816.418	0.0143731
816.496	0.0145771
816.575	0.0144284
816.653	0.0146371
816.731	0.0143989
816.809	0.0143652
816.887	0.0144777
816.965	0.0144679
817.043	0.0144923
817.121	0.0143962
817.200	0.0144279
817.278	0.0145449
817.356	0.0144462
817.434	0.0145245
817.512	0.0144707
817.590	0.0143881
817.668	0.0144548
817.746	0.0143937
817.825	0.0144804
817.903	0.0144802
817.981	0.0146277
818.059	0.0145150
818.137	0.0143725
818.215	0.0146465
818.293	0.0144018
818.371	0.0145305
818.450	0.0144991
818.528	0.0144887
818.606	0.0145734
818.684	0.0145335
818.762	0.0145046
818.840	0.0144997
818.918	0.0146307
818.996	0.0147727
819.075	0.0145968
819.153	0.0145094
819.231	0.0145284
819.309	0.0145902
819.387	0.0144201
819.465	0.0144778
819.543	0.0145638
819.621	0.0145547
819.700	0.0144357
819.778	0.0143245
819.856	0.0143752
819.934	0.0145302
820.012	0.0144463
820.090	0.0144328
820.168	0.0144170
820.246	0.0144190
820.325	0.0144300
820.403	0.0143419
820.481	0.0143172
820.559	0.0144920
820.637	0.0144971
820.715	0.0143707
820.793	0.0143707
820.871	0.0144512
820.950	0.0145147
821.028	0.0144217
821.106	0.0144479
821.184	0.0145034
821.262	0.0145210
821.340	0.0146197
821.418	0.0145918
821.496	0.0145139
821.575	0.0145206
821.653	0.0144847
821.731	0.0145493
821.809	0.0145505
821.887	0.0145710
821.965	0.0143618
822.043	0.0143259
822.121	0.0144260
822.200	0.0144279
822.278	0.0144251
822.356	0.0145578
822.434	0.0145502
822.512	0.0144443
822.590	0.0145694
822.668	0.0144213
822.746	0.0144419
822.825	0.0144832
822.903	0.0145158
822.981	0.0144701
823.059	0.0145331
823.137	0.0145015
823.215	0.0143430
823.293	0.0143907
823.371	0.0144413
823.450	0.0143767
823.528	0.0143258
823.606	0.0143269
823.684	0.0145700
823.762	0.0143075
823.840	0.0142238
823.918	0.0144261
823.996	0.0143033
824.075	0.0144136
824.153	0.0143795
824.231	0.0143834
824.309	0.0144769
824.387	0.0144209
824.465	0.0143473
824.543	0.0143832
824.621	0.0146243
824.700	0.0145728
824.778	0.0144626
824.856	0.0143481
824.934	0.0144817
825.012	0.0144803
825.090	0.0143521
825.168	0.0145838
825.246	0.0143557
825.325	0.0143946
825.403	0.0144548
825.481	0.0144350
825.559	0.0142947
825.637	0.0143071
825.715	0.0143607
825.793	0.0143338
825.871	0.0143785
825.950	0.0143877
826.028	0.0144474
826.106	0.0144353
826.184	0.0143238
826.262	0.0145445
826.340	0.0145560
826.418	0.0143950
826.496	0.0144602
826.575	0.0145358
826.653	0.0144971
826.731	0.0143959
826.809	0.0144505
826.887	0.0144892
826.965	0.0145103
827.043	0.0144134
827.121	0.0143621
827.200	0.0144867
827.278	0.0144426
827.356	0.0144021
827.434	0.0144328
827.512	0.0143142
827.590	0.0143816
827.668	0.0143703
827.746	0.0143819
827.825	0.0144490
827.903	0.0143932
827.981	0.0142357
828.059	0.0143867
828.137	0.0144167
828.215	0.0144409
828.293	0.0143729
828.371	0.0144066
828.450	0.0144646
828.528	0.0143331
828.606	0.0144126
828.684	0.0144170
828.762	0.0142361
828.840	0.0144103
828.918	0.0142978
828.996	0.0143860
829.075	0.0142927
829.153	0.0144533
829.231	0.0144754
829.309	0.0144979
829.387	0.0143636
829.465	0.0142493
829.543	0.0142919
829.621	0.0143835
829.700	0.0143646
829.778	0.0144587
829.856	0.0143244
829.934	0.0143993
830.012	0.0144453
830.090	0.0142285
830.168	0.0144209
830.246	0.0145280
830.325	0.0143806
830.403	0.0144759
830.481	0.0144807
830.559	0.0144022
830.637	0.0142997
830.715	0.0145206
830.793	0.0143499
830.871	0.0143916
830.950	0.0144953
831.028	0.0143652
831.106	0.0144103
831.184	0.0143487
831.262	0.0144996
831.340	0.0144606
831.418	0.0144763
831.496	0.0144314
831.575	0.0143184
831.653	0.0143209
831.731	0.0144291
831.809	0.0143608
831.887	0.0144711
831.965	0.0144547
832.043	0.0143417
832.121	0.0144094
832.200	0.0143240
832.278	0.0143887
832.356	0.0143877
832.434	0.0144289
832.512	0.0143563
832.590	0.0144911
832.668	0.0144889
832.746	0.0145472
832.825	0.0144370
832.903	0.0144196
832.981	0.0144711
833.059	0.0143552
833.137	0.0143835
833.215	0.0142447
833.293	0.0143064
833.371	0.0143960
833.450	0.0144363
833.528	0.0144898
833.606	0.0145344
833.684	0.0143967
833.762	0.0144276
833.840	0.0144508
833.918	0.0145166
833.996	0.0144439
834.075	0.0144787
834.153	0.0144431
834.231	0.0145083
834.309	0.0146114
834.387	0.0143688
834.465	0.0145229
834.543	0.0144220
834.621	0.0143674
834.700	0.0144923
834.778	0.0144228
834.856	0.0144780
834.934	0.0145840
835.012	0.0145659
835.090	0.0146124
835.168	0.0144691
835.246	0.0144870
835.325	0.0144305
835.403	0.0143909
835.481	0.0144714
835.559	0.0145258
835.637	0.0144362
835.715	0.0145551
835.793	0.0145466
835.871	0.0144660
835.950	0.0144550
836.028	0.0145193
836.106	0.0145501
836.184	0.0144282
836.262	0.0144686
836.340	0.0144536
836.418	0.0143652
836.496	0.0143882
836.575	0.0144719
836.653	0.0143792
836.731	0.0144086
836.809	0.0144389
836.887	0.0144614
836.965	0.0146192
837.043	0.0145108
837.121	0.0143581
837.200	0.0145960
837.278	0.0145290
837.356	0.0145300
837.434	0.0144963
837.512	0.0145930
837.590	0.0144350
837.668	0.0144453
837.746	0.0144569
837.825	0.0144814
837.903	0.0145010
837.981	0.0145431
838.059	0.0145222
838.137	0.0144344
838.215	0.0144493
838.293	0.0143862
838.371	0.0143401
838.450	0.0145469
838.528	0.0141855
838.606	0.0143159
838.684	0.0144655
838.762	0.0143777
838.840	0.0145523
838.918	0.0144300
838.996	0.0143308
839.075	0.0144810
839.153	0.0144347
839.231	0.0144425
839.309	0.0143689
839.387	0.0144286
839.465	0.0143562
839.543	0.0143399
839.621	0.0144113
839.700	0.0144489
839.778	0.0144225
839.856	0.0145365
839.934	0.0144418
840.012	0.0145100
840.090	0.0145262
840.168	0.0143894
840.246	0.0144189
840.325	0.0145611
840.403	0.0145484
840.481	0.0144241
840.559	0.0144665
840.637	0.0144458
840.715	0.0143840
840.793	0.0143622
840.871	0.0144650
840.950	0.0143888
841.028	0.0143594
841.106	0.0143214
841.184	0.0144453
841.262	0.0142947
841.340	0.0143484
841.418	0.0144881
841.496	0.0143462
841.575	0.0143964
841.653	0.0145535
841.731	0.0143458
841.809	0.0144283
841.887	0.0144691
841.965	0.0145541
842.043	0.0145148
842.121	0.0145129
842.200	0.0143359
842.278	0.0144298
842.356	0.0144109
842.434	0.0142904
842.512	0.0144542
842.590	0.0145326
842.668	0.0144914
842.746	0.0144294
842.825	0.0144213
842.903	0.0144262
842.981	0.0143401
843.059	0.0144553
843.137	0.0144720
843.215	0.0144568
843.293	0.0144077
843.371	0.0145137
843.450	0.0143694
843.528	0.0143320
843.606	0.0144372
843.684	0.0145969
843.762	0.0143315
843.840	0.0143964
843.918	0.0145135
843.996	0.0145275
844.075	0.0143772
844.153	0.0143865
844.231	0.0144960
844.309	0.0144949
844.387	0.0142679
844.465	0.0144164
844.543	0.0144358
844.621	0.0145002
844.700	0.0144347
844.778	0.0145609
844.856	0.0145275
844.934	0.0145604
845.012	0.0143262
845.090	0.0144585
845.168	0.0145017
845.246	0.0144458
845.325	0.0142873
845.403	0.0144308
845.481	0.0145206
845.559	0.0143861
845.637	0.0144637
845.715	0.0145343
845.793	0.0143851
845.871	0.0144282
845.950	0.0145436
846.028	0.0142983
846.106	0.0143990
846.184	0.0146194
846.262	0.0145303
846.340	0.0145065
846.418	0.0146775
846.496	0.0145284
846.575	0.0145415
846.653	0.0144417
846.731	0.0145326
846.809	0.0145685
846.887	0.0145852
846.965	0.0144711
847.043	0.0145271
847.121	0.0144952
847.200	0.0144711
847.278	0.0144664
847.356	0.0143958
847.434	0.0145170
847.512	0.0144444
847.590	0.0143082
847.668	0.0144990
847.746	0.0143416
847.825	0.0143639
847.903	0.0143839
847.981	0.0144574
848.059	0.0144858
848.137	0.0144203
848.215	0.0143584
848.293	0.0144478
848.371	0.0143870
848.450	0.0144518
848.528	0.0144806
848.606	0.0143520
848.684	0.0143349
848.762	0.0144183
848.840	0.0143155
848.918	0.0143398
848.996	0.0145000
849.075	0.0144141
849.153	0.0144080
849.231	0.0143644
849.309	0.0144510
849.387	0.0142783
849.465	0.0144418
849.543	0.0145336
849.621	0.0144284
849.700	0.0143908
849.778	0.0143739
849.856	0.0145116
849.934	0.0144904
850.012	0.0145736
850.090	0.0145030
850.168	0.0143465
850.246	0.0143301
850.325	0.0144336
850.403	0.0145438
850.481	0.0144489
850.559	0.0143787
850.637	0.0144682
850.715	0.0143238
850.793	0.0143476
850.871	0.0144244
850.950	0.0141090
851.028	0.0142085
851.106	0.0142744
851.184	0.0142538
851.262	0.0143350
851.340	0.0143127
851.418	0.0142328
851.496	0.0144631
851.575	0.0143066
851.653	0.0142943
851.731	0.0143545
851.809	0.0144301
851.887	0.0144200
851.965	0.0144870
852.043	0.0144841
852.121	0.0143203
852.200	0.0144245
852.278	0.0144870
852.356	0.0144807
852.434	0.0144741
852.512	0.0146072
852.590	0.0144187
852.668	0.0145369
852.746	0.0144293
852.825	0.0145102
852.903	0.0144498
852.981	0.0145455
853.059	0.0143244
853.137	0.0143265
853.215	0.0145272
853.293	0.0144735
853.371	0.0144157
853.450	0.0144573
853.528	0.0144929
853.606	0.0142798
853.684	0.0142085
853.762	0.0143595
853.840	0.0143262
853.918	0.0142585
853.996	0.0142785
854.075	0.0143665
854.153	0.0143846
854.231	0.0142159
854.309	0.0143465
854.387	0.0145936
854.465	0.0143801
854.543	0.0143584
854.621	0.0144437
854.700	0.0143846
854.778	0.0144742
854.856	0.0144446
854.934	0.0144656
855.012	0.0145386
855.090	0.0146272
855.168	0.0143770
855.246	0.0144093
855.325	0.0145455
855.403	0.0146546
855.481	0.0143772
855.559	0.0146348
855.637	0.0146850
855.715	0.0145528
855.793	0.0145689
855.871	0.0144891
855.950	0.0144820
856.028	0.0144977
856.106	0.0144904
856.184	0.0144872
856.262	0.0144693
856.340	0.0145421
856.418	0.0145448
856.496	0.0144437
856.575	0.0144805
856.653	0.0144524
856.731	0.0145440
856.809	0.0145316
856.887	0.0143861
856.965	0.0144403
857.043	0.0145231
857.121	0.0143911
857.200	0.0143932
857.278	0.0144737
857.356	0.0144553
857.434	0.0144086
857.512	0.0143954
857.590	0.0143237
857.668	0.0143611
857.746	0.0145177
857.825	0.0144476
857.903	0.0144628
857.981	0.0143552
858.059	0.0142802
858.137	0.0144149
858.215	0.0145304
858.293	0.0144263
858.371	0.0144236
858.450	0.0144846
858.528	0.0143363
858.606	0.0144130
858.684	0.0144464
858.762	0.0143638
858.840	0.0144199
858.918	0.0144791
858.996	0.0143922
859.075	0.0145267
859.153	0.0144511
859.231	0.0145802
859.309	0.0144877
859.387	0.0143843
859.465	0.0143710
859.543	0.0144257
859.621	0.0143072
859.700	0.0144361
859.778	0.0145103
859.856	0.0144803
859.934	0.0142602
860.012	0.0143248
860.090	0.0143687
860.168	0.0145374
860.246	0.0143607
860.325	0.0144614
860.403	0.0144096
860.481	0.0144264
860.559	0.0144595
860.637	0.0144878
860.715	0.0143236
860.793	0.0143689
860.871	0.0142809
860.950	0.0144540
861.028	0.0142905
861.106	0.0144364
861.184	0.0145875
861.262	0.0143539
861.340	0.0142445
861.418	0.0144293
861.496	0.0146324
861.575	0.0144180
861.653	0.0144180
861.731	0.0144192
861.809	0.0144618
861.887	0.0145600
861.965	0.0145319
862.043	0.0145499
862.121	0.0144497
862.200	0.0145056
862.278	0.0144466
862.356	0.0145536
862.434	0.0145061
862.512	0.0144696
862.590	0.0144085
862.668	0.0144090
862.746	0.0145181
862.825	0.0144847
862.903	0.0144855
862.981	0.0144461
863.059	0.0146449
863.137	0.0146460
863.215	0.0144665
863.293	0.0144979
863.371	0.0143879
863.450	0.0144023
863.528	0.0144684
863.606	0.0144637
863.684	0.0144544
863.762	0.0145319
863.840	0.0144168
863.918	0.0145674
863.996	0.0144803
864.075	0.0144349
864.153	0.0144393
864.231	0.0146110
864.309	0.0145639
864.387	0.0144965
864.465	0.0144943
864.543	0.0144531
864.621	0.0144070
864.700	0.0144851
864.778	0.0145313
864.856	0.0145020
864.934	0.0144636
865.012	0.0146127
865.090	0.0145796
865.168	0.0144312
865.246	0.0146151
865.325	0.0146004
865.403	0.0145394
865.481	0.0144106
865.559	0.0144701
865.637	0.0144823
865.715	0.0143707
865.793	0.0144888
865.871	0.0146230
865.950	0.0145273
866.028	0.0144808
866.106	0.0143286
866.184	0.0144371
866.262	0.0145044
866.340	0.0146489
866.418	0.0145035
866.496	0.0145553
866.575	0.0144047
866.653	0.0144634
866.731	0.0143996
866.809	0.0144975
866.887	0.0144709
866.965	0.0144733
867.043	0.0144288
867.121	0.0145627
867.200	0.0144273
867.278	0.0144802
867.356	0.0145744
867.434	0.0144772
867.512	0.0144830
867.590	0.0144375
867.668	0.0144480
867.746	0.0144629
867.825	0.0144909
867.903	0.0144066
867.981	0.0144553
868.059	0.0144412
868.137	0.0144110
868.215	0.0145495
868.293	0.0144460
868.371	0.0144514
868.450	0.0144060
868.528	0.0145563
868.606	0.0145389
868.684	0.0144787
868.762	0.0145097
868.840	0.0144244
868.918	0.0145139
868.996	0.0144463
869.075	0.0145205
869.153	0.0144266
869.231	0.0144894
869.309	0.0144433
869.387	0.0144673
869.465	0.0144509
869.543	0.0143950
869.621	0.0144275
869.700	0.0145937
869.778	0.0144366
869.856	0.0144062
869.934	0.0144091
870.012	0.0145364
870.090	0.0143896
870.168	0.0143577
870.246	0.0144751
870.325	0.0144931
870.403	0.0145081
870.481	0.0143718
870.559	0.0145371
870.637	0.0144569
870.715	0.0145573
870.793	0.0144617
870.871	0.0144449
870.950	0.0145077
871.028	0.0146487
871.106	0.0145470
871.184	0.0145704
871.262	0.0145086
871.340	0.0144656
871.418	0.0144119
871.496	0.0144214
871.575	0.0143635
871.653	0.0143962
871.731	0.0144186
871.809	0.0144800
871.887	0.0144152
871.965	0.0144921
872.043	0.0144375
872.121	0.0143925
872.200	0.0144386
872.278	0.0143662
872.356	0.0144372
872.434	0.0144440
872.512	0.0144221
872.590	0.0144618
872.668	0.0144839
872.746	0.0144510
872.825	0.0145547
872.903	0.0144382
872.981	0.0144519
873.059	0.0145254
873.137	0.0146131
873.215	0.0145259
873.293	0.0144897
873.371	0.0143433
873.450	0.0144527
873.528	0.0146035
873.606	0.0143816
873.684	0.0143774
873.762	0.0144280
873.840	0.0143546
873.918	0.0144149
873.996	0.0144222
874.075	0.0143871
874.153	0.0144820
874.231	0.0145171
874.309	0.0142753
874.387	0.0144167
874.465	0.0144614
874.543	0.0143928
874.621	0.0144526
874.700	0.0144746
874.778	0.0143398
874.856	0.0145901
874.934	0.0144082
875.012	0.0142892
875.090	0.0142501
875.168	0.0144196
875.246	0.0145024
875.325	0.0144706
875.403	0.0145242
875.481	0.0142915
875.559	0.0143204
875.637	0.0144010
875.715	0.0144173
875.793	0.0144530
875.871	0.0144481
875.950	0.0143017
876.028	0.0145014
876.106	0.0146388
876.184	0.0145034
876.262	0.0145134
876.340	0.0144618
876.418	0.0145579
876.496	0.0144672
876.575	0.0144373
876.653	0.0145292
876.731	0.0143764
876.809	0.0143880
876.887	0.0143372
876.965	0.0143398
877.043	0.0144808
877.121	0.0143657
877.200	0.0142998
877.278	0.0143259
877.356	0.0144567
877.434	0.0145915
877.512	0.0142868
877.590	0.0143218
877.668	0.0144014
877.746	0.0145344
877.825	0.0144101
877.903	0.0143578
877.981	0.0144461
878.059	0.0144162
878.137	0.0142592
878.215	0.0144506
878.293	0.0143714
878.371	0.0144810
878.450	0.0144267
878.528	0.0143932
878.606	0.0144420
878.684	0.0143195
878.762	0.0144026
878.840	0.0144439
878.918	0.0144084
878.996	0.0144277
879.075	0.0142530
879.153	0.0142907
879.231	0.0144288
879.309	0.0142679
879.387	0.0143243
879.465	0.0144776
879.543	0.0143800
879.621	0.0143454
879.700	0.0143162
879.778	0.0142641
879.856	0.0144830
879.934	0.0143950
880.012	0.0143188
880.090	0.0144120
880.168	0.0146064
880.246	0.0143159
880.325	0.0142948
880.403	0.0144996
880.481	0.0143311
880.559	0.0145147
880.637	0.0144582
880.715	0.0145618
880.793	0.0143597
880.871	0.0145506
880.950	0.0143702
881.028	0.0144122
881.106	0.0143612
881.184	0.0144843
881.262	0.0144286
881.340	0.0144227
881.418	0.0143617
881.496	0.0143973
881.575	0.0143896
881.653	0.0145038
881.731	0.0143289
881.809	0.0143609
881.887	0.0144344
881.965	0.0144340
882.043	0.0144935
882.121	0.0144431
882.200	0.0145179
882.278	0.0144836
882.356	0.0144971
882.434	0.0145041
882.512	0.0145192
882.590	0.0143915
882.668	0.0144142
882.746	0.0146410
882.825	0.0146083
882.903	0.0145555
882.981	0.0145345
883.059	0.0143176
883.137	0.0144637
883.215	0.0145141
883.293	0.0145608
883.371	0.0144471
883.450	0.0144279
883.528	0.0143739
883.606	0.0144801
883.684	0.0146014
883.762	0.0146190
883.840	0.0145182
883.918	0.0145756
883.996	0.0145377
884.075	0.0143923
884.153	0.0144833
884.231	0.0145345
884.309	0.0146049
884.387	0.0145364
884.465	0.0143410
884.543	0.0143694
884.621	0.0144410
884.700	0.0143184
884.778	0.0143896
884.856	0.0143768
884.934	0.0143977
885.012	0.0145652
885.090	0.0145513
885.168	0.0145358
885.246	0.0145190
885.325	0.0144863
885.403	0.0145181
885.481	0.0146412
885.559	0.0145455
885.637	0.0143617
885.715	0.0144133
885.793	0.0144750
885.871	0.0146595
885.950	0.0145908
886.028	0.0143912
886.106	0.0144185
886.184	0.0143871
886.262	0.0143833
886.340	0.0144228
886.418	0.0144678
886.496	0.0144199
886.575	0.0142824
886.653	0.0144396
886.731	0.0143852
886.809	0.0144620
886.887	0.0143659
886.965	0.0145120
887.043	0.0145235
887.121	0.0142825
887.200	0.0143438
887.278	0.0145353
887.356	0.0144743
887.434	0.0144918
887.512	0.0144825
887.590	0.0144274
887.668	0.0143789
887.746	0.0145168
887.825	0.0144411
887.903	0.0144855
887.981	0.0144771
888.059	0.0144139
888.137	0.0144051
888.215	0.0143535
888.293	0.0144782
888.371	0.0143876
888.450	0.0143636
888.528	0.0145088
888.606	0.0144205
888.684	0.0144707
888.762	0.0144333
888.840	0.0143522
888.918	0.0144154
888.996	0.0143752
889.075	0.0144175
889.153	0.0144053
889.231	0.0145533
889.309	0.0145227
889.387	0.0144342
889.465	0.0144608
889.543	0.0145325
889.621	0.0145808
889.700	0.0145515
889.778	0.0144779
889.856	0.0143911
889.934	0.0143291
890.012	0.0144569
890.090	0.0145595
890.168	0.0144547
890.246	0.0143034
890.325	0.0144362
890.403	0.0144244
890.481	0.0144899
890.559	0.0145298
890.637	0.0144131
890.715	0.0145184
890.793	0.0143901
890.871	0.0145512
890.950	0.0145144
891.028	0.0144159
891.106	0.0144958
891.184	0.0144618
891.262	0.0145464
891.340	0.0145036
891.418	0.0144769
891.496	0.0145380
891.575	0.0144813
891.653	0.0145773
891.731	0.0145809
891.809	0.0144560
891.887	0.0144497
891.965	0.0145049
892.043	0.0143678
892.121	0.0144188
892.200	0.0144624
892.278	0.0144589
892.356	0.0144285
892.434	0.0144202
892.512	0.0142904
892.590	0.0143954
892.668	0.0144926
892.746	0.0143073
892.825	0.0145790
892.903	0.0144357
892.981	0.0143795
893.059	0.0143826
893.137	0.0144894
893.215	0.0145734
893.293	0.0145852
893.371	0.0144769
893.450	0.0144859
893.528	0.0145309
893.606	0.0145005
893.684	0.0144595
893.762	0.0145622
893.840	0.0144827
893.918	0.0145062
893.996	0.0144128
894.075	0.0144718
894.153	0.0144888
894.231	0.0144902
894.309	0.0145894
894.387	0.0144656
894.465	0.0147032
894.543	0.0145582
894.621	0.0146288
894.700	0.0145019
894.778	0.0144371
894.856	0.0144585
894.934	0.0146315
895.012	0.0144302
895.090	0.0144180
895.168	0.0143971
895.246	0.0144692
895.325	0.0144051
895.403	0.0144486
895.481	0.0145461
895.559	0.0144306
895.637	0.0144934
895.715	0.0145247
895.793	0.0144992
895.871	0.0144886
895.950	0.0144270
896.028	0.0145934
896.106	0.0144395
896.184	0.0145934
896.262	0.0145338
896.340	0.0144123
896.418	0.0145937
896.496	0.0145494
896.575	0.0143475
896.653	0.0143527
896.731	0.0143851
896.809	0.0142928
896.887	0.0144585
896.965	0.0143881
897.043	0.0144958
897.121	0.0145557
897.200	0.0143286
897.278	0.0145564
897.356	0.0145850
897.434	0.0146037
897.512	0.0144485
897.590	0.0145148
897.668	0.0144872
897.746	0.0145543
897.825	0.0145848
897.903	0.0145528
897.981	0.0145030
898.059	0.0143749
898.137	0.0145496
898.215	0.0144835
898.293	0.0144327
898.371	0.0145142
898.450	0.0145483
898.528	0.0144830
898.606	0.0145590
898.684	0.0145664
898.762	0.0144900
898.840	0.0146922
898.918	0.0144454
898.996	0.0145514
899.075	0.0145965
899.153	0.0145198
899.231	0.0144407
899.309	0.0144788
899.387	0.0145388
899.465	0.0146047
899.543	0.0143631
899.621	0.0143964
899.700	0.0143945
899.778	0.0142995
899.856	0.0143335
899.934	0.0144701
900.012	0.0144598
900.090	0.0143560
900.168	0.0144208
900.246	0.0144305
900.325	0.0144146
900.403	0.0143272
900.481	0.0144042
900.559	0.0145213
900.637	0.0144116
900.715	0.0144231
900.793	0.0145223
900.871	0.0143373
900.950	0.0144418
901.028	0.0144424
901.106	0.0145523
901.184	0.0143477
901.262	0.0144717
901.340	0.0144925
901.418	0.0143961
901.496	0.0144004
901.575	0.0143599
901.653	0.0145319
901.731	0.0144447
901.809	0.0145522
901.887	0.0144978
901.965	0.0143968
902.043	0.0145583
902.121	0.0143776
902.200	0.0145159
902.278	0.0145980
902.356	0.0143977
902.434	0.0143413
902.512	0.0145012
902.590	0.0143692
902.668	0.0145518
902.746	0.0146266
902.825	0.0145436
902.903	0.0144113
902.981	0.0144808
903.059	0.0145033
903.137	0.0146156
903.215	0.0144461
903.293	0.0144806
903.371	0.0144552
903.450	0.0146033
903.528	0.0143882
903.606	0.0143427
903.684	0.0145522
903.762	0.0145652
903.840	0.0144251
903.918	0.0144862
903.996	0.0143720
904.075	0.0145415
904.153	0.0144368
904.231	0.0144259
904.309	0.0144479
904.387	0.0144281
904.465	0.0143826
904.543	0.0145306
904.621	0.0145370
904.700	0.0143542
904.778	0.0145040
904.856	0.0144876
904.934	0.0144151
905.012	0.0143995
905.090	0.0145409
905.168	0.0146040
905.246	0.0143487
905.325	0.0144704
905.403	0.0145906
905.481	0.0144241
905.559	0.0144703
905.637	0.0145885
905.715	0.0145473
905.793	0.0144365
905.871	0.0145798
905.950	0.0143197
906.028	0.0143486
906.106	0.0145132
906.184	0.0144740
906.262	0.0143403
906.340	0.0144175
906.418	0.0145517
906.496	0.0144581
906.575	0.0144568
906.653	0.0143864
906.731	0.0143587
906.809	0.0144693
906.887	0.0144650
906.965	0.0145103
907.043	0.0144859
907.121	0.0145091
907.200	0.0146259
907.278	0.0143822
907.356	0.0144849
907.434	0.0145440
907.512	0.0144196
907.590	0.0144779
907.668	0.0145007
907.746	0.0145484
907.825	0.0144554
907.903	0.0145182
907.981	0.0144183
908.059	0.0144405
908.137	0.0143430
908.215	0.0144470
908.293	0.0144598
908.371	0.0145731
908.450	0.0144447
908.528	0.0145494
908.606	0.0144720
908.684	0.0144032
908.762	0.0145123
908.840	0.0144007
908.918	0.0143700
908.996	0.0143669
909.075	0.0143465
909.153	0.0143626
909.231	0.0143754
909.309	0.0143293
909.387	0.0144080
909.465	0.0143593
909.543	0.0144522
909.621	0.0144568
909.700	0.0143816
909.778	0.0143208
909.856	0.0143819
909.934	0.0143894
910.012	0.0144019
910.090	0.0143359
910.168	0.0142916
910.246	0.0144888
910.325	0.0143669
910.403	0.0143555
910.481	0.0142515
910.559	0.0143818
910.637	0.0144719
910.715	0.0143076
910.793	0.0143073
910.871	0.0144434
910.950	0.0145570
911.028	0.0145961
911.106	0.0146099
911.184	0.0145161
911.262	0.0143389
911.340	0.0144113
911.418	0.0145465
911.496	0.0144130
911.575	0.0143700
911.653	0.0143573
911.731	0.0143658
911.809	0.0143087
911.887	0.0144698
911.965	0.0144190
912.043	0.0144176
912.121	0.0143098
912.200	0.0144563
912.278	0.0143282
912.356	0.0144130
912.434	0.0144022
912.512	0.0144099
912.590	0.0144309
912.668	0.0145033
912.746	0.0146003
912.825	0.0145081
912.903	0.0144053
912.981	0.0144453
913.059	0.0143846
913.137	0.0146120
913.215	0.0145861
913.293	0.0145538
913.371	0.0144656
913.450	0.0144496
913.528	0.0145338
913.606	0.0145058
913.684	0.0143963
913.762	0.0142838
913.840	0.0142913
913.918	0.0145410
913.996	0.0145890
914.075	0.0145568
914.153	0.0144604
914.231	0.0142995
914.309	0.0143817
914.387	0.0144114
914.465	0.0145629
914.543	0.0142480
914.621	0.0143178
914.700	0.0144725
914.778	0.0145338
914.856	0.0144954
914.934	0.0145093
915.012	0.0144729
915.090	0.0144466
915.168	0.0143501
915.246	0.0144392
915.325	0.0143968
915.403	0.0145969
915.481	0.0144721
915.559	0.0144493
915.637	0.0142992
915.715	0.0144192
915.793	0.0145763
915.871	0.0145851
915.950	0.0143928
916.028	0.0143826
916.106	0.0144077
916.184	0.0143804
916.262	0.0144160
916.340	0.0144819
916.418	0.0144126
916.496	0.0145046
916.575	0.0144118
916.653	0.0143663
916.731	0.0144799
916.809	0.0144075
916.887	0.0144021
916.965	0.0145119
917.043	0.0145224
917.121	0.0143609
917.200	0.0144562
917.278	0.0144830
917.356	0.0143894
917.434	0.0144576
917.512	0.0145041
917.590	0.0142815
917.668	0.0144351
917.746	0.0143266
917.825	0.0144704
917.903	0.0144930
917.981	0.0145132
918.059	0.0143758
918.137	0.0143638
918.215	0.0143198
918.293	0.0143833
918.371	0.0144766
918.450	0.0144296
918.528	0.0143603
918.606	0.0143412
918.684	0.0143572
918.762	0.0144444
918.840	0.0143750
918.918	0.0143763
918.996	0.0144756
919.075	0.0144446
919.153	0.0144669
919.231	0.0144157
919.309	0.0144440
919.387	0.0145061
919.465	0.0144737
919.543	0.0144058
919.621	0.0143530
919.700	0.0142934
919.778	0.0143497
919.856	0.0144415
919.934	0.0144083
920.012	0.0143710
920.090	0.0143688
920.168	0.0143927
920.246	0.0144465
920.325	0.0143983
920.403	0.0144553
920.481	0.0145188
920.559	0.0145177
920.637	0.0145518
920.715	0.0145305
920.793	0.0144436
920.871	0.0143593
920.950	0.0144585
921.028	0.0144525
921.106	0.0145023
921.184	0.0144772
921.262	0.0144455
921.340	0.0144593
921.418	0.0144711
921.496	0.0144410
921.575	0.0143035
921.653	0.0142786
921.731	0.0143990
921.809	0.0143800
921.887	0.0143786
921.965	0.0142723
922.043	0.0144104
922.121	0.0144524
922.200	0.0144164
922.278	0.0145352
922.356	0.0144445
922.434	0.0143282
922.512	0.0143996
922.590	0.0145557
922.668	0.0144698
922.746	0.0143584
922.825	0.0143847
922.903	0.0143794
922.981	0.0143935
923.059	0.0143235
923.137	0.0144594
923.215	0.0144709
923.293	0.0142532
923.371	0.0144086
923.450	0.0143998
923.528	0.0143507
923.606	0.0143935
923.684	0.0144082
923.762	0.0142690
923.840	0.0143308
923.918	0.0144390
923.996	0.0144074
924.075	0.0143748
924.153	0.0144967
924.231	0.0144781
924.309	0.0143714
924.387	0.0144054
924.465	0.0143986
924.543	0.0143169
924.621	0.0144650
924.700	0.0145014
924.778	0.0144161
924.856	0.0144469
924.934	0.0143264
925.012	0.0144265
925.090	0.0143376
925.168	0.0144563
925.246	0.0143865
925.325	0.0143374
925.403	0.0144016
925.481	0.0144357
925.559	0.0143115
925.637	0.0143281
925.715	0.0145160
925.793	0.0143457
925.871	0.0144033
925.950	0.0144010
926.028	0.0142911
926.106	0.0144077
926.184	0.0143842
926.262	0.0144293
926.340	0.0145053
926.418	0.0144305
926.496	0.0144886
926.575	0.0142500
926.653	0.0144856
926.731	0.0143651
926.809	0.0144798
926.887	0.0145527
926.965	0.0145831
927.043	0.0142834
927.121	0.0143721
927.200	0.0145743
927.278	0.0144034
927.356	0.0144830
927.434	0.0144497
927.512	0.0144415
927.590	0.0144242
927.668	0.0142731
927.746	0.0144611
927.825	0.0144257
927.903	0.0144388
927.981	0.0144501
928.059	0.0143781
928.137	0.0142867
928.215	0.0143627
928.293	0.0142847
928.371	0.0143708
928.450	0.0143448
928.528	0.0142789
928.606	0.0143498
928.684	0.0142208
928.762	0.0142020
928.840	0.0144198
928.918	0.0143312
928.996	0.0143364
929.075	0.0141403
929.153	0.0142800
929.231	0.0143519
929.309	0.0143832
929.387	0.0143616
929.465	0.0143494
929.543	0.0144070
929.621	0.0144757
929.700	0.0144205
929.778	0.0144314
929.856	0.0144272
929.934	0.0144601
930.012	0.0144597
930.090	0.0145316
930.168	0.0145608
930.246	0.0144079
930.325	0.0144527
930.403	0.0143259
930.481	0.0144875
930.559	0.0143492
930.637	0.0142791
930.715	0.0145799
930.793	0.0144229
930.871	0.0144200
930.950	0.0145090
931.028	0.0144769
931.106	0.0144104
931.184	0.0143617
931.262	0.0143758
931.340	0.0144379
931.418	0.0143404
931.496	0.0143163
931.575	0.0142903
931.653	0.0144257
931.731	0.0143787
931.809	0.0143056
931.887	0.0144051
931.965	0.0144042
932.043	0.0144777
932.121	0.0143600
932.200	0.0145670
932.278	0.0144906
932.356	0.0145296
932.434	0.0144738
932.512	0.0145372
932.590	0.0144667
932.668	0.0143324
932.746	0.0143571
932.825	0.0144742
932.903	0.0144254
932.981	0.0143340
933.059	0.0143780
933.137	0.0144364
933.215	0.0142545
933.293	0.0143016
933.371	0.0143060
933.450	0.0143905
933.528	0.0143513
933.606	0.0143185
933.684	0.0144694
933.762	0.0144952
933.840	0.0143712
933.918	0.0144263
933.996	0.0143922
934.075	0.0144285
934.153	0.0144368
934.231	0.0144050
934.309	0.0142506
934.387	0.0144139
934.465	0.0143976
934.543	0.0144356
934.621	0.0144456
934.700	0.0145506
934.778	0.0145087
934.856	0.0144859
934.934	0.0143108
935.012	0.0144782
935.090	0.0145274
935.168	0.0144964
935.246	0.0144589
935.325	0.0144282
935.403	0.0146754
935.481	0.0145965
935.559	0.0145705
935.637	0.0145344
935.715	0.0145446
935.793	0.0144758
935.871	0.0145316
935.950	0.0145663
936.028	0.0144762
936.106	0.0144984
936.184	0.0145651
936.262	0.0143960
936.340	0.0144219
936.418	0.0145278
936.496	0.0145601
936.575	0.0144776
936.653	0.0143356
936.731	0.0146226
936.809	0.0144469
936.887	0.0144801
936.965	0.0146442
937.043	0.0143062
937.121	0.0143201
937.200	0.0144913
937.278	0.0144824
937.356	0.0143349
937.434	0.0144089
937.512	0.0144569
937.590	0.0145997
937.668	0.0143726
937.746	0.0144321
937.825	0.0145189
937.903	0.0143961
937.981	0.0144535
938.059	0.0144647
938.137	0.0146553
938.215	0.0144628
938.293	0.0144647
938.371	0.0143537
938.450	0.0143407
938.528	0.0143452
938.606	0.0145270
938.684	0.0144577
938.762	0.0143327
938.840	0.0143125
938.918	0.0142234
938.996	0.0142804
939.075	0.0144064
939.153	0.0145026
939.231	0.0143869
939.309	0.0143326
939.387	0.0145251
939.465	0.0145873
939.543	0.0144518
939.621	0.0143744
939.700	0.0145351
939.778	0.0145743
939.856	0.0144749
939.934	0.0143655
940.012	0.0143628
940.090	0.0142395
940.168	0.0142318
940.246	0.0143114
940.325	0.0143464
940.403	0.0143161
940.481	0.0142560
940.559	0.0142861
940.637	0.0144035
940.715	0.0143970
940.793	0.0142882
940.871	0.0142522
940.950	0.0142908
941.028	0.0144218
941.106	0.0143208
941.184	0.0143681
941.262	0.0144246
941.340	0.0143410
941.418	0.0143999
941.496	0.0143560
941.575	0.0143623
941.653	0.0144257
941.731	0.0144041
941.809	0.0144095
941.887	0.0144525
941.965	0.0144437
942.043	0.0142201
942.121	0.0143528
942.200	0.0145446
942.278	0.0144376
942.356	0.0143989
942.434	0.0143636
942.512	0.0144353
942.590	0.0143681
942.668	0.0143420
942.746	0.0143358
942.825	0.0144335
942.903	0.0143117
942.981	0.0143993
943.059	0.0141893
943.137	0.0142431
943.215	0.0144893
943.293	0.0143280
943.371	0.0143365
943.450	0.0142638
943.528	0.0144381
943.606	0.0144316
943.684	0.0142721
943.762	0.0145050
943.840	0.0144543
943.918	0.0143789
943.996	0.0142216
944.075	0.0142960
944.153	0.0144057
944.231	0.0143902
944.309	0.0145570
944.387	0.0146129
944.465	0.0143891
944.543	0.0143551
944.621	0.0144811
944.700	0.0144391
944.778	0.0143856
944.856	0.0143991
944.934	0.0145218
945.012	0.0144363
945.090	0.0144464
945.168	0.0144059
945.246	0.0143240
945.325	0.0143348
945.403	0.0144588
945.481	0.0144847
945.559	0.0144529
945.637	0.0144240
945.715	0.0144922
945.793	0.0144308
945.871	0.0143508
945.950	0.0144012
946.028	0.0144009
946.106	0.0144634
946.184	0.0144659
946.262	0.0143928
946.340	0.0145419
946.418	0.0144699
946.496	0.0144181
946.575	0.0143021
946.653	0.0144356
946.731	0.0143537
946.809	0.0142563
946.887	0.0143732
946.965	0.0145663
947.043	0.0145324
947.121	0.0142855
947.200	0.0143810
947.278	0.0143425
947.356	0.0144871
947.434	0.0144730
947.512	0.0143130
947.590	0.0143712
947.668	0.0145619
947.746	0.0144814
947.825	0.0143557
947.903	0.0143272
947.981	0.0144511
948.059	0.0144478
948.137	0.0146026
948.215	0.0144444
948.293	0.0144743
948.371	0.0144961
948.450	0.0144410
948.528	0.0144451
948.606	0.0144267
948.684	0.0144261
948.762	0.0143809
948.840	0.0145000
948.918	0.0144829
948.996	0.0143423
949.075	0.0144178
949.153	0.0145716
949.231	0.0144122
949.309	0.0143364
949.387	0.0144356
949.465	0.0144885
949.543	0.0144136
949.621	0.0143093
949.700	0.0143592
949.778	0.0143765
949.856	0.0143889
949.934	0.0143696
950.012	0.0145193
950.090	0.0144193
950.168	0.0144967
950.246	0.0143542
950.325	0.0144804
950.403	0.0144937
950.481	0.0145290
950.559	0.0145267
950.637	0.0145770
950.715	0.0144962
950.793	0.0144382
950.871	0.0144247
950.950	0.0144206
951.028	0.0145617
951.106	0.0144090
951.184	0.0143913
951.262	0.0143798
951.340	0.0143733
951.418	0.0144812
951.496	0.0144276
951.575	0.0143774
951.653	0.0144090
951.731	0.0144334
951.809	0.0144310
951.887	0.0143716
951.965	0.0142919
952.043	0.0144571
952.121	0.0143664
952.200	0.0144270
952.278	0.0144305
952.356	0.0145036
952.434	0.0142910
952.512	0.0142416
952.590	0.0144734
952.668	0.0144574
952.746	0.0144547
952.825	0.0145217
952.903	0.0144708
952.981	0.0145445
953.059	0.0145432
953.137	0.0144383
953.215	0.0145387
953.293	0.0147104
953.371	0.0144698
953.450	0.0144386
953.528	0.0145474
953.606	0.0144180
953.684	0.0145449
953.762	0.0145037
953.840	0.0144204
953.918	0.0144939
953.996	0.0143676
954.075	0.0145583
954.153	0.0144432
954.231	0.0144205
954.309	0.0145084
954.387	0.0144544
954.465	0.0143812
954.543	0.0145323
954.621	0.0145338
954.700	0.0145122
954.778	0.0145326
954.856	0.0146754
954.934	0.0146304
955.012	0.0145494
955.090	0.0145283
955.168	0.0145536
955.246	0.0145338
955.325	0.0143711
955.403	0.0144922
955.481	0.0146709
955.559	0.0145835
955.637	0.0144917
955.715	0.0144533
955.793	0.0145279
955.871	0.0146546
955.950	0.0145752
956.028	0.0145085
956.106	0.0144496
956.184	0.0145433
956.262	0.0146085
956.340	0.0144206
956.418	0.0144507
956.496	0.0145608
956.575	0.0144624
956.653	0.0145496
956.731	0.0145473
956.809	0.0144921
956.887	0.0145063
956.965	0.0144681
957.043	0.0144963
957.121	0.0145573
957.200	0.0144946
957.278	0.0144857
957.356	0.0145041
957.434	0.0143936
957.512	0.0144129
957.590	0.0144421
957.668	0.0145617
957.746	0.0147646
957.825	0.0144256
957.903	0.0144833
957.981	0.0145438
958.059	0.0146083
958.137	0.0144347
958.215	0.0145182
958.293	0.0145879
958.371	0.0144360
958.450	0.0146104
958.528	0.0145692
958.606	0.0145457
958.684	0.0144507
958.762	0.0144855
958.840	0.0144075
958.918	0.0143772
958.996	0.0143565
959.075	0.0145126
959.153	0.0143871
959.231	0.0143924
959.309	0.0144449
959.387	0.0145310
959.465	0.0145129
959.543	0.0143850
959.621	0.0144697
959.700	0.0145692
959.778	0.0145457
959.856	0.0144740
959.934	0.0144250
960.012	0.0144740
960.090	0.0143886
960.168	0.0144427
960.246	0.0145879
960.325	0.0145129
960.403	0.0146013
960.481	0.0144112
960.559	0.0144094
960.637	0.0145496
960.715	0.0145490
960.793	0.0145075
960.871	0.0145344
960.950	0.0145404
961.028	0.0144183
961.106	0.0143629
961.184	0.0143890
961.262	0.0143100
961.340	0.0144228
961.418	0.0143970
961.496	0.0142841
961.575	0.0143697
961.653	0.0145229
961.731	0.0143542
961.809	0.0143813
961.887	0.0143090
961.965	0.0143168
962.043	0.0143195
962.121	0.0144760
962.200	0.0143671
962.278	0.0143034
962.356	0.0142945
962.434	0.0144125
962.512	0.0143813
962.590	0.0144605
962.668	0.0144798
962.746	0.0143758
962.825	0.0144256
962.903	0.0144904
962.981	0.0145789
963.059	0.0144427
963.137	0.0143246
963.215	0.0145035
963.293	0.0144140
963.371	0.0144267
963.450	0.0144337
963.528	0.0145063
963.606	0.0143337
963.684	0.0144923
963.762	0.0143838
963.840	0.0144531
963.918	0.0144122
963.996	0.0144814
964.075	0.0143623
964.153	0.0143321
964.231	0.0143098
964.309	0.0143906
964.387	0.0143669
964.465	0.0143829
964.543	0.0142977
964.621	0.0142987
964.700	0.0143591
964.778	0.0142731
964.856	0.0143683
964.934	0.0143194
965.012	0.0143692
965.090	0.0142871
965.168	0.0143194
965.246	0.0143375
965.325	0.0144360
965.403	0.0143990
965.481	0.0144888
965.559	0.0144249
965.637	0.0144794
965.715	0.0145451
965.793	0.0144334
965.871	0.0143774
965.950	0.0144167
966.028	0.0144762
966.106	0.0144265
966.184	0.0145181
966.262	0.0144161
966.340	0.0143851
966.418	0.0144544
966.496	0.0144275
966.575	0.0144342
966.653	0.0144464
966.731	0.0143322
966.809	0.0144782
966.887	0.0146004
966.965	0.0143807
967.043	0.0144183
967.121	0.0143622
967.200	0.0142991
967.278	0.0143383
967.356	0.0143752
967.434	0.0144958
967.512	0.0144032
967.590	0.0143552
967.668	0.0144595
967.746	0.0143807
967.825	0.0144584
967.903	0.0145693
967.981	0.0144512
968.059	0.0144413
968.137	0.0144094
968.215	0.0144159
968.293	0.0144684
968.371	0.0144198
968.450	0.0144872
968.528	0.0144666
968.606	0.0145345
968.684	0.0145498
968.762	0.0145532
968.840	0.0144601
968.918	0.0145380
968.996	0.0144907
969.075	0.0144738
969.153	0.0144740
969.231	0.0145991
969.309	0.0144039
969.387	0.0143378
969.465	0.0144433
969.543	0.0144974
969.621	0.0144514
969.700	0.0144532
969.778	0.0142930
969.856	0.0143789
969.934	0.0144031
970.012	0.0142561
970.090	0.0144825
970.168	0.0144772
970.246	0.0144608
970.325	0.0144221
970.403	0.0144333
970.481	0.0143661
970.559	0.0143594
970.637	0.0144112
970.715	0.0143924
970.793	0.0144311
970.871	0.0144243
970.950	0.0144708
971.028	0.0144713
971.106	0.0142268
971.184	0.0144005
971.262	0.0145654
971.340	0.0145489
971.418	0.0144103
971.496	0.0144193
971.575	0.0145655
971.653	0.0145738
971.731	0.0144077
971.809	0.0143584
971.887	0.0144778
971.965	0.0144447
972.043	0.0144077
972.121	0.0143261
972.200	0.0143663
972.278	0.0144272
972.356	0.0143723
972.434	0.0144482
972.512	0.0142709
972.590	0.0143579
972.668	0.0143883
972.746	0.0144273
972.825	0.0143062
972.903	0.0143921
972.981	0.0143889
973.059	0.0144544
973.137	0.0144070
973.215	0.0143564
973.293	0.0143674
973.371	0.0143412
973.450	0.0145370
973.528	0.0143497
973.606	0.0143358
973.684	0.0144242
973.762	0.0144437
973.840	0.0143596
973.918	0.0144167
973.996	0.0145065
974.075	0.0144270
974.153	0.0144690
974.231	0.0144477
974.309	0.0144857
974.387	0.0144260
974.465	0.0144194
974.543	0.0144435
974.621	0.0143752
974.700	0.0143014
974.778	0.0143126
974.856	0.0143822
974.934	0.0143448
975.012	0.0144187
975.090	0.0144683
975.168	0.0145005
975.246	0.0144347
975.325	0.0146382
975.403	0.0143740
975.481	0.0144370
975.559	0.0144360
975.637	0.0145431
975.715	0.0146047
975.793	0.0146326
975.871	0.0144781
975.950	0.0144958
976.028	0.0146141
976.106	0.0144643
976.184	0.0144028
976.262	0.0144302
976.340	0.0145765
976.418	0.0144888
976.496	0.0144499
976.575	0.0144302
976.653	0.0146367
976.731	0.0144938
976.809	0.0143820
976.887	0.0143979
976.965	0.0145555
977.043	0.0145315
977.121	0.0143855
977.200	0.0144070
977.278	0.0144839
977.356	0.0144424
977.434	0.0145266
977.512	0.0145683
977.590	0.0145577
977.668	0.0145811
977.746	0.0144586
977.825	0.0144913
977.903	0.0145798
977.981	0.0144093
978.059	0.0144741
978.137	0.0144791
978.215	0.0145022
978.293	0.0144032
978.371	0.0145119
978.450	0.0144919
978.528	0.0143951
978.606	0.0145119
978.684	0.0144211
978.762	0.0143865
978.840	0.0143961
978.918	0.0143311
978.996	0.0143163
979.075	0.0143985
979.153	0.0144434
979.231	0.0143832
979.309	0.0144467
979.387	0.0144017
979.465	0.0144386
979.543	0.0144044
979.621	0.0145284
979.700	0.0144668
979.778	0.0143575
979.856	0.0143255
979.934	0.0144605
980.012	0.0145872
980.090	0.0145525
980.168	0.0144741
980.246	0.0144711
980.325	0.0143335
980.403	0.0145731
980.481	0.0146635
980.559	0.0145552
980.637	0.0143258
980.715	0.0144891
980.793	0.0143487
980.871	0.0144964
980.950	0.0144115
981.028	0.0145186
981.106	0.0144337
981.184	0.0144495
981.262	0.0144496
981.340	0.0142362
981.418	0.0145094
981.496	0.0144151
981.575	0.0144711
981.653	0.0144518
981.731	0.0143450
981.809	0.0144243
981.887	0.0143161
981.965	0.0143767
982.043	0.0143551
982.121	0.0142912
982.200	0.0144589
982.278	0.0144809
982.356	0.0143423
982.434	0.0142796
982.512	0.0143968
982.590	0.0144261
982.668	0.0144483
982.746	0.0143318
982.825	0.0144110
982.903	0.0144647
982.981	0.0144167
983.059	0.0144398
983.137	0.0144640
983.215	0.0145219
983.293	0.0144797
983.371	0.0143575
983.450	0.0143686
983.528	0.0144121
983.606	0.0144398
983.684	0.0144924
983.762	0.0144230
983.840	0.0143610
983.918	0.0143590
983.996	0.0143424
984.075	0.0143935
984.153	0.0142310
984.231	0.0143291
984.309	0.0143613
984.387	0.0143485
984.465	0.0144138
984.543	0.0143951
984.621	0.0142381
984.700	0.0144166
984.778	0.0143944
984.856	0.0142915
984.934	0.0144321
985.012	0.0142461
985.090	0.0144333
985.168	0.0143742
985.246	0.0145526
985.325	0.0145199
985.403	0.0144521
985.481	0.0144621
985.559	0.0143958
985.637	0.0143513
985.715	0.0144709
985.793	0.0145526
985.871	0.0144837
985.950	0.0143489
986.028	0.0143073
986.106	0.0142818
986.184	0.0145325
986.262	0.0143938
986.340	0.0143089
986.418	0.0143946
986.496	0.0143954
986.575	0.0143690
986.653	0.0144136
986.731	0.0144485
986.809	0.0144204
986.887	0.0144103
986.965	0.0143578
987.043	0.0143919
987.121	0.0143300
987.200	0.0144289
987.278	0.0144718
987.356	0.0144204
987.434	0.0144269
987.512	0.0143164
987.590	0.0144377
987.668	0.0141502
987.746	0.0143154
987.825	0.0143104
987.903	0.0143133
987.981	0.0142657
988.059	0.0142155
988.137	0.0143031
988.215	0.0143973
988.293	0.0142621
988.371	0.0143046
988.450	0.0144232
988.528	0.0143665
988.606	0.0143844
988.684	0.0143113
988.762	0.0144201
988.840	0.0143206
988.918	0.0144709
988.996	0.0144607
989.075	0.0143267
989.153	0.0143712
989.231	0.0143741
989.309	0.0143664
989.387	0.0143591
989.465	0.0144461
989.543	0.0145157
989.621	0.0144798
989.700	0.0143870
989.778	0.0144881
989.856	0.0145502
989.934	0.0144434
990.012	0.0142907
990.090	0.0143280
990.168	0.0145612
990.246	0.0143662
990.325	0.0145001
990.403	0.0144243
990.481	0.0144595
990.559	0.0143937
990.637	0.0143092
990.715	0.0144125
990.793	0.0142680
990.871	0.0143314
990.950	0.0144580
991.028	0.0144681
991.106	0.0143896
991.184	0.0144244
991.262	0.0143669
991.340	0.0143265
991.418	0.0144513
991.496	0.0144228
991.575	0.0142890
991.653	0.0144277
991.731	0.0143448
991.809	0.0143504
991.887	0.0144152
991.965	0.0144032
992.043	0.0143489
992.121	0.0142924
992.200	0.0144252
992.278	0.0144127
992.356	0.0143035
992.434	0.0143472
992.512	0.0144694
992.590	0.0144124
992.668	0.0144678
992.746	0.0143977
992.825	0.0143674
992.903	0.0142601
992.981	0.0143121
993.059	0.0144192
993.137	0.0143929
993.215	0.0143616
993.293	0.0145013
993.371	0.0144575
993.450	0.0143356
993.528	0.0143458
993.606	0.0143006
993.684	0.0143282
993.762	0.0143897
993.840	0.0142898
993.918	0.0143256
993.996	0.0143186
994.075	0.0144749
994.153	0.0143816
994.231	0.0143528
994.309	0.0145428
994.387	0.0143889
994.465	0.0143714
994.543	0.0142752
994.621	0.0143369
994.700	0.0143784
994.778	0.0143106
994.856	0.0144439
994.934	0.0144717
995.012	0.0143821
995.090	0.0144757
995.168	0.0144957
995.246	0.0144334
995.325	0.0144746
995.403	0.0143584
995.481	0.0144087
995.559	0.0145388
995.637	0.0146043
995.715	0.0144238
995.793	0.0143947
995.871	0.0144064
995.950	0.0144156
996.028	0.0142830
996.106	0.0143633
996.184	0.0144418
996.262	0.0143583
996.340	0.0143939
996.418	0.0144592
996.496	0.0143785
996.575	0.0142551
996.653	0.0144011
996.731	0.0143660
996.809	0.0145608
996.887	0.0144028
996.965	0.0143339
997.043	0.0144170
997.121	0.0144357
997.200	0.0144221
997.278	0.0142304
997.356	0.0143716
997.434	0.0143523
997.512	0.0144469
997.590	0.0143515
997.668	0.0143751
997.746	0.0144503
997.825	0.0144493
997.903	0.0143873
997.981	0.0143692
998.059	0.0144183
998.137	0.0142654
998.215	0.0144207
998.293	0.0145574
998.371	0.0144815
998.450	0.0145190
998.528	0.0145080
998.606	0.0144692
998.684	0.0145745
998.762	0.0145767
998.840	0.0145481
998.918	0.0145759
