05/04/2022	21:35:34	Ver.	4.1	UNKNOWN
Optical Delay	678.996401	Delta X		0.078125	Sweeps	1	Scan Rate	0/0
Coordinates	Axis 1	NaN	Axis 2	NaN	Axis 3	NaN	Axis 4	NaN	Axis 5	NaN	Axis 6	0.000000
TX Power	0.000000	RX Power	0.000000

678.996	0.0144762
679.075	0.0145416
679.153	0.0146236
679.231	0.0145943
679.309	0.0144489
679.387	0.0145146
679.465	0.0145914
679.543	0.0145365
679.621	0.0145054
679.700	0.0144531
679.778	0.0144139
679.856	0.0145373
679.934	0.0145058
680.012	0.0143754
680.090	0.0145118
680.168	0.0144420
680.246	0.0143789
680.325	0.0144814
680.403	0.0145422
680.481	0.0144538
680.559	0.0146147
680.637	0.0145700
680.715	0.0145011
680.793	0.0145384
680.871	0.0145467
680.950	0.0145116
681.028	0.0144189
681.106	0.0146344
681.184	0.0144853
681.262	0.0143388
681.340	0.0143356
681.418	0.0143144
681.496	0.0142418
681.575	0.0143967
681.653	0.0145222
681.731	0.0145531
681.809	0.0145403
681.887	0.0145654
681.965	0.0144360
682.043	0.0145975
682.121	0.0144495
682.200	0.0144210
682.278	0.0144978
682.356	0.0145018
682.434	0.0143838
682.512	0.0144509
682.590	0.0145289
682.668	0.0145525
682.746	0.0146435
682.825	0.0145701
682.903	0.0145917
682.981	0.0145910
683.059	0.0145672
683.137	0.0145812
683.215	0.0146371
683.293	0.0143906
683.371	0.0143396
683.450	0.0143353
683.528	0.0143366
683.606	0.0143482
683.684	0.0143938
683.762	0.0144203
683.840	0.0144119
683.918	0.0143642
683.996	0.0144501
684.075	0.0144572
684.153	0.0143925
684.231	0.0144678
684.309	0.0145023
684.387	0.0144114
684.465	0.0144243
684.543	0.0144973
684.621	0.0146095
684.700	0.0145654
684.778	0.0147347
684.856	0.0148698
684.934	0.0147931
685.012	0.0148865
685.090	0.0148586
685.168	0.0146666
685.246	0.0146881
685.325	0.0147162
685.403	0.0144973
685.481	0.0146162
685.559	0.0144373
685.637	0.0143838
685.715	0.0144594
685.793	0.0144169
685.871	0.0143640
685.950	0.0144296
686.028	0.0142950
686.106	0.0142429
686.184	0.0142816
686.262	0.0141445
686.340	0.0140368
686.418	0.0142342
686.496	0.0142697
686.575	0.0142618
686.653	0.0143406
686.731	0.0145218
686.809	0.0145781
686.887	0.0145678
686.965	0.0146038
687.043	0.0145428
687.121	0.0145425
687.200	0.0146486
687.278	0.0148093
687.356	0.0146620
687.434	0.0147159
687.512	0.0148284
687.590	0.0147825
687.668	0.0148669
687.746	0.0149011
687.825	0.0148707
687.903	0.0147941
687.981	0.0146728
688.059	0.0146943
688.137	0.0146819
688.215	0.0146929
688.293	0.0145084
688.371	0.0142931
688.450	0.0143847
688.528	0.0145521
688.606	0.0144627
688.684	0.0143898
688.762	0.0146735
688.840	0.0144775
688.918	0.0144369
688.996	0.0145431
689.075	0.0144800
689.153	0.0143184
689.231	0.0143978
689.309	0.0144069
689.387	0.0143247
689.465	0.0143237
689.543	0.0144164
689.621	0.0144557
689.700	0.0145562
689.778	0.0145103
689.856	0.0145280
689.934	0.0145491
690.012	0.0146410
690.090	0.0145872
690.168	0.0147489
690.246	0.0147048
690.325	0.0146515
690.403	0.0146869
690.481	0.0148153
690.559	0.0148417
690.637	0.0149158
690.715	0.0150116
690.793	0.0148679
690.871	0.0147883
690.950	0.0149137
691.028	0.0148505
691.106	0.0146604
691.184	0.0146231
691.262	0.0145631
691.340	0.0144740
691.418	0.0145391
691.496	0.0145503
691.575	0.0144656
691.653	0.0146009
691.731	0.0145104
691.809	0.0145287
691.887	0.0144366
691.965	0.0146254
692.043	0.0145103
692.121	0.0143880
692.200	0.0142797
692.278	0.0142670
692.356	0.0142071
692.434	0.0142728
692.512	0.0142120
692.590	0.0142455
692.668	0.0141894
692.746	0.0142716
692.825	0.0143498
692.903	0.0143005
692.981	0.0142699
693.059	0.0144094
693.137	0.0143601
693.215	0.0145038
693.293	0.0145874
693.371	0.0146129
693.450	0.0147127
693.528	0.0148773
693.606	0.0147196
693.684	0.0147489
693.762	0.0149044
693.840	0.0150223
693.918	0.0148093
693.996	0.0146963
694.075	0.0147293
694.153	0.0146120
694.231	0.0145187
694.309	0.0144498
694.387	0.0145113
694.465	0.0145612
694.543	0.0146440
694.621	0.0147798
694.700	0.0147523
694.778	0.0148814
694.856	0.0149330
694.934	0.0148493
695.012	0.0147725
695.090	0.0147253
695.168	0.0146012
695.246	0.0146262
695.325	0.0143759
695.403	0.0141366
695.481	0.0140256
695.559	0.0138791
695.637	0.0139548
695.715	0.0139277
695.793	0.0139383
695.871	0.0138830
695.950	0.0140809
696.028	0.0139632
696.106	0.0140168
696.184	0.0142186
696.262	0.0141785
696.340	0.0142350
696.418	0.0142713
696.496	0.0142766
696.575	0.0142828
696.653	0.0145197
696.731	0.0145497
696.809	0.0145515
696.887	0.0145984
696.965	0.0145705
697.043	0.0145474
697.121	0.0145441
697.200	0.0145416
697.278	0.0146386
697.356	0.0147186
697.434	0.0147794
697.512	0.0149963
697.590	0.0149840
697.668	0.0149858
697.746	0.0150430
697.825	0.0151756
697.903	0.0151392
697.981	0.0150015
698.059	0.0150316
698.137	0.0150363
698.215	0.0146975
698.293	0.0147371
698.371	0.0144347
698.450	0.0142036
698.528	0.0142855
698.606	0.0141566
698.684	0.0140451
698.762	0.0139979
698.840	0.0138990
698.918	0.0138251
698.996	0.0138695
699.075	0.0140814
699.153	0.0139730
699.231	0.0140068
699.309	0.0140601
699.387	0.0142133
699.465	0.0142121
699.543	0.0143784
699.621	0.0143983
699.700	0.0144902
699.778	0.0146532
699.856	0.0145838
699.934	0.0145377
700.012	0.0146608
700.090	0.0146791
700.168	0.0146066
700.246	0.0146114
700.325	0.0144756
700.403	0.0144138
700.481	0.0145100
700.559	0.0144818
700.637	0.0144556
700.715	0.0145738
700.793	0.0145714
700.871	0.0147086
700.950	0.0147482
701.028	0.0150230
701.106	0.0150047
701.184	0.0148523
701.262	0.0149543
701.340	0.0148958
701.418	0.0148180
701.496	0.0146204
701.575	0.0144704
701.653	0.0144210
701.731	0.0144144
701.809	0.0142854
701.887	0.0140948
701.965	0.0141360
702.043	0.0141074
702.121	0.0140287
702.200	0.0139735
702.278	0.0140679
702.356	0.0142025
702.434	0.0141489
702.512	0.0142242
702.590	0.0142092
702.668	0.0143526
702.746	0.0141912
702.825	0.0142022
702.903	0.0141753
702.981	0.0142078
703.059	0.0141344
703.137	0.0141750
703.215	0.0141257
703.293	0.0139799
703.371	0.0140669
703.450	0.0140343
703.528	0.0140322
703.606	0.0142515
703.684	0.0144157
703.762	0.0144788
703.840	0.0146933
703.918	0.0146138
703.996	0.0148769
704.075	0.0150024
704.153	0.0150972
704.231	0.0150461
704.309	0.0151570
704.387	0.0151418
704.465	0.0152386
704.543	0.0151727
704.621	0.0150205
704.700	0.0148850
704.778	0.0148494
704.856	0.0147353
704.934	0.0145979
705.012	0.0144434
705.090	0.0141714
705.168	0.0141544
705.246	0.0140891
705.325	0.0140247
705.403	0.0140012
705.481	0.0140797
705.559	0.0140485
705.637	0.0140997
705.715	0.0140902
705.793	0.0141621
705.871	0.0141881
705.950	0.0142644
706.028	0.0142475
706.106	0.0143301
706.184	0.0143935
706.262	0.0143356
706.340	0.0142469
706.418	0.0141535
706.496	0.0142213
706.575	0.0143387
706.653	0.0143318
706.731	0.0144129
706.809	0.0143706
706.887	0.0143460
706.965	0.0143200
707.043	0.0145679
707.121	0.0145700
707.200	0.0146322
707.278	0.0147202
707.356	0.0147920
707.434	0.0148754
707.512	0.0150364
707.590	0.0149388
707.668	0.0149004
707.746	0.0148891
707.825	0.0149980
707.903	0.0148903
707.981	0.0148478
708.059	0.0146107
708.137	0.0144751
708.215	0.0142555
708.293	0.0142540
708.371	0.0143924
708.450	0.0142999
708.528	0.0143513
708.606	0.0144144
708.684	0.0143438
708.762	0.0142943
708.840	0.0143647
708.918	0.0145096
708.996	0.0144262
709.075	0.0145169
709.153	0.0143139
709.231	0.0144729
709.309	0.0144557
709.387	0.0144258
709.465	0.0143787
709.543	0.0142217
709.621	0.0142139
709.700	0.0142130
709.778	0.0140939
709.856	0.0140907
709.934	0.0139690
710.012	0.0139626
710.090	0.0140501
710.168	0.0141993
710.246	0.0139304
710.325	0.0142457
710.403	0.0141859
710.481	0.0142763
710.559	0.0146078
710.637	0.0145884
710.715	0.0146118
710.793	0.0146230
710.871	0.0147161
710.950	0.0147874
711.028	0.0148982
711.106	0.0150201
711.184	0.0149560
711.262	0.0150306
711.340	0.0150079
711.418	0.0149281
711.496	0.0148540
711.575	0.0148411
711.653	0.0148683
711.731	0.0147262
711.809	0.0147086
711.887	0.0146423
711.965	0.0147178
712.043	0.0145443
712.121	0.0144401
712.200	0.0143880
712.278	0.0144048
712.356	0.0143008
712.434	0.0143283
712.512	0.0143040
712.590	0.0141859
712.668	0.0141463
712.746	0.0141177
712.825	0.0141293
712.903	0.0141893
712.981	0.0140703
713.059	0.0141146
713.137	0.0141535
713.215	0.0142208
713.293	0.0142457
713.371	0.0142703
713.450	0.0143993
713.528	0.0144971
713.606	0.0144914
713.684	0.0146470
713.762	0.0146252
713.840	0.0146765
713.918	0.0148273
713.996	0.0149736
714.075	0.0150493
714.153	0.0149043
714.231	0.0148521
714.309	0.0149852
714.387	0.0149291
714.465	0.0148757
714.543	0.0148249
714.621	0.0146967
714.700	0.0148438
714.778	0.0147847
714.856	0.0145165
714.934	0.0144134
715.012	0.0144918
715.090	0.0145253
715.168	0.0144752
715.246	0.0143663
715.325	0.0143697
715.403	0.0144740
715.481	0.0142418
715.559	0.0144330
715.637	0.0145724
715.715	0.0143450
715.793	0.0143679
715.871	0.0144510
715.950	0.0144125
716.028	0.0145630
716.106	0.0145815
716.184	0.0145090
716.262	0.0145036
716.340	0.0146061
716.418	0.0146093
716.496	0.0145238
716.575	0.0146114
716.653	0.0145345
716.731	0.0145878
716.809	0.0144525
716.887	0.0144217
716.965	0.0143616
717.043	0.0146552
717.121	0.0144939
717.200	0.0144435
717.278	0.0144485
717.356	0.0144648
717.434	0.0144300
717.512	0.0144182
717.590	0.0144527
717.668	0.0144423
717.746	0.0145396
717.825	0.0144795
717.903	0.0143954
717.981	0.0146496
718.059	0.0146215
718.137	0.0145846
718.215	0.0147150
718.293	0.0147984
718.371	0.0147425
718.450	0.0146817
718.528	0.0146809
718.606	0.0147621
718.684	0.0148045
718.762	0.0148224
718.840	0.0147364
718.918	0.0148190
718.996	0.0146220
719.075	0.0147074
719.153	0.0144527
719.231	0.0145541
719.309	0.0145210
719.387	0.0143291
719.465	0.0144242
719.543	0.0142230
719.621	0.0142148
719.700	0.0141316
719.778	0.0140118
719.856	0.0141439
719.934	0.0141371
720.012	0.0141096
720.090	0.0141460
720.168	0.0142382
720.246	0.0141860
720.325	0.0142433
720.403	0.0142659
720.481	0.0145846
720.559	0.0145382
720.637	0.0144036
720.715	0.0145434
720.793	0.0146215
720.871	0.0146458
720.950	0.0147179
721.028	0.0145675
721.106	0.0146338
721.184	0.0146935
721.262	0.0146766
721.340	0.0148331
721.418	0.0145508
721.496	0.0146295
721.575	0.0148159
721.653	0.0146559
721.731	0.0146405
721.809	0.0145971
721.887	0.0144903
721.965	0.0145083
722.043	0.0143355
722.121	0.0144498
722.200	0.0144165
722.278	0.0142426
722.356	0.0142043
722.434	0.0144337
722.512	0.0142363
722.590	0.0143563
722.668	0.0142823
722.746	0.0142943
722.825	0.0143520
722.903	0.0144800
722.981	0.0145676
723.059	0.0145102
723.137	0.0144289
723.215	0.0144410
723.293	0.0144427
723.371	0.0146127
723.450	0.0144753
723.528	0.0145416
723.606	0.0145878
723.684	0.0145333
723.762	0.0145115
723.840	0.0145663
723.918	0.0144972
723.996	0.0145619
724.075	0.0144991
724.153	0.0144151
724.231	0.0145633
724.309	0.0145100
724.387	0.0144404
724.465	0.0143774
724.543	0.0143667
724.621	0.0146083
724.700	0.0145139
724.778	0.0146122
724.856	0.0145603
724.934	0.0146506
725.012	0.0145965
725.090	0.0145214
725.168	0.0145979
725.246	0.0145357
725.325	0.0144774
725.403	0.0145378
725.481	0.0146465
725.559	0.0146980
725.637	0.0145320
725.715	0.0145391
725.793	0.0146716
725.871	0.0145854
725.950	0.0145619
726.028	0.0146054
726.106	0.0144485
726.184	0.0144289
726.262	0.0145066
726.340	0.0143813
726.418	0.0143591
726.496	0.0143050
726.575	0.0142516
726.653	0.0143194
726.731	0.0142537
726.809	0.0142358
726.887	0.0142770
726.965	0.0141322
727.043	0.0142053
727.121	0.0144026
727.200	0.0144929
727.278	0.0143354
727.356	0.0145737
727.434	0.0145689
727.512	0.0145738
727.590	0.0145348
727.668	0.0146061
727.746	0.0145902
727.825	0.0146043
727.903	0.0145757
727.981	0.0144547
728.059	0.0146410
728.137	0.0146425
728.215	0.0144032
728.293	0.0147018
728.371	0.0145639
728.450	0.0145975
728.528	0.0144874
728.606	0.0145769
728.684	0.0144934
728.762	0.0145696
728.840	0.0146089
728.918	0.0143720
728.996	0.0144939
729.075	0.0143980
729.153	0.0142789
729.231	0.0143799
729.309	0.0145006
729.387	0.0144477
729.465	0.0143233
729.543	0.0142851
729.621	0.0144741
729.700	0.0144622
729.778	0.0143649
729.856	0.0144028
729.934	0.0143645
730.012	0.0144424
730.090	0.0145257
730.168	0.0144620
730.246	0.0144217
730.325	0.0144965
730.403	0.0144495
730.481	0.0144985
730.559	0.0144187
730.637	0.0145399
730.715	0.0145737
730.793	0.0142316
730.871	0.0143770
730.950	0.0144359
731.028	0.0144100
731.106	0.0146019
731.184	0.0144057
731.262	0.0144302
731.340	0.0144479
731.418	0.0143916
731.496	0.0144071
731.575	0.0143370
731.653	0.0144092
731.731	0.0144434
731.809	0.0144855
731.887	0.0144514
731.965	0.0145717
732.043	0.0145896
732.121	0.0145466
732.200	0.0145350
732.278	0.0145949
732.356	0.0145509
732.434	0.0147485
732.512	0.0145763
732.590	0.0146024
732.668	0.0146113
732.746	0.0145914
732.825	0.0146730
732.903	0.0146078
732.981	0.0143597
733.059	0.0144103
733.137	0.0145356
733.215	0.0144071
733.293	0.0143891
733.371	0.0144937
733.450	0.0143449
733.528	0.0143075
733.606	0.0143100
733.684	0.0142840
733.762	0.0143331
733.840	0.0142946
733.918	0.0144571
733.996	0.0142442
734.075	0.0142503
734.153	0.0143966
734.231	0.0143739
734.309	0.0144330
734.387	0.0144946
734.465	0.0144356
734.543	0.0146931
734.621	0.0147028
734.700	0.0145075
734.778	0.0146467
734.856	0.0147716
734.934	0.0147569
735.012	0.0147379
735.090	0.0147827
735.168	0.0147314
735.246	0.0147915
735.325	0.0147808
735.403	0.0146767
735.481	0.0147140
735.559	0.0145380
735.637	0.0145444
735.715	0.0145021
735.793	0.0144306
735.871	0.0144261
735.950	0.0144135
736.028	0.0144525
736.106	0.0143684
736.184	0.0143466
736.262	0.0143819
736.340	0.0143211
736.418	0.0142683
736.496	0.0143872
736.575	0.0144303
736.653	0.0144864
736.731	0.0144468
736.809	0.0144624
736.887	0.0144987
736.965	0.0144612
737.043	0.0146159
737.121	0.0146513
737.200	0.0146484
737.278	0.0146352
737.356	0.0146144
737.434	0.0146623
737.512	0.0145920
737.590	0.0146323
737.668	0.0147012
737.746	0.0146300
737.825	0.0146183
737.903	0.0145634
737.981	0.0146935
738.059	0.0145754
738.137	0.0144578
738.215	0.0144444
738.293	0.0146164
738.371	0.0145393
738.450	0.0143922
738.528	0.0144929
738.606	0.0144105
738.684	0.0142541
738.762	0.0145372
738.840	0.0144602
738.918	0.0145167
738.996	0.0144166
739.075	0.0144106
739.153	0.0144836
739.231	0.0145259
739.309	0.0144218
739.387	0.0144752
739.465	0.0146531
739.543	0.0144775
739.621	0.0146518
739.700	0.0145586
739.778	0.0145805
739.856	0.0146149
739.934	0.0147248
740.012	0.0144089
740.090	0.0145904
740.168	0.0145502
740.246	0.0144936
740.325	0.0145369
740.403	0.0143927
740.481	0.0143555
740.559	0.0143411
740.637	0.0144022
740.715	0.0143680
740.793	0.0144307
740.871	0.0144363
740.950	0.0144094
741.028	0.0144190
741.106	0.0143412
741.184	0.0145296
741.262	0.0145579
741.340	0.0143616
741.418	0.0145434
741.496	0.0144825
741.575	0.0144689
741.653	0.0146040
741.731	0.0145127
741.809	0.0144966
741.887	0.0145760
741.965	0.0145060
742.043	0.0145938
742.121	0.0147173
742.200	0.0145776
742.278	0.0146189
742.356	0.0148357
742.434	0.0146610
742.512	0.0146688
742.590	0.0145578
742.668	0.0145560
742.746	0.0145903
742.825	0.0145366
742.903	0.0144923
742.981	0.0145393
743.059	0.0143881
743.137	0.0143611
743.215	0.0143191
743.293	0.0145101
743.371	0.0143816
743.450	0.0142757
743.528	0.0143157
743.606	0.0144608
743.684	0.0144060
743.762	0.0142334
743.840	0.0144138
743.918	0.0143661
743.996	0.0144370
744.075	0.0144589
744.153	0.0144995
744.231	0.0145872
744.309	0.0147084
744.387	0.0145868
744.465	0.0144401
744.543	0.0145325
744.621	0.0147363
744.700	0.0146667
744.778	0.0145741
744.856	0.0147704
744.934	0.0145750
745.012	0.0145449
745.090	0.0147563
745.168	0.0147517
745.246	0.0146159
745.325	0.0145855
745.403	0.0145188
745.481	0.0146033
745.559	0.0145345
745.637	0.0144875
745.715	0.0144310
745.793	0.0144903
745.871	0.0145313
745.950	0.0145533
746.028	0.0144720
746.106	0.0145889
746.184	0.0145449
746.262	0.0145179
746.340	0.0143299
746.418	0.0145134
746.496	0.0145283
746.575	0.0144164
746.653	0.0144150
746.731	0.0144386
746.809	0.0144808
746.887	0.0144172
746.965	0.0145002
747.043	0.0146146
747.121	0.0145036
747.200	0.0145145
747.278	0.0145274
747.356	0.0144246
747.434	0.0144678
747.512	0.0146123
747.590	0.0144391
747.668	0.0145150
747.746	0.0143439
747.825	0.0143905
747.903	0.0145573
747.981	0.0144528
748.059	0.0145273
748.137	0.0145696
748.215	0.0143965
748.293	0.0144398
748.371	0.0144786
748.450	0.0145354
748.528	0.0144296
748.606	0.0144860
748.684	0.0146590
748.762	0.0145702
748.840	0.0145951
748.918	0.0145827
748.996	0.0146008
749.075	0.0144982
749.153	0.0145013
749.231	0.0145708
749.309	0.0145322
749.387	0.0144722
749.465	0.0147219
749.543	0.0147329
749.621	0.0145998
749.700	0.0145265
749.778	0.0146196
749.856	0.0145854
749.934	0.0145747
750.012	0.0146186
750.090	0.0144754
750.168	0.0144225
750.246	0.0145724
750.325	0.0145467
750.403	0.0145165
750.481	0.0145124
750.559	0.0144428
750.637	0.0144076
750.715	0.0144896
750.793	0.0145345
750.871	0.0143616
750.950	0.0143910
751.028	0.0143663
751.106	0.0143449
751.184	0.0145615
751.262	0.0145631
751.340	0.0144501
751.418	0.0144767
751.496	0.0145731
751.575	0.0145243
751.653	0.0145131
751.731	0.0145575
751.809	0.0145313
751.887	0.0146246
751.965	0.0146761
752.043	0.0145349
752.121	0.0145704
752.200	0.0145151
752.278	0.0145852
752.356	0.0146974
752.434	0.0145732
752.512	0.0144817
752.590	0.0145977
752.668	0.0146916
752.746	0.0145786
752.825	0.0145786
752.903	0.0145582
752.981	0.0144650
753.059	0.0144457
753.137	0.0144124
753.215	0.0145033
753.293	0.0144916
753.371	0.0144521
753.450	0.0144602
753.528	0.0144834
753.606	0.0144288
753.684	0.0145709
753.762	0.0145251
753.840	0.0145491
753.918	0.0145084
753.996	0.0144901
754.075	0.0145242
754.153	0.0144389
754.231	0.0144582
754.309	0.0145779
754.387	0.0144751
754.465	0.0144527
754.543	0.0143959
754.621	0.0146266
754.700	0.0144958
754.778	0.0144941
754.856	0.0144942
754.934	0.0145278
755.012	0.0146355
755.090	0.0146564
755.168	0.0144772
755.246	0.0144882
755.325	0.0145022
755.403	0.0145602
755.481	0.0144012
755.559	0.0145708
755.637	0.0146660
755.715	0.0145881
755.793	0.0145506
755.871	0.0145766
755.950	0.0147126
756.028	0.0146342
756.106	0.0145773
756.184	0.0144610
756.262	0.0146753
756.340	0.0145683
756.418	0.0145312
756.496	0.0146606
756.575	0.0145904
756.653	0.0144534
756.731	0.0143556
756.809	0.0145761
756.887	0.0144780
756.965	0.0144893
757.043	0.0144553
757.121	0.0144321
757.200	0.0145727
757.278	0.0145271
757.356	0.0144624
757.434	0.0144788
757.512	0.0144317
757.590	0.0145034
757.668	0.0145036
757.746	0.0145631
757.825	0.0145051
757.903	0.0145811
757.981	0.0145497
758.059	0.0146116
758.137	0.0146212
758.215	0.0145694
758.293	0.0145403
758.371	0.0144943
758.450	0.0145847
758.528	0.0145403
758.606	0.0145307
758.684	0.0146868
758.762	0.0145545
758.840	0.0145824
758.918	0.0146912
758.996	0.0145733
759.075	0.0146380
759.153	0.0144978
759.231	0.0145899
759.309	0.0146627
759.387	0.0146191
759.465	0.0145656
759.543	0.0146196
759.621	0.0145904
759.700	0.0145189
759.778	0.0145393
759.856	0.0144565
759.934	0.0146849
760.012	0.0146008
760.090	0.0145326
760.168	0.0144290
760.246	0.0147040
760.325	0.0146200
760.403	0.0145827
760.481	0.0146841
760.559	0.0145793
760.637	0.0144531
760.715	0.0146101
760.793	0.0144813
760.871	0.0145615
760.950	0.0145366
761.028	0.0146136
761.106	0.0144874
761.184	0.0146168
761.262	0.0145219
761.340	0.0145078
761.418	0.0145181
761.496	0.0147702
761.575	0.0147564
761.653	0.0147120
761.731	0.0144965
761.809	0.0145697
761.887	0.0146718
761.965	0.0144264
762.043	0.0147211
762.121	0.0146925
762.200	0.0145424
762.278	0.0145844
762.356	0.0146124
762.434	0.0144894
762.512	0.0146098
762.590	0.0144994
762.668	0.0146267
762.746	0.0146764
762.825	0.0146400
762.903	0.0145441
762.981	0.0146327
763.059	0.0146312
763.137	0.0146246
763.215	0.0146086
763.293	0.0146120
763.371	0.0145632
763.450	0.0145110
763.528	0.0146609
763.606	0.0145700
763.684	0.0146940
763.762	0.0145313
763.840	0.0145842
763.918	0.0147560
763.996	0.0144998
764.075	0.0145213
764.153	0.0146149
764.231	0.0145401
764.309	0.0145332
764.387	0.0145202
764.465	0.0144105
764.543	0.0145370
764.621	0.0146643
764.700	0.0145396
764.778	0.0145895
764.856	0.0146317
764.934	0.0144475
765.012	0.0144768
765.090	0.0145493
765.168	0.0144547
765.246	0.0143999
765.325	0.0145288
765.403	0.0143759
765.481	0.0144689
765.559	0.0145212
765.637	0.0144573
765.715	0.0144698
765.793	0.0145120
765.871	0.0145884
765.950	0.0144916
766.028	0.0144426
766.106	0.0144039
766.184	0.0145671
766.262	0.0146468
766.340	0.0144424
766.418	0.0146413
766.496	0.0145979
766.575	0.0144515
766.653	0.0144534
766.731	0.0145605
766.809	0.0145512
766.887	0.0146005
766.965	0.0144740
767.043	0.0146217
767.121	0.0145055
767.200	0.0145654
767.278	0.0145079
767.356	0.0145496
767.434	0.0145832
767.512	0.0145815
767.590	0.0144756
767.668	0.0145972
767.746	0.0146188
767.825	0.0145889
767.903	0.0145796
767.981	0.0145726
768.059	0.0144582
768.137	0.0145772
768.215	0.0144418
768.293	0.0145788
768.371	0.0145865
768.450	0.0145307
768.528	0.0145170
768.606	0.0144904
768.684	0.0146702
768.762	0.0146270
768.840	0.0144336
768.918	0.0146200
768.996	0.0147041
769.075	0.0146532
769.153	0.0145397
769.231	0.0144732
769.309	0.0146145
769.387	0.0144953
769.465	0.0143357
769.543	0.0143967
769.621	0.0145299
769.700	0.0145535
769.778	0.0145783
769.856	0.0145490
769.934	0.0144001
770.012	0.0145411
770.090	0.0144770
770.168	0.0145558
770.246	0.0145945
770.325	0.0146021
770.403	0.0145645
770.481	0.0146143
770.559	0.0146701
770.637	0.0145119
770.715	0.0144505
770.793	0.0144983
770.871	0.0145778
770.950	0.0145457
771.028	0.0144477
771.106	0.0146571
771.184	0.0144793
771.262	0.0144892
771.340	0.0146797
771.418	0.0144225
771.496	0.0144221
771.575	0.0143984
771.653	0.0145100
771.731	0.0144877
771.809	0.0144241
771.887	0.0144652
771.965	0.0144069
772.043	0.0143418
772.121	0.0145695
772.200	0.0145557
772.278	0.0144133
772.356	0.0144607
772.434	0.0144445
772.512	0.0144279
772.590	0.0145929
772.668	0.0144561
772.746	0.0142773
772.825	0.0144999
772.903	0.0143912
772.981	0.0146169
773.059	0.0145619
773.137	0.0144880
773.215	0.0146233
773.293	0.0144389
773.371	0.0146043
773.450	0.0146589
773.528	0.0145039
773.606	0.0145163
773.684	0.0146201
773.762	0.0146384
773.840	0.0145020
773.918	0.0145237
773.996	0.0144815
774.075	0.0144876
774.153	0.0145238
774.231	0.0144910
774.309	0.0143748
774.387	0.0144540
774.465	0.0144588
774.543	0.0144432
774.621	0.0145681
774.700	0.0145284
774.778	0.0144251
774.856	0.0143414
774.934	0.0144565
775.012	0.0145699
775.090	0.0145004
775.168	0.0145296
775.246	0.0145045
775.325	0.0145950
775.403	0.0143865
775.481	0.0143307
775.559	0.0145523
775.637	0.0145167
775.715	0.0144884
775.793	0.0145998
775.871	0.0145377
775.950	0.0144404
776.028	0.0144142
776.106	0.0146443
776.184	0.0146558
776.262	0.0144131
776.340	0.0144488
776.418	0.0146107
776.496	0.0145523
776.575	0.0146821
776.653	0.0144482
776.731	0.0146074
776.809	0.0144980
776.887	0.0145157
776.965	0.0146574
777.043	0.0145876
777.121	0.0144365
777.200	0.0144324
777.278	0.0144397
777.356	0.0145312
777.434	0.0144627
777.512	0.0143864
777.590	0.0145712
777.668	0.0145325
777.746	0.0144779
777.825	0.0144576
777.903	0.0144695
777.981	0.0144987
778.059	0.0145143
778.137	0.0145016
778.215	0.0144149
778.293	0.0145516
778.371	0.0145834
778.450	0.0145346
778.528	0.0146253
778.606	0.0145889
778.684	0.0146413
778.762	0.0144835
778.840	0.0145120
778.918	0.0146517
778.996	0.0146133
779.075	0.0144478
779.153	0.0145024
779.231	0.0146091
779.309	0.0144958
779.387	0.0146102
779.465	0.0144689
779.543	0.0144730
779.621	0.0146145
779.700	0.0146775
779.778	0.0145885
779.856	0.0144941
779.934	0.0145981
780.012	0.0145997
780.090	0.0144234
780.168	0.0145367
780.246	0.0144566
780.325	0.0144682
780.403	0.0145113
780.481	0.0143656
780.559	0.0144212
780.637	0.0144821
780.715	0.0144189
780.793	0.0144607
780.871	0.0146395
780.950	0.0144643
781.028	0.0145348
781.106	0.0145724
781.184	0.0146575
781.262	0.0147346
781.340	0.0144236
781.418	0.0144103
781.496	0.0144722
781.575	0.0146306
781.653	0.0145135
781.731	0.0145062
781.809	0.0145804
781.887	0.0144614
781.965	0.0143420
782.043	0.0144486
782.121	0.0145068
782.200	0.0145757
782.278	0.0144479
782.356	0.0144148
782.434	0.0143868
782.512	0.0144424
782.590	0.0145628
782.668	0.0143864
782.746	0.0143834
782.825	0.0144704
782.903	0.0144956
782.981	0.0145600
783.059	0.0144235
783.137	0.0144973
783.215	0.0146111
783.293	0.0145610
783.371	0.0145802
783.450	0.0145881
783.528	0.0146153
783.606	0.0144904
783.684	0.0143917
783.762	0.0145033
783.840	0.0144807
783.918	0.0144941
783.996	0.0145379
784.075	0.0145151
784.153	0.0145106
784.231	0.0144201
784.309	0.0143869
784.387	0.0144968
784.465	0.0144150
784.543	0.0145895
784.621	0.0145306
784.700	0.0144369
784.778	0.0146093
784.856	0.0145039
784.934	0.0144805
785.012	0.0144949
785.090	0.0145565
785.168	0.0144701
785.246	0.0146022
785.325	0.0144727
785.403	0.0145033
785.481	0.0145569
785.559	0.0145853
785.637	0.0144081
785.715	0.0144639
785.793	0.0145423
785.871	0.0145050
785.950	0.0145286
786.028	0.0145070
786.106	0.0145853
786.184	0.0144685
786.262	0.0144657
786.340	0.0145127
786.418	0.0145501
786.496	0.0146004
786.575	0.0144638
786.653	0.0145679
786.731	0.0145981
786.809	0.0145943
786.887	0.0145391
786.965	0.0146043
787.043	0.0145538
787.121	0.0145923
787.200	0.0145179
787.278	0.0145799
787.356	0.0146294
787.434	0.0145854
787.512	0.0146065
787.590	0.0145885
787.668	0.0145303
787.746	0.0145118
787.825	0.0144498
787.903	0.0143817
787.981	0.0146976
788.059	0.0145853
788.137	0.0144871
788.215	0.0144650
788.293	0.0144375
788.371	0.0145373
788.450	0.0144551
788.528	0.0144586
788.606	0.0144381
788.684	0.0145640
788.762	0.0145439
788.840	0.0143930
788.918	0.0145096
788.996	0.0145602
789.075	0.0145168
789.153	0.0145705
789.231	0.0144826
789.309	0.0145215
789.387	0.0145670
789.465	0.0145255
789.543	0.0144172
789.621	0.0145723
789.700	0.0146123
789.778	0.0145035
789.856	0.0145915
789.934	0.0144665
790.012	0.0144585
790.090	0.0144847
790.168	0.0144234
790.246	0.0145077
790.325	0.0144919
790.403	0.0144521
790.481	0.0144833
790.559	0.0144861
790.637	0.0144759
790.715	0.0143389
790.793	0.0144449
790.871	0.0145586
790.950	0.0143580
791.028	0.0143211
791.106	0.0145203
791.184	0.0145477
791.262	0.0145892
791.340	0.0145251
791.418	0.0143790
791.496	0.0144936
791.575	0.0144248
791.653	0.0145344
791.731	0.0144827
791.809	0.0144839
791.887	0.0143461
791.965	0.0146215
792.043	0.0144646
792.121	0.0145393
792.200	0.0143417
792.278	0.0144278
792.356	0.0145805
792.434	0.0145571
792.512	0.0144450
792.590	0.0145123
792.668	0.0143713
792.746	0.0145330
792.825	0.0144371
792.903	0.0145456
792.981	0.0145538
793.059	0.0144588
793.137	0.0145162
793.215	0.0144623
793.293	0.0145776
793.371	0.0145595
793.450	0.0144335
793.528	0.0145230
793.606	0.0145363
793.684	0.0145748
793.762	0.0145712
793.840	0.0144760
793.918	0.0143858
793.996	0.0143954
794.075	0.0144801
794.153	0.0145211
794.231	0.0144640
794.309	0.0145665
794.387	0.0144702
794.465	0.0144937
794.543	0.0145302
794.621	0.0144343
794.700	0.0145261
794.778	0.0144827
794.856	0.0143686
794.934	0.0144476
795.012	0.0142961
795.090	0.0144752
795.168	0.0144753
795.246	0.0144216
795.325	0.0144503
795.403	0.0146211
795.481	0.0145594
795.559	0.0144397
795.637	0.0145035
795.715	0.0142761
795.793	0.0144425
795.871	0.0144604
795.950	0.0145235
796.028	0.0145650
796.106	0.0145428
796.184	0.0144498
796.262	0.0144859
796.340	0.0144598
796.418	0.0145902
796.496	0.0146187
796.575	0.0146212
796.653	0.0146275
796.731	0.0145834
796.809	0.0145580
796.887	0.0146645
796.965	0.0146386
797.043	0.0147108
797.121	0.0146608
797.200	0.0145914
797.278	0.0145633
797.356	0.0144376
797.434	0.0145033
797.512	0.0146331
797.590	0.0146188
797.668	0.0145519
797.746	0.0144598
797.825	0.0145653
797.903	0.0146741
797.981	0.0144857
798.059	0.0144003
798.137	0.0145280
798.215	0.0143903
798.293	0.0144267
798.371	0.0145433
798.450	0.0145418
798.528	0.0143652
798.606	0.0142314
798.684	0.0143906
798.762	0.0145315
798.840	0.0144749
798.918	0.0145836
798.996	0.0143565
799.075	0.0145537
799.153	0.0144786
799.231	0.0145050
799.309	0.0144326
799.387	0.0145151
799.465	0.0145575
799.543	0.0144737
799.621	0.0145724
799.700	0.0145454
799.778	0.0144749
799.856	0.0145579
799.934	0.0144233
800.012	0.0145983
800.090	0.0145228
800.168	0.0144016
800.246	0.0144016
800.325	0.0145438
800.403	0.0145540
800.481	0.0145837
800.559	0.0144429
800.637	0.0143092
800.715	0.0146396
800.793	0.0143859
800.871	0.0143761
800.950	0.0143665
801.028	0.0144855
801.106	0.0143637
801.184	0.0144891
801.262	0.0145151
801.340	0.0144513
801.418	0.0145015
801.496	0.0145331
801.575	0.0144593
801.653	0.0143772
801.731	0.0143929
801.809	0.0145863
801.887	0.0144979
801.965	0.0143427
802.043	0.0144138
802.121	0.0145874
802.200	0.0146411
802.278	0.0143684
802.356	0.0144177
802.434	0.0145087
802.512	0.0145608
802.590	0.0144791
802.668	0.0145970
802.746	0.0145017
802.825	0.0144971
802.903	0.0145531
802.981	0.0144707
803.059	0.0145957
803.137	0.0143569
803.215	0.0144470
803.293	0.0145417
803.371	0.0145041
803.450	0.0144636
803.528	0.0143824
803.606	0.0143573
803.684	0.0145177
803.762	0.0145197
803.840	0.0145213
803.918	0.0146136
803.996	0.0144500
804.075	0.0144223
804.153	0.0144482
804.231	0.0144894
804.309	0.0144439
804.387	0.0143815
804.465	0.0144728
804.543	0.0144491
804.621	0.0144024
804.700	0.0145162
804.778	0.0145164
804.856	0.0145314
804.934	0.0143997
805.012	0.0144590
805.090	0.0144637
805.168	0.0144297
805.246	0.0144709
805.325	0.0145728
805.403	0.0145542
805.481	0.0145681
805.559	0.0145849
805.637	0.0144869
805.715	0.0145808
805.793	0.0145611
805.871	0.0144588
805.950	0.0143703
806.028	0.0144239
806.106	0.0145349
806.184	0.0145303
806.262	0.0144521
806.340	0.0145381
806.418	0.0144391
806.496	0.0145158
806.575	0.0145089
806.653	0.0144466
806.731	0.0145603
806.809	0.0145992
806.887	0.0145093
806.965	0.0144389
807.043	0.0145558
807.121	0.0145504
807.200	0.0144210
807.278	0.0143288
807.356	0.0143260
807.434	0.0144311
807.512	0.0145956
807.590	0.0145641
807.668	0.0144799
807.746	0.0145117
807.825	0.0145427
807.903	0.0145641
807.981	0.0145168
808.059	0.0144318
808.137	0.0144668
808.215	0.0145771
808.293	0.0145618
808.371	0.0143568
808.450	0.0144135
808.528	0.0145442
808.606	0.0144086
808.684	0.0145193
808.762	0.0146545
808.840	0.0145271
808.918	0.0144382
808.996	0.0145689
809.075	0.0146473
809.153	0.0143685
809.231	0.0144501
809.309	0.0145116
809.387	0.0145012
809.465	0.0145826
809.543	0.0144698
809.621	0.0146448
809.700	0.0145600
809.778	0.0144502
809.856	0.0143733
809.934	0.0144544
810.012	0.0145331
810.090	0.0144980
810.168	0.0145383
810.246	0.0145298
810.325	0.0144978
810.403	0.0144971
810.481	0.0144358
810.559	0.0145048
810.637	0.0144559
810.715	0.0145006
810.793	0.0144474
810.871	0.0145074
810.950	0.0143843
811.028	0.0144242
811.106	0.0145242
811.184	0.0145544
811.262	0.0145538
811.340	0.0143718
811.418	0.0145172
811.496	0.0144389
811.575	0.0143034
811.653	0.0144723
811.731	0.0143565
811.809	0.0144426
811.887	0.0145412
811.965	0.0146049
812.043	0.0144001
812.121	0.0144329
812.200	0.0144643
812.278	0.0144394
812.356	0.0144434
812.434	0.0145047
812.512	0.0145198
812.590	0.0145615
812.668	0.0146650
812.746	0.0146363
812.825	0.0144574
812.903	0.0145747
812.981	0.0145369
813.059	0.0145193
813.137	0.0146126
813.215	0.0146085
813.293	0.0144826
813.371	0.0146284
813.450	0.0147305
813.528	0.0145535
813.606	0.0145481
813.684	0.0144932
813.762	0.0146014
813.840	0.0146858
813.918	0.0145184
813.996	0.0144653
814.075	0.0145560
814.153	0.0145538
814.231	0.0144414
814.309	0.0145437
814.387	0.0145412
814.465	0.0144920
814.543	0.0144637
814.621	0.0144503
814.700	0.0145489
814.778	0.0144760
814.856	0.0144494
814.934	0.0145415
815.012	0.0144840
815.090	0.0143724
815.168	0.0143438
815.246	0.0145445
815.325	0.0145459
815.403	0.0145255
815.481	0.0145238
815.559	0.0145842
815.637	0.0146745
815.715	0.0144992
815.793	0.0145425
815.871	0.0144977
815.950	0.0144624
816.028	0.0144117
816.106	0.0144380
816.184	0.0144468
816.262	0.0143999
816.340	0.0145667
816.418	0.0144945
816.496	0.0145715
816.575	0.0145288
816.653	0.0145190
816.731	0.0145209
816.809	0.0144762
816.887	0.0144102
816.965	0.0146050
817.043	0.0146698
817.121	0.0144691
817.200	0.0144843
817.278	0.0144732
817.356	0.0145832
817.434	0.0145453
817.512	0.0144708
817.590	0.0145756
817.668	0.0143440
817.746	0.0145895
817.825	0.0146535
817.903	0.0144263
817.981	0.0144409
818.059	0.0145450
818.137	0.0144049
818.215	0.0144176
818.293	0.0145024
818.371	0.0145467
818.450	0.0145000
818.528	0.0144295
818.606	0.0144849
818.684	0.0145887
818.762	0.0145170
818.840	0.0145152
818.918	0.0144234
818.996	0.0145776
819.075	0.0145481
819.153	0.0145628
819.231	0.0146079
819.309	0.0146003
819.387	0.0144924
819.465	0.0144617
819.543	0.0144643
819.621	0.0145209
819.700	0.0146635
819.778	0.0144987
819.856	0.0145107
819.934	0.0145565
820.012	0.0144940
820.090	0.0145833
820.168	0.0145073
820.246	0.0144632
820.325	0.0145075
820.403	0.0144859
820.481	0.0144101
820.559	0.0144552
820.637	0.0144254
820.715	0.0144803
820.793	0.0145597
820.871	0.0145922
820.950	0.0145338
821.028	0.0143492
821.106	0.0145663
821.184	0.0144177
821.262	0.0144117
821.340	0.0144721
821.418	0.0143900
821.496	0.0143537
821.575	0.0145039
821.653	0.0145009
821.731	0.0144315
821.809	0.0143581
821.887	0.0144702
821.965	0.0144395
822.043	0.0144048
822.121	0.0145654
822.200	0.0143845
822.278	0.0145397
822.356	0.0145536
822.434	0.0145567
822.512	0.0144943
822.590	0.0145342
822.668	0.0145071
822.746	0.0144989
822.825	0.0144655
822.903	0.0145567
822.981	0.0145981
823.059	0.0145225
823.137	0.0145708
823.215	0.0145889
823.293	0.0144982
823.371	0.0144794
823.450	0.0144548
823.528	0.0144806
823.606	0.0145901
823.684	0.0145423
823.762	0.0146335
823.840	0.0145907
823.918	0.0144327
823.996	0.0145061
824.075	0.0145293
824.153	0.0145226
824.231	0.0145542
824.309	0.0146165
824.387	0.0145332
824.465	0.0146367
824.543	0.0143847
824.621	0.0144482
824.700	0.0145153
824.778	0.0146561
824.856	0.0144328
824.934	0.0144000
825.012	0.0145377
825.090	0.0146158
825.168	0.0144440
825.246	0.0145482
825.325	0.0144998
825.403	0.0144614
825.481	0.0143691
825.559	0.0143892
825.637	0.0144677
825.715	0.0144602
825.793	0.0145032
825.871	0.0144025
825.950	0.0143833
826.028	0.0144500
826.106	0.0144844
826.184	0.0144985
826.262	0.0144630
826.340	0.0145528
826.418	0.0145467
826.496	0.0144704
826.575	0.0145796
826.653	0.0145798
826.731	0.0144984
826.809	0.0144781
826.887	0.0145550
826.965	0.0147042
827.043	0.0144693
827.121	0.0145073
827.200	0.0144500
827.278	0.0145139
827.356	0.0144720
827.434	0.0144781
827.512	0.0143349
827.590	0.0143848
827.668	0.0143939
827.746	0.0144508
827.825	0.0143816
827.903	0.0145985
827.981	0.0145249
828.059	0.0144562
828.137	0.0145624
828.215	0.0145213
828.293	0.0145167
828.371	0.0145747
828.450	0.0143308
828.528	0.0145171
828.606	0.0145541
828.684	0.0143855
828.762	0.0144683
828.840	0.0144188
828.918	0.0145169
828.996	0.0144696
829.075	0.0145464
829.153	0.0144943
829.231	0.0143838
829.309	0.0144780
829.387	0.0144688
829.465	0.0144667
829.543	0.0144521
829.621	0.0144736
829.700	0.0144796
829.778	0.0145428
829.856	0.0144878
829.934	0.0143858
830.012	0.0143608
830.090	0.0144156
830.168	0.0144759
830.246	0.0144939
830.325	0.0143832
830.403	0.0145988
830.481	0.0144462
830.559	0.0144817
830.637	0.0146050
830.715	0.0144907
830.793	0.0146200
830.871	0.0146709
830.950	0.0144727
831.028	0.0145998
831.106	0.0146304
831.184	0.0146428
831.262	0.0145019
831.340	0.0145843
831.418	0.0145509
831.496	0.0146600
831.575	0.0146115
831.653	0.0145294
831.731	0.0145031
831.809	0.0145951
831.887	0.0145580
831.965	0.0146583
832.043	0.0145688
832.121	0.0144300
832.200	0.0144350
832.278	0.0144961
832.356	0.0146355
832.434	0.0144475
832.512	0.0143682
832.590	0.0146581
832.668	0.0144817
832.746	0.0144674
832.825	0.0145280
832.903	0.0144965
832.981	0.0144874
833.059	0.0145132
833.137	0.0144639
833.215	0.0145023
833.293	0.0146240
833.371	0.0144173
833.450	0.0145650
833.528	0.0144942
833.606	0.0144622
833.684	0.0145169
833.762	0.0145560
833.840	0.0145155
833.918	0.0144189
833.996	0.0147019
834.075	0.0145219
834.153	0.0145393
834.231	0.0145777
834.309	0.0145538
834.387	0.0145029
834.465	0.0144689
834.543	0.0144302
834.621	0.0146014
834.700	0.0144689
834.778	0.0145039
834.856	0.0144833
834.934	0.0145354
835.012	0.0146064
835.090	0.0144788
835.168	0.0144906
835.246	0.0146223
835.325	0.0145502
835.403	0.0145277
835.481	0.0146071
835.559	0.0146177
835.637	0.0145210
835.715	0.0145170
835.793	0.0145562
835.871	0.0146669
835.950	0.0145370
836.028	0.0144304
836.106	0.0146375
836.184	0.0145409
836.262	0.0145115
836.340	0.0145020
836.418	0.0145049
836.496	0.0146345
836.575	0.0145092
836.653	0.0144775
836.731	0.0144721
836.809	0.0145315
836.887	0.0144668
836.965	0.0144317
837.043	0.0145221
837.121	0.0144816
837.200	0.0145258
837.278	0.0145736
837.356	0.0145178
837.434	0.0146065
837.512	0.0143484
837.590	0.0143235
837.668	0.0145707
837.746	0.0145082
837.825	0.0145034
837.903	0.0146140
837.981	0.0144386
838.059	0.0144623
838.137	0.0145643
838.215	0.0145012
838.293	0.0145494
838.371	0.0146160
838.450	0.0146209
838.528	0.0145896
838.606	0.0145448
838.684	0.0146314
838.762	0.0147025
838.840	0.0146220
838.918	0.0145675
838.996	0.0146793
839.075	0.0145649
839.153	0.0145327
839.231	0.0146401
839.309	0.0145673
839.387	0.0146633
839.465	0.0146265
839.543	0.0145733
839.621	0.0145602
839.700	0.0144783
839.778	0.0144828
839.856	0.0145612
839.934	0.0146360
840.012	0.0145506
840.090	0.0145169
840.168	0.0145760
840.246	0.0145359
840.325	0.0144135
840.403	0.0145830
840.481	0.0145232
840.559	0.0145226
840.637	0.0145017
840.715	0.0145309
840.793	0.0144022
840.871	0.0145010
840.950	0.0145425
841.028	0.0144439
841.106	0.0145123
841.184	0.0144166
841.262	0.0145074
841.340	0.0145982
841.418	0.0145084
841.496	0.0145563
841.575	0.0146510
841.653	0.0144992
841.731	0.0144629
841.809	0.0145974
841.887	0.0147624
841.965	0.0146549
842.043	0.0146334
842.121	0.0146568
842.200	0.0145451
842.278	0.0145143
842.356	0.0146524
842.434	0.0145712
842.512	0.0145791
842.590	0.0146340
842.668	0.0145178
842.746	0.0145567
842.825	0.0145176
842.903	0.0145838
842.981	0.0145277
843.059	0.0145978
843.137	0.0145654
843.215	0.0145707
843.293	0.0145564
843.371	0.0144936
843.450	0.0145189
843.528	0.0144637
843.606	0.0146095
843.684	0.0147509
843.762	0.0145358
843.840	0.0144493
843.918	0.0145550
843.996	0.0145494
844.075	0.0145846
844.153	0.0144443
844.231	0.0145770
844.309	0.0145039
844.387	0.0146933
844.465	0.0146127
844.543	0.0145729
844.621	0.0144843
844.700	0.0146545
844.778	0.0146381
844.856	0.0145796
844.934	0.0146955
845.012	0.0146439
845.090	0.0145210
845.168	0.0146681
845.246	0.0144619
845.325	0.0146136
845.403	0.0146329
845.481	0.0144750
845.559	0.0146131
845.637	0.0145686
845.715	0.0146516
845.793	0.0145045
845.871	0.0145677
845.950	0.0146794
846.028	0.0145178
846.106	0.0143927
846.184	0.0145959
846.262	0.0143964
846.340	0.0144963
846.418	0.0144356
846.496	0.0144579
846.575	0.0145272
846.653	0.0145299
846.731	0.0144167
846.809	0.0145872
846.887	0.0146410
846.965	0.0145467
847.043	0.0145257
847.121	0.0144628
847.200	0.0145188
847.278	0.0143739
847.356	0.0145284
847.434	0.0145250
847.512	0.0145330
847.590	0.0146149
847.668	0.0145547
847.746	0.0145369
847.825	0.0145022
847.903	0.0146024
847.981	0.0145997
848.059	0.0145255
848.137	0.0144615
848.215	0.0144064
848.293	0.0145382
848.371	0.0145809
848.450	0.0145802
848.528	0.0145165
848.606	0.0145406
848.684	0.0143952
848.762	0.0144911
848.840	0.0145234
848.918	0.0145001
848.996	0.0144423
849.075	0.0146375
849.153	0.0145454
849.231	0.0146449
849.309	0.0145780
849.387	0.0144792
849.465	0.0145982
849.543	0.0146515
849.621	0.0145418
849.700	0.0144699
849.778	0.0145094
849.856	0.0146067
849.934	0.0146751
850.012	0.0145198
850.090	0.0144808
850.168	0.0144736
850.246	0.0145618
850.325	0.0144643
850.403	0.0145750
850.481	0.0145243
850.559	0.0145612
850.637	0.0145177
850.715	0.0145409
850.793	0.0146605
850.871	0.0144736
850.950	0.0144756
851.028	0.0145863
851.106	0.0145201
851.184	0.0145455
851.262	0.0145210
851.340	0.0144682
851.418	0.0145963
851.496	0.0146655
851.575	0.0144509
851.653	0.0146075
851.731	0.0145232
851.809	0.0145193
851.887	0.0144492
851.965	0.0146147
852.043	0.0145623
852.121	0.0146104
852.200	0.0144448
852.278	0.0146115
852.356	0.0144122
852.434	0.0145522
852.512	0.0145778
852.590	0.0144910
852.668	0.0146391
852.746	0.0144987
852.825	0.0144133
852.903	0.0144898
852.981	0.0146333
853.059	0.0145648
853.137	0.0144722
853.215	0.0145934
853.293	0.0146365
853.371	0.0145360
853.450	0.0145595
853.528	0.0145045
853.606	0.0145786
853.684	0.0145864
853.762	0.0146083
853.840	0.0145155
853.918	0.0144251
853.996	0.0145823
854.075	0.0145792
854.153	0.0144410
854.231	0.0144127
854.309	0.0146687
854.387	0.0146763
854.465	0.0145561
854.543	0.0144849
854.621	0.0145823
854.700	0.0145155
854.778	0.0145902
854.856	0.0145940
854.934	0.0145313
855.012	0.0144530
855.090	0.0147057
855.168	0.0145509
855.246	0.0144634
855.325	0.0143961
855.403	0.0144000
855.481	0.0146228
855.559	0.0144498
855.637	0.0145012
855.715	0.0144957
855.793	0.0145116
855.871	0.0145119
855.950	0.0145403
856.028	0.0144510
856.106	0.0145270
856.184	0.0144713
856.262	0.0146686
856.340	0.0145355
856.418	0.0145712
856.496	0.0146458
856.575	0.0144814
856.653	0.0144819
856.731	0.0146140
856.809	0.0145377
856.887	0.0145803
856.965	0.0145278
857.043	0.0145338
857.121	0.0146203
857.200	0.0144449
857.278	0.0144795
857.356	0.0145956
857.434	0.0146218
857.512	0.0145908
857.590	0.0145573
857.668	0.0144997
857.746	0.0145914
857.825	0.0144087
857.903	0.0145047
857.981	0.0144580
858.059	0.0145226
858.137	0.0144731
858.215	0.0144012
858.293	0.0144685
858.371	0.0145807
858.450	0.0145591
858.528	0.0145154
858.606	0.0145713
858.684	0.0145108
858.762	0.0145323
858.840	0.0145214
858.918	0.0144772
858.996	0.0146372
859.075	0.0144466
859.153	0.0143777
859.231	0.0144960
859.309	0.0144869
859.387	0.0145409
859.465	0.0144818
859.543	0.0145524
859.621	0.0144241
859.700	0.0143386
859.778	0.0144563
859.856	0.0145150
859.934	0.0145171
860.012	0.0144898
860.090	0.0144308
860.168	0.0145416
860.246	0.0145277
860.325	0.0144554
860.403	0.0144104
860.481	0.0144392
860.559	0.0145148
860.637	0.0143607
860.715	0.0144781
860.793	0.0146461
860.871	0.0144439
860.950	0.0144774
861.028	0.0145135
861.106	0.0144730
861.184	0.0144189
861.262	0.0144263
861.340	0.0146349
861.418	0.0145187
861.496	0.0144645
861.575	0.0144698
861.653	0.0145205
861.731	0.0146107
861.809	0.0144749
861.887	0.0143968
861.965	0.0144036
862.043	0.0143682
862.121	0.0145660
862.200	0.0143245
862.278	0.0145045
862.356	0.0144228
862.434	0.0144267
862.512	0.0144775
862.590	0.0143622
862.668	0.0143388
862.746	0.0144929
862.825	0.0145242
862.903	0.0145995
862.981	0.0144712
863.059	0.0145509
863.137	0.0146545
863.215	0.0144549
863.293	0.0144752
863.371	0.0144463
863.450	0.0145766
863.528	0.0145311
863.606	0.0145277
863.684	0.0145827
863.762	0.0144718
863.840	0.0145747
863.918	0.0143645
863.996	0.0144633
864.075	0.0145785
864.153	0.0146086
864.231	0.0144479
864.309	0.0143755
864.387	0.0144257
864.465	0.0144785
864.543	0.0144679
864.621	0.0144203
864.700	0.0145881
864.778	0.0145100
864.856	0.0144677
864.934	0.0143890
865.012	0.0145680
865.090	0.0146381
865.168	0.0145833
865.246	0.0144360
865.325	0.0144676
865.403	0.0145885
865.481	0.0146239
865.559	0.0145878
865.637	0.0145239
865.715	0.0145821
865.793	0.0146030
865.871	0.0146140
865.950	0.0145833
866.028	0.0144985
866.106	0.0146223
866.184	0.0144277
866.262	0.0145095
866.340	0.0145160
866.418	0.0146222
866.496	0.0144765
866.575	0.0144544
866.653	0.0145422
866.731	0.0145928
866.809	0.0144010
866.887	0.0143629
866.965	0.0144712
867.043	0.0145782
867.121	0.0144717
867.200	0.0144997
867.278	0.0144253
867.356	0.0145936
867.434	0.0145720
867.512	0.0144834
867.590	0.0146290
867.668	0.0144592
867.746	0.0144419
867.825	0.0145006
867.903	0.0145306
867.981	0.0146091
868.059	0.0146542
868.137	0.0145448
868.215	0.0145522
868.293	0.0145082
868.371	0.0145630
868.450	0.0145119
868.528	0.0146079
868.606	0.0145367
868.684	0.0144283
868.762	0.0145020
868.840	0.0146001
868.918	0.0144154
868.996	0.0145388
869.075	0.0145051
869.153	0.0144910
869.231	0.0145287
869.309	0.0145526
869.387	0.0145372
869.465	0.0145361
869.543	0.0144579
869.621	0.0145338
869.700	0.0145110
869.778	0.0144785
869.856	0.0144887
869.934	0.0144283
870.012	0.0145097
870.090	0.0145621
870.168	0.0145351
870.246	0.0146035
870.325	0.0146311
870.403	0.0146352
870.481	0.0145758
870.559	0.0145277
870.637	0.0144352
870.715	0.0145617
870.793	0.0145609
870.871	0.0145900
870.950	0.0144273
871.028	0.0145055
871.106	0.0146114
871.184	0.0146195
871.262	0.0145491
871.340	0.0145412
871.418	0.0144788
871.496	0.0144335
871.575	0.0144233
871.653	0.0145820
871.731	0.0145844
871.809	0.0146411
871.887	0.0145363
871.965	0.0145293
872.043	0.0145564
872.121	0.0145216
872.200	0.0145356
872.278	0.0145364
872.356	0.0145846
872.434	0.0147313
872.512	0.0144604
872.590	0.0146272
872.668	0.0146624
872.746	0.0145673
872.825	0.0145137
872.903	0.0145509
872.981	0.0146255
873.059	0.0145108
873.137	0.0145494
873.215	0.0144989
873.293	0.0144765
873.371	0.0145417
873.450	0.0145948
873.528	0.0146036
873.606	0.0144851
873.684	0.0145157
873.762	0.0145122
873.840	0.0146459
873.918	0.0146120
873.996	0.0146107
874.075	0.0144992
874.153	0.0145172
874.231	0.0144945
874.309	0.0146564
874.387	0.0145490
874.465	0.0144984
874.543	0.0145808
874.621	0.0145293
874.700	0.0145250
874.778	0.0145856
874.856	0.0145129
874.934	0.0144276
875.012	0.0144460
875.090	0.0145199
875.168	0.0146158
875.246	0.0144978
875.325	0.0145152
875.403	0.0145605
875.481	0.0144470
875.559	0.0145520
875.637	0.0145571
875.715	0.0144425
875.793	0.0145327
875.871	0.0145669
875.950	0.0144273
876.028	0.0144582
876.106	0.0145286
876.184	0.0143549
876.262	0.0144525
876.340	0.0144881
876.418	0.0145143
876.496	0.0145378
876.575	0.0144510
876.653	0.0144558
876.731	0.0145288
876.809	0.0145309
876.887	0.0144976
876.965	0.0145436
877.043	0.0144524
877.121	0.0145192
877.200	0.0145489
877.278	0.0143806
877.356	0.0145610
877.434	0.0145272
877.512	0.0144314
877.590	0.0145586
877.668	0.0144351
877.746	0.0144051
877.825	0.0144646
877.903	0.0146142
877.981	0.0146109
878.059	0.0144427
878.137	0.0144601
878.215	0.0145079
878.293	0.0144897
878.371	0.0143697
878.450	0.0144563
878.528	0.0145201
878.606	0.0144868
878.684	0.0145417
878.762	0.0146079
878.840	0.0145187
878.918	0.0144851
878.996	0.0143285
879.075	0.0145142
879.153	0.0145586
879.231	0.0144144
879.309	0.0144442
879.387	0.0145743
879.465	0.0145883
879.543	0.0143951
879.621	0.0145869
879.700	0.0145412
879.778	0.0144196
879.856	0.0144064
879.934	0.0143904
880.012	0.0144898
880.090	0.0145524
880.168	0.0144830
880.246	0.0145306
880.325	0.0145699
880.403	0.0144086
880.481	0.0145402
880.559	0.0143272
880.637	0.0143488
880.715	0.0143790
880.793	0.0144825
880.871	0.0145393
880.950	0.0145795
881.028	0.0144775
881.106	0.0145139
881.184	0.0146112
881.262	0.0145515
881.340	0.0144378
881.418	0.0145348
881.496	0.0144023
881.575	0.0144557
881.653	0.0145682
881.731	0.0144890
881.809	0.0145284
881.887	0.0144549
881.965	0.0145213
882.043	0.0144379
882.121	0.0145303
882.200	0.0146626
882.278	0.0145278
882.356	0.0145065
882.434	0.0144861
882.512	0.0143402
882.590	0.0143736
882.668	0.0144872
882.746	0.0145795
882.825	0.0143606
882.903	0.0145002
882.981	0.0144360
883.059	0.0144746
883.137	0.0145015
883.215	0.0144895
883.293	0.0143758
883.371	0.0143729
883.450	0.0144640
883.528	0.0143663
883.606	0.0145595
883.684	0.0145230
883.762	0.0143932
883.840	0.0144433
883.918	0.0145409
883.996	0.0143784
884.075	0.0144175
884.153	0.0145193
884.231	0.0143790
884.309	0.0142731
884.387	0.0143365
884.465	0.0145091
884.543	0.0145626
884.621	0.0144891
884.700	0.0144482
884.778	0.0145755
884.856	0.0144392
884.934	0.0146175
885.012	0.0144684
885.090	0.0145484
885.168	0.0146227
885.246	0.0145519
885.325	0.0144928
885.403	0.0146356
885.481	0.0145405
885.559	0.0144820
885.637	0.0146160
885.715	0.0146396
885.793	0.0146564
885.871	0.0146944
885.950	0.0145354
886.028	0.0144608
886.106	0.0146417
886.184	0.0145513
886.262	0.0143600
886.340	0.0145075
886.418	0.0146235
886.496	0.0146040
886.575	0.0145321
886.653	0.0146238
886.731	0.0145028
886.809	0.0144744
886.887	0.0145161
886.965	0.0145327
887.043	0.0145210
887.121	0.0144183
887.200	0.0144832
887.278	0.0146596
887.356	0.0143931
887.434	0.0144550
887.512	0.0144176
887.590	0.0145075
887.668	0.0145982
887.746	0.0144777
887.825	0.0145876
887.903	0.0145081
887.981	0.0144930
888.059	0.0145784
888.137	0.0146446
888.215	0.0145358
888.293	0.0146889
888.371	0.0146499
888.450	0.0145052
888.528	0.0146159
888.606	0.0146874
888.684	0.0145187
888.762	0.0145241
888.840	0.0146442
888.918	0.0146201
888.996	0.0146077
889.075	0.0144895
889.153	0.0145661
889.231	0.0145198
889.309	0.0145158
889.387	0.0146101
889.465	0.0146703
889.543	0.0146545
889.621	0.0145398
889.700	0.0145101
889.778	0.0146014
889.856	0.0145243
889.934	0.0144624
890.012	0.0144361
890.090	0.0145174
890.168	0.0145496
890.246	0.0145036
890.325	0.0144965
890.403	0.0145130
890.481	0.0145288
890.559	0.0144246
890.637	0.0144653
890.715	0.0144553
890.793	0.0144355
890.871	0.0144595
890.950	0.0145634
891.028	0.0144859
891.106	0.0144828
891.184	0.0144936
891.262	0.0146355
891.340	0.0147401
891.418	0.0146142
891.496	0.0144979
891.575	0.0144748
891.653	0.0145023
891.731	0.0146228
891.809	0.0144579
891.887	0.0143658
891.965	0.0144014
892.043	0.0144669
892.121	0.0145551
892.200	0.0143464
892.278	0.0143771
892.356	0.0145274
892.434	0.0144474
892.512	0.0144387
892.590	0.0144953
892.668	0.0145375
892.746	0.0145609
892.825	0.0144093
892.903	0.0145081
892.981	0.0145544
893.059	0.0145515
893.137	0.0145966
893.215	0.0144814
893.293	0.0144318
893.371	0.0145537
893.450	0.0145879
893.528	0.0144538
893.606	0.0145586
893.684	0.0143130
893.762	0.0145564
893.840	0.0143545
893.918	0.0144129
893.996	0.0147377
894.075	0.0144888
894.153	0.0143974
894.231	0.0145205
894.309	0.0144788
894.387	0.0145243
894.465	0.0145840
894.543	0.0144596
894.621	0.0143398
894.700	0.0144278
894.778	0.0143744
894.856	0.0145312
894.934	0.0145093
895.012	0.0144691
895.090	0.0143593
895.168	0.0143964
895.246	0.0144392
895.325	0.0144567
895.403	0.0143718
895.481	0.0145435
895.559	0.0144872
895.637	0.0146768
895.715	0.0145162
895.793	0.0145839
895.871	0.0144807
895.950	0.0145931
896.028	0.0145171
896.106	0.0144656
896.184	0.0144469
896.262	0.0144678
896.340	0.0145451
896.418	0.0144433
896.496	0.0145113
896.575	0.0144137
896.653	0.0145348
896.731	0.0144408
896.809	0.0144617
896.887	0.0144489
896.965	0.0144201
897.043	0.0144722
897.121	0.0145271
897.200	0.0145648
897.278	0.0146381
897.356	0.0145812
897.434	0.0145648
897.512	0.0145504
897.590	0.0145412
897.668	0.0144953
897.746	0.0144818
897.825	0.0145390
897.903	0.0145446
897.981	0.0145461
898.059	0.0143452
898.137	0.0144837
898.215	0.0145663
898.293	0.0146924
898.371	0.0146368
898.450	0.0145364
898.528	0.0144775
898.606	0.0147220
898.684	0.0146269
898.762	0.0146304
898.840	0.0145433
898.918	0.0145158
898.996	0.0145863
899.075	0.0145700
899.153	0.0144964
899.231	0.0146201
899.309	0.0146329
899.387	0.0145581
899.465	0.0144646
899.543	0.0144149
899.621	0.0144409
899.700	0.0144511
899.778	0.0145029
899.856	0.0144257
899.934	0.0143826
900.012	0.0144044
900.090	0.0144250
900.168	0.0146188
900.246	0.0145229
900.325	0.0146576
900.403	0.0146239
900.481	0.0145249
900.559	0.0144784
900.637	0.0145464
900.715	0.0145509
900.793	0.0145217
900.871	0.0144440
900.950	0.0145783
901.028	0.0145042
901.106	0.0146101
901.184	0.0146267
901.262	0.0145325
901.340	0.0144657
901.418	0.0146216
901.496	0.0145511
901.575	0.0145081
901.653	0.0145962
901.731	0.0145731
901.809	0.0145557
901.887	0.0144233
901.965	0.0145005
902.043	0.0146095
902.121	0.0147039
902.200	0.0145168
902.278	0.0145397
902.356	0.0146683
902.434	0.0146318
902.512	0.0145190
902.590	0.0145718
902.668	0.0145685
902.746	0.0145030
902.825	0.0146323
902.903	0.0146442
902.981	0.0147148
903.059	0.0144040
903.137	0.0145547
903.215	0.0145567
903.293	0.0146152
903.371	0.0145352
903.450	0.0144382
903.528	0.0144687
903.606	0.0145557
903.684	0.0146043
903.762	0.0144947
903.840	0.0144164
903.918	0.0144884
903.996	0.0144943
904.075	0.0143770
904.153	0.0145160
904.231	0.0144610
904.309	0.0145393
904.387	0.0144862
904.465	0.0143721
904.543	0.0144678
904.621	0.0146284
904.700	0.0144389
904.778	0.0143266
904.856	0.0144672
904.934	0.0145046
905.012	0.0144919
905.090	0.0145957
905.168	0.0144610
905.246	0.0144201
905.325	0.0145050
905.403	0.0144659
905.481	0.0146169
905.559	0.0145832
905.637	0.0145586
905.715	0.0146098
905.793	0.0145878
905.871	0.0142694
905.950	0.0143913
906.028	0.0145490
906.106	0.0143793
906.184	0.0145789
906.262	0.0145183
906.340	0.0144278
906.418	0.0142838
906.496	0.0145446
906.575	0.0145650
906.653	0.0144975
906.731	0.0144532
906.809	0.0144765
906.887	0.0144738
906.965	0.0145106
907.043	0.0145332
907.121	0.0145009
907.200	0.0144019
907.278	0.0143800
907.356	0.0145493
907.434	0.0145197
907.512	0.0144324
907.590	0.0143686
907.668	0.0144904
907.746	0.0145552
907.825	0.0143761
907.903	0.0144781
907.981	0.0144504
908.059	0.0145341
908.137	0.0145128
908.215	0.0144586
908.293	0.0144561
908.371	0.0144052
908.450	0.0143508
908.528	0.0144241
908.606	0.0143761
908.684	0.0145464
908.762	0.0143717
908.840	0.0143961
908.918	0.0145067
908.996	0.0143813
909.075	0.0144663
909.153	0.0143992
909.231	0.0144633
909.309	0.0144303
909.387	0.0143476
909.465	0.0144987
909.543	0.0143992
909.621	0.0144180
909.700	0.0144331
909.778	0.0144132
909.856	0.0144860
909.934	0.0144604
910.012	0.0145561
910.090	0.0145173
910.168	0.0145259
910.246	0.0144420
910.325	0.0144419
910.403	0.0144912
910.481	0.0146632
910.559	0.0144753
910.637	0.0144637
910.715	0.0143076
910.793	0.0144419
910.871	0.0145216
910.950	0.0145530
911.028	0.0146254
911.106	0.0144786
911.184	0.0144996
911.262	0.0144228
911.340	0.0146379
911.418	0.0143108
911.496	0.0145243
911.575	0.0145280
911.653	0.0145279
911.731	0.0143987
911.809	0.0143242
911.887	0.0145094
911.965	0.0145218
912.043	0.0145490
912.121	0.0144872
912.200	0.0144083
912.278	0.0145541
912.356	0.0145478
912.434	0.0145901
912.512	0.0145162
912.590	0.0145345
912.668	0.0145235
912.746	0.0144836
912.825	0.0145748
912.903	0.0145480
912.981	0.0144959
913.059	0.0144468
913.137	0.0145869
913.215	0.0144955
913.293	0.0143892
913.371	0.0145688
913.450	0.0145360
913.528	0.0145647
913.606	0.0145599
913.684	0.0145702
913.762	0.0144806
913.840	0.0145357
913.918	0.0145266
913.996	0.0146275
914.075	0.0144235
914.153	0.0144917
914.231	0.0144849
914.309	0.0145259
914.387	0.0145421
914.465	0.0145560
914.543	0.0145286
914.621	0.0144707
914.700	0.0145788
914.778	0.0145858
914.856	0.0145512
914.934	0.0145061
915.012	0.0145203
915.090	0.0144689
915.168	0.0144770
915.246	0.0146791
915.325	0.0146176
915.403	0.0146223
915.481	0.0145341
915.559	0.0145113
915.637	0.0147227
915.715	0.0145100
915.793	0.0144669
915.871	0.0145605
915.950	0.0144077
916.028	0.0145161
916.106	0.0146766
916.184	0.0144537
916.262	0.0145704
916.340	0.0145819
916.418	0.0145628
916.496	0.0145576
916.575	0.0144199
916.653	0.0144322
916.731	0.0145490
916.809	0.0145378
916.887	0.0146703
916.965	0.0146684
917.043	0.0146831
917.121	0.0145489
917.200	0.0146193
917.278	0.0145457
917.356	0.0144087
917.434	0.0144754
917.512	0.0145122
917.590	0.0145530
917.668	0.0145113
917.746	0.0145485
917.825	0.0144229
917.903	0.0144984
917.981	0.0145673
918.059	0.0144868
918.137	0.0145349
918.215	0.0146025
918.293	0.0145876
918.371	0.0143303
918.450	0.0144866
918.528	0.0145548
918.606	0.0145411
918.684	0.0145101
918.762	0.0144845
918.840	0.0145331
918.918	0.0144654
918.996	0.0146169
919.075	0.0145316
919.153	0.0145423
919.231	0.0144521
919.309	0.0145893
919.387	0.0144652
919.465	0.0145204
919.543	0.0146079
919.621	0.0146009
919.700	0.0144634
919.778	0.0145018
919.856	0.0145044
919.934	0.0145214
920.012	0.0145809
920.090	0.0145914
920.168	0.0145434
920.246	0.0146601
920.325	0.0144082
920.403	0.0144614
920.481	0.0144586
920.559	0.0145969
920.637	0.0145431
920.715	0.0147071
920.793	0.0145581
920.871	0.0145076
920.950	0.0145811
921.028	0.0146329
921.106	0.0146413
921.184	0.0144475
921.262	0.0145567
921.340	0.0146324
921.418	0.0145734
921.496	0.0144709
921.575	0.0146411
921.653	0.0146201
921.731	0.0144381
921.809	0.0144691
921.887	0.0146834
921.965	0.0145398
922.043	0.0146353
922.121	0.0143927
922.200	0.0144733
922.278	0.0144501
922.356	0.0146605
922.434	0.0145844
922.512	0.0145575
922.590	0.0143963
922.668	0.0144296
922.746	0.0145262
922.825	0.0145024
922.903	0.0144307
922.981	0.0144408
923.059	0.0144744
923.137	0.0144881
923.215	0.0143533
923.293	0.0144547
923.371	0.0145682
923.450	0.0143749
923.528	0.0144904
923.606	0.0145334
923.684	0.0143830
923.762	0.0144003
923.840	0.0144842
923.918	0.0146966
923.996	0.0145550
924.075	0.0145390
924.153	0.0145125
924.231	0.0145650
924.309	0.0145770
924.387	0.0146305
924.465	0.0145415
924.543	0.0145191
924.621	0.0146510
924.700	0.0145337
924.778	0.0145173
924.856	0.0144525
924.934	0.0144659
925.012	0.0145886
925.090	0.0144540
925.168	0.0144675
925.246	0.0143960
925.325	0.0144148
925.403	0.0144210
925.481	0.0145109
925.559	0.0145743
925.637	0.0144013
925.715	0.0143972
925.793	0.0144451
925.871	0.0145215
925.950	0.0145280
926.028	0.0145521
926.106	0.0143742
926.184	0.0144036
926.262	0.0144566
926.340	0.0145229
926.418	0.0144038
926.496	0.0145618
926.575	0.0145688
926.653	0.0143578
926.731	0.0143822
926.809	0.0144743
926.887	0.0144235
926.965	0.0145077
927.043	0.0145590
927.121	0.0145012
927.200	0.0144518
927.278	0.0145354
927.356	0.0145098
927.434	0.0144262
927.512	0.0145474
927.590	0.0145450
927.668	0.0146770
927.746	0.0147083
927.825	0.0143957
927.903	0.0143940
927.981	0.0145978
928.059	0.0145377
928.137	0.0145768
928.215	0.0146000
928.293	0.0145403
928.371	0.0145714
928.450	0.0145574
928.528	0.0144779
928.606	0.0146463
928.684	0.0144788
928.762	0.0144511
928.840	0.0145560
928.918	0.0146393
928.996	0.0145209
929.075	0.0145061
929.153	0.0144130
929.231	0.0145801
929.309	0.0145662
929.387	0.0145651
929.465	0.0146259
929.543	0.0145303
929.621	0.0145632
929.700	0.0146065
929.778	0.0146183
929.856	0.0146051
929.934	0.0147102
930.012	0.0143797
930.090	0.0144019
930.168	0.0144886
930.246	0.0146236
930.325	0.0145374
930.403	0.0145329
930.481	0.0146223
930.559	0.0144511
930.637	0.0144637
930.715	0.0145521
930.793	0.0145515
930.871	0.0144700
930.950	0.0144909
931.028	0.0143852
931.106	0.0144492
931.184	0.0144521
931.262	0.0144263
931.340	0.0143782
931.418	0.0143923
931.496	0.0145298
931.575	0.0146124
931.653	0.0145377
931.731	0.0144183
931.809	0.0144827
931.887	0.0145197
931.965	0.0145482
932.043	0.0145152
932.121	0.0145201
932.200	0.0144396
932.278	0.0143354
932.356	0.0144019
932.434	0.0144740
932.512	0.0145010
932.590	0.0145355
932.668	0.0144011
932.746	0.0144433
932.825	0.0144912
932.903	0.0144031
932.981	0.0144624
933.059	0.0144710
933.137	0.0145148
933.215	0.0145265
933.293	0.0145106
933.371	0.0145097
933.450	0.0146490
933.528	0.0145506
933.606	0.0145044
933.684	0.0144937
933.762	0.0146287
933.840	0.0144655
933.918	0.0145155
933.996	0.0144267
934.075	0.0145176
934.153	0.0146241
934.231	0.0144316
934.309	0.0145261
934.387	0.0145020
934.465	0.0146094
934.543	0.0145313
934.621	0.0144519
934.700	0.0144680
934.778	0.0144096
934.856	0.0144424
934.934	0.0143909
935.012	0.0144524
935.090	0.0143024
935.168	0.0145049
935.246	0.0145068
935.325	0.0143372
935.403	0.0144063
935.481	0.0145425
935.559	0.0143993
935.637	0.0143905
935.715	0.0144621
935.793	0.0144343
935.871	0.0144725
935.950	0.0145519
936.028	0.0144324
936.106	0.0143553
936.184	0.0146259
936.262	0.0145992
936.340	0.0144376
936.418	0.0145045
936.496	0.0144396
936.575	0.0145107
936.653	0.0145834
936.731	0.0144214
936.809	0.0142728
936.887	0.0144265
936.965	0.0144630
937.043	0.0143982
937.121	0.0144485
937.200	0.0144200
937.278	0.0146019
937.356	0.0145291
937.434	0.0144005
937.512	0.0145262
937.590	0.0144357
937.668	0.0145483
937.746	0.0145323
937.825	0.0144299
937.903	0.0145319
937.981	0.0144788
938.059	0.0145728
938.137	0.0146388
938.215	0.0145568
938.293	0.0143620
938.371	0.0143460
938.450	0.0145390
938.528	0.0144995
938.606	0.0145499
938.684	0.0145081
938.762	0.0144872
938.840	0.0144878
938.918	0.0145193
938.996	0.0145095
939.075	0.0145061
939.153	0.0144815
939.231	0.0145020
939.309	0.0145045
939.387	0.0146624
939.465	0.0146254
939.543	0.0144880
939.621	0.0146430
939.700	0.0145844
939.778	0.0145898
939.856	0.0146480
939.934	0.0144846
940.012	0.0144523
940.090	0.0145805
940.168	0.0146250
940.246	0.0146735
940.325	0.0145842
940.403	0.0146083
940.481	0.0146006
940.559	0.0145945
940.637	0.0145673
940.715	0.0146161
940.793	0.0145750
940.871	0.0144678
940.950	0.0146452
941.028	0.0144647
941.106	0.0146018
941.184	0.0146161
941.262	0.0146531
941.340	0.0144917
941.418	0.0146272
941.496	0.0145477
941.575	0.0145172
941.653	0.0145252
941.731	0.0144085
941.809	0.0146132
941.887	0.0144294
941.965	0.0143892
942.043	0.0145291
942.121	0.0146027
942.200	0.0145564
942.278	0.0144588
942.356	0.0145821
942.434	0.0146177
942.512	0.0146136
942.590	0.0145287
942.668	0.0146523
942.746	0.0146069
942.825	0.0145700
942.903	0.0145720
942.981	0.0144820
943.059	0.0146909
943.137	0.0146350
943.215	0.0145560
943.293	0.0145248
943.371	0.0145444
943.450	0.0146336
943.528	0.0145901
943.606	0.0144890
943.684	0.0145040
943.762	0.0146675
943.840	0.0145416
943.918	0.0145939
943.996	0.0145335
944.075	0.0145777
944.153	0.0145938
944.231	0.0145998
944.309	0.0145450
944.387	0.0145330
944.465	0.0145526
944.543	0.0145457
944.621	0.0145048
944.700	0.0145574
944.778	0.0145786
944.856	0.0146037
944.934	0.0146966
945.012	0.0145066
945.090	0.0145348
945.168	0.0144224
945.246	0.0145480
945.325	0.0146118
945.403	0.0145894
945.481	0.0144567
945.559	0.0144252
945.637	0.0145152
945.715	0.0145026
945.793	0.0143359
945.871	0.0144202
945.950	0.0144720
946.028	0.0145108
946.106	0.0145048
946.184	0.0144345
946.262	0.0144006
946.340	0.0144024
946.418	0.0144080
946.496	0.0145063
946.575	0.0144666
946.653	0.0145746
946.731	0.0143615
946.809	0.0145277
946.887	0.0144932
946.965	0.0144351
947.043	0.0145832
947.121	0.0143769
947.200	0.0145154
947.278	0.0144651
947.356	0.0145704
947.434	0.0146090
947.512	0.0145161
947.590	0.0145203
947.668	0.0145733
947.746	0.0144344
947.825	0.0144453
947.903	0.0146050
947.981	0.0145989
948.059	0.0146759
948.137	0.0144416
948.215	0.0146081
948.293	0.0145571
948.371	0.0145058
948.450	0.0144507
948.528	0.0145133
948.606	0.0145037
948.684	0.0144481
948.762	0.0144710
948.840	0.0144614
948.918	0.0146140
948.996	0.0144514
949.075	0.0144643
949.153	0.0145395
949.231	0.0144230
949.309	0.0144666
949.387	0.0144260
949.465	0.0145705
949.543	0.0144661
949.621	0.0144386
949.700	0.0143536
949.778	0.0144681
949.856	0.0145168
949.934	0.0144312
950.012	0.0143745
950.090	0.0144559
950.168	0.0145488
950.246	0.0144855
950.325	0.0145714
950.403	0.0144529
950.481	0.0145563
950.559	0.0144565
950.637	0.0144725
950.715	0.0145081
950.793	0.0144721
950.871	0.0145087
950.950	0.0145459
951.028	0.0144578
951.106	0.0145013
951.184	0.0144839
951.262	0.0143731
951.340	0.0143849
951.418	0.0146044
951.496	0.0144986
951.575	0.0144234
951.653	0.0144695
951.731	0.0145021
951.809	0.0143736
951.887	0.0145492
951.965	0.0145663
952.043	0.0144882
952.121	0.0145102
952.200	0.0143848
952.278	0.0145191
952.356	0.0145027
952.434	0.0143939
952.512	0.0143660
952.590	0.0146013
952.668	0.0146721
952.746	0.0144942
952.825	0.0144892
952.903	0.0143936
952.981	0.0143925
953.059	0.0144965
953.137	0.0144913
953.215	0.0145820
953.293	0.0145702
953.371	0.0145345
953.450	0.0145480
953.528	0.0144843
953.606	0.0145699
953.684	0.0144649
953.762	0.0143807
953.840	0.0144653
953.918	0.0145345
953.996	0.0144807
954.075	0.0144414
954.153	0.0144421
954.231	0.0145875
954.309	0.0145483
954.387	0.0145204
954.465	0.0145407
954.543	0.0145090
954.621	0.0144365
954.700	0.0145479
954.778	0.0146245
954.856	0.0145311
954.934	0.0143903
955.012	0.0145972
955.090	0.0144620
955.168	0.0145764
955.246	0.0145759
955.325	0.0145003
955.403	0.0144693
955.481	0.0142711
955.559	0.0144844
955.637	0.0144477
955.715	0.0144268
955.793	0.0145489
955.871	0.0144147
955.950	0.0144422
956.028	0.0143263
956.106	0.0144745
956.184	0.0144150
956.262	0.0144839
956.340	0.0144411
956.418	0.0144455
956.496	0.0143440
956.575	0.0143803
956.653	0.0144022
956.731	0.0145899
956.809	0.0144080
956.887	0.0143163
956.965	0.0144707
957.043	0.0145170
957.121	0.0145123
957.200	0.0144877
957.278	0.0144636
957.356	0.0144459
957.434	0.0145313
957.512	0.0145745
957.590	0.0145105
957.668	0.0145699
957.746	0.0145428
957.825	0.0145926
957.903	0.0146989
957.981	0.0144421
958.059	0.0144796
958.137	0.0146258
958.215	0.0145777
958.293	0.0145465
958.371	0.0145071
958.450	0.0145706
958.528	0.0145312
958.606	0.0145951
958.684	0.0145495
958.762	0.0144987
958.840	0.0145647
958.918	0.0145135
958.996	0.0145490
959.075	0.0144384
959.153	0.0144204
959.231	0.0144440
959.309	0.0143542
959.387	0.0142975
959.465	0.0144094
959.543	0.0145580
959.621	0.0144733
959.700	0.0142927
959.778	0.0143885
959.856	0.0145163
959.934	0.0144400
960.012	0.0144254
960.090	0.0142974
960.168	0.0143800
960.246	0.0145211
960.325	0.0144558
960.403	0.0144640
960.481	0.0142642
960.559	0.0145354
960.637	0.0145297
960.715	0.0145417
960.793	0.0146207
960.871	0.0144407
960.950	0.0145102
961.028	0.0145353
961.106	0.0145033
961.184	0.0143922
961.262	0.0145248
961.340	0.0145021
961.418	0.0145276
961.496	0.0145120
961.575	0.0145088
961.653	0.0145296
961.731	0.0145546
961.809	0.0144977
961.887	0.0144965
961.965	0.0144364
962.043	0.0144781
962.121	0.0145088
962.200	0.0144449
962.278	0.0144820
962.356	0.0144962
962.434	0.0145508
962.512	0.0145160
962.590	0.0143246
962.668	0.0144631
962.746	0.0145655
962.825	0.0143675
962.903	0.0145003
962.981	0.0145411
963.059	0.0145746
963.137	0.0144945
963.215	0.0144772
963.293	0.0146179
963.371	0.0145827
963.450	0.0145982
963.528	0.0144949
963.606	0.0146677
963.684	0.0146687
963.762	0.0145212
963.840	0.0146109
963.918	0.0145304
963.996	0.0145290
964.075	0.0145275
964.153	0.0146305
964.231	0.0145758
964.309	0.0146162
964.387	0.0144484
964.465	0.0145070
964.543	0.0146222
964.621	0.0145035
964.700	0.0144740
964.778	0.0145866
964.856	0.0145180
964.934	0.0144357
965.012	0.0145583
965.090	0.0144724
965.168	0.0144809
965.246	0.0145184
965.325	0.0145714
965.403	0.0144864
965.481	0.0145660
965.559	0.0146320
965.637	0.0146176
965.715	0.0145164
965.793	0.0144061
965.871	0.0145154
965.950	0.0145097
966.028	0.0145170
966.106	0.0145707
966.184	0.0145749
966.262	0.0146311
966.340	0.0145798
966.418	0.0145094
966.496	0.0145502
966.575	0.0146497
966.653	0.0145477
966.731	0.0144243
966.809	0.0145419
966.887	0.0144063
966.965	0.0144859
967.043	0.0145701
967.121	0.0145247
967.200	0.0144841
967.278	0.0145183
967.356	0.0145477
967.434	0.0145798
967.512	0.0144782
967.590	0.0144420
967.668	0.0145828
967.746	0.0146894
967.825	0.0144544
967.903	0.0144617
967.981	0.0146487
968.059	0.0145242
968.137	0.0145207
968.215	0.0144333
968.293	0.0145129
968.371	0.0146993
968.450	0.0144961
968.528	0.0145328
968.606	0.0145817
968.684	0.0145287
968.762	0.0143770
968.840	0.0145560
968.918	0.0145129
968.996	0.0145322
969.075	0.0144926
969.153	0.0145721
969.231	0.0147524
969.309	0.0145805
969.387	0.0144257
969.465	0.0145436
969.543	0.0146263
969.621	0.0144847
969.700	0.0146215
969.778	0.0147844
969.856	0.0143893
969.934	0.0145734
970.012	0.0146256
970.090	0.0146031
970.168	0.0146286
970.246	0.0145249
970.325	0.0146291
970.403	0.0146643
970.481	0.0145409
970.559	0.0146214
970.637	0.0143916
970.715	0.0145457
970.793	0.0145231
970.871	0.0144919
970.950	0.0146284
971.028	0.0146150
971.106	0.0144444
971.184	0.0144095
971.262	0.0145678
971.340	0.0145229
971.418	0.0145215
971.496	0.0146033
971.575	0.0145583
971.653	0.0144758
971.731	0.0145947
971.809	0.0146151
971.887	0.0144266
971.965	0.0145177
972.043	0.0145983
972.121	0.0145795
972.200	0.0145538
972.278	0.0145424
972.356	0.0145376
972.434	0.0145313
972.512	0.0145581
972.590	0.0143507
972.668	0.0145327
972.746	0.0146557
972.825	0.0144662
972.903	0.0146087
972.981	0.0145237
973.059	0.0145110
973.137	0.0144421
973.215	0.0144948
973.293	0.0143933
973.371	0.0144473
973.450	0.0145551
973.528	0.0147265
973.606	0.0144769
973.684	0.0144382
973.762	0.0144477
973.840	0.0144455
973.918	0.0144287
973.996	0.0146146
974.075	0.0146134
974.153	0.0144861
974.231	0.0144894
974.309	0.0145931
974.387	0.0145188
974.465	0.0146050
974.543	0.0145644
974.621	0.0144745
974.700	0.0145789
974.778	0.0145517
974.856	0.0146317
974.934	0.0144690
975.012	0.0145287
975.090	0.0145808
975.168	0.0145272
975.246	0.0145048
975.325	0.0144861
975.403	0.0145580
975.481	0.0145314
975.559	0.0145371
975.637	0.0146498
975.715	0.0144637
975.793	0.0144447
975.871	0.0145129
975.950	0.0145046
976.028	0.0145105
976.106	0.0144733
976.184	0.0144268
976.262	0.0146001
976.340	0.0144757
976.418	0.0143091
976.496	0.0143568
976.575	0.0145673
976.653	0.0144715
976.731	0.0145021
976.809	0.0143398
976.887	0.0144863
976.965	0.0145895
977.043	0.0144913
977.121	0.0144182
977.200	0.0145074
977.278	0.0145410
977.356	0.0143246
977.434	0.0144596
977.512	0.0143890
977.590	0.0145409
977.668	0.0145914
977.746	0.0144627
977.825	0.0144756
977.903	0.0145055
977.981	0.0144868
978.059	0.0145581
978.137	0.0143370
978.215	0.0145199
978.293	0.0145126
978.371	0.0145274
978.450	0.0144895
978.528	0.0144957
978.606	0.0144616
978.684	0.0145362
978.762	0.0142697
978.840	0.0144324
978.918	0.0144619
978.996	0.0145330
979.075	0.0144485
979.153	0.0144346
979.231	0.0144302
979.309	0.0143903
979.387	0.0145347
979.465	0.0146159
979.543	0.0143935
979.621	0.0143630
979.700	0.0144823
979.778	0.0144581
979.856	0.0143836
979.934	0.0146331
980.012	0.0144617
980.090	0.0144197
980.168	0.0143758
980.246	0.0143050
980.325	0.0144451
980.403	0.0143623
980.481	0.0144499
980.559	0.0143785
980.637	0.0143951
980.715	0.0144524
980.793	0.0144010
980.871	0.0144801
980.950	0.0145135
981.028	0.0145064
981.106	0.0145087
981.184	0.0144285
981.262	0.0145386
981.340	0.0145285
981.418	0.0144734
981.496	0.0145438
981.575	0.0144735
981.653	0.0144654
981.731	0.0145444
981.809	0.0144486
981.887	0.0145374
981.965	0.0144501
982.043	0.0144634
982.121	0.0144279
982.200	0.0144402
982.278	0.0144976
982.356	0.0144110
982.434	0.0144267
982.512	0.0144241
982.590	0.0144452
982.668	0.0144009
982.746	0.0144489
982.825	0.0143824
982.903	0.0145364
982.981	0.0143404
983.059	0.0145195
983.137	0.0145103
983.215	0.0144552
983.293	0.0143037
983.371	0.0143738
983.450	0.0146039
983.528	0.0144854
983.606	0.0144283
983.684	0.0143401
983.762	0.0144066
983.840	0.0144931
983.918	0.0144972
983.996	0.0143970
984.075	0.0145953
984.153	0.0145423
984.231	0.0144397
984.309	0.0144654
984.387	0.0146635
984.465	0.0145370
984.543	0.0144334
984.621	0.0145950
984.700	0.0146009
984.778	0.0147344
984.856	0.0144054
984.934	0.0146210
985.012	0.0145573
985.090	0.0145734
985.168	0.0146170
985.246	0.0145721
985.325	0.0146033
985.403	0.0146236
985.481	0.0145013
985.559	0.0144968
985.637	0.0144563
985.715	0.0146281
985.793	0.0144644
985.871	0.0145242
985.950	0.0145896
986.028	0.0145929
986.106	0.0144710
986.184	0.0144519
986.262	0.0146106
986.340	0.0146144
986.418	0.0146284
986.496	0.0144771
986.575	0.0143050
986.653	0.0144849
986.731	0.0144454
986.809	0.0143709
986.887	0.0145762
986.965	0.0146455
987.043	0.0144576
987.121	0.0144322
987.200	0.0144251
987.278	0.0145005
987.356	0.0143073
987.434	0.0143965
987.512	0.0145947
987.590	0.0145790
987.668	0.0145191
987.746	0.0144184
987.825	0.0145032
987.903	0.0145580
987.981	0.0145782
988.059	0.0144979
988.137	0.0144563
988.215	0.0145667
988.293	0.0144730
988.371	0.0145042
988.450	0.0144870
988.528	0.0144748
988.606	0.0145053
988.684	0.0144899
988.762	0.0145227
988.840	0.0144675
988.918	0.0144569
988.996	0.0144881
989.075	0.0146142
989.153	0.0145899
989.231	0.0146265
989.309	0.0144955
989.387	0.0144479
989.465	0.0145983
989.543	0.0145256
989.621	0.0146037
989.700	0.0146092
989.778	0.0144942
989.856	0.0143994
989.934	0.0144654
990.012	0.0145825
990.090	0.0145802
990.168	0.0143481
990.246	0.0144165
990.325	0.0144228
990.403	0.0143172
990.481	0.0144596
990.559	0.0146013
990.637	0.0144430
990.715	0.0145364
990.793	0.0145387
990.871	0.0144784
990.950	0.0144395
991.028	0.0146272
991.106	0.0145901
991.184	0.0144447
991.262	0.0145714
991.340	0.0145317
991.418	0.0145188
991.496	0.0146436
991.575	0.0145351
991.653	0.0142865
991.731	0.0145511
991.809	0.0145622
991.887	0.0144150
991.965	0.0143351
992.043	0.0144504
992.121	0.0144773
992.200	0.0145889
992.278	0.0143731
992.356	0.0144935
992.434	0.0144126
992.512	0.0144495
992.590	0.0145232
992.668	0.0144893
992.746	0.0145552
992.825	0.0146556
992.903	0.0143933
992.981	0.0144690
993.059	0.0146418
993.137	0.0145363
993.215	0.0145975
993.293	0.0147523
993.371	0.0146128
993.450	0.0146070
993.528	0.0145513
993.606	0.0146962
993.684	0.0145490
993.762	0.0144821
993.840	0.0145762
993.918	0.0146044
993.996	0.0145484
994.075	0.0146313
994.153	0.0146603
994.231	0.0146391
994.309	0.0146563
994.387	0.0145257
994.465	0.0145802
994.543	0.0146487
994.621	0.0147344
994.700	0.0146858
994.778	0.0146200
994.856	0.0144918
994.934	0.0146017
995.012	0.0146236
995.090	0.0145869
995.168	0.0146851
995.246	0.0146703
995.325	0.0146005
995.403	0.0144667
995.481	0.0146527
995.559	0.0146578
995.637	0.0144875
995.715	0.0146829
995.793	0.0145872
995.871	0.0144500
995.950	0.0145245
996.028	0.0145884
996.106	0.0145432
996.184	0.0145639
996.262	0.0144292
996.340	0.0146590
996.418	0.0145550
996.496	0.0145766
996.575	0.0146200
996.653	0.0145932
996.731	0.0146396
996.809	0.0144541
996.887	0.0144117
996.965	0.0146694
997.043	0.0147162
997.121	0.0144684
997.200	0.0146443
997.278	0.0145345
997.356	0.0144329
997.434	0.0145118
997.512	0.0145531
997.590	0.0144819
997.668	0.0145744
997.746	0.0144492
997.825	0.0145441
997.903	0.0145904
997.981	0.0143600
998.059	0.0146993
998.137	0.0144671
998.215	0.0143032
998.293	0.0145362
998.371	0.0146640
998.450	0.0145023
998.528	0.0144743
998.606	0.0145590
998.684	0.0147038
998.762	0.0144836
998.840	0.0144158
998.918	0.0144519
