05/04/2022	21:36:49	Ver.	4.1	UNKNOWN
Optical Delay	678.996401	Delta X		0.078125	Sweeps	1	Scan Rate	0/0
Coordinates	Axis 1	NaN	Axis 2	NaN	Axis 3	NaN	Axis 4	NaN	Axis 5	NaN	Axis 6	0.000000
TX Power	0.000000	RX Power	0.000000

678.996	0.0148956
679.075	0.0149207
679.153	0.0147111
679.231	0.0149060
679.309	0.0147941
679.387	0.0147009
679.465	0.0147673
679.543	0.0147836
679.621	0.0147251
679.700	0.0146984
679.778	0.0146925
679.856	0.0147596
679.934	0.0148475
680.012	0.0149149
680.090	0.0148846
680.168	0.0148747
680.246	0.0149813
680.325	0.0149160
680.403	0.0150184
680.481	0.0151466
680.559	0.0149782
680.637	0.0149734
680.715	0.0148904
680.793	0.0148650
680.871	0.0147009
680.950	0.0147318
681.028	0.0145508
681.106	0.0145979
681.184	0.0143835
681.262	0.0144411
681.340	0.0145428
681.418	0.0147766
681.496	0.0148873
681.575	0.0148994
681.653	0.0148890
681.731	0.0151560
681.809	0.0152278
681.887	0.0153770
681.965	0.0153594
682.043	0.0151749
682.121	0.0153424
682.200	0.0150271
682.278	0.0148940
682.356	0.0148584
682.434	0.0146400
682.512	0.0147474
682.590	0.0144970
682.668	0.0146216
682.746	0.0148012
682.825	0.0148029
682.903	0.0149049
682.981	0.0148225
683.059	0.0150387
683.137	0.0150133
683.215	0.0149902
683.293	0.0147859
683.371	0.0147296
683.450	0.0146867
683.528	0.0144186
683.606	0.0145219
683.684	0.0144977
683.762	0.0145799
683.840	0.0145104
683.918	0.0143452
683.996	0.0145456
684.075	0.0148102
684.153	0.0149618
684.231	0.0149622
684.309	0.0151972
684.387	0.0153515
684.465	0.0153610
684.543	0.0156245
684.621	0.0156942
684.700	0.0157789
684.778	0.0155905
684.856	0.0155362
684.934	0.0153695
685.012	0.0152228
685.090	0.0150176
685.168	0.0148522
685.246	0.0148911
685.325	0.0147054
685.403	0.0145844
685.481	0.0144560
685.559	0.0144991
685.637	0.0146931
685.715	0.0146801
685.793	0.0145359
685.871	0.0147073
685.950	0.0146114
686.028	0.0145788
686.106	0.0145152
686.184	0.0143741
686.262	0.0144190
686.340	0.0143632
686.418	0.0143145
686.496	0.0143536
686.575	0.0143161
686.653	0.0144569
686.731	0.0146574
686.809	0.0148047
686.887	0.0149187
686.965	0.0151925
687.043	0.0153062
687.121	0.0155081
687.200	0.0154816
687.278	0.0156030
687.356	0.0156947
687.434	0.0157127
687.512	0.0157726
687.590	0.0156469
687.668	0.0156151
687.746	0.0153088
687.825	0.0154118
687.903	0.0152372
687.981	0.0150858
688.059	0.0149841
688.137	0.0146823
688.215	0.0145779
688.293	0.0144312
688.371	0.0143887
688.450	0.0144682
688.528	0.0145297
688.606	0.0143342
688.684	0.0142468
688.762	0.0144041
688.840	0.0145439
688.918	0.0146033
688.996	0.0145120
689.075	0.0143214
689.153	0.0145081
689.231	0.0145258
689.309	0.0143173
689.387	0.0143768
689.465	0.0144709
689.543	0.0144785
689.621	0.0144715
689.700	0.0145190
689.778	0.0146782
689.856	0.0148129
689.934	0.0149104
690.012	0.0150623
690.090	0.0152609
690.168	0.0154069
690.246	0.0155157
690.325	0.0156130
690.403	0.0156110
690.481	0.0155676
690.559	0.0158128
690.637	0.0159042
690.715	0.0156818
690.793	0.0154583
690.871	0.0153125
690.950	0.0151933
691.028	0.0149597
691.106	0.0145996
691.184	0.0143271
691.262	0.0141752
691.340	0.0140805
691.418	0.0139191
691.496	0.0139197
691.575	0.0140660
691.653	0.0141070
691.731	0.0140504
691.809	0.0142381
691.887	0.0145508
691.965	0.0145016
692.043	0.0146242
692.121	0.0146175
692.200	0.0145872
692.278	0.0144737
692.356	0.0143922
692.434	0.0143703
692.512	0.0143028
692.590	0.0142233
692.668	0.0143173
692.746	0.0144298
692.825	0.0144675
692.903	0.0146772
692.981	0.0149746
693.059	0.0151573
693.137	0.0154072
693.215	0.0158445
693.293	0.0158409
693.371	0.0159605
693.450	0.0159837
693.528	0.0159560
693.606	0.0158868
693.684	0.0157882
693.762	0.0155579
693.840	0.0152284
693.918	0.0150565
693.996	0.0147722
694.075	0.0145155
694.153	0.0143764
694.231	0.0141285
694.309	0.0141230
694.387	0.0142872
694.465	0.0143363
694.543	0.0141769
694.621	0.0142939
694.700	0.0145981
694.778	0.0145709
694.856	0.0145655
694.934	0.0145068
695.012	0.0146698
695.090	0.0146455
695.168	0.0145877
695.246	0.0143948
695.325	0.0144582
695.403	0.0145065
695.481	0.0143955
695.559	0.0143458
695.637	0.0142466
695.715	0.0141541
695.793	0.0140976
695.871	0.0140990
695.950	0.0143946
696.028	0.0145048
696.106	0.0146876
696.184	0.0148741
696.262	0.0149454
696.340	0.0151122
696.418	0.0153249
696.496	0.0153939
696.575	0.0153251
696.653	0.0153746
696.731	0.0152538
696.809	0.0153689
696.887	0.0152431
696.965	0.0151189
697.043	0.0150425
697.121	0.0150284
697.200	0.0148878
697.278	0.0149173
697.356	0.0149656
697.434	0.0148872
697.512	0.0150465
697.590	0.0151937
697.668	0.0151201
697.746	0.0150610
697.825	0.0150642
697.903	0.0149970
697.981	0.0151115
698.059	0.0151586
698.137	0.0149600
698.215	0.0148476
698.293	0.0148529
698.371	0.0146828
698.450	0.0144785
698.528	0.0143747
698.606	0.0141357
698.684	0.0139362
698.762	0.0137646
698.840	0.0137189
698.918	0.0136397
698.996	0.0137217
699.075	0.0139087
699.153	0.0139385
699.231	0.0140977
699.309	0.0144008
699.387	0.0145542
699.465	0.0149181
699.543	0.0152276
699.621	0.0154443
699.700	0.0156741
699.778	0.0157520
699.856	0.0157563
699.934	0.0157078
700.012	0.0156989
700.090	0.0155212
700.168	0.0153784
700.246	0.0151543
700.325	0.0150597
700.403	0.0148489
700.481	0.0147147
700.559	0.0147081
700.637	0.0146585
700.715	0.0146084
700.793	0.0144973
700.871	0.0147362
700.950	0.0149229
701.028	0.0149188
701.106	0.0149619
701.184	0.0151015
701.262	0.0152209
701.340	0.0152042
701.418	0.0152692
701.496	0.0151299
701.575	0.0148763
701.653	0.0147298
701.731	0.0144401
701.809	0.0144333
701.887	0.0141082
701.965	0.0139938
702.043	0.0139488
702.121	0.0137637
702.200	0.0139377
702.278	0.0139217
702.356	0.0141053
702.434	0.0141994
702.512	0.0143375
702.590	0.0145833
702.668	0.0148076
702.746	0.0148846
702.825	0.0147750
702.903	0.0148928
702.981	0.0150057
703.059	0.0150879
703.137	0.0151631
703.215	0.0150633
703.293	0.0150111
703.371	0.0149311
703.450	0.0150335
703.528	0.0150273
703.606	0.0150009
703.684	0.0148136
703.762	0.0149953
703.840	0.0152091
703.918	0.0151690
703.996	0.0152152
704.075	0.0152849
704.153	0.0153711
704.231	0.0154502
704.309	0.0153970
704.387	0.0155341
704.465	0.0154257
704.543	0.0153071
704.621	0.0152898
704.700	0.0151350
704.778	0.0150381
704.856	0.0148579
704.934	0.0146822
705.012	0.0143177
705.090	0.0141833
705.168	0.0140548
705.246	0.0140118
705.325	0.0139221
705.403	0.0140434
705.481	0.0141359
705.559	0.0140715
705.637	0.0143956
705.715	0.0143772
705.793	0.0146602
705.871	0.0147610
705.950	0.0149438
706.028	0.0150481
706.106	0.0151171
706.184	0.0153139
706.262	0.0151781
706.340	0.0152317
706.418	0.0153097
706.496	0.0152907
706.575	0.0150894
706.653	0.0150972
706.731	0.0151444
706.809	0.0150821
706.887	0.0150954
706.965	0.0149443
707.043	0.0149522
707.121	0.0149409
707.200	0.0150545
707.278	0.0151228
707.356	0.0151922
707.434	0.0150336
707.512	0.0152503
707.590	0.0152452
707.668	0.0151208
707.746	0.0151990
707.825	0.0151974
707.903	0.0151292
707.981	0.0148997
708.059	0.0147706
708.137	0.0147745
708.215	0.0146212
708.293	0.0146720
708.371	0.0145142
708.450	0.0145105
708.528	0.0146162
708.606	0.0146185
708.684	0.0144551
708.762	0.0143924
708.840	0.0146838
708.918	0.0148660
708.996	0.0148425
709.075	0.0148869
709.153	0.0148393
709.231	0.0150256
709.309	0.0149758
709.387	0.0150528
709.465	0.0151031
709.543	0.0150368
709.621	0.0149583
709.700	0.0149767
709.778	0.0150122
709.856	0.0148154
709.934	0.0147874
710.012	0.0147958
710.090	0.0146578
710.168	0.0146147
710.246	0.0145164
710.325	0.0146888
710.403	0.0148666
710.481	0.0146423
710.559	0.0145825
710.637	0.0146903
710.715	0.0148151
710.793	0.0147546
710.871	0.0146967
710.950	0.0148019
711.028	0.0149228
711.106	0.0149442
711.184	0.0149871
711.262	0.0150463
711.340	0.0150910
711.418	0.0151340
711.496	0.0151405
711.575	0.0151574
711.653	0.0153723
711.731	0.0152389
711.809	0.0152791
711.887	0.0151694
711.965	0.0151691
712.043	0.0149964
712.121	0.0150021
712.200	0.0148569
712.278	0.0147865
712.356	0.0147459
712.434	0.0146121
712.512	0.0146743
712.590	0.0146497
712.668	0.0146467
712.746	0.0145454
712.825	0.0145310
712.903	0.0146442
712.981	0.0144650
713.059	0.0143998
713.137	0.0145740
713.215	0.0145533
713.293	0.0145528
713.371	0.0144910
713.450	0.0144167
713.528	0.0145651
713.606	0.0146404
713.684	0.0145757
713.762	0.0147512
713.840	0.0148769
713.918	0.0150079
713.996	0.0151141
714.075	0.0151404
714.153	0.0152505
714.231	0.0153487
714.309	0.0153881
714.387	0.0154002
714.465	0.0153190
714.543	0.0151393
714.621	0.0151968
714.700	0.0151465
714.778	0.0150307
714.856	0.0149908
714.934	0.0149384
715.012	0.0148698
715.090	0.0147665
715.168	0.0145750
715.246	0.0145419
715.325	0.0145577
715.403	0.0144897
715.481	0.0144678
715.559	0.0145130
715.637	0.0146025
715.715	0.0144689
715.793	0.0145563
715.871	0.0144309
715.950	0.0145573
716.028	0.0146009
716.106	0.0145834
716.184	0.0144624
716.262	0.0145968
716.340	0.0147359
716.418	0.0146886
716.496	0.0147054
716.575	0.0148022
716.653	0.0148026
716.731	0.0148319
716.809	0.0149248
716.887	0.0148909
716.965	0.0148481
717.043	0.0149346
717.121	0.0148664
717.200	0.0148943
717.278	0.0148640
717.356	0.0147979
717.434	0.0148983
717.512	0.0148896
717.590	0.0146759
717.668	0.0145247
717.746	0.0146624
717.825	0.0146250
717.903	0.0145135
717.981	0.0145602
718.059	0.0147421
718.137	0.0147045
718.215	0.0145926
718.293	0.0147070
718.371	0.0148344
718.450	0.0149687
718.528	0.0149187
718.606	0.0149052
718.684	0.0148347
718.762	0.0149146
718.840	0.0150561
718.918	0.0148810
718.996	0.0149635
719.075	0.0149364
719.153	0.0148167
719.231	0.0149821
719.309	0.0148331
719.387	0.0148727
719.465	0.0148140
719.543	0.0146585
719.621	0.0147332
719.700	0.0146293
719.778	0.0146352
719.856	0.0146222
719.934	0.0145943
720.012	0.0145193
720.090	0.0144608
720.168	0.0147242
720.246	0.0145640
720.325	0.0145488
720.403	0.0146764
720.481	0.0147649
720.559	0.0146500
720.637	0.0146056
720.715	0.0146959
720.793	0.0147072
720.871	0.0146001
720.950	0.0146834
721.028	0.0145581
721.106	0.0146636
721.184	0.0148356
721.262	0.0149051
721.340	0.0149280
721.418	0.0147958
721.496	0.0147669
721.575	0.0150492
721.653	0.0149953
721.731	0.0150584
721.809	0.0149564
721.887	0.0151328
721.965	0.0150408
722.043	0.0149568
722.121	0.0149648
722.200	0.0148434
722.278	0.0148183
722.356	0.0147733
722.434	0.0145753
722.512	0.0144992
722.590	0.0145551
722.668	0.0144891
722.746	0.0145118
722.825	0.0144781
722.903	0.0146241
722.981	0.0146893
723.059	0.0145864
723.137	0.0146825
723.215	0.0147089
723.293	0.0146751
723.371	0.0149510
723.450	0.0149639
723.528	0.0150594
723.606	0.0148338
723.684	0.0149670
723.762	0.0149159
723.840	0.0148346
723.918	0.0147436
723.996	0.0147248
724.075	0.0147288
724.153	0.0147310
724.231	0.0147578
724.309	0.0148618
724.387	0.0148138
724.465	0.0148431
724.543	0.0149673
724.621	0.0149302
724.700	0.0150159
724.778	0.0149388
724.856	0.0150020
724.934	0.0148054
725.012	0.0148795
725.090	0.0148471
725.168	0.0147805
725.246	0.0148196
725.325	0.0147645
725.403	0.0147071
725.481	0.0147744
725.559	0.0146772
725.637	0.0146472
725.715	0.0148815
725.793	0.0149333
725.871	0.0148584
725.950	0.0147740
726.028	0.0149846
726.106	0.0150024
726.184	0.0150252
726.262	0.0147727
726.340	0.0150512
726.418	0.0148561
726.496	0.0148477
726.575	0.0148651
726.653	0.0146647
726.731	0.0146722
726.809	0.0147128
726.887	0.0145490
726.965	0.0145932
727.043	0.0145602
727.121	0.0144880
727.200	0.0147220
727.278	0.0145982
727.356	0.0147154
727.434	0.0147443
727.512	0.0145814
727.590	0.0145467
727.668	0.0147384
727.746	0.0147502
727.825	0.0150121
727.903	0.0148701
727.981	0.0149255
728.059	0.0150160
728.137	0.0150090
728.215	0.0149916
728.293	0.0150082
728.371	0.0151375
728.450	0.0149293
728.528	0.0149553
728.606	0.0150866
728.684	0.0151004
728.762	0.0151041
728.840	0.0150383
728.918	0.0149429
728.996	0.0151435
729.075	0.0149950
729.153	0.0148447
729.231	0.0147656
729.309	0.0147859
729.387	0.0148473
729.465	0.0147668
729.543	0.0147251
729.621	0.0147785
729.700	0.0146761
729.778	0.0147121
729.856	0.0146902
729.934	0.0146834
730.012	0.0146899
730.090	0.0148069
730.168	0.0147914
730.246	0.0148488
730.325	0.0148680
730.403	0.0148115
730.481	0.0149975
730.559	0.0151056
730.637	0.0150858
730.715	0.0152042
730.793	0.0149445
730.871	0.0149981
730.950	0.0150039
731.028	0.0151427
731.106	0.0148721
731.184	0.0148394
731.262	0.0149600
731.340	0.0150715
731.418	0.0148934
731.496	0.0147012
731.575	0.0147287
731.653	0.0147545
731.731	0.0148221
731.809	0.0146519
731.887	0.0145676
731.965	0.0146245
732.043	0.0147591
732.121	0.0148189
732.200	0.0147015
732.278	0.0149162
732.356	0.0149290
732.434	0.0149567
732.512	0.0149117
732.590	0.0149401
732.668	0.0150637
732.746	0.0149267
732.825	0.0150351
732.903	0.0149630
732.981	0.0148815
733.059	0.0149257
733.137	0.0148717
733.215	0.0149364
733.293	0.0148524
733.371	0.0147472
733.450	0.0147755
733.528	0.0147822
733.606	0.0146737
733.684	0.0146004
733.762	0.0147574
733.840	0.0147679
733.918	0.0145615
733.996	0.0146091
734.075	0.0147231
734.153	0.0147039
734.231	0.0147360
734.309	0.0147363
734.387	0.0148277
734.465	0.0148997
734.543	0.0148399
734.621	0.0148461
734.700	0.0148766
734.778	0.0148576
734.856	0.0151024
734.934	0.0149734
735.012	0.0150132
735.090	0.0148523
735.168	0.0149440
735.246	0.0150042
735.325	0.0150240
735.403	0.0147417
735.481	0.0149384
735.559	0.0149171
735.637	0.0149915
735.715	0.0149067
735.793	0.0149270
735.871	0.0148050
735.950	0.0145780
736.028	0.0145818
736.106	0.0148171
736.184	0.0146495
736.262	0.0147036
736.340	0.0146808
736.418	0.0147902
736.496	0.0146632
736.575	0.0147137
736.653	0.0147401
736.731	0.0147345
736.809	0.0147423
736.887	0.0148135
736.965	0.0148466
737.043	0.0148678
737.121	0.0149560
737.200	0.0151401
737.278	0.0149359
737.356	0.0150033
737.434	0.0148589
737.512	0.0148167
737.590	0.0149561
737.668	0.0150284
737.746	0.0149704
737.825	0.0148912
737.903	0.0148286
737.981	0.0149159
738.059	0.0148794
738.137	0.0149444
738.215	0.0148554
738.293	0.0148357
738.371	0.0148304
738.450	0.0148810
738.528	0.0147044
738.606	0.0147150
738.684	0.0146478
738.762	0.0147061
738.840	0.0147163
738.918	0.0145959
738.996	0.0146548
739.075	0.0147465
739.153	0.0147768
739.231	0.0147261
739.309	0.0148017
739.387	0.0147894
739.465	0.0148964
739.543	0.0149202
739.621	0.0148025
739.700	0.0148922
739.778	0.0149106
739.856	0.0149033
739.934	0.0149102
740.012	0.0146823
740.090	0.0148951
740.168	0.0148193
740.246	0.0147492
740.325	0.0145955
740.403	0.0146873
740.481	0.0148125
740.559	0.0147572
740.637	0.0147119
740.715	0.0147429
740.793	0.0146362
740.871	0.0145860
740.950	0.0147213
741.028	0.0148560
741.106	0.0145879
741.184	0.0146516
741.262	0.0148452
741.340	0.0147564
741.418	0.0147872
741.496	0.0147091
741.575	0.0148948
741.653	0.0147552
741.731	0.0148032
741.809	0.0149258
741.887	0.0149780
741.965	0.0148571
742.043	0.0147905
742.121	0.0150028
742.200	0.0150864
742.278	0.0149296
742.356	0.0149294
742.434	0.0148553
742.512	0.0149015
742.590	0.0148660
742.668	0.0148938
742.746	0.0148093
742.825	0.0149223
742.903	0.0147949
742.981	0.0148898
743.059	0.0148340
743.137	0.0147749
743.215	0.0147729
743.293	0.0148272
743.371	0.0148245
743.450	0.0149081
743.528	0.0147260
743.606	0.0145805
743.684	0.0148038
743.762	0.0147200
743.840	0.0147458
743.918	0.0148173
743.996	0.0146983
744.075	0.0146178
744.153	0.0146147
744.231	0.0146858
744.309	0.0145461
744.387	0.0145644
744.465	0.0146968
744.543	0.0147056
744.621	0.0147815
744.700	0.0147317
744.778	0.0147567
744.856	0.0148541
744.934	0.0148345
745.012	0.0148506
745.090	0.0149284
745.168	0.0149046
745.246	0.0148838
745.325	0.0148602
745.403	0.0148834
745.481	0.0149629
745.559	0.0148289
745.637	0.0148569
745.715	0.0149149
745.793	0.0149349
745.871	0.0148323
745.950	0.0148028
746.028	0.0147652
746.106	0.0146996
746.184	0.0148037
746.262	0.0148256
746.340	0.0148627
746.418	0.0147377
746.496	0.0147133
746.575	0.0148181
746.653	0.0148006
746.731	0.0147853
746.809	0.0146149
746.887	0.0146441
746.965	0.0147443
747.043	0.0146461
747.121	0.0146886
747.200	0.0146520
747.278	0.0147009
747.356	0.0147649
747.434	0.0147649
747.512	0.0147443
747.590	0.0147847
747.668	0.0147698
747.746	0.0147269
747.825	0.0148056
747.903	0.0149583
747.981	0.0147208
748.059	0.0148867
748.137	0.0147653
748.215	0.0147440
748.293	0.0149078
748.371	0.0147523
748.450	0.0147529
748.528	0.0149448
748.606	0.0148592
748.684	0.0147725
748.762	0.0146622
748.840	0.0147007
748.918	0.0147096
748.996	0.0147581
749.075	0.0147901
749.153	0.0147078
749.231	0.0146999
749.309	0.0149302
749.387	0.0148433
749.465	0.0147758
749.543	0.0149885
749.621	0.0149349
749.700	0.0147823
749.778	0.0148138
749.856	0.0148777
749.934	0.0148366
750.012	0.0149167
750.090	0.0150233
750.168	0.0149688
750.246	0.0148547
750.325	0.0148589
750.403	0.0147849
750.481	0.0149264
750.559	0.0149455
750.637	0.0149326
750.715	0.0149110
750.793	0.0149244
750.871	0.0146413
750.950	0.0148158
751.028	0.0147161
751.106	0.0147714
751.184	0.0147828
751.262	0.0146935
751.340	0.0146752
751.418	0.0147729
751.496	0.0149046
751.575	0.0146914
751.653	0.0147195
751.731	0.0148967
751.809	0.0148576
751.887	0.0148797
751.965	0.0147700
752.043	0.0147800
752.121	0.0148141
752.200	0.0150375
752.278	0.0149715
752.356	0.0149054
752.434	0.0148447
752.512	0.0149132
752.590	0.0150059
752.668	0.0150078
752.746	0.0147876
752.825	0.0148751
752.903	0.0147858
752.981	0.0150407
753.059	0.0148653
753.137	0.0149072
753.215	0.0149220
753.293	0.0148856
753.371	0.0149374
753.450	0.0149378
753.528	0.0148596
753.606	0.0149072
753.684	0.0149765
753.762	0.0148555
753.840	0.0149703
753.918	0.0149174
753.996	0.0148557
754.075	0.0148225
754.153	0.0149149
754.231	0.0147964
754.309	0.0149931
754.387	0.0148885
754.465	0.0149109
754.543	0.0149664
754.621	0.0148424
754.700	0.0149040
754.778	0.0147652
754.856	0.0148546
754.934	0.0148272
755.012	0.0147865
755.090	0.0148073
755.168	0.0148765
755.246	0.0149510
755.325	0.0148779
755.403	0.0149037
755.481	0.0148116
755.559	0.0149075
755.637	0.0148878
755.715	0.0147688
755.793	0.0148355
755.871	0.0148512
755.950	0.0148112
756.028	0.0149386
756.106	0.0147772
756.184	0.0149177
756.262	0.0147791
756.340	0.0148528
756.418	0.0148177
756.496	0.0148190
756.575	0.0146849
756.653	0.0147442
756.731	0.0148325
756.809	0.0148161
756.887	0.0149863
756.965	0.0148234
757.043	0.0147381
757.121	0.0149599
757.200	0.0148482
757.278	0.0146912
757.356	0.0147402
757.434	0.0146507
757.512	0.0148238
757.590	0.0150614
757.668	0.0148217
757.746	0.0148340
757.825	0.0146313
757.903	0.0146572
757.981	0.0147848
758.059	0.0148510
758.137	0.0147122
758.215	0.0148171
758.293	0.0149328
758.371	0.0147383
758.450	0.0147121
758.528	0.0147741
758.606	0.0148851
758.684	0.0150144
758.762	0.0149521
758.840	0.0148858
758.918	0.0148834
758.996	0.0147938
759.075	0.0147359
759.153	0.0148148
759.231	0.0147887
759.309	0.0147613
759.387	0.0147601
759.465	0.0147282
759.543	0.0147012
759.621	0.0148351
759.700	0.0148701
759.778	0.0146557
759.856	0.0147234
759.934	0.0147279
760.012	0.0147816
760.090	0.0148800
760.168	0.0149295
760.246	0.0147940
760.325	0.0148817
760.403	0.0148974
760.481	0.0148888
760.559	0.0148056
760.637	0.0148071
760.715	0.0148409
760.793	0.0147866
760.871	0.0149369
760.950	0.0149180
761.028	0.0147520
761.106	0.0148707
761.184	0.0148771
761.262	0.0148856
761.340	0.0148617
761.418	0.0148182
761.496	0.0148576
761.575	0.0147636
761.653	0.0148521
761.731	0.0149411
761.809	0.0148127
761.887	0.0148883
761.965	0.0149201
762.043	0.0148411
762.121	0.0148746
762.200	0.0149271
762.278	0.0147656
762.356	0.0148917
762.434	0.0148848
762.512	0.0148909
762.590	0.0148436
762.668	0.0148545
762.746	0.0150358
762.825	0.0146831
762.903	0.0149287
762.981	0.0148957
763.059	0.0149617
763.137	0.0148804
763.215	0.0149030
763.293	0.0150921
763.371	0.0149162
763.450	0.0149097
763.528	0.0147617
763.606	0.0149461
763.684	0.0150260
763.762	0.0148871
763.840	0.0149021
763.918	0.0148137
763.996	0.0148216
764.075	0.0148986
764.153	0.0148708
764.231	0.0146757
764.309	0.0148087
764.387	0.0147874
764.465	0.0147491
764.543	0.0145866
764.621	0.0147766
764.700	0.0146589
764.778	0.0146707
764.856	0.0148562
764.934	0.0148364
765.012	0.0147570
765.090	0.0145569
765.168	0.0146151
765.246	0.0146038
765.325	0.0145703
765.403	0.0146723
765.481	0.0147473
765.559	0.0147800
765.637	0.0147161
765.715	0.0147092
765.793	0.0147379
765.871	0.0147911
765.950	0.0147469
766.028	0.0148678
766.106	0.0148624
766.184	0.0147999
766.262	0.0146964
766.340	0.0147962
766.418	0.0147256
766.496	0.0148470
766.575	0.0148219
766.653	0.0148123
766.731	0.0147442
766.809	0.0146641
766.887	0.0148130
766.965	0.0148067
767.043	0.0148780
767.121	0.0148766
767.200	0.0147500
767.278	0.0146633
767.356	0.0146337
767.434	0.0147948
767.512	0.0149167
767.590	0.0148630
767.668	0.0147774
767.746	0.0148821
767.825	0.0148737
767.903	0.0149434
767.981	0.0150066
768.059	0.0148767
768.137	0.0148999
768.215	0.0147173
768.293	0.0147804
768.371	0.0147978
768.450	0.0148289
768.528	0.0148328
768.606	0.0148965
768.684	0.0148703
768.762	0.0148860
768.840	0.0148753
768.918	0.0147878
768.996	0.0148484
769.075	0.0148888
769.153	0.0148592
769.231	0.0149227
769.309	0.0147698
769.387	0.0148192
769.465	0.0149270
769.543	0.0149875
769.621	0.0150131
769.700	0.0148627
769.778	0.0148800
769.856	0.0148921
769.934	0.0148427
770.012	0.0148817
770.090	0.0148429
770.168	0.0149408
770.246	0.0148955
770.325	0.0148497
770.403	0.0149594
770.481	0.0149401
770.559	0.0148632
770.637	0.0150621
770.715	0.0151493
770.793	0.0150275
770.871	0.0149157
770.950	0.0149734
771.028	0.0150131
771.106	0.0149551
771.184	0.0149286
771.262	0.0149196
771.340	0.0148989
771.418	0.0149123
771.496	0.0149796
771.575	0.0149821
771.653	0.0149797
771.731	0.0149145
771.809	0.0149424
771.887	0.0148439
771.965	0.0150611
772.043	0.0149287
772.121	0.0149980
772.200	0.0149969
772.278	0.0149389
772.356	0.0150531
772.434	0.0148470
772.512	0.0149662
772.590	0.0148853
772.668	0.0147874
772.746	0.0148582
772.825	0.0148458
772.903	0.0148311
772.981	0.0147775
773.059	0.0147874
773.137	0.0148727
773.215	0.0147900
773.293	0.0148792
773.371	0.0148192
773.450	0.0147895
773.528	0.0147807
773.606	0.0149566
773.684	0.0148792
773.762	0.0148920
773.840	0.0148569
773.918	0.0147461
773.996	0.0146957
774.075	0.0148457
774.153	0.0148975
774.231	0.0148454
774.309	0.0148594
774.387	0.0148651
774.465	0.0147715
774.543	0.0147684
774.621	0.0147998
774.700	0.0148887
774.778	0.0146961
774.856	0.0148598
774.934	0.0149213
775.012	0.0146124
775.090	0.0147691
775.168	0.0148933
775.246	0.0148797
775.325	0.0148936
775.403	0.0147610
775.481	0.0149685
775.559	0.0149774
775.637	0.0149429
775.715	0.0147404
775.793	0.0147981
775.871	0.0149519
775.950	0.0149611
776.028	0.0148623
776.106	0.0148116
776.184	0.0148155
776.262	0.0147775
776.340	0.0148476
776.418	0.0147524
776.496	0.0148022
776.575	0.0146986
776.653	0.0148742
776.731	0.0148470
776.809	0.0148375
776.887	0.0147636
776.965	0.0149274
777.043	0.0147703
777.121	0.0146279
777.200	0.0148146
777.278	0.0147870
777.356	0.0147620
777.434	0.0148468
777.512	0.0148694
777.590	0.0147047
777.668	0.0147481
777.746	0.0147919
777.825	0.0147925
777.903	0.0148225
777.981	0.0149358
778.059	0.0147893
778.137	0.0147253
778.215	0.0148004
778.293	0.0148583
778.371	0.0149110
778.450	0.0148099
778.528	0.0148260
778.606	0.0148459
778.684	0.0148863
778.762	0.0149928
778.840	0.0148026
778.918	0.0147324
778.996	0.0148525
779.075	0.0149181
779.153	0.0148070
779.231	0.0148362
779.309	0.0147800
779.387	0.0147694
779.465	0.0148988
779.543	0.0148407
779.621	0.0148289
779.700	0.0148613
779.778	0.0149049
779.856	0.0148193
779.934	0.0147463
780.012	0.0148258
780.090	0.0148486
780.168	0.0148151
780.246	0.0148882
780.325	0.0148286
780.403	0.0147871
780.481	0.0148726
780.559	0.0148818
780.637	0.0147993
780.715	0.0147600
780.793	0.0148209
780.871	0.0148351
780.950	0.0147925
781.028	0.0146851
781.106	0.0148407
781.184	0.0148647
781.262	0.0147886
781.340	0.0148162
781.418	0.0148382
781.496	0.0147641
781.575	0.0147301
781.653	0.0146564
781.731	0.0146445
781.809	0.0148026
781.887	0.0149766
781.965	0.0147832
782.043	0.0147893
782.121	0.0148325
782.200	0.0147939
782.278	0.0148154
782.356	0.0148641
782.434	0.0148419
782.512	0.0147801
782.590	0.0147503
782.668	0.0148176
782.746	0.0148605
782.825	0.0146983
782.903	0.0148452
782.981	0.0148551
783.059	0.0147843
783.137	0.0148329
783.215	0.0147982
783.293	0.0147612
783.371	0.0147916
783.450	0.0149057
783.528	0.0148309
783.606	0.0148300
783.684	0.0148441
783.762	0.0148569
783.840	0.0147797
783.918	0.0148196
783.996	0.0148994
784.075	0.0148203
784.153	0.0147826
784.231	0.0149493
784.309	0.0148133
784.387	0.0147284
784.465	0.0146806
784.543	0.0146900
784.621	0.0147829
784.700	0.0148150
784.778	0.0147157
784.856	0.0147948
784.934	0.0148642
785.012	0.0147161
785.090	0.0147190
785.168	0.0146861
785.246	0.0146792
785.325	0.0147576
785.403	0.0145438
785.481	0.0147223
785.559	0.0149192
785.637	0.0147169
785.715	0.0148248
785.793	0.0147354
785.871	0.0147638
785.950	0.0147260
786.028	0.0148105
786.106	0.0148605
786.184	0.0147562
786.262	0.0147737
786.340	0.0147665
786.418	0.0147186
786.496	0.0147472
786.575	0.0147880
786.653	0.0148501
786.731	0.0148765
786.809	0.0147247
786.887	0.0146869
786.965	0.0148077
787.043	0.0147972
787.121	0.0147331
787.200	0.0147252
787.278	0.0146822
787.356	0.0147874
787.434	0.0148183
787.512	0.0147920
787.590	0.0148348
787.668	0.0147428
787.746	0.0146195
787.825	0.0147580
787.903	0.0148217
787.981	0.0147662
788.059	0.0147369
788.137	0.0148333
788.215	0.0146861
788.293	0.0146805
788.371	0.0148296
788.450	0.0147085
788.528	0.0147210
788.606	0.0149262
788.684	0.0148045
788.762	0.0147912
788.840	0.0148386
788.918	0.0147919
788.996	0.0148777
789.075	0.0147816
789.153	0.0147905
789.231	0.0147340
789.309	0.0149570
789.387	0.0146890
789.465	0.0147707
789.543	0.0148267
789.621	0.0148464
789.700	0.0148045
789.778	0.0147965
789.856	0.0148778
789.934	0.0147964
790.012	0.0148016
790.090	0.0148890
790.168	0.0148030
790.246	0.0147318
790.325	0.0148624
790.403	0.0148119
790.481	0.0147017
790.559	0.0149577
790.637	0.0147972
790.715	0.0147491
790.793	0.0148401
790.871	0.0149723
790.950	0.0148057
791.028	0.0148403
791.106	0.0149122
791.184	0.0147525
791.262	0.0147500
791.340	0.0147600
791.418	0.0148518
791.496	0.0149656
791.575	0.0148905
791.653	0.0148469
791.731	0.0148147
791.809	0.0148792
791.887	0.0149284
791.965	0.0148308
792.043	0.0148816
792.121	0.0149834
792.200	0.0149750
792.278	0.0150163
792.356	0.0148788
792.434	0.0150882
792.512	0.0149022
792.590	0.0148848
792.668	0.0149718
792.746	0.0149612
792.825	0.0150089
792.903	0.0148724
792.981	0.0149150
793.059	0.0149209
793.137	0.0148827
793.215	0.0149025
793.293	0.0148920
793.371	0.0147903
793.450	0.0149339
793.528	0.0148117
793.606	0.0150151
793.684	0.0150841
793.762	0.0149598
793.840	0.0148891
793.918	0.0149281
793.996	0.0147874
794.075	0.0149261
794.153	0.0149460
794.231	0.0148522
794.309	0.0149065
794.387	0.0149172
794.465	0.0147343
794.543	0.0149182
794.621	0.0148335
794.700	0.0148561
794.778	0.0147324
794.856	0.0147546
794.934	0.0148975
795.012	0.0149326
795.090	0.0148058
795.168	0.0148078
795.246	0.0149056
795.325	0.0149271
795.403	0.0149657
795.481	0.0148982
795.559	0.0149583
795.637	0.0150009
795.715	0.0149047
795.793	0.0149596
795.871	0.0149724
795.950	0.0149489
796.028	0.0149971
796.106	0.0150169
796.184	0.0149788
796.262	0.0149291
796.340	0.0148575
796.418	0.0149574
796.496	0.0150311
796.575	0.0149319
796.653	0.0149798
796.731	0.0149699
796.809	0.0148994
796.887	0.0148746
796.965	0.0148440
797.043	0.0148302
797.121	0.0147974
797.200	0.0149047
797.278	0.0147194
797.356	0.0146567
797.434	0.0147612
797.512	0.0148267
797.590	0.0147610
797.668	0.0148204
797.746	0.0147482
797.825	0.0146879
797.903	0.0147982
797.981	0.0148389
798.059	0.0147896
798.137	0.0147595
798.215	0.0146931
798.293	0.0147147
798.371	0.0147752
798.450	0.0148064
798.528	0.0148270
798.606	0.0147849
798.684	0.0148565
798.762	0.0147942
798.840	0.0147639
798.918	0.0147900
798.996	0.0149466
799.075	0.0149404
799.153	0.0149965
799.231	0.0148049
799.309	0.0148766
799.387	0.0148370
799.465	0.0148575
799.543	0.0148876
799.621	0.0148632
799.700	0.0149203
799.778	0.0148563
799.856	0.0148476
799.934	0.0148610
800.012	0.0148861
800.090	0.0148616
800.168	0.0148788
800.246	0.0147971
800.325	0.0150214
800.403	0.0149031
800.481	0.0148499
800.559	0.0148035
800.637	0.0148524
800.715	0.0147594
800.793	0.0146873
800.871	0.0147884
800.950	0.0149064
801.028	0.0146996
801.106	0.0148103
801.184	0.0147781
801.262	0.0148524
801.340	0.0149149
801.418	0.0148125
801.496	0.0148267
801.575	0.0148679
801.653	0.0148561
801.731	0.0149182
801.809	0.0149222
801.887	0.0148775
801.965	0.0148866
802.043	0.0148078
802.121	0.0149895
802.200	0.0149813
802.278	0.0148685
802.356	0.0149384
802.434	0.0148563
802.512	0.0148599
802.590	0.0149116
802.668	0.0149224
802.746	0.0148919
802.825	0.0148151
802.903	0.0148257
802.981	0.0148211
803.059	0.0149361
803.137	0.0151035
803.215	0.0148571
803.293	0.0148401
803.371	0.0147954
803.450	0.0148306
803.528	0.0148584
803.606	0.0148966
803.684	0.0148064
803.762	0.0147186
803.840	0.0148978
803.918	0.0149098
803.996	0.0148018
804.075	0.0149479
804.153	0.0147068
804.231	0.0147855
804.309	0.0149117
804.387	0.0148218
804.465	0.0148307
804.543	0.0147352
804.621	0.0149088
804.700	0.0148597
804.778	0.0148225
804.856	0.0148308
804.934	0.0148567
805.012	0.0148863
805.090	0.0148803
805.168	0.0147717
805.246	0.0148074
805.325	0.0147869
805.403	0.0148709
805.481	0.0149723
805.559	0.0148405
805.637	0.0147763
805.715	0.0147906
805.793	0.0148118
805.871	0.0147511
805.950	0.0147478
806.028	0.0148640
806.106	0.0146359
806.184	0.0147757
806.262	0.0148461
806.340	0.0148564
806.418	0.0148538
806.496	0.0148320
806.575	0.0148425
806.653	0.0147087
806.731	0.0147117
806.809	0.0147294
806.887	0.0148177
806.965	0.0149002
807.043	0.0150002
807.121	0.0147994
807.200	0.0148599
807.278	0.0149052
807.356	0.0148859
807.434	0.0149015
807.512	0.0149133
807.590	0.0147925
807.668	0.0148982
807.746	0.0149122
807.825	0.0149575
807.903	0.0147592
807.981	0.0148273
808.059	0.0148476
808.137	0.0148487
808.215	0.0149529
808.293	0.0149274
808.371	0.0147949
808.450	0.0147507
808.528	0.0147955
808.606	0.0148013
808.684	0.0147992
808.762	0.0148041
808.840	0.0147921
808.918	0.0147399
808.996	0.0149461
809.075	0.0148461
809.153	0.0147981
809.231	0.0148335
809.309	0.0147667
809.387	0.0148591
809.465	0.0148042
809.543	0.0147419
809.621	0.0147248
809.700	0.0147947
809.778	0.0147249
809.856	0.0147999
809.934	0.0148943
810.012	0.0149986
810.090	0.0148602
810.168	0.0147655
810.246	0.0148477
810.325	0.0147472
810.403	0.0148202
810.481	0.0148324
810.559	0.0148829
810.637	0.0147298
810.715	0.0148304
810.793	0.0149094
810.871	0.0148906
810.950	0.0148259
811.028	0.0147820
811.106	0.0149372
811.184	0.0149185
811.262	0.0149294
811.340	0.0149125
811.418	0.0148799
811.496	0.0149358
811.575	0.0148639
811.653	0.0148510
811.731	0.0148499
811.809	0.0148270
811.887	0.0150501
811.965	0.0148098
812.043	0.0146685
812.121	0.0148116
812.200	0.0147803
812.278	0.0149117
812.356	0.0148241
812.434	0.0147177
812.512	0.0148753
812.590	0.0148620
812.668	0.0147839
812.746	0.0148949
812.825	0.0148283
812.903	0.0148888
812.981	0.0148419
813.059	0.0147888
813.137	0.0149297
813.215	0.0147764
813.293	0.0148777
813.371	0.0148254
813.450	0.0148729
813.528	0.0148940
813.606	0.0148307
813.684	0.0148687
813.762	0.0148448
813.840	0.0148406
813.918	0.0148113
813.996	0.0148768
814.075	0.0147477
814.153	0.0148246
814.231	0.0148745
814.309	0.0149249
814.387	0.0149663
814.465	0.0149155
814.543	0.0149347
814.621	0.0148743
814.700	0.0148143
814.778	0.0149136
814.856	0.0147968
814.934	0.0148651
815.012	0.0149649
815.090	0.0148654
815.168	0.0147979
815.246	0.0147388
815.325	0.0149481
815.403	0.0148718
815.481	0.0148190
815.559	0.0149585
815.637	0.0147308
815.715	0.0148992
815.793	0.0150315
815.871	0.0148261
815.950	0.0148788
816.028	0.0148221
816.106	0.0148967
816.184	0.0148632
816.262	0.0148542
816.340	0.0148405
816.418	0.0149139
816.496	0.0148111
816.575	0.0148512
816.653	0.0148120
816.731	0.0147320
816.809	0.0147533
816.887	0.0148581
816.965	0.0148022
817.043	0.0147539
817.121	0.0148413
817.200	0.0147666
817.278	0.0148123
817.356	0.0149387
817.434	0.0147772
817.512	0.0148602
817.590	0.0147703
817.668	0.0148317
817.746	0.0146972
817.825	0.0148304
817.903	0.0147999
817.981	0.0148103
818.059	0.0147472
818.137	0.0148422
818.215	0.0148930
818.293	0.0148242
818.371	0.0148042
818.450	0.0148424
818.528	0.0149173
818.606	0.0148724
818.684	0.0148328
818.762	0.0150508
818.840	0.0147905
818.918	0.0148148
818.996	0.0148918
819.075	0.0148244
819.153	0.0148673
819.231	0.0148793
819.309	0.0147461
819.387	0.0147761
819.465	0.0148129
819.543	0.0147873
819.621	0.0148100
819.700	0.0148588
819.778	0.0147640
819.856	0.0147254
819.934	0.0147105
820.012	0.0146939
820.090	0.0147620
820.168	0.0148329
820.246	0.0147334
820.325	0.0148191
820.403	0.0148791
820.481	0.0147772
820.559	0.0147894
820.637	0.0148589
820.715	0.0148084
820.793	0.0148615
820.871	0.0148141
820.950	0.0146583
821.028	0.0148158
821.106	0.0148441
821.184	0.0149418
821.262	0.0148061
821.340	0.0148380
821.418	0.0147266
821.496	0.0148646
821.575	0.0148260
821.653	0.0147964
821.731	0.0148965
821.809	0.0149453
821.887	0.0147787
821.965	0.0149083
822.043	0.0149606
822.121	0.0148671
822.200	0.0148960
822.278	0.0148825
822.356	0.0149460
822.434	0.0148237
822.512	0.0148148
822.590	0.0148950
822.668	0.0149680
822.746	0.0148581
822.825	0.0147941
822.903	0.0149304
822.981	0.0148331
823.059	0.0148801
823.137	0.0149995
823.215	0.0148816
823.293	0.0148669
823.371	0.0148807
823.450	0.0147347
823.528	0.0148180
823.606	0.0150162
823.684	0.0149146
823.762	0.0150447
823.840	0.0148557
823.918	0.0147717
823.996	0.0147852
824.075	0.0149829
824.153	0.0148622
824.231	0.0148039
824.309	0.0150391
824.387	0.0147063
824.465	0.0148744
824.543	0.0148911
824.621	0.0149670
824.700	0.0149851
824.778	0.0148150
824.856	0.0148838
824.934	0.0150036
825.012	0.0149034
825.090	0.0148056
825.168	0.0148644
825.246	0.0149200
825.325	0.0147160
825.403	0.0149257
825.481	0.0148344
825.559	0.0148787
825.637	0.0148759
825.715	0.0147539
825.793	0.0149174
825.871	0.0147881
825.950	0.0149026
826.028	0.0148002
826.106	0.0149385
826.184	0.0150163
826.262	0.0148361
826.340	0.0149453
826.418	0.0149811
826.496	0.0148627
826.575	0.0147894
826.653	0.0148862
826.731	0.0150217
826.809	0.0148566
826.887	0.0150194
826.965	0.0148634
827.043	0.0148318
827.121	0.0148519
827.200	0.0147585
827.278	0.0148709
827.356	0.0148499
827.434	0.0148036
827.512	0.0149192
827.590	0.0147874
827.668	0.0149435
827.746	0.0148483
827.825	0.0147832
827.903	0.0148515
827.981	0.0149458
828.059	0.0148625
828.137	0.0147195
828.215	0.0149075
828.293	0.0149854
828.371	0.0148946
828.450	0.0148338
828.528	0.0148358
828.606	0.0149448
828.684	0.0149454
828.762	0.0149403
828.840	0.0149538
828.918	0.0150014
828.996	0.0149636
829.075	0.0147079
829.153	0.0148787
829.231	0.0150140
829.309	0.0148524
829.387	0.0148791
829.465	0.0149425
829.543	0.0148488
829.621	0.0148301
829.700	0.0148843
829.778	0.0148876
829.856	0.0148936
829.934	0.0147814
830.012	0.0148773
830.090	0.0149587
830.168	0.0148157
830.246	0.0148006
830.325	0.0149403
830.403	0.0150185
830.481	0.0148816
830.559	0.0148283
830.637	0.0149088
830.715	0.0148224
830.793	0.0148322
830.871	0.0149879
830.950	0.0149234
831.028	0.0148535
831.106	0.0148990
831.184	0.0148699
831.262	0.0149873
831.340	0.0149200
831.418	0.0149446
831.496	0.0150073
831.575	0.0151450
831.653	0.0148882
831.731	0.0148035
831.809	0.0149639
831.887	0.0148827
831.965	0.0149929
832.043	0.0149113
832.121	0.0149024
832.200	0.0148138
832.278	0.0147738
832.356	0.0148960
832.434	0.0146712
832.512	0.0147631
832.590	0.0148139
832.668	0.0148525
832.746	0.0149105
832.825	0.0147908
832.903	0.0147681
832.981	0.0148447
833.059	0.0148613
833.137	0.0147782
833.215	0.0147906
833.293	0.0148951
833.371	0.0148596
833.450	0.0149039
833.528	0.0147797
833.606	0.0147872
833.684	0.0148028
833.762	0.0150113
833.840	0.0148463
833.918	0.0146989
833.996	0.0150553
834.075	0.0148122
834.153	0.0148907
834.231	0.0149133
834.309	0.0148320
834.387	0.0149002
834.465	0.0148032
834.543	0.0148466
834.621	0.0148998
834.700	0.0149530
834.778	0.0148544
834.856	0.0148932
834.934	0.0148409
835.012	0.0149158
835.090	0.0149120
835.168	0.0148419
835.246	0.0149026
835.325	0.0147057
835.403	0.0148250
835.481	0.0146973
835.559	0.0148284
835.637	0.0148081
835.715	0.0147520
835.793	0.0147005
835.871	0.0147601
835.950	0.0146780
836.028	0.0149499
836.106	0.0147166
836.184	0.0148183
836.262	0.0148029
836.340	0.0146902
836.418	0.0146761
836.496	0.0147426
836.575	0.0146626
836.653	0.0147156
836.731	0.0148779
836.809	0.0148534
836.887	0.0146769
836.965	0.0147140
837.043	0.0147937
837.121	0.0148175
837.200	0.0146548
837.278	0.0147464
837.356	0.0149100
837.434	0.0146195
837.512	0.0147285
837.590	0.0146665
837.668	0.0146421
837.746	0.0148037
837.825	0.0147861
837.903	0.0147064
837.981	0.0148628
838.059	0.0147166
838.137	0.0148320
838.215	0.0148729
838.293	0.0148095
838.371	0.0147424
838.450	0.0148431
838.528	0.0148623
838.606	0.0148887
838.684	0.0150176
838.762	0.0148032
838.840	0.0147883
838.918	0.0148873
838.996	0.0147865
839.075	0.0147517
839.153	0.0149493
839.231	0.0147649
839.309	0.0148386
839.387	0.0147725
839.465	0.0147868
839.543	0.0148288
839.621	0.0147681
839.700	0.0147285
839.778	0.0147796
839.856	0.0148684
839.934	0.0148502
840.012	0.0147626
840.090	0.0147001
840.168	0.0148240
840.246	0.0147948
840.325	0.0148231
840.403	0.0147767
840.481	0.0148266
840.559	0.0148286
840.637	0.0148559
840.715	0.0148619
840.793	0.0147930
840.871	0.0146891
840.950	0.0147990
841.028	0.0148428
841.106	0.0148741
841.184	0.0147986
841.262	0.0149004
841.340	0.0149403
841.418	0.0149386
841.496	0.0148679
841.575	0.0148438
841.653	0.0148794
841.731	0.0149226
841.809	0.0148192
841.887	0.0148694
841.965	0.0149503
842.043	0.0149564
842.121	0.0149007
842.200	0.0149771
842.278	0.0149856
842.356	0.0149615
842.434	0.0148524
842.512	0.0149648
842.590	0.0147525
842.668	0.0150417
842.746	0.0148657
842.825	0.0148465
842.903	0.0149155
842.981	0.0148222
843.059	0.0148657
843.137	0.0147552
843.215	0.0147048
843.293	0.0148557
843.371	0.0147887
843.450	0.0147126
843.528	0.0148420
843.606	0.0148116
843.684	0.0147767
843.762	0.0147380
843.840	0.0148365
843.918	0.0147251
843.996	0.0148587
844.075	0.0150191
844.153	0.0149068
844.231	0.0148292
844.309	0.0149493
844.387	0.0149697
844.465	0.0148863
844.543	0.0148545
844.621	0.0147462
844.700	0.0149655
844.778	0.0148605
844.856	0.0149183
844.934	0.0147666
845.012	0.0148012
845.090	0.0147346
845.168	0.0148188
845.246	0.0148399
845.325	0.0147637
845.403	0.0148335
845.481	0.0149278
845.559	0.0148392
845.637	0.0149377
845.715	0.0148587
845.793	0.0147961
845.871	0.0149069
845.950	0.0149336
846.028	0.0148882
846.106	0.0147182
846.184	0.0148219
846.262	0.0149066
846.340	0.0149343
846.418	0.0148202
846.496	0.0147195
846.575	0.0147640
846.653	0.0146816
846.731	0.0149907
846.809	0.0149500
846.887	0.0148666
846.965	0.0148689
847.043	0.0148473
847.121	0.0148303
847.200	0.0149207
847.278	0.0148351
847.356	0.0148293
847.434	0.0149398
847.512	0.0147698
847.590	0.0146955
847.668	0.0148498
847.746	0.0148129
847.825	0.0149732
847.903	0.0147857
847.981	0.0147255
848.059	0.0148917
848.137	0.0147115
848.215	0.0148494
848.293	0.0148668
848.371	0.0147316
848.450	0.0148318
848.528	0.0147852
848.606	0.0148426
848.684	0.0148442
848.762	0.0148536
848.840	0.0148276
848.918	0.0148322
848.996	0.0148600
849.075	0.0148168
849.153	0.0147030
849.231	0.0148510
849.309	0.0149963
849.387	0.0149203
849.465	0.0147065
849.543	0.0147681
849.621	0.0148646
849.700	0.0148734
849.778	0.0148254
849.856	0.0149089
849.934	0.0148847
850.012	0.0148847
850.090	0.0148924
850.168	0.0148587
850.246	0.0149827
850.325	0.0148734
850.403	0.0148026
850.481	0.0148741
850.559	0.0149042
850.637	0.0148613
850.715	0.0148116
850.793	0.0149026
850.871	0.0149564
850.950	0.0149041
851.028	0.0148232
851.106	0.0149358
851.184	0.0148898
851.262	0.0147740
851.340	0.0148061
851.418	0.0148652
851.496	0.0148918
851.575	0.0149589
851.653	0.0149222
851.731	0.0149436
851.809	0.0147852
851.887	0.0148740
851.965	0.0149462
852.043	0.0149299
852.121	0.0148689
852.200	0.0148743
852.278	0.0148412
852.356	0.0148203
852.434	0.0148183
852.512	0.0147318
852.590	0.0147446
852.668	0.0148541
852.746	0.0148915
852.825	0.0148743
852.903	0.0147511
852.981	0.0149572
853.059	0.0149367
853.137	0.0148693
853.215	0.0147906
853.293	0.0147154
853.371	0.0148691
853.450	0.0148291
853.528	0.0148813
853.606	0.0149036
853.684	0.0148303
853.762	0.0148002
853.840	0.0148122
853.918	0.0148235
853.996	0.0146426
854.075	0.0146994
854.153	0.0149301
854.231	0.0147517
854.309	0.0147355
854.387	0.0148588
854.465	0.0147904
854.543	0.0148171
854.621	0.0148838
854.700	0.0148528
854.778	0.0149251
854.856	0.0148849
854.934	0.0147840
855.012	0.0148254
855.090	0.0147306
855.168	0.0146854
855.246	0.0147971
855.325	0.0149334
855.403	0.0148161
855.481	0.0147859
855.559	0.0148123
855.637	0.0148188
855.715	0.0148856
855.793	0.0148309
855.871	0.0148474
855.950	0.0149192
856.028	0.0149945
856.106	0.0149992
856.184	0.0148578
856.262	0.0149522
856.340	0.0149186
856.418	0.0149183
856.496	0.0148819
856.575	0.0148979
856.653	0.0148947
856.731	0.0148451
856.809	0.0148500
856.887	0.0148592
856.965	0.0149256
857.043	0.0148630
857.121	0.0148199
857.200	0.0149451
857.278	0.0148763
857.356	0.0149152
857.434	0.0148385
857.512	0.0147261
857.590	0.0148990
857.668	0.0149461
857.746	0.0149215
857.825	0.0147659
857.903	0.0147750
857.981	0.0148119
858.059	0.0149043
858.137	0.0149429
858.215	0.0148034
858.293	0.0149057
858.371	0.0148079
858.450	0.0147699
858.528	0.0148023
858.606	0.0147433
858.684	0.0148097
858.762	0.0147181
858.840	0.0148147
858.918	0.0148969
858.996	0.0148512
859.075	0.0147815
859.153	0.0148713
859.231	0.0148165
859.309	0.0148795
859.387	0.0148663
859.465	0.0147680
859.543	0.0148575
859.621	0.0147809
859.700	0.0147341
859.778	0.0147281
859.856	0.0148389
859.934	0.0146946
860.012	0.0147826
860.090	0.0146842
860.168	0.0146919
860.246	0.0146832
860.325	0.0148203
860.403	0.0146664
860.481	0.0148101
860.559	0.0147189
860.637	0.0147252
860.715	0.0148283
860.793	0.0147649
860.871	0.0146923
860.950	0.0147230
861.028	0.0148132
861.106	0.0149609
861.184	0.0148028
861.262	0.0146577
861.340	0.0147226
861.418	0.0147262
861.496	0.0146823
861.575	0.0146745
861.653	0.0146784
861.731	0.0146420
861.809	0.0146855
861.887	0.0146584
861.965	0.0147807
862.043	0.0148341
862.121	0.0147934
862.200	0.0147433
862.278	0.0148709
862.356	0.0148247
862.434	0.0148153
862.512	0.0147085
862.590	0.0149678
862.668	0.0147350
862.746	0.0148822
862.825	0.0147425
862.903	0.0148307
862.981	0.0148634
863.059	0.0147089
863.137	0.0148729
863.215	0.0148843
863.293	0.0149248
863.371	0.0149106
863.450	0.0148428
863.528	0.0148373
863.606	0.0149194
863.684	0.0148032
863.762	0.0148302
863.840	0.0149251
863.918	0.0150441
863.996	0.0149165
864.075	0.0147504
864.153	0.0148064
864.231	0.0148785
864.309	0.0147813
864.387	0.0147753
864.465	0.0149141
864.543	0.0149306
864.621	0.0149226
864.700	0.0149689
864.778	0.0148196
864.856	0.0149789
864.934	0.0149530
865.012	0.0149097
865.090	0.0149741
865.168	0.0149380
865.246	0.0150330
865.325	0.0149561
865.403	0.0150614
865.481	0.0147350
865.559	0.0147812
865.637	0.0149997
865.715	0.0149622
865.793	0.0149762
865.871	0.0149841
865.950	0.0149004
866.028	0.0149181
866.106	0.0148483
866.184	0.0150039
866.262	0.0149321
866.340	0.0149296
866.418	0.0148924
866.496	0.0148933
866.575	0.0149683
866.653	0.0149297
866.731	0.0149171
866.809	0.0150392
866.887	0.0148731
866.965	0.0150397
867.043	0.0148853
867.121	0.0149014
867.200	0.0148589
867.278	0.0148443
867.356	0.0148015
867.434	0.0148520
867.512	0.0149603
867.590	0.0149069
867.668	0.0149920
867.746	0.0147163
867.825	0.0149087
867.903	0.0149462
867.981	0.0148908
868.059	0.0149005
868.137	0.0147941
868.215	0.0148477
868.293	0.0148680
868.371	0.0148060
868.450	0.0149079
868.528	0.0146992
868.606	0.0149107
868.684	0.0148526
868.762	0.0147039
868.840	0.0147421
868.918	0.0149711
868.996	0.0148401
869.075	0.0147394
869.153	0.0148350
869.231	0.0149024
869.309	0.0146886
869.387	0.0148192
869.465	0.0149464
869.543	0.0149292
869.621	0.0147616
869.700	0.0147771
869.778	0.0148428
869.856	0.0147029
869.934	0.0146680
870.012	0.0149039
870.090	0.0148539
870.168	0.0148322
870.246	0.0148148
870.325	0.0147677
870.403	0.0148466
870.481	0.0148160
870.559	0.0148972
870.637	0.0147835
870.715	0.0148876
870.793	0.0146073
870.871	0.0146994
870.950	0.0147665
871.028	0.0148328
871.106	0.0148675
871.184	0.0148052
871.262	0.0147002
871.340	0.0149239
871.418	0.0148354
871.496	0.0146585
871.575	0.0148992
871.653	0.0147973
871.731	0.0147214
871.809	0.0147352
871.887	0.0149522
871.965	0.0148375
872.043	0.0148737
872.121	0.0149040
872.200	0.0147334
872.278	0.0147557
872.356	0.0147948
872.434	0.0149338
872.512	0.0146818
872.590	0.0147783
872.668	0.0148617
872.746	0.0147724
872.825	0.0147762
872.903	0.0147603
872.981	0.0147557
873.059	0.0146659
873.137	0.0148106
873.215	0.0148512
873.293	0.0148940
873.371	0.0147105
873.450	0.0149112
873.528	0.0148304
873.606	0.0149062
873.684	0.0148270
873.762	0.0147341
873.840	0.0148267
873.918	0.0149177
873.996	0.0147449
874.075	0.0146693
874.153	0.0147591
874.231	0.0147014
874.309	0.0148512
874.387	0.0147031
874.465	0.0147504
874.543	0.0147311
874.621	0.0147823
874.700	0.0149171
874.778	0.0148602
874.856	0.0147303
874.934	0.0146455
875.012	0.0147493
875.090	0.0148196
875.168	0.0148981
875.246	0.0149417
875.325	0.0147577
875.403	0.0148021
875.481	0.0149317
875.559	0.0149313
875.637	0.0149419
875.715	0.0148678
875.793	0.0148883
875.871	0.0148710
875.950	0.0148106
876.028	0.0150018
876.106	0.0149603
876.184	0.0149284
876.262	0.0149284
876.340	0.0149178
876.418	0.0148035
876.496	0.0148730
876.575	0.0149527
876.653	0.0149214
876.731	0.0148499
876.809	0.0147678
876.887	0.0147633
876.965	0.0146410
877.043	0.0148013
877.121	0.0147907
877.200	0.0147135
877.278	0.0148366
877.356	0.0148956
877.434	0.0148230
877.512	0.0149413
877.590	0.0147877
877.668	0.0148430
877.746	0.0147688
877.825	0.0148319
877.903	0.0148724
877.981	0.0147631
878.059	0.0148454
878.137	0.0148689
878.215	0.0147962
878.293	0.0148673
878.371	0.0148054
878.450	0.0148580
878.528	0.0148517
878.606	0.0146974
878.684	0.0148807
878.762	0.0148644
878.840	0.0147675
878.918	0.0148042
878.996	0.0148895
879.075	0.0147475
879.153	0.0148840
879.231	0.0149197
879.309	0.0149783
879.387	0.0148316
879.465	0.0147325
879.543	0.0149174
879.621	0.0149240
879.700	0.0149136
879.778	0.0147300
879.856	0.0146432
879.934	0.0148069
880.012	0.0147737
880.090	0.0147139
880.168	0.0148457
880.246	0.0148045
880.325	0.0148472
880.403	0.0147411
880.481	0.0146807
880.559	0.0147889
880.637	0.0147172
880.715	0.0148116
880.793	0.0147649
880.871	0.0147527
880.950	0.0149232
881.028	0.0148177
881.106	0.0147524
881.184	0.0148672
881.262	0.0149130
881.340	0.0148136
881.418	0.0148643
881.496	0.0148701
881.575	0.0147923
881.653	0.0148688
881.731	0.0148877
881.809	0.0148125
881.887	0.0148271
881.965	0.0149032
882.043	0.0147766
882.121	0.0148494
882.200	0.0147844
882.278	0.0147279
882.356	0.0149388
882.434	0.0148643
882.512	0.0147217
882.590	0.0148968
882.668	0.0147194
882.746	0.0146532
882.825	0.0148645
882.903	0.0147856
882.981	0.0147302
883.059	0.0147491
883.137	0.0147044
883.215	0.0146976
883.293	0.0148721
883.371	0.0146670
883.450	0.0147002
883.528	0.0147617
883.606	0.0148520
883.684	0.0147327
883.762	0.0147810
883.840	0.0148009
883.918	0.0147202
883.996	0.0148824
884.075	0.0148450
884.153	0.0150159
884.231	0.0149153
884.309	0.0147957
884.387	0.0147057
884.465	0.0149416
884.543	0.0149159
884.621	0.0148807
884.700	0.0148219
884.778	0.0148434
884.856	0.0149406
884.934	0.0148454
885.012	0.0147562
885.090	0.0149010
885.168	0.0149232
885.246	0.0150166
885.325	0.0150903
885.403	0.0149887
885.481	0.0149074
885.559	0.0150293
885.637	0.0150141
885.715	0.0148821
885.793	0.0147759
885.871	0.0148100
885.950	0.0147112
886.028	0.0148207
886.106	0.0149049
886.184	0.0148383
886.262	0.0147488
886.340	0.0148103
886.418	0.0149131
886.496	0.0150506
886.575	0.0148721
886.653	0.0150342
886.731	0.0148561
886.809	0.0149223
886.887	0.0148324
886.965	0.0149824
887.043	0.0149950
887.121	0.0149265
887.200	0.0148430
887.278	0.0151000
887.356	0.0148981
887.434	0.0149091
887.512	0.0150784
887.590	0.0148680
887.668	0.0148325
887.746	0.0150122
887.825	0.0148989
887.903	0.0149216
887.981	0.0147477
888.059	0.0148814
888.137	0.0148299
888.215	0.0150542
888.293	0.0151083
888.371	0.0149926
888.450	0.0149444
888.528	0.0150069
888.606	0.0150832
888.684	0.0149543
888.762	0.0149374
888.840	0.0149376
888.918	0.0149094
888.996	0.0149660
889.075	0.0149282
889.153	0.0148827
889.231	0.0149594
889.309	0.0149443
889.387	0.0150271
889.465	0.0148240
889.543	0.0147976
889.621	0.0149540
889.700	0.0148409
889.778	0.0147729
889.856	0.0150194
889.934	0.0149786
890.012	0.0147333
890.090	0.0146751
890.168	0.0147864
890.246	0.0147337
890.325	0.0147275
890.403	0.0148539
890.481	0.0147617
890.559	0.0147019
890.637	0.0147243
890.715	0.0147926
890.793	0.0148871
890.871	0.0148176
890.950	0.0147417
891.028	0.0149667
891.106	0.0149371
891.184	0.0149441
891.262	0.0149137
891.340	0.0150117
891.418	0.0150719
891.496	0.0147113
891.575	0.0148240
891.653	0.0150381
891.731	0.0149481
891.809	0.0147693
891.887	0.0148457
891.965	0.0147415
892.043	0.0147392
892.121	0.0147543
892.200	0.0147673
892.278	0.0145823
892.356	0.0147614
892.434	0.0147413
892.512	0.0147201
892.590	0.0147736
892.668	0.0149390
892.746	0.0147295
892.825	0.0148964
892.903	0.0147887
892.981	0.0149833
893.059	0.0149265
893.137	0.0148633
893.215	0.0148712
893.293	0.0149213
893.371	0.0149096
893.450	0.0147574
893.528	0.0148899
893.606	0.0148207
893.684	0.0148148
893.762	0.0147891
893.840	0.0147645
893.918	0.0148914
893.996	0.0147731
894.075	0.0147652
894.153	0.0149448
894.231	0.0147415
894.309	0.0148716
894.387	0.0147312
894.465	0.0148318
894.543	0.0148479
894.621	0.0149043
894.700	0.0149914
894.778	0.0148690
894.856	0.0148003
894.934	0.0149339
895.012	0.0146283
895.090	0.0146165
895.168	0.0148530
895.246	0.0147958
895.325	0.0147903
895.403	0.0147040
895.481	0.0148703
895.559	0.0147466
895.637	0.0147858
895.715	0.0148582
895.793	0.0148952
895.871	0.0147204
895.950	0.0149111
896.028	0.0148699
896.106	0.0147497
896.184	0.0149424
896.262	0.0148976
896.340	0.0149487
896.418	0.0149823
896.496	0.0148807
896.575	0.0148389
896.653	0.0148489
896.731	0.0148163
896.809	0.0147528
896.887	0.0146368
896.965	0.0146620
897.043	0.0147854
897.121	0.0147368
897.200	0.0147091
897.278	0.0147567
897.356	0.0146504
897.434	0.0147674
897.512	0.0148319
897.590	0.0148510
897.668	0.0148294
897.746	0.0146896
897.825	0.0149746
897.903	0.0148412
897.981	0.0149591
898.059	0.0148995
898.137	0.0149150
898.215	0.0150486
898.293	0.0149734
898.371	0.0149240
898.450	0.0148366
898.528	0.0148970
898.606	0.0148203
898.684	0.0148674
898.762	0.0147634
898.840	0.0148006
898.918	0.0147598
898.996	0.0149006
899.075	0.0148611
899.153	0.0147869
899.231	0.0148951
899.309	0.0148469
899.387	0.0148227
899.465	0.0148325
899.543	0.0148727
899.621	0.0148887
899.700	0.0147874
899.778	0.0147343
899.856	0.0147793
899.934	0.0148500
900.012	0.0149019
900.090	0.0146805
900.168	0.0148284
900.246	0.0147375
900.325	0.0147939
900.403	0.0148415
900.481	0.0149043
900.559	0.0148009
900.637	0.0146432
900.715	0.0148477
900.793	0.0148016
900.871	0.0148500
900.950	0.0149229
901.028	0.0148972
901.106	0.0148228
901.184	0.0148671
901.262	0.0147480
901.340	0.0148349
901.418	0.0147404
901.496	0.0147017
901.575	0.0148233
901.653	0.0146434
901.731	0.0146491
901.809	0.0148822
901.887	0.0146686
901.965	0.0147916
902.043	0.0148049
902.121	0.0148882
902.200	0.0147978
902.278	0.0148505
902.356	0.0149010
902.434	0.0149691
902.512	0.0149004
902.590	0.0148871
902.668	0.0148331
902.746	0.0149408
902.825	0.0149056
902.903	0.0148508
902.981	0.0148344
903.059	0.0148413
903.137	0.0148595
903.215	0.0148398
903.293	0.0148207
903.371	0.0147709
903.450	0.0148051
903.528	0.0147425
903.606	0.0147295
903.684	0.0148596
903.762	0.0147726
903.840	0.0149450
903.918	0.0148586
903.996	0.0146286
904.075	0.0147551
904.153	0.0147876
904.231	0.0148692
904.309	0.0147222
904.387	0.0146953
904.465	0.0146828
904.543	0.0147670
904.621	0.0148042
904.700	0.0147176
904.778	0.0147534
904.856	0.0147485
904.934	0.0148083
905.012	0.0147833
905.090	0.0148463
905.168	0.0148315
905.246	0.0147770
905.325	0.0148093
905.403	0.0148130
905.481	0.0147860
905.559	0.0149717
905.637	0.0148693
905.715	0.0148544
905.793	0.0149788
905.871	0.0149972
905.950	0.0148190
906.028	0.0147849
906.106	0.0149117
906.184	0.0148986
906.262	0.0148719
906.340	0.0149638
906.418	0.0147843
906.496	0.0147346
906.575	0.0148101
906.653	0.0148530
906.731	0.0148319
906.809	0.0147896
906.887	0.0148566
906.965	0.0148675
907.043	0.0147802
907.121	0.0148662
907.200	0.0148435
907.278	0.0147176
907.356	0.0147633
907.434	0.0149664
907.512	0.0148333
907.590	0.0147349
907.668	0.0148734
907.746	0.0147775
907.825	0.0148094
907.903	0.0147308
907.981	0.0146959
908.059	0.0148929
908.137	0.0148241
908.215	0.0149628
908.293	0.0147681
908.371	0.0147476
908.450	0.0148734
908.528	0.0148396
908.606	0.0148326
908.684	0.0148607
908.762	0.0148866
908.840	0.0147722
908.918	0.0148453
908.996	0.0149717
909.075	0.0149020
909.153	0.0147112
909.231	0.0147699
909.309	0.0147653
909.387	0.0149091
909.465	0.0149132
909.543	0.0148359
909.621	0.0149530
909.700	0.0148985
909.778	0.0147886
909.856	0.0149287
909.934	0.0148130
910.012	0.0147909
910.090	0.0147149
910.168	0.0147972
910.246	0.0147665
910.325	0.0149545
910.403	0.0148837
910.481	0.0149198
910.559	0.0149682
910.637	0.0149844
910.715	0.0148159
910.793	0.0148215
910.871	0.0149333
910.950	0.0148528
911.028	0.0148391
911.106	0.0148392
911.184	0.0148707
911.262	0.0148548
911.340	0.0147950
911.418	0.0148833
911.496	0.0148507
911.575	0.0148174
911.653	0.0147515
911.731	0.0147493
911.809	0.0147757
911.887	0.0148518
911.965	0.0149223
912.043	0.0148573
912.121	0.0149050
912.200	0.0149974
912.278	0.0149176
912.356	0.0149416
912.434	0.0150189
912.512	0.0148917
912.590	0.0148636
912.668	0.0148661
912.746	0.0148438
912.825	0.0148469
912.903	0.0149142
912.981	0.0147720
913.059	0.0147404
913.137	0.0147131
913.215	0.0147802
913.293	0.0147842
913.371	0.0147266
913.450	0.0148936
913.528	0.0148345
913.606	0.0147906
913.684	0.0149122
913.762	0.0148080
913.840	0.0148705
913.918	0.0148270
913.996	0.0149458
914.075	0.0149079
914.153	0.0147745
914.231	0.0149091
914.309	0.0147808
914.387	0.0147341
914.465	0.0147932
914.543	0.0147884
914.621	0.0147825
914.700	0.0147583
914.778	0.0149184
914.856	0.0149349
914.934	0.0147950
915.012	0.0147252
915.090	0.0145853
915.168	0.0148418
915.246	0.0149445
915.325	0.0149863
915.403	0.0149079
915.481	0.0147754
915.559	0.0148459
915.637	0.0147914
915.715	0.0148508
915.793	0.0146979
915.871	0.0147152
915.950	0.0148243
916.028	0.0147903
916.106	0.0148080
916.184	0.0147690
916.262	0.0146973
916.340	0.0148884
916.418	0.0148760
916.496	0.0148444
916.575	0.0146339
916.653	0.0148388
916.731	0.0147307
916.809	0.0148701
916.887	0.0147905
916.965	0.0147808
917.043	0.0148038
917.121	0.0148008
917.200	0.0147871
917.278	0.0147498
917.356	0.0146712
917.434	0.0149296
917.512	0.0147269
917.590	0.0148020
917.668	0.0147607
917.746	0.0147033
917.825	0.0148367
917.903	0.0147755
917.981	0.0147552
918.059	0.0147252
918.137	0.0148410
918.215	0.0147321
918.293	0.0146848
918.371	0.0147554
918.450	0.0149082
918.528	0.0146973
918.606	0.0147253
918.684	0.0146333
918.762	0.0146857
918.840	0.0147317
918.918	0.0148745
918.996	0.0147607
919.075	0.0148682
919.153	0.0148076
919.231	0.0148506
919.309	0.0148867
919.387	0.0147666
919.465	0.0149332
919.543	0.0148524
919.621	0.0148844
919.700	0.0149045
919.778	0.0149108
919.856	0.0148979
919.934	0.0147424
920.012	0.0149007
920.090	0.0147986
920.168	0.0148386
920.246	0.0148921
920.325	0.0149699
920.403	0.0147738
920.481	0.0149170
920.559	0.0148566
920.637	0.0148719
920.715	0.0147766
920.793	0.0148516
920.871	0.0148326
920.950	0.0149131
921.028	0.0149330
921.106	0.0149407
921.184	0.0147364
921.262	0.0148357
921.340	0.0147914
921.418	0.0148360
921.496	0.0148589
921.575	0.0148106
921.653	0.0148623
921.731	0.0148682
921.809	0.0149194
921.887	0.0149594
921.965	0.0148744
922.043	0.0149685
922.121	0.0149631
922.200	0.0147888
922.278	0.0148761
922.356	0.0149086
922.434	0.0148401
922.512	0.0147302
922.590	0.0148852
922.668	0.0150891
922.746	0.0148708
922.825	0.0147602
922.903	0.0148418
922.981	0.0147665
923.059	0.0149172
923.137	0.0147543
923.215	0.0148283
923.293	0.0150302
923.371	0.0150089
923.450	0.0149693
923.528	0.0148356
923.606	0.0146711
923.684	0.0149243
923.762	0.0148390
923.840	0.0149032
923.918	0.0150301
923.996	0.0148509
924.075	0.0147983
924.153	0.0148048
924.231	0.0149182
924.309	0.0151157
924.387	0.0149075
924.465	0.0148923
924.543	0.0148832
924.621	0.0149828
924.700	0.0149635
924.778	0.0147945
924.856	0.0148221
924.934	0.0149432
925.012	0.0149622
925.090	0.0147055
925.168	0.0148965
925.246	0.0148539
925.325	0.0150272
925.403	0.0147798
925.481	0.0148553
925.559	0.0147614
925.637	0.0147883
925.715	0.0148939
925.793	0.0147717
925.871	0.0147549
925.950	0.0148514
926.028	0.0147340
926.106	0.0147709
926.184	0.0149384
926.262	0.0148837
926.340	0.0146879
926.418	0.0147421
926.496	0.0147294
926.575	0.0148586
926.653	0.0147946
926.731	0.0148438
926.809	0.0148361
926.887	0.0149037
926.965	0.0147717
927.043	0.0147739
927.121	0.0148462
927.200	0.0146682
927.278	0.0147819
927.356	0.0148346
927.434	0.0148334
927.512	0.0149112
927.590	0.0148073
927.668	0.0148389
927.746	0.0147186
927.825	0.0148769
927.903	0.0149466
927.981	0.0148192
928.059	0.0148219
928.137	0.0149709
928.215	0.0149049
928.293	0.0148267
928.371	0.0148294
928.450	0.0149556
928.528	0.0148604
928.606	0.0149285
928.684	0.0148949
928.762	0.0147451
928.840	0.0148949
928.918	0.0149369
928.996	0.0148253
929.075	0.0149961
929.153	0.0149512
929.231	0.0148347
929.309	0.0149483
929.387	0.0148937
929.465	0.0148587
929.543	0.0149535
929.621	0.0148268
929.700	0.0149153
929.778	0.0147488
929.856	0.0148940
929.934	0.0147939
930.012	0.0148064
930.090	0.0149433
930.168	0.0148850
930.246	0.0148723
930.325	0.0149075
930.403	0.0147884
930.481	0.0148384
930.559	0.0148254
930.637	0.0148840
930.715	0.0149906
930.793	0.0149225
930.871	0.0150010
930.950	0.0149102
931.028	0.0149667
931.106	0.0150117
931.184	0.0150476
931.262	0.0149800
931.340	0.0149751
931.418	0.0149673
931.496	0.0149266
931.575	0.0151155
931.653	0.0151017
931.731	0.0150135
931.809	0.0149161
931.887	0.0148373
931.965	0.0149718
932.043	0.0148893
932.121	0.0148922
932.200	0.0148338
932.278	0.0147656
932.356	0.0149438
932.434	0.0150307
932.512	0.0148853
932.590	0.0147306
932.668	0.0148586
932.746	0.0149072
932.825	0.0149395
932.903	0.0148499
932.981	0.0147804
933.059	0.0148798
933.137	0.0149679
933.215	0.0148072
933.293	0.0147815
933.371	0.0149477
933.450	0.0147900
933.528	0.0148096
933.606	0.0148105
933.684	0.0148651
933.762	0.0148706
933.840	0.0148898
933.918	0.0147427
933.996	0.0149401
934.075	0.0149532
934.153	0.0148610
934.231	0.0146577
934.309	0.0147538
934.387	0.0148125
934.465	0.0148169
934.543	0.0148380
934.621	0.0149772
934.700	0.0147071
934.778	0.0148170
934.856	0.0147744
934.934	0.0149335
935.012	0.0147994
935.090	0.0149542
935.168	0.0148685
935.246	0.0147315
935.325	0.0148194
935.403	0.0147581
935.481	0.0147371
935.559	0.0147108
935.637	0.0145675
935.715	0.0146670
935.793	0.0146894
935.871	0.0146612
935.950	0.0147320
936.028	0.0148149
936.106	0.0147814
936.184	0.0146328
936.262	0.0147346
936.340	0.0146465
936.418	0.0147471
936.496	0.0147113
936.575	0.0146589
936.653	0.0146111
936.731	0.0146880
936.809	0.0147901
936.887	0.0147216
936.965	0.0147318
937.043	0.0147728
937.121	0.0146759
937.200	0.0146620
937.278	0.0147294
937.356	0.0148120
937.434	0.0147848
937.512	0.0147758
937.590	0.0147783
937.668	0.0147948
937.746	0.0148139
937.825	0.0148676
937.903	0.0147770
937.981	0.0146911
938.059	0.0148487
938.137	0.0148059
938.215	0.0148104
938.293	0.0148693
938.371	0.0148560
938.450	0.0147404
938.528	0.0149605
938.606	0.0147658
938.684	0.0148006
938.762	0.0147882
938.840	0.0148937
938.918	0.0149928
938.996	0.0148309
939.075	0.0148377
939.153	0.0148479
939.231	0.0148158
939.309	0.0147381
939.387	0.0147359
939.465	0.0148827
939.543	0.0148642
939.621	0.0148681
939.700	0.0148289
939.778	0.0149725
939.856	0.0147643
939.934	0.0147846
940.012	0.0149366
940.090	0.0148914
940.168	0.0148876
940.246	0.0148446
940.325	0.0148333
940.403	0.0150047
940.481	0.0150018
940.559	0.0149088
940.637	0.0149432
940.715	0.0148560
940.793	0.0148450
940.871	0.0148013
940.950	0.0148713
941.028	0.0148611
941.106	0.0150048
941.184	0.0149355
941.262	0.0149297
941.340	0.0148312
941.418	0.0148419
941.496	0.0147789
941.575	0.0148288
941.653	0.0148050
941.731	0.0148959
941.809	0.0148251
941.887	0.0148170
941.965	0.0147944
942.043	0.0147156
942.121	0.0146648
942.200	0.0146318
942.278	0.0148056
942.356	0.0147379
942.434	0.0146481
942.512	0.0147189
942.590	0.0146930
942.668	0.0147112
942.746	0.0148439
942.825	0.0148972
942.903	0.0147418
942.981	0.0149356
943.059	0.0148777
943.137	0.0148514
943.215	0.0149167
943.293	0.0150349
943.371	0.0148090
943.450	0.0149046
943.528	0.0147744
943.606	0.0148662
943.684	0.0149067
943.762	0.0150439
943.840	0.0149801
943.918	0.0149542
943.996	0.0148671
944.075	0.0150385
944.153	0.0149715
944.231	0.0150979
944.309	0.0150126
944.387	0.0149576
944.465	0.0148801
944.543	0.0149743
944.621	0.0148206
944.700	0.0148707
944.778	0.0148640
944.856	0.0149807
944.934	0.0149391
945.012	0.0149089
945.090	0.0149335
945.168	0.0148862
945.246	0.0148312
945.325	0.0148269
945.403	0.0148556
945.481	0.0148241
945.559	0.0147999
945.637	0.0146837
945.715	0.0146378
945.793	0.0150142
945.871	0.0149798
945.950	0.0147852
946.028	0.0148611
946.106	0.0148352
946.184	0.0148121
946.262	0.0147674
946.340	0.0148669
946.418	0.0148129
946.496	0.0147771
946.575	0.0148241
946.653	0.0147971
946.731	0.0148730
946.809	0.0149838
946.887	0.0148076
946.965	0.0147690
947.043	0.0148573
947.121	0.0149485
947.200	0.0150649
947.278	0.0149372
947.356	0.0149626
947.434	0.0148595
947.512	0.0148877
947.590	0.0147971
947.668	0.0148209
947.746	0.0147205
947.825	0.0148534
947.903	0.0148468
947.981	0.0147386
948.059	0.0147334
948.137	0.0148284
948.215	0.0148975
948.293	0.0148194
948.371	0.0148830
948.450	0.0148146
948.528	0.0147425
948.606	0.0148183
948.684	0.0148506
948.762	0.0148073
948.840	0.0148694
948.918	0.0148788
948.996	0.0149714
949.075	0.0148324
949.153	0.0149989
949.231	0.0148195
949.309	0.0146917
949.387	0.0149239
949.465	0.0149232
949.543	0.0148715
949.621	0.0148484
949.700	0.0148759
949.778	0.0148032
949.856	0.0150143
949.934	0.0149773
950.012	0.0148247
950.090	0.0148852
950.168	0.0148444
950.246	0.0149171
950.325	0.0149998
950.403	0.0148276
950.481	0.0149453
950.559	0.0149509
950.637	0.0148315
950.715	0.0148906
950.793	0.0147703
950.871	0.0148280
950.950	0.0149001
951.028	0.0148727
951.106	0.0149055
951.184	0.0148453
951.262	0.0149091
951.340	0.0148616
951.418	0.0148402
951.496	0.0148232
951.575	0.0147725
951.653	0.0148670
951.731	0.0149879
951.809	0.0148965
951.887	0.0149837
951.965	0.0149452
952.043	0.0147944
952.121	0.0146773
952.200	0.0148684
952.278	0.0149507
952.356	0.0148961
952.434	0.0147588
952.512	0.0149030
952.590	0.0149519
952.668	0.0147875
952.746	0.0147993
952.825	0.0148089
952.903	0.0148997
952.981	0.0148991
953.059	0.0148370
953.137	0.0149284
953.215	0.0148795
953.293	0.0148029
953.371	0.0148612
953.450	0.0150023
953.528	0.0148817
953.606	0.0148282
953.684	0.0148432
953.762	0.0148312
953.840	0.0149404
953.918	0.0149056
953.996	0.0148397
954.075	0.0149464
954.153	0.0149107
954.231	0.0148673
954.309	0.0149400
954.387	0.0148401
954.465	0.0149500
954.543	0.0149074
954.621	0.0148248
954.700	0.0148943
954.778	0.0147793
954.856	0.0148441
954.934	0.0148713
955.012	0.0149126
955.090	0.0148479
955.168	0.0148662
955.246	0.0148912
955.325	0.0149026
955.403	0.0147825
955.481	0.0147061
955.559	0.0148438
955.637	0.0149413
955.715	0.0147940
955.793	0.0147318
955.871	0.0148483
955.950	0.0148339
956.028	0.0148470
956.106	0.0146381
956.184	0.0147260
956.262	0.0147571
956.340	0.0147969
956.418	0.0146872
956.496	0.0147257
956.575	0.0148771
956.653	0.0147811
956.731	0.0147691
956.809	0.0148441
956.887	0.0148009
956.965	0.0148196
957.043	0.0148672
957.121	0.0148550
957.200	0.0148114
957.278	0.0149184
957.356	0.0147874
957.434	0.0147223
957.512	0.0147855
957.590	0.0149000
957.668	0.0148962
957.746	0.0148965
957.825	0.0147191
957.903	0.0148524
957.981	0.0149714
958.059	0.0148166
958.137	0.0146315
958.215	0.0147824
958.293	0.0146965
958.371	0.0146858
958.450	0.0148370
958.528	0.0146895
958.606	0.0147843
958.684	0.0148334
958.762	0.0149569
958.840	0.0146251
958.918	0.0146780
958.996	0.0147905
959.075	0.0148418
959.153	0.0149178
959.231	0.0147775
959.309	0.0148183
959.387	0.0149750
959.465	0.0148127
959.543	0.0148601
959.621	0.0148476
959.700	0.0147453
959.778	0.0147586
959.856	0.0148049
959.934	0.0148787
960.012	0.0150176
960.090	0.0149275
960.168	0.0148188
960.246	0.0149065
960.325	0.0148544
960.403	0.0148495
960.481	0.0148158
960.559	0.0148145
960.637	0.0149837
960.715	0.0148070
960.793	0.0150215
960.871	0.0148975
960.950	0.0147868
961.028	0.0148067
961.106	0.0148256
961.184	0.0148744
961.262	0.0148001
961.340	0.0147601
961.418	0.0149476
961.496	0.0149157
961.575	0.0145960
961.653	0.0147961
961.731	0.0147897
961.809	0.0146561
961.887	0.0147089
961.965	0.0147517
962.043	0.0149426
962.121	0.0147331
962.200	0.0147514
962.278	0.0147511
962.356	0.0147379
962.434	0.0147586
962.512	0.0147211
962.590	0.0147575
962.668	0.0146542
962.746	0.0147762
962.825	0.0148741
962.903	0.0148171
962.981	0.0147955
963.059	0.0147813
963.137	0.0148758
963.215	0.0148619
963.293	0.0149806
963.371	0.0149163
963.450	0.0148318
963.528	0.0149584
963.606	0.0149638
963.684	0.0148895
963.762	0.0149004
963.840	0.0148471
963.918	0.0146877
963.996	0.0148188
964.075	0.0149049
964.153	0.0148380
964.231	0.0147733
964.309	0.0149107
964.387	0.0148845
964.465	0.0148746
964.543	0.0149407
964.621	0.0150036
964.700	0.0149524
964.778	0.0149445
964.856	0.0148798
964.934	0.0147260
965.012	0.0148888
965.090	0.0148283
965.168	0.0148955
965.246	0.0148412
965.325	0.0148708
965.403	0.0148032
965.481	0.0147295
965.559	0.0149363
965.637	0.0148689
965.715	0.0149819
965.793	0.0148940
965.871	0.0148960
965.950	0.0147485
966.028	0.0148669
966.106	0.0148549
966.184	0.0148331
966.262	0.0147704
966.340	0.0147899
966.418	0.0147839
966.496	0.0149364
966.575	0.0148254
966.653	0.0147321
966.731	0.0148722
966.809	0.0149112
966.887	0.0146785
966.965	0.0147041
967.043	0.0147556
967.121	0.0148016
967.200	0.0147800
967.278	0.0148387
967.356	0.0148848
967.434	0.0148372
967.512	0.0149330
967.590	0.0148425
967.668	0.0149549
967.746	0.0149203
967.825	0.0148712
967.903	0.0148301
967.981	0.0148283
968.059	0.0148960
968.137	0.0148213
968.215	0.0148962
968.293	0.0147992
968.371	0.0147861
968.450	0.0149167
968.528	0.0147749
968.606	0.0148074
968.684	0.0147828
968.762	0.0147433
968.840	0.0148248
968.918	0.0149002
968.996	0.0149088
969.075	0.0148103
969.153	0.0147994
969.231	0.0148975
969.309	0.0148331
969.387	0.0149160
969.465	0.0148999
969.543	0.0148122
969.621	0.0148489
969.700	0.0147994
969.778	0.0147788
969.856	0.0148479
969.934	0.0149095
970.012	0.0147924
970.090	0.0147923
970.168	0.0147666
970.246	0.0146975
970.325	0.0147288
970.403	0.0146946
970.481	0.0147920
970.559	0.0147901
970.637	0.0147120
970.715	0.0148036
970.793	0.0147173
970.871	0.0147760
970.950	0.0147529
971.028	0.0148996
971.106	0.0147594
971.184	0.0147797
971.262	0.0146959
971.340	0.0147376
971.418	0.0148049
971.496	0.0147353
971.575	0.0148291
971.653	0.0149251
971.731	0.0148267
971.809	0.0146794
971.887	0.0148212
971.965	0.0148385
972.043	0.0148273
972.121	0.0148109
972.200	0.0147447
972.278	0.0149032
972.356	0.0147365
972.434	0.0147503
972.512	0.0148111
972.590	0.0147147
972.668	0.0148735
972.746	0.0147831
972.825	0.0148663
972.903	0.0148819
972.981	0.0147606
973.059	0.0148601
973.137	0.0148401
973.215	0.0146530
973.293	0.0147141
973.371	0.0147672
973.450	0.0148212
973.528	0.0146586
973.606	0.0149325
973.684	0.0147491
973.762	0.0147379
973.840	0.0147668
973.918	0.0147655
973.996	0.0148837
974.075	0.0148916
974.153	0.0147404
974.231	0.0148262
974.309	0.0147537
974.387	0.0147321
974.465	0.0148621
974.543	0.0148827
974.621	0.0148093
974.700	0.0149576
974.778	0.0147765
974.856	0.0148038
974.934	0.0148097
975.012	0.0148327
975.090	0.0148704
975.168	0.0148809
975.246	0.0148228
975.325	0.0148700
975.403	0.0147545
975.481	0.0148853
975.559	0.0148788
975.637	0.0148560
975.715	0.0149933
975.793	0.0148853
975.871	0.0147982
975.950	0.0149347
976.028	0.0146956
976.106	0.0147986
976.184	0.0147916
976.262	0.0147813
976.340	0.0147674
976.418	0.0147585
976.496	0.0147884
976.575	0.0147566
976.653	0.0147645
976.731	0.0147982
976.809	0.0146488
976.887	0.0148550
976.965	0.0149075
977.043	0.0147955
977.121	0.0148358
977.200	0.0149148
977.278	0.0149004
977.356	0.0150317
977.434	0.0148002
977.512	0.0149005
977.590	0.0147769
977.668	0.0148306
977.746	0.0149242
977.825	0.0148843
977.903	0.0148932
977.981	0.0149054
978.059	0.0148380
978.137	0.0148835
978.215	0.0149945
978.293	0.0149700
978.371	0.0149191
978.450	0.0150083
978.528	0.0148563
978.606	0.0150258
978.684	0.0149696
978.762	0.0147839
978.840	0.0149078
978.918	0.0150499
978.996	0.0150567
979.075	0.0149385
979.153	0.0149297
979.231	0.0149818
979.309	0.0148748
979.387	0.0148167
979.465	0.0148435
979.543	0.0147672
979.621	0.0148014
979.700	0.0148880
979.778	0.0149666
979.856	0.0149426
979.934	0.0149836
980.012	0.0147700
980.090	0.0148466
980.168	0.0148014
980.246	0.0148565
980.325	0.0149353
980.403	0.0149203
980.481	0.0148402
980.559	0.0148598
980.637	0.0148750
980.715	0.0148270
980.793	0.0148579
980.871	0.0148339
980.950	0.0148683
981.028	0.0147955
981.106	0.0149937
981.184	0.0149564
981.262	0.0148781
981.340	0.0149841
981.418	0.0149068
981.496	0.0148460
981.575	0.0148800
981.653	0.0149319
981.731	0.0148786
981.809	0.0147864
981.887	0.0148865
981.965	0.0148820
982.043	0.0148921
982.121	0.0147433
982.200	0.0148602
982.278	0.0148230
982.356	0.0147430
982.434	0.0147046
982.512	0.0149079
982.590	0.0147490
982.668	0.0147571
982.746	0.0148698
982.825	0.0149181
982.903	0.0147587
982.981	0.0147586
983.059	0.0146987
983.137	0.0147580
983.215	0.0148508
983.293	0.0148684
983.371	0.0148584
983.450	0.0149100
983.528	0.0148427
983.606	0.0148797
983.684	0.0148856
983.762	0.0148891
983.840	0.0149207
983.918	0.0148727
983.996	0.0149445
984.075	0.0149551
984.153	0.0148968
984.231	0.0147868
984.309	0.0149687
984.387	0.0150713
984.465	0.0148627
984.543	0.0148692
984.621	0.0148831
984.700	0.0148356
984.778	0.0149842
984.856	0.0149304
984.934	0.0148589
985.012	0.0149924
985.090	0.0149649
985.168	0.0149603
985.246	0.0148936
985.325	0.0147385
985.403	0.0148430
985.481	0.0149101
985.559	0.0149413
985.637	0.0148505
985.715	0.0148939
985.793	0.0147864
985.871	0.0148285
985.950	0.0149184
986.028	0.0148009
986.106	0.0149542
986.184	0.0147885
986.262	0.0148672
986.340	0.0148525
986.418	0.0149028
986.496	0.0149449
986.575	0.0148270
986.653	0.0150169
986.731	0.0148110
986.809	0.0149266
986.887	0.0148135
986.965	0.0148672
987.043	0.0149342
987.121	0.0149641
987.200	0.0148736
987.278	0.0147937
987.356	0.0148643
987.434	0.0148604
987.512	0.0148481
987.590	0.0149395
987.668	0.0148189
987.746	0.0148167
987.825	0.0148830
987.903	0.0147765
987.981	0.0149680
988.059	0.0149223
988.137	0.0149186
988.215	0.0148393
988.293	0.0148373
988.371	0.0148729
988.450	0.0148821
988.528	0.0148627
988.606	0.0148196
988.684	0.0148286
988.762	0.0149384
988.840	0.0148813
988.918	0.0149431
988.996	0.0147946
989.075	0.0148627
989.153	0.0150024
989.231	0.0148759
989.309	0.0148711
989.387	0.0147808
989.465	0.0148622
989.543	0.0147858
989.621	0.0147810
989.700	0.0148649
989.778	0.0148525
989.856	0.0148945
989.934	0.0147781
990.012	0.0148658
990.090	0.0148071
990.168	0.0149102
990.246	0.0148177
990.325	0.0147427
990.403	0.0149281
990.481	0.0147838
990.559	0.0147175
990.637	0.0147850
990.715	0.0148591
990.793	0.0146776
990.871	0.0147750
990.950	0.0149359
991.028	0.0147178
991.106	0.0147265
991.184	0.0148798
991.262	0.0147349
991.340	0.0147961
991.418	0.0147433
991.496	0.0148489
991.575	0.0148420
991.653	0.0148167
991.731	0.0147306
991.809	0.0146866
991.887	0.0148093
991.965	0.0148262
992.043	0.0148657
992.121	0.0148564
992.200	0.0147212
992.278	0.0148375
992.356	0.0148326
992.434	0.0147132
992.512	0.0148423
992.590	0.0148689
992.668	0.0149182
992.746	0.0147393
992.825	0.0147694
992.903	0.0148187
992.981	0.0147781
993.059	0.0146387
993.137	0.0147876
993.215	0.0148927
993.293	0.0148187
993.371	0.0148047
993.450	0.0148078
993.528	0.0148349
993.606	0.0147913
993.684	0.0150306
993.762	0.0147731
993.840	0.0148443
993.918	0.0147341
993.996	0.0147839
994.075	0.0148843
994.153	0.0148964
994.231	0.0147889
994.309	0.0147119
994.387	0.0148373
994.465	0.0150015
994.543	0.0148727
994.621	0.0148370
994.700	0.0147817
994.778	0.0148177
994.856	0.0147585
994.934	0.0147891
995.012	0.0147710
995.090	0.0147363
995.168	0.0148882
995.246	0.0148428
995.325	0.0148869
995.403	0.0148328
995.481	0.0149675
995.559	0.0149390
995.637	0.0148979
995.715	0.0150011
995.793	0.0149156
995.871	0.0148808
995.950	0.0149374
996.028	0.0148592
996.106	0.0148434
996.184	0.0149728
996.262	0.0149423
996.340	0.0151107
996.418	0.0150630
996.496	0.0149709
996.575	0.0149834
996.653	0.0148751
996.731	0.0149409
996.809	0.0148067
996.887	0.0149432
996.965	0.0149146
997.043	0.0150232
997.121	0.0148904
997.200	0.0148231
997.278	0.0148627
997.356	0.0149078
997.434	0.0148946
997.512	0.0148250
997.590	0.0146723
997.668	0.0147903
997.746	0.0148578
997.825	0.0147090
997.903	0.0146618
997.981	0.0148699
998.059	0.0147817
998.137	0.0148036
998.215	0.0147656
998.293	0.0148543
998.371	0.0148468
998.450	0.0148447
998.528	0.0148107
998.606	0.0148862
998.684	0.0148101
998.762	0.0148709
998.840	0.0148093
998.918	0.0149410
