05/04/2022	21:40:14	Ver.	4.1	UNKNOWN
Optical Delay	678.989730	Delta X		0.078125	Sweeps	1	Scan Rate	0/0
Coordinates	Axis 1	NaN	Axis 2	NaN	Axis 3	NaN	Axis 4	NaN	Axis 5	NaN	Axis 6	0.000000
TX Power	0.000000	RX Power	0.000000

678.990	0.0141703
679.068	0.0144198
679.146	0.0144680
679.224	0.0145280
679.302	0.0142584
679.380	0.0141446
679.458	0.0138809
679.537	0.0138052
679.615	0.0137850
679.693	0.0137490
679.771	0.0136662
679.849	0.0138401
679.927	0.0138354
680.005	0.0141509
680.083	0.0143314
680.162	0.0144290
680.240	0.0144276
680.318	0.0145827
680.396	0.0146364
680.474	0.0145493
680.552	0.0144744
680.630	0.0144222
680.708	0.0142391
680.787	0.0140954
680.865	0.0139548
680.943	0.0138780
681.021	0.0138285
681.099	0.0138863
681.177	0.0136721
681.255	0.0137486
681.333	0.0137762
681.412	0.0139399
681.490	0.0140750
681.568	0.0140274
681.646	0.0143398
681.724	0.0144372
681.802	0.0145257
681.880	0.0143910
681.958	0.0144695
682.037	0.0145444
682.115	0.0143579
682.193	0.0143203
682.271	0.0142209
682.349	0.0141196
682.427	0.0140561
682.505	0.0139917
682.583	0.0139053
682.662	0.0136705
682.740	0.0137840
682.818	0.0140479
682.896	0.0143176
682.974	0.0141528
683.052	0.0143295
683.130	0.0144109
683.208	0.0146667
683.287	0.0147512
683.365	0.0148206
683.443	0.0147169
683.521	0.0147187
683.599	0.0147152
683.677	0.0145389
683.755	0.0144433
683.833	0.0143290
683.912	0.0142022
683.990	0.0139747
684.068	0.0138828
684.146	0.0137326
684.224	0.0133717
684.302	0.0132395
684.380	0.0132017
684.458	0.0132556
684.537	0.0130590
684.615	0.0132231
684.693	0.0134303
684.771	0.0136058
684.849	0.0136080
684.927	0.0137910
685.005	0.0140525
685.083	0.0141315
685.162	0.0142873
685.240	0.0144425
685.318	0.0144598
685.396	0.0146030
685.474	0.0145374
685.552	0.0146218
685.630	0.0146497
685.708	0.0146110
685.787	0.0146964
685.865	0.0145537
685.943	0.0145823
686.021	0.0144853
686.099	0.0145818
686.177	0.0146289
686.255	0.0145731
686.333	0.0145149
686.412	0.0145113
686.490	0.0144062
686.568	0.0143866
686.646	0.0146136
686.724	0.0143759
686.802	0.0143182
686.880	0.0140727
686.958	0.0138623
687.037	0.0137656
687.115	0.0135553
687.193	0.0130945
687.271	0.0128695
687.349	0.0128640
687.427	0.0127135
687.505	0.0127978
687.583	0.0129961
687.662	0.0133257
687.740	0.0135876
687.818	0.0137775
687.896	0.0142358
687.974	0.0145947
688.052	0.0147678
688.130	0.0150586
688.208	0.0152462
688.287	0.0153313
688.365	0.0154021
688.443	0.0152477
688.521	0.0149225
688.599	0.0148356
688.677	0.0143990
688.755	0.0142119
688.833	0.0139549
688.912	0.0138178
688.990	0.0136060
689.068	0.0135812
689.146	0.0136200
689.224	0.0136523
689.302	0.0137212
689.380	0.0139557
689.458	0.0140822
689.537	0.0143733
689.615	0.0143832
689.693	0.0144931
689.771	0.0146011
689.849	0.0143761
689.927	0.0142785
690.005	0.0141395
690.083	0.0140081
690.162	0.0138821
690.240	0.0135964
690.318	0.0134448
690.396	0.0134303
690.474	0.0132196
690.552	0.0132957
690.630	0.0132538
690.708	0.0132229
690.787	0.0133286
690.865	0.0135938
690.943	0.0137183
691.021	0.0141064
691.099	0.0143127
691.177	0.0144729
691.255	0.0146511
691.333	0.0147675
691.412	0.0148347
691.490	0.0149657
691.568	0.0150066
691.646	0.0149673
691.724	0.0148024
691.802	0.0146928
691.880	0.0146303
691.958	0.0144654
692.037	0.0143606
692.115	0.0142486
692.193	0.0142259
692.271	0.0142909
692.349	0.0141320
692.427	0.0142439
692.505	0.0142378
692.583	0.0143114
692.662	0.0143040
692.740	0.0142612
692.818	0.0143406
692.896	0.0143229
692.974	0.0143468
693.052	0.0142133
693.130	0.0140141
693.208	0.0140283
693.287	0.0137677
693.365	0.0137463
693.443	0.0137675
693.521	0.0134870
693.599	0.0135146
693.677	0.0133749
693.755	0.0132751
693.833	0.0134496
693.912	0.0135291
693.990	0.0136550
694.068	0.0138049
694.146	0.0139159
694.224	0.0141487
694.302	0.0143407
694.380	0.0145000
694.458	0.0144509
694.537	0.0146381
694.615	0.0147350
694.693	0.0148647
694.771	0.0147034
694.849	0.0148095
694.927	0.0147406
695.005	0.0144518
695.083	0.0144478
695.162	0.0142356
695.240	0.0141055
695.318	0.0140749
695.396	0.0138428
695.474	0.0139005
695.552	0.0138062
695.630	0.0137652
695.708	0.0138242
695.787	0.0138959
695.865	0.0140254
695.943	0.0141068
696.021	0.0143911
696.099	0.0146621
696.177	0.0144822
696.255	0.0145805
696.333	0.0146410
696.412	0.0146394
696.490	0.0146877
696.568	0.0145230
696.646	0.0143378
696.724	0.0143654
696.802	0.0141593
696.880	0.0138697
696.958	0.0139587
697.037	0.0138711
697.115	0.0137118
697.193	0.0137957
697.271	0.0138773
697.349	0.0139404
697.427	0.0139587
697.505	0.0139937
697.583	0.0141481
697.662	0.0141290
697.740	0.0140394
697.818	0.0140926
697.896	0.0141635
697.974	0.0141977
698.052	0.0141489
698.130	0.0142371
698.208	0.0142301
698.287	0.0142009
698.365	0.0141834
698.443	0.0140584
698.521	0.0141045
698.599	0.0142555
698.677	0.0141592
698.755	0.0141629
698.833	0.0140708
698.912	0.0143004
698.990	0.0144459
699.068	0.0144638
699.146	0.0145958
699.224	0.0146603
699.302	0.0146996
699.380	0.0148605
699.458	0.0149007
699.537	0.0148705
699.615	0.0149033
699.693	0.0149413
699.771	0.0147403
699.849	0.0147222
699.927	0.0146466
700.005	0.0144813
700.083	0.0142889
700.162	0.0140998
700.240	0.0140838
700.318	0.0139580
700.396	0.0138254
700.474	0.0137121
700.552	0.0135512
700.630	0.0133714
700.708	0.0133951
700.787	0.0133347
700.865	0.0133437
700.943	0.0134463
701.021	0.0134412
701.099	0.0135773
701.177	0.0136505
701.255	0.0138010
701.333	0.0138918
701.412	0.0140894
701.490	0.0140731
701.568	0.0140087
701.646	0.0141187
701.724	0.0143683
701.802	0.0141747
701.880	0.0142896
701.958	0.0142570
702.037	0.0143750
702.115	0.0144016
702.193	0.0144989
702.271	0.0145843
702.349	0.0144826
702.427	0.0146190
702.505	0.0146979
702.583	0.0146513
702.662	0.0147546
702.740	0.0146322
702.818	0.0147010
702.896	0.0148316
702.974	0.0147109
703.052	0.0145023
703.130	0.0145285
703.208	0.0143493
703.287	0.0143586
703.365	0.0140546
703.443	0.0140105
703.521	0.0138576
703.599	0.0138409
703.677	0.0135599
703.755	0.0135723
703.833	0.0135656
703.912	0.0134703
703.990	0.0135233
704.068	0.0135461
704.146	0.0135712
704.224	0.0137624
704.302	0.0139401
704.380	0.0140674
704.458	0.0142832
704.537	0.0142211
704.615	0.0143822
704.693	0.0143616
704.771	0.0145357
704.849	0.0144015
704.927	0.0143797
705.005	0.0143750
705.083	0.0143846
705.162	0.0142135
705.240	0.0140242
705.318	0.0139500
705.396	0.0138191
705.474	0.0139087
705.552	0.0137817
705.630	0.0136314
705.708	0.0138875
705.787	0.0140061
705.865	0.0140195
705.943	0.0141383
706.021	0.0140813
706.099	0.0142841
706.177	0.0143885
706.255	0.0144032
706.333	0.0143351
706.412	0.0143016
706.490	0.0144619
706.568	0.0144749
706.646	0.0146047
706.724	0.0146234
706.802	0.0146636
706.880	0.0148454
706.958	0.0146564
707.037	0.0146492
707.115	0.0145808
707.193	0.0145374
707.271	0.0145564
707.349	0.0143150
707.427	0.0142207
707.505	0.0140075
707.583	0.0139706
707.662	0.0138799
707.740	0.0137523
707.818	0.0135676
707.896	0.0134879
707.974	0.0134271
708.052	0.0135253
708.130	0.0136678
708.208	0.0134235
708.287	0.0135472
708.365	0.0135931
708.443	0.0135004
708.521	0.0136674
708.599	0.0136340
708.677	0.0138676
708.755	0.0139206
708.833	0.0139928
708.912	0.0141359
708.990	0.0142724
709.068	0.0144682
709.146	0.0143758
709.224	0.0146211
709.302	0.0146738
709.380	0.0147802
709.458	0.0147804
709.537	0.0146755
709.615	0.0147759
709.693	0.0149210
709.771	0.0145193
709.849	0.0144191
709.927	0.0144736
710.005	0.0143583
710.083	0.0142785
710.162	0.0141130
710.240	0.0141436
710.318	0.0138179
710.396	0.0139439
710.474	0.0138015
710.552	0.0136861
710.630	0.0136953
710.708	0.0137141
710.787	0.0137292
710.865	0.0138779
710.943	0.0137900
711.021	0.0139043
711.099	0.0139948
711.177	0.0139433
711.255	0.0140976
711.333	0.0141850
711.412	0.0143275
711.490	0.0142815
711.568	0.0144360
711.646	0.0144529
711.724	0.0145776
711.802	0.0144997
711.880	0.0143584
711.958	0.0144529
712.037	0.0144514
712.115	0.0142176
712.193	0.0141706
712.271	0.0141354
712.349	0.0140809
712.427	0.0141748
712.505	0.0140188
712.583	0.0141201
712.662	0.0140949
712.740	0.0137900
712.818	0.0138853
712.896	0.0140196
712.974	0.0139625
713.052	0.0138350
713.130	0.0140316
713.208	0.0140069
713.287	0.0141232
713.365	0.0141355
713.443	0.0141009
713.521	0.0141497
713.599	0.0144492
713.677	0.0143395
713.755	0.0144339
713.833	0.0146374
713.912	0.0146247
713.990	0.0146044
714.068	0.0145778
714.146	0.0146108
714.224	0.0145483
714.302	0.0146667
714.380	0.0144257
714.458	0.0144630
714.537	0.0144624
714.615	0.0142825
714.693	0.0141694
714.771	0.0140997
714.849	0.0140182
714.927	0.0140649
715.005	0.0140134
715.083	0.0139494
715.162	0.0139365
715.240	0.0139309
715.318	0.0139081
715.396	0.0137474
715.474	0.0138565
715.552	0.0139493
715.630	0.0139935
715.708	0.0138564
715.787	0.0140961
715.865	0.0141748
715.943	0.0140314
716.021	0.0141905
716.099	0.0142767
716.177	0.0143520
716.255	0.0146060
716.333	0.0145329
716.412	0.0145311
716.490	0.0145855
716.568	0.0145213
716.646	0.0145837
716.724	0.0146576
716.802	0.0146220
716.880	0.0146102
716.958	0.0145648
717.037	0.0144642
717.115	0.0144865
717.193	0.0144433
717.271	0.0142971
717.349	0.0143811
717.427	0.0144212
717.505	0.0141626
717.583	0.0140763
717.662	0.0142128
717.740	0.0140653
717.818	0.0140372
717.896	0.0140503
717.974	0.0140043
718.052	0.0140392
718.130	0.0138611
718.208	0.0139635
718.287	0.0140320
718.365	0.0139765
718.443	0.0139371
718.521	0.0140430
718.599	0.0141352
718.677	0.0141418
718.755	0.0142375
718.833	0.0142571
718.912	0.0142950
718.990	0.0142256
719.068	0.0142322
719.146	0.0143259
719.224	0.0142505
719.302	0.0143723
719.380	0.0142721
719.458	0.0143968
719.537	0.0142950
719.615	0.0142118
719.693	0.0141735
719.771	0.0143244
719.849	0.0141515
719.927	0.0139772
720.005	0.0140979
720.083	0.0142888
720.162	0.0141721
720.240	0.0141345
720.318	0.0142020
720.396	0.0140949
720.474	0.0141216
720.552	0.0141315
720.630	0.0143526
720.708	0.0141598
720.787	0.0142014
720.865	0.0142297
720.943	0.0141797
721.021	0.0142503
721.099	0.0141404
721.177	0.0142070
721.255	0.0141498
721.333	0.0140275
721.412	0.0139931
721.490	0.0139421
721.568	0.0140440
721.646	0.0139465
721.724	0.0140095
721.802	0.0139629
721.880	0.0140911
721.958	0.0139313
722.037	0.0141080
722.115	0.0141157
722.193	0.0141033
722.271	0.0139625
722.349	0.0140076
722.427	0.0141684
722.505	0.0140813
722.583	0.0139939
722.662	0.0140443
722.740	0.0141267
722.818	0.0139537
722.896	0.0141706
722.974	0.0141148
723.052	0.0140491
723.130	0.0141772
723.208	0.0142734
723.287	0.0143040
723.365	0.0144662
723.443	0.0143766
723.521	0.0143795
723.599	0.0145142
723.677	0.0145667
723.755	0.0145370
723.833	0.0144879
723.912	0.0143790
723.990	0.0144211
724.068	0.0143439
724.146	0.0142318
724.224	0.0142843
724.302	0.0141822
724.380	0.0140679
724.458	0.0139680
724.537	0.0139758
724.615	0.0139088
724.693	0.0139751
724.771	0.0137851
724.849	0.0139362
724.927	0.0139590
725.005	0.0140358
725.083	0.0140160
725.162	0.0141034
725.240	0.0141695
725.318	0.0140878
725.396	0.0143121
725.474	0.0142795
725.552	0.0140967
725.630	0.0141398
725.708	0.0142944
725.787	0.0142458
725.865	0.0142447
725.943	0.0141781
726.021	0.0140945
726.099	0.0140710
726.177	0.0140133
726.255	0.0141585
726.333	0.0140721
726.412	0.0139826
726.490	0.0140125
726.568	0.0141388
726.646	0.0140371
726.724	0.0140288
726.802	0.0141335
726.880	0.0140263
726.958	0.0141486
727.037	0.0141884
727.115	0.0140475
727.193	0.0141117
727.271	0.0141643
727.349	0.0141196
727.427	0.0140952
727.505	0.0142193
727.583	0.0142198
727.662	0.0141441
727.740	0.0142538
727.818	0.0142549
727.896	0.0142292
727.974	0.0144508
728.052	0.0143407
728.130	0.0144485
728.208	0.0144652
728.287	0.0142060
728.365	0.0142250
728.443	0.0143868
728.521	0.0142928
728.599	0.0140904
728.677	0.0142008
728.755	0.0141525
728.833	0.0139170
728.912	0.0138624
728.990	0.0138986
729.068	0.0138496
729.146	0.0138218
729.224	0.0137213
729.302	0.0138227
729.380	0.0137091
729.458	0.0138478
729.537	0.0138348
729.615	0.0139411
729.693	0.0139893
729.771	0.0140979
729.849	0.0142679
729.927	0.0141941
730.005	0.0141821
730.083	0.0142463
730.162	0.0143372
730.240	0.0145082
730.318	0.0143706
730.396	0.0143790
730.474	0.0143003
730.552	0.0143254
730.630	0.0142632
730.708	0.0144055
730.787	0.0143248
730.865	0.0142889
730.943	0.0140359
731.021	0.0140864
731.099	0.0141038
731.177	0.0140476
731.255	0.0140746
731.333	0.0140260
731.412	0.0139493
731.490	0.0139468
731.568	0.0139571
731.646	0.0139718
731.724	0.0140698
731.802	0.0139259
731.880	0.0140008
731.958	0.0141431
732.037	0.0140222
732.115	0.0140537
732.193	0.0140180
732.271	0.0141069
732.349	0.0140929
732.427	0.0143367
732.505	0.0141637
732.583	0.0141739
732.662	0.0145058
732.740	0.0142262
732.818	0.0142199
732.896	0.0143980
732.974	0.0143741
733.052	0.0142071
733.130	0.0142937
733.208	0.0142410
733.287	0.0142268
733.365	0.0142381
733.443	0.0141681
733.521	0.0141641
733.599	0.0140604
733.677	0.0140011
733.755	0.0141529
733.833	0.0142084
733.912	0.0142365
733.990	0.0141691
734.068	0.0141596
734.146	0.0142978
734.224	0.0141932
734.302	0.0142008
734.380	0.0141930
734.458	0.0141692
734.537	0.0142265
734.615	0.0143239
734.693	0.0142957
734.771	0.0141499
734.849	0.0140716
734.927	0.0141199
735.005	0.0142715
735.083	0.0141308
735.162	0.0142038
735.240	0.0142522
735.318	0.0141230
735.396	0.0143031
735.474	0.0141033
735.552	0.0141570
735.630	0.0141436
735.708	0.0141135
735.787	0.0141180
735.865	0.0141873
735.943	0.0142021
736.021	0.0139260
736.099	0.0141377
736.177	0.0141840
736.255	0.0140469
736.333	0.0142296
736.412	0.0141653
736.490	0.0141582
736.568	0.0142361
736.646	0.0141932
736.724	0.0140985
736.802	0.0141819
736.880	0.0141418
736.958	0.0140464
737.037	0.0141463
737.115	0.0143031
737.193	0.0140734
737.271	0.0141468
737.349	0.0141715
737.427	0.0142261
737.505	0.0143089
737.583	0.0143613
737.662	0.0142966
737.740	0.0142756
737.818	0.0142734
737.896	0.0143008
737.974	0.0142735
738.052	0.0142735
738.130	0.0140968
738.208	0.0142634
738.287	0.0142817
738.365	0.0140673
738.443	0.0142025
738.521	0.0141586
738.599	0.0141691
738.677	0.0142128
738.755	0.0141495
738.833	0.0142965
738.912	0.0141753
738.990	0.0140240
739.068	0.0141051
739.146	0.0140458
739.224	0.0142007
739.302	0.0140239
739.380	0.0140892
739.458	0.0141245
739.537	0.0140754
739.615	0.0140018
739.693	0.0140565
739.771	0.0140226
739.849	0.0138275
739.927	0.0137701
740.005	0.0137935
740.083	0.0140985
740.162	0.0139128
740.240	0.0140404
740.318	0.0139775
740.396	0.0140518
740.474	0.0142064
740.552	0.0143551
740.630	0.0144059
740.708	0.0143151
740.787	0.0143071
740.865	0.0141751
740.943	0.0142345
741.021	0.0143246
741.099	0.0144440
741.177	0.0143346
741.255	0.0141430
741.333	0.0142547
741.412	0.0142459
741.490	0.0142228
741.568	0.0140968
741.646	0.0141268
741.724	0.0140918
741.802	0.0140396
741.880	0.0141131
741.958	0.0139762
742.037	0.0141574
742.115	0.0140114
742.193	0.0142139
742.271	0.0141385
742.349	0.0141579
742.427	0.0140895
742.505	0.0140772
742.583	0.0142449
742.662	0.0142182
742.740	0.0141507
742.818	0.0141671
742.896	0.0141007
742.974	0.0139489
743.052	0.0141265
743.130	0.0140719
743.208	0.0141189
743.287	0.0141133
743.365	0.0141330
743.443	0.0140775
743.521	0.0140278
743.599	0.0141158
743.677	0.0140446
743.755	0.0139677
743.833	0.0141150
743.912	0.0140424
743.990	0.0140758
744.068	0.0140073
744.146	0.0140223
744.224	0.0141525
744.302	0.0140538
744.380	0.0140701
744.458	0.0141373
744.537	0.0141988
744.615	0.0142802
744.693	0.0142011
744.771	0.0143204
744.849	0.0143851
744.927	0.0142550
745.005	0.0144034
745.083	0.0142455
745.162	0.0144593
745.240	0.0144247
745.318	0.0143865
745.396	0.0141805
745.474	0.0142516
745.552	0.0142837
745.630	0.0143779
745.708	0.0142171
745.787	0.0142535
745.865	0.0141056
745.943	0.0141458
746.021	0.0142083
746.099	0.0142474
746.177	0.0141499
746.255	0.0140414
746.333	0.0141602
746.412	0.0140165
746.490	0.0142242
746.568	0.0143353
746.646	0.0140874
746.724	0.0139742
746.802	0.0141082
746.880	0.0142268
746.958	0.0143161
747.037	0.0142059
747.115	0.0141443
747.193	0.0141217
747.271	0.0140795
747.349	0.0140517
747.427	0.0141268
747.505	0.0141739
747.583	0.0141881
747.662	0.0141586
747.740	0.0140620
747.818	0.0140764
747.896	0.0142090
747.974	0.0141782
748.052	0.0141518
748.130	0.0142027
748.208	0.0143447
748.287	0.0142600
748.365	0.0143613
748.443	0.0143529
748.521	0.0144817
748.599	0.0144466
748.677	0.0143996
748.755	0.0142995
748.833	0.0143740
748.912	0.0143311
748.990	0.0142166
749.068	0.0143110
749.146	0.0143546
749.224	0.0142916
749.302	0.0143027
749.380	0.0144016
749.458	0.0142540
749.537	0.0141259
749.615	0.0141540
749.693	0.0143173
749.771	0.0141159
749.849	0.0142059
749.927	0.0141494
750.005	0.0141734
750.083	0.0141514
750.162	0.0141062
750.240	0.0141790
750.318	0.0141576
750.396	0.0141180
750.474	0.0140896
750.552	0.0142341
750.630	0.0140649
750.708	0.0141256
750.787	0.0141716
750.865	0.0141244
750.943	0.0142904
751.021	0.0141820
751.099	0.0141107
751.177	0.0142982
751.255	0.0142012
751.333	0.0142542
751.412	0.0141824
751.490	0.0141638
751.568	0.0142976
751.646	0.0142960
751.724	0.0140585
751.802	0.0140134
751.880	0.0141843
751.958	0.0142433
752.037	0.0139541
752.115	0.0140566
752.193	0.0140244
752.271	0.0140395
752.349	0.0139949
752.427	0.0139712
752.505	0.0140765
752.583	0.0141643
752.662	0.0141232
752.740	0.0141779
752.818	0.0142503
752.896	0.0141532
752.974	0.0141619
753.052	0.0142032
753.130	0.0143037
753.208	0.0141673
753.287	0.0142084
753.365	0.0141019
753.443	0.0140774
753.521	0.0141498
753.599	0.0140711
753.677	0.0142010
753.755	0.0142846
753.833	0.0140099
753.912	0.0141316
753.990	0.0141496
754.068	0.0141548
754.146	0.0141759
754.224	0.0140339
754.302	0.0141034
754.380	0.0141021
754.458	0.0140871
754.537	0.0141245
754.615	0.0141913
754.693	0.0141335
754.771	0.0140900
754.849	0.0140820
754.927	0.0142149
755.005	0.0142140
755.083	0.0142486
755.162	0.0142452
755.240	0.0141801
755.318	0.0140797
755.396	0.0141906
755.474	0.0142731
755.552	0.0143027
755.630	0.0142937
755.708	0.0142105
755.787	0.0141648
755.865	0.0141406
755.943	0.0141542
756.021	0.0142001
756.099	0.0142222
756.177	0.0141483
756.255	0.0140747
756.333	0.0142978
756.412	0.0141531
756.490	0.0141534
756.568	0.0142454
756.646	0.0141682
756.724	0.0141059
756.802	0.0142294
756.880	0.0142792
756.958	0.0142785
757.037	0.0142291
757.115	0.0142721
757.193	0.0141582
757.271	0.0141044
757.349	0.0142120
757.427	0.0140965
757.505	0.0141074
757.583	0.0142406
757.662	0.0142473
757.740	0.0142011
757.818	0.0141020
757.896	0.0141047
757.974	0.0140939
758.052	0.0141985
758.130	0.0142513
758.208	0.0143495
758.287	0.0142721
758.365	0.0143181
758.443	0.0142426
758.521	0.0140691
758.599	0.0142863
758.677	0.0141914
758.755	0.0140942
758.833	0.0142335
758.912	0.0142191
758.990	0.0140342
759.068	0.0141309
759.146	0.0141363
759.224	0.0142138
759.302	0.0141656
759.380	0.0141788
759.458	0.0141479
759.537	0.0141786
759.615	0.0139636
759.693	0.0139139
759.771	0.0140259
759.849	0.0140398
759.927	0.0141574
760.005	0.0140649
760.083	0.0141112
760.162	0.0140186
760.240	0.0139222
760.318	0.0141066
760.396	0.0142080
760.474	0.0140978
760.552	0.0139809
760.630	0.0140678
760.708	0.0140904
760.787	0.0140186
760.865	0.0141025
760.943	0.0140907
761.021	0.0140733
761.099	0.0140334
761.177	0.0141590
761.255	0.0141393
761.333	0.0140926
761.412	0.0141504
761.490	0.0141111
761.568	0.0141998
761.646	0.0140871
761.724	0.0140955
761.802	0.0142354
761.880	0.0141782
761.958	0.0142757
762.037	0.0141836
762.115	0.0142650
762.193	0.0141840
762.271	0.0141708
762.349	0.0142050
762.427	0.0141415
762.505	0.0143512
762.583	0.0142464
762.662	0.0142052
762.740	0.0142084
762.818	0.0143636
762.896	0.0142796
762.974	0.0141908
763.052	0.0141119
763.130	0.0141143
763.208	0.0141999
763.287	0.0140913
763.365	0.0141149
763.443	0.0141295
763.521	0.0141869
763.599	0.0141809
763.677	0.0141509
763.755	0.0140907
763.833	0.0140219
763.912	0.0141901
763.990	0.0140031
764.068	0.0141951
764.146	0.0141703
764.224	0.0142231
764.302	0.0142002
764.380	0.0140855
764.458	0.0141504
764.537	0.0141196
764.615	0.0141720
764.693	0.0140989
764.771	0.0142116
764.849	0.0141539
764.927	0.0140464
765.005	0.0140776
765.083	0.0140749
765.162	0.0141232
765.240	0.0140568
765.318	0.0141064
765.396	0.0141792
765.474	0.0140806
765.552	0.0140927
765.630	0.0142362
765.708	0.0143565
765.787	0.0142159
765.865	0.0140610
765.943	0.0141875
766.021	0.0142609
766.099	0.0142638
766.177	0.0141043
766.255	0.0140455
766.333	0.0140746
766.412	0.0141837
766.490	0.0141750
766.568	0.0140218
766.646	0.0142432
766.724	0.0141110
766.802	0.0141373
766.880	0.0140199
766.958	0.0141035
767.037	0.0140375
767.115	0.0140129
767.193	0.0142056
767.271	0.0141718
767.349	0.0140850
767.427	0.0139652
767.505	0.0141074
767.583	0.0141820
767.662	0.0141389
767.740	0.0140580
767.818	0.0140347
767.896	0.0141122
767.974	0.0140536
768.052	0.0140349
768.130	0.0141131
768.208	0.0140610
768.287	0.0141429
768.365	0.0140814
768.443	0.0139322
768.521	0.0141245
768.599	0.0140559
768.677	0.0141055
768.755	0.0141285
768.833	0.0141389
768.912	0.0140509
768.990	0.0140089
769.068	0.0141425
769.146	0.0141263
769.224	0.0141201
769.302	0.0143407
769.380	0.0141815
769.458	0.0142042
769.537	0.0141824
769.615	0.0140642
769.693	0.0141425
769.771	0.0140628
769.849	0.0143320
769.927	0.0141460
770.005	0.0141471
770.083	0.0142686
770.162	0.0142141
770.240	0.0141158
770.318	0.0141661
770.396	0.0141768
770.474	0.0141518
770.552	0.0142867
770.630	0.0140848
770.708	0.0141052
770.787	0.0141228
770.865	0.0142663
770.943	0.0142440
771.021	0.0142045
771.099	0.0142171
771.177	0.0143162
771.255	0.0142535
771.333	0.0141842
771.412	0.0142841
771.490	0.0142175
771.568	0.0142227
771.646	0.0142474
771.724	0.0143191
771.802	0.0142464
771.880	0.0142318
771.958	0.0142313
772.037	0.0142117
772.115	0.0142131
772.193	0.0142151
772.271	0.0142843
772.349	0.0142728
772.427	0.0142796
772.505	0.0142014
772.583	0.0142459
772.662	0.0143208
772.740	0.0142979
772.818	0.0141274
772.896	0.0141368
772.974	0.0142612
773.052	0.0142558
773.130	0.0142812
773.208	0.0142840
773.287	0.0143152
773.365	0.0141889
773.443	0.0142082
773.521	0.0143006
773.599	0.0142665
773.677	0.0142667
773.755	0.0143678
773.833	0.0144946
773.912	0.0143192
773.990	0.0143353
774.068	0.0142661
774.146	0.0142517
774.224	0.0141566
774.302	0.0142142
774.380	0.0143836
774.458	0.0141898
774.537	0.0140570
774.615	0.0141730
774.693	0.0141108
774.771	0.0140648
774.849	0.0141084
774.927	0.0141756
775.005	0.0142348
775.083	0.0140591
775.162	0.0141261
775.240	0.0141307
775.318	0.0140856
775.396	0.0140568
775.474	0.0140916
775.552	0.0142396
775.630	0.0142566
775.708	0.0140672
775.787	0.0141069
775.865	0.0142702
775.943	0.0141808
776.021	0.0142620
776.099	0.0141395
776.177	0.0141628
776.255	0.0142870
776.333	0.0141369
776.412	0.0141333
776.490	0.0140986
776.568	0.0142064
776.646	0.0141361
776.724	0.0141508
776.802	0.0140257
776.880	0.0140563
776.958	0.0140430
777.037	0.0139368
777.115	0.0139738
777.193	0.0140170
777.271	0.0138937
777.349	0.0141085
777.427	0.0140000
777.505	0.0140186
777.583	0.0141026
777.662	0.0140449
777.740	0.0140137
777.818	0.0141126
777.896	0.0141792
777.974	0.0141017
778.052	0.0141681
778.130	0.0141547
778.208	0.0141851
778.287	0.0142924
778.365	0.0143593
778.443	0.0141972
778.521	0.0141968
778.599	0.0142091
778.677	0.0142194
778.755	0.0143035
778.833	0.0141089
778.912	0.0142219
778.990	0.0142458
779.068	0.0141972
779.146	0.0141259
779.224	0.0142673
779.302	0.0143118
779.380	0.0142226
779.458	0.0142935
779.537	0.0143638
779.615	0.0142090
779.693	0.0142070
779.771	0.0142522
779.849	0.0142130
779.927	0.0142635
780.005	0.0141383
780.083	0.0141704
780.162	0.0141427
780.240	0.0139961
780.318	0.0141074
780.396	0.0141482
780.474	0.0141448
780.552	0.0140764
780.630	0.0141746
780.708	0.0140323
780.787	0.0141285
780.865	0.0141330
780.943	0.0142086
781.021	0.0142422
781.099	0.0141279
781.177	0.0141599
781.255	0.0140968
781.333	0.0141627
781.412	0.0142510
781.490	0.0141496
781.568	0.0143455
781.646	0.0141486
781.724	0.0141826
781.802	0.0142296
781.880	0.0141914
781.958	0.0141364
782.037	0.0142219
782.115	0.0142075
782.193	0.0142343
782.271	0.0142142
782.349	0.0141287
782.427	0.0141316
782.505	0.0142655
782.583	0.0140608
782.662	0.0140221
782.740	0.0141912
782.818	0.0141855
782.896	0.0141231
782.974	0.0142039
783.052	0.0141893
783.130	0.0141363
783.208	0.0140948
783.287	0.0141721
783.365	0.0141283
783.443	0.0142289
783.521	0.0139506
783.599	0.0141663
783.677	0.0141523
783.755	0.0141727
783.833	0.0140997
783.912	0.0140966
783.990	0.0141802
784.068	0.0140720
784.146	0.0141712
784.224	0.0141934
784.302	0.0142554
784.380	0.0143648
784.458	0.0142847
784.537	0.0140957
784.615	0.0141710
784.693	0.0142419
784.771	0.0141886
784.849	0.0141821
784.927	0.0143002
785.005	0.0140504
785.083	0.0141310
785.162	0.0140137
785.240	0.0141772
785.318	0.0141207
785.396	0.0141145
785.474	0.0141907
785.552	0.0139796
785.630	0.0139697
785.708	0.0140767
785.787	0.0140034
785.865	0.0140813
785.943	0.0140704
786.021	0.0140281
786.099	0.0141122
786.177	0.0140453
786.255	0.0140425
786.333	0.0140175
786.412	0.0139494
786.490	0.0140388
786.568	0.0139465
786.646	0.0139758
786.724	0.0140264
786.802	0.0139666
786.880	0.0140643
786.958	0.0140552
787.037	0.0141362
787.115	0.0140877
787.193	0.0140833
787.271	0.0141902
787.349	0.0141086
787.427	0.0139418
787.505	0.0142345
787.583	0.0143222
787.662	0.0140783
787.740	0.0140816
787.818	0.0142413
787.896	0.0142091
787.974	0.0142367
788.052	0.0141814
788.130	0.0140550
788.208	0.0140727
788.287	0.0143034
788.365	0.0142452
788.443	0.0140663
788.521	0.0141772
788.599	0.0141406
788.677	0.0140340
788.755	0.0140022
788.833	0.0141911
788.912	0.0140928
788.990	0.0140227
789.068	0.0140738
789.146	0.0140979
789.224	0.0139251
789.302	0.0141035
789.380	0.0140704
789.458	0.0141470
789.537	0.0141074
789.615	0.0140810
789.693	0.0140981
789.771	0.0141163
789.849	0.0141159
789.927	0.0141542
790.005	0.0140652
790.083	0.0141608
790.162	0.0141994
790.240	0.0140941
790.318	0.0141003
790.396	0.0142238
790.474	0.0140229
790.552	0.0141285
790.630	0.0143056
790.708	0.0142921
790.787	0.0141708
790.865	0.0142012
790.943	0.0142953
791.021	0.0142509
791.099	0.0142655
791.177	0.0142157
791.255	0.0142361
791.333	0.0141827
791.412	0.0142982
791.490	0.0144289
791.568	0.0142694
791.646	0.0142462
791.724	0.0141940
791.802	0.0142837
791.880	0.0143214
791.958	0.0142312
792.037	0.0140868
792.115	0.0141723
792.193	0.0141415
792.271	0.0141778
792.349	0.0143211
792.427	0.0141206
792.505	0.0141857
792.583	0.0142633
792.662	0.0141541
792.740	0.0142477
792.818	0.0140773
792.896	0.0141296
792.974	0.0141809
793.052	0.0143093
793.130	0.0141028
793.208	0.0143082
793.287	0.0142113
793.365	0.0140438
793.443	0.0142522
793.521	0.0141782
793.599	0.0141152
793.677	0.0141853
793.755	0.0141449
793.833	0.0143660
793.912	0.0141655
793.990	0.0141594
794.068	0.0142152
794.146	0.0141000
794.224	0.0142331
794.302	0.0140752
794.380	0.0142258
794.458	0.0142510
794.537	0.0141639
794.615	0.0141930
794.693	0.0142787
794.771	0.0141418
794.849	0.0140974
794.927	0.0141627
795.005	0.0143583
795.083	0.0141778
795.162	0.0141502
795.240	0.0141820
795.318	0.0142286
795.396	0.0142548
795.474	0.0140631
795.552	0.0142503
795.630	0.0142368
795.708	0.0143219
795.787	0.0140499
795.865	0.0142308
795.943	0.0141670
796.021	0.0141021
796.099	0.0141902
796.177	0.0142069
796.255	0.0142207
796.333	0.0141675
796.412	0.0140486
796.490	0.0141890
796.568	0.0140995
796.646	0.0141241
796.724	0.0140966
796.802	0.0141401
796.880	0.0141802
796.958	0.0141953
797.037	0.0140324
797.115	0.0141538
797.193	0.0141296
797.271	0.0141666
797.349	0.0140533
797.427	0.0139856
797.505	0.0141593
797.583	0.0140976
797.662	0.0142050
797.740	0.0142286
797.818	0.0141410
797.896	0.0141615
797.974	0.0143051
798.052	0.0143093
798.130	0.0141546
798.208	0.0141650
798.287	0.0142274
798.365	0.0141701
798.443	0.0142168
798.521	0.0143749
798.599	0.0140303
798.677	0.0142720
798.755	0.0141807
798.833	0.0142377
798.912	0.0141449
798.990	0.0141789
799.068	0.0141971
799.146	0.0141515
799.224	0.0140900
799.302	0.0141610
799.380	0.0141103
799.458	0.0141741
799.537	0.0139345
799.615	0.0140867
799.693	0.0141072
799.771	0.0141063
799.849	0.0140689
799.927	0.0140485
800.005	0.0141022
800.083	0.0140560
800.162	0.0141657
800.240	0.0140009
800.318	0.0139694
800.396	0.0140266
800.474	0.0142134
800.552	0.0140871
800.630	0.0140304
800.708	0.0141425
800.787	0.0140161
800.865	0.0141806
800.943	0.0140187
801.021	0.0140569
801.099	0.0142467
801.177	0.0140336
801.255	0.0140157
801.333	0.0139738
801.412	0.0139762
801.490	0.0140083
801.568	0.0139568
801.646	0.0141425
801.724	0.0139272
801.802	0.0140693
801.880	0.0139797
801.958	0.0140200
802.037	0.0140662
802.115	0.0140789
802.193	0.0140064
802.271	0.0141637
802.349	0.0140511
802.427	0.0140873
802.505	0.0141103
802.583	0.0139714
802.662	0.0141117
802.740	0.0142007
802.818	0.0140545
802.896	0.0140858
802.974	0.0142367
803.052	0.0142091
803.130	0.0141080
803.208	0.0140485
803.287	0.0140628
803.365	0.0140545
803.443	0.0141568
803.521	0.0141193
803.599	0.0140958
803.677	0.0140481
803.755	0.0140695
803.833	0.0139814
803.912	0.0140369
803.990	0.0141890
804.068	0.0140234
804.146	0.0139428
804.224	0.0140575
804.302	0.0141849
804.380	0.0141137
804.458	0.0140382
804.537	0.0140499
804.615	0.0141277
804.693	0.0140796
804.771	0.0141000
804.849	0.0141068
804.927	0.0142319
805.005	0.0140112
805.083	0.0141206
805.162	0.0140970
805.240	0.0140216
805.318	0.0141537
805.396	0.0141821
805.474	0.0142611
805.552	0.0141316
805.630	0.0141496
805.708	0.0141985
805.787	0.0142982
805.865	0.0142300
805.943	0.0141572
806.021	0.0141056
806.099	0.0142242
806.177	0.0142934
806.255	0.0142816
806.333	0.0142945
806.412	0.0143061
806.490	0.0142210
806.568	0.0142873
806.646	0.0142666
806.724	0.0142614
806.802	0.0143478
806.880	0.0141463
806.958	0.0141536
807.037	0.0141911
807.115	0.0143700
807.193	0.0143861
807.271	0.0143776
807.349	0.0142095
807.427	0.0142603
807.505	0.0141312
807.583	0.0142110
807.662	0.0143171
807.740	0.0142771
807.818	0.0141853
807.896	0.0141994
807.974	0.0142702
808.052	0.0142539
808.130	0.0142585
808.208	0.0141782
808.287	0.0141506
808.365	0.0141081
808.443	0.0141267
808.521	0.0141941
808.599	0.0141063
808.677	0.0141330
808.755	0.0140933
808.833	0.0141012
808.912	0.0142804
808.990	0.0142018
809.068	0.0141327
809.146	0.0141058
809.224	0.0141535
809.302	0.0141301
809.380	0.0141878
809.458	0.0142396
809.537	0.0140728
809.615	0.0140911
809.693	0.0141300
809.771	0.0139553
809.849	0.0141749
809.927	0.0143083
810.005	0.0141129
810.083	0.0141393
810.162	0.0140686
810.240	0.0140938
810.318	0.0140752
810.396	0.0142381
810.474	0.0141588
810.552	0.0141727
810.630	0.0141814
810.708	0.0141675
810.787	0.0142407
810.865	0.0141137
810.943	0.0141678
811.021	0.0142105
811.099	0.0143021
811.177	0.0140822
811.255	0.0141268
811.333	0.0141544
811.412	0.0140951
811.490	0.0140691
811.568	0.0139455
811.646	0.0141553
811.724	0.0139955
811.802	0.0140000
811.880	0.0141792
811.958	0.0141140
812.037	0.0141161
812.115	0.0140736
812.193	0.0141069
812.271	0.0142113
812.349	0.0140841
812.427	0.0142100
812.505	0.0142609
812.583	0.0142446
812.662	0.0142741
812.740	0.0142206
812.818	0.0142967
812.896	0.0141512
812.974	0.0140894
813.052	0.0141895
813.130	0.0142078
813.208	0.0141984
813.287	0.0141329
813.365	0.0142316
813.443	0.0141795
813.521	0.0141457
813.599	0.0141205
813.677	0.0141537
813.755	0.0142236
813.833	0.0142465
813.912	0.0141660
813.990	0.0140754
814.068	0.0142516
814.146	0.0141840
814.224	0.0141602
814.302	0.0140488
814.380	0.0141737
814.458	0.0140735
814.537	0.0140858
814.615	0.0141184
814.693	0.0141560
814.771	0.0139895
814.849	0.0140115
814.927	0.0142136
815.005	0.0142126
815.083	0.0141991
815.162	0.0142109
815.240	0.0142438
815.318	0.0141348
815.396	0.0141803
815.474	0.0142151
815.552	0.0143401
815.630	0.0142445
815.708	0.0142973
815.787	0.0141944
815.865	0.0142263
815.943	0.0141248
816.021	0.0141309
816.099	0.0141914
816.177	0.0141046
816.255	0.0140208
816.333	0.0141223
816.412	0.0140667
816.490	0.0140746
816.568	0.0141957
816.646	0.0140923
816.724	0.0142146
816.802	0.0143166
816.880	0.0140981
816.958	0.0141620
817.037	0.0140365
817.115	0.0142476
817.193	0.0142053
817.271	0.0141520
817.349	0.0140475
817.427	0.0141023
817.505	0.0141781
817.583	0.0141596
817.662	0.0141982
817.740	0.0141755
817.818	0.0141042
817.896	0.0141409
817.974	0.0142258
818.052	0.0140513
818.130	0.0139965
818.208	0.0141863
818.287	0.0140911
818.365	0.0141190
818.443	0.0141611
818.521	0.0141947
818.599	0.0141193
818.677	0.0141040
818.755	0.0143102
818.833	0.0142388
818.912	0.0142527
818.990	0.0140874
819.068	0.0141208
819.146	0.0141479
819.224	0.0139902
819.302	0.0140244
819.380	0.0140099
819.458	0.0140280
819.537	0.0139432
819.615	0.0140019
819.693	0.0141462
819.771	0.0141045
819.849	0.0141261
819.927	0.0140668
820.005	0.0139426
820.083	0.0139890
820.162	0.0140641
820.240	0.0139980
820.318	0.0141105
820.396	0.0141752
820.474	0.0140991
820.552	0.0140327
820.630	0.0140432
820.708	0.0140946
820.787	0.0141312
820.865	0.0140976
820.943	0.0141624
821.021	0.0139819
821.099	0.0139507
821.177	0.0141268
821.255	0.0139629
821.333	0.0140105
821.412	0.0140338
821.490	0.0139812
821.568	0.0139259
821.646	0.0139262
821.724	0.0142064
821.802	0.0140873
821.880	0.0139127
821.958	0.0139284
822.037	0.0140791
822.115	0.0140218
822.193	0.0140370
822.271	0.0140032
822.349	0.0139186
822.427	0.0140858
822.505	0.0140027
822.583	0.0140381
822.662	0.0139626
822.740	0.0140139
822.818	0.0140358
822.896	0.0140752
822.974	0.0140411
823.052	0.0140293
823.130	0.0141631
823.208	0.0140065
823.287	0.0140628
823.365	0.0140535
823.443	0.0139500
823.521	0.0140611
823.599	0.0141892
823.677	0.0141216
823.755	0.0141154
823.833	0.0141604
823.912	0.0141527
823.990	0.0139334
824.068	0.0140803
824.146	0.0142625
824.224	0.0141639
824.302	0.0141356
824.380	0.0142925
824.458	0.0140604
824.537	0.0140122
824.615	0.0140786
824.693	0.0141900
824.771	0.0139917
824.849	0.0141325
824.927	0.0141340
825.005	0.0140798
825.083	0.0141591
825.162	0.0141394
825.240	0.0140376
825.318	0.0140348
825.396	0.0140840
825.474	0.0141431
825.552	0.0140737
825.630	0.0141640
825.708	0.0141239
825.787	0.0140608
825.865	0.0141209
825.943	0.0141711
826.021	0.0140990
826.099	0.0141461
826.177	0.0142561
826.255	0.0141953
826.333	0.0140221
826.412	0.0141138
826.490	0.0140599
826.568	0.0141391
826.646	0.0141766
826.724	0.0141016
826.802	0.0139934
826.880	0.0140660
826.958	0.0140474
827.037	0.0139864
827.115	0.0141342
827.193	0.0142519
827.271	0.0139297
827.349	0.0140598
827.427	0.0140349
827.505	0.0140175
827.583	0.0140653
827.662	0.0140660
827.740	0.0141521
827.818	0.0139514
827.896	0.0141667
827.974	0.0140591
828.052	0.0140049
828.130	0.0142137
828.208	0.0140833
828.287	0.0139092
828.365	0.0140365
828.443	0.0141386
828.521	0.0142054
828.599	0.0141680
828.677	0.0140205
828.755	0.0139926
828.833	0.0140807
828.912	0.0141021
828.990	0.0140104
829.068	0.0141695
829.146	0.0140343
829.224	0.0140730
829.302	0.0141500
829.380	0.0141007
829.458	0.0142134
829.537	0.0140716
829.615	0.0140828
829.693	0.0142157
829.771	0.0142382
829.849	0.0142979
829.927	0.0141127
830.005	0.0139844
830.083	0.0142170
830.162	0.0142496
830.240	0.0143268
830.318	0.0142353
830.396	0.0140208
830.474	0.0141904
830.552	0.0141398
830.630	0.0142319
830.708	0.0142756
830.787	0.0141322
830.865	0.0141344
830.943	0.0142448
831.021	0.0140471
831.099	0.0140445
831.177	0.0141306
831.255	0.0141209
831.333	0.0141577
831.412	0.0141512
831.490	0.0139500
831.568	0.0140447
831.646	0.0140343
831.724	0.0141159
831.802	0.0139830
831.880	0.0140722
831.958	0.0141257
832.037	0.0141962
832.115	0.0141621
832.193	0.0141772
832.271	0.0142220
832.349	0.0140677
832.427	0.0142390
832.505	0.0141373
832.583	0.0140694
832.662	0.0141866
832.740	0.0140830
832.818	0.0142035
832.896	0.0141051
832.974	0.0140549
833.052	0.0142999
833.130	0.0143627
833.208	0.0141960
833.287	0.0141876
833.365	0.0141769
833.443	0.0142909
833.521	0.0141924
833.599	0.0139317
833.677	0.0142842
833.755	0.0142556
833.833	0.0141708
833.912	0.0141144
833.990	0.0141470
834.068	0.0142449
834.146	0.0140355
834.224	0.0142808
834.302	0.0142014
834.380	0.0140932
834.458	0.0141550
834.537	0.0141111
834.615	0.0141962
834.693	0.0144331
834.771	0.0141927
834.849	0.0143050
834.927	0.0141820
835.005	0.0142427
835.083	0.0142817
835.162	0.0140588
835.240	0.0142074
835.318	0.0141770
835.396	0.0141990
835.474	0.0141528
835.552	0.0141029
835.630	0.0140129
835.708	0.0140327
835.787	0.0142528
835.865	0.0143058
835.943	0.0143858
836.021	0.0141699
836.099	0.0142429
836.177	0.0142425
836.255	0.0141769
836.333	0.0141133
836.412	0.0142977
836.490	0.0141503
836.568	0.0141774
836.646	0.0139875
836.724	0.0141542
836.802	0.0141441
836.880	0.0142309
836.958	0.0141164
837.037	0.0141312
837.115	0.0141906
837.193	0.0142332
837.271	0.0141955
837.349	0.0141954
837.427	0.0142905
837.505	0.0142169
837.583	0.0141591
837.662	0.0141065
837.740	0.0141558
837.818	0.0140257
837.896	0.0141054
837.974	0.0142047
838.052	0.0143430
838.130	0.0144376
838.208	0.0140878
838.287	0.0141524
838.365	0.0141523
838.443	0.0142462
838.521	0.0141582
838.599	0.0140498
838.677	0.0141435
838.755	0.0140386
838.833	0.0140988
838.912	0.0141927
838.990	0.0140824
839.068	0.0140630
839.146	0.0140508
839.224	0.0141781
839.302	0.0142002
839.380	0.0141020
839.458	0.0142816
839.537	0.0141232
839.615	0.0141396
839.693	0.0141690
839.771	0.0140735
839.849	0.0141479
839.927	0.0140560
840.005	0.0142507
840.083	0.0142936
840.162	0.0141180
840.240	0.0141833
840.318	0.0142090
840.396	0.0140280
840.474	0.0141362
840.552	0.0141718
840.630	0.0142548
840.708	0.0143150
840.787	0.0140839
840.865	0.0140848
840.943	0.0143185
841.021	0.0141063
841.099	0.0141634
841.177	0.0143449
841.255	0.0141087
841.333	0.0143360
841.412	0.0142939
841.490	0.0142068
841.568	0.0142003
841.646	0.0142273
841.724	0.0141405
841.802	0.0143077
841.880	0.0142398
841.958	0.0141482
842.037	0.0142249
842.115	0.0142379
842.193	0.0141767
842.271	0.0140952
842.349	0.0142152
842.427	0.0142136
842.505	0.0141200
842.583	0.0142030
842.662	0.0141640
842.740	0.0142176
842.818	0.0139977
842.896	0.0141029
842.974	0.0141102
843.052	0.0139924
843.130	0.0139503
843.208	0.0141895
843.287	0.0141570
843.365	0.0141665
843.443	0.0141424
843.521	0.0142485
843.599	0.0140099
843.677	0.0139980
843.755	0.0141354
843.833	0.0140319
843.912	0.0140977
843.990	0.0141145
844.068	0.0141295
844.146	0.0141183
844.224	0.0140070
844.302	0.0140778
844.380	0.0140323
844.458	0.0140737
844.537	0.0142411
844.615	0.0142006
844.693	0.0141013
844.771	0.0141665
844.849	0.0141969
844.927	0.0141376
845.005	0.0140324
845.083	0.0140972
845.162	0.0140373
845.240	0.0141190
845.318	0.0141068
845.396	0.0142281
845.474	0.0139890
845.552	0.0140661
845.630	0.0141042
845.708	0.0140967
845.787	0.0140681
845.865	0.0139266
845.943	0.0140254
846.021	0.0141541
846.099	0.0139881
846.177	0.0141064
846.255	0.0140971
846.333	0.0141262
846.412	0.0141376
846.490	0.0141527
846.568	0.0139879
846.646	0.0140209
846.724	0.0141149
846.802	0.0140331
846.880	0.0140550
846.958	0.0140020
847.037	0.0141165
847.115	0.0140909
847.193	0.0141647
847.271	0.0140535
847.349	0.0139692
847.427	0.0141111
847.505	0.0139627
847.583	0.0140629
847.662	0.0140623
847.740	0.0142866
847.818	0.0142451
847.896	0.0140775
847.974	0.0141989
848.052	0.0141860
848.130	0.0141130
848.208	0.0141643
848.287	0.0142058
848.365	0.0141660
848.443	0.0141770
848.521	0.0141340
848.599	0.0141374
848.677	0.0142206
848.755	0.0140903
848.833	0.0140987
848.912	0.0141467
848.990	0.0142495
849.068	0.0142014
849.146	0.0141705
849.224	0.0142242
849.302	0.0143444
849.380	0.0141492
849.458	0.0142404
849.537	0.0142237
849.615	0.0141341
849.693	0.0140987
849.771	0.0142205
849.849	0.0141997
849.927	0.0142741
850.005	0.0141138
850.083	0.0141303
850.162	0.0140437
850.240	0.0140085
850.318	0.0141294
850.396	0.0140810
850.474	0.0139900
850.552	0.0141051
850.630	0.0139893
850.708	0.0139975
850.787	0.0141689
850.865	0.0141943
850.943	0.0140780
851.021	0.0141650
851.099	0.0140038
851.177	0.0141859
851.255	0.0140539
851.333	0.0140484
851.412	0.0141193
851.490	0.0141572
851.568	0.0141235
851.646	0.0140471
851.724	0.0143348
851.802	0.0142253
851.880	0.0140943
851.958	0.0140627
852.037	0.0141533
852.115	0.0142083
852.193	0.0141563
852.271	0.0140483
852.349	0.0140878
852.427	0.0141027
852.505	0.0142610
852.583	0.0142285
852.662	0.0140884
852.740	0.0138843
852.818	0.0139457
852.896	0.0139886
852.974	0.0142890
853.052	0.0140948
853.130	0.0141971
853.208	0.0140463
853.287	0.0139931
853.365	0.0140888
853.443	0.0140744
853.521	0.0140376
853.599	0.0140248
853.677	0.0140538
853.755	0.0140664
853.833	0.0140208
853.912	0.0140657
853.990	0.0140900
854.068	0.0141396
854.146	0.0140437
854.224	0.0140320
854.302	0.0140221
854.380	0.0140974
854.458	0.0142079
854.537	0.0141331
854.615	0.0140624
854.693	0.0141215
854.771	0.0142295
854.849	0.0142714
854.927	0.0141463
855.005	0.0141047
855.083	0.0141874
855.162	0.0140688
855.240	0.0141669
855.318	0.0143371
855.396	0.0142266
855.474	0.0142695
855.552	0.0140981
855.630	0.0143434
855.708	0.0143157
855.787	0.0142094
855.865	0.0141803
855.943	0.0142342
856.021	0.0142740
856.099	0.0142066
856.177	0.0141991
856.255	0.0143513
856.333	0.0143764
856.412	0.0140730
856.490	0.0143277
856.568	0.0142329
856.646	0.0141730
856.724	0.0143010
856.802	0.0142135
856.880	0.0142341
856.958	0.0142139
857.037	0.0141063
857.115	0.0142284
857.193	0.0141415
857.271	0.0140874
857.349	0.0140443
857.427	0.0140339
857.505	0.0141595
857.583	0.0142442
857.662	0.0141148
857.740	0.0141848
857.818	0.0141572
857.896	0.0142362
857.974	0.0142343
858.052	0.0141942
858.130	0.0141897
858.208	0.0141000
858.287	0.0140817
858.365	0.0142137
858.443	0.0141728
858.521	0.0141850
858.599	0.0142403
858.677	0.0141914
858.755	0.0142097
858.833	0.0142571
858.912	0.0142783
858.990	0.0140418
859.068	0.0140877
859.146	0.0141915
859.224	0.0141570
859.302	0.0141339
859.380	0.0142192
859.458	0.0142696
859.537	0.0141965
859.615	0.0141781
859.693	0.0140884
859.771	0.0141763
859.849	0.0141474
859.927	0.0141347
860.005	0.0142039
860.083	0.0141784
860.162	0.0140586
860.240	0.0143301
860.318	0.0141626
860.396	0.0142226
860.474	0.0141849
860.552	0.0139777
860.630	0.0142250
860.708	0.0143590
860.787	0.0142654
860.865	0.0142464
860.943	0.0141665
861.021	0.0142779
861.099	0.0142776
861.177	0.0142825
861.255	0.0142220
861.333	0.0140922
861.412	0.0143059
861.490	0.0140894
861.568	0.0141372
861.646	0.0141718
861.724	0.0142949
861.802	0.0142218
861.880	0.0142700
861.958	0.0142193
862.037	0.0141365
862.115	0.0141198
862.193	0.0141992
862.271	0.0142876
862.349	0.0141841
862.427	0.0141794
862.505	0.0142832
862.583	0.0142474
862.662	0.0144321
862.740	0.0141985
862.818	0.0141736
862.896	0.0141070
862.974	0.0141701
863.052	0.0141529
863.130	0.0141362
863.208	0.0142384
863.287	0.0141342
863.365	0.0140864
863.443	0.0141324
863.521	0.0140709
863.599	0.0142329
863.677	0.0140478
863.755	0.0141290
863.833	0.0140170
863.912	0.0143034
863.990	0.0142583
864.068	0.0140658
864.146	0.0140445
864.224	0.0141550
864.302	0.0141463
864.380	0.0140842
864.458	0.0141228
864.537	0.0142008
864.615	0.0141497
864.693	0.0142792
864.771	0.0141866
864.849	0.0141344
864.927	0.0141190
865.005	0.0140895
865.083	0.0140449
865.162	0.0140842
865.240	0.0140808
865.318	0.0141886
865.396	0.0142013
865.474	0.0141722
865.552	0.0141290
865.630	0.0140840
865.708	0.0141422
865.787	0.0140849
865.865	0.0142207
865.943	0.0141141
866.021	0.0141086
866.099	0.0142162
866.177	0.0141476
866.255	0.0141187
866.333	0.0141171
866.412	0.0141265
866.490	0.0140594
866.568	0.0141959
866.646	0.0140440
866.724	0.0140422
866.802	0.0140820
866.880	0.0142213
866.958	0.0140679
867.037	0.0139920
867.115	0.0139906
867.193	0.0139346
867.271	0.0141353
867.349	0.0141082
867.427	0.0140180
867.505	0.0140053
867.583	0.0141562
867.662	0.0141528
867.740	0.0141338
867.818	0.0141422
867.896	0.0141069
867.974	0.0140601
868.052	0.0142291
868.130	0.0140707
868.208	0.0140812
868.287	0.0140761
868.365	0.0141128
868.443	0.0142387
868.521	0.0140593
868.599	0.0140936
868.677	0.0140214
868.755	0.0140923
868.833	0.0141892
868.912	0.0140073
868.990	0.0141630
869.068	0.0141679
869.146	0.0140269
869.224	0.0140523
869.302	0.0141045
869.380	0.0141824
869.458	0.0142187
869.537	0.0140278
869.615	0.0141193
869.693	0.0142648
869.771	0.0141415
869.849	0.0140096
869.927	0.0141399
870.005	0.0141477
870.083	0.0140534
870.162	0.0141325
870.240	0.0141415
870.318	0.0141659
870.396	0.0142480
870.474	0.0141927
870.552	0.0142329
870.630	0.0141986
870.708	0.0141180
870.787	0.0140608
870.865	0.0141182
870.943	0.0141148
871.021	0.0140288
871.099	0.0140958
871.177	0.0142245
871.255	0.0141908
871.333	0.0142999
871.412	0.0142481
871.490	0.0140871
871.568	0.0140092
871.646	0.0142312
871.724	0.0142212
871.802	0.0140788
871.880	0.0142527
871.958	0.0141293
872.037	0.0141443
872.115	0.0141787
872.193	0.0141765
872.271	0.0141528
872.349	0.0139474
872.427	0.0140360
872.505	0.0142036
872.583	0.0139379
872.662	0.0140820
872.740	0.0141285
872.818	0.0140818
872.896	0.0140356
872.974	0.0140761
873.052	0.0140678
873.130	0.0140643
873.208	0.0141617
873.287	0.0140955
873.365	0.0143071
873.443	0.0141674
873.521	0.0140327
873.599	0.0142017
873.677	0.0141708
873.755	0.0141293
873.833	0.0139945
873.912	0.0140334
873.990	0.0140594
874.068	0.0141178
874.146	0.0140732
874.224	0.0141264
874.302	0.0140401
874.380	0.0142188
874.458	0.0141335
874.537	0.0142030
874.615	0.0142754
874.693	0.0141784
874.771	0.0141233
874.849	0.0140765
874.927	0.0140920
875.005	0.0141615
875.083	0.0143255
875.162	0.0142513
875.240	0.0142393
875.318	0.0141090
875.396	0.0142323
875.474	0.0142101
875.552	0.0141367
875.630	0.0142109
875.708	0.0141552
875.787	0.0142053
875.865	0.0142209
875.943	0.0142181
876.021	0.0141636
876.099	0.0141338
876.177	0.0140857
876.255	0.0141093
876.333	0.0141532
876.412	0.0142091
876.490	0.0142446
876.568	0.0142405
876.646	0.0141659
876.724	0.0142229
876.802	0.0142155
876.880	0.0141691
876.958	0.0142140
877.037	0.0144086
877.115	0.0143958
877.193	0.0143345
877.271	0.0142528
877.349	0.0143481
877.427	0.0142857
877.505	0.0142656
877.583	0.0141813
877.662	0.0142581
877.740	0.0141970
877.818	0.0141860
877.896	0.0142498
877.974	0.0142529
878.052	0.0142077
878.130	0.0140444
878.208	0.0141174
878.287	0.0143188
878.365	0.0141232
878.443	0.0142787
878.521	0.0142072
878.599	0.0141708
878.677	0.0141701
878.755	0.0141734
878.833	0.0141856
878.912	0.0140334
878.990	0.0141283
879.068	0.0142646
879.146	0.0141467
879.224	0.0141590
879.302	0.0141743
879.380	0.0141335
879.458	0.0142497
879.537	0.0143027
879.615	0.0142897
879.693	0.0143217
879.771	0.0142239
879.849	0.0142074
879.927	0.0143803
880.005	0.0142596
880.083	0.0141985
880.162	0.0142303
880.240	0.0142416
880.318	0.0142043
880.396	0.0142053
880.474	0.0140779
880.552	0.0141047
880.630	0.0141248
880.708	0.0139600
880.787	0.0140628
880.865	0.0141694
880.943	0.0141306
881.021	0.0141136
881.099	0.0139817
881.177	0.0140169
881.255	0.0141394
881.333	0.0140338
881.412	0.0140935
881.490	0.0141460
881.568	0.0142189
881.646	0.0142950
881.724	0.0142049
881.802	0.0140726
881.880	0.0141489
881.958	0.0141742
882.037	0.0142050
882.115	0.0142361
882.193	0.0142062
882.271	0.0142587
882.349	0.0141250
882.427	0.0140140
882.505	0.0141030
882.583	0.0141530
882.662	0.0141107
882.740	0.0141972
882.818	0.0142191
882.896	0.0142826
882.974	0.0140778
883.052	0.0142712
883.130	0.0142675
883.208	0.0142273
883.287	0.0140196
883.365	0.0141508
883.443	0.0141887
883.521	0.0141792
883.599	0.0141238
883.677	0.0141298
883.755	0.0140469
883.833	0.0140529
883.912	0.0140754
883.990	0.0139837
884.068	0.0140744
884.146	0.0140202
884.224	0.0140953
884.302	0.0141696
884.380	0.0139625
884.458	0.0139913
884.537	0.0141527
884.615	0.0140134
884.693	0.0140278
884.771	0.0141705
884.849	0.0140612
884.927	0.0140979
885.005	0.0141702
885.083	0.0141438
885.162	0.0140509
885.240	0.0139687
885.318	0.0140357
885.396	0.0140926
885.474	0.0140182
885.552	0.0141097
885.630	0.0140497
885.708	0.0139901
885.787	0.0139980
885.865	0.0141018
885.943	0.0141742
886.021	0.0141747
886.099	0.0142482
886.177	0.0141116
886.255	0.0141046
886.333	0.0142962
886.412	0.0143021
886.490	0.0141736
886.568	0.0141288
886.646	0.0142415
886.724	0.0143845
886.802	0.0141481
886.880	0.0140929
886.958	0.0140511
887.037	0.0139945
887.115	0.0141541
887.193	0.0140649
887.271	0.0139787
887.349	0.0140169
887.427	0.0141203
887.505	0.0140828
887.583	0.0142154
887.662	0.0141389
887.740	0.0141929
887.818	0.0142515
887.896	0.0142162
887.974	0.0141076
888.052	0.0142062
888.130	0.0141876
888.208	0.0142339
888.287	0.0142218
888.365	0.0142330
888.443	0.0143142
888.521	0.0141528
888.599	0.0141850
888.677	0.0139796
888.755	0.0140369
888.833	0.0139874
888.912	0.0139622
888.990	0.0140868
889.068	0.0140504
889.146	0.0140094
889.224	0.0141006
889.302	0.0141558
889.380	0.0140846
889.458	0.0141667
889.537	0.0141150
889.615	0.0141547
889.693	0.0140417
889.771	0.0139974
889.849	0.0141174
889.927	0.0141725
890.005	0.0139378
890.083	0.0140382
890.162	0.0140466
890.240	0.0140473
890.318	0.0141680
890.396	0.0140402
890.474	0.0139156
890.552	0.0139228
890.630	0.0141339
890.708	0.0139999
890.787	0.0140399
890.865	0.0140620
890.943	0.0139819
891.021	0.0142747
891.099	0.0141695
891.177	0.0139493
891.255	0.0140741
891.333	0.0141480
891.412	0.0140566
891.490	0.0141376
891.568	0.0140279
891.646	0.0139399
891.724	0.0140346
891.802	0.0140019
891.880	0.0139524
891.958	0.0139659
892.037	0.0140138
892.115	0.0140397
892.193	0.0140785
892.271	0.0138884
892.349	0.0139958
892.427	0.0140965
892.505	0.0141144
892.583	0.0140358
892.662	0.0141500
892.740	0.0141910
892.818	0.0141481
892.896	0.0141647
892.974	0.0142005
893.052	0.0141268
893.130	0.0141183
893.208	0.0142324
893.287	0.0141198
893.365	0.0142984
893.443	0.0141612
893.521	0.0140165
893.599	0.0140868
893.677	0.0140905
893.755	0.0141699
893.833	0.0142965
893.912	0.0142430
893.990	0.0140126
894.068	0.0142078
894.146	0.0141877
894.224	0.0141021
894.302	0.0142150
894.380	0.0141968
894.458	0.0141525
894.537	0.0141418
894.615	0.0142850
894.693	0.0142498
894.771	0.0142845
894.849	0.0141701
894.927	0.0140061
895.005	0.0141010
895.083	0.0141740
895.162	0.0141026
895.240	0.0141449
895.318	0.0140524
895.396	0.0140710
895.474	0.0141670
895.552	0.0141085
895.630	0.0142770
895.708	0.0142730
895.787	0.0141991
895.865	0.0141904
895.943	0.0141600
896.021	0.0141922
896.099	0.0141092
896.177	0.0143272
896.255	0.0142867
896.333	0.0142879
896.412	0.0143753
896.490	0.0143419
896.568	0.0142578
896.646	0.0142504
896.724	0.0142160
896.802	0.0142416
896.880	0.0141886
896.958	0.0140500
897.037	0.0141102
897.115	0.0141714
897.193	0.0141364
897.271	0.0141167
897.349	0.0140220
897.427	0.0141900
897.505	0.0141162
897.583	0.0140906
897.662	0.0141580
897.740	0.0140137
897.818	0.0141714
897.896	0.0140662
897.974	0.0142930
898.052	0.0142186
898.130	0.0141650
898.208	0.0141666
898.287	0.0141808
898.365	0.0142384
898.443	0.0142489
898.521	0.0142299
898.599	0.0142385
898.677	0.0142743
898.755	0.0142499
898.833	0.0142183
898.912	0.0142117
898.990	0.0142112
899.068	0.0140191
899.146	0.0140286
899.224	0.0140942
899.302	0.0141438
899.380	0.0139726
899.458	0.0141037
899.537	0.0142099
899.615	0.0142776
899.693	0.0141866
899.771	0.0142165
899.849	0.0141615
899.927	0.0142188
900.005	0.0141171
900.083	0.0141132
900.162	0.0141266
900.240	0.0139960
900.318	0.0140637
900.396	0.0142426
900.474	0.0141647
900.552	0.0141821
900.630	0.0142076
900.708	0.0142381
900.787	0.0140752
900.865	0.0142355
900.943	0.0142240
901.021	0.0141625
901.099	0.0140648
901.177	0.0141348
901.255	0.0143580
901.333	0.0142612
901.412	0.0141541
901.490	0.0142529
901.568	0.0143336
901.646	0.0141615
901.724	0.0140418
901.802	0.0141214
901.880	0.0141368
901.958	0.0141582
902.037	0.0141620
902.115	0.0139426
902.193	0.0140497
902.271	0.0141496
902.349	0.0142500
902.427	0.0141611
902.505	0.0139977
902.583	0.0140340
902.662	0.0141525
902.740	0.0141694
902.818	0.0142164
902.896	0.0142634
902.974	0.0141802
903.052	0.0142336
903.130	0.0142600
903.208	0.0142717
903.287	0.0140697
903.365	0.0141442
903.443	0.0141769
903.521	0.0142607
903.599	0.0141614
903.677	0.0141666
903.755	0.0139999
903.833	0.0142531
903.912	0.0141070
903.990	0.0139997
904.068	0.0141374
904.146	0.0142265
904.224	0.0141908
904.302	0.0141396
904.380	0.0140911
904.458	0.0141151
904.537	0.0142171
904.615	0.0141113
904.693	0.0139524
904.771	0.0142234
904.849	0.0141653
904.927	0.0141164
905.005	0.0142042
905.083	0.0142622
905.162	0.0142655
905.240	0.0142036
905.318	0.0141542
905.396	0.0141803
905.474	0.0142437
905.552	0.0141135
905.630	0.0142493
905.708	0.0143279
905.787	0.0141927
905.865	0.0141438
905.943	0.0142437
906.021	0.0142702
906.099	0.0141804
906.177	0.0141039
906.255	0.0141942
906.333	0.0142208
906.412	0.0141774
906.490	0.0141125
906.568	0.0140812
906.646	0.0140248
906.724	0.0142190
906.802	0.0142352
906.880	0.0140184
906.958	0.0142410
907.037	0.0141416
907.115	0.0141566
907.193	0.0140732
907.271	0.0141161
907.349	0.0140646
907.427	0.0141021
907.505	0.0140923
907.583	0.0140910
907.662	0.0142896
907.740	0.0141274
907.818	0.0142365
907.896	0.0140752
907.974	0.0140127
908.052	0.0141206
908.130	0.0140908
908.208	0.0142096
908.287	0.0139528
908.365	0.0142694
908.443	0.0140643
908.521	0.0139719
908.599	0.0142696
908.677	0.0142479
908.755	0.0142107
908.833	0.0141027
908.912	0.0141486
908.990	0.0142290
909.068	0.0141126
909.146	0.0142140
909.224	0.0141651
909.302	0.0141770
909.380	0.0140258
909.458	0.0141169
909.537	0.0141216
909.615	0.0141348
909.693	0.0141860
909.771	0.0139719
909.849	0.0141856
909.927	0.0142960
910.005	0.0141555
910.083	0.0141622
910.162	0.0141296
910.240	0.0141925
910.318	0.0142845
910.396	0.0142223
910.474	0.0141460
910.552	0.0141560
910.630	0.0141798
910.708	0.0142335
910.787	0.0142142
910.865	0.0140673
910.943	0.0140585
911.021	0.0141122
911.099	0.0141476
911.177	0.0141771
911.255	0.0140987
911.333	0.0140010
911.412	0.0141155
911.490	0.0141947
911.568	0.0141090
911.646	0.0140163
911.724	0.0140493
911.802	0.0141124
911.880	0.0142585
911.958	0.0140826
912.037	0.0141900
912.115	0.0142221
912.193	0.0142036
912.271	0.0141311
912.349	0.0141714
912.427	0.0140997
912.505	0.0140993
912.583	0.0142475
912.662	0.0142017
912.740	0.0141125
912.818	0.0142126
912.896	0.0141174
912.974	0.0141610
913.052	0.0142403
913.130	0.0142162
913.208	0.0141710
913.287	0.0142192
913.365	0.0141377
913.443	0.0141356
913.521	0.0141328
913.599	0.0141618
913.677	0.0142567
913.755	0.0139365
913.833	0.0141696
913.912	0.0141692
913.990	0.0141703
914.068	0.0142440
914.146	0.0141707
914.224	0.0140562
914.302	0.0141917
914.380	0.0141252
914.458	0.0141880
914.537	0.0141098
914.615	0.0142644
914.693	0.0142362
914.771	0.0142020
914.849	0.0141634
914.927	0.0141301
915.005	0.0142625
915.083	0.0142440
915.162	0.0142824
915.240	0.0142437
915.318	0.0141135
915.396	0.0141257
915.474	0.0141782
915.552	0.0142513
915.630	0.0141164
915.708	0.0142027
915.787	0.0140508
915.865	0.0141236
915.943	0.0141319
916.021	0.0140934
916.099	0.0140089
916.177	0.0141822
916.255	0.0141807
916.333	0.0141262
916.412	0.0141582
916.490	0.0140542
916.568	0.0140667
916.646	0.0142361
916.724	0.0142249
916.802	0.0141885
916.880	0.0141567
916.958	0.0141799
917.037	0.0141342
917.115	0.0141053
917.193	0.0141878
917.271	0.0141251
917.349	0.0140886
917.427	0.0141740
917.505	0.0141466
917.583	0.0141179
917.662	0.0141227
917.740	0.0140305
917.818	0.0140272
917.896	0.0141764
917.974	0.0142194
918.052	0.0141139
918.130	0.0141444
918.208	0.0140374
918.287	0.0141189
918.365	0.0142486
918.443	0.0142817
918.521	0.0140022
918.599	0.0141055
918.677	0.0142700
918.755	0.0141792
918.833	0.0141343
918.912	0.0140899
918.990	0.0140975
919.068	0.0140629
919.146	0.0139784
919.224	0.0140894
919.302	0.0140662
919.380	0.0141222
919.458	0.0140495
919.537	0.0141464
919.615	0.0141628
919.693	0.0140797
919.771	0.0140866
919.849	0.0140895
919.927	0.0141304
920.005	0.0141108
920.083	0.0140945
920.162	0.0139680
920.240	0.0140380
920.318	0.0140677
920.396	0.0140405
920.474	0.0142805
920.552	0.0141269
920.630	0.0141296
920.708	0.0140218
920.787	0.0139542
920.865	0.0140037
920.943	0.0140242
921.021	0.0139547
921.099	0.0140456
921.177	0.0140491
921.255	0.0139780
921.333	0.0139787
921.412	0.0140624
921.490	0.0141528
921.568	0.0140714
921.646	0.0141588
921.724	0.0141859
921.802	0.0140717
921.880	0.0140611
921.958	0.0142208
922.037	0.0142821
922.115	0.0140511
922.193	0.0140098
922.271	0.0140875
922.349	0.0141464
922.427	0.0141520
922.505	0.0140662
922.583	0.0141189
922.662	0.0142191
922.740	0.0140690
922.818	0.0140844
922.896	0.0141442
922.974	0.0141828
923.052	0.0140256
923.130	0.0141340
923.208	0.0141922
923.287	0.0142659
923.365	0.0142439
923.443	0.0141784
923.521	0.0141473
923.599	0.0141114
923.677	0.0142518
923.755	0.0141487
923.833	0.0141975
923.912	0.0141258
923.990	0.0141264
924.068	0.0141467
924.146	0.0140847
924.224	0.0141471
924.302	0.0141959
924.380	0.0141580
924.458	0.0141508
924.537	0.0142027
924.615	0.0141507
924.693	0.0140380
924.771	0.0142428
924.849	0.0141850
924.927	0.0141657
925.005	0.0141171
925.083	0.0140351
925.162	0.0141358
925.240	0.0141605
925.318	0.0140611
925.396	0.0142081
925.474	0.0142439
925.552	0.0140392
925.630	0.0142970
925.708	0.0141003
925.787	0.0140851
925.865	0.0142143
925.943	0.0142619
926.021	0.0143302
926.099	0.0141988
926.177	0.0142276
926.255	0.0141723
926.333	0.0140887
926.412	0.0141464
926.490	0.0141633
926.568	0.0142152
926.646	0.0141447
926.724	0.0140738
926.802	0.0142903
926.880	0.0142520
926.958	0.0144142
927.037	0.0141473
927.115	0.0141885
927.193	0.0142313
927.271	0.0140811
927.349	0.0141435
927.427	0.0143132
927.505	0.0142055
927.583	0.0142441
927.662	0.0143002
927.740	0.0142116
927.818	0.0140814
927.896	0.0141594
927.974	0.0143176
928.052	0.0142628
928.130	0.0143514
928.208	0.0141682
928.287	0.0141414
928.365	0.0142751
928.443	0.0143726
928.521	0.0141962
928.599	0.0141463
928.677	0.0140619
928.755	0.0141594
928.833	0.0142236
928.912	0.0142313
928.990	0.0140909
929.068	0.0141105
929.146	0.0141320
929.224	0.0140980
929.302	0.0141296
929.380	0.0142091
929.458	0.0142843
929.537	0.0141750
929.615	0.0142035
929.693	0.0141547
929.771	0.0141304
929.849	0.0141887
929.927	0.0142374
930.005	0.0141808
930.083	0.0142528
930.162	0.0141541
930.240	0.0141668
930.318	0.0141605
930.396	0.0141342
930.474	0.0141331
930.552	0.0141429
930.630	0.0141312
930.708	0.0140787
930.787	0.0140906
930.865	0.0141357
930.943	0.0141946
931.021	0.0142500
931.099	0.0141364
931.177	0.0141812
931.255	0.0141849
931.333	0.0142385
931.412	0.0141683
931.490	0.0141980
931.568	0.0140916
931.646	0.0140980
931.724	0.0141396
931.802	0.0142374
931.880	0.0140678
931.958	0.0143487
932.037	0.0143026
932.115	0.0141843
932.193	0.0142204
932.271	0.0142448
932.349	0.0141182
932.427	0.0142046
932.505	0.0141671
932.583	0.0140540
932.662	0.0141558
932.740	0.0141383
932.818	0.0141482
932.896	0.0142391
932.974	0.0143473
933.052	0.0143420
933.130	0.0142164
933.208	0.0141802
933.287	0.0142119
933.365	0.0140919
933.443	0.0141962
933.521	0.0142385
933.599	0.0142671
933.677	0.0143494
933.755	0.0143033
933.833	0.0142085
933.912	0.0142046
933.990	0.0142103
934.068	0.0141688
934.146	0.0140794
934.224	0.0142215
934.302	0.0142253
934.380	0.0141902
934.458	0.0143102
934.537	0.0142683
934.615	0.0142137
934.693	0.0142710
934.771	0.0142519
934.849	0.0141153
934.927	0.0142491
935.005	0.0142437
935.083	0.0141823
935.162	0.0142169
935.240	0.0140722
935.318	0.0143410
935.396	0.0143525
935.474	0.0143532
935.552	0.0143226
935.630	0.0143416
935.708	0.0142577
935.787	0.0143106
935.865	0.0143616
935.943	0.0142465
936.021	0.0142233
936.099	0.0144085
936.177	0.0143458
936.255	0.0143066
936.333	0.0142851
936.412	0.0143403
936.490	0.0143132
936.568	0.0143491
936.646	0.0142944
936.724	0.0141081
936.802	0.0143341
936.880	0.0143131
936.958	0.0141560
937.037	0.0141857
937.115	0.0141824
937.193	0.0142224
937.271	0.0142455
937.349	0.0141515
937.427	0.0142422
937.505	0.0141267
937.583	0.0140810
937.662	0.0141574
937.740	0.0141682
937.818	0.0140948
937.896	0.0141399
937.974	0.0142518
938.052	0.0141676
938.130	0.0142226
938.208	0.0142133
938.287	0.0140765
938.365	0.0141470
938.443	0.0141843
938.521	0.0140052
938.599	0.0141257
938.677	0.0141143
938.755	0.0141647
938.833	0.0141747
938.912	0.0141550
938.990	0.0140775
939.068	0.0142252
939.146	0.0142241
939.224	0.0141084
939.302	0.0141105
939.380	0.0141077
939.458	0.0141534
939.537	0.0141886
939.615	0.0141610
939.693	0.0139651
939.771	0.0139904
939.849	0.0143150
939.927	0.0141278
940.005	0.0143208
940.083	0.0141113
940.162	0.0140682
940.240	0.0141374
940.318	0.0140643
940.396	0.0141345
940.474	0.0139932
940.552	0.0140257
940.630	0.0141526
940.708	0.0140070
940.787	0.0140813
940.865	0.0140940
940.943	0.0141695
941.021	0.0140510
941.099	0.0140927
941.177	0.0140291
941.255	0.0139538
941.333	0.0140495
941.412	0.0140305
941.490	0.0141023
941.568	0.0140682
941.646	0.0141380
941.724	0.0140351
941.802	0.0140263
941.880	0.0140057
941.958	0.0140509
942.037	0.0140891
942.115	0.0140849
942.193	0.0140304
942.271	0.0141576
942.349	0.0142655
942.427	0.0140826
942.505	0.0140447
942.583	0.0142281
942.662	0.0140644
942.740	0.0140995
942.818	0.0141801
942.896	0.0141917
942.974	0.0141776
943.052	0.0141846
943.130	0.0140656
943.208	0.0141115
943.287	0.0140925
943.365	0.0141405
943.443	0.0141142
943.521	0.0140148
943.599	0.0140122
943.677	0.0140032
943.755	0.0139394
943.833	0.0140894
943.912	0.0142497
943.990	0.0140800
944.068	0.0140791
944.146	0.0141811
944.224	0.0139886
944.302	0.0141236
944.380	0.0142356
944.458	0.0140159
944.537	0.0142711
944.615	0.0141442
944.693	0.0140173
944.771	0.0139917
944.849	0.0142146
944.927	0.0140596
945.005	0.0140238
945.083	0.0140586
945.162	0.0139777
945.240	0.0141128
945.318	0.0141353
945.396	0.0140293
945.474	0.0139993
945.552	0.0141223
945.630	0.0140243
945.708	0.0141080
945.787	0.0141653
945.865	0.0140058
945.943	0.0140067
946.021	0.0142142
946.099	0.0142262
946.177	0.0140895
946.255	0.0140458
946.333	0.0142610
946.412	0.0142157
946.490	0.0141049
946.568	0.0141137
946.646	0.0141962
946.724	0.0140579
946.802	0.0142183
946.880	0.0140639
946.958	0.0141978
947.037	0.0141640
947.115	0.0140611
947.193	0.0139820
947.271	0.0141023
947.349	0.0140100
947.427	0.0139824
947.505	0.0141456
947.583	0.0141853
947.662	0.0141077
947.740	0.0140275
947.818	0.0140810
947.896	0.0140558
947.974	0.0140649
948.052	0.0140117
948.130	0.0138784
948.208	0.0139934
948.287	0.0138896
948.365	0.0141508
948.443	0.0140926
948.521	0.0139714
948.599	0.0141190
948.677	0.0141359
948.755	0.0141011
948.833	0.0141664
948.912	0.0141962
948.990	0.0142001
949.068	0.0141866
949.146	0.0140617
949.224	0.0140678
949.302	0.0141026
949.380	0.0142490
949.458	0.0141599
949.537	0.0141468
949.615	0.0141079
949.693	0.0141315
949.771	0.0141811
949.849	0.0141856
949.927	0.0141644
950.005	0.0141525
950.083	0.0140684
950.162	0.0139759
950.240	0.0140472
950.318	0.0140160
950.396	0.0140820
950.474	0.0143525
950.552	0.0140515
950.630	0.0140849
950.708	0.0141317
950.787	0.0140457
950.865	0.0141422
950.943	0.0139409
951.021	0.0139800
951.099	0.0140505
951.177	0.0141707
951.255	0.0141073
951.333	0.0140892
951.412	0.0141295
951.490	0.0141132
951.568	0.0140710
951.646	0.0142038
951.724	0.0141363
951.802	0.0140726
951.880	0.0142567
951.958	0.0141422
952.037	0.0142041
952.115	0.0139927
952.193	0.0141545
952.271	0.0141901
952.349	0.0141833
952.427	0.0141537
952.505	0.0140488
952.583	0.0141846
952.662	0.0141873
952.740	0.0142201
952.818	0.0141183
952.896	0.0141710
952.974	0.0142159
953.052	0.0141592
953.130	0.0142734
953.208	0.0140943
953.287	0.0142099
953.365	0.0141600
953.443	0.0140929
953.521	0.0142021
953.599	0.0140755
953.677	0.0140530
953.755	0.0141534
953.833	0.0141467
953.912	0.0142866
953.990	0.0141016
954.068	0.0141628
954.146	0.0141575
954.224	0.0141245
954.302	0.0141489
954.380	0.0140481
954.458	0.0139365
954.537	0.0139978
954.615	0.0140216
954.693	0.0141304
954.771	0.0141187
954.849	0.0141290
954.927	0.0140077
955.005	0.0140334
955.083	0.0141756
955.162	0.0141347
955.240	0.0141141
955.318	0.0141232
955.396	0.0139713
955.474	0.0141611
955.552	0.0141782
955.630	0.0142311
955.708	0.0141194
955.787	0.0143185
955.865	0.0141353
955.943	0.0141083
956.021	0.0141348
956.099	0.0142276
956.177	0.0142072
956.255	0.0141897
956.333	0.0143434
956.412	0.0142257
956.490	0.0141304
956.568	0.0139828
956.646	0.0141531
956.724	0.0142601
956.802	0.0140995
956.880	0.0141522
956.958	0.0143109
957.037	0.0142326
957.115	0.0142673
957.193	0.0142400
957.271	0.0141767
957.349	0.0140430
957.427	0.0142399
957.505	0.0143199
957.583	0.0141778
957.662	0.0142302
957.740	0.0141595
957.818	0.0142402
957.896	0.0141615
957.974	0.0143060
958.052	0.0142955
958.130	0.0144882
958.208	0.0142377
958.287	0.0142537
958.365	0.0143029
958.443	0.0142690
958.521	0.0143459
958.599	0.0141885
958.677	0.0142089
958.755	0.0142825
958.833	0.0141639
958.912	0.0142570
958.990	0.0142711
959.068	0.0141485
959.146	0.0141872
959.224	0.0141734
959.302	0.0141882
959.380	0.0142484
959.458	0.0142607
959.537	0.0141113
959.615	0.0142915
959.693	0.0142252
959.771	0.0141002
959.849	0.0141562
959.927	0.0141911
960.005	0.0141698
960.083	0.0141711
960.162	0.0143017
960.240	0.0142323
960.318	0.0141768
960.396	0.0140756
960.474	0.0143210
960.552	0.0142479
960.630	0.0141707
960.708	0.0142694
960.787	0.0142728
960.865	0.0141893
960.943	0.0142814
961.021	0.0142094
961.099	0.0143282
961.177	0.0142373
961.255	0.0141574
961.333	0.0142178
961.412	0.0142394
961.490	0.0142636
961.568	0.0143178
961.646	0.0142313
961.724	0.0140641
961.802	0.0142321
961.880	0.0141330
961.958	0.0141431
962.037	0.0140825
962.115	0.0141766
962.193	0.0141321
962.271	0.0142206
962.349	0.0143205
962.427	0.0141692
962.505	0.0142033
962.583	0.0141010
962.662	0.0141158
962.740	0.0142703
962.818	0.0141940
962.896	0.0142470
962.974	0.0143765
963.052	0.0143164
963.130	0.0142119
963.208	0.0142271
963.287	0.0142162
963.365	0.0140299
963.443	0.0141472
963.521	0.0142508
963.599	0.0141163
963.677	0.0141157
963.755	0.0141089
963.833	0.0142025
963.912	0.0141397
963.990	0.0140011
964.068	0.0140101
964.146	0.0141579
964.224	0.0140990
964.302	0.0141715
964.380	0.0141494
964.458	0.0140842
964.537	0.0139906
964.615	0.0141127
964.693	0.0140095
964.771	0.0141232
964.849	0.0140405
964.927	0.0140225
965.005	0.0140846
965.083	0.0139699
965.162	0.0140089
965.240	0.0139005
965.318	0.0140437
965.396	0.0139648
965.474	0.0141068
965.552	0.0140509
965.630	0.0140482
965.708	0.0140904
965.787	0.0138657
965.865	0.0139627
965.943	0.0141386
966.021	0.0141396
966.099	0.0140774
966.177	0.0139672
966.255	0.0141062
966.333	0.0140942
966.412	0.0140308
966.490	0.0140530
966.568	0.0141835
966.646	0.0141066
966.724	0.0141581
966.802	0.0141275
966.880	0.0140818
966.958	0.0140569
967.037	0.0141374
967.115	0.0139729
967.193	0.0139741
967.271	0.0141096
967.349	0.0142896
967.427	0.0142057
967.505	0.0139923
967.583	0.0140819
967.662	0.0142511
967.740	0.0142265
967.818	0.0141092
967.896	0.0140953
967.974	0.0142155
968.052	0.0142049
968.130	0.0141174
968.208	0.0140168
968.287	0.0140914
968.365	0.0142873
968.443	0.0142326
968.521	0.0141078
968.599	0.0141132
968.677	0.0140115
968.755	0.0140694
968.833	0.0141432
968.912	0.0141599
968.990	0.0140598
969.068	0.0142129
969.146	0.0140399
969.224	0.0141339
969.302	0.0142743
969.380	0.0141769
969.458	0.0141154
969.537	0.0141967
969.615	0.0141743
969.693	0.0142211
969.771	0.0142448
969.849	0.0142796
969.927	0.0142572
970.005	0.0142773
970.083	0.0141640
970.162	0.0142064
970.240	0.0142286
970.318	0.0141216
970.396	0.0141190
970.474	0.0141762
970.552	0.0142730
970.630	0.0140644
970.708	0.0141677
970.787	0.0141565
970.865	0.0140192
970.943	0.0142401
971.021	0.0142161
971.099	0.0141416
971.177	0.0141185
971.255	0.0141347
971.333	0.0141147
971.412	0.0142391
971.490	0.0140586
971.568	0.0141715
971.646	0.0141704
971.724	0.0143157
971.802	0.0142309
971.880	0.0142052
971.958	0.0142416
972.037	0.0141109
972.115	0.0141003
972.193	0.0141246
972.271	0.0142107
972.349	0.0140150
972.427	0.0140900
972.505	0.0141699
972.583	0.0141038
972.662	0.0140091
972.740	0.0140656
972.818	0.0142222
972.896	0.0141898
972.974	0.0141731
973.052	0.0141211
973.130	0.0139732
973.208	0.0139832
973.287	0.0140088
973.365	0.0139767
973.443	0.0140282
973.521	0.0140292
973.599	0.0140116
973.677	0.0140758
973.755	0.0141602
973.833	0.0140846
973.912	0.0140537
973.990	0.0140533
974.068	0.0140419
974.146	0.0141864
974.224	0.0140968
974.302	0.0139229
974.380	0.0139886
974.458	0.0140974
974.537	0.0140274
974.615	0.0140495
974.693	0.0141869
974.771	0.0140938
974.849	0.0139081
974.927	0.0138924
975.005	0.0140053
975.083	0.0140392
975.162	0.0139396
975.240	0.0140212
975.318	0.0140891
975.396	0.0139519
975.474	0.0140411
975.552	0.0140488
975.630	0.0138753
975.708	0.0140041
975.787	0.0139906
975.865	0.0140862
975.943	0.0141675
976.021	0.0142004
976.099	0.0140775
976.177	0.0141447
976.255	0.0140962
976.333	0.0141357
976.412	0.0142208
976.490	0.0141849
976.568	0.0141718
976.646	0.0141380
976.724	0.0140848
976.802	0.0141962
976.880	0.0142393
976.958	0.0140956
977.037	0.0142853
977.115	0.0139914
977.193	0.0141077
977.271	0.0141447
977.349	0.0141782
977.427	0.0141969
977.505	0.0139608
977.583	0.0141441
977.662	0.0141869
977.740	0.0141917
977.818	0.0142131
977.896	0.0140970
977.974	0.0140022
978.052	0.0140618
978.130	0.0141908
978.208	0.0140793
978.287	0.0140840
978.365	0.0139608
978.443	0.0140062
978.521	0.0140588
978.599	0.0141496
978.677	0.0140582
978.755	0.0140252
978.833	0.0141458
978.912	0.0140938
978.990	0.0141422
979.068	0.0141244
979.146	0.0142393
979.224	0.0141427
979.302	0.0140652
979.380	0.0141311
979.458	0.0141515
979.537	0.0141558
979.615	0.0141764
979.693	0.0141190
979.771	0.0141119
979.849	0.0141429
979.927	0.0140653
980.005	0.0141026
980.083	0.0141688
980.162	0.0140289
980.240	0.0141162
980.318	0.0141776
980.396	0.0141277
980.474	0.0141895
980.552	0.0141874
980.630	0.0141180
980.708	0.0142519
980.787	0.0141244
980.865	0.0141112
980.943	0.0143693
981.021	0.0141948
981.099	0.0141109
981.177	0.0139853
981.255	0.0140973
981.333	0.0142150
981.412	0.0140884
981.490	0.0141010
981.568	0.0141814
981.646	0.0140925
981.724	0.0140987
981.802	0.0141679
981.880	0.0142366
981.958	0.0141934
982.037	0.0141839
982.115	0.0143477
982.193	0.0143084
982.271	0.0142403
982.349	0.0142277
982.427	0.0142529
982.505	0.0142876
982.583	0.0142174
982.662	0.0143916
982.740	0.0141631
982.818	0.0140267
982.896	0.0142078
982.974	0.0141552
983.052	0.0140438
983.130	0.0141355
983.208	0.0141285
983.287	0.0140914
983.365	0.0141959
983.443	0.0141177
983.521	0.0141855
983.599	0.0142159
983.677	0.0142986
983.755	0.0142317
983.833	0.0141266
983.912	0.0142645
983.990	0.0141428
984.068	0.0141168
984.146	0.0141240
984.224	0.0141265
984.302	0.0142748
984.380	0.0141479
984.458	0.0141391
984.537	0.0141251
984.615	0.0139973
984.693	0.0140559
984.771	0.0142527
984.849	0.0142332
984.927	0.0141214
985.005	0.0140738
985.083	0.0141223
985.162	0.0142447
985.240	0.0142042
985.318	0.0140574
985.396	0.0141561
985.474	0.0140140
985.552	0.0139970
985.630	0.0140746
985.708	0.0141292
985.787	0.0140304
985.865	0.0140611
985.943	0.0140382
986.021	0.0141705
986.099	0.0140700
986.177	0.0141222
986.255	0.0139702
986.333	0.0141807
986.412	0.0140265
986.490	0.0141603
986.568	0.0142185
986.646	0.0141116
986.724	0.0141091
986.802	0.0142045
986.880	0.0142118
986.958	0.0140728
987.037	0.0142149
987.115	0.0140610
987.193	0.0140774
987.271	0.0141660
987.349	0.0141340
987.427	0.0142200
987.505	0.0141666
987.583	0.0141742
987.662	0.0141387
987.740	0.0140400
987.818	0.0140649
987.896	0.0142110
987.974	0.0141835
988.052	0.0141579
988.130	0.0141280
988.208	0.0141985
988.287	0.0142485
988.365	0.0141894
988.443	0.0142397
988.521	0.0141245
988.599	0.0142232
988.677	0.0141266
988.755	0.0140900
988.833	0.0142450
988.912	0.0144614
988.990	0.0142976
989.068	0.0142446
989.146	0.0142647
989.224	0.0142653
989.302	0.0141631
989.380	0.0143221
989.458	0.0143018
989.537	0.0142239
989.615	0.0141380
989.693	0.0141654
989.771	0.0143609
989.849	0.0142083
989.927	0.0142174
990.005	0.0142290
990.083	0.0142130
990.162	0.0142818
990.240	0.0142673
990.318	0.0141662
990.396	0.0142139
990.474	0.0142271
990.552	0.0141499
990.630	0.0142126
990.708	0.0141654
990.787	0.0141235
990.865	0.0142047
990.943	0.0140511
991.021	0.0141645
991.099	0.0141533
991.177	0.0140709
991.255	0.0142303
991.333	0.0141394
991.412	0.0142548
991.490	0.0142405
991.568	0.0141193
991.646	0.0141835
991.724	0.0140562
991.802	0.0140659
991.880	0.0141113
991.958	0.0140314
992.037	0.0141682
992.115	0.0140545
992.193	0.0140737
992.271	0.0141449
992.349	0.0141515
992.427	0.0141356
992.505	0.0141534
992.583	0.0142342
992.662	0.0141716
992.740	0.0141213
992.818	0.0142194
992.896	0.0143696
992.974	0.0142570
993.052	0.0142062
993.130	0.0140096
993.208	0.0140897
993.287	0.0142570
993.365	0.0141772
993.443	0.0141998
993.521	0.0142220
993.599	0.0141856
993.677	0.0141910
993.755	0.0142678
993.833	0.0140672
993.912	0.0140359
993.990	0.0141264
994.068	0.0142363
994.146	0.0141898
994.224	0.0140634
994.302	0.0140224
994.380	0.0140428
994.458	0.0140022
994.537	0.0140350
994.615	0.0141591
994.693	0.0141362
994.771	0.0140887
994.849	0.0140311
994.927	0.0141490
995.005	0.0141997
995.083	0.0141549
995.162	0.0140079
995.240	0.0141195
995.318	0.0140937
995.396	0.0139997
995.474	0.0138372
995.552	0.0141068
995.630	0.0141428
995.708	0.0141702
995.787	0.0141058
995.865	0.0139880
995.943	0.0140737
996.021	0.0141853
996.099	0.0140314
996.177	0.0140839
996.255	0.0141621
996.333	0.0140637
996.412	0.0140542
996.490	0.0140900
996.568	0.0139865
996.646	0.0140220
996.724	0.0141564
996.802	0.0141451
996.880	0.0140109
996.958	0.0140192
997.037	0.0142551
997.115	0.0141369
997.193	0.0141006
997.271	0.0141076
997.349	0.0142515
997.427	0.0141762
997.505	0.0140710
997.583	0.0141382
997.662	0.0141615
997.740	0.0141452
997.818	0.0141457
997.896	0.0141763
997.974	0.0141309
998.052	0.0140842
998.130	0.0140264
998.208	0.0140453
998.287	0.0141141
998.365	0.0141473
998.443	0.0139679
998.521	0.0141076
998.599	0.0142202
998.677	0.0141891
998.755	0.0141923
998.833	0.0140069
998.912	0.0141016
