05/04/2022	21:40:49	Ver.	4.1	UNKNOWN
Optical Delay	678.996401	Delta X		0.078125	Sweeps	1	Scan Rate	0/0
Coordinates	Axis 1	NaN	Axis 2	NaN	Axis 3	NaN	Axis 4	NaN	Axis 5	NaN	Axis 6	0.000000
TX Power	0.000000	RX Power	0.000000

678.996	0.0146149
679.075	0.0141180
679.153	0.0141407
679.231	0.0142915
679.309	0.0142966
679.387	0.0146008
679.465	0.0147388
679.543	0.0149773
679.621	0.0150169
679.700	0.0150081
679.778	0.0150108
679.856	0.0149576
679.934	0.0149084
680.012	0.0148006
680.090	0.0146233
680.168	0.0144797
680.246	0.0143073
680.325	0.0142015
680.403	0.0142233
680.481	0.0140524
680.559	0.0141470
680.637	0.0141507
680.715	0.0142065
680.793	0.0143511
680.871	0.0143531
680.950	0.0146053
681.028	0.0146718
681.106	0.0147266
681.184	0.0148687
681.262	0.0150532
681.340	0.0150453
681.418	0.0150812
681.496	0.0148701
681.575	0.0148885
681.653	0.0148586
681.731	0.0145982
681.809	0.0145693
681.887	0.0145283
681.965	0.0143580
682.043	0.0144297
682.121	0.0143541
682.200	0.0143700
682.278	0.0143626
682.356	0.0144288
682.434	0.0145219
682.512	0.0146828
682.590	0.0148190
682.668	0.0148513
682.746	0.0150551
682.825	0.0150637
682.903	0.0150753
682.981	0.0151824
683.059	0.0152687
683.137	0.0152079
683.215	0.0151210
683.293	0.0151003
683.371	0.0148408
683.450	0.0145531
683.528	0.0143034
683.606	0.0139581
683.684	0.0138574
683.762	0.0135374
683.840	0.0136069
683.918	0.0135110
683.996	0.0135511
684.075	0.0135909
684.153	0.0138390
684.231	0.0139597
684.309	0.0142821
684.387	0.0144568
684.465	0.0147801
684.543	0.0150510
684.621	0.0152644
684.700	0.0154673
684.778	0.0155247
684.856	0.0154228
684.934	0.0155525
685.012	0.0154251
685.090	0.0154173
685.168	0.0152505
685.246	0.0153196
685.325	0.0151183
685.403	0.0148486
685.481	0.0147755
685.559	0.0147762
685.637	0.0147509
685.715	0.0148173
685.793	0.0147403
685.871	0.0147278
685.950	0.0149291
686.028	0.0148772
686.106	0.0148704
686.184	0.0148287
686.262	0.0147758
686.340	0.0147411
686.418	0.0145495
686.496	0.0143496
686.575	0.0141174
686.653	0.0137107
686.731	0.0135878
686.809	0.0133729
686.887	0.0135196
686.965	0.0133755
687.043	0.0134001
687.121	0.0136871
687.200	0.0139839
687.278	0.0144965
687.356	0.0148090
687.434	0.0151886
687.512	0.0155412
687.590	0.0158080
687.668	0.0158601
687.746	0.0161057
687.825	0.0162238
687.903	0.0161164
687.981	0.0158677
688.059	0.0155210
688.137	0.0152950
688.215	0.0149870
688.293	0.0146354
688.371	0.0143002
688.450	0.0141651
688.528	0.0139478
688.606	0.0139631
688.684	0.0139123
688.762	0.0139106
688.840	0.0139876
688.918	0.0142292
688.996	0.0142966
689.075	0.0145911
689.153	0.0147345
689.231	0.0147448
689.309	0.0148381
689.387	0.0148160
689.465	0.0147667
689.543	0.0146627
689.621	0.0144949
689.700	0.0143993
689.778	0.0142472
689.856	0.0142191
689.934	0.0140887
690.012	0.0139376
690.090	0.0140051
690.168	0.0142068
690.246	0.0140761
690.325	0.0141180
690.403	0.0144968
690.481	0.0146470
690.559	0.0148714
690.637	0.0149850
690.715	0.0151047
690.793	0.0152830
690.871	0.0155043
690.950	0.0154501
691.028	0.0155153
691.106	0.0153751
691.184	0.0152026
691.262	0.0152739
691.340	0.0152310
691.418	0.0150769
691.496	0.0149641
691.575	0.0147709
691.653	0.0149118
691.731	0.0147780
691.809	0.0145899
691.887	0.0145949
691.965	0.0145858
692.043	0.0144395
692.121	0.0146481
692.200	0.0145987
692.278	0.0147417
692.356	0.0148862
692.434	0.0146256
692.512	0.0146644
692.590	0.0146949
692.668	0.0147142
692.746	0.0145509
692.825	0.0144397
692.903	0.0143731
692.981	0.0144141
693.059	0.0144125
693.137	0.0143796
693.215	0.0142526
693.293	0.0142532
693.371	0.0142309
693.450	0.0142355
693.528	0.0144073
693.606	0.0144161
693.684	0.0143919
693.762	0.0146041
693.840	0.0144780
693.918	0.0146407
693.996	0.0149169
694.075	0.0148373
694.153	0.0150004
694.231	0.0152457
694.309	0.0151064
694.387	0.0151380
694.465	0.0149702
694.543	0.0152131
694.621	0.0150473
694.700	0.0149834
694.778	0.0148638
694.856	0.0148241
694.934	0.0148270
695.012	0.0147122
695.090	0.0145062
695.168	0.0144270
695.246	0.0143732
695.325	0.0142322
695.403	0.0143056
695.481	0.0144654
695.559	0.0144724
695.637	0.0145604
695.715	0.0145928
695.793	0.0147831
695.871	0.0147324
695.950	0.0148174
696.028	0.0149263
696.106	0.0148150
696.184	0.0148922
696.262	0.0145819
696.340	0.0147384
696.418	0.0146287
696.496	0.0146370
696.575	0.0143727
696.653	0.0144617
696.731	0.0142195
696.809	0.0143407
696.887	0.0142869
696.965	0.0144440
697.043	0.0145047
697.121	0.0145853
697.200	0.0145646
697.278	0.0145861
697.356	0.0145518
697.434	0.0147174
697.512	0.0147145
697.590	0.0146666
697.668	0.0146349
697.746	0.0146323
697.825	0.0145573
697.903	0.0144690
697.981	0.0146730
698.059	0.0143229
698.137	0.0144096
698.215	0.0144248
698.293	0.0144303
698.371	0.0143379
698.450	0.0145606
698.528	0.0145473
698.606	0.0145852
698.684	0.0147997
698.762	0.0147814
698.840	0.0148471
698.918	0.0150571
698.996	0.0151210
699.075	0.0151968
699.153	0.0151421
699.231	0.0151368
699.309	0.0152834
699.387	0.0150500
699.465	0.0150247
699.543	0.0149606
699.621	0.0149062
699.700	0.0147119
699.778	0.0145335
699.856	0.0143948
699.934	0.0142719
700.012	0.0141747
700.090	0.0139421
700.168	0.0139678
700.246	0.0136561
700.325	0.0137130
700.403	0.0137434
700.481	0.0137032
700.559	0.0137354
700.637	0.0138881
700.715	0.0139461
700.793	0.0139267
700.871	0.0139794
700.950	0.0142597
701.028	0.0143615
701.106	0.0145534
701.184	0.0146939
701.262	0.0147493
701.340	0.0148103
701.418	0.0150056
701.496	0.0150127
701.575	0.0150845
701.653	0.0150465
701.731	0.0150262
701.809	0.0151061
701.887	0.0151534
701.965	0.0151271
702.043	0.0151399
702.121	0.0152135
702.200	0.0150960
702.278	0.0151040
702.356	0.0152528
702.434	0.0151293
702.512	0.0151295
702.590	0.0150871
702.668	0.0149890
702.746	0.0149198
702.825	0.0147626
702.903	0.0146245
702.981	0.0143060
703.059	0.0141255
703.137	0.0140202
703.215	0.0138128
703.293	0.0137923
703.371	0.0136975
703.450	0.0136386
703.528	0.0137540
703.606	0.0139487
703.684	0.0140652
703.762	0.0142029
703.840	0.0144555
703.918	0.0147565
703.996	0.0149824
704.075	0.0149520
704.153	0.0153250
704.231	0.0152136
704.309	0.0152060
704.387	0.0151846
704.465	0.0151799
704.543	0.0150509
704.621	0.0148246
704.700	0.0147307
704.778	0.0146186
704.856	0.0144772
704.934	0.0143596
705.012	0.0143832
705.090	0.0144461
705.168	0.0143369
705.246	0.0143871
705.325	0.0143943
705.403	0.0144955
705.481	0.0145251
705.559	0.0145821
705.637	0.0145184
705.715	0.0146201
705.793	0.0147071
705.871	0.0147801
705.950	0.0148450
706.028	0.0148006
706.106	0.0148524
706.184	0.0148446
706.262	0.0149020
706.340	0.0148855
706.418	0.0151531
706.496	0.0151898
706.575	0.0151691
706.653	0.0153288
706.731	0.0152180
706.809	0.0153829
706.887	0.0152838
706.965	0.0150974
707.043	0.0148650
707.121	0.0147165
707.200	0.0148380
707.278	0.0145200
707.356	0.0142422
707.434	0.0141960
707.512	0.0139368
707.590	0.0138860
707.668	0.0138323
707.746	0.0138551
707.825	0.0138474
707.903	0.0140196
707.981	0.0139234
708.059	0.0140741
708.137	0.0142077
708.215	0.0143214
708.293	0.0143663
708.371	0.0145676
708.450	0.0147073
708.528	0.0147787
708.606	0.0147815
708.684	0.0149660
708.762	0.0149540
708.840	0.0152935
708.918	0.0152083
708.996	0.0154139
709.075	0.0155209
709.153	0.0154277
709.231	0.0152699
709.309	0.0153939
709.387	0.0153900
709.465	0.0153203
709.543	0.0151554
709.621	0.0150859
709.700	0.0149020
709.778	0.0148013
709.856	0.0147773
709.934	0.0146870
710.012	0.0145015
710.090	0.0144050
710.168	0.0143155
710.246	0.0142123
710.325	0.0143447
710.403	0.0142242
710.481	0.0141930
710.559	0.0142812
710.637	0.0141903
710.715	0.0142104
710.793	0.0143345
710.871	0.0144434
710.950	0.0145336
711.028	0.0146621
711.106	0.0147100
711.184	0.0148760
711.262	0.0148631
711.340	0.0150049
711.418	0.0149718
711.496	0.0150077
711.575	0.0150200
711.653	0.0149298
711.731	0.0148915
711.809	0.0149364
711.887	0.0149221
711.965	0.0148628
712.043	0.0149638
712.121	0.0149016
712.200	0.0147491
712.278	0.0147379
712.356	0.0143793
712.434	0.0143778
712.512	0.0144431
712.590	0.0143964
712.668	0.0144678
712.746	0.0144150
712.825	0.0143676
712.903	0.0144511
712.981	0.0144245
713.059	0.0144099
713.137	0.0145933
713.215	0.0145441
713.293	0.0146555
713.371	0.0148138
713.450	0.0147617
713.528	0.0149602
713.606	0.0150117
713.684	0.0150412
713.762	0.0149904
713.840	0.0150388
713.918	0.0149461
713.996	0.0148010
714.075	0.0148325
714.153	0.0146304
714.231	0.0144888
714.309	0.0145095
714.387	0.0144481
714.465	0.0144232
714.543	0.0142342
714.621	0.0144588
714.700	0.0144617
714.778	0.0144144
714.856	0.0145374
714.934	0.0143922
715.012	0.0144189
715.090	0.0146291
715.168	0.0144038
715.246	0.0145054
715.325	0.0143874
715.403	0.0145488
715.481	0.0146402
715.559	0.0146075
715.637	0.0146154
715.715	0.0146481
715.793	0.0146070
715.871	0.0146487
715.950	0.0147327
716.028	0.0147924
716.106	0.0148652
716.184	0.0149808
716.262	0.0148510
716.340	0.0148383
716.418	0.0149042
716.496	0.0150483
716.575	0.0149359
716.653	0.0149632
716.731	0.0149235
716.809	0.0148383
716.887	0.0146415
716.965	0.0144861
717.043	0.0146401
717.121	0.0143898
717.200	0.0143823
717.278	0.0142638
717.356	0.0144730
717.434	0.0143162
717.512	0.0143486
717.590	0.0143494
717.668	0.0144626
717.746	0.0144476
717.825	0.0143894
717.903	0.0144112
717.981	0.0146024
718.059	0.0144827
718.137	0.0145322
718.215	0.0146467
718.293	0.0146651
718.371	0.0146049
718.450	0.0148075
718.528	0.0147796
718.606	0.0148104
718.684	0.0146915
718.762	0.0147313
718.840	0.0147743
718.918	0.0147697
718.996	0.0146893
719.075	0.0147814
719.153	0.0145853
719.231	0.0146116
719.309	0.0146666
719.387	0.0146414
719.465	0.0146302
719.543	0.0147266
719.621	0.0146660
719.700	0.0147050
719.778	0.0146734
719.856	0.0146857
719.934	0.0147194
720.012	0.0147499
720.090	0.0146674
720.168	0.0147035
720.246	0.0148466
720.325	0.0147340
720.403	0.0147009
720.481	0.0147356
720.559	0.0147745
720.637	0.0145929
720.715	0.0145123
720.793	0.0145285
720.871	0.0145052
720.950	0.0144392
721.028	0.0143838
721.106	0.0142885
721.184	0.0143813
721.262	0.0145175
721.340	0.0144395
721.418	0.0143442
721.496	0.0142903
721.575	0.0144469
721.653	0.0144373
721.731	0.0145541
721.809	0.0144151
721.887	0.0144046
721.965	0.0144109
722.043	0.0146024
722.121	0.0143520
722.200	0.0143950
722.278	0.0144048
722.356	0.0144841
722.434	0.0145773
722.512	0.0144749
722.590	0.0145823
722.668	0.0145467
722.746	0.0147914
722.825	0.0147980
722.903	0.0147281
722.981	0.0148248
723.059	0.0148622
723.137	0.0149146
723.215	0.0147471
723.293	0.0148162
723.371	0.0148494
723.450	0.0148415
723.528	0.0147536
723.606	0.0146413
723.684	0.0145872
723.762	0.0147018
723.840	0.0144981
723.918	0.0143100
723.996	0.0142966
724.075	0.0142907
724.153	0.0143961
724.231	0.0143314
724.309	0.0142681
724.387	0.0142641
724.465	0.0142056
724.543	0.0144714
724.621	0.0144576
724.700	0.0144915
724.778	0.0145296
724.856	0.0144615
724.934	0.0147164
725.012	0.0145650
725.090	0.0145232
725.168	0.0147602
725.246	0.0146503
725.325	0.0146931
725.403	0.0146898
725.481	0.0147041
725.559	0.0147240
725.637	0.0147128
725.715	0.0146420
725.793	0.0146333
725.871	0.0146963
725.950	0.0145544
726.028	0.0145519
726.106	0.0145762
726.184	0.0146457
726.262	0.0146055
726.340	0.0146191
726.418	0.0145101
726.496	0.0145702
726.575	0.0146365
726.653	0.0146883
726.731	0.0145837
726.809	0.0147269
726.887	0.0146260
726.965	0.0146361
727.043	0.0145867
727.121	0.0145795
727.200	0.0146828
727.278	0.0146942
727.356	0.0146577
727.434	0.0148859
727.512	0.0147105
727.590	0.0148642
727.668	0.0148426
727.746	0.0148896
727.825	0.0148582
727.903	0.0146718
727.981	0.0147657
728.059	0.0147035
728.137	0.0146327
728.215	0.0146346
728.293	0.0146930
728.371	0.0146624
728.450	0.0144223
728.528	0.0144361
728.606	0.0144014
728.684	0.0144077
728.762	0.0144066
728.840	0.0143555
728.918	0.0143250
728.996	0.0144621
729.075	0.0145244
729.153	0.0145031
729.231	0.0145670
729.309	0.0145300
729.387	0.0143992
729.465	0.0145653
729.543	0.0146313
729.621	0.0146658
729.700	0.0147834
729.778	0.0146009
729.856	0.0146049
729.934	0.0147066
730.012	0.0146903
730.090	0.0147726
730.168	0.0146342
730.246	0.0147896
730.325	0.0147859
730.403	0.0147904
730.481	0.0146737
730.559	0.0145886
730.637	0.0146268
730.715	0.0146313
730.793	0.0145602
730.871	0.0144640
730.950	0.0144419
731.028	0.0144437
731.106	0.0144125
731.184	0.0144020
731.262	0.0142847
731.340	0.0143038
731.418	0.0142043
731.496	0.0144614
731.575	0.0145718
731.653	0.0145230
731.731	0.0144099
731.809	0.0146426
731.887	0.0145796
731.965	0.0145062
732.043	0.0145350
732.121	0.0147271
732.200	0.0146925
732.278	0.0146561
732.356	0.0146465
732.434	0.0146856
732.512	0.0146116
732.590	0.0148524
732.668	0.0147222
732.746	0.0144356
732.825	0.0145750
732.903	0.0147067
732.981	0.0147093
733.059	0.0144954
733.137	0.0145661
733.215	0.0145805
733.293	0.0147397
733.371	0.0146423
733.450	0.0147382
733.528	0.0145857
733.606	0.0145303
733.684	0.0145997
733.762	0.0147137
733.840	0.0146509
733.918	0.0146441
733.996	0.0146616
734.075	0.0145927
734.153	0.0146185
734.231	0.0144995
734.309	0.0146282
734.387	0.0146541
734.465	0.0144858
734.543	0.0144722
734.621	0.0145848
734.700	0.0143333
734.778	0.0145766
734.856	0.0146473
734.934	0.0144849
735.012	0.0145367
735.090	0.0146062
735.168	0.0146420
735.246	0.0145665
735.325	0.0146270
735.403	0.0145879
735.481	0.0145526
735.559	0.0146532
735.637	0.0146045
735.715	0.0144896
735.793	0.0146235
735.871	0.0145177
735.950	0.0146484
736.028	0.0145232
736.106	0.0146315
736.184	0.0144361
736.262	0.0145441
736.340	0.0144942
736.418	0.0145000
736.496	0.0144516
736.575	0.0144512
736.653	0.0143364
736.731	0.0145791
736.809	0.0145842
736.887	0.0145525
736.965	0.0146485
737.043	0.0146472
737.121	0.0146301
737.200	0.0146336
737.278	0.0148235
737.356	0.0146815
737.434	0.0147919
737.512	0.0147263
737.590	0.0146976
737.668	0.0146777
737.746	0.0145714
737.825	0.0147932
737.903	0.0147309
737.981	0.0144992
738.059	0.0147351
738.137	0.0147503
738.215	0.0146839
738.293	0.0146806
738.371	0.0145677
738.450	0.0146066
738.528	0.0146515
738.606	0.0145445
738.684	0.0145654
738.762	0.0145886
738.840	0.0143720
738.918	0.0145632
738.996	0.0145442
739.075	0.0145044
739.153	0.0144445
739.231	0.0143967
739.309	0.0144601
739.387	0.0144312
739.465	0.0144535
739.543	0.0146109
739.621	0.0147121
739.700	0.0146679
739.778	0.0147674
739.856	0.0146398
739.934	0.0147373
740.012	0.0147121
740.090	0.0148262
740.168	0.0148595
740.246	0.0148722
740.325	0.0148594
740.403	0.0148302
740.481	0.0149197
740.559	0.0148654
740.637	0.0148631
740.715	0.0148206
740.793	0.0146944
740.871	0.0147447
740.950	0.0149316
741.028	0.0147895
741.106	0.0147012
741.184	0.0147763
741.262	0.0147440
741.340	0.0146102
741.418	0.0146693
741.496	0.0147720
741.575	0.0146107
741.653	0.0147359
741.731	0.0147091
741.809	0.0147256
741.887	0.0145838
741.965	0.0146489
742.043	0.0145302
742.121	0.0148408
742.200	0.0147043
742.278	0.0144807
742.356	0.0147313
742.434	0.0144867
742.512	0.0146889
742.590	0.0146472
742.668	0.0144862
742.746	0.0145834
742.825	0.0146377
742.903	0.0146844
742.981	0.0146240
743.059	0.0147186
743.137	0.0146987
743.215	0.0145807
743.293	0.0146638
743.371	0.0144572
743.450	0.0145964
743.528	0.0146635
743.606	0.0145758
743.684	0.0146290
743.762	0.0146780
743.840	0.0146778
743.918	0.0146602
743.996	0.0145435
744.075	0.0146239
744.153	0.0146581
744.231	0.0147525
744.309	0.0147250
744.387	0.0147486
744.465	0.0147517
744.543	0.0146844
744.621	0.0147717
744.700	0.0146984
744.778	0.0147489
744.856	0.0147498
744.934	0.0147092
745.012	0.0146983
745.090	0.0147497
745.168	0.0147417
745.246	0.0145816
745.325	0.0145258
745.403	0.0146024
745.481	0.0145735
745.559	0.0147430
745.637	0.0144910
745.715	0.0144189
745.793	0.0145441
745.871	0.0146733
745.950	0.0146402
746.028	0.0145183
746.106	0.0145135
746.184	0.0145007
746.262	0.0147422
746.340	0.0145902
746.418	0.0144779
746.496	0.0146060
746.575	0.0145752
746.653	0.0144798
746.731	0.0145257
746.809	0.0144846
746.887	0.0146284
746.965	0.0143925
747.043	0.0145085
747.121	0.0145773
747.200	0.0144736
747.278	0.0144271
747.356	0.0145216
747.434	0.0145617
747.512	0.0145585
747.590	0.0147003
747.668	0.0146436
747.746	0.0146157
747.825	0.0145765
747.903	0.0148322
747.981	0.0146671
748.059	0.0147520
748.137	0.0148211
748.215	0.0148216
748.293	0.0147845
748.371	0.0145772
748.450	0.0146730
748.528	0.0147898
748.606	0.0148342
748.684	0.0147173
748.762	0.0147105
748.840	0.0146365
748.918	0.0145488
748.996	0.0146397
749.075	0.0145905
749.153	0.0146162
749.231	0.0146708
749.309	0.0146818
749.387	0.0144643
749.465	0.0145464
749.543	0.0145927
749.621	0.0145553
749.700	0.0145415
749.778	0.0145097
749.856	0.0145945
749.934	0.0146045
750.012	0.0145969
750.090	0.0145904
750.168	0.0145763
750.246	0.0144970
750.325	0.0145221
750.403	0.0145696
750.481	0.0145286
750.559	0.0146006
750.637	0.0146048
750.715	0.0146223
750.793	0.0146808
750.871	0.0146428
750.950	0.0146496
751.028	0.0146849
751.106	0.0146530
751.184	0.0146593
751.262	0.0146095
751.340	0.0147428
751.418	0.0147625
751.496	0.0146204
751.575	0.0144580
751.653	0.0147035
751.731	0.0146993
751.809	0.0146786
751.887	0.0144187
751.965	0.0146224
752.043	0.0145834
752.121	0.0146449
752.200	0.0146030
752.278	0.0145485
752.356	0.0145483
752.434	0.0145422
752.512	0.0146058
752.590	0.0146709
752.668	0.0147196
752.746	0.0146975
752.825	0.0147662
752.903	0.0146619
752.981	0.0146954
753.059	0.0146965
753.137	0.0147947
753.215	0.0146387
753.293	0.0146546
753.371	0.0147268
753.450	0.0146462
753.528	0.0146293
753.606	0.0146294
753.684	0.0146758
753.762	0.0145279
753.840	0.0146223
753.918	0.0144626
753.996	0.0144831
754.075	0.0145646
754.153	0.0146922
754.231	0.0146499
754.309	0.0144631
754.387	0.0145718
754.465	0.0145508
754.543	0.0146120
754.621	0.0146275
754.700	0.0145973
754.778	0.0145742
754.856	0.0145335
754.934	0.0146552
755.012	0.0144825
755.090	0.0147404
755.168	0.0146243
755.246	0.0146339
755.325	0.0144473
755.403	0.0146644
755.481	0.0146491
755.559	0.0146030
755.637	0.0146504
755.715	0.0146033
755.793	0.0146143
755.871	0.0145641
755.950	0.0146562
756.028	0.0146443
756.106	0.0144962
756.184	0.0146906
756.262	0.0145621
756.340	0.0145294
756.418	0.0145647
756.496	0.0145968
756.575	0.0146438
756.653	0.0145871
756.731	0.0146151
756.809	0.0145421
756.887	0.0146181
756.965	0.0145586
757.043	0.0145423
757.121	0.0144775
757.200	0.0145453
757.278	0.0147311
757.356	0.0145978
757.434	0.0146307
757.512	0.0145724
757.590	0.0146195
757.668	0.0145801
757.746	0.0146848
757.825	0.0146833
757.903	0.0146600
757.981	0.0145866
758.059	0.0145821
758.137	0.0147029
758.215	0.0145395
758.293	0.0146979
758.371	0.0147134
758.450	0.0147430
758.528	0.0147884
758.606	0.0146407
758.684	0.0146764
758.762	0.0147134
758.840	0.0146708
758.918	0.0147803
758.996	0.0147075
759.075	0.0146777
759.153	0.0147045
759.231	0.0145809
759.309	0.0146805
759.387	0.0146984
759.465	0.0146802
759.543	0.0145129
759.621	0.0146036
759.700	0.0144706
759.778	0.0146902
759.856	0.0146417
759.934	0.0146484
760.012	0.0146066
760.090	0.0146622
760.168	0.0145509
760.246	0.0146245
760.325	0.0146513
760.403	0.0146158
760.481	0.0145332
760.559	0.0147189
760.637	0.0146777
760.715	0.0147156
760.793	0.0147137
760.871	0.0144325
760.950	0.0145992
761.028	0.0145375
761.106	0.0146840
761.184	0.0146098
761.262	0.0146679
761.340	0.0146503
761.418	0.0147563
761.496	0.0146994
761.575	0.0146392
761.653	0.0146319
761.731	0.0146848
761.809	0.0147492
761.887	0.0145751
761.965	0.0146630
762.043	0.0148922
762.121	0.0147746
762.200	0.0146803
762.278	0.0147383
762.356	0.0147015
762.434	0.0145821
762.512	0.0144819
762.590	0.0145371
762.668	0.0144855
762.746	0.0146111
762.825	0.0146210
762.903	0.0146636
762.981	0.0146941
763.059	0.0146560
763.137	0.0147831
763.215	0.0147094
763.293	0.0146056
763.371	0.0147324
763.450	0.0146438
763.528	0.0145358
763.606	0.0147427
763.684	0.0146854
763.762	0.0147870
763.840	0.0145593
763.918	0.0146614
763.996	0.0148660
764.075	0.0147575
764.153	0.0146699
764.231	0.0147630
764.309	0.0147418
764.387	0.0145258
764.465	0.0145772
764.543	0.0145728
764.621	0.0147114
764.700	0.0148313
764.778	0.0146234
764.856	0.0147385
764.934	0.0145129
765.012	0.0145519
765.090	0.0146588
765.168	0.0147565
765.246	0.0146467
765.325	0.0147421
765.403	0.0146591
765.481	0.0146497
765.559	0.0146125
765.637	0.0147898
765.715	0.0147988
765.793	0.0147435
765.871	0.0146230
765.950	0.0147867
766.028	0.0146600
766.106	0.0146578
766.184	0.0147020
766.262	0.0145628
766.340	0.0148237
766.418	0.0147134
766.496	0.0147817
766.575	0.0147820
766.653	0.0147320
766.731	0.0146648
766.809	0.0147780
766.887	0.0148338
766.965	0.0145748
767.043	0.0146833
767.121	0.0148643
767.200	0.0146224
767.278	0.0147456
767.356	0.0147604
767.434	0.0146698
767.512	0.0146304
767.590	0.0147801
767.668	0.0146693
767.746	0.0146111
767.825	0.0146974
767.903	0.0146544
767.981	0.0146589
768.059	0.0147399
768.137	0.0146853
768.215	0.0147079
768.293	0.0145197
768.371	0.0146507
768.450	0.0147877
768.528	0.0146568
768.606	0.0147849
768.684	0.0145830
768.762	0.0147111
768.840	0.0147316
768.918	0.0147190
768.996	0.0147520
769.075	0.0146189
769.153	0.0147936
769.231	0.0146638
769.309	0.0144215
769.387	0.0147131
769.465	0.0147443
769.543	0.0146059
769.621	0.0146289
769.700	0.0146931
769.778	0.0145766
769.856	0.0145981
769.934	0.0145815
770.012	0.0145078
770.090	0.0145238
770.168	0.0145628
770.246	0.0145781
770.325	0.0145831
770.403	0.0145664
770.481	0.0146162
770.559	0.0145076
770.637	0.0146315
770.715	0.0145619
770.793	0.0145633
770.871	0.0144833
770.950	0.0146292
771.028	0.0145957
771.106	0.0146640
771.184	0.0146162
771.262	0.0145338
771.340	0.0146758
771.418	0.0146817
771.496	0.0146124
771.575	0.0145107
771.653	0.0145376
771.731	0.0147044
771.809	0.0145928
771.887	0.0144903
771.965	0.0145899
772.043	0.0146474
772.121	0.0144977
772.200	0.0144918
772.278	0.0146246
772.356	0.0146292
772.434	0.0145033
772.512	0.0146275
772.590	0.0146497
772.668	0.0146394
772.746	0.0145832
772.825	0.0147359
772.903	0.0145877
772.981	0.0146014
773.059	0.0145451
773.137	0.0145654
773.215	0.0145526
773.293	0.0147085
773.371	0.0145817
773.450	0.0146999
773.528	0.0147775
773.606	0.0146132
773.684	0.0146487
773.762	0.0147108
773.840	0.0147328
773.918	0.0146950
773.996	0.0147720
774.075	0.0148008
774.153	0.0148611
774.231	0.0147415
774.309	0.0147788
774.387	0.0147549
774.465	0.0147421
774.543	0.0147826
774.621	0.0146457
774.700	0.0146790
774.778	0.0145667
774.856	0.0146550
774.934	0.0146856
775.012	0.0146307
775.090	0.0145860
775.168	0.0146620
775.246	0.0145411
775.325	0.0146732
775.403	0.0146403
775.481	0.0147141
775.559	0.0146214
775.637	0.0145924
775.715	0.0145839
775.793	0.0145341
775.871	0.0146848
775.950	0.0145840
776.028	0.0146202
776.106	0.0145456
776.184	0.0144360
776.262	0.0146111
776.340	0.0145287
776.418	0.0145892
776.496	0.0144635
776.575	0.0145677
776.653	0.0145632
776.731	0.0145704
776.809	0.0146556
776.887	0.0144852
776.965	0.0145668
777.043	0.0147651
777.121	0.0147096
777.200	0.0147260
777.278	0.0145338
777.356	0.0146792
777.434	0.0146120
777.512	0.0145821
777.590	0.0146922
777.668	0.0147792
777.746	0.0147089
777.825	0.0145934
777.903	0.0147198
777.981	0.0146653
778.059	0.0147015
778.137	0.0147270
778.215	0.0146942
778.293	0.0146576
778.371	0.0146012
778.450	0.0147462
778.528	0.0146583
778.606	0.0147372
778.684	0.0147478
778.762	0.0147308
778.840	0.0146696
778.918	0.0147564
778.996	0.0147021
779.075	0.0148106
779.153	0.0147092
779.231	0.0148440
779.309	0.0147012
779.387	0.0145878
779.465	0.0145896
779.543	0.0147035
779.621	0.0145010
779.700	0.0145912
779.778	0.0146290
779.856	0.0145578
779.934	0.0145502
780.012	0.0146520
780.090	0.0145694
780.168	0.0146919
780.246	0.0145560
780.325	0.0145375
780.403	0.0146745
780.481	0.0148244
780.559	0.0146650
780.637	0.0145612
780.715	0.0147753
780.793	0.0146643
780.871	0.0147496
780.950	0.0147295
781.028	0.0147272
781.106	0.0147028
781.184	0.0147804
781.262	0.0148327
781.340	0.0146403
781.418	0.0145866
781.496	0.0144889
781.575	0.0145581
781.653	0.0145148
781.731	0.0146068
781.809	0.0146642
781.887	0.0145083
781.965	0.0146223
782.043	0.0145241
782.121	0.0146942
782.200	0.0145766
782.278	0.0145698
782.356	0.0144408
782.434	0.0145748
782.512	0.0144841
782.590	0.0145574
782.668	0.0145697
782.746	0.0146727
782.825	0.0144887
782.903	0.0144594
782.981	0.0145977
783.059	0.0146156
783.137	0.0147252
783.215	0.0146655
783.293	0.0145645
783.371	0.0146563
783.450	0.0146539
783.528	0.0145438
783.606	0.0147031
783.684	0.0147384
783.762	0.0147598
783.840	0.0146019
783.918	0.0146519
783.996	0.0147417
784.075	0.0146507
784.153	0.0147944
784.231	0.0146150
784.309	0.0147173
784.387	0.0144969
784.465	0.0145579
784.543	0.0147504
784.621	0.0146591
784.700	0.0146175
784.778	0.0146100
784.856	0.0146313
784.934	0.0146235
785.012	0.0146191
785.090	0.0145632
785.168	0.0145887
785.246	0.0146059
785.325	0.0146674
785.403	0.0147210
785.481	0.0147237
785.559	0.0147373
785.637	0.0145608
785.715	0.0145840
785.793	0.0146534
785.871	0.0148606
785.950	0.0147212
786.028	0.0147906
786.106	0.0147707
786.184	0.0147412
786.262	0.0146947
786.340	0.0145827
786.418	0.0147512
786.496	0.0147736
786.575	0.0148081
786.653	0.0147127
786.731	0.0147914
786.809	0.0148594
786.887	0.0148089
786.965	0.0147838
787.043	0.0147485
787.121	0.0149302
787.200	0.0147910
787.278	0.0147694
787.356	0.0147989
787.434	0.0148458
787.512	0.0147807
787.590	0.0147234
787.668	0.0146004
787.746	0.0146866
787.825	0.0148194
787.903	0.0149355
787.981	0.0147678
788.059	0.0146735
788.137	0.0146439
788.215	0.0147533
788.293	0.0147771
788.371	0.0146525
788.450	0.0147031
788.528	0.0146474
788.606	0.0146632
788.684	0.0147849
788.762	0.0146195
788.840	0.0146326
788.918	0.0146795
788.996	0.0146038
789.075	0.0146912
789.153	0.0146618
789.231	0.0146213
789.309	0.0145743
789.387	0.0145795
789.465	0.0147282
789.543	0.0147231
789.621	0.0146999
789.700	0.0146503
789.778	0.0146753
789.856	0.0146512
789.934	0.0146452
790.012	0.0145483
790.090	0.0146799
790.168	0.0146265
790.246	0.0145863
790.325	0.0146529
790.403	0.0147126
790.481	0.0146056
790.559	0.0147216
790.637	0.0146830
790.715	0.0146482
790.793	0.0145767
790.871	0.0147135
790.950	0.0146327
791.028	0.0145834
791.106	0.0146232
791.184	0.0146769
791.262	0.0146803
791.340	0.0146934
791.418	0.0144796
791.496	0.0146537
791.575	0.0145914
791.653	0.0145065
791.731	0.0144804
791.809	0.0145639
791.887	0.0146760
791.965	0.0146684
792.043	0.0148730
792.121	0.0144761
792.200	0.0144881
792.278	0.0145584
792.356	0.0145175
792.434	0.0146091
792.512	0.0146803
792.590	0.0144787
792.668	0.0145414
792.746	0.0147047
792.825	0.0147329
792.903	0.0145671
792.981	0.0146397
793.059	0.0147939
793.137	0.0145123
793.215	0.0145937
793.293	0.0146273
793.371	0.0147390
793.450	0.0146344
793.528	0.0146848
793.606	0.0146398
793.684	0.0147409
793.762	0.0146854
793.840	0.0145015
793.918	0.0145882
793.996	0.0146569
794.075	0.0147168
794.153	0.0147167
794.231	0.0146208
794.309	0.0146350
794.387	0.0145060
794.465	0.0146227
794.543	0.0144447
794.621	0.0145651
794.700	0.0145206
794.778	0.0145314
794.856	0.0145608
794.934	0.0145806
795.012	0.0145189
795.090	0.0145503
795.168	0.0143908
795.246	0.0144286
795.325	0.0146345
795.403	0.0145200
795.481	0.0145641
795.559	0.0145815
795.637	0.0144423
795.715	0.0144632
795.793	0.0145461
795.871	0.0145747
795.950	0.0146457
796.028	0.0144817
796.106	0.0144878
796.184	0.0145689
796.262	0.0145071
796.340	0.0144492
796.418	0.0143592
796.496	0.0144691
796.575	0.0146358
796.653	0.0145036
796.731	0.0143687
796.809	0.0143374
796.887	0.0143880
796.965	0.0145163
797.043	0.0144437
797.121	0.0145158
797.200	0.0145442
797.278	0.0145595
797.356	0.0146115
797.434	0.0145930
797.512	0.0145946
797.590	0.0146463
797.668	0.0145781
797.746	0.0146449
797.825	0.0145166
797.903	0.0146902
797.981	0.0146933
798.059	0.0147247
798.137	0.0147758
798.215	0.0147534
798.293	0.0146864
798.371	0.0146423
798.450	0.0146850
798.528	0.0145943
798.606	0.0146397
798.684	0.0146322
798.762	0.0147200
798.840	0.0145897
798.918	0.0144745
798.996	0.0145878
799.075	0.0146466
799.153	0.0146226
799.231	0.0146548
799.309	0.0145630
799.387	0.0145512
799.465	0.0146628
799.543	0.0145240
799.621	0.0145470
799.700	0.0146777
799.778	0.0146249
799.856	0.0147266
799.934	0.0145071
800.012	0.0146453
800.090	0.0147961
800.168	0.0146323
800.246	0.0146115
800.325	0.0148359
800.403	0.0148367
800.481	0.0146622
800.559	0.0147887
800.637	0.0148305
800.715	0.0147184
800.793	0.0147403
800.871	0.0147620
800.950	0.0147659
801.028	0.0147526
801.106	0.0147314
801.184	0.0147709
801.262	0.0147118
801.340	0.0146334
801.418	0.0147480
801.496	0.0146600
801.575	0.0147944
801.653	0.0147687
801.731	0.0148255
801.809	0.0146446
801.887	0.0146452
801.965	0.0147153
802.043	0.0147678
802.121	0.0147671
802.200	0.0148992
802.278	0.0146126
802.356	0.0146535
802.434	0.0147276
802.512	0.0148116
802.590	0.0147201
802.668	0.0146586
802.746	0.0146827
802.825	0.0146675
802.903	0.0146250
802.981	0.0147708
803.059	0.0144960
803.137	0.0146510
803.215	0.0147318
803.293	0.0146756
803.371	0.0146427
803.450	0.0148286
803.528	0.0146922
803.606	0.0145245
803.684	0.0145998
803.762	0.0145705
803.840	0.0145309
803.918	0.0145219
803.996	0.0143887
804.075	0.0144941
804.153	0.0146700
804.231	0.0146243
804.309	0.0145226
804.387	0.0144328
804.465	0.0146716
804.543	0.0146094
804.621	0.0146345
804.700	0.0145488
804.778	0.0145675
804.856	0.0146391
804.934	0.0147056
805.012	0.0145898
805.090	0.0146091
805.168	0.0145940
805.246	0.0145239
805.325	0.0147297
805.403	0.0146737
805.481	0.0144213
805.559	0.0145932
805.637	0.0147301
805.715	0.0146915
805.793	0.0145036
805.871	0.0146284
805.950	0.0147338
806.028	0.0146778
806.106	0.0145827
806.184	0.0146325
806.262	0.0144593
806.340	0.0147800
806.418	0.0144904
806.496	0.0146167
806.575	0.0147073
806.653	0.0146701
806.731	0.0146195
806.809	0.0146289
806.887	0.0146909
806.965	0.0145942
807.043	0.0146133
807.121	0.0145882
807.200	0.0146340
807.278	0.0145528
807.356	0.0145586
807.434	0.0147539
807.512	0.0146593
807.590	0.0146336
807.668	0.0147761
807.746	0.0149135
807.825	0.0147883
807.903	0.0146624
807.981	0.0146434
808.059	0.0147662
808.137	0.0147028
808.215	0.0146809
808.293	0.0147164
808.371	0.0147574
808.450	0.0145589
808.528	0.0146053
808.606	0.0146883
808.684	0.0145966
808.762	0.0146838
808.840	0.0147359
808.918	0.0146640
808.996	0.0146035
809.075	0.0147283
809.153	0.0146998
809.231	0.0145969
809.309	0.0146092
809.387	0.0146438
809.465	0.0147019
809.543	0.0147594
809.621	0.0146044
809.700	0.0147330
809.778	0.0146567
809.856	0.0147514
809.934	0.0146926
810.012	0.0145534
810.090	0.0147218
810.168	0.0145974
810.246	0.0147330
810.325	0.0146740
810.403	0.0145883
810.481	0.0148067
810.559	0.0147834
810.637	0.0147607
810.715	0.0146087
810.793	0.0146128
810.871	0.0146615
810.950	0.0146960
811.028	0.0146731
811.106	0.0146758
811.184	0.0145752
811.262	0.0144984
811.340	0.0145509
811.418	0.0146315
811.496	0.0146646
811.575	0.0146355
811.653	0.0147187
811.731	0.0146768
811.809	0.0146200
811.887	0.0147913
811.965	0.0148106
812.043	0.0147487
812.121	0.0146487
812.200	0.0145931
812.278	0.0146583
812.356	0.0146534
812.434	0.0146648
812.512	0.0147812
812.590	0.0147275
812.668	0.0146307
812.746	0.0146214
812.825	0.0144801
812.903	0.0147366
812.981	0.0145221
813.059	0.0147206
813.137	0.0146548
813.215	0.0144102
813.293	0.0146283
813.371	0.0146339
813.450	0.0145641
813.528	0.0145725
813.606	0.0146825
813.684	0.0146496
813.762	0.0145635
813.840	0.0145589
813.918	0.0145003
813.996	0.0143479
814.075	0.0145375
814.153	0.0146337
814.231	0.0144922
814.309	0.0146429
814.387	0.0146134
814.465	0.0145345
814.543	0.0146082
814.621	0.0144371
814.700	0.0143934
814.778	0.0146016
814.856	0.0146698
814.934	0.0146080
815.012	0.0145130
815.090	0.0144620
815.168	0.0146298
815.246	0.0145582
815.325	0.0146668
815.403	0.0145785
815.481	0.0145601
815.559	0.0145932
815.637	0.0148109
815.715	0.0145632
815.793	0.0146648
815.871	0.0145821
815.950	0.0145713
816.028	0.0145858
816.106	0.0146850
816.184	0.0146764
816.262	0.0147219
816.340	0.0145261
816.418	0.0145106
816.496	0.0146275
816.575	0.0146851
816.653	0.0147455
816.731	0.0145576
816.809	0.0146220
816.887	0.0146430
816.965	0.0144947
817.043	0.0146193
817.121	0.0146825
817.200	0.0144817
817.278	0.0145781
817.356	0.0145780
817.434	0.0145419
817.512	0.0146529
817.590	0.0146678
817.668	0.0146799
817.746	0.0146287
817.825	0.0145755
817.903	0.0146387
817.981	0.0146387
818.059	0.0146642
818.137	0.0145587
818.215	0.0146272
818.293	0.0147442
818.371	0.0146503
818.450	0.0146594
818.528	0.0145789
818.606	0.0146235
818.684	0.0146319
818.762	0.0146168
818.840	0.0146896
818.918	0.0145856
818.996	0.0146014
819.075	0.0146294
819.153	0.0145454
819.231	0.0145317
819.309	0.0146670
819.387	0.0145287
819.465	0.0147063
819.543	0.0145173
819.621	0.0145821
819.700	0.0146458
819.778	0.0144603
819.856	0.0146636
819.934	0.0146297
820.012	0.0147064
820.090	0.0146555
820.168	0.0146623
820.246	0.0146843
820.325	0.0148360
820.403	0.0147519
820.481	0.0146632
820.559	0.0146925
820.637	0.0147537
820.715	0.0147115
820.793	0.0145940
820.871	0.0147084
820.950	0.0146781
821.028	0.0147521
821.106	0.0146755
821.184	0.0145633
821.262	0.0145664
821.340	0.0146157
821.418	0.0145259
821.496	0.0146548
821.575	0.0145985
821.653	0.0146017
821.731	0.0146015
821.809	0.0145193
821.887	0.0144554
821.965	0.0147063
822.043	0.0147139
822.121	0.0144986
822.200	0.0145258
822.278	0.0147197
822.356	0.0146181
822.434	0.0146075
822.512	0.0147019
822.590	0.0146648
822.668	0.0145541
822.746	0.0145456
822.825	0.0147177
822.903	0.0146763
822.981	0.0147552
823.059	0.0146418
823.137	0.0146734
823.215	0.0147478
823.293	0.0147555
823.371	0.0146392
823.450	0.0145933
823.528	0.0146527
823.606	0.0147652
823.684	0.0147778
823.762	0.0146079
823.840	0.0147261
823.918	0.0144992
823.996	0.0147375
824.075	0.0147180
824.153	0.0146545
824.231	0.0146554
824.309	0.0145570
824.387	0.0146471
824.465	0.0145123
824.543	0.0146328
824.621	0.0145963
824.700	0.0144859
824.778	0.0146947
824.856	0.0144930
824.934	0.0146301
825.012	0.0145778
825.090	0.0146745
825.168	0.0146857
825.246	0.0146468
825.325	0.0146158
825.403	0.0145228
825.481	0.0146826
825.559	0.0147061
825.637	0.0144646
825.715	0.0146466
825.793	0.0146458
825.871	0.0146539
825.950	0.0146925
826.028	0.0146626
826.106	0.0146275
826.184	0.0146645
826.262	0.0146740
826.340	0.0146713
826.418	0.0145770
826.496	0.0146429
826.575	0.0145507
826.653	0.0146519
826.731	0.0146152
826.809	0.0146946
826.887	0.0147126
826.965	0.0145870
827.043	0.0145599
827.121	0.0145059
827.200	0.0144700
827.278	0.0145733
827.356	0.0144623
827.434	0.0144656
827.512	0.0146918
827.590	0.0145463
827.668	0.0145669
827.746	0.0146320
827.825	0.0145741
827.903	0.0146252
827.981	0.0146131
828.059	0.0146019
828.137	0.0146470
828.215	0.0146466
828.293	0.0147680
828.371	0.0146225
828.450	0.0145953
828.528	0.0147355
828.606	0.0146138
828.684	0.0146040
828.762	0.0145704
828.840	0.0147495
828.918	0.0147111
828.996	0.0146970
829.075	0.0147221
829.153	0.0148363
829.231	0.0147175
829.309	0.0147678
829.387	0.0148892
829.465	0.0148599
829.543	0.0146751
829.621	0.0146717
829.700	0.0146205
829.778	0.0148026
829.856	0.0146523
829.934	0.0146740
830.012	0.0147770
830.090	0.0148070
830.168	0.0147417
830.246	0.0147221
830.325	0.0147126
830.403	0.0147122
830.481	0.0147935
830.559	0.0146600
830.637	0.0147066
830.715	0.0147435
830.793	0.0147162
830.871	0.0146998
830.950	0.0146322
831.028	0.0147860
831.106	0.0146468
831.184	0.0147131
831.262	0.0146859
831.340	0.0146854
831.418	0.0145455
831.496	0.0147104
831.575	0.0146549
831.653	0.0147672
831.731	0.0148091
831.809	0.0147243
831.887	0.0146410
831.965	0.0146735
832.043	0.0146239
832.121	0.0146758
832.200	0.0146943
832.278	0.0146221
832.356	0.0148285
832.434	0.0148302
832.512	0.0146987
832.590	0.0146037
832.668	0.0147695
832.746	0.0147827
832.825	0.0145754
832.903	0.0147829
832.981	0.0147415
833.059	0.0147577
833.137	0.0145328
833.215	0.0145044
833.293	0.0146052
833.371	0.0146802
833.450	0.0146593
833.528	0.0146323
833.606	0.0146510
833.684	0.0146415
833.762	0.0146972
833.840	0.0146930
833.918	0.0146925
833.996	0.0145882
834.075	0.0145710
834.153	0.0145947
834.231	0.0145476
834.309	0.0147401
834.387	0.0145146
834.465	0.0146723
834.543	0.0146944
834.621	0.0147043
834.700	0.0145203
834.778	0.0147420
834.856	0.0145323
834.934	0.0147153
835.012	0.0147115
835.090	0.0145885
835.168	0.0147093
835.246	0.0146761
835.325	0.0146724
835.403	0.0146234
835.481	0.0147167
835.559	0.0145849
835.637	0.0146136
835.715	0.0147156
835.793	0.0145815
835.871	0.0146828
835.950	0.0147282
836.028	0.0147147
836.106	0.0146786
836.184	0.0145849
836.262	0.0147263
836.340	0.0147642
836.418	0.0147015
836.496	0.0147351
836.575	0.0145669
836.653	0.0146387
836.731	0.0147160
836.809	0.0147325
836.887	0.0145896
836.965	0.0145219
837.043	0.0146904
837.121	0.0145888
837.200	0.0145660
837.278	0.0146663
837.356	0.0146376
837.434	0.0145779
837.512	0.0146883
837.590	0.0147250
837.668	0.0146923
837.746	0.0146748
837.825	0.0146292
837.903	0.0146230
837.981	0.0146127
838.059	0.0146761
838.137	0.0145312
838.215	0.0146644
838.293	0.0146178
838.371	0.0145184
838.450	0.0146128
838.528	0.0146587
838.606	0.0145345
838.684	0.0144822
838.762	0.0145272
838.840	0.0145623
838.918	0.0144633
838.996	0.0145719
839.075	0.0146187
839.153	0.0144598
839.231	0.0145450
839.309	0.0145980
839.387	0.0144611
839.465	0.0145715
839.543	0.0145045
839.621	0.0144727
839.700	0.0145369
839.778	0.0145672
839.856	0.0145811
839.934	0.0145286
840.012	0.0145013
840.090	0.0145742
840.168	0.0146944
840.246	0.0146318
840.325	0.0145171
840.403	0.0145975
840.481	0.0146277
840.559	0.0145547
840.637	0.0147924
840.715	0.0145828
840.793	0.0145740
840.871	0.0145907
840.950	0.0147858
841.028	0.0148003
841.106	0.0146674
841.184	0.0146331
841.262	0.0146446
841.340	0.0145238
841.418	0.0145844
841.496	0.0146067
841.575	0.0146985
841.653	0.0145583
841.731	0.0146237
841.809	0.0146701
841.887	0.0146960
841.965	0.0146486
842.043	0.0145646
842.121	0.0147282
842.200	0.0147541
842.278	0.0146867
842.356	0.0146236
842.434	0.0146712
842.512	0.0146097
842.590	0.0146944
842.668	0.0145152
842.746	0.0145892
842.825	0.0145699
842.903	0.0146015
842.981	0.0144872
843.059	0.0145469
843.137	0.0145676
843.215	0.0146579
843.293	0.0144925
843.371	0.0144382
843.450	0.0145144
843.528	0.0146006
843.606	0.0146985
843.684	0.0145105
843.762	0.0145650
843.840	0.0145715
843.918	0.0146827
843.996	0.0146761
844.075	0.0147631
844.153	0.0147211
844.231	0.0148181
844.309	0.0145410
844.387	0.0145582
844.465	0.0146743
844.543	0.0146349
844.621	0.0147314
844.700	0.0146898
844.778	0.0145943
844.856	0.0146558
844.934	0.0146918
845.012	0.0145947
845.090	0.0145460
845.168	0.0146059
845.246	0.0146586
845.325	0.0146272
845.403	0.0147259
845.481	0.0146153
845.559	0.0146165
845.637	0.0145129
845.715	0.0144604
845.793	0.0146449
845.871	0.0145808
845.950	0.0145763
846.028	0.0146909
846.106	0.0146432
846.184	0.0146638
846.262	0.0146362
846.340	0.0145179
846.418	0.0144985
846.496	0.0145865
846.575	0.0147208
846.653	0.0145784
846.731	0.0148365
846.809	0.0147096
846.887	0.0145595
846.965	0.0146716
847.043	0.0146631
847.121	0.0145805
847.200	0.0145163
847.278	0.0146503
847.356	0.0146684
847.434	0.0145082
847.512	0.0146133
847.590	0.0147304
847.668	0.0147430
847.746	0.0145531
847.825	0.0145361
847.903	0.0148117
847.981	0.0146132
848.059	0.0145635
848.137	0.0144965
848.215	0.0146305
848.293	0.0146534
848.371	0.0147234
848.450	0.0146825
848.528	0.0146801
848.606	0.0147780
848.684	0.0145161
848.762	0.0146966
848.840	0.0147064
848.918	0.0145046
848.996	0.0145634
849.075	0.0147099
849.153	0.0146793
849.231	0.0146836
849.309	0.0146574
849.387	0.0147371
849.465	0.0147029
849.543	0.0147491
849.621	0.0145616
849.700	0.0145485
849.778	0.0145823
849.856	0.0147137
849.934	0.0146056
850.012	0.0146137
850.090	0.0144875
850.168	0.0144286
850.246	0.0145657
850.325	0.0145645
850.403	0.0145673
850.481	0.0144854
850.559	0.0146069
850.637	0.0146171
850.715	0.0144894
850.793	0.0145741
850.871	0.0146552
850.950	0.0146713
851.028	0.0145328
851.106	0.0146056
851.184	0.0145889
851.262	0.0147463
851.340	0.0147745
851.418	0.0146828
851.496	0.0146745
851.575	0.0146201
851.653	0.0146619
851.731	0.0147677
851.809	0.0146391
851.887	0.0145667
851.965	0.0146132
852.043	0.0147032
852.121	0.0146911
852.200	0.0145460
852.278	0.0145759
852.356	0.0143930
852.434	0.0145656
852.512	0.0146998
852.590	0.0146532
852.668	0.0146881
852.746	0.0145805
852.825	0.0146399
852.903	0.0145235
852.981	0.0146221
853.059	0.0146638
853.137	0.0145766
853.215	0.0146716
853.293	0.0146850
853.371	0.0145007
853.450	0.0145010
853.528	0.0146391
853.606	0.0147594
853.684	0.0145235
853.762	0.0145667
853.840	0.0146571
853.918	0.0146968
853.996	0.0146519
854.075	0.0145544
854.153	0.0145708
854.231	0.0146343
854.309	0.0146721
854.387	0.0147868
854.465	0.0146598
854.543	0.0146796
854.621	0.0148171
854.700	0.0146903
854.778	0.0147546
854.856	0.0146741
854.934	0.0146664
855.012	0.0146517
855.090	0.0146229
855.168	0.0146205
855.246	0.0146237
855.325	0.0146470
855.403	0.0146524
855.481	0.0146404
855.559	0.0146319
855.637	0.0146990
855.715	0.0147189
855.793	0.0145032
855.871	0.0146404
855.950	0.0146348
856.028	0.0148132
856.106	0.0147984
856.184	0.0147361
856.262	0.0147501
856.340	0.0146932
856.418	0.0146891
856.496	0.0147478
856.575	0.0148090
856.653	0.0147951
856.731	0.0146348
856.809	0.0145660
856.887	0.0146730
856.965	0.0149255
857.043	0.0147157
857.121	0.0145651
857.200	0.0146909
857.278	0.0145438
857.356	0.0147096
857.434	0.0145747
857.512	0.0146075
857.590	0.0145977
857.668	0.0145690
857.746	0.0146822
857.825	0.0146767
857.903	0.0147209
857.981	0.0147636
858.059	0.0147177
858.137	0.0146597
858.215	0.0146170
858.293	0.0146413
858.371	0.0147252
858.450	0.0145770
858.528	0.0146790
858.606	0.0147436
858.684	0.0147346
858.762	0.0145462
858.840	0.0146449
858.918	0.0145855
858.996	0.0146350
859.075	0.0146779
859.153	0.0146078
859.231	0.0145814
859.309	0.0147081
859.387	0.0146588
859.465	0.0146378
859.543	0.0145287
859.621	0.0145647
859.700	0.0146774
859.778	0.0145861
859.856	0.0144930
859.934	0.0145362
860.012	0.0144931
860.090	0.0145502
860.168	0.0146144
860.246	0.0146217
860.325	0.0146889
860.403	0.0145542
860.481	0.0144655
860.559	0.0146303
860.637	0.0146050
860.715	0.0145012
860.793	0.0145409
860.871	0.0145853
860.950	0.0145608
861.028	0.0146402
861.106	0.0146351
861.184	0.0145158
861.262	0.0146008
861.340	0.0145979
861.418	0.0146111
861.496	0.0145499
861.575	0.0145152
861.653	0.0146825
861.731	0.0145889
861.809	0.0146441
861.887	0.0146726
861.965	0.0146017
862.043	0.0145692
862.121	0.0145331
862.200	0.0145186
862.278	0.0146562
862.356	0.0148006
862.434	0.0145544
862.512	0.0146655
862.590	0.0146380
862.668	0.0146023
862.746	0.0144255
862.825	0.0146725
862.903	0.0147260
862.981	0.0146099
863.059	0.0146648
863.137	0.0146750
863.215	0.0147515
863.293	0.0146467
863.371	0.0146156
863.450	0.0146210
863.528	0.0146552
863.606	0.0146523
863.684	0.0146776
863.762	0.0147277
863.840	0.0146714
863.918	0.0146759
863.996	0.0146922
864.075	0.0147675
864.153	0.0146172
864.231	0.0146885
864.309	0.0146703
864.387	0.0146539
864.465	0.0147827
864.543	0.0147573
864.621	0.0146294
864.700	0.0146328
864.778	0.0146345
864.856	0.0147757
864.934	0.0146754
865.012	0.0147089
865.090	0.0147128
865.168	0.0147269
865.246	0.0146467
865.325	0.0147196
865.403	0.0146040
865.481	0.0146263
865.559	0.0146777
865.637	0.0147909
865.715	0.0145866
865.793	0.0147451
865.871	0.0145898
865.950	0.0146606
866.028	0.0146432
866.106	0.0147450
866.184	0.0145313
866.262	0.0146043
866.340	0.0147274
866.418	0.0147292
866.496	0.0145618
866.575	0.0146049
866.653	0.0146409
866.731	0.0147011
866.809	0.0147591
866.887	0.0147447
866.965	0.0147196
867.043	0.0146254
867.121	0.0146054
867.200	0.0148127
867.278	0.0145339
867.356	0.0145170
867.434	0.0145942
867.512	0.0145715
867.590	0.0144939
867.668	0.0146719
867.746	0.0146653
867.825	0.0145380
867.903	0.0146434
867.981	0.0146498
868.059	0.0147661
868.137	0.0146436
868.215	0.0146517
868.293	0.0147263
868.371	0.0147020
868.450	0.0147681
868.528	0.0147408
868.606	0.0148013
868.684	0.0147276
868.762	0.0147953
868.840	0.0145418
868.918	0.0147015
868.996	0.0146684
869.075	0.0146889
869.153	0.0146175
869.231	0.0146850
869.309	0.0146759
869.387	0.0146449
869.465	0.0147406
869.543	0.0146534
869.621	0.0147098
869.700	0.0146454
869.778	0.0147262
869.856	0.0146008
869.934	0.0146044
870.012	0.0146835
870.090	0.0146299
870.168	0.0146774
870.246	0.0146372
870.325	0.0147134
870.403	0.0146936
870.481	0.0145224
870.559	0.0145032
870.637	0.0144793
870.715	0.0145893
870.793	0.0145306
870.871	0.0145700
870.950	0.0144779
871.028	0.0146564
871.106	0.0147595
871.184	0.0146845
871.262	0.0145757
871.340	0.0145717
871.418	0.0146575
871.496	0.0146955
871.575	0.0144978
871.653	0.0145549
871.731	0.0147874
871.809	0.0146457
871.887	0.0146796
871.965	0.0145440
872.043	0.0146121
872.121	0.0146516
872.200	0.0145944
872.278	0.0145560
872.356	0.0146105
872.434	0.0147260
872.512	0.0147049
872.590	0.0146690
872.668	0.0146841
872.746	0.0146912
872.825	0.0146901
872.903	0.0144959
872.981	0.0145412
873.059	0.0147130
873.137	0.0147909
873.215	0.0146619
873.293	0.0146721
873.371	0.0146033
873.450	0.0146526
873.528	0.0146228
873.606	0.0146206
873.684	0.0147192
873.762	0.0146339
873.840	0.0146661
873.918	0.0146539
873.996	0.0144695
874.075	0.0144757
874.153	0.0147233
874.231	0.0146693
874.309	0.0146036
874.387	0.0146534
874.465	0.0145959
874.543	0.0147761
874.621	0.0147164
874.700	0.0146069
874.778	0.0146561
874.856	0.0145958
874.934	0.0145347
875.012	0.0145844
875.090	0.0145097
875.168	0.0146043
875.246	0.0145328
875.325	0.0145002
875.403	0.0144952
875.481	0.0144202
875.559	0.0145374
875.637	0.0145801
875.715	0.0143537
875.793	0.0144546
875.871	0.0146444
875.950	0.0145264
876.028	0.0146442
876.106	0.0146120
876.184	0.0144591
876.262	0.0146127
876.340	0.0147144
876.418	0.0146146
876.496	0.0146626
876.575	0.0146549
876.653	0.0147086
876.731	0.0148453
876.809	0.0146998
876.887	0.0146646
876.965	0.0146835
877.043	0.0145933
877.121	0.0146339
877.200	0.0146176
877.278	0.0148187
877.356	0.0146410
877.434	0.0145215
877.512	0.0146284
877.590	0.0146056
877.668	0.0146342
877.746	0.0146012
877.825	0.0146075
877.903	0.0146877
877.981	0.0146011
878.059	0.0145206
878.137	0.0145945
878.215	0.0145515
878.293	0.0146547
878.371	0.0145962
878.450	0.0146422
878.528	0.0145299
878.606	0.0146400
878.684	0.0146475
878.762	0.0146581
878.840	0.0145775
878.918	0.0146684
878.996	0.0146307
879.075	0.0146019
879.153	0.0146590
879.231	0.0147507
879.309	0.0148261
879.387	0.0147551
879.465	0.0147856
879.543	0.0147006
879.621	0.0147372
879.700	0.0146769
879.778	0.0147588
879.856	0.0147679
879.934	0.0147884
880.012	0.0144670
880.090	0.0145617
880.168	0.0145435
880.246	0.0145756
880.325	0.0143753
880.403	0.0145625
880.481	0.0145775
880.559	0.0144701
880.637	0.0146020
880.715	0.0147244
880.793	0.0146093
880.871	0.0146796
880.950	0.0147922
881.028	0.0148115
881.106	0.0148401
881.184	0.0147707
881.262	0.0147023
881.340	0.0146490
881.418	0.0146962
881.496	0.0145523
881.575	0.0146802
881.653	0.0146732
881.731	0.0146362
881.809	0.0146202
881.887	0.0147180
881.965	0.0147248
882.043	0.0147839
882.121	0.0147311
882.200	0.0144965
882.278	0.0146631
882.356	0.0147099
882.434	0.0146778
882.512	0.0147484
882.590	0.0147309
882.668	0.0147707
882.746	0.0146471
882.825	0.0146494
882.903	0.0145996
882.981	0.0146237
883.059	0.0145440
883.137	0.0145107
883.215	0.0144917
883.293	0.0145220
883.371	0.0144231
883.450	0.0146400
883.528	0.0145355
883.606	0.0144410
883.684	0.0146703
883.762	0.0146040
883.840	0.0144366
883.918	0.0145774
883.996	0.0145949
884.075	0.0145764
884.153	0.0145390
884.231	0.0145090
884.309	0.0145688
884.387	0.0145789
884.465	0.0145478
884.543	0.0144128
884.621	0.0144682
884.700	0.0144772
884.778	0.0145042
884.856	0.0145843
884.934	0.0144531
885.012	0.0144510
885.090	0.0144508
885.168	0.0143997
885.246	0.0146302
885.325	0.0145586
885.403	0.0145547
885.481	0.0144365
885.559	0.0145917
885.637	0.0146028
885.715	0.0147288
885.793	0.0145676
885.871	0.0144447
885.950	0.0146099
886.028	0.0145733
886.106	0.0146636
886.184	0.0145957
886.262	0.0145538
886.340	0.0145115
886.418	0.0146456
886.496	0.0145824
886.575	0.0145528
886.653	0.0146548
886.731	0.0145623
886.809	0.0144849
886.887	0.0146082
886.965	0.0146859
887.043	0.0145856
887.121	0.0145249
887.200	0.0146146
887.278	0.0144042
887.356	0.0146824
887.434	0.0145929
887.512	0.0146272
887.590	0.0147778
887.668	0.0146973
887.746	0.0146021
887.825	0.0146564
887.903	0.0147292
887.981	0.0147422
888.059	0.0146075
888.137	0.0147958
888.215	0.0146230
888.293	0.0147005
888.371	0.0145882
888.450	0.0146626
888.528	0.0145514
888.606	0.0145177
888.684	0.0147180
888.762	0.0148554
888.840	0.0146505
888.918	0.0147273
888.996	0.0146826
889.075	0.0147480
889.153	0.0147652
889.231	0.0146494
889.309	0.0146848
889.387	0.0146444
889.465	0.0148117
889.543	0.0147275
889.621	0.0147060
889.700	0.0147240
889.778	0.0146172
889.856	0.0146514
889.934	0.0146200
890.012	0.0147656
890.090	0.0147334
890.168	0.0146243
890.246	0.0147587
890.325	0.0146425
890.403	0.0147246
890.481	0.0146475
890.559	0.0146716
890.637	0.0148095
890.715	0.0145663
890.793	0.0147565
890.871	0.0149092
890.950	0.0147395
891.028	0.0148022
891.106	0.0146309
891.184	0.0145348
891.262	0.0147228
891.340	0.0145795
891.418	0.0146296
891.496	0.0146851
891.575	0.0144965
891.653	0.0145152
891.731	0.0145917
891.809	0.0145110
891.887	0.0145731
891.965	0.0145486
892.043	0.0144644
892.121	0.0146590
892.200	0.0145506
892.278	0.0145071
892.356	0.0145908
892.434	0.0144736
892.512	0.0147649
892.590	0.0147223
892.668	0.0145744
892.746	0.0146767
892.825	0.0147690
892.903	0.0147144
892.981	0.0147800
893.059	0.0146905
893.137	0.0146920
893.215	0.0146967
893.293	0.0146168
893.371	0.0146160
893.450	0.0146522
893.528	0.0147918
893.606	0.0145514
893.684	0.0146049
893.762	0.0148102
893.840	0.0148449
893.918	0.0145731
893.996	0.0146783
894.075	0.0146635
894.153	0.0146214
894.231	0.0145750
894.309	0.0146578
894.387	0.0145473
894.465	0.0147295
894.543	0.0146624
894.621	0.0146411
894.700	0.0144964
894.778	0.0146700
894.856	0.0147300
894.934	0.0144601
895.012	0.0146099
895.090	0.0145084
895.168	0.0145139
895.246	0.0146848
895.325	0.0146757
895.403	0.0145791
895.481	0.0146423
895.559	0.0146596
895.637	0.0145684
895.715	0.0146584
895.793	0.0147041
895.871	0.0146497
895.950	0.0146678
896.028	0.0146041
896.106	0.0146623
896.184	0.0147456
896.262	0.0145034
896.340	0.0145224
896.418	0.0145644
896.496	0.0144274
896.575	0.0145304
896.653	0.0145312
896.731	0.0144305
896.809	0.0145514
896.887	0.0144433
896.965	0.0146082
897.043	0.0146053
897.121	0.0144830
897.200	0.0146388
897.278	0.0146358
897.356	0.0146674
897.434	0.0146191
897.512	0.0145817
897.590	0.0146951
897.668	0.0146630
897.746	0.0146748
897.825	0.0145992
897.903	0.0146539
897.981	0.0146301
898.059	0.0146027
898.137	0.0146023
898.215	0.0148222
898.293	0.0146982
898.371	0.0146101
898.450	0.0147389
898.528	0.0147154
898.606	0.0146609
898.684	0.0146956
898.762	0.0144962
898.840	0.0145768
898.918	0.0145782
898.996	0.0145253
899.075	0.0144790
899.153	0.0144935
899.231	0.0145745
899.309	0.0145670
899.387	0.0146095
899.465	0.0144498
899.543	0.0146317
899.621	0.0146867
899.700	0.0146611
899.778	0.0146748
899.856	0.0146709
899.934	0.0147836
900.012	0.0147247
900.090	0.0146842
900.168	0.0145985
900.246	0.0147673
900.325	0.0147633
900.403	0.0146770
900.481	0.0147960
900.559	0.0147642
900.637	0.0146599
900.715	0.0148825
900.793	0.0148294
900.871	0.0148168
900.950	0.0147591
901.028	0.0147063
901.106	0.0146853
901.184	0.0147196
901.262	0.0147091
901.340	0.0147878
901.418	0.0145618
901.496	0.0146671
901.575	0.0146065
901.653	0.0143932
901.731	0.0145849
901.809	0.0146662
901.887	0.0146534
901.965	0.0144711
902.043	0.0146881
902.121	0.0146111
902.200	0.0145687
902.278	0.0145840
902.356	0.0145123
902.434	0.0145815
902.512	0.0145103
902.590	0.0147235
902.668	0.0146102
902.746	0.0147398
902.825	0.0145263
902.903	0.0145245
902.981	0.0146609
903.059	0.0147691
903.137	0.0146947
903.215	0.0147086
903.293	0.0145931
903.371	0.0146336
903.450	0.0146664
903.528	0.0146304
903.606	0.0147436
903.684	0.0146664
903.762	0.0146845
903.840	0.0145193
903.918	0.0146141
903.996	0.0146871
904.075	0.0145778
904.153	0.0145351
904.231	0.0144980
904.309	0.0145141
904.387	0.0145732
904.465	0.0145536
904.543	0.0146468
904.621	0.0145816
904.700	0.0144597
904.778	0.0145062
904.856	0.0146922
904.934	0.0145596
905.012	0.0145582
905.090	0.0146985
905.168	0.0146334
905.246	0.0146579
905.325	0.0146617
905.403	0.0145640
905.481	0.0145627
905.559	0.0147064
905.637	0.0146138
905.715	0.0145639
905.793	0.0146323
905.871	0.0146511
905.950	0.0146669
906.028	0.0146299
906.106	0.0146497
906.184	0.0146494
906.262	0.0146626
906.340	0.0145614
906.418	0.0146510
906.496	0.0145924
906.575	0.0147034
906.653	0.0146276
906.731	0.0147111
906.809	0.0145103
906.887	0.0145581
906.965	0.0146671
907.043	0.0145890
907.121	0.0145866
907.200	0.0145738
907.278	0.0146291
907.356	0.0147008
907.434	0.0146310
907.512	0.0146648
907.590	0.0145824
907.668	0.0147533
907.746	0.0147546
907.825	0.0146629
907.903	0.0147440
907.981	0.0147393
908.059	0.0146932
908.137	0.0145360
908.215	0.0146164
908.293	0.0148061
908.371	0.0148571
908.450	0.0147179
908.528	0.0146772
908.606	0.0147237
908.684	0.0147040
908.762	0.0146490
908.840	0.0147321
908.918	0.0146973
908.996	0.0145861
909.075	0.0146175
909.153	0.0147395
909.231	0.0147220
909.309	0.0146366
909.387	0.0148605
909.465	0.0147457
909.543	0.0147520
909.621	0.0146579
909.700	0.0146143
909.778	0.0147450
909.856	0.0147981
909.934	0.0147805
910.012	0.0147592
910.090	0.0145138
910.168	0.0147054
910.246	0.0147260
910.325	0.0147253
910.403	0.0146089
910.481	0.0146272
910.559	0.0147055
910.637	0.0147296
910.715	0.0146677
910.793	0.0146557
910.871	0.0146821
910.950	0.0146993
911.028	0.0145088
911.106	0.0146284
911.184	0.0146418
911.262	0.0145622
911.340	0.0146848
911.418	0.0145275
911.496	0.0146412
911.575	0.0146458
911.653	0.0147030
911.731	0.0145325
911.809	0.0146500
911.887	0.0146734
911.965	0.0146545
912.043	0.0145648
912.121	0.0146394
912.200	0.0146739
912.278	0.0146239
912.356	0.0144239
912.434	0.0145784
912.512	0.0146308
912.590	0.0146615
912.668	0.0146636
912.746	0.0146542
912.825	0.0147034
912.903	0.0146726
912.981	0.0148454
913.059	0.0148180
913.137	0.0146286
913.215	0.0146497
913.293	0.0146593
913.371	0.0146465
913.450	0.0145905
913.528	0.0146359
913.606	0.0147133
913.684	0.0146104
913.762	0.0145682
913.840	0.0146438
913.918	0.0146543
913.996	0.0144923
914.075	0.0146241
914.153	0.0145872
914.231	0.0144467
914.309	0.0146768
914.387	0.0145869
914.465	0.0145950
914.543	0.0146033
914.621	0.0146056
914.700	0.0146490
914.778	0.0145216
914.856	0.0146087
914.934	0.0146004
915.012	0.0146313
915.090	0.0145853
915.168	0.0145219
915.246	0.0144994
915.325	0.0144344
915.403	0.0145074
915.481	0.0144984
915.559	0.0144743
915.637	0.0144392
915.715	0.0145740
915.793	0.0145570
915.871	0.0144631
915.950	0.0144858
916.028	0.0144179
916.106	0.0145821
916.184	0.0145954
916.262	0.0145875
916.340	0.0145447
916.418	0.0145721
916.496	0.0147529
916.575	0.0146281
916.653	0.0145744
916.731	0.0146235
916.809	0.0145505
916.887	0.0146764
916.965	0.0145807
917.043	0.0145190
917.121	0.0147145
917.200	0.0146856
917.278	0.0145585
917.356	0.0146495
917.434	0.0147157
917.512	0.0146819
917.590	0.0146318
917.668	0.0147246
917.746	0.0146362
917.825	0.0146014
917.903	0.0146213
917.981	0.0146404
918.059	0.0147534
918.137	0.0146732
918.215	0.0146602
918.293	0.0146756
918.371	0.0145629
918.450	0.0145136
918.528	0.0146990
918.606	0.0146301
918.684	0.0146523
918.762	0.0145764
918.840	0.0145577
918.918	0.0145753
918.996	0.0147772
919.075	0.0146902
919.153	0.0147539
919.231	0.0146356
919.309	0.0145673
919.387	0.0147063
919.465	0.0146754
919.543	0.0147133
919.621	0.0147313
919.700	0.0146951
919.778	0.0146877
919.856	0.0146568
919.934	0.0145214
920.012	0.0146152
920.090	0.0146342
920.168	0.0146677
920.246	0.0146527
920.325	0.0146735
920.403	0.0145697
920.481	0.0146609
920.559	0.0146167
920.637	0.0145297
920.715	0.0145670
920.793	0.0146114
920.871	0.0145899
920.950	0.0145612
921.028	0.0146152
921.106	0.0147202
921.184	0.0147092
921.262	0.0148084
921.340	0.0146895
921.418	0.0146945
921.496	0.0145781
921.575	0.0146526
921.653	0.0146410
921.731	0.0146967
921.809	0.0147739
921.887	0.0145620
921.965	0.0147069
922.043	0.0147736
922.121	0.0146725
922.200	0.0147094
922.278	0.0147046
922.356	0.0148879
922.434	0.0146661
922.512	0.0146392
922.590	0.0148170
922.668	0.0146986
922.746	0.0148343
922.825	0.0147457
922.903	0.0146314
922.981	0.0146349
923.059	0.0146603
923.137	0.0147003
923.215	0.0146875
923.293	0.0147387
923.371	0.0147326
923.450	0.0147115
923.528	0.0147041
923.606	0.0147063
923.684	0.0146841
923.762	0.0146362
923.840	0.0146989
923.918	0.0147600
923.996	0.0147532
924.075	0.0146730
924.153	0.0146601
924.231	0.0146458
924.309	0.0146466
924.387	0.0146896
924.465	0.0147312
924.543	0.0146351
924.621	0.0145885
924.700	0.0146998
924.778	0.0147778
924.856	0.0147044
924.934	0.0146950
925.012	0.0144794
925.090	0.0145554
925.168	0.0145397
925.246	0.0146523
925.325	0.0146416
925.403	0.0145342
925.481	0.0146075
925.559	0.0146638
925.637	0.0145863
925.715	0.0146046
925.793	0.0145468
925.871	0.0146340
925.950	0.0144453
926.028	0.0146529
926.106	0.0146231
926.184	0.0145294
926.262	0.0145644
926.340	0.0144751
926.418	0.0145757
926.496	0.0145477
926.575	0.0146611
926.653	0.0144658
926.731	0.0144977
926.809	0.0145981
926.887	0.0145695
926.965	0.0146367
927.043	0.0146388
927.121	0.0146371
927.200	0.0145146
927.278	0.0145338
927.356	0.0146208
927.434	0.0146268
927.512	0.0146374
927.590	0.0147859
927.668	0.0145493
927.746	0.0145914
927.825	0.0146912
927.903	0.0146354
927.981	0.0146400
928.059	0.0146136
928.137	0.0146534
928.215	0.0146875
928.293	0.0145361
928.371	0.0146922
928.450	0.0147094
928.528	0.0146844
928.606	0.0147084
928.684	0.0145938
928.762	0.0145550
928.840	0.0146501
928.918	0.0146206
928.996	0.0146492
929.075	0.0146567
929.153	0.0145811
929.231	0.0147250
929.309	0.0147386
929.387	0.0146065
929.465	0.0146487
929.543	0.0146314
929.621	0.0147152
929.700	0.0146004
929.778	0.0146046
929.856	0.0145618
929.934	0.0146057
930.012	0.0146120
930.090	0.0146384
930.168	0.0146366
930.246	0.0146243
930.325	0.0146346
930.403	0.0145610
930.481	0.0147140
930.559	0.0145699
930.637	0.0146062
930.715	0.0146771
930.793	0.0146719
930.871	0.0145319
930.950	0.0144926
931.028	0.0145735
931.106	0.0146602
931.184	0.0146417
931.262	0.0147223
931.340	0.0146399
931.418	0.0145805
931.496	0.0145263
931.575	0.0147198
931.653	0.0146016
931.731	0.0146229
931.809	0.0146912
931.887	0.0147046
931.965	0.0145627
932.043	0.0146271
932.121	0.0146109
932.200	0.0147456
932.278	0.0146577
932.356	0.0145506
932.434	0.0145635
932.512	0.0146239
932.590	0.0147091
932.668	0.0147346
932.746	0.0146322
932.825	0.0145531
932.903	0.0145576
932.981	0.0145380
933.059	0.0146632
933.137	0.0146093
933.215	0.0146581
933.293	0.0145955
933.371	0.0145130
933.450	0.0145653
933.528	0.0145809
933.606	0.0145671
933.684	0.0146242
933.762	0.0145616
933.840	0.0144975
933.918	0.0145171
933.996	0.0146239
934.075	0.0146126
934.153	0.0146198
934.231	0.0146676
934.309	0.0144362
934.387	0.0145119
934.465	0.0146712
934.543	0.0146355
934.621	0.0145390
934.700	0.0145714
934.778	0.0146397
934.856	0.0146416
934.934	0.0146178
935.012	0.0146202
935.090	0.0144916
935.168	0.0145905
935.246	0.0145858
935.325	0.0146319
935.403	0.0145892
935.481	0.0146310
935.559	0.0146220
935.637	0.0145344
935.715	0.0145428
935.793	0.0147025
935.871	0.0146309
935.950	0.0146034
936.028	0.0146700
936.106	0.0146667
936.184	0.0146313
936.262	0.0146046
936.340	0.0146416
936.418	0.0146133
936.496	0.0147134
936.575	0.0146262
936.653	0.0144952
936.731	0.0145462
936.809	0.0146009
936.887	0.0145428
936.965	0.0145933
937.043	0.0145390
937.121	0.0145018
937.200	0.0145703
937.278	0.0144587
937.356	0.0145631
937.434	0.0144318
937.512	0.0145258
937.590	0.0145103
937.668	0.0145307
937.746	0.0145079
937.825	0.0145478
937.903	0.0144466
937.981	0.0145573
938.059	0.0146017
938.137	0.0144839
938.215	0.0145885
938.293	0.0145359
938.371	0.0146056
938.450	0.0145864
938.528	0.0144479
938.606	0.0144920
938.684	0.0144962
938.762	0.0145793
938.840	0.0144908
938.918	0.0145427
938.996	0.0145879
939.075	0.0146554
939.153	0.0146645
939.231	0.0145938
939.309	0.0145697
939.387	0.0145478
939.465	0.0146162
939.543	0.0145267
939.621	0.0144679
939.700	0.0144839
939.778	0.0145699
939.856	0.0145665
939.934	0.0145641
940.012	0.0144485
940.090	0.0146339
940.168	0.0146636
940.246	0.0145747
940.325	0.0145560
940.403	0.0146294
940.481	0.0145658
940.559	0.0147684
940.637	0.0146131
940.715	0.0147375
940.793	0.0145531
940.871	0.0145500
940.950	0.0147209
941.028	0.0147440
941.106	0.0146941
941.184	0.0144928
941.262	0.0146597
941.340	0.0146001
941.418	0.0146706
941.496	0.0145901
941.575	0.0145927
941.653	0.0146204
941.731	0.0144815
941.809	0.0145782
941.887	0.0146146
941.965	0.0144838
942.043	0.0146030
942.121	0.0145812
942.200	0.0147036
942.278	0.0145673
942.356	0.0146531
942.434	0.0147368
942.512	0.0146239
942.590	0.0147648
942.668	0.0145415
942.746	0.0146516
942.825	0.0145832
942.903	0.0145654
942.981	0.0147322
943.059	0.0144627
943.137	0.0146549
943.215	0.0146493
943.293	0.0146824
943.371	0.0145802
943.450	0.0145641
943.528	0.0146563
943.606	0.0148417
943.684	0.0145383
943.762	0.0146120
943.840	0.0146057
943.918	0.0146593
943.996	0.0145905
944.075	0.0145950
944.153	0.0145621
944.231	0.0146355
944.309	0.0147399
944.387	0.0146684
944.465	0.0146383
944.543	0.0145960
944.621	0.0146582
944.700	0.0145265
944.778	0.0146442
944.856	0.0145510
944.934	0.0147256
945.012	0.0146244
945.090	0.0144806
945.168	0.0146301
945.246	0.0145870
945.325	0.0147194
945.403	0.0146547
945.481	0.0147437
945.559	0.0146825
945.637	0.0146591
945.715	0.0147747
945.793	0.0147781
945.871	0.0147414
945.950	0.0146667
946.028	0.0146903
946.106	0.0147256
946.184	0.0147694
946.262	0.0147461
946.340	0.0145668
946.418	0.0146828
946.496	0.0146294
946.575	0.0146304
946.653	0.0147498
946.731	0.0146594
946.809	0.0147230
946.887	0.0145948
946.965	0.0146553
947.043	0.0147078
947.121	0.0146854
947.200	0.0146383
947.278	0.0147598
947.356	0.0146146
947.434	0.0145628
947.512	0.0145464
947.590	0.0145681
947.668	0.0146804
947.746	0.0146920
947.825	0.0145645
947.903	0.0147176
947.981	0.0145750
948.059	0.0146407
948.137	0.0146625
948.215	0.0146517
948.293	0.0146315
948.371	0.0145960
948.450	0.0145901
948.528	0.0147566
948.606	0.0147321
948.684	0.0146499
948.762	0.0147900
948.840	0.0146772
948.918	0.0146086
948.996	0.0147306
949.075	0.0146832
949.153	0.0145855
949.231	0.0146078
949.309	0.0146624
949.387	0.0146559
949.465	0.0146468
949.543	0.0145966
949.621	0.0145406
949.700	0.0145383
949.778	0.0146078
949.856	0.0146015
949.934	0.0146447
950.012	0.0146780
950.090	0.0145477
950.168	0.0145569
950.246	0.0147161
950.325	0.0147195
950.403	0.0146405
950.481	0.0145148
950.559	0.0146986
950.637	0.0146502
950.715	0.0147215
950.793	0.0146999
950.871	0.0146325
950.950	0.0147888
951.028	0.0147646
951.106	0.0146853
951.184	0.0146631
951.262	0.0146030
951.340	0.0147842
951.418	0.0146922
951.496	0.0146499
951.575	0.0147330
951.653	0.0146598
951.731	0.0147137
951.809	0.0146677
951.887	0.0147064
951.965	0.0147213
952.043	0.0147310
952.121	0.0148163
952.200	0.0147372
952.278	0.0147373
952.356	0.0145257
952.434	0.0147261
952.512	0.0148940
952.590	0.0147514
952.668	0.0146011
952.746	0.0145924
952.825	0.0147137
952.903	0.0147983
952.981	0.0146094
953.059	0.0147251
953.137	0.0147095
953.215	0.0147742
953.293	0.0147275
953.371	0.0147080
953.450	0.0148479
953.528	0.0147234
953.606	0.0146902
953.684	0.0146379
953.762	0.0148209
953.840	0.0146258
953.918	0.0147401
953.996	0.0146672
954.075	0.0146358
954.153	0.0147121
954.231	0.0148265
954.309	0.0147388
954.387	0.0145737
954.465	0.0146994
954.543	0.0147020
954.621	0.0146409
954.700	0.0147240
954.778	0.0145011
954.856	0.0147589
954.934	0.0146520
955.012	0.0146744
955.090	0.0146060
955.168	0.0147089
955.246	0.0147157
955.325	0.0147794
955.403	0.0147543
955.481	0.0146601
955.559	0.0147671
955.637	0.0146617
955.715	0.0147152
955.793	0.0146781
955.871	0.0147375
955.950	0.0147768
956.028	0.0146735
956.106	0.0146783
956.184	0.0146471
956.262	0.0146370
956.340	0.0147131
956.418	0.0147086
956.496	0.0147649
956.575	0.0146571
956.653	0.0147591
956.731	0.0146531
956.809	0.0145753
956.887	0.0144231
956.965	0.0146429
957.043	0.0148933
957.121	0.0146685
957.200	0.0145790
957.278	0.0145747
957.356	0.0147808
957.434	0.0147497
957.512	0.0145193
957.590	0.0147440
957.668	0.0146864
957.746	0.0147220
957.825	0.0146199
957.903	0.0145450
957.981	0.0145483
958.059	0.0146239
958.137	0.0145876
958.215	0.0147548
958.293	0.0145946
958.371	0.0146456
958.450	0.0146383
958.528	0.0145657
958.606	0.0146786
958.684	0.0147154
958.762	0.0145959
958.840	0.0144708
958.918	0.0145878
958.996	0.0145559
959.075	0.0143827
959.153	0.0146964
959.231	0.0146194
959.309	0.0145195
959.387	0.0145864
959.465	0.0145439
959.543	0.0145968
959.621	0.0146419
959.700	0.0145516
959.778	0.0147131
959.856	0.0145914
959.934	0.0145471
960.012	0.0145461
960.090	0.0146558
960.168	0.0144505
960.246	0.0144019
960.325	0.0145147
960.403	0.0146064
960.481	0.0145037
960.559	0.0145544
960.637	0.0145041
960.715	0.0145157
960.793	0.0144632
960.871	0.0145187
960.950	0.0145358
961.028	0.0145703
961.106	0.0146305
961.184	0.0145129
961.262	0.0144194
961.340	0.0145852
961.418	0.0145181
961.496	0.0145594
961.575	0.0146688
961.653	0.0146440
961.731	0.0146191
961.809	0.0145261
961.887	0.0145085
961.965	0.0145863
962.043	0.0145261
962.121	0.0147050
962.200	0.0146867
962.278	0.0146575
962.356	0.0145356
962.434	0.0146027
962.512	0.0145712
962.590	0.0145713
962.668	0.0146738
962.746	0.0145135
962.825	0.0145886
962.903	0.0144736
962.981	0.0146230
963.059	0.0146542
963.137	0.0146575
963.215	0.0145358
963.293	0.0144881
963.371	0.0147279
963.450	0.0145443
963.528	0.0145110
963.606	0.0145280
963.684	0.0146099
963.762	0.0145841
963.840	0.0145520
963.918	0.0146235
963.996	0.0146146
964.075	0.0145523
964.153	0.0146379
964.231	0.0146124
964.309	0.0147282
964.387	0.0146546
964.465	0.0147113
964.543	0.0146629
964.621	0.0145225
964.700	0.0145988
964.778	0.0147882
964.856	0.0148021
964.934	0.0146402
965.012	0.0144749
965.090	0.0145224
965.168	0.0146562
965.246	0.0146919
965.325	0.0146890
965.403	0.0145916
965.481	0.0145911
965.559	0.0146715
965.637	0.0146379
965.715	0.0147046
965.793	0.0146753
965.871	0.0146703
965.950	0.0146459
966.028	0.0145675
966.106	0.0146708
966.184	0.0146196
966.262	0.0145650
966.340	0.0147482
966.418	0.0146898
966.496	0.0145934
966.575	0.0146974
966.653	0.0145900
966.731	0.0148695
966.809	0.0146488
966.887	0.0146336
966.965	0.0145496
967.043	0.0146787
967.121	0.0148260
967.200	0.0147131
967.278	0.0147223
967.356	0.0146731
967.434	0.0145657
967.512	0.0146224
967.590	0.0147031
967.668	0.0146971
967.746	0.0146497
967.825	0.0145779
967.903	0.0146049
967.981	0.0145876
968.059	0.0146485
968.137	0.0146763
968.215	0.0146729
968.293	0.0147408
968.371	0.0146684
968.450	0.0146488
968.528	0.0146461
968.606	0.0145578
968.684	0.0146591
968.762	0.0145799
968.840	0.0147277
968.918	0.0145386
968.996	0.0145861
969.075	0.0147736
969.153	0.0146444
969.231	0.0147277
969.309	0.0146901
969.387	0.0148663
969.465	0.0147865
969.543	0.0148807
969.621	0.0146175
969.700	0.0145947
969.778	0.0146551
969.856	0.0147067
969.934	0.0146452
970.012	0.0146707
970.090	0.0146772
970.168	0.0146507
970.246	0.0146133
970.325	0.0146078
970.403	0.0145248
970.481	0.0146174
970.559	0.0144225
970.637	0.0146314
970.715	0.0145713
970.793	0.0146615
970.871	0.0144725
970.950	0.0146147
971.028	0.0144568
971.106	0.0146201
971.184	0.0144896
971.262	0.0144595
971.340	0.0144865
971.418	0.0144993
971.496	0.0145998
971.575	0.0145293
971.653	0.0145499
971.731	0.0144714
971.809	0.0145893
971.887	0.0144765
971.965	0.0146692
972.043	0.0145341
972.121	0.0145071
972.200	0.0146306
972.278	0.0144962
972.356	0.0145369
972.434	0.0145006
972.512	0.0144916
972.590	0.0144926
972.668	0.0144171
972.746	0.0143896
972.825	0.0144235
972.903	0.0145856
972.981	0.0145644
973.059	0.0145268
973.137	0.0146181
973.215	0.0145858
973.293	0.0145333
973.371	0.0146799
973.450	0.0145710
973.528	0.0145583
973.606	0.0144985
973.684	0.0146063
973.762	0.0146250
973.840	0.0146239
973.918	0.0145972
973.996	0.0147449
974.075	0.0148289
974.153	0.0146081
974.231	0.0145939
974.309	0.0146702
974.387	0.0146106
974.465	0.0146069
974.543	0.0146142
974.621	0.0146542
974.700	0.0145289
974.778	0.0145570
974.856	0.0145837
974.934	0.0147017
975.012	0.0145770
975.090	0.0145673
975.168	0.0146805
975.246	0.0146149
975.325	0.0146693
975.403	0.0146180
975.481	0.0146631
975.559	0.0146128
975.637	0.0147713
975.715	0.0146671
975.793	0.0146500
975.871	0.0146344
975.950	0.0145763
976.028	0.0147679
976.106	0.0146640
976.184	0.0146431
976.262	0.0147786
976.340	0.0147543
976.418	0.0146559
976.496	0.0147234
976.575	0.0146059
976.653	0.0147599
976.731	0.0147367
976.809	0.0146873
976.887	0.0146030
976.965	0.0146473
977.043	0.0147623
977.121	0.0147423
977.200	0.0146624
977.278	0.0147047
977.356	0.0146906
977.434	0.0145866
977.512	0.0145777
977.590	0.0146027
977.668	0.0146017
977.746	0.0147270
977.825	0.0146200
977.903	0.0145880
977.981	0.0145537
978.059	0.0145839
978.137	0.0145457
978.215	0.0146022
978.293	0.0145946
978.371	0.0145913
978.450	0.0145821
978.528	0.0147090
978.606	0.0145769
978.684	0.0147089
978.762	0.0147048
978.840	0.0146844
978.918	0.0147307
978.996	0.0146033
979.075	0.0147132
979.153	0.0146701
979.231	0.0147388
979.309	0.0147568
979.387	0.0146050
979.465	0.0146432
979.543	0.0146073
979.621	0.0146297
979.700	0.0146078
979.778	0.0145073
979.856	0.0146809
979.934	0.0146276
980.012	0.0147268
980.090	0.0146830
980.168	0.0145555
980.246	0.0144675
980.325	0.0145428
980.403	0.0145824
980.481	0.0145876
980.559	0.0144875
980.637	0.0146075
980.715	0.0147116
980.793	0.0146121
980.871	0.0144969
980.950	0.0145456
981.028	0.0144213
981.106	0.0145299
981.184	0.0145251
981.262	0.0146553
981.340	0.0144812
981.418	0.0145223
981.496	0.0147565
981.575	0.0147127
981.653	0.0146757
981.731	0.0146977
981.809	0.0147739
981.887	0.0147070
981.965	0.0147739
982.043	0.0146494
982.121	0.0146629
982.200	0.0146133
982.278	0.0146617
982.356	0.0145350
982.434	0.0146471
982.512	0.0146223
982.590	0.0147012
982.668	0.0146154
982.746	0.0144839
982.825	0.0147150
982.903	0.0145859
982.981	0.0145783
983.059	0.0146564
983.137	0.0146208
983.215	0.0146529
983.293	0.0146193
983.371	0.0146400
983.450	0.0146844
983.528	0.0147799
983.606	0.0146624
983.684	0.0146931
983.762	0.0145909
983.840	0.0146025
983.918	0.0146613
983.996	0.0146924
984.075	0.0146446
984.153	0.0146687
984.231	0.0148309
984.309	0.0145689
984.387	0.0146629
984.465	0.0146073
984.543	0.0147253
984.621	0.0148003
984.700	0.0147026
984.778	0.0146970
984.856	0.0146104
984.934	0.0147275
985.012	0.0147371
985.090	0.0146961
985.168	0.0146996
985.246	0.0146429
985.325	0.0146284
985.403	0.0147215
985.481	0.0146195
985.559	0.0145100
985.637	0.0147009
985.715	0.0145444
985.793	0.0146516
985.871	0.0145979
985.950	0.0145029
986.028	0.0145566
986.106	0.0146569
986.184	0.0145727
986.262	0.0146681
986.340	0.0145652
986.418	0.0145540
986.496	0.0145646
986.575	0.0145928
986.653	0.0147586
986.731	0.0146716
986.809	0.0146592
986.887	0.0146078
986.965	0.0145177
987.043	0.0145837
987.121	0.0145804
987.200	0.0143565
987.278	0.0145942
987.356	0.0146369
987.434	0.0145913
987.512	0.0146140
987.590	0.0145715
987.668	0.0146492
987.746	0.0145843
987.825	0.0145322
987.903	0.0146114
987.981	0.0145163
988.059	0.0146706
988.137	0.0145496
988.215	0.0146755
988.293	0.0147602
988.371	0.0145903
988.450	0.0146104
988.528	0.0145512
988.606	0.0145529
988.684	0.0146460
988.762	0.0145863
988.840	0.0146450
988.918	0.0147205
988.996	0.0146860
989.075	0.0146474
989.153	0.0145339
989.231	0.0145659
989.309	0.0144710
989.387	0.0146802
989.465	0.0145079
989.543	0.0146928
989.621	0.0146478
989.700	0.0146236
989.778	0.0145724
989.856	0.0146062
989.934	0.0146478
990.012	0.0145428
990.090	0.0144898
990.168	0.0146415
990.246	0.0145625
990.325	0.0147924
990.403	0.0147597
990.481	0.0146912
990.559	0.0146676
990.637	0.0145095
990.715	0.0145657
990.793	0.0145100
990.871	0.0146238
990.950	0.0145988
991.028	0.0145434
991.106	0.0147403
991.184	0.0146840
991.262	0.0145892
991.340	0.0146574
991.418	0.0145560
991.496	0.0147096
991.575	0.0147097
991.653	0.0145438
991.731	0.0145164
991.809	0.0147327
991.887	0.0146541
991.965	0.0145420
992.043	0.0146408
992.121	0.0146083
992.200	0.0146389
992.278	0.0146449
992.356	0.0145616
992.434	0.0146324
992.512	0.0146715
992.590	0.0148105
992.668	0.0146609
992.746	0.0145519
992.825	0.0146966
992.903	0.0146355
992.981	0.0147071
993.059	0.0145175
993.137	0.0144881
993.215	0.0146700
993.293	0.0145760
993.371	0.0145290
993.450	0.0146725
993.528	0.0146261
993.606	0.0145637
993.684	0.0146096
993.762	0.0145292
993.840	0.0145521
993.918	0.0146008
993.996	0.0144622
994.075	0.0146149
994.153	0.0145739
994.231	0.0145024
994.309	0.0146396
994.387	0.0144288
994.465	0.0145313
994.543	0.0144836
994.621	0.0144517
994.700	0.0147482
994.778	0.0144678
994.856	0.0144055
994.934	0.0146153
995.012	0.0144377
995.090	0.0145287
995.168	0.0145173
995.246	0.0147012
995.325	0.0145679
995.403	0.0144403
995.481	0.0144146
995.559	0.0146053
995.637	0.0143955
995.715	0.0143273
995.793	0.0144749
995.871	0.0146046
995.950	0.0145014
996.028	0.0146229
996.106	0.0145821
996.184	0.0145702
996.262	0.0146278
996.340	0.0147358
996.418	0.0145349
996.496	0.0145137
996.575	0.0146760
996.653	0.0145921
996.731	0.0146127
996.809	0.0145126
996.887	0.0145171
996.965	0.0144846
997.043	0.0145891
997.121	0.0146223
997.200	0.0145895
997.278	0.0145518
997.356	0.0144924
997.434	0.0146586
997.512	0.0146767
997.590	0.0145547
997.668	0.0145346
997.746	0.0145658
997.825	0.0146312
997.903	0.0146136
997.981	0.0147162
998.059	0.0146304
998.137	0.0147588
998.215	0.0145060
998.293	0.0147097
998.371	0.0146982
998.450	0.0146339
998.528	0.0145757
998.606	0.0145878
998.684	0.0147739
998.762	0.0147147
998.840	0.0146304
998.918	0.0146401
