05/04/2022	21:42:34	Ver.	4.1	UNKNOWN
Optical Delay	678.996401	Delta X		0.078125	Sweeps	1	Scan Rate	0/0
Coordinates	Axis 1	NaN	Axis 2	NaN	Axis 3	NaN	Axis 4	NaN	Axis 5	NaN	Axis 6	0.000000
TX Power	0.000000	RX Power	0.000000

678.996	0.0143142
679.075	0.0146076
679.153	0.0144685
679.231	0.0142606
679.309	0.0144069
679.387	0.0142860
679.465	0.0141144
679.543	0.0141911
679.621	0.0142170
679.700	0.0142384
679.778	0.0142142
679.856	0.0143795
679.934	0.0144390
680.012	0.0144707
680.090	0.0144482
680.168	0.0144781
680.246	0.0144718
680.325	0.0143261
680.403	0.0143800
680.481	0.0144160
680.559	0.0143957
680.637	0.0144091
680.715	0.0144899
680.793	0.0144733
680.871	0.0145348
680.950	0.0146645
681.028	0.0142847
681.106	0.0142723
681.184	0.0143314
681.262	0.0142254
681.340	0.0141152
681.418	0.0140134
681.496	0.0139544
681.575	0.0140034
681.653	0.0140660
681.731	0.0140993
681.809	0.0143327
681.887	0.0144000
681.965	0.0146566
682.043	0.0147414
682.121	0.0148989
682.200	0.0149540
682.278	0.0150822
682.356	0.0150260
682.434	0.0150303
682.512	0.0149744
682.590	0.0149130
682.668	0.0145952
682.746	0.0144021
682.825	0.0141694
682.903	0.0136946
682.981	0.0134776
683.059	0.0132957
683.137	0.0130224
683.215	0.0128821
683.293	0.0130233
683.371	0.0129552
683.450	0.0132222
683.528	0.0136008
683.606	0.0139593
683.684	0.0144046
683.762	0.0147235
683.840	0.0151332
683.918	0.0153487
683.996	0.0156602
684.075	0.0155907
684.153	0.0155973
684.231	0.0156594
684.309	0.0153018
684.387	0.0151190
684.465	0.0150102
684.543	0.0147298
684.621	0.0143172
684.700	0.0141690
684.778	0.0142448
684.856	0.0140655
684.934	0.0141379
685.012	0.0141786
685.090	0.0140798
685.168	0.0143468
685.246	0.0143010
685.325	0.0145818
685.403	0.0145812
685.481	0.0146025
685.559	0.0145085
685.637	0.0143091
685.715	0.0141907
685.793	0.0140845
685.871	0.0137682
685.950	0.0136214
686.028	0.0134763
686.106	0.0134415
686.184	0.0132637
686.262	0.0131744
686.340	0.0134856
686.418	0.0136451
686.496	0.0137138
686.575	0.0140294
686.653	0.0143160
686.731	0.0145957
686.809	0.0148570
686.887	0.0151239
686.965	0.0154079
687.043	0.0153600
687.121	0.0154859
687.200	0.0153692
687.278	0.0155202
687.356	0.0153840
687.434	0.0149293
687.512	0.0148771
687.590	0.0145905
687.668	0.0141766
687.746	0.0138496
687.825	0.0136594
687.903	0.0134943
687.981	0.0135656
688.059	0.0133888
688.137	0.0134618
688.215	0.0135041
688.293	0.0135255
688.371	0.0135989
688.450	0.0137114
688.528	0.0136682
688.606	0.0138611
688.684	0.0138779
688.762	0.0140403
688.840	0.0139864
688.918	0.0139017
688.996	0.0140344
689.075	0.0139342
689.153	0.0142551
689.231	0.0141132
689.309	0.0141570
689.387	0.0142124
689.465	0.0143929
689.543	0.0143964
689.621	0.0144341
689.700	0.0146531
689.778	0.0146199
689.856	0.0148455
689.934	0.0148441
690.012	0.0149403
690.090	0.0149292
690.168	0.0150222
690.246	0.0149905
690.325	0.0148637
690.403	0.0148080
690.481	0.0147526
690.559	0.0146208
690.637	0.0142469
690.715	0.0143067
690.793	0.0140997
690.871	0.0142802
690.950	0.0140745
691.028	0.0141639
691.106	0.0140720
691.184	0.0140669
691.262	0.0143353
691.340	0.0142669
691.418	0.0142839
691.496	0.0143520
691.575	0.0142393
691.653	0.0144203
691.731	0.0146121
691.809	0.0144784
691.887	0.0142459
691.965	0.0141930
692.043	0.0141371
692.121	0.0142648
692.200	0.0142403
692.278	0.0140772
692.356	0.0142584
692.434	0.0143609
692.512	0.0141362
692.590	0.0142799
692.668	0.0144704
692.746	0.0145647
692.825	0.0144470
692.903	0.0145825
692.981	0.0144341
693.059	0.0145084
693.137	0.0145760
693.215	0.0144252
693.293	0.0143478
693.371	0.0142385
693.450	0.0142833
693.528	0.0142087
693.606	0.0140754
693.684	0.0140034
693.762	0.0140112
693.840	0.0140571
693.918	0.0140974
693.996	0.0143812
694.075	0.0142768
694.153	0.0145457
694.231	0.0147315
694.309	0.0149419
694.387	0.0150986
694.465	0.0150229
694.543	0.0150493
694.621	0.0151044
694.700	0.0150446
694.778	0.0147699
694.856	0.0145258
694.934	0.0143207
695.012	0.0141208
695.090	0.0136909
695.168	0.0136317
695.246	0.0136298
695.325	0.0135204
695.403	0.0135824
695.481	0.0136646
695.559	0.0137478
695.637	0.0139260
695.715	0.0141144
695.793	0.0143553
695.871	0.0144911
695.950	0.0146948
696.028	0.0148257
696.106	0.0148948
696.184	0.0147982
696.262	0.0147482
696.340	0.0146627
696.418	0.0146039
696.496	0.0144384
696.575	0.0144230
696.653	0.0141842
696.731	0.0141924
696.809	0.0140509
696.887	0.0141651
696.965	0.0143230
697.043	0.0144099
697.121	0.0144605
697.200	0.0146689
697.278	0.0146495
697.356	0.0145428
697.434	0.0147073
697.512	0.0145928
697.590	0.0145846
697.668	0.0145018
697.746	0.0145718
697.825	0.0142957
697.903	0.0143079
697.981	0.0142638
698.059	0.0140471
698.137	0.0140475
698.215	0.0140672
698.293	0.0141595
698.371	0.0142883
698.450	0.0144915
698.528	0.0144431
698.606	0.0145403
698.684	0.0149237
698.762	0.0150226
698.840	0.0149016
698.918	0.0150121
698.996	0.0150395
699.075	0.0150237
699.153	0.0148565
699.231	0.0146479
699.309	0.0145058
699.387	0.0143922
699.465	0.0141835
699.543	0.0141006
699.621	0.0138956
699.700	0.0137932
699.778	0.0137974
699.856	0.0137911
699.934	0.0135896
700.012	0.0136681
700.090	0.0136681
700.168	0.0137161
700.246	0.0139884
700.325	0.0138627
700.403	0.0141952
700.481	0.0142690
700.559	0.0142509
700.637	0.0143655
700.715	0.0144357
700.793	0.0143666
700.871	0.0144073
700.950	0.0145438
701.028	0.0147650
701.106	0.0147641
701.184	0.0147823
701.262	0.0149374
701.340	0.0148710
701.418	0.0150069
701.496	0.0151382
701.575	0.0152621
701.653	0.0150932
701.731	0.0150686
701.809	0.0149958
701.887	0.0149107
701.965	0.0149062
702.043	0.0148884
702.121	0.0146233
702.200	0.0144500
702.278	0.0143770
702.356	0.0143542
702.434	0.0142310
702.512	0.0138986
702.590	0.0137169
702.668	0.0137366
702.746	0.0137062
702.825	0.0137235
702.903	0.0136278
702.981	0.0137349
703.059	0.0138255
703.137	0.0137074
703.215	0.0139332
703.293	0.0139947
703.371	0.0142213
703.450	0.0143020
703.528	0.0143830
703.606	0.0145379
703.684	0.0144424
703.762	0.0146325
703.840	0.0146899
703.918	0.0147149
703.996	0.0147703
704.075	0.0147655
704.153	0.0145553
704.231	0.0145303
704.309	0.0145274
704.387	0.0145400
704.465	0.0145528
704.543	0.0144679
704.621	0.0145095
704.700	0.0145108
704.778	0.0145146
704.856	0.0144882
704.934	0.0143732
705.012	0.0142239
705.090	0.0142566
705.168	0.0142383
705.246	0.0141295
705.325	0.0140744
705.403	0.0142632
705.481	0.0142950
705.559	0.0142524
705.637	0.0143050
705.715	0.0144113
705.793	0.0144518
705.871	0.0145589
705.950	0.0146658
706.028	0.0145998
706.106	0.0145310
706.184	0.0146027
706.262	0.0145686
706.340	0.0144370
706.418	0.0145802
706.496	0.0145441
706.575	0.0144417
706.653	0.0144199
706.731	0.0142588
706.809	0.0141787
706.887	0.0141747
706.965	0.0142197
707.043	0.0140712
707.121	0.0139088
707.200	0.0138719
707.278	0.0138401
707.356	0.0136449
707.434	0.0138472
707.512	0.0137949
707.590	0.0138158
707.668	0.0137284
707.746	0.0139787
707.825	0.0141087
707.903	0.0140342
707.981	0.0141810
708.059	0.0143169
708.137	0.0143919
708.215	0.0145517
708.293	0.0146181
708.371	0.0146572
708.450	0.0146852
708.528	0.0146107
708.606	0.0147629
708.684	0.0147423
708.762	0.0148235
708.840	0.0146775
708.918	0.0147325
708.996	0.0145995
709.075	0.0145369
709.153	0.0145285
709.231	0.0145365
709.309	0.0144962
709.387	0.0144287
709.465	0.0143145
709.543	0.0143111
709.621	0.0141500
709.700	0.0141140
709.778	0.0140304
709.856	0.0139900
709.934	0.0140173
710.012	0.0137510
710.090	0.0139008
710.168	0.0138861
710.246	0.0138298
710.325	0.0138786
710.403	0.0139882
710.481	0.0138706
710.559	0.0139862
710.637	0.0141443
710.715	0.0141302
710.793	0.0142754
710.871	0.0143193
710.950	0.0143608
711.028	0.0145238
711.106	0.0143491
711.184	0.0144012
711.262	0.0144287
711.340	0.0144881
711.418	0.0145168
711.496	0.0144245
711.575	0.0144540
711.653	0.0145826
711.731	0.0145515
711.809	0.0144308
711.887	0.0145061
711.965	0.0145061
712.043	0.0145334
712.121	0.0145039
712.200	0.0144625
712.278	0.0143999
712.356	0.0142813
712.434	0.0143504
712.512	0.0142576
712.590	0.0142475
712.668	0.0143569
712.746	0.0142249
712.825	0.0142702
712.903	0.0143736
712.981	0.0143243
713.059	0.0142715
713.137	0.0144829
713.215	0.0144633
713.293	0.0144033
713.371	0.0144588
713.450	0.0144579
713.528	0.0143646
713.606	0.0142680
713.684	0.0143000
713.762	0.0143753
713.840	0.0142959
713.918	0.0140831
713.996	0.0140681
714.075	0.0139817
714.153	0.0139512
714.231	0.0138550
714.309	0.0140974
714.387	0.0140719
714.465	0.0140700
714.543	0.0141952
714.621	0.0141037
714.700	0.0142157
714.778	0.0143259
714.856	0.0143449
714.934	0.0145298
715.012	0.0145662
715.090	0.0146952
715.168	0.0147018
715.246	0.0147282
715.325	0.0146980
715.403	0.0147290
715.481	0.0148196
715.559	0.0146447
715.637	0.0145060
715.715	0.0143030
715.793	0.0142621
715.871	0.0141597
715.950	0.0141888
716.028	0.0142207
716.106	0.0140607
716.184	0.0140228
716.262	0.0140369
716.340	0.0140520
716.418	0.0140778
716.496	0.0142023
716.575	0.0140253
716.653	0.0140200
716.731	0.0141213
716.809	0.0140285
716.887	0.0143800
716.965	0.0142182
717.043	0.0140281
717.121	0.0141946
717.200	0.0142489
717.278	0.0142808
717.356	0.0142678
717.434	0.0142641
717.512	0.0142998
717.590	0.0144971
717.668	0.0144644
717.746	0.0145730
717.825	0.0144372
717.903	0.0145796
717.981	0.0145626
718.059	0.0144815
718.137	0.0146418
718.215	0.0145448
718.293	0.0143617
718.371	0.0144333
718.450	0.0143924
718.528	0.0142435
718.606	0.0140488
718.684	0.0141409
718.762	0.0139729
718.840	0.0139785
718.918	0.0139557
718.996	0.0139819
719.075	0.0139455
719.153	0.0139394
719.231	0.0139864
719.309	0.0140983
719.387	0.0141572
719.465	0.0141364
719.543	0.0142462
719.621	0.0142611
719.700	0.0142595
719.778	0.0141991
719.856	0.0143102
719.934	0.0143479
720.012	0.0144518
720.090	0.0145300
720.168	0.0144005
720.246	0.0144114
720.325	0.0144923
720.403	0.0145454
720.481	0.0146487
720.559	0.0142829
720.637	0.0143771
720.715	0.0144147
720.793	0.0144280
720.871	0.0141656
720.950	0.0141995
721.028	0.0141601
721.106	0.0141917
721.184	0.0139371
721.262	0.0139359
721.340	0.0138828
721.418	0.0139990
721.496	0.0140339
721.575	0.0139267
721.653	0.0140041
721.731	0.0140224
721.809	0.0140850
721.887	0.0142110
721.965	0.0143833
722.043	0.0142904
722.121	0.0145081
722.200	0.0146255
722.278	0.0147398
722.356	0.0147747
722.434	0.0147356
722.512	0.0147958
722.590	0.0149082
722.668	0.0148616
722.746	0.0147688
722.825	0.0147963
722.903	0.0148275
722.981	0.0147741
723.059	0.0146114
723.137	0.0146781
723.215	0.0144192
723.293	0.0145361
723.371	0.0144753
723.450	0.0142796
723.528	0.0142513
723.606	0.0142792
723.684	0.0141309
723.762	0.0141436
723.840	0.0140505
723.918	0.0140524
723.996	0.0139379
724.075	0.0139833
724.153	0.0141074
724.231	0.0140921
724.309	0.0140423
724.387	0.0140305
724.465	0.0139130
724.543	0.0143226
724.621	0.0144420
724.700	0.0143884
724.778	0.0144910
724.856	0.0145595
724.934	0.0145117
725.012	0.0145161
725.090	0.0145393
725.168	0.0146960
725.246	0.0147787
725.325	0.0146273
725.403	0.0146738
725.481	0.0146066
725.559	0.0146072
725.637	0.0147071
725.715	0.0147042
725.793	0.0145401
725.871	0.0145521
725.950	0.0145623
726.028	0.0145119
726.106	0.0142535
726.184	0.0143082
726.262	0.0142719
726.340	0.0142143
726.418	0.0141832
726.496	0.0141586
726.575	0.0140311
726.653	0.0141068
726.731	0.0141653
726.809	0.0140975
726.887	0.0142942
726.965	0.0142170
727.043	0.0143072
727.121	0.0143832
727.200	0.0145084
727.278	0.0145448
727.356	0.0143268
727.434	0.0145865
727.512	0.0144966
727.590	0.0144188
727.668	0.0144648
727.746	0.0143800
727.825	0.0143281
727.903	0.0143641
727.981	0.0142915
728.059	0.0143353
728.137	0.0143595
728.215	0.0143217
728.293	0.0141881
728.371	0.0141359
728.450	0.0140849
728.528	0.0143536
728.606	0.0142143
728.684	0.0142212
728.762	0.0143282
728.840	0.0142545
728.918	0.0143531
728.996	0.0142921
729.075	0.0143099
729.153	0.0141223
729.231	0.0142190
729.309	0.0143419
729.387	0.0141855
729.465	0.0143495
729.543	0.0143501
729.621	0.0143721
729.700	0.0144113
729.778	0.0144440
729.856	0.0144991
729.934	0.0145560
730.012	0.0147665
730.090	0.0145866
730.168	0.0146305
730.246	0.0145921
730.325	0.0146523
730.403	0.0145834
730.481	0.0143520
730.559	0.0144067
730.637	0.0145428
730.715	0.0144434
730.793	0.0145182
730.871	0.0142930
730.950	0.0141954
731.028	0.0143076
731.106	0.0143390
731.184	0.0142081
731.262	0.0143926
731.340	0.0143606
731.418	0.0142646
731.496	0.0142786
731.575	0.0143909
731.653	0.0140974
731.731	0.0142544
731.809	0.0142847
731.887	0.0144027
731.965	0.0141747
732.043	0.0141791
732.121	0.0142390
732.200	0.0142740
732.278	0.0143269
732.356	0.0143187
732.434	0.0144287
732.512	0.0145319
732.590	0.0145475
732.668	0.0144319
732.746	0.0145920
732.825	0.0145055
732.903	0.0146774
732.981	0.0146843
733.059	0.0146096
733.137	0.0146272
733.215	0.0145543
733.293	0.0147895
733.371	0.0147356
733.450	0.0145670
733.528	0.0145374
733.606	0.0144034
733.684	0.0144162
733.762	0.0145206
733.840	0.0142704
733.918	0.0141286
733.996	0.0142552
734.075	0.0142647
734.153	0.0141700
734.231	0.0139949
734.309	0.0141479
734.387	0.0141341
734.465	0.0141031
734.543	0.0141939
734.621	0.0141457
734.700	0.0142444
734.778	0.0142281
734.856	0.0143031
734.934	0.0143507
735.012	0.0143544
735.090	0.0144048
735.168	0.0143638
735.246	0.0144361
735.325	0.0142939
735.403	0.0142581
735.481	0.0143476
735.559	0.0144201
735.637	0.0143649
735.715	0.0143534
735.793	0.0143694
735.871	0.0142654
735.950	0.0143075
736.028	0.0143202
736.106	0.0142574
736.184	0.0142227
736.262	0.0143056
736.340	0.0141763
736.418	0.0142300
736.496	0.0142522
736.575	0.0141247
736.653	0.0142244
736.731	0.0142372
736.809	0.0141302
736.887	0.0141286
736.965	0.0142698
737.043	0.0143105
737.121	0.0142645
737.200	0.0142925
737.278	0.0143194
737.356	0.0143952
737.434	0.0143644
737.512	0.0144536
737.590	0.0144397
737.668	0.0144802
737.746	0.0144453
737.825	0.0145213
737.903	0.0142558
737.981	0.0142920
738.059	0.0144750
738.137	0.0143007
738.215	0.0141734
738.293	0.0143568
738.371	0.0142216
738.450	0.0141068
738.528	0.0141923
738.606	0.0141161
738.684	0.0141054
738.762	0.0139901
738.840	0.0140598
738.918	0.0141045
738.996	0.0143014
739.075	0.0142156
739.153	0.0142212
739.231	0.0142062
739.309	0.0143451
739.387	0.0140486
739.465	0.0141833
739.543	0.0142514
739.621	0.0141647
739.700	0.0142194
739.778	0.0142731
739.856	0.0142725
739.934	0.0141814
740.012	0.0142931
740.090	0.0144724
740.168	0.0144421
740.246	0.0145184
740.325	0.0143523
740.403	0.0144766
740.481	0.0147538
740.559	0.0145406
740.637	0.0146345
740.715	0.0145212
740.793	0.0146542
740.871	0.0144564
740.950	0.0144853
741.028	0.0145307
741.106	0.0145462
741.184	0.0144452
741.262	0.0145274
741.340	0.0143750
741.418	0.0143750
741.496	0.0143935
741.575	0.0142638
741.653	0.0143420
741.731	0.0143315
741.809	0.0144933
741.887	0.0142133
741.965	0.0141808
742.043	0.0142989
742.121	0.0142495
742.200	0.0143304
742.278	0.0144141
742.356	0.0144562
742.434	0.0144257
742.512	0.0144002
742.590	0.0143655
742.668	0.0143482
742.746	0.0144395
742.825	0.0143182
742.903	0.0144101
742.981	0.0144489
743.059	0.0144762
743.137	0.0144942
743.215	0.0145857
743.293	0.0144306
743.371	0.0143869
743.450	0.0145124
743.528	0.0144867
743.606	0.0143552
743.684	0.0144741
743.762	0.0143771
743.840	0.0144507
743.918	0.0143810
743.996	0.0144081
744.075	0.0142731
744.153	0.0144437
744.231	0.0145197
744.309	0.0144681
744.387	0.0144292
744.465	0.0143017
744.543	0.0145059
744.621	0.0142872
744.700	0.0142825
744.778	0.0142862
744.856	0.0143639
744.934	0.0143689
745.012	0.0142802
745.090	0.0144163
745.168	0.0142919
745.246	0.0144414
745.325	0.0144759
745.403	0.0144284
745.481	0.0144794
745.559	0.0144977
745.637	0.0145110
745.715	0.0144264
745.793	0.0145902
745.871	0.0146323
745.950	0.0145713
746.028	0.0143432
746.106	0.0143622
746.184	0.0144550
746.262	0.0145276
746.340	0.0143964
746.418	0.0144239
746.496	0.0144150
746.575	0.0144099
746.653	0.0141782
746.731	0.0142506
746.809	0.0143372
746.887	0.0144343
746.965	0.0143054
747.043	0.0144048
747.121	0.0144051
747.200	0.0144261
747.278	0.0144009
747.356	0.0142844
747.434	0.0143504
747.512	0.0145338
747.590	0.0144721
747.668	0.0145266
747.746	0.0145148
747.825	0.0144308
747.903	0.0144905
747.981	0.0145016
748.059	0.0144825
748.137	0.0144081
748.215	0.0144923
748.293	0.0146165
748.371	0.0144986
748.450	0.0143635
748.528	0.0144578
748.606	0.0144969
748.684	0.0145018
748.762	0.0145274
748.840	0.0144234
748.918	0.0144190
748.996	0.0142755
749.075	0.0142381
749.153	0.0141586
749.231	0.0141809
749.309	0.0142265
749.387	0.0141917
749.465	0.0141220
749.543	0.0141779
749.621	0.0143609
749.700	0.0143553
749.778	0.0143233
749.856	0.0142552
749.934	0.0143808
750.012	0.0146031
750.090	0.0142144
750.168	0.0143930
750.246	0.0144245
750.325	0.0144910
750.403	0.0144063
750.481	0.0143476
750.559	0.0145580
750.637	0.0144939
750.715	0.0143890
750.793	0.0144758
750.871	0.0145053
750.950	0.0144662
751.028	0.0144565
751.106	0.0143726
751.184	0.0144432
751.262	0.0143392
751.340	0.0144342
751.418	0.0144263
751.496	0.0143228
751.575	0.0142511
751.653	0.0141735
751.731	0.0142002
751.809	0.0141674
751.887	0.0142562
751.965	0.0141941
752.043	0.0141991
752.121	0.0141514
752.200	0.0142208
752.278	0.0142799
752.356	0.0141744
752.434	0.0142839
752.512	0.0144002
752.590	0.0143169
752.668	0.0141950
752.746	0.0143340
752.825	0.0143230
752.903	0.0141334
752.981	0.0142356
753.059	0.0142968
753.137	0.0142550
753.215	0.0142485
753.293	0.0142985
753.371	0.0143856
753.450	0.0143343
753.528	0.0143292
753.606	0.0143764
753.684	0.0143505
753.762	0.0143027
753.840	0.0142856
753.918	0.0143049
753.996	0.0143179
754.075	0.0142447
754.153	0.0143354
754.231	0.0143650
754.309	0.0143147
754.387	0.0142405
754.465	0.0142637
754.543	0.0143425
754.621	0.0143179
754.700	0.0144175
754.778	0.0142545
754.856	0.0143472
754.934	0.0143710
755.012	0.0142323
755.090	0.0143456
755.168	0.0144068
755.246	0.0142721
755.325	0.0144180
755.403	0.0143791
755.481	0.0143575
755.559	0.0144787
755.637	0.0144073
755.715	0.0143884
755.793	0.0143922
755.871	0.0143493
755.950	0.0143810
756.028	0.0145085
756.106	0.0143262
756.184	0.0144177
756.262	0.0142720
756.340	0.0142973
756.418	0.0143801
756.496	0.0144856
756.575	0.0144164
756.653	0.0143343
756.731	0.0143472
756.809	0.0143335
756.887	0.0142611
756.965	0.0144459
757.043	0.0142818
757.121	0.0142787
757.200	0.0142350
757.278	0.0142166
757.356	0.0142233
757.434	0.0143258
757.512	0.0141946
757.590	0.0145457
757.668	0.0143533
757.746	0.0144449
757.825	0.0143633
757.903	0.0143388
757.981	0.0143230
758.059	0.0143827
758.137	0.0143949
758.215	0.0143193
758.293	0.0143457
758.371	0.0144021
758.450	0.0144343
758.528	0.0144290
758.606	0.0144824
758.684	0.0144691
758.762	0.0143591
758.840	0.0143700
758.918	0.0144163
758.996	0.0142871
759.075	0.0143854
759.153	0.0144205
759.231	0.0142039
759.309	0.0142918
759.387	0.0143893
759.465	0.0142464
759.543	0.0143814
759.621	0.0143981
759.700	0.0142854
759.778	0.0142040
759.856	0.0142815
759.934	0.0142697
760.012	0.0142258
760.090	0.0142995
760.168	0.0144225
760.246	0.0144388
760.325	0.0144263
760.403	0.0141714
760.481	0.0142892
760.559	0.0144273
760.637	0.0144043
760.715	0.0143375
760.793	0.0143877
760.871	0.0143109
760.950	0.0143713
761.028	0.0142661
761.106	0.0143994
761.184	0.0143979
761.262	0.0143916
761.340	0.0143321
761.418	0.0143827
761.496	0.0144661
761.575	0.0143442
761.653	0.0143349
761.731	0.0143069
761.809	0.0143673
761.887	0.0143563
761.965	0.0143031
762.043	0.0144844
762.121	0.0142801
762.200	0.0144560
762.278	0.0142914
762.356	0.0143620
762.434	0.0144190
762.512	0.0142999
762.590	0.0143135
762.668	0.0143368
762.746	0.0143095
762.825	0.0144341
762.903	0.0144359
762.981	0.0144173
763.059	0.0144716
763.137	0.0144778
763.215	0.0145322
763.293	0.0144732
763.371	0.0144408
763.450	0.0143701
763.528	0.0145483
763.606	0.0145317
763.684	0.0144338
763.762	0.0143396
763.840	0.0143649
763.918	0.0145668
763.996	0.0146390
764.075	0.0144015
764.153	0.0142886
764.231	0.0143776
764.309	0.0144430
764.387	0.0144793
764.465	0.0144741
764.543	0.0144846
764.621	0.0143136
764.700	0.0143650
764.778	0.0141837
764.856	0.0144272
764.934	0.0144510
765.012	0.0142822
765.090	0.0142824
765.168	0.0142955
765.246	0.0142699
765.325	0.0142001
765.403	0.0143021
765.481	0.0143385
765.559	0.0144724
765.637	0.0144548
765.715	0.0143334
765.793	0.0144249
765.871	0.0144866
765.950	0.0144002
766.028	0.0144067
766.106	0.0144839
766.184	0.0143741
766.262	0.0145593
766.340	0.0145171
766.418	0.0143231
766.496	0.0145116
766.575	0.0143631
766.653	0.0144605
766.731	0.0144249
766.809	0.0144533
766.887	0.0144255
766.965	0.0144160
767.043	0.0143173
767.121	0.0143758
767.200	0.0142814
767.278	0.0144872
767.356	0.0143552
767.434	0.0143708
767.512	0.0144207
767.590	0.0143490
767.668	0.0144935
767.746	0.0142784
767.825	0.0143221
767.903	0.0142611
767.981	0.0144336
768.059	0.0143948
768.137	0.0143350
768.215	0.0142396
768.293	0.0144657
768.371	0.0143105
768.450	0.0144745
768.528	0.0143997
768.606	0.0143782
768.684	0.0144588
768.762	0.0144139
768.840	0.0144731
768.918	0.0143762
768.996	0.0144678
769.075	0.0145187
769.153	0.0144598
769.231	0.0145411
769.309	0.0144737
769.387	0.0144562
769.465	0.0145182
769.543	0.0145366
769.621	0.0144678
769.700	0.0145061
769.778	0.0144308
769.856	0.0143060
769.934	0.0144355
770.012	0.0144783
770.090	0.0143582
770.168	0.0144659
770.246	0.0143909
770.325	0.0143935
770.403	0.0144003
770.481	0.0143359
770.559	0.0145052
770.637	0.0143253
770.715	0.0144409
770.793	0.0144745
770.871	0.0144379
770.950	0.0143343
771.028	0.0144015
771.106	0.0143572
771.184	0.0142960
771.262	0.0144299
771.340	0.0143114
771.418	0.0144160
771.496	0.0143064
771.575	0.0143027
771.653	0.0143605
771.731	0.0144636
771.809	0.0141918
771.887	0.0142783
771.965	0.0143549
772.043	0.0142048
772.121	0.0143076
772.200	0.0143472
772.278	0.0144180
772.356	0.0144112
772.434	0.0142845
772.512	0.0142189
772.590	0.0144685
772.668	0.0142750
772.746	0.0143157
772.825	0.0143241
772.903	0.0143701
772.981	0.0142288
773.059	0.0142377
773.137	0.0142497
773.215	0.0142739
773.293	0.0143919
773.371	0.0144501
773.450	0.0143263
773.528	0.0144562
773.606	0.0144323
773.684	0.0143653
773.762	0.0141611
773.840	0.0143553
773.918	0.0142796
773.996	0.0142484
774.075	0.0142891
774.153	0.0143349
774.231	0.0143418
774.309	0.0144201
774.387	0.0143192
774.465	0.0142918
774.543	0.0143871
774.621	0.0142773
774.700	0.0143887
774.778	0.0143774
774.856	0.0144463
774.934	0.0143802
775.012	0.0142808
775.090	0.0143064
775.168	0.0144460
775.246	0.0145548
775.325	0.0144118
775.403	0.0143771
775.481	0.0143296
775.559	0.0143681
775.637	0.0144157
775.715	0.0144913
775.793	0.0143819
775.871	0.0142180
775.950	0.0142411
776.028	0.0142424
776.106	0.0144659
776.184	0.0143813
776.262	0.0143198
776.340	0.0143456
776.418	0.0144376
776.496	0.0144641
776.575	0.0143938
776.653	0.0144367
776.731	0.0143647
776.809	0.0143459
776.887	0.0143742
776.965	0.0144456
777.043	0.0144723
777.121	0.0144249
777.200	0.0143697
777.278	0.0143443
777.356	0.0143676
777.434	0.0143121
777.512	0.0144258
777.590	0.0141788
777.668	0.0142003
777.746	0.0143057
777.825	0.0142810
777.903	0.0143929
777.981	0.0144840
778.059	0.0143582
778.137	0.0144141
778.215	0.0141862
778.293	0.0141861
778.371	0.0144028
778.450	0.0144041
778.528	0.0143088
778.606	0.0144598
778.684	0.0142734
778.762	0.0142672
778.840	0.0142727
778.918	0.0142751
778.996	0.0143163
779.075	0.0143976
779.153	0.0143176
779.231	0.0142036
779.309	0.0143667
779.387	0.0142080
779.465	0.0143096
779.543	0.0142899
779.621	0.0142088
779.700	0.0142231
779.778	0.0144491
779.856	0.0142734
779.934	0.0143413
780.012	0.0143403
780.090	0.0143040
780.168	0.0142754
780.246	0.0143636
780.325	0.0143204
780.403	0.0143081
780.481	0.0143208
780.559	0.0144389
780.637	0.0142822
780.715	0.0143945
780.793	0.0141173
780.871	0.0142695
780.950	0.0143297
781.028	0.0142129
781.106	0.0141775
781.184	0.0142971
781.262	0.0142535
781.340	0.0142847
781.418	0.0143079
781.496	0.0141676
781.575	0.0143111
781.653	0.0142375
781.731	0.0143146
781.809	0.0144659
781.887	0.0143186
781.965	0.0142532
782.043	0.0140663
782.121	0.0141908
782.200	0.0142426
782.278	0.0141216
782.356	0.0143000
782.434	0.0142525
782.512	0.0141998
782.590	0.0142429
782.668	0.0142962
782.746	0.0143482
782.825	0.0143765
782.903	0.0143661
782.981	0.0143302
783.059	0.0144256
783.137	0.0144615
783.215	0.0144521
783.293	0.0145119
783.371	0.0144214
783.450	0.0144106
783.528	0.0143531
783.606	0.0143829
783.684	0.0144922
783.762	0.0142605
783.840	0.0142571
783.918	0.0143150
783.996	0.0142273
784.075	0.0142303
784.153	0.0141422
784.231	0.0142714
784.309	0.0142655
784.387	0.0144274
784.465	0.0141718
784.543	0.0141331
784.621	0.0142987
784.700	0.0142720
784.778	0.0142324
784.856	0.0142399
784.934	0.0142076
785.012	0.0142017
785.090	0.0141802
785.168	0.0143021
785.246	0.0142934
785.325	0.0142655
785.403	0.0144805
785.481	0.0144731
785.559	0.0143686
785.637	0.0143056
785.715	0.0142886
785.793	0.0143710
785.871	0.0143318
785.950	0.0142771
786.028	0.0143215
786.106	0.0144795
786.184	0.0144279
786.262	0.0142075
786.340	0.0144810
786.418	0.0144300
786.496	0.0143047
786.575	0.0143781
786.653	0.0142410
786.731	0.0143002
786.809	0.0143879
786.887	0.0142722
786.965	0.0142179
787.043	0.0144596
787.121	0.0143225
787.200	0.0142944
787.278	0.0142904
787.356	0.0143088
787.434	0.0144057
787.512	0.0143117
787.590	0.0142875
787.668	0.0144025
787.746	0.0144321
787.825	0.0143032
787.903	0.0143936
787.981	0.0142532
788.059	0.0144177
788.137	0.0143787
788.215	0.0143159
788.293	0.0144423
788.371	0.0143005
788.450	0.0143550
788.528	0.0142909
788.606	0.0143517
788.684	0.0142493
788.762	0.0143162
788.840	0.0144507
788.918	0.0143545
788.996	0.0142237
789.075	0.0142657
789.153	0.0142157
789.231	0.0143315
789.309	0.0144402
789.387	0.0143803
789.465	0.0143956
789.543	0.0144106
789.621	0.0142505
789.700	0.0143840
789.778	0.0144443
789.856	0.0142216
789.934	0.0144064
790.012	0.0144144
790.090	0.0143156
790.168	0.0143134
790.246	0.0143920
790.325	0.0144360
790.403	0.0144594
790.481	0.0142603
790.559	0.0143145
790.637	0.0143371
790.715	0.0145108
790.793	0.0144992
790.871	0.0143517
790.950	0.0144318
791.028	0.0143432
791.106	0.0142635
791.184	0.0143769
791.262	0.0143534
791.340	0.0142690
791.418	0.0142679
791.496	0.0142264
791.575	0.0141504
791.653	0.0143217
791.731	0.0143658
791.809	0.0143103
791.887	0.0143298
791.965	0.0144232
792.043	0.0143313
792.121	0.0142795
792.200	0.0144385
792.278	0.0144769
792.356	0.0143130
792.434	0.0143459
792.512	0.0144494
792.590	0.0145382
792.668	0.0145374
792.746	0.0145765
792.825	0.0144893
792.903	0.0144454
792.981	0.0144845
793.059	0.0144611
793.137	0.0144528
793.215	0.0144633
793.293	0.0143531
793.371	0.0142921
793.450	0.0144006
793.528	0.0143983
793.606	0.0143707
793.684	0.0142773
793.762	0.0144368
793.840	0.0143813
793.918	0.0143931
793.996	0.0143081
794.075	0.0143569
794.153	0.0144193
794.231	0.0143275
794.309	0.0141764
794.387	0.0141599
794.465	0.0142010
794.543	0.0142400
794.621	0.0143763
794.700	0.0142919
794.778	0.0141762
794.856	0.0143856
794.934	0.0144312
795.012	0.0142943
795.090	0.0144652
795.168	0.0142974
795.246	0.0143118
795.325	0.0142398
795.403	0.0143306
795.481	0.0141324
795.559	0.0143693
795.637	0.0143227
795.715	0.0143437
795.793	0.0142397
795.871	0.0140720
795.950	0.0141858
796.028	0.0142756
796.106	0.0142502
796.184	0.0142606
796.262	0.0142227
796.340	0.0143613
796.418	0.0142431
796.496	0.0143130
796.575	0.0143503
796.653	0.0142948
796.731	0.0142042
796.809	0.0143974
796.887	0.0141980
796.965	0.0143227
797.043	0.0143716
797.121	0.0142834
797.200	0.0142629
797.278	0.0144338
797.356	0.0144911
797.434	0.0141348
797.512	0.0142143
797.590	0.0143340
797.668	0.0144068
797.746	0.0143512
797.825	0.0143481
797.903	0.0143325
797.981	0.0144024
798.059	0.0144798
798.137	0.0142546
798.215	0.0142342
798.293	0.0142908
798.371	0.0143610
798.450	0.0142818
798.528	0.0142584
798.606	0.0142316
798.684	0.0141962
798.762	0.0142022
798.840	0.0143420
798.918	0.0142536
798.996	0.0141128
799.075	0.0140932
799.153	0.0141998
799.231	0.0141131
799.309	0.0142403
799.387	0.0141996
799.465	0.0142036
799.543	0.0141706
799.621	0.0142768
799.700	0.0142310
799.778	0.0141817
799.856	0.0141727
799.934	0.0143079
800.012	0.0142110
800.090	0.0144159
800.168	0.0142275
800.246	0.0144547
800.325	0.0142286
800.403	0.0142288
800.481	0.0143214
800.559	0.0141841
800.637	0.0142760
800.715	0.0142453
800.793	0.0142213
800.871	0.0142912
800.950	0.0141943
801.028	0.0142448
801.106	0.0142374
801.184	0.0142417
801.262	0.0143061
801.340	0.0144365
801.418	0.0142741
801.496	0.0142978
801.575	0.0142798
801.653	0.0144150
801.731	0.0142528
801.809	0.0143323
801.887	0.0143166
801.965	0.0143017
802.043	0.0142667
802.121	0.0142361
802.200	0.0142667
802.278	0.0143007
802.356	0.0142950
802.434	0.0142660
802.512	0.0141402
802.590	0.0142760
802.668	0.0143259
802.746	0.0143224
802.825	0.0142479
802.903	0.0143621
802.981	0.0143203
803.059	0.0143404
803.137	0.0141503
803.215	0.0141904
803.293	0.0143967
803.371	0.0142757
803.450	0.0142939
803.528	0.0142410
803.606	0.0142735
803.684	0.0142011
803.762	0.0142004
803.840	0.0141930
803.918	0.0142127
803.996	0.0143196
804.075	0.0142702
804.153	0.0140762
804.231	0.0140968
804.309	0.0143355
804.387	0.0142930
804.465	0.0142825
804.543	0.0143016
804.621	0.0142166
804.700	0.0142305
804.778	0.0141724
804.856	0.0142233
804.934	0.0142873
805.012	0.0142923
805.090	0.0143091
805.168	0.0143187
805.246	0.0141753
805.325	0.0141576
805.403	0.0141790
805.481	0.0141426
805.559	0.0141547
805.637	0.0143151
805.715	0.0143225
805.793	0.0142464
805.871	0.0142973
805.950	0.0143044
806.028	0.0142500
806.106	0.0142183
806.184	0.0142383
806.262	0.0142326
806.340	0.0142947
806.418	0.0142538
806.496	0.0143894
806.575	0.0143346
806.653	0.0141796
806.731	0.0141664
806.809	0.0142856
806.887	0.0142603
806.965	0.0141306
807.043	0.0143219
807.121	0.0142253
807.200	0.0142902
807.278	0.0143768
807.356	0.0142753
807.434	0.0142077
807.512	0.0143893
807.590	0.0143128
807.668	0.0143233
807.746	0.0144395
807.825	0.0143697
807.903	0.0142481
807.981	0.0142075
808.059	0.0142770
808.137	0.0142831
808.215	0.0143535
808.293	0.0144479
808.371	0.0142908
808.450	0.0143197
808.528	0.0144015
808.606	0.0144442
808.684	0.0144040
808.762	0.0143021
808.840	0.0142595
808.918	0.0142740
808.996	0.0143983
809.075	0.0145287
809.153	0.0144461
809.231	0.0143669
809.309	0.0143752
809.387	0.0144145
809.465	0.0144745
809.543	0.0144853
809.621	0.0142924
809.700	0.0142799
809.778	0.0143577
809.856	0.0143314
809.934	0.0144048
810.012	0.0143880
810.090	0.0143224
810.168	0.0143520
810.246	0.0143976
810.325	0.0143568
810.403	0.0144568
810.481	0.0143385
810.559	0.0143745
810.637	0.0143033
810.715	0.0143345
810.793	0.0143104
810.871	0.0142633
810.950	0.0143510
811.028	0.0144106
811.106	0.0143320
811.184	0.0145098
811.262	0.0145086
811.340	0.0143349
811.418	0.0144723
811.496	0.0145207
811.575	0.0144386
811.653	0.0144080
811.731	0.0143806
811.809	0.0143932
811.887	0.0144946
811.965	0.0142435
812.043	0.0143578
812.121	0.0143832
812.200	0.0143169
812.278	0.0142450
812.356	0.0143613
812.434	0.0142580
812.512	0.0141656
812.590	0.0142138
812.668	0.0143096
812.746	0.0142813
812.825	0.0142747
812.903	0.0143858
812.981	0.0143640
813.059	0.0142175
813.137	0.0143010
813.215	0.0144470
813.293	0.0143658
813.371	0.0143922
813.450	0.0143271
813.528	0.0144682
813.606	0.0145088
813.684	0.0144103
813.762	0.0142349
813.840	0.0144433
813.918	0.0144518
813.996	0.0143912
814.075	0.0142558
814.153	0.0142579
814.231	0.0143729
814.309	0.0143604
814.387	0.0143758
814.465	0.0143906
814.543	0.0142741
814.621	0.0143204
814.700	0.0143151
814.778	0.0144360
814.856	0.0143332
814.934	0.0144135
815.012	0.0144189
815.090	0.0143244
815.168	0.0142824
815.246	0.0143491
815.325	0.0144569
815.403	0.0142522
815.481	0.0143350
815.559	0.0142717
815.637	0.0143392
815.715	0.0142817
815.793	0.0144130
815.871	0.0144176
815.950	0.0143480
816.028	0.0143275
816.106	0.0144924
816.184	0.0145001
816.262	0.0144843
816.340	0.0144558
816.418	0.0145519
816.496	0.0144260
816.575	0.0144711
816.653	0.0144918
816.731	0.0143557
816.809	0.0145160
816.887	0.0145201
816.965	0.0143656
817.043	0.0142905
817.121	0.0144093
817.200	0.0143214
817.278	0.0144521
817.356	0.0143599
817.434	0.0144020
817.512	0.0142821
817.590	0.0143754
817.668	0.0143837
817.746	0.0142292
817.825	0.0142236
817.903	0.0142744
817.981	0.0142620
818.059	0.0143800
818.137	0.0143855
818.215	0.0142603
818.293	0.0143373
818.371	0.0144317
818.450	0.0144911
818.528	0.0143002
818.606	0.0143819
818.684	0.0144569
818.762	0.0144877
818.840	0.0144830
818.918	0.0142892
818.996	0.0143892
819.075	0.0144050
819.153	0.0143723
819.231	0.0143893
819.309	0.0144378
819.387	0.0144275
819.465	0.0144009
819.543	0.0144535
819.621	0.0143670
819.700	0.0144444
819.778	0.0143212
819.856	0.0143732
819.934	0.0145078
820.012	0.0145183
820.090	0.0144243
820.168	0.0144112
820.246	0.0143847
820.325	0.0143453
820.403	0.0144588
820.481	0.0143247
820.559	0.0141679
820.637	0.0142912
820.715	0.0144125
820.793	0.0143919
820.871	0.0143361
820.950	0.0143781
821.028	0.0142822
821.106	0.0143929
821.184	0.0143140
821.262	0.0142309
821.340	0.0143136
821.418	0.0143327
821.496	0.0143709
821.575	0.0143658
821.653	0.0143487
821.731	0.0143118
821.809	0.0142393
821.887	0.0142819
821.965	0.0142601
822.043	0.0143076
822.121	0.0142537
822.200	0.0143299
822.278	0.0143188
822.356	0.0142444
822.434	0.0142455
822.512	0.0143320
822.590	0.0145511
822.668	0.0143871
822.746	0.0143823
822.825	0.0143073
822.903	0.0142928
822.981	0.0144209
823.059	0.0143054
823.137	0.0142374
823.215	0.0142542
823.293	0.0142922
823.371	0.0142970
823.450	0.0144492
823.528	0.0143015
823.606	0.0142496
823.684	0.0142240
823.762	0.0143560
823.840	0.0143789
823.918	0.0143211
823.996	0.0142654
824.075	0.0142815
824.153	0.0144450
824.231	0.0144797
824.309	0.0142625
824.387	0.0144576
824.465	0.0144398
824.543	0.0143417
824.621	0.0143471
824.700	0.0144755
824.778	0.0143864
824.856	0.0144752
824.934	0.0144535
825.012	0.0144007
825.090	0.0145017
825.168	0.0144889
825.246	0.0144496
825.325	0.0143417
825.403	0.0144785
825.481	0.0145451
825.559	0.0144736
825.637	0.0143835
825.715	0.0143420
825.793	0.0146515
825.871	0.0143703
825.950	0.0144202
826.028	0.0142856
826.106	0.0144910
826.184	0.0145152
826.262	0.0143796
826.340	0.0144238
826.418	0.0143605
826.496	0.0144840
826.575	0.0143931
826.653	0.0144096
826.731	0.0144149
826.809	0.0143250
826.887	0.0142782
826.965	0.0142570
827.043	0.0144235
827.121	0.0144977
827.200	0.0143555
827.278	0.0144163
827.356	0.0141714
827.434	0.0142847
827.512	0.0143793
827.590	0.0142484
827.668	0.0143049
827.746	0.0144328
827.825	0.0144381
827.903	0.0143535
827.981	0.0143105
828.059	0.0143126
828.137	0.0144061
828.215	0.0143542
828.293	0.0143520
828.371	0.0144232
828.450	0.0144199
828.528	0.0144094
828.606	0.0141693
828.684	0.0142792
828.762	0.0142181
828.840	0.0144072
828.918	0.0144035
828.996	0.0142912
829.075	0.0142786
829.153	0.0143502
829.231	0.0144213
829.309	0.0143336
829.387	0.0144447
829.465	0.0143632
829.543	0.0142850
829.621	0.0142255
829.700	0.0142561
829.778	0.0142961
829.856	0.0143550
829.934	0.0141723
830.012	0.0141960
830.090	0.0141535
830.168	0.0141972
830.246	0.0143001
830.325	0.0141809
830.403	0.0141831
830.481	0.0140829
830.559	0.0142310
830.637	0.0142577
830.715	0.0142481
830.793	0.0141550
830.871	0.0141254
830.950	0.0142650
831.028	0.0144960
831.106	0.0141442
831.184	0.0141996
831.262	0.0143501
831.340	0.0143198
831.418	0.0144369
831.496	0.0143755
831.575	0.0143474
831.653	0.0143776
831.731	0.0144716
831.809	0.0143546
831.887	0.0144456
831.965	0.0144704
832.043	0.0143500
832.121	0.0144400
832.200	0.0144550
832.278	0.0144069
832.356	0.0144018
832.434	0.0144559
832.512	0.0144883
832.590	0.0143188
832.668	0.0144107
832.746	0.0144438
832.825	0.0144114
832.903	0.0143111
832.981	0.0145042
833.059	0.0144716
833.137	0.0143285
833.215	0.0143319
833.293	0.0144228
833.371	0.0144413
833.450	0.0143759
833.528	0.0144461
833.606	0.0144151
833.684	0.0144231
833.762	0.0144854
833.840	0.0144244
833.918	0.0144582
833.996	0.0144473
834.075	0.0143014
834.153	0.0143990
834.231	0.0145088
834.309	0.0144615
834.387	0.0145236
834.465	0.0145146
834.543	0.0144106
834.621	0.0144356
834.700	0.0145301
834.778	0.0144865
834.856	0.0144521
834.934	0.0143610
835.012	0.0144091
835.090	0.0144094
835.168	0.0145361
835.246	0.0142908
835.325	0.0143721
835.403	0.0143314
835.481	0.0143322
835.559	0.0142734
835.637	0.0142927
835.715	0.0142392
835.793	0.0143567
835.871	0.0142634
835.950	0.0142068
836.028	0.0143707
836.106	0.0142435
836.184	0.0143342
836.262	0.0144085
836.340	0.0144010
836.418	0.0142583
836.496	0.0144472
836.575	0.0143555
836.653	0.0143522
836.731	0.0143115
836.809	0.0143800
836.887	0.0143371
836.965	0.0143274
837.043	0.0143113
837.121	0.0142722
837.200	0.0143069
837.278	0.0143602
837.356	0.0142360
837.434	0.0141982
837.512	0.0142608
837.590	0.0141113
837.668	0.0143936
837.746	0.0143160
837.825	0.0142123
837.903	0.0141854
837.981	0.0142272
838.059	0.0142755
838.137	0.0143256
838.215	0.0141680
838.293	0.0142362
838.371	0.0142091
838.450	0.0143417
838.528	0.0143872
838.606	0.0140883
838.684	0.0142598
838.762	0.0141653
838.840	0.0142016
838.918	0.0142848
838.996	0.0143267
839.075	0.0143034
839.153	0.0142870
839.231	0.0143756
839.309	0.0143560
839.387	0.0142769
839.465	0.0144044
839.543	0.0143774
839.621	0.0144762
839.700	0.0143698
839.778	0.0144048
839.856	0.0143928
839.934	0.0143348
840.012	0.0144250
840.090	0.0143727
840.168	0.0144167
840.246	0.0142010
840.325	0.0142978
840.403	0.0142799
840.481	0.0143013
840.559	0.0143438
840.637	0.0143253
840.715	0.0144815
840.793	0.0144122
840.871	0.0144127
840.950	0.0142752
841.028	0.0143159
841.106	0.0143832
841.184	0.0144410
841.262	0.0143714
841.340	0.0145327
841.418	0.0143336
841.496	0.0144784
841.575	0.0143941
841.653	0.0145571
841.731	0.0145176
841.809	0.0145221
841.887	0.0145187
841.965	0.0145560
842.043	0.0144143
842.121	0.0145872
842.200	0.0145420
842.278	0.0145479
842.356	0.0142948
842.434	0.0143769
842.512	0.0143904
842.590	0.0145431
842.668	0.0144678
842.746	0.0143806
842.825	0.0144156
842.903	0.0143888
842.981	0.0143333
843.059	0.0144281
843.137	0.0144402
843.215	0.0144862
843.293	0.0145168
843.371	0.0145574
843.450	0.0145535
843.528	0.0143568
843.606	0.0144078
843.684	0.0144602
843.762	0.0144760
843.840	0.0144338
843.918	0.0143703
843.996	0.0144529
844.075	0.0144592
844.153	0.0145296
844.231	0.0145915
844.309	0.0145097
844.387	0.0144839
844.465	0.0144369
844.543	0.0145189
844.621	0.0145695
844.700	0.0145483
844.778	0.0143581
844.856	0.0144341
844.934	0.0144176
845.012	0.0144502
845.090	0.0143208
845.168	0.0143739
845.246	0.0143009
845.325	0.0144788
845.403	0.0143655
845.481	0.0143941
845.559	0.0143768
845.637	0.0144854
845.715	0.0143024
845.793	0.0143360
845.871	0.0143242
845.950	0.0143788
846.028	0.0145148
846.106	0.0143307
846.184	0.0143455
846.262	0.0144712
846.340	0.0143789
846.418	0.0143298
846.496	0.0144370
846.575	0.0144717
846.653	0.0144160
846.731	0.0143401
846.809	0.0144293
846.887	0.0143223
846.965	0.0144741
847.043	0.0143780
847.121	0.0144745
847.200	0.0144080
847.278	0.0143871
847.356	0.0145459
847.434	0.0144065
847.512	0.0142668
847.590	0.0143608
847.668	0.0144196
847.746	0.0143173
847.825	0.0143473
847.903	0.0142970
847.981	0.0142236
848.059	0.0142040
848.137	0.0143027
848.215	0.0142402
848.293	0.0142278
848.371	0.0143010
848.450	0.0143215
848.528	0.0141286
848.606	0.0143088
848.684	0.0142902
848.762	0.0143387
848.840	0.0142415
848.918	0.0141287
848.996	0.0142786
849.075	0.0143171
849.153	0.0141993
849.231	0.0141056
849.309	0.0142963
849.387	0.0142846
849.465	0.0141737
849.543	0.0142375
849.621	0.0142762
849.700	0.0143884
849.778	0.0143272
849.856	0.0143835
849.934	0.0142966
850.012	0.0143018
850.090	0.0141984
850.168	0.0142633
850.246	0.0143690
850.325	0.0143606
850.403	0.0142724
850.481	0.0142013
850.559	0.0143564
850.637	0.0143174
850.715	0.0142628
850.793	0.0143317
850.871	0.0143654
850.950	0.0142757
851.028	0.0142493
851.106	0.0143680
851.184	0.0143065
851.262	0.0143173
851.340	0.0142875
851.418	0.0142940
851.496	0.0142880
851.575	0.0143843
851.653	0.0143683
851.731	0.0142619
851.809	0.0143565
851.887	0.0143318
851.965	0.0143199
852.043	0.0142593
852.121	0.0142709
852.200	0.0143265
852.278	0.0143040
852.356	0.0142802
852.434	0.0142648
852.512	0.0143211
852.590	0.0144092
852.668	0.0143710
852.746	0.0143433
852.825	0.0141864
852.903	0.0144715
852.981	0.0142878
853.059	0.0144117
853.137	0.0143492
853.215	0.0143312
853.293	0.0142925
853.371	0.0143600
853.450	0.0143120
853.528	0.0143139
853.606	0.0144212
853.684	0.0143620
853.762	0.0143939
853.840	0.0143519
853.918	0.0143221
853.996	0.0144157
854.075	0.0143621
854.153	0.0143684
854.231	0.0144363
854.309	0.0144086
854.387	0.0143574
854.465	0.0143226
854.543	0.0145506
854.621	0.0142340
854.700	0.0144135
854.778	0.0144563
854.856	0.0141816
854.934	0.0143214
855.012	0.0144199
855.090	0.0142994
855.168	0.0142566
855.246	0.0143441
855.325	0.0144268
855.403	0.0143634
855.481	0.0143152
855.559	0.0143024
855.637	0.0144337
855.715	0.0143408
855.793	0.0142834
855.871	0.0143407
855.950	0.0143463
856.028	0.0143045
856.106	0.0142799
856.184	0.0142726
856.262	0.0144673
856.340	0.0144160
856.418	0.0143021
856.496	0.0142101
856.575	0.0143690
856.653	0.0143112
856.731	0.0142307
856.809	0.0144449
856.887	0.0143587
856.965	0.0143174
857.043	0.0143135
857.121	0.0143819
857.200	0.0143146
857.278	0.0142750
857.356	0.0143028
857.434	0.0143766
857.512	0.0142660
857.590	0.0143781
857.668	0.0144160
857.746	0.0144202
857.825	0.0143375
857.903	0.0144307
857.981	0.0143872
858.059	0.0143947
858.137	0.0143086
858.215	0.0143888
858.293	0.0142982
858.371	0.0144025
858.450	0.0144926
858.528	0.0143098
858.606	0.0144572
858.684	0.0144057
858.762	0.0144670
858.840	0.0143145
858.918	0.0143854
858.996	0.0144064
859.075	0.0142466
859.153	0.0143443
859.231	0.0143861
859.309	0.0143452
859.387	0.0144505
859.465	0.0144250
859.543	0.0143493
859.621	0.0143984
859.700	0.0142390
859.778	0.0143335
859.856	0.0143654
859.934	0.0143262
860.012	0.0143701
860.090	0.0143319
860.168	0.0144290
860.246	0.0143123
860.325	0.0143605
860.403	0.0144064
860.481	0.0143166
860.559	0.0144530
860.637	0.0142387
860.715	0.0143713
860.793	0.0143459
860.871	0.0142256
860.950	0.0143808
861.028	0.0143712
861.106	0.0143524
861.184	0.0143419
861.262	0.0144234
861.340	0.0142010
861.418	0.0144061
861.496	0.0141901
861.575	0.0142648
861.653	0.0144550
861.731	0.0143047
861.809	0.0143099
861.887	0.0142812
861.965	0.0144206
862.043	0.0143828
862.121	0.0143078
862.200	0.0143002
862.278	0.0142934
862.356	0.0143402
862.434	0.0143813
862.512	0.0144301
862.590	0.0143368
862.668	0.0143555
862.746	0.0143127
862.825	0.0142641
862.903	0.0143314
862.981	0.0144810
863.059	0.0144714
863.137	0.0143830
863.215	0.0144942
863.293	0.0144495
863.371	0.0143958
863.450	0.0142974
863.528	0.0144224
863.606	0.0143579
863.684	0.0143658
863.762	0.0144677
863.840	0.0144087
863.918	0.0143645
863.996	0.0142831
864.075	0.0144133
864.153	0.0144600
864.231	0.0144629
864.309	0.0143209
864.387	0.0142857
864.465	0.0143881
864.543	0.0144398
864.621	0.0143574
864.700	0.0145025
864.778	0.0143063
864.856	0.0143829
864.934	0.0143683
865.012	0.0143214
865.090	0.0143582
865.168	0.0144088
865.246	0.0142732
865.325	0.0142887
865.403	0.0144365
865.481	0.0143454
865.559	0.0143755
865.637	0.0143212
865.715	0.0143942
865.793	0.0143276
865.871	0.0144137
865.950	0.0144054
866.028	0.0144237
866.106	0.0144300
866.184	0.0143019
866.262	0.0143221
866.340	0.0142675
866.418	0.0142219
866.496	0.0142028
866.575	0.0143999
866.653	0.0143236
866.731	0.0142405
866.809	0.0141782
866.887	0.0143379
866.965	0.0143232
867.043	0.0142551
867.121	0.0143710
867.200	0.0142815
867.278	0.0143884
867.356	0.0144156
867.434	0.0143281
867.512	0.0145452
867.590	0.0144067
867.668	0.0143751
867.746	0.0143784
867.825	0.0143999
867.903	0.0143647
867.981	0.0143853
868.059	0.0143956
868.137	0.0144148
868.215	0.0142762
868.293	0.0144308
868.371	0.0144054
868.450	0.0142823
868.528	0.0142834
868.606	0.0144294
868.684	0.0144608
868.762	0.0142581
868.840	0.0142495
868.918	0.0143353
868.996	0.0144447
869.075	0.0143871
869.153	0.0142629
869.231	0.0144318
869.309	0.0143256
869.387	0.0142336
869.465	0.0142716
869.543	0.0142000
869.621	0.0142486
869.700	0.0142842
869.778	0.0143085
869.856	0.0144352
869.934	0.0144864
870.012	0.0142703
870.090	0.0142401
870.168	0.0142773
870.246	0.0144024
870.325	0.0142859
870.403	0.0143646
870.481	0.0142863
870.559	0.0143903
870.637	0.0142208
870.715	0.0144264
870.793	0.0143488
870.871	0.0143488
870.950	0.0143450
871.028	0.0143042
871.106	0.0143750
871.184	0.0143945
871.262	0.0143487
871.340	0.0144109
871.418	0.0143839
871.496	0.0142967
871.575	0.0143229
871.653	0.0143554
871.731	0.0143831
871.809	0.0143602
871.887	0.0143581
871.965	0.0144810
872.043	0.0143203
872.121	0.0143744
872.200	0.0143896
872.278	0.0143268
872.356	0.0144561
872.434	0.0142986
872.512	0.0142807
872.590	0.0143071
872.668	0.0143346
872.746	0.0144015
872.825	0.0144134
872.903	0.0143167
872.981	0.0144345
873.059	0.0142730
873.137	0.0143241
873.215	0.0143332
873.293	0.0143774
873.371	0.0143247
873.450	0.0144642
873.528	0.0142612
873.606	0.0143097
873.684	0.0141830
873.762	0.0143108
873.840	0.0144790
873.918	0.0145045
873.996	0.0143768
874.075	0.0144844
874.153	0.0144045
874.231	0.0142836
874.309	0.0143472
874.387	0.0143101
874.465	0.0142200
874.543	0.0141830
874.621	0.0141653
874.700	0.0142496
874.778	0.0141710
874.856	0.0142297
874.934	0.0142448
875.012	0.0142881
875.090	0.0142667
875.168	0.0142569
875.246	0.0142869
875.325	0.0143194
875.403	0.0142220
875.481	0.0143615
875.559	0.0143340
875.637	0.0141724
875.715	0.0142996
875.793	0.0144685
875.871	0.0143220
875.950	0.0142905
876.028	0.0144297
876.106	0.0143258
876.184	0.0140714
876.262	0.0143384
876.340	0.0142581
876.418	0.0140458
876.496	0.0141306
876.575	0.0141812
876.653	0.0142928
876.731	0.0142873
876.809	0.0141011
876.887	0.0141856
876.965	0.0143275
877.043	0.0143885
877.121	0.0143236
877.200	0.0142942
877.278	0.0142542
877.356	0.0143201
877.434	0.0143519
877.512	0.0141164
877.590	0.0143409
877.668	0.0142723
877.746	0.0143803
877.825	0.0142512
877.903	0.0142094
877.981	0.0142926
878.059	0.0143111
878.137	0.0143490
878.215	0.0142481
878.293	0.0142464
878.371	0.0143238
878.450	0.0144717
878.528	0.0144664
878.606	0.0144588
878.684	0.0145568
878.762	0.0143956
878.840	0.0145088
878.918	0.0144157
878.996	0.0143658
879.075	0.0143711
879.153	0.0144539
879.231	0.0144479
879.309	0.0144097
879.387	0.0143140
879.465	0.0143017
879.543	0.0143913
879.621	0.0142735
879.700	0.0142734
879.778	0.0142546
879.856	0.0143186
879.934	0.0142886
880.012	0.0143288
880.090	0.0144855
880.168	0.0143507
880.246	0.0144247
880.325	0.0144395
880.403	0.0143977
880.481	0.0144062
880.559	0.0144171
880.637	0.0144751
880.715	0.0143037
880.793	0.0143905
880.871	0.0142988
880.950	0.0143675
881.028	0.0142381
881.106	0.0143915
881.184	0.0142721
881.262	0.0143354
881.340	0.0143838
881.418	0.0144759
881.496	0.0144589
881.575	0.0143256
881.653	0.0143047
881.731	0.0144331
881.809	0.0143938
881.887	0.0142999
881.965	0.0143711
882.043	0.0143710
882.121	0.0144278
882.200	0.0144457
882.278	0.0141827
882.356	0.0141641
882.434	0.0144015
882.512	0.0143597
882.590	0.0142365
882.668	0.0142772
882.746	0.0142135
882.825	0.0141290
882.903	0.0142088
882.981	0.0141645
883.059	0.0142761
883.137	0.0142146
883.215	0.0142502
883.293	0.0142619
883.371	0.0141621
883.450	0.0142098
883.528	0.0141747
883.606	0.0143140
883.684	0.0143522
883.762	0.0142169
883.840	0.0142362
883.918	0.0143049
883.996	0.0141653
884.075	0.0143256
884.153	0.0141895
884.231	0.0142673
884.309	0.0143868
884.387	0.0143011
884.465	0.0142709
884.543	0.0143886
884.621	0.0143306
884.700	0.0142253
884.778	0.0144682
884.856	0.0144489
884.934	0.0143863
885.012	0.0143976
885.090	0.0144126
885.168	0.0143116
885.246	0.0143763
885.325	0.0143877
885.403	0.0142871
885.481	0.0142347
885.559	0.0143858
885.637	0.0144128
885.715	0.0142896
885.793	0.0142851
885.871	0.0143817
885.950	0.0144514
886.028	0.0144164
886.106	0.0143432
886.184	0.0144144
886.262	0.0144205
886.340	0.0142403
886.418	0.0143426
886.496	0.0143665
886.575	0.0143139
886.653	0.0142278
886.731	0.0143974
886.809	0.0141676
886.887	0.0142554
886.965	0.0142493
887.043	0.0142101
887.121	0.0142486
887.200	0.0142262
887.278	0.0143287
887.356	0.0144002
887.434	0.0142958
887.512	0.0144503
887.590	0.0144582
887.668	0.0143850
887.746	0.0143639
887.825	0.0143773
887.903	0.0144174
887.981	0.0144262
888.059	0.0143438
888.137	0.0144022
888.215	0.0143018
888.293	0.0143197
888.371	0.0143192
888.450	0.0142741
888.528	0.0143123
888.606	0.0143339
888.684	0.0142779
888.762	0.0142701
888.840	0.0143768
888.918	0.0143880
888.996	0.0143784
889.075	0.0143441
889.153	0.0143668
889.231	0.0144767
889.309	0.0143604
889.387	0.0143382
889.465	0.0145918
889.543	0.0145867
889.621	0.0144659
889.700	0.0143903
889.778	0.0143923
889.856	0.0143980
889.934	0.0143924
890.012	0.0144006
890.090	0.0144565
890.168	0.0145990
890.246	0.0143063
890.325	0.0145221
890.403	0.0145628
890.481	0.0145521
890.559	0.0145640
890.637	0.0143856
890.715	0.0146071
890.793	0.0143645
890.871	0.0142899
890.950	0.0144248
891.028	0.0144436
891.106	0.0143533
891.184	0.0144038
891.262	0.0143294
891.340	0.0142819
891.418	0.0143009
891.496	0.0143302
891.575	0.0143491
891.653	0.0143027
891.731	0.0141943
891.809	0.0143076
891.887	0.0143685
891.965	0.0144040
892.043	0.0141763
892.121	0.0141959
892.200	0.0143311
892.278	0.0143030
892.356	0.0144608
892.434	0.0143481
892.512	0.0143291
892.590	0.0144245
892.668	0.0143422
892.746	0.0142578
892.825	0.0143105
892.903	0.0142966
892.981	0.0142934
893.059	0.0143769
893.137	0.0143779
893.215	0.0142819
893.293	0.0143368
893.371	0.0143265
893.450	0.0142568
893.528	0.0142799
893.606	0.0144053
893.684	0.0141616
893.762	0.0143330
893.840	0.0143794
893.918	0.0142785
893.996	0.0143834
894.075	0.0144359
894.153	0.0143397
894.231	0.0143814
894.309	0.0142677
894.387	0.0142368
894.465	0.0143735
894.543	0.0142767
894.621	0.0144584
894.700	0.0143192
894.778	0.0143161
894.856	0.0144675
894.934	0.0143555
895.012	0.0145052
895.090	0.0143977
895.168	0.0144611
895.246	0.0143664
895.325	0.0144109
895.403	0.0143842
895.481	0.0145084
895.559	0.0144320
895.637	0.0143073
895.715	0.0144031
895.793	0.0144471
895.871	0.0143707
895.950	0.0142216
896.028	0.0143360
896.106	0.0143974
896.184	0.0141594
896.262	0.0142836
896.340	0.0143510
896.418	0.0143246
896.496	0.0142873
896.575	0.0143415
896.653	0.0142783
896.731	0.0144680
896.809	0.0143067
896.887	0.0143308
896.965	0.0142715
897.043	0.0145343
897.121	0.0143159
897.200	0.0143816
897.278	0.0143389
897.356	0.0142249
897.434	0.0143184
897.512	0.0144375
897.590	0.0143176
897.668	0.0144486
897.746	0.0144790
897.825	0.0144247
897.903	0.0144510
897.981	0.0144405
898.059	0.0144556
898.137	0.0145107
898.215	0.0143719
898.293	0.0145112
898.371	0.0144656
898.450	0.0142306
898.528	0.0145036
898.606	0.0143902
898.684	0.0142522
898.762	0.0143741
898.840	0.0143548
898.918	0.0144758
898.996	0.0143522
899.075	0.0144337
899.153	0.0143955
899.231	0.0143651
899.309	0.0143964
899.387	0.0144793
899.465	0.0141714
899.543	0.0142257
899.621	0.0143587
899.700	0.0143700
899.778	0.0144891
899.856	0.0144961
899.934	0.0145168
900.012	0.0144538
900.090	0.0144484
900.168	0.0144552
900.246	0.0144173
900.325	0.0144460
900.403	0.0145631
900.481	0.0145291
900.559	0.0143348
900.637	0.0143552
900.715	0.0143774
900.793	0.0145217
900.871	0.0142801
900.950	0.0143440
901.028	0.0144337
901.106	0.0143239
901.184	0.0144316
901.262	0.0144263
901.340	0.0142568
901.418	0.0142698
901.496	0.0143500
901.575	0.0142815
901.653	0.0143617
901.731	0.0143794
901.809	0.0143459
901.887	0.0142852
901.965	0.0143369
902.043	0.0144199
902.121	0.0143680
902.200	0.0143072
902.278	0.0144063
902.356	0.0144409
902.434	0.0141855
902.512	0.0143436
902.590	0.0142390
902.668	0.0144744
902.746	0.0143930
902.825	0.0143609
902.903	0.0144027
902.981	0.0143312
903.059	0.0143682
903.137	0.0142705
903.215	0.0143279
903.293	0.0144038
903.371	0.0144147
903.450	0.0141983
903.528	0.0142591
903.606	0.0142248
903.684	0.0143433
903.762	0.0143124
903.840	0.0142723
903.918	0.0142783
903.996	0.0142365
904.075	0.0143723
904.153	0.0142155
904.231	0.0144082
904.309	0.0141702
904.387	0.0142638
904.465	0.0143539
904.543	0.0142840
904.621	0.0142489
904.700	0.0143161
904.778	0.0144093
904.856	0.0142168
904.934	0.0143394
905.012	0.0143861
905.090	0.0142793
905.168	0.0145281
905.246	0.0144350
905.325	0.0144460
905.403	0.0144892
905.481	0.0144308
905.559	0.0144123
905.637	0.0143607
905.715	0.0143221
905.793	0.0143591
905.871	0.0143700
905.950	0.0143116
906.028	0.0144671
906.106	0.0143262
906.184	0.0142905
906.262	0.0142480
906.340	0.0142445
906.418	0.0143996
906.496	0.0142850
906.575	0.0144101
906.653	0.0144212
906.731	0.0143291
906.809	0.0143544
906.887	0.0143146
906.965	0.0144065
907.043	0.0144819
907.121	0.0144032
907.200	0.0143910
907.278	0.0143880
907.356	0.0143120
907.434	0.0144575
907.512	0.0143763
907.590	0.0142406
907.668	0.0144080
907.746	0.0143310
907.825	0.0142986
907.903	0.0142426
907.981	0.0143560
908.059	0.0144684
908.137	0.0143784
908.215	0.0143998
908.293	0.0143938
908.371	0.0144411
908.450	0.0144102
908.528	0.0144186
908.606	0.0144025
908.684	0.0143234
908.762	0.0144273
908.840	0.0142733
908.918	0.0142284
908.996	0.0143349
909.075	0.0143748
909.153	0.0143902
909.231	0.0143580
909.309	0.0143496
909.387	0.0143453
909.465	0.0142891
909.543	0.0143605
909.621	0.0143652
909.700	0.0142657
909.778	0.0143580
909.856	0.0143975
909.934	0.0143768
910.012	0.0143867
910.090	0.0143777
910.168	0.0143808
910.246	0.0142982
910.325	0.0143730
910.403	0.0143489
910.481	0.0142754
910.559	0.0143428
910.637	0.0144017
910.715	0.0144664
910.793	0.0143244
910.871	0.0144416
910.950	0.0143470
911.028	0.0143733
911.106	0.0143209
911.184	0.0144006
911.262	0.0143044
911.340	0.0143536
911.418	0.0144596
911.496	0.0142987
911.575	0.0142967
911.653	0.0144637
911.731	0.0144112
911.809	0.0142051
911.887	0.0143428
911.965	0.0143450
912.043	0.0144360
912.121	0.0144189
912.200	0.0143479
912.278	0.0143927
912.356	0.0144849
912.434	0.0143807
912.512	0.0142745
912.590	0.0142873
912.668	0.0144682
912.746	0.0144100
912.825	0.0143629
912.903	0.0144374
912.981	0.0143996
913.059	0.0145531
913.137	0.0145348
913.215	0.0144181
913.293	0.0143402
913.371	0.0143594
913.450	0.0144264
913.528	0.0143057
913.606	0.0144035
913.684	0.0144144
913.762	0.0144567
913.840	0.0144544
913.918	0.0144839
913.996	0.0144894
914.075	0.0144475
914.153	0.0144585
914.231	0.0144686
914.309	0.0144991
914.387	0.0144700
914.465	0.0143428
914.543	0.0143591
914.621	0.0143126
914.700	0.0143262
914.778	0.0141329
914.856	0.0143465
914.934	0.0142113
915.012	0.0141231
915.090	0.0141808
915.168	0.0142639
915.246	0.0142985
915.325	0.0142632
915.403	0.0141520
915.481	0.0143399
915.559	0.0142706
915.637	0.0142794
915.715	0.0142549
915.793	0.0142860
915.871	0.0142992
915.950	0.0144320
916.028	0.0142831
916.106	0.0143227
916.184	0.0143050
916.262	0.0141112
916.340	0.0143238
916.418	0.0141330
916.496	0.0143641
916.575	0.0142531
916.653	0.0142761
916.731	0.0142008
916.809	0.0142197
916.887	0.0142817
916.965	0.0144440
917.043	0.0143157
917.121	0.0142041
917.200	0.0143413
917.278	0.0144003
917.356	0.0142784
917.434	0.0142603
917.512	0.0143581
917.590	0.0142242
917.668	0.0142326
917.746	0.0142902
917.825	0.0142688
917.903	0.0143153
917.981	0.0143430
918.059	0.0143398
918.137	0.0143005
918.215	0.0143379
918.293	0.0143192
918.371	0.0142734
918.450	0.0144218
918.528	0.0143263
918.606	0.0143661
918.684	0.0144207
918.762	0.0143743
918.840	0.0143477
918.918	0.0144589
918.996	0.0144850
919.075	0.0144219
919.153	0.0143597
919.231	0.0144139
919.309	0.0144735
919.387	0.0143864
919.465	0.0143476
919.543	0.0144047
919.621	0.0144109
919.700	0.0145127
919.778	0.0144221
919.856	0.0143590
919.934	0.0143382
920.012	0.0144144
920.090	0.0144518
920.168	0.0142554
920.246	0.0145279
920.325	0.0145020
920.403	0.0144711
920.481	0.0144191
920.559	0.0144032
920.637	0.0144647
920.715	0.0144182
920.793	0.0144927
920.871	0.0143830
920.950	0.0142685
921.028	0.0144825
921.106	0.0144546
921.184	0.0143784
921.262	0.0144900
921.340	0.0143779
921.418	0.0144750
921.496	0.0143388
921.575	0.0144351
921.653	0.0143918
921.731	0.0143195
921.809	0.0143475
921.887	0.0144096
921.965	0.0144184
922.043	0.0145095
922.121	0.0144772
922.200	0.0143585
922.278	0.0144500
922.356	0.0145360
922.434	0.0143207
922.512	0.0142771
922.590	0.0143774
922.668	0.0143270
922.746	0.0143884
922.825	0.0144815
922.903	0.0144387
922.981	0.0145298
923.059	0.0142849
923.137	0.0144521
923.215	0.0142966
923.293	0.0144742
923.371	0.0145190
923.450	0.0142978
923.528	0.0143066
923.606	0.0145213
923.684	0.0144618
923.762	0.0144179
923.840	0.0144046
923.918	0.0144882
923.996	0.0144205
924.075	0.0144278
924.153	0.0144765
924.231	0.0143822
924.309	0.0143626
924.387	0.0145696
924.465	0.0144900
924.543	0.0144060
924.621	0.0144766
924.700	0.0142903
924.778	0.0144093
924.856	0.0144720
924.934	0.0143912
925.012	0.0143169
925.090	0.0143864
925.168	0.0142993
925.246	0.0146093
925.325	0.0144240
925.403	0.0143709
925.481	0.0142886
925.559	0.0143226
925.637	0.0143966
925.715	0.0143851
925.793	0.0143432
925.871	0.0143212
925.950	0.0144437
926.028	0.0143840
926.106	0.0143734
926.184	0.0145509
926.262	0.0144517
926.340	0.0143693
926.418	0.0142812
926.496	0.0144365
926.575	0.0144443
926.653	0.0143728
926.731	0.0143626
926.809	0.0144125
926.887	0.0144769
926.965	0.0144342
927.043	0.0144512
927.121	0.0145100
927.200	0.0144424
927.278	0.0143536
927.356	0.0143674
927.434	0.0143433
927.512	0.0143599
927.590	0.0143743
927.668	0.0144188
927.746	0.0143173
927.825	0.0143428
927.903	0.0142722
927.981	0.0142193
928.059	0.0143304
928.137	0.0143920
928.215	0.0142842
928.293	0.0143269
928.371	0.0143699
928.450	0.0142921
928.528	0.0141613
928.606	0.0145046
928.684	0.0143982
928.762	0.0143501
928.840	0.0144124
928.918	0.0143884
928.996	0.0144465
929.075	0.0142489
929.153	0.0143560
929.231	0.0144862
929.309	0.0143095
929.387	0.0144261
929.465	0.0143378
929.543	0.0143882
929.621	0.0142075
929.700	0.0142847
929.778	0.0144548
929.856	0.0144259
929.934	0.0143294
930.012	0.0142506
930.090	0.0143139
930.168	0.0143839
930.246	0.0143100
930.325	0.0142224
930.403	0.0143874
930.481	0.0144778
930.559	0.0144109
930.637	0.0144434
930.715	0.0141744
930.793	0.0142461
930.871	0.0143649
930.950	0.0144382
931.028	0.0144287
931.106	0.0144280
931.184	0.0142603
931.262	0.0143362
931.340	0.0142169
931.418	0.0144423
931.496	0.0143970
931.575	0.0144197
931.653	0.0144171
931.731	0.0143327
931.809	0.0145114
931.887	0.0142725
931.965	0.0144063
932.043	0.0142638
932.121	0.0143037
932.200	0.0143713
932.278	0.0143303
932.356	0.0145451
932.434	0.0143026
932.512	0.0143349
932.590	0.0143325
932.668	0.0142315
932.746	0.0142841
932.825	0.0143887
932.903	0.0143282
932.981	0.0143883
933.059	0.0144064
933.137	0.0143336
933.215	0.0144124
933.293	0.0144795
933.371	0.0143613
933.450	0.0143926
933.528	0.0142585
933.606	0.0144418
933.684	0.0146082
933.762	0.0144986
933.840	0.0144542
933.918	0.0144373
933.996	0.0142661
934.075	0.0144198
934.153	0.0143653
934.231	0.0143871
934.309	0.0144913
934.387	0.0145728
934.465	0.0144546
934.543	0.0145577
934.621	0.0144875
934.700	0.0144081
934.778	0.0143753
934.856	0.0144319
934.934	0.0144432
935.012	0.0144427
935.090	0.0144313
935.168	0.0144009
935.246	0.0144658
935.325	0.0144204
935.403	0.0144876
935.481	0.0144394
935.559	0.0144390
935.637	0.0145313
935.715	0.0144775
935.793	0.0145301
935.871	0.0145908
935.950	0.0144856
936.028	0.0143983
936.106	0.0143341
936.184	0.0143829
936.262	0.0145689
936.340	0.0145632
936.418	0.0143602
936.496	0.0144142
936.575	0.0144682
936.653	0.0144469
936.731	0.0143953
936.809	0.0143987
936.887	0.0144043
936.965	0.0144392
937.043	0.0143546
937.121	0.0144456
937.200	0.0144909
937.278	0.0144014
937.356	0.0144768
937.434	0.0143812
937.512	0.0142442
937.590	0.0143964
937.668	0.0144388
937.746	0.0143260
937.825	0.0143527
937.903	0.0143094
937.981	0.0142799
938.059	0.0143520
938.137	0.0143005
938.215	0.0143177
938.293	0.0142254
938.371	0.0142378
938.450	0.0141569
938.528	0.0141228
938.606	0.0142884
938.684	0.0142333
938.762	0.0142802
938.840	0.0142768
938.918	0.0142281
938.996	0.0142232
939.075	0.0143856
939.153	0.0143014
939.231	0.0141814
939.309	0.0142805
939.387	0.0143276
939.465	0.0143923
939.543	0.0143114
939.621	0.0141788
939.700	0.0143423
939.778	0.0142415
939.856	0.0144654
939.934	0.0143723
940.012	0.0143121
940.090	0.0144125
940.168	0.0142547
940.246	0.0142752
940.325	0.0143887
940.403	0.0144447
940.481	0.0142870
940.559	0.0143327
940.637	0.0144173
940.715	0.0143459
940.793	0.0142985
940.871	0.0143652
940.950	0.0144315
941.028	0.0142683
941.106	0.0143578
941.184	0.0144928
941.262	0.0144399
941.340	0.0143219
941.418	0.0142746
941.496	0.0143556
941.575	0.0143925
941.653	0.0144519
941.731	0.0145671
941.809	0.0144475
941.887	0.0143605
941.965	0.0144302
942.043	0.0144714
942.121	0.0143271
942.200	0.0144357
942.278	0.0143886
942.356	0.0145238
942.434	0.0145151
942.512	0.0144012
942.590	0.0142310
942.668	0.0145104
942.746	0.0144038
942.825	0.0143838
942.903	0.0142936
942.981	0.0143683
943.059	0.0145313
943.137	0.0144445
943.215	0.0142821
943.293	0.0144762
943.371	0.0143527
943.450	0.0143548
943.528	0.0142939
943.606	0.0142939
943.684	0.0143240
943.762	0.0142928
943.840	0.0142360
943.918	0.0142475
943.996	0.0144809
944.075	0.0143869
944.153	0.0142900
944.231	0.0144062
944.309	0.0143395
944.387	0.0143109
944.465	0.0143383
944.543	0.0143896
944.621	0.0143113
944.700	0.0142215
944.778	0.0142911
944.856	0.0144317
944.934	0.0143358
945.012	0.0143473
945.090	0.0144395
945.168	0.0143629
945.246	0.0143887
945.325	0.0143746
945.403	0.0143336
945.481	0.0143826
945.559	0.0144743
945.637	0.0143839
945.715	0.0143482
945.793	0.0144819
945.871	0.0143690
945.950	0.0144257
946.028	0.0143244
946.106	0.0145786
946.184	0.0144152
946.262	0.0143967
946.340	0.0144264
946.418	0.0144072
946.496	0.0142876
946.575	0.0144064
946.653	0.0144576
946.731	0.0143414
946.809	0.0141779
946.887	0.0143951
946.965	0.0143040
947.043	0.0143785
947.121	0.0142590
947.200	0.0143419
947.278	0.0142167
947.356	0.0143961
947.434	0.0143738
947.512	0.0143375
947.590	0.0142855
947.668	0.0143291
947.746	0.0143256
947.825	0.0145148
947.903	0.0144261
947.981	0.0142973
948.059	0.0143069
948.137	0.0144172
948.215	0.0144838
948.293	0.0143327
948.371	0.0142673
948.450	0.0143375
948.528	0.0144733
948.606	0.0142487
948.684	0.0143299
948.762	0.0144883
948.840	0.0143945
948.918	0.0144336
948.996	0.0142821
949.075	0.0143252
949.153	0.0143623
949.231	0.0143093
949.309	0.0143439
949.387	0.0142284
949.465	0.0142816
949.543	0.0143461
949.621	0.0143855
949.700	0.0143167
949.778	0.0143665
949.856	0.0143167
949.934	0.0142483
950.012	0.0143897
950.090	0.0142432
950.168	0.0142882
950.246	0.0143485
950.325	0.0144454
950.403	0.0143372
950.481	0.0143120
950.559	0.0143858
950.637	0.0143327
950.715	0.0141641
950.793	0.0141946
950.871	0.0144822
950.950	0.0143727
951.028	0.0142563
951.106	0.0143459
951.184	0.0143904
951.262	0.0142578
951.340	0.0143773
951.418	0.0143264
951.496	0.0141936
951.575	0.0143843
951.653	0.0142541
951.731	0.0142594
951.809	0.0143267
951.887	0.0143732
951.965	0.0145872
952.043	0.0145309
952.121	0.0144498
952.200	0.0143257
952.278	0.0142632
952.356	0.0142561
952.434	0.0144660
952.512	0.0144016
952.590	0.0143423
952.668	0.0142320
952.746	0.0142725
952.825	0.0144813
952.903	0.0144192
952.981	0.0142786
953.059	0.0143681
953.137	0.0144499
953.215	0.0143635
953.293	0.0143475
953.371	0.0143360
953.450	0.0143571
953.528	0.0144289
953.606	0.0143647
953.684	0.0143912
953.762	0.0143763
953.840	0.0142996
953.918	0.0143829
953.996	0.0145745
954.075	0.0144791
954.153	0.0143703
954.231	0.0144071
954.309	0.0143897
954.387	0.0145415
954.465	0.0144115
954.543	0.0144586
954.621	0.0144710
954.700	0.0143872
954.778	0.0143584
954.856	0.0145265
954.934	0.0144614
955.012	0.0143161
955.090	0.0143969
955.168	0.0144479
955.246	0.0143650
955.325	0.0142435
955.403	0.0143693
955.481	0.0143828
955.559	0.0145003
955.637	0.0145264
955.715	0.0144215
955.793	0.0143609
955.871	0.0144397
955.950	0.0146244
956.028	0.0145322
956.106	0.0144521
956.184	0.0143649
956.262	0.0143858
956.340	0.0143886
956.418	0.0144605
956.496	0.0144030
956.575	0.0143398
956.653	0.0144348
956.731	0.0144705
956.809	0.0143635
956.887	0.0143035
956.965	0.0144546
957.043	0.0143494
957.121	0.0143031
957.200	0.0143331
957.278	0.0145007
957.356	0.0143411
957.434	0.0143043
957.512	0.0143128
957.590	0.0142773
957.668	0.0142741
957.746	0.0143217
957.825	0.0144507
957.903	0.0143331
957.981	0.0144107
958.059	0.0143761
958.137	0.0143401
958.215	0.0143614
958.293	0.0144342
958.371	0.0143710
958.450	0.0144064
958.528	0.0144544
958.606	0.0142639
958.684	0.0142336
958.762	0.0143894
958.840	0.0142428
958.918	0.0143438
958.996	0.0143781
959.075	0.0143617
959.153	0.0143256
959.231	0.0142723
959.309	0.0141800
959.387	0.0142708
959.465	0.0143880
959.543	0.0143549
959.621	0.0143606
959.700	0.0144340
959.778	0.0141785
959.856	0.0143687
959.934	0.0142993
960.012	0.0142097
960.090	0.0143341
960.168	0.0142751
960.246	0.0142727
960.325	0.0143834
960.403	0.0142180
960.481	0.0141460
960.559	0.0143639
960.637	0.0141933
960.715	0.0142800
960.793	0.0142848
960.871	0.0142021
960.950	0.0142134
961.028	0.0142148
961.106	0.0142227
961.184	0.0143032
961.262	0.0142297
961.340	0.0141898
961.418	0.0141106
961.496	0.0141792
961.575	0.0143970
961.653	0.0143194
961.731	0.0143471
961.809	0.0142758
961.887	0.0142524
961.965	0.0143315
962.043	0.0144126
962.121	0.0143776
962.200	0.0142380
962.278	0.0142969
962.356	0.0143442
962.434	0.0144516
962.512	0.0144418
962.590	0.0142986
962.668	0.0143486
962.746	0.0143025
962.825	0.0143018
962.903	0.0143143
962.981	0.0142863
963.059	0.0142543
963.137	0.0142365
963.215	0.0142228
963.293	0.0142265
963.371	0.0144257
963.450	0.0142798
963.528	0.0142346
963.606	0.0142974
963.684	0.0142500
963.762	0.0144057
963.840	0.0143899
963.918	0.0142415
963.996	0.0142983
964.075	0.0142506
964.153	0.0142498
964.231	0.0140676
964.309	0.0143785
964.387	0.0143451
964.465	0.0142412
964.543	0.0142789
964.621	0.0142753
964.700	0.0141776
964.778	0.0141943
964.856	0.0142254
964.934	0.0142432
965.012	0.0143110
965.090	0.0142603
965.168	0.0142303
965.246	0.0142091
965.325	0.0141632
965.403	0.0142252
965.481	0.0141099
965.559	0.0141824
965.637	0.0143131
965.715	0.0142689
965.793	0.0141992
965.871	0.0142614
965.950	0.0141856
966.028	0.0142444
966.106	0.0142815
966.184	0.0142136
966.262	0.0141840
966.340	0.0141992
966.418	0.0142091
966.496	0.0142576
966.575	0.0141904
966.653	0.0142290
966.731	0.0141891
966.809	0.0143369
966.887	0.0143182
966.965	0.0142223
967.043	0.0143111
967.121	0.0142889
967.200	0.0141637
967.278	0.0142829
967.356	0.0142992
967.434	0.0142702
967.512	0.0142910
967.590	0.0143325
967.668	0.0143128
967.746	0.0143087
967.825	0.0143410
967.903	0.0143128
967.981	0.0142736
968.059	0.0144473
968.137	0.0143485
968.215	0.0143430
968.293	0.0142992
968.371	0.0143864
968.450	0.0143005
968.528	0.0143007
968.606	0.0143014
968.684	0.0143633
968.762	0.0142580
968.840	0.0142938
968.918	0.0143755
968.996	0.0142339
969.075	0.0141887
969.153	0.0143116
969.231	0.0142881
969.309	0.0142365
969.387	0.0144095
969.465	0.0144147
969.543	0.0143147
969.621	0.0143518
969.700	0.0145132
969.778	0.0144413
969.856	0.0143562
969.934	0.0142422
970.012	0.0143326
970.090	0.0143072
970.168	0.0143972
970.246	0.0143958
970.325	0.0143704
970.403	0.0143633
970.481	0.0143549
970.559	0.0143767
970.637	0.0144225
970.715	0.0143950
970.793	0.0144277
970.871	0.0143513
970.950	0.0144113
971.028	0.0143851
971.106	0.0142728
971.184	0.0143497
971.262	0.0143993
971.340	0.0143569
971.418	0.0144362
971.496	0.0143729
971.575	0.0144731
971.653	0.0144398
971.731	0.0144739
971.809	0.0143163
971.887	0.0142844
971.965	0.0144610
972.043	0.0144069
972.121	0.0142673
972.200	0.0143207
972.278	0.0142890
972.356	0.0143053
972.434	0.0143716
972.512	0.0142883
972.590	0.0144016
972.668	0.0144222
972.746	0.0144862
972.825	0.0143044
972.903	0.0143013
972.981	0.0143773
973.059	0.0143710
973.137	0.0142319
973.215	0.0143418
973.293	0.0142340
973.371	0.0143526
973.450	0.0143529
973.528	0.0143434
973.606	0.0142644
973.684	0.0143125
973.762	0.0142553
973.840	0.0142973
973.918	0.0143202
973.996	0.0142570
974.075	0.0142815
974.153	0.0144234
974.231	0.0142897
974.309	0.0142844
974.387	0.0143053
974.465	0.0143624
974.543	0.0144537
974.621	0.0143117
974.700	0.0144049
974.778	0.0142719
974.856	0.0142975
974.934	0.0143320
975.012	0.0143004
975.090	0.0143041
975.168	0.0143130
975.246	0.0143432
975.325	0.0143296
975.403	0.0143943
975.481	0.0144082
975.559	0.0143063
975.637	0.0142481
975.715	0.0142891
975.793	0.0142267
975.871	0.0141233
975.950	0.0142666
976.028	0.0143243
976.106	0.0142404
976.184	0.0143375
976.262	0.0141000
976.340	0.0142361
976.418	0.0143279
976.496	0.0142144
976.575	0.0141884
976.653	0.0142608
976.731	0.0142237
976.809	0.0142426
976.887	0.0142221
976.965	0.0141914
977.043	0.0143452
977.121	0.0142083
977.200	0.0142654
977.278	0.0143236
977.356	0.0142277
977.434	0.0143105
977.512	0.0143249
977.590	0.0143884
977.668	0.0142203
977.746	0.0142349
977.825	0.0143678
977.903	0.0144218
977.981	0.0143155
978.059	0.0142820
978.137	0.0144318
978.215	0.0144065
978.293	0.0143442
978.371	0.0143392
978.450	0.0143305
978.528	0.0143142
978.606	0.0144167
978.684	0.0143436
978.762	0.0143256
978.840	0.0143880
978.918	0.0143385
978.996	0.0143545
979.075	0.0143387
979.153	0.0143584
979.231	0.0143984
979.309	0.0143020
979.387	0.0142458
979.465	0.0142953
979.543	0.0143163
979.621	0.0144314
979.700	0.0144405
979.778	0.0143584
979.856	0.0144435
979.934	0.0143855
980.012	0.0143595
980.090	0.0143844
980.168	0.0143697
980.246	0.0143990
980.325	0.0144664
980.403	0.0143689
980.481	0.0144370
980.559	0.0144279
980.637	0.0144095
980.715	0.0143784
980.793	0.0143916
980.871	0.0144389
980.950	0.0144413
981.028	0.0145507
981.106	0.0144701
981.184	0.0144456
981.262	0.0144642
981.340	0.0144805
981.418	0.0143527
981.496	0.0143523
981.575	0.0143382
981.653	0.0145198
981.731	0.0143617
981.809	0.0143855
981.887	0.0144928
981.965	0.0143807
982.043	0.0143929
982.121	0.0145245
982.200	0.0142980
982.278	0.0143289
982.356	0.0142809
982.434	0.0143321
982.512	0.0143441
982.590	0.0143143
982.668	0.0143373
982.746	0.0143958
982.825	0.0142487
982.903	0.0143177
982.981	0.0142536
983.059	0.0143324
983.137	0.0144826
983.215	0.0143298
983.293	0.0142905
983.371	0.0143916
983.450	0.0143935
983.528	0.0143019
983.606	0.0143253
983.684	0.0143850
983.762	0.0142225
983.840	0.0144611
983.918	0.0143439
983.996	0.0143809
984.075	0.0144003
984.153	0.0142664
984.231	0.0144136
984.309	0.0143513
984.387	0.0142852
984.465	0.0145045
984.543	0.0143305
984.621	0.0143645
984.700	0.0143755
984.778	0.0143106
984.856	0.0143385
984.934	0.0143027
985.012	0.0142872
985.090	0.0143261
985.168	0.0144514
985.246	0.0143436
985.325	0.0144173
985.403	0.0142111
985.481	0.0142452
985.559	0.0143324
985.637	0.0142494
985.715	0.0142627
985.793	0.0143587
985.871	0.0142805
985.950	0.0143455
986.028	0.0141899
986.106	0.0142764
986.184	0.0144930
986.262	0.0142690
986.340	0.0142953
986.418	0.0141922
986.496	0.0142879
986.575	0.0142127
986.653	0.0142772
986.731	0.0142186
986.809	0.0142635
986.887	0.0142855
986.965	0.0141447
987.043	0.0142288
987.121	0.0142804
987.200	0.0142480
987.278	0.0142423
987.356	0.0143367
987.434	0.0143353
987.512	0.0142292
987.590	0.0142155
987.668	0.0143164
987.746	0.0142198
987.825	0.0143125
987.903	0.0142211
987.981	0.0142603
988.059	0.0141761
988.137	0.0143313
988.215	0.0143193
988.293	0.0143104
988.371	0.0143100
988.450	0.0142469
988.528	0.0143586
988.606	0.0142402
988.684	0.0144310
988.762	0.0144073
988.840	0.0143645
988.918	0.0142741
988.996	0.0142943
989.075	0.0143509
989.153	0.0144183
989.231	0.0143468
989.309	0.0142057
989.387	0.0142211
989.465	0.0142605
989.543	0.0142657
989.621	0.0144511
989.700	0.0143065
989.778	0.0143319
989.856	0.0144206
989.934	0.0143694
990.012	0.0143667
990.090	0.0144694
990.168	0.0144675
990.246	0.0143468
990.325	0.0143524
990.403	0.0143983
990.481	0.0144292
990.559	0.0144621
990.637	0.0143607
990.715	0.0143599
990.793	0.0143687
990.871	0.0143492
990.950	0.0142946
991.028	0.0143277
991.106	0.0143785
991.184	0.0143686
991.262	0.0143694
991.340	0.0143838
991.418	0.0144299
991.496	0.0143748
991.575	0.0143601
991.653	0.0144104
991.731	0.0144265
991.809	0.0142654
991.887	0.0144778
991.965	0.0144596
992.043	0.0142606
992.121	0.0144543
992.200	0.0143150
992.278	0.0143884
992.356	0.0143362
992.434	0.0143694
992.512	0.0145087
992.590	0.0144798
992.668	0.0143124
992.746	0.0142641
992.825	0.0144102
992.903	0.0145600
992.981	0.0143530
993.059	0.0143256
993.137	0.0144284
993.215	0.0143412
993.293	0.0142994
993.371	0.0143053
993.450	0.0143366
993.528	0.0143243
993.606	0.0142757
993.684	0.0142332
993.762	0.0142751
993.840	0.0143848
993.918	0.0143691
993.996	0.0142848
994.075	0.0142968
994.153	0.0143951
994.231	0.0142290
994.309	0.0142381
994.387	0.0143433
994.465	0.0141972
994.543	0.0142246
994.621	0.0143409
994.700	0.0144959
994.778	0.0144090
994.856	0.0143510
994.934	0.0144057
995.012	0.0144102
995.090	0.0143352
995.168	0.0143446
995.246	0.0144450
995.325	0.0143291
995.403	0.0144345
995.481	0.0144363
995.559	0.0142384
995.637	0.0142477
995.715	0.0143383
995.793	0.0143542
995.871	0.0143647
995.950	0.0143842
996.028	0.0143804
996.106	0.0143600
996.184	0.0143583
996.262	0.0143593
996.340	0.0143752
996.418	0.0142464
996.496	0.0144347
996.575	0.0144955
996.653	0.0144469
996.731	0.0144481
996.809	0.0143888
996.887	0.0143945
996.965	0.0143727
997.043	0.0144244
997.121	0.0145802
997.200	0.0144451
997.278	0.0144205
997.356	0.0144355
997.434	0.0142612
997.512	0.0143862
997.590	0.0143287
997.668	0.0143942
997.746	0.0144299
997.825	0.0144269
997.903	0.0142744
997.981	0.0144798
998.059	0.0143074
998.137	0.0143224
998.215	0.0144366
998.293	0.0142704
998.371	0.0143047
998.450	0.0144431
998.528	0.0143539
998.606	0.0143909
998.684	0.0144021
998.762	0.0144043
998.840	0.0143574
998.918	0.0143114
