05/04/2022	21:42:54	Ver.	4.1	UNKNOWN
Optical Delay	678.996401	Delta X		0.078125	Sweeps	1	Scan Rate	0/0
Coordinates	Axis 1	NaN	Axis 2	NaN	Axis 3	NaN	Axis 4	NaN	Axis 5	NaN	Axis 6	0.000000
TX Power	0.000000	RX Power	0.000000

678.996	0.0140712
679.075	0.0143240
679.153	0.0143019
679.231	0.0141920
679.309	0.0141935
679.387	0.0141569
679.465	0.0143174
679.543	0.0142183
679.621	0.0141682
679.700	0.0140820
679.778	0.0141851
679.856	0.0141576
679.934	0.0141824
680.012	0.0143401
680.090	0.0143014
680.168	0.0141462
680.246	0.0141520
680.325	0.0141222
680.403	0.0141478
680.481	0.0140824
680.559	0.0141921
680.637	0.0142225
680.715	0.0142069
680.793	0.0141363
680.871	0.0141821
680.950	0.0143221
681.028	0.0141514
681.106	0.0143710
681.184	0.0142423
681.262	0.0141599
681.340	0.0140373
681.418	0.0139026
681.496	0.0139441
681.575	0.0138261
681.653	0.0137119
681.731	0.0136612
681.809	0.0139034
681.887	0.0139886
681.965	0.0141125
682.043	0.0141132
682.121	0.0145051
682.200	0.0145287
682.278	0.0145342
682.356	0.0146869
682.434	0.0148202
682.512	0.0147540
682.590	0.0147363
682.668	0.0145295
682.746	0.0142091
682.825	0.0139938
682.903	0.0136316
682.981	0.0134078
683.059	0.0130331
683.137	0.0129105
683.215	0.0126545
683.293	0.0126681
683.371	0.0125556
683.450	0.0127261
683.528	0.0129041
683.606	0.0133059
683.684	0.0136221
683.762	0.0140182
683.840	0.0143553
683.918	0.0147034
683.996	0.0149504
684.075	0.0151835
684.153	0.0154424
684.231	0.0152023
684.309	0.0151435
684.387	0.0149352
684.465	0.0149191
684.543	0.0145168
684.621	0.0144125
684.700	0.0141556
684.778	0.0140321
684.856	0.0138342
684.934	0.0136388
685.012	0.0137233
685.090	0.0138401
685.168	0.0137891
685.246	0.0139780
685.325	0.0140141
685.403	0.0141319
685.481	0.0141834
685.559	0.0142127
685.637	0.0142161
685.715	0.0140695
685.793	0.0138678
685.871	0.0137481
685.950	0.0134360
686.028	0.0133673
686.106	0.0132932
686.184	0.0131799
686.262	0.0131663
686.340	0.0131399
686.418	0.0131683
686.496	0.0134835
686.575	0.0136855
686.653	0.0140339
686.731	0.0140215
686.809	0.0144913
686.887	0.0147247
686.965	0.0149372
687.043	0.0151785
687.121	0.0152645
687.200	0.0151987
687.278	0.0153696
687.356	0.0152065
687.434	0.0150316
687.512	0.0149357
687.590	0.0147058
687.668	0.0143938
687.746	0.0141050
687.825	0.0139885
687.903	0.0138343
687.981	0.0134628
688.059	0.0134030
688.137	0.0134755
688.215	0.0131444
688.293	0.0134406
688.371	0.0134689
688.450	0.0135044
688.528	0.0135690
688.606	0.0135616
688.684	0.0135317
688.762	0.0135915
688.840	0.0136373
688.918	0.0136206
688.996	0.0136517
689.075	0.0136897
689.153	0.0138523
689.231	0.0139210
689.309	0.0139070
689.387	0.0140807
689.465	0.0142381
689.543	0.0143074
689.621	0.0143990
689.700	0.0145015
689.778	0.0146562
689.856	0.0147547
689.934	0.0147917
690.012	0.0148648
690.090	0.0148468
690.168	0.0147916
690.246	0.0146861
690.325	0.0147903
690.403	0.0146660
690.481	0.0145918
690.559	0.0143528
690.637	0.0142328
690.715	0.0141292
690.793	0.0140237
690.871	0.0139711
690.950	0.0136104
691.028	0.0137901
691.106	0.0136768
691.184	0.0137185
691.262	0.0138197
691.340	0.0138493
691.418	0.0139213
691.496	0.0140268
691.575	0.0140384
691.653	0.0140593
691.731	0.0141756
691.809	0.0142746
691.887	0.0140421
691.965	0.0139212
692.043	0.0139294
692.121	0.0139436
692.200	0.0139029
692.278	0.0137579
692.356	0.0137849
692.434	0.0140117
692.512	0.0140374
692.590	0.0139909
692.668	0.0141611
692.746	0.0141483
692.825	0.0142859
692.903	0.0142237
692.981	0.0142661
693.059	0.0142774
693.137	0.0141764
693.215	0.0141371
693.293	0.0140512
693.371	0.0140845
693.450	0.0140551
693.528	0.0138379
693.606	0.0138484
693.684	0.0138538
693.762	0.0135010
693.840	0.0134379
693.918	0.0136340
693.996	0.0135580
694.075	0.0136399
694.153	0.0139815
694.231	0.0140567
694.309	0.0142297
694.387	0.0144486
694.465	0.0146906
694.543	0.0147733
694.621	0.0149097
694.700	0.0149708
694.778	0.0147630
694.856	0.0147353
694.934	0.0145568
695.012	0.0144685
695.090	0.0140990
695.168	0.0137990
695.246	0.0136242
695.325	0.0133204
695.403	0.0131628
695.481	0.0132967
695.559	0.0131925
695.637	0.0133459
695.715	0.0134904
695.793	0.0137011
695.871	0.0137392
695.950	0.0139852
696.028	0.0141526
696.106	0.0144576
696.184	0.0146623
696.262	0.0145818
696.340	0.0146838
696.418	0.0146018
696.496	0.0144251
696.575	0.0143272
696.653	0.0143136
696.731	0.0140855
696.809	0.0138301
696.887	0.0139487
696.965	0.0138995
697.043	0.0139204
697.121	0.0139850
697.200	0.0140526
697.278	0.0141487
697.356	0.0142646
697.434	0.0143658
697.512	0.0144455
697.590	0.0145642
697.668	0.0145919
697.746	0.0144668
697.825	0.0142779
697.903	0.0141194
697.981	0.0139786
698.059	0.0140309
698.137	0.0138036
698.215	0.0136125
698.293	0.0137018
698.371	0.0136774
698.450	0.0137018
698.528	0.0136908
698.606	0.0139368
698.684	0.0140252
698.762	0.0141719
698.840	0.0145930
698.918	0.0145851
698.996	0.0147635
699.075	0.0147154
699.153	0.0147015
699.231	0.0146426
699.309	0.0143439
699.387	0.0143324
699.465	0.0142343
699.543	0.0141489
699.621	0.0138369
699.700	0.0137750
699.778	0.0136136
699.856	0.0134523
699.934	0.0133974
700.012	0.0133557
700.090	0.0134537
700.168	0.0134285
700.246	0.0134148
700.325	0.0135458
700.403	0.0136440
700.481	0.0138724
700.559	0.0138103
700.637	0.0140112
700.715	0.0139648
700.793	0.0139448
700.871	0.0140980
700.950	0.0140808
701.028	0.0141884
701.106	0.0143533
701.184	0.0142908
701.262	0.0143390
701.340	0.0144803
701.418	0.0145888
701.496	0.0146813
701.575	0.0147074
701.653	0.0148658
701.731	0.0146674
701.809	0.0149290
701.887	0.0149159
701.965	0.0146433
702.043	0.0147321
702.121	0.0145675
702.200	0.0145109
702.278	0.0143050
702.356	0.0140349
702.434	0.0139850
702.512	0.0139182
702.590	0.0138049
702.668	0.0137511
702.746	0.0135999
702.825	0.0134532
702.903	0.0136260
702.981	0.0134861
703.059	0.0136510
703.137	0.0137059
703.215	0.0135593
703.293	0.0136980
703.371	0.0137430
703.450	0.0138010
703.528	0.0138672
703.606	0.0138821
703.684	0.0139581
703.762	0.0141634
703.840	0.0141595
703.918	0.0142081
703.996	0.0141407
704.075	0.0143042
704.153	0.0144062
704.231	0.0144024
704.309	0.0142887
704.387	0.0144933
704.465	0.0146031
704.543	0.0142767
704.621	0.0142199
704.700	0.0143240
704.778	0.0143290
704.856	0.0144015
704.934	0.0142607
705.012	0.0143478
705.090	0.0140059
705.168	0.0141109
705.246	0.0140986
705.325	0.0138872
705.403	0.0139148
705.481	0.0138469
705.559	0.0138521
705.637	0.0140207
705.715	0.0140208
705.793	0.0139906
705.871	0.0140940
705.950	0.0141386
706.028	0.0143643
706.106	0.0141979
706.184	0.0142107
706.262	0.0142402
706.340	0.0141159
706.418	0.0141543
706.496	0.0139846
706.575	0.0140257
706.653	0.0140353
706.731	0.0139598
706.809	0.0139153
706.887	0.0138459
706.965	0.0138701
707.043	0.0137377
707.121	0.0137579
707.200	0.0137766
707.278	0.0136989
707.356	0.0137785
707.434	0.0136473
707.512	0.0136531
707.590	0.0136465
707.668	0.0137371
707.746	0.0137886
707.825	0.0137743
707.903	0.0137381
707.981	0.0139106
708.059	0.0138381
708.137	0.0140692
708.215	0.0141102
708.293	0.0142144
708.371	0.0142414
708.450	0.0142295
708.528	0.0143606
708.606	0.0143278
708.684	0.0144234
708.762	0.0143325
708.840	0.0142185
708.918	0.0144499
708.996	0.0144176
709.075	0.0142935
709.153	0.0143084
709.231	0.0141811
709.309	0.0142341
709.387	0.0141607
709.465	0.0141889
709.543	0.0141745
709.621	0.0140972
709.700	0.0138530
709.778	0.0139860
709.856	0.0137491
709.934	0.0136816
710.012	0.0138090
710.090	0.0136377
710.168	0.0136663
710.246	0.0137021
710.325	0.0138412
710.403	0.0137779
710.481	0.0138285
710.559	0.0137074
710.637	0.0138030
710.715	0.0137311
710.793	0.0139603
710.871	0.0140989
710.950	0.0140401
711.028	0.0140445
711.106	0.0139809
711.184	0.0140238
711.262	0.0139500
711.340	0.0140735
711.418	0.0140532
711.496	0.0140379
711.575	0.0139925
711.653	0.0139748
711.731	0.0140839
711.809	0.0140688
711.887	0.0141193
711.965	0.0141289
712.043	0.0142214
712.121	0.0141854
712.200	0.0142295
712.278	0.0140781
712.356	0.0140887
712.434	0.0142561
712.512	0.0140482
712.590	0.0140125
712.668	0.0142458
712.746	0.0140299
712.825	0.0140170
712.903	0.0139634
712.981	0.0140926
713.059	0.0141399
713.137	0.0139369
713.215	0.0141338
713.293	0.0140174
713.371	0.0141547
713.450	0.0140656
713.528	0.0141844
713.606	0.0140488
713.684	0.0139808
713.762	0.0140732
713.840	0.0140668
713.918	0.0139160
713.996	0.0138308
714.075	0.0138909
714.153	0.0138525
714.231	0.0136774
714.309	0.0135316
714.387	0.0135018
714.465	0.0135790
714.543	0.0136140
714.621	0.0137843
714.700	0.0136499
714.778	0.0138018
714.856	0.0138699
714.934	0.0140576
715.012	0.0142462
715.090	0.0143246
715.168	0.0145145
715.246	0.0145466
715.325	0.0145138
715.403	0.0144621
715.481	0.0145647
715.559	0.0144531
715.637	0.0145413
715.715	0.0144398
715.793	0.0142555
715.871	0.0140649
715.950	0.0139341
716.028	0.0139760
716.106	0.0137962
716.184	0.0137498
716.262	0.0138039
716.340	0.0136485
716.418	0.0135548
716.496	0.0135921
716.575	0.0136607
716.653	0.0136459
716.731	0.0136631
716.809	0.0135624
716.887	0.0137149
716.965	0.0138332
717.043	0.0137486
717.121	0.0138923
717.200	0.0138670
717.278	0.0139191
717.356	0.0140372
717.434	0.0139594
717.512	0.0139043
717.590	0.0141635
717.668	0.0142030
717.746	0.0141521
717.825	0.0143092
717.903	0.0142766
717.981	0.0143726
718.059	0.0143739
718.137	0.0143710
718.215	0.0142872
718.293	0.0143395
718.371	0.0143681
718.450	0.0142401
718.528	0.0142008
718.606	0.0142116
718.684	0.0139848
718.762	0.0140012
718.840	0.0138947
718.918	0.0137782
718.996	0.0137668
719.075	0.0139108
719.153	0.0137569
719.231	0.0137545
719.309	0.0138602
719.387	0.0138797
719.465	0.0137060
719.543	0.0138354
719.621	0.0139358
719.700	0.0140178
719.778	0.0139908
719.856	0.0140327
719.934	0.0141479
720.012	0.0141270
720.090	0.0142632
720.168	0.0143586
720.246	0.0144330
720.325	0.0141637
720.403	0.0145231
720.481	0.0143386
720.559	0.0144629
720.637	0.0143517
720.715	0.0144046
720.793	0.0143496
720.871	0.0143937
720.950	0.0141676
721.028	0.0142190
721.106	0.0141829
721.184	0.0140734
721.262	0.0140475
721.340	0.0139095
721.418	0.0138049
721.496	0.0138013
721.575	0.0137702
721.653	0.0138042
721.731	0.0136697
721.809	0.0136954
721.887	0.0138023
721.965	0.0138619
722.043	0.0138680
722.121	0.0139941
722.200	0.0138731
722.278	0.0140960
722.356	0.0141753
722.434	0.0142831
722.512	0.0143575
722.590	0.0143119
722.668	0.0143787
722.746	0.0143967
722.825	0.0146408
722.903	0.0146032
722.981	0.0144822
723.059	0.0144151
723.137	0.0143995
723.215	0.0142244
723.293	0.0142481
723.371	0.0141489
723.450	0.0143131
723.528	0.0142442
723.606	0.0139354
723.684	0.0138189
723.762	0.0138526
723.840	0.0137156
723.918	0.0136945
723.996	0.0137329
724.075	0.0136834
724.153	0.0136794
724.231	0.0138249
724.309	0.0135597
724.387	0.0136931
724.465	0.0137183
724.543	0.0136919
724.621	0.0137173
724.700	0.0137267
724.778	0.0138508
724.856	0.0137187
724.934	0.0140295
725.012	0.0141912
725.090	0.0142214
725.168	0.0141139
725.246	0.0142912
725.325	0.0143353
725.403	0.0142036
725.481	0.0143848
725.559	0.0143847
725.637	0.0143947
725.715	0.0143865
725.793	0.0144354
725.871	0.0143830
725.950	0.0143607
726.028	0.0142429
726.106	0.0140778
726.184	0.0141050
726.262	0.0140808
726.340	0.0140176
726.418	0.0138197
726.496	0.0139354
726.575	0.0140188
726.653	0.0138421
726.731	0.0139426
726.809	0.0138152
726.887	0.0137154
726.965	0.0138280
727.043	0.0140211
727.121	0.0140102
727.200	0.0140969
727.278	0.0140327
727.356	0.0141221
727.434	0.0141167
727.512	0.0142204
727.590	0.0142421
727.668	0.0141583
727.746	0.0142482
727.825	0.0141135
727.903	0.0141982
727.981	0.0142763
728.059	0.0142126
728.137	0.0143224
728.215	0.0142849
728.293	0.0142423
728.371	0.0141299
728.450	0.0140163
728.528	0.0139984
728.606	0.0140581
728.684	0.0140873
728.762	0.0140726
728.840	0.0141836
728.918	0.0140056
728.996	0.0140357
729.075	0.0140461
729.153	0.0141251
729.231	0.0138439
729.309	0.0139877
729.387	0.0139735
729.465	0.0139950
729.543	0.0140603
729.621	0.0140005
729.700	0.0139210
729.778	0.0139410
729.856	0.0140451
729.934	0.0140646
730.012	0.0141052
730.090	0.0142091
730.168	0.0140609
730.246	0.0142416
730.325	0.0142965
730.403	0.0141855
730.481	0.0142091
730.559	0.0141143
730.637	0.0141055
730.715	0.0142413
730.793	0.0141628
730.871	0.0141409
730.950	0.0140652
731.028	0.0140102
731.106	0.0139256
731.184	0.0138544
731.262	0.0138866
731.340	0.0139336
731.418	0.0140146
731.496	0.0139882
731.575	0.0139616
731.653	0.0139046
731.731	0.0138474
731.809	0.0138745
731.887	0.0137961
731.965	0.0139046
732.043	0.0139105
732.121	0.0138741
732.200	0.0138815
732.278	0.0137163
732.356	0.0137038
732.434	0.0139616
732.512	0.0138556
732.590	0.0140254
732.668	0.0139798
732.746	0.0141151
732.825	0.0140744
732.903	0.0141258
732.981	0.0141660
733.059	0.0140949
733.137	0.0142527
733.215	0.0144671
733.293	0.0143942
733.371	0.0142025
733.450	0.0142731
733.528	0.0141479
733.606	0.0141343
733.684	0.0140535
733.762	0.0140877
733.840	0.0141794
733.918	0.0140649
733.996	0.0138764
734.075	0.0139222
734.153	0.0139017
734.231	0.0137173
734.309	0.0136864
734.387	0.0137489
734.465	0.0138538
734.543	0.0136850
734.621	0.0136669
734.700	0.0137302
734.778	0.0139450
734.856	0.0137338
734.934	0.0137286
735.012	0.0139837
735.090	0.0140253
735.168	0.0139891
735.246	0.0139341
735.325	0.0140370
735.403	0.0140437
735.481	0.0138908
735.559	0.0140519
735.637	0.0140487
735.715	0.0141787
735.793	0.0140946
735.871	0.0141327
735.950	0.0141280
736.028	0.0141793
736.106	0.0140233
736.184	0.0140359
736.262	0.0140051
736.340	0.0140431
736.418	0.0141127
736.496	0.0139838
736.575	0.0140281
736.653	0.0140408
736.731	0.0138906
736.809	0.0138477
736.887	0.0139890
736.965	0.0138771
737.043	0.0140382
737.121	0.0139721
737.200	0.0140099
737.278	0.0139937
737.356	0.0139880
737.434	0.0139154
737.512	0.0140533
737.590	0.0140942
737.668	0.0142198
737.746	0.0141488
737.825	0.0141079
737.903	0.0143395
737.981	0.0141344
738.059	0.0141248
738.137	0.0143222
738.215	0.0141482
738.293	0.0141420
738.371	0.0142062
738.450	0.0141518
738.528	0.0139907
738.606	0.0140444
738.684	0.0140568
738.762	0.0141064
738.840	0.0141798
738.918	0.0140199
738.996	0.0140364
739.075	0.0139495
739.153	0.0140034
739.231	0.0139842
739.309	0.0140359
739.387	0.0140293
739.465	0.0139799
739.543	0.0140315
739.621	0.0140137
739.700	0.0140083
739.778	0.0139526
739.856	0.0141112
739.934	0.0140011
740.012	0.0139999
740.090	0.0141131
740.168	0.0141347
740.246	0.0142106
740.325	0.0141223
740.403	0.0142279
740.481	0.0143280
740.559	0.0142826
740.637	0.0142761
740.715	0.0143143
740.793	0.0143363
740.871	0.0143430
740.950	0.0141618
741.028	0.0141695
741.106	0.0142690
741.184	0.0143047
741.262	0.0142958
741.340	0.0141967
741.418	0.0142085
741.496	0.0141073
741.575	0.0140412
741.653	0.0139405
741.731	0.0139390
741.809	0.0140247
741.887	0.0138953
741.965	0.0140277
742.043	0.0139145
742.121	0.0139785
742.200	0.0139069
742.278	0.0138490
742.356	0.0139449
742.434	0.0137414
742.512	0.0141091
742.590	0.0139776
742.668	0.0140642
742.746	0.0141007
742.825	0.0141400
742.903	0.0140116
742.981	0.0141955
743.059	0.0141911
743.137	0.0140930
743.215	0.0141113
743.293	0.0142628
743.371	0.0141309
743.450	0.0142652
743.528	0.0142944
743.606	0.0142426
743.684	0.0143234
743.762	0.0140844
743.840	0.0141492
743.918	0.0141515
743.996	0.0141310
744.075	0.0140804
744.153	0.0141050
744.231	0.0140665
744.309	0.0140305
744.387	0.0140092
744.465	0.0140083
744.543	0.0140086
744.621	0.0139919
744.700	0.0139979
744.778	0.0139637
744.856	0.0139902
744.934	0.0139795
745.012	0.0140865
745.090	0.0140096
745.168	0.0139925
745.246	0.0140839
745.325	0.0140655
745.403	0.0141263
745.481	0.0139192
745.559	0.0140629
745.637	0.0142007
745.715	0.0141659
745.793	0.0140941
745.871	0.0140401
745.950	0.0142145
746.028	0.0140652
746.106	0.0139887
746.184	0.0140038
746.262	0.0140454
746.340	0.0140794
746.418	0.0141039
746.496	0.0139045
746.575	0.0139632
746.653	0.0139990
746.731	0.0139804
746.809	0.0139380
746.887	0.0139383
746.965	0.0141584
747.043	0.0139291
747.121	0.0139249
747.200	0.0140691
747.278	0.0139006
747.356	0.0140078
747.434	0.0140984
747.512	0.0138921
747.590	0.0140566
747.668	0.0139523
747.746	0.0139294
747.825	0.0141370
747.903	0.0138927
747.981	0.0140371
748.059	0.0141682
748.137	0.0141529
748.215	0.0141129
748.293	0.0141535
748.371	0.0141586
748.450	0.0141920
748.528	0.0140298
748.606	0.0140963
748.684	0.0141122
748.762	0.0141015
748.840	0.0140146
748.918	0.0140294
748.996	0.0139130
749.075	0.0140204
749.153	0.0138868
749.231	0.0140968
749.309	0.0140549
749.387	0.0139441
749.465	0.0138493
749.543	0.0139332
749.621	0.0138562
749.700	0.0140007
749.778	0.0139898
749.856	0.0140430
749.934	0.0139957
750.012	0.0139516
750.090	0.0139161
750.168	0.0141757
750.246	0.0141145
750.325	0.0140072
750.403	0.0140445
750.481	0.0140424
750.559	0.0142159
750.637	0.0141550
750.715	0.0141478
750.793	0.0140992
750.871	0.0141604
750.950	0.0142081
751.028	0.0141576
751.106	0.0141352
751.184	0.0142279
751.262	0.0141761
751.340	0.0140533
751.418	0.0140702
751.496	0.0139867
751.575	0.0140620
751.653	0.0141154
751.731	0.0141193
751.809	0.0139954
751.887	0.0140669
751.965	0.0139577
752.043	0.0138725
752.121	0.0139651
752.200	0.0138999
752.278	0.0138794
752.356	0.0138950
752.434	0.0137961
752.512	0.0140535
752.590	0.0141219
752.668	0.0140061
752.746	0.0139746
752.825	0.0140680
752.903	0.0140213
752.981	0.0141657
753.059	0.0140269
753.137	0.0138972
753.215	0.0140361
753.293	0.0141232
753.371	0.0141546
753.450	0.0140508
753.528	0.0141469
753.606	0.0139871
753.684	0.0140313
753.762	0.0141438
753.840	0.0141416
753.918	0.0141750
753.996	0.0140817
754.075	0.0142751
754.153	0.0141833
754.231	0.0141129
754.309	0.0139753
754.387	0.0140858
754.465	0.0140865
754.543	0.0141537
754.621	0.0140955
754.700	0.0140360
754.778	0.0141338
754.856	0.0141163
754.934	0.0140298
755.012	0.0140728
755.090	0.0141832
755.168	0.0141885
755.246	0.0140490
755.325	0.0141888
755.403	0.0141991
755.481	0.0140340
755.559	0.0141323
755.637	0.0141909
755.715	0.0141132
755.793	0.0141307
755.871	0.0141483
755.950	0.0142290
756.028	0.0141349
756.106	0.0141198
756.184	0.0142706
756.262	0.0141233
756.340	0.0141073
756.418	0.0142916
756.496	0.0142233
756.575	0.0142380
756.653	0.0142028
756.731	0.0141570
756.809	0.0140778
756.887	0.0139616
756.965	0.0140697
757.043	0.0140933
757.121	0.0140344
757.200	0.0140232
757.278	0.0140527
757.356	0.0139613
757.434	0.0139805
757.512	0.0141169
757.590	0.0140707
757.668	0.0141122
757.746	0.0140228
757.825	0.0139693
757.903	0.0140826
757.981	0.0140054
758.059	0.0140243
758.137	0.0140155
758.215	0.0140640
758.293	0.0141354
758.371	0.0141451
758.450	0.0141607
758.528	0.0143233
758.606	0.0142065
758.684	0.0141750
758.762	0.0142871
758.840	0.0142928
758.918	0.0141741
758.996	0.0141618
759.075	0.0141742
759.153	0.0141341
759.231	0.0140885
759.309	0.0141029
759.387	0.0142554
759.465	0.0140224
759.543	0.0140125
759.621	0.0139548
759.700	0.0140797
759.778	0.0140964
759.856	0.0139955
759.934	0.0140870
760.012	0.0140307
760.090	0.0140704
760.168	0.0142178
760.246	0.0141683
760.325	0.0140053
760.403	0.0141127
760.481	0.0140497
760.559	0.0141494
760.637	0.0142185
760.715	0.0141251
760.793	0.0143375
760.871	0.0142271
760.950	0.0141379
761.028	0.0142389
761.106	0.0143409
761.184	0.0142420
761.262	0.0141886
761.340	0.0142649
761.418	0.0142899
761.496	0.0141541
761.575	0.0142850
761.653	0.0141734
761.731	0.0142361
761.809	0.0142319
761.887	0.0140268
761.965	0.0141901
762.043	0.0142505
762.121	0.0141844
762.200	0.0142477
762.278	0.0141519
762.356	0.0141766
762.434	0.0141662
762.512	0.0141109
762.590	0.0141171
762.668	0.0141383
762.746	0.0139618
762.825	0.0141507
762.903	0.0141966
762.981	0.0141688
763.059	0.0140646
763.137	0.0139167
763.215	0.0139960
763.293	0.0142032
763.371	0.0142371
763.450	0.0140859
763.528	0.0142336
763.606	0.0139849
763.684	0.0140886
763.762	0.0140746
763.840	0.0141869
763.918	0.0140759
763.996	0.0139921
764.075	0.0142106
764.153	0.0141695
764.231	0.0141496
764.309	0.0142339
764.387	0.0140244
764.465	0.0141012
764.543	0.0141380
764.621	0.0141395
764.700	0.0140801
764.778	0.0141022
764.856	0.0140697
764.934	0.0139823
765.012	0.0139940
765.090	0.0140631
765.168	0.0141550
765.246	0.0139503
765.325	0.0138141
765.403	0.0140287
765.481	0.0139256
765.559	0.0139832
765.637	0.0141614
765.715	0.0142362
765.793	0.0142245
765.871	0.0141832
765.950	0.0141386
766.028	0.0142435
766.106	0.0142734
766.184	0.0142622
766.262	0.0142686
766.340	0.0141931
766.418	0.0142931
766.496	0.0142423
766.575	0.0142000
766.653	0.0142512
766.731	0.0142713
766.809	0.0141786
766.887	0.0142299
766.965	0.0142799
767.043	0.0140890
767.121	0.0142152
767.200	0.0140921
767.278	0.0140509
767.356	0.0142413
767.434	0.0142065
767.512	0.0141656
767.590	0.0140958
767.668	0.0140102
767.746	0.0140267
767.825	0.0140630
767.903	0.0140900
767.981	0.0140582
768.059	0.0139980
768.137	0.0140550
768.215	0.0141592
768.293	0.0141022
768.371	0.0140396
768.450	0.0140677
768.528	0.0139484
768.606	0.0140612
768.684	0.0140975
768.762	0.0142085
768.840	0.0140874
768.918	0.0140794
768.996	0.0141908
769.075	0.0142339
769.153	0.0141827
769.231	0.0140041
769.309	0.0140088
769.387	0.0141058
769.465	0.0142354
769.543	0.0140462
769.621	0.0141142
769.700	0.0140404
769.778	0.0140181
769.856	0.0140147
769.934	0.0140468
770.012	0.0140380
770.090	0.0140204
770.168	0.0140881
770.246	0.0139820
770.325	0.0139581
770.403	0.0139532
770.481	0.0138806
770.559	0.0138141
770.637	0.0141678
770.715	0.0141467
770.793	0.0141117
770.871	0.0140021
770.950	0.0140611
771.028	0.0140611
771.106	0.0139491
771.184	0.0140518
771.262	0.0139896
771.340	0.0138643
771.418	0.0138512
771.496	0.0140256
771.575	0.0139213
771.653	0.0139053
771.731	0.0139658
771.809	0.0139024
771.887	0.0139596
771.965	0.0140568
772.043	0.0140199
772.121	0.0140613
772.200	0.0140481
772.278	0.0140171
772.356	0.0139191
772.434	0.0139619
772.512	0.0141185
772.590	0.0139564
772.668	0.0138992
772.746	0.0140299
772.825	0.0139926
772.903	0.0140137
772.981	0.0139936
773.059	0.0139783
773.137	0.0139400
773.215	0.0140042
773.293	0.0139952
773.371	0.0141149
773.450	0.0141934
773.528	0.0140073
773.606	0.0140143
773.684	0.0140004
773.762	0.0141185
773.840	0.0140942
773.918	0.0138921
773.996	0.0138944
774.075	0.0140843
774.153	0.0140301
774.231	0.0139302
774.309	0.0140926
774.387	0.0140887
774.465	0.0140217
774.543	0.0139245
774.621	0.0139672
774.700	0.0140114
774.778	0.0140398
774.856	0.0140051
774.934	0.0139542
775.012	0.0138078
775.090	0.0139330
775.168	0.0139770
775.246	0.0139667
775.325	0.0141273
775.403	0.0138871
775.481	0.0139585
775.559	0.0138872
775.637	0.0138883
775.715	0.0139272
775.793	0.0138718
775.871	0.0139604
775.950	0.0138768
776.028	0.0139936
776.106	0.0140833
776.184	0.0140105
776.262	0.0139307
776.340	0.0139918
776.418	0.0140997
776.496	0.0141020
776.575	0.0141133
776.653	0.0140289
776.731	0.0139586
776.809	0.0139398
776.887	0.0140177
776.965	0.0139780
777.043	0.0141363
777.121	0.0141139
777.200	0.0139268
777.278	0.0140169
777.356	0.0140297
777.434	0.0139555
777.512	0.0139376
777.590	0.0140685
777.668	0.0140174
777.746	0.0140984
777.825	0.0140466
777.903	0.0139857
777.981	0.0138776
778.059	0.0140463
778.137	0.0139289
778.215	0.0139799
778.293	0.0141015
778.371	0.0140929
778.450	0.0139817
778.528	0.0140852
778.606	0.0139651
778.684	0.0140272
778.762	0.0140001
778.840	0.0140065
778.918	0.0140145
778.996	0.0138752
779.075	0.0139288
779.153	0.0140028
779.231	0.0140528
779.309	0.0139932
779.387	0.0141524
779.465	0.0138277
779.543	0.0138989
779.621	0.0139438
779.700	0.0138834
779.778	0.0140396
779.856	0.0140302
779.934	0.0140519
780.012	0.0140340
780.090	0.0139951
780.168	0.0140738
780.246	0.0140611
780.325	0.0139651
780.403	0.0140752
780.481	0.0141103
780.559	0.0140698
780.637	0.0140415
780.715	0.0140318
780.793	0.0141245
780.871	0.0139716
780.950	0.0140890
781.028	0.0140714
781.106	0.0140251
781.184	0.0138554
781.262	0.0141424
781.340	0.0140877
781.418	0.0141000
781.496	0.0140541
781.575	0.0139059
781.653	0.0140907
781.731	0.0140205
781.809	0.0140479
781.887	0.0139472
781.965	0.0139613
782.043	0.0140650
782.121	0.0140266
782.200	0.0139365
782.278	0.0139122
782.356	0.0141679
782.434	0.0140862
782.512	0.0139497
782.590	0.0140366
782.668	0.0140011
782.746	0.0139088
782.825	0.0141295
782.903	0.0141881
782.981	0.0140576
783.059	0.0141122
783.137	0.0141183
783.215	0.0141867
783.293	0.0140535
783.371	0.0140914
783.450	0.0142548
783.528	0.0142139
783.606	0.0141288
783.684	0.0140285
783.762	0.0141053
783.840	0.0139877
783.918	0.0141282
783.996	0.0140115
784.075	0.0140029
784.153	0.0139558
784.231	0.0138608
784.309	0.0141046
784.387	0.0141202
784.465	0.0141210
784.543	0.0139636
784.621	0.0139580
784.700	0.0140103
784.778	0.0140004
784.856	0.0139269
784.934	0.0142272
785.012	0.0141046
785.090	0.0140319
785.168	0.0141304
785.246	0.0141374
785.325	0.0139852
785.403	0.0142247
785.481	0.0141584
785.559	0.0141565
785.637	0.0141508
785.715	0.0141554
785.793	0.0141283
785.871	0.0142145
785.950	0.0141718
786.028	0.0142552
786.106	0.0142129
786.184	0.0141893
786.262	0.0142348
786.340	0.0140692
786.418	0.0143221
786.496	0.0143776
786.575	0.0141073
786.653	0.0141730
786.731	0.0144096
786.809	0.0142314
786.887	0.0141986
786.965	0.0142409
787.043	0.0142760
787.121	0.0142604
787.200	0.0142886
787.278	0.0142850
787.356	0.0140987
787.434	0.0141397
787.512	0.0143380
787.590	0.0142007
787.668	0.0142328
787.746	0.0142036
787.825	0.0141119
787.903	0.0141653
787.981	0.0141052
788.059	0.0142294
788.137	0.0142466
788.215	0.0142757
788.293	0.0142528
788.371	0.0142392
788.450	0.0141627
788.528	0.0141637
788.606	0.0140850
788.684	0.0142249
788.762	0.0142789
788.840	0.0142068
788.918	0.0141364
788.996	0.0140457
789.075	0.0140643
789.153	0.0140161
789.231	0.0139896
789.309	0.0141428
789.387	0.0142610
789.465	0.0141119
789.543	0.0140942
789.621	0.0140964
789.700	0.0141550
789.778	0.0140984
789.856	0.0141182
789.934	0.0140987
790.012	0.0140460
790.090	0.0141467
790.168	0.0140541
790.246	0.0139407
790.325	0.0141084
790.403	0.0141235
790.481	0.0140798
790.559	0.0141019
790.637	0.0140209
790.715	0.0141053
790.793	0.0142228
790.871	0.0140262
790.950	0.0141104
791.028	0.0139962
791.106	0.0140984
791.184	0.0139198
791.262	0.0139809
791.340	0.0139307
791.418	0.0139495
791.496	0.0139629
791.575	0.0138425
791.653	0.0139283
791.731	0.0140089
791.809	0.0140311
791.887	0.0140611
791.965	0.0139877
792.043	0.0139793
792.121	0.0140282
792.200	0.0139367
792.278	0.0140409
792.356	0.0140157
792.434	0.0141652
792.512	0.0141334
792.590	0.0141261
792.668	0.0142104
792.746	0.0142178
792.825	0.0141152
792.903	0.0141260
792.981	0.0141018
793.059	0.0141818
793.137	0.0141000
793.215	0.0141245
793.293	0.0140865
793.371	0.0141619
793.450	0.0141006
793.528	0.0141913
793.606	0.0140627
793.684	0.0139711
793.762	0.0140656
793.840	0.0141348
793.918	0.0139858
793.996	0.0138577
794.075	0.0139281
794.153	0.0140827
794.231	0.0140222
794.309	0.0139904
794.387	0.0138709
794.465	0.0139771
794.543	0.0138538
794.621	0.0139978
794.700	0.0137984
794.778	0.0139333
794.856	0.0139265
794.934	0.0140243
795.012	0.0140966
795.090	0.0140728
795.168	0.0141312
795.246	0.0140756
795.325	0.0139732
795.403	0.0141073
795.481	0.0140314
795.559	0.0139494
795.637	0.0139526
795.715	0.0141168
795.793	0.0140710
795.871	0.0139245
795.950	0.0139130
796.028	0.0140246
796.106	0.0139587
796.184	0.0139837
796.262	0.0140770
796.340	0.0139285
796.418	0.0139847
796.496	0.0138609
796.575	0.0138305
796.653	0.0139924
796.731	0.0139349
796.809	0.0139857
796.887	0.0139199
796.965	0.0138695
797.043	0.0139339
797.121	0.0140081
797.200	0.0139240
797.278	0.0139518
797.356	0.0139799
797.434	0.0140106
797.512	0.0139745
797.590	0.0140376
797.668	0.0139827
797.746	0.0139256
797.825	0.0139359
797.903	0.0140583
797.981	0.0140253
798.059	0.0140304
798.137	0.0139793
798.215	0.0140958
798.293	0.0141198
798.371	0.0141049
798.450	0.0139254
798.528	0.0139597
798.606	0.0140163
798.684	0.0139828
798.762	0.0139085
798.840	0.0138242
798.918	0.0139788
798.996	0.0140283
799.075	0.0138259
799.153	0.0138863
799.231	0.0139056
799.309	0.0137971
799.387	0.0139330
799.465	0.0140726
799.543	0.0139105
799.621	0.0138650
799.700	0.0138892
799.778	0.0139183
799.856	0.0139690
799.934	0.0140488
800.012	0.0139011
800.090	0.0139338
800.168	0.0139561
800.246	0.0140682
800.325	0.0141912
800.403	0.0139987
800.481	0.0139962
800.559	0.0139299
800.637	0.0140543
800.715	0.0140610
800.793	0.0140188
800.871	0.0140231
800.950	0.0140780
801.028	0.0140871
801.106	0.0140881
801.184	0.0140730
801.262	0.0139701
801.340	0.0139539
801.418	0.0140514
801.496	0.0140729
801.575	0.0139043
801.653	0.0141124
801.731	0.0140366
801.809	0.0139404
801.887	0.0141018
801.965	0.0139179
802.043	0.0139767
802.121	0.0140665
802.200	0.0139898
802.278	0.0139942
802.356	0.0139159
802.434	0.0140558
802.512	0.0139937
802.590	0.0140552
802.668	0.0140910
802.746	0.0141118
802.825	0.0139098
802.903	0.0140565
802.981	0.0139707
803.059	0.0140002
803.137	0.0141055
803.215	0.0139956
803.293	0.0139447
803.371	0.0140128
803.450	0.0139748
803.528	0.0139387
803.606	0.0138837
803.684	0.0140362
803.762	0.0140239
803.840	0.0138256
803.918	0.0139753
803.996	0.0141275
804.075	0.0139585
804.153	0.0140089
804.231	0.0139279
804.309	0.0140546
804.387	0.0141669
804.465	0.0140009
804.543	0.0140654
804.621	0.0141118
804.700	0.0141362
804.778	0.0139848
804.856	0.0141322
804.934	0.0139889
805.012	0.0140661
805.090	0.0140428
805.168	0.0141204
805.246	0.0140470
805.325	0.0141108
805.403	0.0142000
805.481	0.0140506
805.559	0.0141125
805.637	0.0140990
805.715	0.0140237
805.793	0.0138651
805.871	0.0141466
805.950	0.0141794
806.028	0.0141577
806.106	0.0140785
806.184	0.0139192
806.262	0.0141211
806.340	0.0141866
806.418	0.0140961
806.496	0.0140199
806.575	0.0139884
806.653	0.0141811
806.731	0.0141014
806.809	0.0141537
806.887	0.0140768
806.965	0.0139861
807.043	0.0141313
807.121	0.0141766
807.200	0.0141121
807.278	0.0141612
807.356	0.0141722
807.434	0.0141187
807.512	0.0141783
807.590	0.0140997
807.668	0.0139685
807.746	0.0140393
807.825	0.0142799
807.903	0.0141476
807.981	0.0141010
808.059	0.0140693
808.137	0.0140637
808.215	0.0140405
808.293	0.0140777
808.371	0.0141742
808.450	0.0140975
808.528	0.0141295
808.606	0.0142026
808.684	0.0141256
808.762	0.0141030
808.840	0.0141687
808.918	0.0142719
808.996	0.0142699
809.075	0.0140136
809.153	0.0142062
809.231	0.0140719
809.309	0.0141457
809.387	0.0139182
809.465	0.0140696
809.543	0.0141974
809.621	0.0141283
809.700	0.0140817
809.778	0.0140620
809.856	0.0139944
809.934	0.0141129
810.012	0.0139938
810.090	0.0138953
810.168	0.0140972
810.246	0.0140857
810.325	0.0140339
810.403	0.0141743
810.481	0.0139812
810.559	0.0140463
810.637	0.0140083
810.715	0.0140926
810.793	0.0140805
810.871	0.0142061
810.950	0.0140708
811.028	0.0139630
811.106	0.0140538
811.184	0.0142245
811.262	0.0140643
811.340	0.0140738
811.418	0.0142522
811.496	0.0141680
811.575	0.0140555
811.653	0.0141012
811.731	0.0142342
811.809	0.0141711
811.887	0.0141484
811.965	0.0141817
812.043	0.0142429
812.121	0.0142332
812.200	0.0141846
812.278	0.0141306
812.356	0.0140626
812.434	0.0140783
812.512	0.0140906
812.590	0.0140886
812.668	0.0140811
812.746	0.0139469
812.825	0.0139870
812.903	0.0141011
812.981	0.0141216
813.059	0.0140711
813.137	0.0141019
813.215	0.0139880
813.293	0.0139713
813.371	0.0140774
813.450	0.0141257
813.528	0.0141704
813.606	0.0142390
813.684	0.0142059
813.762	0.0141827
813.840	0.0141878
813.918	0.0140462
813.996	0.0142487
814.075	0.0142426
814.153	0.0139391
814.231	0.0140173
814.309	0.0141228
814.387	0.0142060
814.465	0.0141602
814.543	0.0141266
814.621	0.0141430
814.700	0.0140952
814.778	0.0140556
814.856	0.0141829
814.934	0.0141409
815.012	0.0141592
815.090	0.0140009
815.168	0.0140215
815.246	0.0140544
815.325	0.0140694
815.403	0.0140414
815.481	0.0139723
815.559	0.0140127
815.637	0.0141154
815.715	0.0140730
815.793	0.0141034
815.871	0.0140629
815.950	0.0140492
816.028	0.0141939
816.106	0.0140697
816.184	0.0141734
816.262	0.0140595
816.340	0.0140896
816.418	0.0141102
816.496	0.0141936
816.575	0.0140744
816.653	0.0140859
816.731	0.0142184
816.809	0.0142982
816.887	0.0140589
816.965	0.0143098
817.043	0.0141587
817.121	0.0141364
817.200	0.0142805
817.278	0.0141226
817.356	0.0142320
817.434	0.0141930
817.512	0.0140572
817.590	0.0140659
817.668	0.0139755
817.746	0.0140707
817.825	0.0141233
817.903	0.0139725
817.981	0.0140234
818.059	0.0141201
818.137	0.0140654
818.215	0.0139619
818.293	0.0140056
818.371	0.0139959
818.450	0.0140091
818.528	0.0141509
818.606	0.0140539
818.684	0.0139392
818.762	0.0139923
818.840	0.0140088
818.918	0.0140391
818.996	0.0140311
819.075	0.0140498
819.153	0.0140797
819.231	0.0140202
819.309	0.0140982
819.387	0.0139648
819.465	0.0140495
819.543	0.0141747
819.621	0.0140522
819.700	0.0140041
819.778	0.0140631
819.856	0.0140414
819.934	0.0140800
820.012	0.0140788
820.090	0.0139787
820.168	0.0140537
820.246	0.0140881
820.325	0.0141338
820.403	0.0140471
820.481	0.0141157
820.559	0.0139904
820.637	0.0139983
820.715	0.0141378
820.793	0.0139918
820.871	0.0140417
820.950	0.0139771
821.028	0.0139951
821.106	0.0140051
821.184	0.0140328
821.262	0.0139626
821.340	0.0140593
821.418	0.0140723
821.496	0.0140591
821.575	0.0140530
821.653	0.0141074
821.731	0.0140733
821.809	0.0140812
821.887	0.0141850
821.965	0.0141427
822.043	0.0140544
822.121	0.0140749
822.200	0.0140723
822.278	0.0141051
822.356	0.0141042
822.434	0.0140665
822.512	0.0141502
822.590	0.0141966
822.668	0.0141727
822.746	0.0142174
822.825	0.0140878
822.903	0.0141817
822.981	0.0141439
823.059	0.0140323
823.137	0.0140444
823.215	0.0141497
823.293	0.0140604
823.371	0.0142149
823.450	0.0140633
823.528	0.0139787
823.606	0.0139983
823.684	0.0139760
823.762	0.0138008
823.840	0.0139687
823.918	0.0139337
823.996	0.0138240
824.075	0.0142260
824.153	0.0140209
824.231	0.0140192
824.309	0.0139941
824.387	0.0140801
824.465	0.0141098
824.543	0.0141054
824.621	0.0141272
824.700	0.0140132
824.778	0.0140173
824.856	0.0139912
824.934	0.0141461
825.012	0.0141554
825.090	0.0140135
825.168	0.0140627
825.246	0.0140301
825.325	0.0138708
825.403	0.0140876
825.481	0.0140877
825.559	0.0140967
825.637	0.0139215
825.715	0.0139217
825.793	0.0139962
825.871	0.0140251
825.950	0.0139394
826.028	0.0140515
826.106	0.0139543
826.184	0.0137692
826.262	0.0140264
826.340	0.0139651
826.418	0.0140381
826.496	0.0140346
826.575	0.0138865
826.653	0.0139010
826.731	0.0140732
826.809	0.0140189
826.887	0.0139963
826.965	0.0139840
827.043	0.0141067
827.121	0.0140881
827.200	0.0140549
827.278	0.0140834
827.356	0.0139778
827.434	0.0141103
827.512	0.0140987
827.590	0.0140306
827.668	0.0140029
827.746	0.0140417
827.825	0.0140713
827.903	0.0140898
827.981	0.0140814
828.059	0.0141916
828.137	0.0142165
828.215	0.0141700
828.293	0.0140659
828.371	0.0141113
828.450	0.0141620
828.528	0.0142577
828.606	0.0140206
828.684	0.0141479
828.762	0.0141880
828.840	0.0141016
828.918	0.0140587
828.996	0.0142200
829.075	0.0141683
829.153	0.0139679
829.231	0.0141616
829.309	0.0141196
829.387	0.0140334
829.465	0.0141904
829.543	0.0142136
829.621	0.0140388
829.700	0.0141367
829.778	0.0142059
829.856	0.0140624
829.934	0.0141225
830.012	0.0140366
830.090	0.0140663
830.168	0.0140839
830.246	0.0141849
830.325	0.0142408
830.403	0.0141348
830.481	0.0140723
830.559	0.0141258
830.637	0.0141147
830.715	0.0140116
830.793	0.0141160
830.871	0.0141144
830.950	0.0140293
831.028	0.0141863
831.106	0.0139673
831.184	0.0142204
831.262	0.0140258
831.340	0.0140291
831.418	0.0141230
831.496	0.0140448
831.575	0.0140029
831.653	0.0140903
831.731	0.0141751
831.809	0.0141881
831.887	0.0140060
831.965	0.0138966
832.043	0.0140952
832.121	0.0141600
832.200	0.0141280
832.278	0.0140718
832.356	0.0140898
832.434	0.0140937
832.512	0.0140398
832.590	0.0141126
832.668	0.0139877
832.746	0.0141247
832.825	0.0141365
832.903	0.0139953
832.981	0.0139946
833.059	0.0141544
833.137	0.0140665
833.215	0.0139391
833.293	0.0139269
833.371	0.0140096
833.450	0.0140199
833.528	0.0140759
833.606	0.0140390
833.684	0.0139291
833.762	0.0140733
833.840	0.0141233
833.918	0.0140397
833.996	0.0140356
834.075	0.0139869
834.153	0.0140901
834.231	0.0140695
834.309	0.0140312
834.387	0.0140118
834.465	0.0140966
834.543	0.0139673
834.621	0.0141287
834.700	0.0140974
834.778	0.0140201
834.856	0.0141117
834.934	0.0141010
835.012	0.0141353
835.090	0.0140150
835.168	0.0140755
835.246	0.0141007
835.325	0.0140016
835.403	0.0139402
835.481	0.0139497
835.559	0.0139734
835.637	0.0141100
835.715	0.0140031
835.793	0.0139921
835.871	0.0141029
835.950	0.0139894
836.028	0.0140327
836.106	0.0139821
836.184	0.0140459
836.262	0.0139406
836.340	0.0140854
836.418	0.0140470
836.496	0.0140681
836.575	0.0140723
836.653	0.0140967
836.731	0.0140342
836.809	0.0140706
836.887	0.0140763
836.965	0.0140192
837.043	0.0141920
837.121	0.0140995
837.200	0.0140885
837.278	0.0142245
837.356	0.0141724
837.434	0.0139767
837.512	0.0141322
837.590	0.0143166
837.668	0.0142382
837.746	0.0140497
837.825	0.0141119
837.903	0.0140034
837.981	0.0141781
838.059	0.0143020
838.137	0.0140585
838.215	0.0141296
838.293	0.0141552
838.371	0.0142816
838.450	0.0143937
838.528	0.0140450
838.606	0.0141143
838.684	0.0143011
838.762	0.0140807
838.840	0.0140947
838.918	0.0143434
838.996	0.0142947
839.075	0.0141521
839.153	0.0142596
839.231	0.0143539
839.309	0.0142274
839.387	0.0143004
839.465	0.0142401
839.543	0.0142685
839.621	0.0142670
839.700	0.0142554
839.778	0.0141822
839.856	0.0141447
839.934	0.0143294
840.012	0.0141981
840.090	0.0141264
840.168	0.0141267
840.246	0.0141840
840.325	0.0142023
840.403	0.0140733
840.481	0.0141538
840.559	0.0139959
840.637	0.0141219
840.715	0.0141323
840.793	0.0141936
840.871	0.0140905
840.950	0.0140211
841.028	0.0140109
841.106	0.0139716
841.184	0.0141560
841.262	0.0141705
841.340	0.0141235
841.418	0.0141346
841.496	0.0141009
841.575	0.0140347
841.653	0.0140240
841.731	0.0141076
841.809	0.0141217
841.887	0.0141678
841.965	0.0141508
842.043	0.0140623
842.121	0.0140401
842.200	0.0139549
842.278	0.0140028
842.356	0.0141511
842.434	0.0140312
842.512	0.0140805
842.590	0.0140958
842.668	0.0140877
842.746	0.0141568
842.825	0.0141882
842.903	0.0140723
842.981	0.0141117
843.059	0.0140815
843.137	0.0139540
843.215	0.0139397
843.293	0.0141516
843.371	0.0141015
843.450	0.0140375
843.528	0.0141319
843.606	0.0141413
843.684	0.0139164
843.762	0.0140281
843.840	0.0141273
843.918	0.0140839
843.996	0.0141464
844.075	0.0141525
844.153	0.0139821
844.231	0.0139986
844.309	0.0139548
844.387	0.0140392
844.465	0.0140872
844.543	0.0141552
844.621	0.0141698
844.700	0.0140076
844.778	0.0139269
844.856	0.0139622
844.934	0.0140453
845.012	0.0140950
845.090	0.0139979
845.168	0.0140819
845.246	0.0140528
845.325	0.0139858
845.403	0.0140855
845.481	0.0140630
845.559	0.0140196
845.637	0.0138676
845.715	0.0138649
845.793	0.0140382
845.871	0.0139219
845.950	0.0140898
846.028	0.0139653
846.106	0.0139887
846.184	0.0138490
846.262	0.0140247
846.340	0.0141771
846.418	0.0141019
846.496	0.0141097
846.575	0.0139368
846.653	0.0140479
846.731	0.0140453
846.809	0.0140184
846.887	0.0139787
846.965	0.0140136
847.043	0.0140461
847.121	0.0140685
847.200	0.0139647
847.278	0.0139887
847.356	0.0139620
847.434	0.0139854
847.512	0.0139921
847.590	0.0139960
847.668	0.0140459
847.746	0.0139304
847.825	0.0140284
847.903	0.0141441
847.981	0.0141329
848.059	0.0139177
848.137	0.0139648
848.215	0.0138293
848.293	0.0139680
848.371	0.0140282
848.450	0.0139066
848.528	0.0140053
848.606	0.0140399
848.684	0.0139758
848.762	0.0139567
848.840	0.0139223
848.918	0.0141137
848.996	0.0140450
849.075	0.0140057
849.153	0.0139776
849.231	0.0140989
849.309	0.0139666
849.387	0.0140238
849.465	0.0140823
849.543	0.0140770
849.621	0.0140733
849.700	0.0140290
849.778	0.0140732
849.856	0.0140942
849.934	0.0141264
850.012	0.0141016
850.090	0.0141734
850.168	0.0142506
850.246	0.0141678
850.325	0.0140314
850.403	0.0139874
850.481	0.0142333
850.559	0.0140701
850.637	0.0140001
850.715	0.0141724
850.793	0.0141661
850.871	0.0142315
850.950	0.0140723
851.028	0.0141035
851.106	0.0141513
851.184	0.0140687
851.262	0.0140105
851.340	0.0142880
851.418	0.0140212
851.496	0.0140381
851.575	0.0142693
851.653	0.0140724
851.731	0.0141116
851.809	0.0141311
851.887	0.0141630
851.965	0.0140975
852.043	0.0141512
852.121	0.0140049
852.200	0.0139021
852.278	0.0140054
852.356	0.0140324
852.434	0.0140299
852.512	0.0140879
852.590	0.0140104
852.668	0.0140477
852.746	0.0140980
852.825	0.0140317
852.903	0.0138562
852.981	0.0140410
853.059	0.0139788
853.137	0.0140285
853.215	0.0139609
853.293	0.0140158
853.371	0.0140990
853.450	0.0140032
853.528	0.0141247
853.606	0.0139620
853.684	0.0142692
853.762	0.0141038
853.840	0.0141311
853.918	0.0141145
853.996	0.0140145
854.075	0.0141773
854.153	0.0141635
854.231	0.0141557
854.309	0.0141769
854.387	0.0141403
854.465	0.0141161
854.543	0.0141312
854.621	0.0141740
854.700	0.0140939
854.778	0.0141354
854.856	0.0141422
854.934	0.0141602
855.012	0.0141137
855.090	0.0140431
855.168	0.0141102
855.246	0.0140518
855.325	0.0141340
855.403	0.0141653
855.481	0.0140772
855.559	0.0140757
855.637	0.0141177
855.715	0.0141032
855.793	0.0141131
855.871	0.0142139
855.950	0.0141646
856.028	0.0141335
856.106	0.0140380
856.184	0.0140945
856.262	0.0140465
856.340	0.0140819
856.418	0.0141148
856.496	0.0141142
856.575	0.0139180
856.653	0.0140348
856.731	0.0141051
856.809	0.0140656
856.887	0.0140816
856.965	0.0139688
857.043	0.0141030
857.121	0.0140203
857.200	0.0139074
857.278	0.0141368
857.356	0.0140870
857.434	0.0139391
857.512	0.0140768
857.590	0.0140865
857.668	0.0140157
857.746	0.0141251
857.825	0.0140135
857.903	0.0140981
857.981	0.0141676
858.059	0.0140244
858.137	0.0140785
858.215	0.0139732
858.293	0.0140180
858.371	0.0140104
858.450	0.0141127
858.528	0.0140750
858.606	0.0141180
858.684	0.0140837
858.762	0.0140992
858.840	0.0139880
858.918	0.0141061
858.996	0.0140761
859.075	0.0139954
859.153	0.0140292
859.231	0.0139971
859.309	0.0140665
859.387	0.0140981
859.465	0.0139056
859.543	0.0140967
859.621	0.0141930
859.700	0.0139944
859.778	0.0139990
859.856	0.0141278
859.934	0.0140940
860.012	0.0139999
860.090	0.0139472
860.168	0.0140744
860.246	0.0141070
860.325	0.0140045
860.403	0.0139327
860.481	0.0142233
860.559	0.0141069
860.637	0.0140096
860.715	0.0140043
860.793	0.0140874
860.871	0.0140840
860.950	0.0141283
861.028	0.0140915
861.106	0.0141053
861.184	0.0139825
861.262	0.0140396
861.340	0.0142324
861.418	0.0141905
861.496	0.0139703
861.575	0.0141573
861.653	0.0142204
861.731	0.0141344
861.809	0.0141368
861.887	0.0139228
861.965	0.0139188
862.043	0.0141761
862.121	0.0141230
862.200	0.0140474
862.278	0.0139529
862.356	0.0141359
862.434	0.0140063
862.512	0.0140649
862.590	0.0141468
862.668	0.0141744
862.746	0.0140467
862.825	0.0140454
862.903	0.0140500
862.981	0.0141766
863.059	0.0142952
863.137	0.0139741
863.215	0.0140427
863.293	0.0141246
863.371	0.0141577
863.450	0.0141451
863.528	0.0140302
863.606	0.0140311
863.684	0.0140388
863.762	0.0140469
863.840	0.0141042
863.918	0.0140153
863.996	0.0140685
864.075	0.0141162
864.153	0.0141048
864.231	0.0141466
864.309	0.0139974
864.387	0.0139992
864.465	0.0140951
864.543	0.0140685
864.621	0.0142693
864.700	0.0141531
864.778	0.0139118
864.856	0.0140494
864.934	0.0139649
865.012	0.0140490
865.090	0.0140084
865.168	0.0139713
865.246	0.0139525
865.325	0.0139668
865.403	0.0140487
865.481	0.0141643
865.559	0.0139903
865.637	0.0140340
865.715	0.0140401
865.793	0.0140200
865.871	0.0140862
865.950	0.0140728
866.028	0.0140069
866.106	0.0139679
866.184	0.0140285
866.262	0.0140208
866.340	0.0139977
866.418	0.0140066
866.496	0.0140068
866.575	0.0140949
866.653	0.0139568
866.731	0.0138774
866.809	0.0140387
866.887	0.0141193
866.965	0.0139577
867.043	0.0138814
867.121	0.0139940
867.200	0.0139040
867.278	0.0138980
867.356	0.0139225
867.434	0.0141013
867.512	0.0141017
867.590	0.0141075
867.668	0.0140918
867.746	0.0141248
867.825	0.0140528
867.903	0.0139039
867.981	0.0140534
868.059	0.0140290
868.137	0.0140381
868.215	0.0139564
868.293	0.0140416
868.371	0.0139722
868.450	0.0139081
868.528	0.0140047
868.606	0.0141277
868.684	0.0140831
868.762	0.0139874
868.840	0.0139545
868.918	0.0141441
868.996	0.0140955
869.075	0.0140370
869.153	0.0140279
869.231	0.0140231
869.309	0.0141108
869.387	0.0139420
869.465	0.0140277
869.543	0.0139126
869.621	0.0139843
869.700	0.0140206
869.778	0.0140295
869.856	0.0140883
869.934	0.0140457
870.012	0.0140566
870.090	0.0140939
870.168	0.0139803
870.246	0.0140377
870.325	0.0140810
870.403	0.0140462
870.481	0.0140939
870.559	0.0140770
870.637	0.0140533
870.715	0.0141150
870.793	0.0140097
870.871	0.0141129
870.950	0.0138799
871.028	0.0139383
871.106	0.0139707
871.184	0.0138637
871.262	0.0140488
871.340	0.0140374
871.418	0.0139329
871.496	0.0140676
871.575	0.0140604
871.653	0.0140398
871.731	0.0140625
871.809	0.0139400
871.887	0.0139801
871.965	0.0140408
872.043	0.0140616
872.121	0.0139246
872.200	0.0139748
872.278	0.0139320
872.356	0.0139443
872.434	0.0140582
872.512	0.0139930
872.590	0.0140353
872.668	0.0140631
872.746	0.0140623
872.825	0.0141158
872.903	0.0140280
872.981	0.0139208
873.059	0.0140176
873.137	0.0139499
873.215	0.0141158
873.293	0.0140413
873.371	0.0140600
873.450	0.0140419
873.528	0.0140623
873.606	0.0140546
873.684	0.0140859
873.762	0.0139738
873.840	0.0140838
873.918	0.0141245
873.996	0.0140704
874.075	0.0139743
874.153	0.0140585
874.231	0.0141858
874.309	0.0140790
874.387	0.0140662
874.465	0.0141772
874.543	0.0142154
874.621	0.0140003
874.700	0.0139584
874.778	0.0140704
874.856	0.0140120
874.934	0.0140015
875.012	0.0140327
875.090	0.0140685
875.168	0.0140792
875.246	0.0139958
875.325	0.0141708
875.403	0.0141819
875.481	0.0142663
875.559	0.0140385
875.637	0.0142899
875.715	0.0141953
875.793	0.0142659
875.871	0.0141707
875.950	0.0141936
876.028	0.0141811
876.106	0.0140553
876.184	0.0140362
876.262	0.0142866
876.340	0.0141508
876.418	0.0141815
876.496	0.0140527
876.575	0.0140376
876.653	0.0140459
876.731	0.0141733
876.809	0.0140390
876.887	0.0139365
876.965	0.0141608
877.043	0.0139684
877.121	0.0142316
877.200	0.0141592
877.278	0.0141895
877.356	0.0141557
877.434	0.0141018
877.512	0.0142224
877.590	0.0139697
877.668	0.0142506
877.746	0.0141235
877.825	0.0140393
877.903	0.0139687
877.981	0.0140293
878.059	0.0140325
878.137	0.0139949
878.215	0.0139697
878.293	0.0140946
878.371	0.0141263
878.450	0.0141592
878.528	0.0141367
878.606	0.0141944
878.684	0.0140537
878.762	0.0141179
878.840	0.0141595
878.918	0.0140958
878.996	0.0141135
879.075	0.0141840
879.153	0.0141080
879.231	0.0140045
879.309	0.0141796
879.387	0.0141939
879.465	0.0139719
879.543	0.0139213
879.621	0.0138551
879.700	0.0139091
879.778	0.0140295
879.856	0.0138519
879.934	0.0139677
880.012	0.0139597
880.090	0.0137239
880.168	0.0139877
880.246	0.0140215
880.325	0.0139796
880.403	0.0140930
880.481	0.0139017
880.559	0.0139887
880.637	0.0141006
880.715	0.0141167
880.793	0.0140387
880.871	0.0140696
880.950	0.0139918
881.028	0.0140208
881.106	0.0139628
881.184	0.0139615
881.262	0.0140237
881.340	0.0139973
881.418	0.0141553
881.496	0.0140968
881.575	0.0140742
881.653	0.0140053
881.731	0.0140138
881.809	0.0139998
881.887	0.0139723
881.965	0.0140108
882.043	0.0139848
882.121	0.0140605
882.200	0.0140037
882.278	0.0139238
882.356	0.0140929
882.434	0.0141145
882.512	0.0140594
882.590	0.0139754
882.668	0.0139265
882.746	0.0139785
882.825	0.0139763
882.903	0.0140086
882.981	0.0140134
883.059	0.0141355
883.137	0.0140658
883.215	0.0140809
883.293	0.0140987
883.371	0.0141705
883.450	0.0141566
883.528	0.0140645
883.606	0.0140829
883.684	0.0140863
883.762	0.0140701
883.840	0.0140774
883.918	0.0140317
883.996	0.0140245
884.075	0.0141235
884.153	0.0140395
884.231	0.0140690
884.309	0.0141594
884.387	0.0140936
884.465	0.0140799
884.543	0.0141135
884.621	0.0141209
884.700	0.0140908
884.778	0.0140913
884.856	0.0140413
884.934	0.0142032
885.012	0.0141235
885.090	0.0140816
885.168	0.0140815
885.246	0.0141177
885.325	0.0141642
885.403	0.0140700
885.481	0.0140494
885.559	0.0140240
885.637	0.0139996
885.715	0.0141730
885.793	0.0141356
885.871	0.0140454
885.950	0.0140041
886.028	0.0142326
886.106	0.0142462
886.184	0.0142400
886.262	0.0141383
886.340	0.0142113
886.418	0.0142397
886.496	0.0141243
886.575	0.0140713
886.653	0.0141537
886.731	0.0142028
886.809	0.0140968
886.887	0.0141796
886.965	0.0141353
887.043	0.0141397
887.121	0.0140885
887.200	0.0140400
887.278	0.0141127
887.356	0.0140458
887.434	0.0140564
887.512	0.0141586
887.590	0.0140691
887.668	0.0141403
887.746	0.0140684
887.825	0.0141209
887.903	0.0142611
887.981	0.0142049
888.059	0.0141103
888.137	0.0141636
888.215	0.0142185
888.293	0.0141449
888.371	0.0141708
888.450	0.0139783
888.528	0.0140240
888.606	0.0140190
888.684	0.0139700
888.762	0.0138875
888.840	0.0139826
888.918	0.0139051
888.996	0.0139661
889.075	0.0140098
889.153	0.0140253
889.231	0.0139901
889.309	0.0139859
889.387	0.0140813
889.465	0.0139174
889.543	0.0138406
889.621	0.0139884
889.700	0.0139354
889.778	0.0140016
889.856	0.0140099
889.934	0.0139537
890.012	0.0139497
890.090	0.0140455
890.168	0.0140511
890.246	0.0139731
890.325	0.0139439
890.403	0.0139153
890.481	0.0139584
890.559	0.0138796
890.637	0.0140022
890.715	0.0141517
890.793	0.0141689
890.871	0.0140926
890.950	0.0141046
891.028	0.0139784
891.106	0.0140820
891.184	0.0140546
891.262	0.0139944
891.340	0.0140236
891.418	0.0140052
891.496	0.0139822
891.575	0.0139204
891.653	0.0140287
891.731	0.0140435
891.809	0.0140490
891.887	0.0140066
891.965	0.0141498
892.043	0.0140568
892.121	0.0139913
892.200	0.0141651
892.278	0.0140157
892.356	0.0141242
892.434	0.0141542
892.512	0.0140957
892.590	0.0141442
892.668	0.0141936
892.746	0.0140197
892.825	0.0141030
892.903	0.0140550
892.981	0.0141976
893.059	0.0141462
893.137	0.0141344
893.215	0.0141887
893.293	0.0142549
893.371	0.0141085
893.450	0.0143033
893.528	0.0141537
893.606	0.0141387
893.684	0.0141558
893.762	0.0141640
893.840	0.0141463
893.918	0.0140681
893.996	0.0139971
894.075	0.0141084
894.153	0.0142197
894.231	0.0140299
894.309	0.0141264
894.387	0.0141985
894.465	0.0140453
894.543	0.0141904
894.621	0.0140626
894.700	0.0139234
894.778	0.0141614
894.856	0.0140259
894.934	0.0140315
895.012	0.0142037
895.090	0.0141513
895.168	0.0141487
895.246	0.0142300
895.325	0.0141988
895.403	0.0142142
895.481	0.0141983
895.559	0.0141387
895.637	0.0140541
895.715	0.0141567
895.793	0.0141159
895.871	0.0140233
895.950	0.0141528
896.028	0.0139366
896.106	0.0140847
896.184	0.0140433
896.262	0.0140999
896.340	0.0140322
896.418	0.0140911
896.496	0.0140887
896.575	0.0141104
896.653	0.0141628
896.731	0.0140097
896.809	0.0140567
896.887	0.0140236
896.965	0.0141489
897.043	0.0141968
897.121	0.0140485
897.200	0.0140369
897.278	0.0141822
897.356	0.0142274
897.434	0.0140717
897.512	0.0142775
897.590	0.0141485
897.668	0.0141371
897.746	0.0142216
897.825	0.0143416
897.903	0.0142161
897.981	0.0142371
898.059	0.0142147
898.137	0.0141939
898.215	0.0141761
898.293	0.0141876
898.371	0.0142070
898.450	0.0141876
898.528	0.0141415
898.606	0.0141311
898.684	0.0139923
898.762	0.0140926
898.840	0.0140694
898.918	0.0140800
898.996	0.0141735
899.075	0.0140727
899.153	0.0139386
899.231	0.0141396
899.309	0.0140517
899.387	0.0139321
899.465	0.0141461
899.543	0.0141077
899.621	0.0139230
899.700	0.0139822
899.778	0.0140894
899.856	0.0139629
899.934	0.0140875
900.012	0.0140401
900.090	0.0140462
900.168	0.0139890
900.246	0.0141307
900.325	0.0140392
900.403	0.0140699
900.481	0.0140662
900.559	0.0141219
900.637	0.0140132
900.715	0.0140306
900.793	0.0141100
900.871	0.0139965
900.950	0.0139306
901.028	0.0139486
901.106	0.0139530
901.184	0.0139574
901.262	0.0140961
901.340	0.0139687
901.418	0.0138150
901.496	0.0138721
901.575	0.0139522
901.653	0.0140414
901.731	0.0138587
901.809	0.0139630
901.887	0.0139537
901.965	0.0139182
902.043	0.0139378
902.121	0.0139368
902.200	0.0140103
902.278	0.0139613
902.356	0.0140235
902.434	0.0140141
902.512	0.0141022
902.590	0.0141167
902.668	0.0140960
902.746	0.0141752
902.825	0.0139491
902.903	0.0139930
902.981	0.0142178
903.059	0.0140466
903.137	0.0140622
903.215	0.0141837
903.293	0.0140749
903.371	0.0142009
903.450	0.0142121
903.528	0.0141404
903.606	0.0141358
903.684	0.0142968
903.762	0.0141402
903.840	0.0142011
903.918	0.0142764
903.996	0.0141486
904.075	0.0141302
904.153	0.0139876
904.231	0.0141290
904.309	0.0142129
904.387	0.0140765
904.465	0.0140260
904.543	0.0141787
904.621	0.0141181
904.700	0.0140555
904.778	0.0139436
904.856	0.0142677
904.934	0.0142047
905.012	0.0140409
905.090	0.0141542
905.168	0.0141950
905.246	0.0141452
905.325	0.0141342
905.403	0.0142059
905.481	0.0140210
905.559	0.0141983
905.637	0.0142428
905.715	0.0140930
905.793	0.0140150
905.871	0.0140945
905.950	0.0139699
906.028	0.0141718
906.106	0.0141019
906.184	0.0140968
906.262	0.0139630
906.340	0.0139078
906.418	0.0140804
906.496	0.0140300
906.575	0.0140971
906.653	0.0138953
906.731	0.0140892
906.809	0.0140765
906.887	0.0141347
906.965	0.0140541
907.043	0.0140249
907.121	0.0139922
907.200	0.0140015
907.278	0.0139171
907.356	0.0139902
907.434	0.0140187
907.512	0.0139707
907.590	0.0139873
907.668	0.0141336
907.746	0.0140053
907.825	0.0142239
907.903	0.0141903
907.981	0.0139497
908.059	0.0140385
908.137	0.0141009
908.215	0.0141775
908.293	0.0142559
908.371	0.0142009
908.450	0.0141316
908.528	0.0140162
908.606	0.0141004
908.684	0.0143561
908.762	0.0139891
908.840	0.0140495
908.918	0.0139538
908.996	0.0141862
909.075	0.0140652
909.153	0.0141634
909.231	0.0140357
909.309	0.0140025
909.387	0.0139074
909.465	0.0139159
909.543	0.0141035
909.621	0.0140412
909.700	0.0140125
909.778	0.0141491
909.856	0.0140041
909.934	0.0141840
910.012	0.0142168
910.090	0.0139673
910.168	0.0141745
910.246	0.0140727
910.325	0.0140762
910.403	0.0139709
910.481	0.0141072
910.559	0.0142178
910.637	0.0140258
910.715	0.0140372
910.793	0.0141874
910.871	0.0140160
910.950	0.0140427
911.028	0.0142055
911.106	0.0141792
911.184	0.0140789
911.262	0.0140293
911.340	0.0141412
911.418	0.0141470
911.496	0.0139892
911.575	0.0141141
911.653	0.0140718
911.731	0.0141889
911.809	0.0141062
911.887	0.0140572
911.965	0.0141387
912.043	0.0141716
912.121	0.0141108
912.200	0.0140595
912.278	0.0141575
912.356	0.0139587
912.434	0.0140823
912.512	0.0141763
912.590	0.0140696
912.668	0.0142715
912.746	0.0141508
912.825	0.0141197
912.903	0.0140923
912.981	0.0140746
913.059	0.0142438
913.137	0.0139786
913.215	0.0140253
913.293	0.0141110
913.371	0.0141121
913.450	0.0139799
913.528	0.0140421
913.606	0.0141682
913.684	0.0141108
913.762	0.0142033
913.840	0.0141031
913.918	0.0140696
913.996	0.0140621
914.075	0.0141531
914.153	0.0140889
914.231	0.0140920
914.309	0.0141171
914.387	0.0142130
914.465	0.0142431
914.543	0.0141076
914.621	0.0141476
914.700	0.0142286
914.778	0.0141737
914.856	0.0141064
914.934	0.0141930
915.012	0.0140260
915.090	0.0141567
915.168	0.0141817
915.246	0.0140442
915.325	0.0140527
915.403	0.0141197
915.481	0.0141889
915.559	0.0142378
915.637	0.0142126
915.715	0.0143051
915.793	0.0140730
915.871	0.0141975
915.950	0.0143312
916.028	0.0141246
916.106	0.0140996
916.184	0.0141682
916.262	0.0142921
916.340	0.0142377
916.418	0.0142424
916.496	0.0141087
916.575	0.0142337
916.653	0.0141286
916.731	0.0141503
916.809	0.0142792
916.887	0.0142318
916.965	0.0142283
917.043	0.0142534
917.121	0.0141450
917.200	0.0141166
917.278	0.0143991
917.356	0.0142698
917.434	0.0140549
917.512	0.0142479
917.590	0.0141158
917.668	0.0142623
917.746	0.0141689
917.825	0.0141075
917.903	0.0140614
917.981	0.0141293
918.059	0.0140073
918.137	0.0141792
918.215	0.0142160
918.293	0.0142277
918.371	0.0140221
918.450	0.0140342
918.528	0.0141388
918.606	0.0141290
918.684	0.0140784
918.762	0.0141390
918.840	0.0141605
918.918	0.0141335
918.996	0.0140588
919.075	0.0141561
919.153	0.0141000
919.231	0.0142142
919.309	0.0141305
919.387	0.0140733
919.465	0.0140912
919.543	0.0140324
919.621	0.0141023
919.700	0.0141405
919.778	0.0141998
919.856	0.0142043
919.934	0.0141357
920.012	0.0141031
920.090	0.0140749
920.168	0.0141718
920.246	0.0141918
920.325	0.0141504
920.403	0.0142217
920.481	0.0142242
920.559	0.0143271
920.637	0.0141937
920.715	0.0141666
920.793	0.0140450
920.871	0.0142489
920.950	0.0140468
921.028	0.0141710
921.106	0.0141084
921.184	0.0141354
921.262	0.0140055
921.340	0.0140649
921.418	0.0141615
921.496	0.0141065
921.575	0.0140472
921.653	0.0140974
921.731	0.0141231
921.809	0.0141325
921.887	0.0139622
921.965	0.0140830
922.043	0.0140855
922.121	0.0141886
922.200	0.0141911
922.278	0.0142226
922.356	0.0140815
922.434	0.0140338
922.512	0.0141353
922.590	0.0142382
922.668	0.0141021
922.746	0.0140942
922.825	0.0141061
922.903	0.0140105
922.981	0.0142400
923.059	0.0141226
923.137	0.0141627
923.215	0.0140511
923.293	0.0140699
923.371	0.0140839
923.450	0.0141027
923.528	0.0140872
923.606	0.0140903
923.684	0.0141176
923.762	0.0141162
923.840	0.0141120
923.918	0.0141921
923.996	0.0139604
924.075	0.0142130
924.153	0.0141978
924.231	0.0142126
924.309	0.0143206
924.387	0.0139707
924.465	0.0140298
924.543	0.0142490
924.621	0.0141058
924.700	0.0140693
924.778	0.0141984
924.856	0.0140660
924.934	0.0139713
925.012	0.0139396
925.090	0.0140089
925.168	0.0140078
925.246	0.0140038
925.325	0.0139278
925.403	0.0138783
925.481	0.0138649
925.559	0.0140517
925.637	0.0139644
925.715	0.0139760
925.793	0.0138995
925.871	0.0139841
925.950	0.0139440
926.028	0.0139745
926.106	0.0138499
926.184	0.0139556
926.262	0.0140747
926.340	0.0139650
926.418	0.0138793
926.496	0.0138521
926.575	0.0139332
926.653	0.0138945
926.731	0.0139822
926.809	0.0139783
926.887	0.0139268
926.965	0.0139360
927.043	0.0138677
927.121	0.0141488
927.200	0.0140394
927.278	0.0140005
927.356	0.0139584
927.434	0.0140344
927.512	0.0140348
927.590	0.0139510
927.668	0.0139077
927.746	0.0140017
927.825	0.0139384
927.903	0.0139674
927.981	0.0139862
928.059	0.0138947
928.137	0.0139233
928.215	0.0138830
928.293	0.0138457
928.371	0.0139278
928.450	0.0139766
928.528	0.0138766
928.606	0.0139084
928.684	0.0138132
928.762	0.0140150
928.840	0.0140308
928.918	0.0139758
928.996	0.0139252
929.075	0.0139848
929.153	0.0140325
929.231	0.0140372
929.309	0.0139674
929.387	0.0139676
929.465	0.0140341
929.543	0.0140273
929.621	0.0140453
929.700	0.0141182
929.778	0.0140042
929.856	0.0140914
929.934	0.0141187
930.012	0.0139983
930.090	0.0140660
930.168	0.0141486
930.246	0.0141098
930.325	0.0139715
930.403	0.0141343
930.481	0.0140292
930.559	0.0141080
930.637	0.0141224
930.715	0.0141287
930.793	0.0141609
930.871	0.0142345
930.950	0.0141427
931.028	0.0141240
931.106	0.0141386
931.184	0.0139865
931.262	0.0141412
931.340	0.0143026
931.418	0.0140834
931.496	0.0142048
931.575	0.0140807
931.653	0.0141455
931.731	0.0141145
931.809	0.0142668
931.887	0.0141134
931.965	0.0140224
932.043	0.0141396
932.121	0.0142554
932.200	0.0140920
932.278	0.0142677
932.356	0.0140936
932.434	0.0141261
932.512	0.0141597
932.590	0.0140433
932.668	0.0140896
932.746	0.0142718
932.825	0.0140765
932.903	0.0140875
932.981	0.0141493
933.059	0.0141552
933.137	0.0141203
933.215	0.0142356
933.293	0.0139932
933.371	0.0141607
933.450	0.0141619
933.528	0.0140012
933.606	0.0139758
933.684	0.0141645
933.762	0.0140652
933.840	0.0140395
933.918	0.0140039
933.996	0.0141335
934.075	0.0141310
934.153	0.0138868
934.231	0.0139538
934.309	0.0139706
934.387	0.0140467
934.465	0.0140881
934.543	0.0139954
934.621	0.0141265
934.700	0.0140960
934.778	0.0140232
934.856	0.0140467
934.934	0.0139833
935.012	0.0140057
935.090	0.0139776
935.168	0.0140474
935.246	0.0140903
935.325	0.0140029
935.403	0.0140711
935.481	0.0140009
935.559	0.0140002
935.637	0.0140350
935.715	0.0140366
935.793	0.0139385
935.871	0.0141055
935.950	0.0139882
936.028	0.0138544
936.106	0.0139953
936.184	0.0139296
936.262	0.0140154
936.340	0.0139002
936.418	0.0139545
936.496	0.0139389
936.575	0.0140363
936.653	0.0139120
936.731	0.0138517
936.809	0.0139650
936.887	0.0139306
936.965	0.0138170
937.043	0.0139136
937.121	0.0141058
937.200	0.0139691
937.278	0.0139591
937.356	0.0139355
937.434	0.0139290
937.512	0.0141342
937.590	0.0141339
937.668	0.0140381
937.746	0.0140609
937.825	0.0139452
937.903	0.0138562
937.981	0.0139604
938.059	0.0140189
938.137	0.0140055
938.215	0.0138935
938.293	0.0140753
938.371	0.0139827
938.450	0.0139059
938.528	0.0141193
938.606	0.0140982
938.684	0.0139703
938.762	0.0140948
938.840	0.0139803
938.918	0.0140039
938.996	0.0141149
939.075	0.0141494
939.153	0.0140995
939.231	0.0142240
939.309	0.0140881
939.387	0.0140894
939.465	0.0140741
939.543	0.0140472
939.621	0.0141669
939.700	0.0140992
939.778	0.0140594
939.856	0.0140797
939.934	0.0140659
940.012	0.0141006
940.090	0.0142552
940.168	0.0140166
940.246	0.0140978
940.325	0.0141248
940.403	0.0140839
940.481	0.0141122
940.559	0.0140460
940.637	0.0141220
940.715	0.0141306
940.793	0.0140366
940.871	0.0140357
940.950	0.0141480
941.028	0.0140918
941.106	0.0140054
941.184	0.0140712
941.262	0.0140572
941.340	0.0140711
941.418	0.0140562
941.496	0.0140054
941.575	0.0140794
941.653	0.0140704
941.731	0.0141444
941.809	0.0141347
941.887	0.0141705
941.965	0.0142023
942.043	0.0139995
942.121	0.0139527
942.200	0.0141785
942.278	0.0139821
942.356	0.0140768
942.434	0.0141123
942.512	0.0140318
942.590	0.0140647
942.668	0.0141051
942.746	0.0141113
942.825	0.0139196
942.903	0.0141132
942.981	0.0142198
943.059	0.0141403
943.137	0.0140837
943.215	0.0141270
943.293	0.0141742
943.371	0.0139955
943.450	0.0140846
943.528	0.0140852
943.606	0.0140839
943.684	0.0140198
943.762	0.0140762
943.840	0.0141875
943.918	0.0140542
943.996	0.0140512
944.075	0.0140604
944.153	0.0141867
944.231	0.0142246
944.309	0.0141724
944.387	0.0140476
944.465	0.0140664
944.543	0.0142243
944.621	0.0141221
944.700	0.0141412
944.778	0.0140170
944.856	0.0140308
944.934	0.0141671
945.012	0.0141545
945.090	0.0140540
945.168	0.0141921
945.246	0.0141133
945.325	0.0141035
945.403	0.0139915
945.481	0.0139539
945.559	0.0140707
945.637	0.0141670
945.715	0.0141764
945.793	0.0141164
945.871	0.0141628
945.950	0.0140544
946.028	0.0139977
946.106	0.0139979
946.184	0.0140459
946.262	0.0140182
946.340	0.0140522
946.418	0.0141437
946.496	0.0140465
946.575	0.0141478
946.653	0.0140027
946.731	0.0139520
946.809	0.0140594
946.887	0.0140565
946.965	0.0139812
947.043	0.0139796
947.121	0.0139774
947.200	0.0139077
947.278	0.0139680
947.356	0.0140551
947.434	0.0139726
947.512	0.0138104
947.590	0.0139754
947.668	0.0138882
947.746	0.0139381
947.825	0.0141093
947.903	0.0139578
947.981	0.0139536
948.059	0.0139589
948.137	0.0139360
948.215	0.0139735
948.293	0.0139906
948.371	0.0140720
948.450	0.0141028
948.528	0.0139098
948.606	0.0140031
948.684	0.0140363
948.762	0.0139333
948.840	0.0138846
948.918	0.0140207
948.996	0.0140472
949.075	0.0140473
949.153	0.0139970
949.231	0.0140870
949.309	0.0139185
949.387	0.0140741
949.465	0.0140368
949.543	0.0139879
949.621	0.0140377
949.700	0.0141051
949.778	0.0140955
949.856	0.0139392
949.934	0.0139746
950.012	0.0141018
950.090	0.0141561
950.168	0.0140614
950.246	0.0141786
950.325	0.0140889
950.403	0.0141557
950.481	0.0139458
950.559	0.0142247
950.637	0.0140749
950.715	0.0141427
950.793	0.0142551
950.871	0.0141434
950.950	0.0141592
951.028	0.0140783
951.106	0.0140540
951.184	0.0141930
951.262	0.0141840
951.340	0.0141167
951.418	0.0140277
951.496	0.0141693
951.575	0.0140012
951.653	0.0140656
951.731	0.0141077
951.809	0.0141837
951.887	0.0141014
951.965	0.0140165
952.043	0.0140855
952.121	0.0141147
952.200	0.0141651
952.278	0.0140957
952.356	0.0141916
952.434	0.0140247
952.512	0.0140860
952.590	0.0142853
952.668	0.0140826
952.746	0.0140205
952.825	0.0139725
952.903	0.0140990
952.981	0.0139741
953.059	0.0139378
953.137	0.0140363
953.215	0.0140810
953.293	0.0140665
953.371	0.0140669
953.450	0.0140211
953.528	0.0139963
953.606	0.0140473
953.684	0.0140072
953.762	0.0140964
953.840	0.0141280
953.918	0.0141528
953.996	0.0141532
954.075	0.0140657
954.153	0.0141927
954.231	0.0141389
954.309	0.0141430
954.387	0.0141626
954.465	0.0140946
954.543	0.0139281
954.621	0.0141372
954.700	0.0141473
954.778	0.0141209
954.856	0.0141010
954.934	0.0139819
955.012	0.0139940
955.090	0.0141720
955.168	0.0142834
955.246	0.0143514
955.325	0.0141437
955.403	0.0139371
955.481	0.0142305
955.559	0.0142200
955.637	0.0140547
955.715	0.0140611
955.793	0.0141182
955.871	0.0142264
955.950	0.0139492
956.028	0.0140865
956.106	0.0140608
956.184	0.0140681
956.262	0.0141655
956.340	0.0141247
956.418	0.0140918
956.496	0.0141338
956.575	0.0140599
956.653	0.0140986
956.731	0.0140572
956.809	0.0140385
956.887	0.0140589
956.965	0.0138461
957.043	0.0139237
957.121	0.0139390
957.200	0.0140334
957.278	0.0140435
957.356	0.0140689
957.434	0.0140411
957.512	0.0139552
957.590	0.0139385
957.668	0.0138237
957.746	0.0139297
957.825	0.0139634
957.903	0.0139188
957.981	0.0139139
958.059	0.0138768
958.137	0.0138451
958.215	0.0139959
958.293	0.0138594
958.371	0.0138615
958.450	0.0139336
958.528	0.0138703
958.606	0.0138280
958.684	0.0138104
958.762	0.0139658
958.840	0.0137872
958.918	0.0138556
958.996	0.0139169
959.075	0.0138702
959.153	0.0138329
959.231	0.0140117
959.309	0.0140035
959.387	0.0139577
959.465	0.0138289
959.543	0.0138879
959.621	0.0139526
959.700	0.0139096
959.778	0.0138422
959.856	0.0139326
959.934	0.0139237
960.012	0.0139306
960.090	0.0138319
960.168	0.0138702
960.246	0.0140247
960.325	0.0139832
960.403	0.0139158
960.481	0.0140116
960.559	0.0139886
960.637	0.0139534
960.715	0.0139986
960.793	0.0138957
960.871	0.0139098
960.950	0.0138847
961.028	0.0139413
961.106	0.0139806
961.184	0.0138902
961.262	0.0138662
961.340	0.0139309
961.418	0.0139809
961.496	0.0139840
961.575	0.0138438
961.653	0.0139304
961.731	0.0139451
961.809	0.0139098
961.887	0.0140400
961.965	0.0142348
962.043	0.0140760
962.121	0.0139787
962.200	0.0139150
962.278	0.0141148
962.356	0.0140715
962.434	0.0140058
962.512	0.0140838
962.590	0.0140174
962.668	0.0138499
962.746	0.0140849
962.825	0.0140244
962.903	0.0139941
962.981	0.0140116
963.059	0.0139916
963.137	0.0139456
963.215	0.0139919
963.293	0.0139146
963.371	0.0139272
963.450	0.0139330
963.528	0.0138867
963.606	0.0139309
963.684	0.0141030
963.762	0.0140691
963.840	0.0139056
963.918	0.0139445
963.996	0.0141047
964.075	0.0139694
964.153	0.0139458
964.231	0.0140849
964.309	0.0141212
964.387	0.0140788
964.465	0.0140797
964.543	0.0139878
964.621	0.0140025
964.700	0.0142261
964.778	0.0140279
964.856	0.0139954
964.934	0.0141042
965.012	0.0141585
965.090	0.0140781
965.168	0.0141774
965.246	0.0141397
965.325	0.0141217
965.403	0.0142770
965.481	0.0140973
965.559	0.0139654
965.637	0.0141030
965.715	0.0141297
965.793	0.0140733
965.871	0.0140961
965.950	0.0139362
966.028	0.0141058
966.106	0.0140337
966.184	0.0140108
966.262	0.0141112
966.340	0.0140655
966.418	0.0139928
966.496	0.0141599
966.575	0.0140846
966.653	0.0140276
966.731	0.0140931
966.809	0.0141873
966.887	0.0140629
966.965	0.0141666
967.043	0.0140544
967.121	0.0140968
967.200	0.0139957
967.278	0.0141346
967.356	0.0142380
967.434	0.0141852
967.512	0.0140641
967.590	0.0139498
967.668	0.0141189
967.746	0.0140505
967.825	0.0139781
967.903	0.0140570
967.981	0.0141145
968.059	0.0139188
968.137	0.0140533
968.215	0.0141607
968.293	0.0141045
968.371	0.0140688
968.450	0.0140677
968.528	0.0141044
968.606	0.0139459
968.684	0.0140358
968.762	0.0140776
968.840	0.0141129
968.918	0.0141618
968.996	0.0141518
969.075	0.0140991
969.153	0.0139133
969.231	0.0139697
969.309	0.0140871
969.387	0.0140748
969.465	0.0139451
969.543	0.0140294
969.621	0.0139536
969.700	0.0141235
969.778	0.0140142
969.856	0.0140839
969.934	0.0141316
970.012	0.0140361
970.090	0.0139417
970.168	0.0140242
970.246	0.0140639
970.325	0.0139901
970.403	0.0141564
970.481	0.0140082
970.559	0.0140426
970.637	0.0141707
970.715	0.0140701
970.793	0.0141453
970.871	0.0140531
970.950	0.0140991
971.028	0.0139906
971.106	0.0139197
971.184	0.0140470
971.262	0.0140960
971.340	0.0140478
971.418	0.0141508
971.496	0.0141261
971.575	0.0141479
971.653	0.0140905
971.731	0.0142245
971.809	0.0141656
971.887	0.0142075
971.965	0.0140922
972.043	0.0141249
972.121	0.0141994
972.200	0.0141511
972.278	0.0140085
972.356	0.0140530
972.434	0.0140589
972.512	0.0141467
972.590	0.0141830
972.668	0.0140253
972.746	0.0139480
972.825	0.0139249
972.903	0.0139858
972.981	0.0141135
973.059	0.0140243
973.137	0.0141008
973.215	0.0139546
973.293	0.0140516
973.371	0.0140549
973.450	0.0141352
973.528	0.0139716
973.606	0.0139577
973.684	0.0140078
973.762	0.0139652
973.840	0.0140400
973.918	0.0140434
973.996	0.0139999
974.075	0.0140588
974.153	0.0140257
974.231	0.0139966
974.309	0.0140726
974.387	0.0141479
974.465	0.0141465
974.543	0.0140685
974.621	0.0141081
974.700	0.0140810
974.778	0.0139925
974.856	0.0140321
974.934	0.0140588
975.012	0.0140690
975.090	0.0139797
975.168	0.0140094
975.246	0.0141505
975.325	0.0141085
975.403	0.0140862
975.481	0.0142564
975.559	0.0141181
975.637	0.0140990
975.715	0.0140697
975.793	0.0140601
975.871	0.0140464
975.950	0.0139757
976.028	0.0141265
976.106	0.0140612
976.184	0.0141946
976.262	0.0140822
976.340	0.0142055
976.418	0.0142612
976.496	0.0140769
976.575	0.0140240
976.653	0.0139803
976.731	0.0140930
976.809	0.0139948
976.887	0.0141105
976.965	0.0141908
977.043	0.0140693
977.121	0.0141843
977.200	0.0142342
977.278	0.0139391
977.356	0.0141290
977.434	0.0141650
977.512	0.0141653
977.590	0.0140974
977.668	0.0141466
977.746	0.0142056
977.825	0.0140067
977.903	0.0140760
977.981	0.0140569
978.059	0.0140859
978.137	0.0141882
978.215	0.0140992
978.293	0.0140428
978.371	0.0141077
978.450	0.0141753
978.528	0.0141502
978.606	0.0142069
978.684	0.0142569
978.762	0.0141482
978.840	0.0140253
978.918	0.0142481
978.996	0.0141811
979.075	0.0140427
979.153	0.0142101
979.231	0.0141398
979.309	0.0141189
979.387	0.0141610
979.465	0.0141476
979.543	0.0141645
979.621	0.0142067
979.700	0.0141212
979.778	0.0141769
979.856	0.0141901
979.934	0.0142220
980.012	0.0141352
980.090	0.0139866
980.168	0.0143200
980.246	0.0141530
980.325	0.0141012
980.403	0.0141029
980.481	0.0141529
980.559	0.0141368
980.637	0.0141549
980.715	0.0141342
980.793	0.0142444
980.871	0.0140041
980.950	0.0142506
981.028	0.0141124
981.106	0.0141125
981.184	0.0142037
981.262	0.0141183
981.340	0.0140930
981.418	0.0141949
981.496	0.0140923
981.575	0.0141369
981.653	0.0139901
981.731	0.0140258
981.809	0.0140781
981.887	0.0140724
981.965	0.0141039
982.043	0.0141341
982.121	0.0140349
982.200	0.0141019
982.278	0.0141978
982.356	0.0139632
982.434	0.0141029
982.512	0.0141193
982.590	0.0139884
982.668	0.0140196
982.746	0.0139423
982.825	0.0139931
982.903	0.0139609
982.981	0.0141270
983.059	0.0139516
983.137	0.0139619
983.215	0.0139845
983.293	0.0139747
983.371	0.0141110
983.450	0.0140337
983.528	0.0139311
983.606	0.0139979
983.684	0.0139363
983.762	0.0138788
983.840	0.0138941
983.918	0.0139906
983.996	0.0139810
984.075	0.0140386
984.153	0.0139670
984.231	0.0140268
984.309	0.0140785
984.387	0.0139790
984.465	0.0140704
984.543	0.0140733
984.621	0.0139678
984.700	0.0140133
984.778	0.0140508
984.856	0.0139957
984.934	0.0140464
985.012	0.0140784
985.090	0.0140548
985.168	0.0141650
985.246	0.0140144
985.325	0.0141562
985.403	0.0141457
985.481	0.0140888
985.559	0.0140829
985.637	0.0141460
985.715	0.0140831
985.793	0.0140236
985.871	0.0140735
985.950	0.0142102
986.028	0.0140658
986.106	0.0139894
986.184	0.0140295
986.262	0.0140408
986.340	0.0141429
986.418	0.0139964
986.496	0.0140347
986.575	0.0139392
986.653	0.0141121
986.731	0.0140339
986.809	0.0141674
986.887	0.0141315
986.965	0.0141542
987.043	0.0141125
987.121	0.0141193
987.200	0.0140631
987.278	0.0141126
987.356	0.0140618
987.434	0.0141892
987.512	0.0141652
987.590	0.0142477
987.668	0.0142782
987.746	0.0140534
987.825	0.0142101
987.903	0.0142355
987.981	0.0141716
988.059	0.0142184
988.137	0.0141961
988.215	0.0141336
988.293	0.0140528
988.371	0.0140133
988.450	0.0140631
988.528	0.0141548
988.606	0.0142536
988.684	0.0141764
988.762	0.0140424
988.840	0.0141223
988.918	0.0139441
988.996	0.0140968
989.075	0.0141406
989.153	0.0139778
989.231	0.0140942
989.309	0.0141850
989.387	0.0141708
989.465	0.0138843
989.543	0.0138824
989.621	0.0141074
989.700	0.0140805
989.778	0.0139123
989.856	0.0139471
989.934	0.0140148
990.012	0.0140039
990.090	0.0140999
990.168	0.0140887
990.246	0.0140012
990.325	0.0141589
990.403	0.0139391
990.481	0.0140642
990.559	0.0141715
990.637	0.0140088
990.715	0.0140829
990.793	0.0140798
990.871	0.0140379
990.950	0.0139751
991.028	0.0139838
991.106	0.0139265
991.184	0.0141515
991.262	0.0140717
991.340	0.0138953
991.418	0.0141586
991.496	0.0141267
991.575	0.0140988
991.653	0.0139584
991.731	0.0140726
991.809	0.0142702
991.887	0.0140707
991.965	0.0141079
992.043	0.0141033
992.121	0.0142924
992.200	0.0142058
992.278	0.0141233
992.356	0.0142083
992.434	0.0141574
992.512	0.0140119
992.590	0.0140677
992.668	0.0141645
992.746	0.0140870
992.825	0.0141129
992.903	0.0141564
992.981	0.0141221
993.059	0.0141315
993.137	0.0141484
993.215	0.0141165
993.293	0.0139906
993.371	0.0142104
993.450	0.0140163
993.528	0.0139650
993.606	0.0140200
993.684	0.0141314
993.762	0.0141798
993.840	0.0140933
993.918	0.0140469
993.996	0.0140253
994.075	0.0140620
994.153	0.0139964
994.231	0.0141212
994.309	0.0140175
994.387	0.0140453
994.465	0.0139787
994.543	0.0139957
994.621	0.0139660
994.700	0.0140835
994.778	0.0141887
994.856	0.0140837
994.934	0.0140381
995.012	0.0140913
995.090	0.0141281
995.168	0.0140365
995.246	0.0140486
995.325	0.0139960
995.403	0.0141272
995.481	0.0141793
995.559	0.0140562
995.637	0.0141479
995.715	0.0141705
995.793	0.0142159
995.871	0.0139776
995.950	0.0140805
996.028	0.0141013
996.106	0.0140154
996.184	0.0140936
996.262	0.0139246
996.340	0.0140884
996.418	0.0141106
996.496	0.0141656
996.575	0.0140605
996.653	0.0141147
996.731	0.0139703
996.809	0.0140913
996.887	0.0140079
996.965	0.0141289
997.043	0.0141502
997.121	0.0139693
997.200	0.0140545
997.278	0.0141370
997.356	0.0140845
997.434	0.0140394
997.512	0.0141019
997.590	0.0141406
997.668	0.0142242
997.746	0.0141976
997.825	0.0141183
997.903	0.0139259
997.981	0.0140624
998.059	0.0140453
998.137	0.0142138
998.215	0.0140364
998.293	0.0139859
998.371	0.0142485
998.450	0.0141422
998.528	0.0141227
998.606	0.0141639
998.684	0.0141232
998.762	0.0140121
998.840	0.0140817
998.918	0.0140894
