05/04/2022	21:44:49	Ver.	4.1	UNKNOWN
Optical Delay	630.015849	Delta X		0.078125	Sweeps	1	Scan Rate	0/0
Coordinates	Axis 1	NaN	Axis 2	NaN	Axis 3	NaN	Axis 4	NaN	Axis 5	NaN	Axis 6	0.000000
TX Power	0.000000	RX Power	0.000000

630.016	0.0142245
630.094	0.0141243
630.172	0.0141600
630.250	0.0142988
630.328	0.0142333
630.406	0.0141354
630.485	0.0141758
630.563	0.0141435
630.641	0.0140824
630.719	0.0142255
630.797	0.0143160
630.875	0.0142276
630.953	0.0142237
631.031	0.0142959
631.110	0.0141991
631.188	0.0143334
631.266	0.0143291
631.344	0.0143003
631.422	0.0142244
631.500	0.0142523
631.578	0.0142778
631.656	0.0142532
631.735	0.0142068
631.813	0.0141109
631.891	0.0141375
631.969	0.0144709
632.047	0.0143019
632.125	0.0142184
632.203	0.0142577
632.281	0.0143661
632.360	0.0143250
632.438	0.0141846
632.516	0.0141495
632.594	0.0142254
632.672	0.0142663
632.750	0.0143571
632.828	0.0142181
632.906	0.0143003
632.985	0.0142378
633.063	0.0141679
633.141	0.0142486
633.219	0.0141759
633.297	0.0141753
633.375	0.0142761
633.453	0.0141946
633.531	0.0141985
633.610	0.0140945
633.688	0.0142542
633.766	0.0142306
633.844	0.0142806
633.922	0.0143288
634.000	0.0142645
634.078	0.0141975
634.156	0.0142065
634.235	0.0142601
634.313	0.0142939
634.391	0.0141309
634.469	0.0141402
634.547	0.0141261
634.625	0.0141138
634.703	0.0141926
634.781	0.0142838
634.860	0.0142887
634.938	0.0142739
635.016	0.0142593
635.094	0.0142422
635.172	0.0141650
635.250	0.0141769
635.328	0.0142434
635.406	0.0142509
635.485	0.0144094
635.563	0.0142457
635.641	0.0143770
635.719	0.0142572
635.797	0.0142629
635.875	0.0142832
635.953	0.0142158
636.031	0.0141967
636.110	0.0142393
636.188	0.0141846
636.266	0.0141378
636.344	0.0142060
636.422	0.0142477
636.500	0.0140858
636.578	0.0143166
636.656	0.0142216
636.735	0.0140899
636.813	0.0141592
636.891	0.0141989
636.969	0.0141333
637.047	0.0141843
637.125	0.0142818
637.203	0.0142487
637.281	0.0142883
637.360	0.0142616
637.438	0.0141176
637.516	0.0142626
637.594	0.0142129
637.672	0.0142283
637.750	0.0142737
637.828	0.0142858
637.906	0.0143457
637.985	0.0141791
638.063	0.0141543
638.141	0.0142743
638.219	0.0142994
638.297	0.0142599
638.375	0.0142683
638.453	0.0144039
638.531	0.0142329
638.610	0.0144085
638.688	0.0143636
638.766	0.0143452
638.844	0.0142989
638.922	0.0144123
639.000	0.0144334
639.078	0.0143548
639.156	0.0144054
639.235	0.0143394
639.313	0.0142937
639.391	0.0142935
639.469	0.0144055
639.547	0.0143774
639.625	0.0144689
639.703	0.0143885
639.781	0.0143131
639.860	0.0143824
639.938	0.0144425
640.016	0.0143144
640.094	0.0144715
640.172	0.0144473
640.250	0.0143790
640.328	0.0143068
640.406	0.0144952
640.485	0.0144698
640.563	0.0144412
640.641	0.0143995
640.719	0.0145064
640.797	0.0145078
640.875	0.0143185
640.953	0.0143200
641.031	0.0143691
641.110	0.0145732
641.188	0.0143590
641.266	0.0143811
641.344	0.0144536
641.422	0.0144698
641.500	0.0145669
641.578	0.0144153
641.656	0.0144601
641.735	0.0145298
641.813	0.0143262
641.891	0.0143373
641.969	0.0144832
642.047	0.0145383
642.125	0.0144237
642.203	0.0143076
642.281	0.0144067
642.360	0.0144357
642.438	0.0145490
642.516	0.0144709
642.594	0.0143509
642.672	0.0143534
642.750	0.0144947
642.828	0.0144113
642.906	0.0144099
642.985	0.0144717
643.063	0.0143390
643.141	0.0143646
643.219	0.0144391
643.297	0.0145132
643.375	0.0144139
643.453	0.0144321
643.531	0.0144123
643.610	0.0143319
643.688	0.0143928
643.766	0.0143997
643.844	0.0144193
643.922	0.0144646
644.000	0.0144888
644.078	0.0144627
644.156	0.0144108
644.235	0.0142454
644.313	0.0142897
644.391	0.0143943
644.469	0.0143401
644.547	0.0143446
644.625	0.0143562
644.703	0.0143385
644.781	0.0143915
644.860	0.0143961
644.938	0.0143272
645.016	0.0141984
645.094	0.0143457
645.172	0.0142384
645.250	0.0143044
645.328	0.0142849
645.406	0.0142632
645.485	0.0141662
645.563	0.0142327
645.641	0.0143591
645.719	0.0142796
645.797	0.0143152
645.875	0.0144295
645.953	0.0143835
646.031	0.0142890
646.110	0.0143491
646.188	0.0142292
646.266	0.0143063
646.344	0.0145065
646.422	0.0143528
646.500	0.0143602
646.578	0.0144557
646.656	0.0144175
646.735	0.0143034
646.813	0.0143365
646.891	0.0142434
646.969	0.0144194
647.047	0.0144544
647.125	0.0143928
647.203	0.0143277
647.281	0.0142982
647.360	0.0143922
647.438	0.0143833
647.516	0.0142916
647.594	0.0144006
647.672	0.0143143
647.750	0.0143571
647.828	0.0143324
647.906	0.0142108
647.985	0.0144318
648.063	0.0145284
648.141	0.0143402
648.219	0.0144749
648.297	0.0142777
648.375	0.0143124
648.453	0.0144135
648.531	0.0144007
648.610	0.0144375
648.688	0.0144176
648.766	0.0144658
648.844	0.0143386
648.922	0.0145660
649.000	0.0143157
649.078	0.0144261
649.156	0.0144474
649.235	0.0143468
649.313	0.0144199
649.391	0.0144415
649.469	0.0143981
649.547	0.0144133
649.625	0.0144042
649.703	0.0144240
649.781	0.0144505
649.860	0.0144065
649.938	0.0144524
650.016	0.0144168
650.094	0.0144161
650.172	0.0143932
650.250	0.0144560
650.328	0.0142892
650.406	0.0145240
650.485	0.0144884
650.563	0.0144216
650.641	0.0145155
650.719	0.0143823
650.797	0.0144073
650.875	0.0143233
650.953	0.0144351
651.031	0.0144348
651.110	0.0143745
651.188	0.0144106
651.266	0.0144576
651.344	0.0143014
651.422	0.0142629
651.500	0.0144109
651.578	0.0145280
651.656	0.0144940
651.735	0.0144536
651.813	0.0144272
651.891	0.0143448
651.969	0.0143439
652.047	0.0143517
652.125	0.0142566
652.203	0.0143175
652.281	0.0142979
652.360	0.0143389
652.438	0.0142457
652.516	0.0142472
652.594	0.0143299
652.672	0.0142851
652.750	0.0142468
652.828	0.0142284
652.906	0.0143584
652.985	0.0144434
653.063	0.0143803
653.141	0.0141990
653.219	0.0143637
653.297	0.0143741
653.375	0.0142691
653.453	0.0142542
653.531	0.0142906
653.610	0.0143458
653.688	0.0142827
653.766	0.0142436
653.844	0.0143464
653.922	0.0141055
654.000	0.0141331
654.078	0.0142560
654.156	0.0140105
654.235	0.0143040
654.313	0.0143227
654.391	0.0142659
654.469	0.0143690
654.547	0.0142912
654.625	0.0143423
654.703	0.0141452
654.781	0.0143711
654.860	0.0144232
654.938	0.0142184
655.016	0.0142498
655.094	0.0142063
655.172	0.0141612
655.250	0.0142645
655.328	0.0142957
655.406	0.0142970
655.485	0.0142162
655.563	0.0143433
655.641	0.0142471
655.719	0.0141797
655.797	0.0142307
655.875	0.0142145
655.953	0.0142891
656.031	0.0143195
656.110	0.0142532
656.188	0.0143210
656.266	0.0142846
656.344	0.0142836
656.422	0.0143626
656.500	0.0143367
656.578	0.0145113
656.656	0.0142446
656.735	0.0142144
656.813	0.0142746
656.891	0.0143121
656.969	0.0142825
657.047	0.0143132
657.125	0.0143237
657.203	0.0142793
657.281	0.0143075
657.360	0.0142669
657.438	0.0142577
657.516	0.0142020
657.594	0.0142255
657.672	0.0143121
657.750	0.0144560
657.828	0.0142767
657.906	0.0143159
657.985	0.0142212
658.063	0.0144054
658.141	0.0141725
658.219	0.0142503
658.297	0.0143367
658.375	0.0142281
658.453	0.0142531
658.531	0.0142694
658.610	0.0142558
658.688	0.0143104
658.766	0.0143401
658.844	0.0142584
658.922	0.0142692
659.000	0.0142563
659.078	0.0143514
659.156	0.0145272
659.235	0.0143901
659.313	0.0143821
659.391	0.0144318
659.469	0.0143955
659.547	0.0144041
659.625	0.0142946
659.703	0.0142410
659.781	0.0142278
659.860	0.0141595
659.938	0.0142473
660.016	0.0144218
660.094	0.0143890
660.172	0.0142737
660.250	0.0142612
660.328	0.0142714
660.406	0.0141758
660.485	0.0141824
660.563	0.0141441
660.641	0.0141647
660.719	0.0142223
660.797	0.0142578
660.875	0.0142529
660.953	0.0143408
661.031	0.0143932
661.110	0.0142142
661.188	0.0142242
661.266	0.0141546
661.344	0.0142637
661.422	0.0143755
661.500	0.0143336
661.578	0.0144064
661.656	0.0143517
661.735	0.0143333
661.813	0.0143242
661.891	0.0143215
661.969	0.0141924
662.047	0.0142856
662.125	0.0143186
662.203	0.0141014
662.281	0.0142361
662.360	0.0141621
662.438	0.0143645
662.516	0.0141978
662.594	0.0141486
662.672	0.0142089
662.750	0.0142949
662.828	0.0143060
662.906	0.0143713
662.985	0.0143292
663.063	0.0144793
663.141	0.0142801
663.219	0.0143201
663.297	0.0142494
663.375	0.0145256
663.453	0.0143211
663.531	0.0142942
663.610	0.0142513
663.688	0.0141957
663.766	0.0143454
663.844	0.0142757
663.922	0.0142828
664.000	0.0140834
664.078	0.0143309
664.156	0.0142263
664.235	0.0141660
664.313	0.0142000
664.391	0.0142415
664.469	0.0143547
664.547	0.0143179
664.625	0.0142072
664.703	0.0141922
664.781	0.0144453
664.860	0.0142900
664.938	0.0143501
665.016	0.0143554
665.094	0.0143470
665.172	0.0142960
665.250	0.0144186
665.328	0.0142942
665.406	0.0143007
665.485	0.0143849
665.563	0.0143296
665.641	0.0144050
665.719	0.0144051
665.797	0.0142068
665.875	0.0143102
665.953	0.0142595
666.031	0.0143677
666.110	0.0143015
666.188	0.0143127
666.266	0.0143597
666.344	0.0143349
666.422	0.0143135
666.500	0.0141013
666.578	0.0141837
666.656	0.0141737
666.735	0.0142802
666.813	0.0142865
666.891	0.0143392
666.969	0.0141270
667.047	0.0142725
667.125	0.0143056
667.203	0.0145105
667.281	0.0142355
667.360	0.0143193
667.438	0.0142319
667.516	0.0143037
667.594	0.0141215
667.672	0.0142561
667.750	0.0143129
667.828	0.0144690
667.906	0.0143260
667.985	0.0142139
668.063	0.0143420
668.141	0.0144567
668.219	0.0143341
668.297	0.0142221
668.375	0.0143541
668.453	0.0142496
668.531	0.0143930
668.610	0.0143330
668.688	0.0143611
668.766	0.0143431
668.844	0.0143224
668.922	0.0143493
669.000	0.0144112
669.078	0.0143230
669.156	0.0144567
669.235	0.0143269
669.313	0.0144093
669.391	0.0142609
669.469	0.0142387
669.547	0.0141917
669.625	0.0141541
669.703	0.0141697
669.781	0.0141327
669.860	0.0141502
669.938	0.0141264
670.016	0.0140921
670.094	0.0141624
670.172	0.0141234
670.250	0.0142838
670.328	0.0141918
670.406	0.0141361
670.485	0.0141446
670.563	0.0143651
670.641	0.0143804
670.719	0.0144846
670.797	0.0145448
670.875	0.0144685
670.953	0.0145966
671.031	0.0145849
671.110	0.0145052
671.188	0.0144809
671.266	0.0144593
671.344	0.0145467
671.422	0.0143624
671.500	0.0144337
671.578	0.0143412
671.656	0.0142825
671.735	0.0143941
671.813	0.0144262
671.891	0.0143031
671.969	0.0143276
672.047	0.0142773
672.125	0.0144878
672.203	0.0145329
672.281	0.0145222
672.360	0.0142661
672.438	0.0142718
672.516	0.0143943
672.594	0.0143011
672.672	0.0142121
672.750	0.0142781
672.828	0.0142802
672.906	0.0144058
672.985	0.0144575
673.063	0.0142345
673.141	0.0142756
673.219	0.0144298
673.297	0.0145615
673.375	0.0144713
673.453	0.0145412
673.531	0.0145060
673.610	0.0147248
673.688	0.0145496
673.766	0.0143939
673.844	0.0144746
673.922	0.0144010
674.000	0.0142657
674.078	0.0142134
674.156	0.0140154
674.235	0.0140523
674.313	0.0138829
674.391	0.0139127
674.469	0.0139073
674.547	0.0138186
674.625	0.0139336
674.703	0.0139407
674.781	0.0141086
674.860	0.0143314
674.938	0.0144830
675.016	0.0146082
675.094	0.0147121
675.172	0.0147534
675.250	0.0149072
675.328	0.0149529
675.406	0.0148390
675.485	0.0146694
675.563	0.0146021
675.641	0.0144701
675.719	0.0142942
675.797	0.0141161
675.875	0.0140877
675.953	0.0139496
676.031	0.0140573
676.110	0.0139948
676.188	0.0140177
676.266	0.0141578
676.344	0.0141840
676.422	0.0141761
676.500	0.0143623
676.578	0.0144071
676.656	0.0144489
676.735	0.0145497
676.813	0.0145069
676.891	0.0144467
676.969	0.0144884
677.047	0.0145025
677.125	0.0144532
677.203	0.0144416
677.281	0.0143371
677.360	0.0141987
677.438	0.0140794
677.516	0.0140492
677.594	0.0139587
677.672	0.0137785
677.750	0.0136633
677.828	0.0135841
677.906	0.0136053
677.985	0.0135216
678.063	0.0136253
678.141	0.0137836
678.219	0.0138754
678.297	0.0141069
678.375	0.0141718
678.453	0.0142189
678.531	0.0143701
678.610	0.0145154
678.688	0.0145427
678.766	0.0146252
678.844	0.0145124
678.922	0.0146160
679.000	0.0145536
679.078	0.0145218
679.156	0.0145396
679.235	0.0144848
679.313	0.0144143
679.391	0.0142107
679.469	0.0141769
679.547	0.0141203
679.625	0.0140621
679.703	0.0141315
679.781	0.0140098
679.860	0.0140922
679.938	0.0141902
680.016	0.0141722
680.094	0.0141192
680.172	0.0140848
680.250	0.0142834
680.328	0.0142794
680.406	0.0143646
680.485	0.0142674
680.563	0.0143193
680.641	0.0142942
680.719	0.0141445
680.797	0.0141191
680.875	0.0140405
680.953	0.0139876
681.031	0.0140604
681.110	0.0140867
681.188	0.0140268
681.266	0.0141650
681.344	0.0141510
681.422	0.0142807
681.500	0.0146175
681.578	0.0146014
681.656	0.0147339
681.735	0.0148482
681.813	0.0147872
681.891	0.0147875
681.969	0.0147504
682.047	0.0146577
682.125	0.0144718
682.203	0.0141497
682.281	0.0140096
682.360	0.0136896
682.438	0.0134675
682.516	0.0133395
682.594	0.0132206
682.672	0.0130267
682.750	0.0130756
682.828	0.0133213
682.906	0.0134107
682.985	0.0135057
683.063	0.0136906
683.141	0.0139071
683.219	0.0142738
683.297	0.0144788
683.375	0.0145587
683.453	0.0148328
683.531	0.0150339
683.610	0.0149823
683.688	0.0150707
683.766	0.0150298
683.844	0.0149366
683.922	0.0149501
684.000	0.0148294
684.078	0.0146491
684.156	0.0145180
684.235	0.0145350
684.313	0.0143306
684.391	0.0143547
684.469	0.0144314
684.547	0.0142015
684.625	0.0142966
684.703	0.0143504
684.781	0.0144109
684.860	0.0143297
684.938	0.0143839
685.016	0.0141842
685.094	0.0141255
685.172	0.0137914
685.250	0.0137992
685.328	0.0136523
685.406	0.0134366
685.485	0.0133229
685.563	0.0131528
685.641	0.0132648
685.719	0.0132342
685.797	0.0134562
685.875	0.0136121
685.953	0.0139224
686.031	0.0140147
686.110	0.0144264
686.188	0.0145189
686.266	0.0147397
686.344	0.0149966
686.422	0.0151416
686.500	0.0150388
686.578	0.0153944
686.656	0.0153619
686.735	0.0152415
686.813	0.0151702
686.891	0.0152048
686.969	0.0150246
687.047	0.0147898
687.125	0.0144614
687.203	0.0142599
687.281	0.0141991
687.360	0.0141393
687.438	0.0138925
687.516	0.0137597
687.594	0.0136500
687.672	0.0136361
687.750	0.0135826
687.828	0.0136189
687.906	0.0135844
687.985	0.0136134
688.063	0.0136146
688.141	0.0136442
688.219	0.0136403
688.297	0.0135514
688.375	0.0136453
688.453	0.0137083
688.531	0.0137132
688.610	0.0136798
688.688	0.0136720
688.766	0.0139445
688.844	0.0139970
688.922	0.0140839
689.000	0.0143362
689.078	0.0144930
689.156	0.0147404
689.235	0.0149324
689.313	0.0151442
689.391	0.0152697
689.469	0.0152390
689.547	0.0152724
689.625	0.0152861
689.703	0.0152895
689.781	0.0150637
689.860	0.0149323
689.938	0.0145100
690.016	0.0142248
690.094	0.0141732
690.172	0.0140317
690.250	0.0138605
690.328	0.0136355
690.406	0.0136430
690.485	0.0134949
690.563	0.0134835
690.641	0.0136881
690.719	0.0136421
690.797	0.0136668
690.875	0.0137835
690.953	0.0137836
691.031	0.0139012
691.110	0.0139668
691.188	0.0140881
691.266	0.0140948
691.344	0.0140572
691.422	0.0140922
691.500	0.0140734
691.578	0.0141352
691.656	0.0142782
691.735	0.0142815
691.813	0.0143597
691.891	0.0143850
691.969	0.0145944
692.047	0.0146074
692.125	0.0144869
692.203	0.0146272
692.281	0.0145872
692.360	0.0146045
692.438	0.0145964
692.516	0.0145274
692.594	0.0143987
692.672	0.0144006
692.750	0.0141856
692.828	0.0140392
692.906	0.0141404
692.985	0.0139914
693.063	0.0138475
693.141	0.0137081
693.219	0.0138063
693.297	0.0136625
693.375	0.0138255
693.453	0.0138725
693.531	0.0138899
693.610	0.0140357
693.688	0.0141825
693.766	0.0144415
693.844	0.0144450
693.922	0.0146363
694.000	0.0147421
694.078	0.0148605
694.156	0.0148557
694.235	0.0150223
694.313	0.0148920
694.391	0.0150082
694.469	0.0146084
694.547	0.0146111
694.625	0.0144965
694.703	0.0143880
694.781	0.0140953
694.860	0.0140342
694.938	0.0139388
695.016	0.0136835
695.094	0.0136613
695.172	0.0137085
695.250	0.0135521
695.328	0.0137649
695.406	0.0138744
695.485	0.0138828
695.563	0.0140971
695.641	0.0141688
695.719	0.0143815
695.797	0.0142712
695.875	0.0144482
695.953	0.0144820
696.031	0.0145885
696.110	0.0144137
696.188	0.0146178
696.266	0.0146030
696.344	0.0145498
696.422	0.0145891
696.500	0.0144747
696.578	0.0144826
696.656	0.0144006
696.735	0.0143854
696.813	0.0144769
696.891	0.0144106
696.969	0.0144624
697.047	0.0145435
697.125	0.0144611
697.203	0.0144780
697.281	0.0144263
697.360	0.0144912
697.438	0.0145608
697.516	0.0141938
697.594	0.0142008
697.672	0.0142542
697.750	0.0141271
697.828	0.0139389
697.906	0.0139529
697.985	0.0137989
698.063	0.0138178
698.141	0.0138750
698.219	0.0138171
698.297	0.0140668
698.375	0.0141666
698.453	0.0142052
698.531	0.0142462
698.610	0.0142832
698.688	0.0143974
698.766	0.0143561
698.844	0.0144927
698.922	0.0144844
699.000	0.0145367
699.078	0.0143275
699.156	0.0143132
699.235	0.0142271
699.313	0.0140194
699.391	0.0138221
699.469	0.0139626
699.547	0.0140887
699.625	0.0138300
699.703	0.0138416
699.781	0.0138161
699.860	0.0139441
699.938	0.0140142
700.016	0.0140246
700.094	0.0140876
700.172	0.0141595
700.250	0.0140714
700.328	0.0141059
700.406	0.0141370
700.485	0.0142992
700.563	0.0142570
700.641	0.0143745
700.719	0.0142887
700.797	0.0143419
700.875	0.0144516
700.953	0.0144555
701.031	0.0144964
701.110	0.0145896
701.188	0.0146810
701.266	0.0145499
701.344	0.0143559
701.422	0.0145670
701.500	0.0144612
701.578	0.0144877
701.656	0.0143291
701.735	0.0142831
701.813	0.0140640
701.891	0.0140465
701.969	0.0140204
702.047	0.0140978
702.125	0.0140457
702.203	0.0140277
702.281	0.0139771
702.360	0.0138962
702.438	0.0140529
702.516	0.0141270
702.594	0.0140706
702.672	0.0140975
702.750	0.0140809
702.828	0.0140214
702.906	0.0139472
702.985	0.0138276
703.063	0.0139186
703.141	0.0137914
703.219	0.0138085
703.297	0.0138284
703.375	0.0139348
703.453	0.0139244
703.531	0.0140614
703.610	0.0141111
703.688	0.0141817
703.766	0.0143164
703.844	0.0144113
703.922	0.0144481
704.000	0.0144684
704.078	0.0144681
704.156	0.0145103
704.235	0.0145598
704.313	0.0145242
704.391	0.0144944
704.469	0.0144701
704.547	0.0143165
704.625	0.0143150
704.703	0.0141505
704.781	0.0143692
704.860	0.0142923
704.938	0.0141631
705.016	0.0142113
705.094	0.0144176
705.172	0.0142571
705.250	0.0142970
705.328	0.0144801
705.406	0.0143779
705.485	0.0143446
705.563	0.0142496
705.641	0.0142447
705.719	0.0141194
705.797	0.0140804
705.875	0.0138919
705.953	0.0138563
706.031	0.0139005
706.110	0.0138317
706.188	0.0138195
706.266	0.0138023
706.344	0.0140236
706.422	0.0139723
706.500	0.0139282
706.578	0.0139693
706.656	0.0141212
706.735	0.0140794
706.813	0.0140924
706.891	0.0143159
706.969	0.0142517
707.047	0.0143614
707.125	0.0144166
707.203	0.0143696
707.281	0.0144560
707.360	0.0143732
707.438	0.0144051
707.516	0.0143436
707.594	0.0143031
707.672	0.0144586
707.750	0.0143819
707.828	0.0143362
707.906	0.0144286
707.985	0.0144592
708.063	0.0143260
708.141	0.0142863
708.219	0.0144254
708.297	0.0145176
708.375	0.0143018
708.453	0.0143953
708.531	0.0144037
708.610	0.0143605
708.688	0.0141645
708.766	0.0141023
708.844	0.0141647
708.922	0.0141528
709.000	0.0140549
709.078	0.0140708
709.156	0.0140830
709.235	0.0139520
709.313	0.0140569
709.391	0.0139507
709.469	0.0139532
709.547	0.0140011
709.625	0.0139832
709.703	0.0141032
709.781	0.0142655
709.860	0.0141994
709.938	0.0142970
710.016	0.0141684
710.094	0.0143288
710.172	0.0143134
710.250	0.0143424
710.328	0.0143164
710.406	0.0143053
710.485	0.0142867
710.563	0.0142396
710.641	0.0140435
710.719	0.0141277
710.797	0.0141922
710.875	0.0142498
710.953	0.0139473
711.031	0.0141178
711.110	0.0141731
711.188	0.0140797
711.266	0.0141351
711.344	0.0140778
711.422	0.0140383
711.500	0.0141772
711.578	0.0140894
711.656	0.0140726
711.735	0.0141956
711.813	0.0141625
711.891	0.0141123
711.969	0.0141457
712.047	0.0141623
712.125	0.0142724
712.203	0.0142878
712.281	0.0144176
712.360	0.0142805
712.438	0.0143822
712.516	0.0144541
712.594	0.0145448
712.672	0.0145730
712.750	0.0146494
712.828	0.0146304
712.906	0.0145747
712.985	0.0145758
713.063	0.0144505
713.141	0.0143762
713.219	0.0142799
713.297	0.0141496
713.375	0.0140675
713.453	0.0139803
713.531	0.0139497
713.610	0.0137642
713.688	0.0136929
713.766	0.0135966
713.844	0.0137245
713.922	0.0137845
714.000	0.0136665
714.078	0.0136877
714.156	0.0138028
714.235	0.0137577
714.313	0.0139004
714.391	0.0140276
714.469	0.0141492
714.547	0.0144054
714.625	0.0144772
714.703	0.0146310
714.781	0.0148060
714.860	0.0147421
714.938	0.0148681
715.016	0.0150784
715.094	0.0151551
715.172	0.0150372
715.250	0.0150370
715.328	0.0149671
715.406	0.0149614
715.485	0.0148038
715.563	0.0146946
715.641	0.0146473
715.719	0.0144794
715.797	0.0142068
715.875	0.0141458
715.953	0.0141956
716.031	0.0139480
716.110	0.0140618
716.188	0.0138804
716.266	0.0137156
716.344	0.0137547
716.422	0.0137124
716.500	0.0139503
716.578	0.0139643
716.656	0.0139259
716.735	0.0140880
716.813	0.0141640
716.891	0.0141920
716.969	0.0143296
717.047	0.0143635
717.125	0.0144771
717.203	0.0144696
717.281	0.0146783
717.360	0.0146191
717.438	0.0147492
717.516	0.0147539
717.594	0.0146236
717.672	0.0147002
717.750	0.0147856
717.828	0.0148847
717.906	0.0147410
717.985	0.0146751
718.063	0.0147460
718.141	0.0145490
718.219	0.0145432
718.297	0.0144019
718.375	0.0142844
718.453	0.0142016
718.531	0.0142999
718.610	0.0141643
718.688	0.0140491
718.766	0.0140771
718.844	0.0140791
718.922	0.0139553
719.000	0.0137899
719.078	0.0137616
719.156	0.0140011
719.235	0.0140232
719.313	0.0138385
719.391	0.0140526
719.469	0.0141413
719.547	0.0141972
719.625	0.0142091
719.703	0.0142438
719.781	0.0145558
719.860	0.0144661
719.938	0.0144308
720.016	0.0144907
720.094	0.0145144
720.172	0.0145133
720.250	0.0145343
720.328	0.0144791
720.406	0.0145776
720.485	0.0144211
720.563	0.0144016
720.641	0.0143358
720.719	0.0144350
720.797	0.0144250
720.875	0.0144222
720.953	0.0140815
721.031	0.0141013
721.110	0.0142029
721.188	0.0139188
721.266	0.0140619
721.344	0.0141229
721.422	0.0139441
721.500	0.0139395
721.578	0.0139246
721.656	0.0140285
721.735	0.0140181
721.813	0.0141190
721.891	0.0142304
721.969	0.0141264
722.047	0.0142890
722.125	0.0143812
722.203	0.0144004
722.281	0.0142815
722.360	0.0144132
722.438	0.0143233
722.516	0.0144601
722.594	0.0144370
722.672	0.0144646
722.750	0.0144300
722.828	0.0144948
722.906	0.0144643
722.985	0.0144278
723.063	0.0145398
723.141	0.0144301
723.219	0.0143371
723.297	0.0142851
723.375	0.0142933
723.453	0.0141331
723.531	0.0142621
723.610	0.0142545
723.688	0.0141241
723.766	0.0141100
723.844	0.0141722
723.922	0.0140521
724.000	0.0140263
724.078	0.0139526
724.156	0.0139223
724.235	0.0139436
724.313	0.0140219
724.391	0.0140287
724.469	0.0141031
724.547	0.0141000
724.625	0.0142757
724.703	0.0141198
724.781	0.0144606
724.860	0.0144135
724.938	0.0146087
725.016	0.0144788
725.094	0.0146614
725.172	0.0146018
725.250	0.0145818
725.328	0.0146001
725.406	0.0146624
725.485	0.0146166
725.563	0.0144735
725.641	0.0145235
725.719	0.0143886
725.797	0.0143063
725.875	0.0142947
725.953	0.0142924
726.031	0.0141991
726.110	0.0142390
726.188	0.0140295
726.266	0.0140147
726.344	0.0140335
726.422	0.0141994
726.500	0.0140516
726.578	0.0140203
726.656	0.0140075
726.735	0.0142292
726.813	0.0140519
726.891	0.0142638
726.969	0.0143009
727.047	0.0141749
727.125	0.0142455
727.203	0.0142155
727.281	0.0142521
727.360	0.0143708
727.438	0.0142634
727.516	0.0143565
727.594	0.0143867
727.672	0.0144556
727.750	0.0144143
727.828	0.0143463
727.906	0.0143668
727.985	0.0143581
728.063	0.0142696
728.141	0.0142276
728.219	0.0143399
728.297	0.0143634
728.375	0.0144550
728.453	0.0142384
728.531	0.0143388
728.610	0.0143100
728.688	0.0142850
728.766	0.0141100
728.844	0.0143198
728.922	0.0143961
729.000	0.0142327
729.078	0.0141056
729.156	0.0141399
729.235	0.0141192
729.313	0.0142054
729.391	0.0141891
729.469	0.0144247
729.547	0.0142305
729.625	0.0142831
729.703	0.0142774
729.781	0.0142062
729.860	0.0143287
729.938	0.0143514
730.016	0.0143962
730.094	0.0143972
730.172	0.0144415
730.250	0.0144940
730.328	0.0143614
730.406	0.0144626
730.485	0.0144138
730.563	0.0145026
730.641	0.0143810
730.719	0.0143844
730.797	0.0143949
730.875	0.0142900
730.953	0.0143111
731.031	0.0143326
731.110	0.0142895
731.188	0.0143667
731.266	0.0143792
731.344	0.0142537
731.422	0.0141656
731.500	0.0142812
731.578	0.0142940
731.656	0.0142770
731.735	0.0142041
731.813	0.0142017
731.891	0.0142454
731.969	0.0144648
732.047	0.0143243
732.125	0.0143828
732.203	0.0144490
732.281	0.0143393
732.360	0.0146502
732.438	0.0144363
732.516	0.0143929
732.594	0.0144418
732.672	0.0143488
732.750	0.0144697
732.828	0.0144251
732.906	0.0144357
732.985	0.0143565
733.063	0.0143958
733.141	0.0144350
733.219	0.0143457
733.297	0.0143140
733.375	0.0142818
733.453	0.0143274
733.531	0.0144032
733.610	0.0143494
733.688	0.0143774
733.766	0.0142560
733.844	0.0140671
733.922	0.0140928
734.000	0.0142997
734.078	0.0142372
734.156	0.0142491
734.235	0.0141821
734.313	0.0141910
734.391	0.0140900
734.469	0.0140891
734.547	0.0141151
734.625	0.0141203
734.703	0.0141982
734.781	0.0140369
734.860	0.0142931
734.938	0.0142530
735.016	0.0141028
735.094	0.0143507
735.172	0.0145290
735.250	0.0144566
735.328	0.0144062
735.406	0.0144643
735.485	0.0144792
735.563	0.0144137
735.641	0.0143971
735.719	0.0144444
735.797	0.0144563
735.875	0.0143484
735.953	0.0145107
736.031	0.0142995
736.110	0.0143742
736.188	0.0143593
736.266	0.0142184
736.344	0.0142013
736.422	0.0142711
736.500	0.0142210
736.578	0.0141938
736.656	0.0141140
736.735	0.0141106
736.813	0.0141228
736.891	0.0142741
736.969	0.0141474
737.047	0.0141918
737.125	0.0142831
737.203	0.0141609
737.281	0.0141985
737.360	0.0142175
737.438	0.0142447
737.516	0.0143531
737.594	0.0143886
737.672	0.0143799
737.750	0.0142075
737.828	0.0143346
737.906	0.0144074
737.985	0.0143552
738.063	0.0144196
738.141	0.0142715
738.219	0.0141541
738.297	0.0143313
738.375	0.0144614
738.453	0.0142921
738.531	0.0142436
738.610	0.0142787
738.688	0.0142392
738.766	0.0143090
738.844	0.0142945
738.922	0.0141877
739.000	0.0142757
739.078	0.0143200
739.156	0.0142320
739.235	0.0142656
739.313	0.0142847
739.391	0.0142809
739.469	0.0143839
739.547	0.0141528
739.625	0.0143442
739.703	0.0142589
739.781	0.0140923
739.860	0.0142976
739.938	0.0142436
740.016	0.0142854
740.094	0.0145120
740.172	0.0144086
740.250	0.0142801
740.328	0.0143790
740.406	0.0143618
740.485	0.0144136
740.563	0.0144418
740.641	0.0145334
740.719	0.0143679
740.797	0.0144898
740.875	0.0145630
740.953	0.0143280
741.031	0.0142545
741.110	0.0143747
741.188	0.0144231
741.266	0.0142983
741.344	0.0143035
741.422	0.0143144
741.500	0.0142211
741.578	0.0142603
741.656	0.0141642
741.735	0.0141544
741.813	0.0141953
741.891	0.0142139
741.969	0.0142735
742.047	0.0142948
742.125	0.0142659
742.203	0.0143890
742.281	0.0143989
742.360	0.0144837
742.438	0.0144054
742.516	0.0143970
742.594	0.0143717
742.672	0.0143266
742.750	0.0144515
742.828	0.0143745
742.906	0.0144535
742.985	0.0146152
743.063	0.0144800
743.141	0.0145585
743.219	0.0146052
743.297	0.0144373
743.375	0.0144223
743.453	0.0143853
743.531	0.0145189
743.610	0.0144852
743.688	0.0144898
743.766	0.0144046
743.844	0.0143114
743.922	0.0144541
744.000	0.0144811
744.078	0.0144473
744.156	0.0145870
744.235	0.0143565
744.313	0.0143612
744.391	0.0144731
744.469	0.0143435
744.547	0.0143925
744.625	0.0144476
744.703	0.0144898
744.781	0.0143255
744.860	0.0142918
744.938	0.0142894
745.016	0.0143262
745.094	0.0145419
745.172	0.0143330
745.250	0.0144511
745.328	0.0144127
745.406	0.0144781
745.485	0.0144643
745.563	0.0144012
745.641	0.0146181
745.719	0.0144578
745.797	0.0144588
745.875	0.0143265
745.953	0.0142721
746.031	0.0143708
746.110	0.0144138
746.188	0.0143916
746.266	0.0144319
746.344	0.0141438
746.422	0.0143221
746.500	0.0144077
746.578	0.0144003
746.656	0.0142663
746.735	0.0142554
746.813	0.0144038
746.891	0.0144476
746.969	0.0143684
747.047	0.0144435
747.125	0.0142991
747.203	0.0143399
747.281	0.0143425
747.360	0.0144457
747.438	0.0144311
747.516	0.0145580
747.594	0.0145449
747.672	0.0144504
747.750	0.0144389
747.828	0.0143881
747.906	0.0143899
747.985	0.0145010
748.063	0.0144257
748.141	0.0144872
748.219	0.0143350
748.297	0.0145148
748.375	0.0144925
748.453	0.0142209
748.531	0.0143715
748.610	0.0144428
748.688	0.0142792
748.766	0.0144469
748.844	0.0142423
748.922	0.0142748
749.000	0.0142427
749.078	0.0141943
749.156	0.0143047
749.235	0.0142843
749.313	0.0142235
749.391	0.0141289
749.469	0.0142594
749.547	0.0142521
749.625	0.0141952
749.703	0.0141370
749.781	0.0141760
749.860	0.0143581
749.938	0.0143032
750.016	0.0141217
750.094	0.0143114
750.172	0.0144143
750.250	0.0143088
750.328	0.0143152
750.406	0.0142652
750.485	0.0143916
750.563	0.0143549
750.641	0.0144737
750.719	0.0143861
750.797	0.0144260
750.875	0.0144082
750.953	0.0143877
751.031	0.0143376
751.110	0.0143292
751.188	0.0144126
751.266	0.0143197
751.344	0.0143365
751.422	0.0143695
751.500	0.0142905
751.578	0.0142450
751.656	0.0141862
751.735	0.0142590
751.813	0.0143459
751.891	0.0143264
751.969	0.0142481
752.047	0.0141976
752.125	0.0143181
752.203	0.0143764
752.281	0.0142311
752.360	0.0142487
752.438	0.0143652
752.516	0.0143078
752.594	0.0142984
752.672	0.0143796
752.750	0.0141967
752.828	0.0143783
752.906	0.0141821
752.985	0.0143562
753.063	0.0143047
753.141	0.0143579
753.219	0.0144738
753.297	0.0142383
753.375	0.0143693
753.453	0.0142632
753.531	0.0143502
753.610	0.0144894
753.688	0.0143716
753.766	0.0142047
753.844	0.0142093
753.922	0.0141733
754.000	0.0142549
754.078	0.0141778
754.156	0.0141541
754.235	0.0143124
754.313	0.0143538
754.391	0.0142275
754.469	0.0140414
754.547	0.0142186
754.625	0.0143866
754.703	0.0144238
754.781	0.0142458
754.860	0.0144463
754.938	0.0143275
755.016	0.0142407
755.094	0.0143143
755.172	0.0142406
755.250	0.0142029
755.328	0.0144450
755.406	0.0143929
755.485	0.0142995
755.563	0.0143520
755.641	0.0141929
755.719	0.0143256
755.797	0.0143105
755.875	0.0143482
755.953	0.0144081
756.031	0.0143532
756.110	0.0143569
756.188	0.0144221
756.266	0.0143319
756.344	0.0143228
756.422	0.0144236
756.500	0.0143912
756.578	0.0143671
756.656	0.0144183
756.735	0.0144225
756.813	0.0144521
756.891	0.0142826
756.969	0.0142609
757.047	0.0143310
757.125	0.0143130
757.203	0.0144102
757.281	0.0143469
757.360	0.0142507
757.438	0.0143182
757.516	0.0141932
757.594	0.0142731
757.672	0.0143156
757.750	0.0143394
757.828	0.0142857
757.906	0.0143636
757.985	0.0144116
758.063	0.0142815
758.141	0.0144429
758.219	0.0145970
758.297	0.0143800
758.375	0.0144961
758.453	0.0145391
758.531	0.0143954
758.610	0.0143972
758.688	0.0144705
758.766	0.0143801
758.844	0.0143626
758.922	0.0144560
759.000	0.0142476
759.078	0.0144524
759.156	0.0142619
759.235	0.0142641
759.313	0.0143584
759.391	0.0143475
759.469	0.0142561
759.547	0.0143497
759.625	0.0143700
759.703	0.0143101
759.781	0.0140943
759.860	0.0143103
759.938	0.0141731
760.016	0.0142625
760.094	0.0142367
760.172	0.0142883
760.250	0.0142171
760.328	0.0141544
760.406	0.0143652
760.485	0.0144556
760.563	0.0142826
760.641	0.0142061
760.719	0.0143360
760.797	0.0142502
760.875	0.0143446
760.953	0.0144045
761.031	0.0142670
761.110	0.0142261
761.188	0.0142994
761.266	0.0142171
761.344	0.0142556
761.422	0.0143641
761.500	0.0142226
761.578	0.0142799
761.656	0.0141518
761.735	0.0142245
761.813	0.0141305
761.891	0.0142537
761.969	0.0140844
762.047	0.0141771
762.125	0.0141978
762.203	0.0141900
762.281	0.0141207
762.360	0.0141193
762.438	0.0141393
762.516	0.0143335
762.594	0.0141621
762.672	0.0141887
762.750	0.0141648
762.828	0.0142355
762.906	0.0142957
762.985	0.0142847
763.063	0.0141540
763.141	0.0142630
763.219	0.0143979
763.297	0.0141900
763.375	0.0140778
763.453	0.0140521
763.531	0.0142281
763.610	0.0143319
763.688	0.0142664
763.766	0.0141933
763.844	0.0142584
763.922	0.0142446
764.000	0.0140248
764.078	0.0141782
764.156	0.0141257
764.235	0.0142073
764.313	0.0141657
764.391	0.0140951
764.469	0.0141850
764.547	0.0140631
764.625	0.0140327
764.703	0.0142254
764.781	0.0141666
764.860	0.0140661
764.938	0.0142216
765.016	0.0140190
765.094	0.0141422
765.172	0.0142276
765.250	0.0141613
765.328	0.0140839
765.406	0.0141603
765.485	0.0143486
765.563	0.0142999
765.641	0.0142270
765.719	0.0142300
765.797	0.0143549
765.875	0.0142527
765.953	0.0142999
766.031	0.0143080
766.110	0.0142297
766.188	0.0143465
766.266	0.0142029
766.344	0.0142789
766.422	0.0142178
766.500	0.0142524
766.578	0.0143537
766.656	0.0142947
766.735	0.0141219
766.813	0.0142225
766.891	0.0142904
766.969	0.0142187
767.047	0.0142231
767.125	0.0141378
767.203	0.0141478
767.281	0.0143183
767.360	0.0142540
767.438	0.0141488
767.516	0.0142587
767.594	0.0140897
767.672	0.0143524
767.750	0.0142835
767.828	0.0142192
767.906	0.0141329
767.985	0.0143716
768.063	0.0144885
768.141	0.0144229
768.219	0.0144826
768.297	0.0143444
768.375	0.0143437
768.453	0.0144662
768.531	0.0143559
768.610	0.0143644
768.688	0.0144192
768.766	0.0143925
768.844	0.0143658
768.922	0.0144199
769.000	0.0144170
769.078	0.0143398
769.156	0.0142189
769.235	0.0144462
769.313	0.0140873
769.391	0.0144174
769.469	0.0143620
769.547	0.0141844
769.625	0.0142276
769.703	0.0142859
769.781	0.0141636
769.860	0.0142645
769.938	0.0143334
770.016	0.0141817
770.094	0.0143059
770.172	0.0141993
770.250	0.0143249
770.328	0.0141837
770.406	0.0142695
770.485	0.0143636
770.563	0.0141997
770.641	0.0142050
770.719	0.0142995
770.797	0.0142601
770.875	0.0143896
770.953	0.0142369
771.031	0.0142304
771.110	0.0141898
771.188	0.0142694
771.266	0.0143379
771.344	0.0143365
771.422	0.0141369
771.500	0.0142562
771.578	0.0143255
771.656	0.0142332
771.735	0.0143037
771.813	0.0142947
771.891	0.0142215
771.969	0.0140903
772.047	0.0142338
772.125	0.0142907
772.203	0.0142771
772.281	0.0142489
772.360	0.0143272
772.438	0.0141714
772.516	0.0142888
772.594	0.0142691
772.672	0.0142366
772.750	0.0142221
772.828	0.0143372
772.906	0.0141994
772.985	0.0142240
773.063	0.0142052
773.141	0.0142578
773.219	0.0143240
773.297	0.0142358
773.375	0.0142175
773.453	0.0142722
773.531	0.0141985
773.610	0.0143150
773.688	0.0142072
773.766	0.0143075
773.844	0.0141045
773.922	0.0142666
774.000	0.0142364
774.078	0.0142627
774.156	0.0141933
774.235	0.0141782
774.313	0.0142381
774.391	0.0142592
774.469	0.0142067
774.547	0.0142000
774.625	0.0142943
774.703	0.0143034
774.781	0.0141286
774.860	0.0140380
774.938	0.0141337
775.016	0.0142442
775.094	0.0142579
775.172	0.0141736
775.250	0.0142195
775.328	0.0142802
775.406	0.0143281
775.485	0.0144404
775.563	0.0142723
775.641	0.0142610
775.719	0.0141889
775.797	0.0142262
775.875	0.0142519
775.953	0.0143282
776.031	0.0143837
776.110	0.0144093
776.188	0.0145310
776.266	0.0143781
776.344	0.0142701
776.422	0.0143829
776.500	0.0144024
776.578	0.0144376
776.656	0.0142689
776.735	0.0143521
776.813	0.0144016
776.891	0.0144445
776.969	0.0141599
777.047	0.0143398
777.125	0.0143886
777.203	0.0143767
777.281	0.0143494
777.360	0.0144064
777.438	0.0143226
777.516	0.0143217
777.594	0.0142503
777.672	0.0141381
777.750	0.0143972
777.828	0.0145000
777.906	0.0144020
777.985	0.0142324
778.063	0.0141708
778.141	0.0143542
778.219	0.0143147
778.297	0.0143526
778.375	0.0142564
778.453	0.0143062
778.531	0.0143674
778.610	0.0142583
778.688	0.0142934
778.766	0.0143462
778.844	0.0142052
778.922	0.0142109
779.000	0.0143600
779.078	0.0143367
779.156	0.0142879
779.235	0.0142867
779.313	0.0142919
779.391	0.0143811
779.469	0.0142671
779.547	0.0142488
779.625	0.0142569
779.703	0.0142751
779.781	0.0143099
779.860	0.0142850
779.938	0.0143657
780.016	0.0143094
780.094	0.0143788
780.172	0.0143090
780.250	0.0142558
780.328	0.0143952
780.406	0.0142253
780.485	0.0142263
780.563	0.0143166
780.641	0.0142091
780.719	0.0140655
780.797	0.0141664
780.875	0.0140684
780.953	0.0142439
781.031	0.0143135
781.110	0.0141236
781.188	0.0141150
781.266	0.0141068
781.344	0.0141398
781.422	0.0140207
781.500	0.0140942
781.578	0.0142329
781.656	0.0140446
781.735	0.0142432
781.813	0.0142555
781.891	0.0142744
781.969	0.0142529
782.047	0.0140033
782.125	0.0141121
782.203	0.0141512
782.281	0.0142130
782.360	0.0141907
782.438	0.0141566
782.516	0.0141937
782.594	0.0141789
782.672	0.0141547
782.750	0.0142514
782.828	0.0141547
782.906	0.0142733
782.985	0.0142501
783.063	0.0142943
783.141	0.0142303
783.219	0.0141053
783.297	0.0141726
783.375	0.0142350
783.453	0.0141630
783.531	0.0141206
783.610	0.0143084
783.688	0.0141219
783.766	0.0141624
783.844	0.0142258
783.922	0.0142670
784.000	0.0143250
784.078	0.0141939
784.156	0.0143086
784.235	0.0141927
784.313	0.0141958
784.391	0.0142049
784.469	0.0142921
784.547	0.0142707
784.625	0.0141821
784.703	0.0142096
784.781	0.0142441
784.860	0.0143970
784.938	0.0144033
785.016	0.0143172
785.094	0.0143076
785.172	0.0143599
785.250	0.0143972
785.328	0.0144331
785.406	0.0144338
785.485	0.0143713
785.563	0.0143407
785.641	0.0144096
785.719	0.0144100
785.797	0.0143583
785.875	0.0143281
785.953	0.0143384
786.031	0.0141917
786.110	0.0142651
786.188	0.0144476
786.266	0.0143414
786.344	0.0141920
786.422	0.0142010
786.500	0.0143248
786.578	0.0142882
786.656	0.0142284
786.735	0.0143665
786.813	0.0143164
786.891	0.0142731
786.969	0.0143478
787.047	0.0142635
787.125	0.0143267
787.203	0.0143627
787.281	0.0142323
787.360	0.0143954
787.438	0.0143173
787.516	0.0143405
787.594	0.0142275
787.672	0.0142323
787.750	0.0143756
787.828	0.0143488
787.906	0.0142708
787.985	0.0143835
788.063	0.0143796
788.141	0.0141235
788.219	0.0141770
788.297	0.0143473
788.375	0.0142841
788.453	0.0142541
788.531	0.0141549
788.610	0.0142871
788.688	0.0143621
788.766	0.0142626
788.844	0.0140813
788.922	0.0142886
789.000	0.0143396
789.078	0.0142958
789.156	0.0142456
789.235	0.0143225
789.313	0.0142196
789.391	0.0142700
789.469	0.0141833
789.547	0.0140978
789.625	0.0140915
789.703	0.0140657
789.781	0.0141523
789.860	0.0141092
789.938	0.0142040
790.016	0.0142850
790.094	0.0141061
790.172	0.0141473
790.250	0.0141767
790.328	0.0142419
790.406	0.0141766
790.485	0.0141665
790.563	0.0142052
790.641	0.0141218
790.719	0.0141462
790.797	0.0140624
790.875	0.0141840
790.953	0.0141167
791.031	0.0141988
791.110	0.0140622
791.188	0.0141210
791.266	0.0139750
791.344	0.0140862
791.422	0.0141140
791.500	0.0140837
791.578	0.0141918
791.656	0.0141300
791.735	0.0140369
791.813	0.0142131
791.891	0.0142020
791.969	0.0140371
792.047	0.0142474
792.125	0.0142235
792.203	0.0140923
792.281	0.0143227
792.360	0.0142144
792.438	0.0141862
792.516	0.0142403
792.594	0.0142177
792.672	0.0143096
792.750	0.0143538
792.828	0.0142796
792.906	0.0141741
792.985	0.0143101
793.063	0.0143140
793.141	0.0141642
793.219	0.0142141
793.297	0.0141893
793.375	0.0142441
793.453	0.0141869
793.531	0.0142635
793.610	0.0142182
793.688	0.0141027
793.766	0.0142581
793.844	0.0141501
793.922	0.0140802
794.000	0.0140022
794.078	0.0139693
794.156	0.0140894
794.235	0.0141217
794.313	0.0140893
794.391	0.0141360
794.469	0.0142036
794.547	0.0142358
794.625	0.0141826
794.703	0.0142232
794.781	0.0142226
794.860	0.0141676
794.938	0.0141623
795.016	0.0141249
795.094	0.0139845
795.172	0.0141055
795.250	0.0141906
795.328	0.0142336
795.406	0.0141943
795.485	0.0140968
795.563	0.0141607
795.641	0.0140816
795.719	0.0141476
795.797	0.0141626
795.875	0.0141975
795.953	0.0141517
796.031	0.0143070
796.110	0.0140914
796.188	0.0142598
796.266	0.0140784
796.344	0.0140265
796.422	0.0141773
796.500	0.0141721
796.578	0.0141425
796.656	0.0141072
796.735	0.0141482
796.813	0.0143472
796.891	0.0141986
796.969	0.0142188
797.047	0.0143695
797.125	0.0144215
797.203	0.0142715
797.281	0.0142580
797.360	0.0143162
797.438	0.0143332
797.516	0.0143897
797.594	0.0143739
797.672	0.0142374
797.750	0.0144168
797.828	0.0142051
797.906	0.0142703
797.985	0.0144025
798.063	0.0142160
798.141	0.0142892
798.219	0.0142091
798.297	0.0141917
798.375	0.0143045
798.453	0.0143169
798.531	0.0143722
798.610	0.0143690
798.688	0.0143100
798.766	0.0142445
798.844	0.0142639
798.922	0.0144269
799.000	0.0142462
799.078	0.0142711
799.156	0.0143876
799.235	0.0142781
799.313	0.0143111
799.391	0.0142531
799.469	0.0142078
799.547	0.0142595
799.625	0.0142958
799.703	0.0143368
799.781	0.0144804
799.860	0.0144716
799.938	0.0144691
800.016	0.0144193
800.094	0.0144133
800.172	0.0143205
800.250	0.0144919
800.328	0.0143772
800.406	0.0145178
800.485	0.0145211
800.563	0.0144608
800.641	0.0142597
800.719	0.0144193
800.797	0.0143463
800.875	0.0144234
800.953	0.0143305
801.031	0.0144329
801.110	0.0144717
801.188	0.0143562
801.266	0.0142545
801.344	0.0144066
801.422	0.0144126
801.500	0.0143297
801.578	0.0143233
801.656	0.0143693
801.735	0.0143063
801.813	0.0143867
801.891	0.0142374
801.969	0.0142611
802.047	0.0143138
802.125	0.0142754
802.203	0.0144099
802.281	0.0143938
802.360	0.0142616
802.438	0.0142733
802.516	0.0144452
802.594	0.0143565
802.672	0.0142767
802.750	0.0142671
802.828	0.0142783
802.906	0.0141653
802.985	0.0142113
803.063	0.0142867
803.141	0.0142441
803.219	0.0141500
803.297	0.0141526
803.375	0.0142287
803.453	0.0143397
803.531	0.0143058
803.610	0.0142513
803.688	0.0142466
803.766	0.0144118
803.844	0.0143182
803.922	0.0142776
804.000	0.0142439
804.078	0.0143687
804.156	0.0145784
804.235	0.0143680
804.313	0.0143238
804.391	0.0143957
804.469	0.0142508
804.547	0.0142771
804.625	0.0143219
804.703	0.0142723
804.781	0.0144013
804.860	0.0141662
804.938	0.0142825
805.016	0.0143130
805.094	0.0142034
805.172	0.0141963
805.250	0.0142851
805.328	0.0143044
805.406	0.0143362
805.485	0.0142616
805.563	0.0143275
805.641	0.0142594
805.719	0.0142386
805.797	0.0142905
805.875	0.0142169
805.953	0.0141201
806.031	0.0142033
806.110	0.0142590
806.188	0.0141676
806.266	0.0140658
806.344	0.0141493
806.422	0.0142302
806.500	0.0144061
806.578	0.0142796
806.656	0.0143328
806.735	0.0142989
806.813	0.0142733
806.891	0.0141726
806.969	0.0143064
807.047	0.0141822
807.125	0.0142010
807.203	0.0143046
807.281	0.0143006
807.360	0.0142612
807.438	0.0142000
807.516	0.0142163
807.594	0.0143324
807.672	0.0143166
807.750	0.0141467
807.828	0.0140828
807.906	0.0141712
807.985	0.0142813
808.063	0.0142881
808.141	0.0142805
808.219	0.0141180
808.297	0.0141863
808.375	0.0143455
808.453	0.0143054
808.531	0.0142674
808.610	0.0144114
808.688	0.0143830
808.766	0.0143605
808.844	0.0143448
808.922	0.0143678
809.000	0.0144126
809.078	0.0142874
809.156	0.0142585
809.235	0.0143051
809.313	0.0143577
809.391	0.0142603
809.469	0.0142177
809.547	0.0143203
809.625	0.0142664
809.703	0.0142900
809.781	0.0144361
809.860	0.0143247
809.938	0.0142390
810.016	0.0141547
810.094	0.0142471
810.172	0.0142574
810.250	0.0143340
810.328	0.0141250
810.406	0.0142576
810.485	0.0143580
810.563	0.0143053
810.641	0.0144023
810.719	0.0142966
810.797	0.0143601
810.875	0.0142960
810.953	0.0143495
811.031	0.0142419
811.110	0.0142749
811.188	0.0143589
811.266	0.0144111
811.344	0.0142302
811.422	0.0143920
811.500	0.0144252
811.578	0.0143559
811.656	0.0143313
811.735	0.0143703
811.813	0.0142661
811.891	0.0141720
811.969	0.0142902
812.047	0.0142522
812.125	0.0142098
812.203	0.0139638
812.281	0.0143198
812.360	0.0141255
812.438	0.0141610
812.516	0.0141049
812.594	0.0141791
812.672	0.0141864
812.750	0.0141828
812.828	0.0141975
812.906	0.0142288
812.985	0.0141692
813.063	0.0141277
813.141	0.0140902
813.219	0.0140482
813.297	0.0142819
813.375	0.0142026
813.453	0.0141440
813.531	0.0142213
813.610	0.0142011
813.688	0.0142879
813.766	0.0143567
813.844	0.0142223
813.922	0.0142252
814.000	0.0143078
814.078	0.0143024
814.156	0.0143110
814.235	0.0142981
814.313	0.0143804
814.391	0.0143892
814.469	0.0142231
814.547	0.0141808
814.625	0.0141590
814.703	0.0141175
814.781	0.0141407
814.860	0.0141862
814.938	0.0142172
815.016	0.0141565
815.094	0.0142621
815.172	0.0141280
815.250	0.0141164
815.328	0.0142081
815.406	0.0141113
815.485	0.0142612
815.563	0.0143095
815.641	0.0142115
815.719	0.0141469
815.797	0.0142934
815.875	0.0144028
815.953	0.0142870
816.031	0.0142750
816.110	0.0142776
816.188	0.0142059
816.266	0.0142911
816.344	0.0144221
816.422	0.0143813
816.500	0.0142970
816.578	0.0144125
816.656	0.0143799
816.735	0.0143199
816.813	0.0143549
816.891	0.0145239
816.969	0.0143750
817.047	0.0142714
817.125	0.0142654
817.203	0.0142567
817.281	0.0142919
817.360	0.0141769
817.438	0.0142983
817.516	0.0143545
817.594	0.0143758
817.672	0.0143707
817.750	0.0142936
817.828	0.0142535
817.906	0.0141779
817.985	0.0143130
818.063	0.0144902
818.141	0.0143864
818.219	0.0142344
818.297	0.0141559
818.375	0.0142500
818.453	0.0143658
818.531	0.0144223
818.610	0.0143176
818.688	0.0142469
818.766	0.0142407
818.844	0.0142776
818.922	0.0144402
819.000	0.0142984
819.078	0.0142910
819.156	0.0144024
819.235	0.0144199
819.313	0.0143456
819.391	0.0144122
819.469	0.0143162
819.547	0.0144585
819.625	0.0143641
819.703	0.0142154
819.781	0.0143259
819.860	0.0143861
819.938	0.0142576
820.016	0.0143027
820.094	0.0143315
820.172	0.0142805
820.250	0.0143859
820.328	0.0143558
820.406	0.0143510
820.485	0.0143665
820.563	0.0141985
820.641	0.0142828
820.719	0.0142689
820.797	0.0143121
820.875	0.0144881
820.953	0.0142430
821.031	0.0142872
821.110	0.0143362
821.188	0.0144014
821.266	0.0144221
821.344	0.0143603
821.422	0.0142487
821.500	0.0142743
821.578	0.0143272
821.656	0.0143766
821.735	0.0143822
821.813	0.0144384
821.891	0.0143676
821.969	0.0143346
822.047	0.0142762
822.125	0.0144471
822.203	0.0144754
822.281	0.0141649
822.360	0.0142796
822.438	0.0143228
822.516	0.0143851
822.594	0.0142617
822.672	0.0141927
822.750	0.0143455
822.828	0.0144633
822.906	0.0142841
822.985	0.0142099
823.063	0.0142400
823.141	0.0143308
823.219	0.0142131
823.297	0.0141643
823.375	0.0143130
823.453	0.0141863
823.531	0.0141507
823.610	0.0143449
823.688	0.0144312
823.766	0.0143806
823.844	0.0142352
823.922	0.0143901
824.000	0.0144434
824.078	0.0144730
824.156	0.0143254
824.235	0.0143366
824.313	0.0143316
824.391	0.0143517
824.469	0.0143806
824.547	0.0143786
824.625	0.0143208
824.703	0.0143449
824.781	0.0141399
824.860	0.0142661
824.938	0.0143238
825.016	0.0144572
825.094	0.0143541
825.172	0.0143685
825.250	0.0142295
825.328	0.0142520
825.406	0.0143577
825.485	0.0142220
825.563	0.0143024
825.641	0.0142290
825.719	0.0141201
825.797	0.0142147
825.875	0.0142101
825.953	0.0141882
826.031	0.0141743
826.110	0.0142928
826.188	0.0141492
826.266	0.0140855
826.344	0.0142373
826.422	0.0142268
826.500	0.0143000
826.578	0.0142381
826.656	0.0143768
826.735	0.0142424
826.813	0.0141378
826.891	0.0141953
826.969	0.0142482
827.047	0.0142785
827.125	0.0143139
827.203	0.0141419
827.281	0.0143233
827.360	0.0142378
827.438	0.0143097
827.516	0.0142510
827.594	0.0142332
827.672	0.0142371
827.750	0.0142525
827.828	0.0142604
827.906	0.0143151
827.985	0.0143307
828.063	0.0142572
828.141	0.0143335
828.219	0.0143848
828.297	0.0143288
828.375	0.0142055
828.453	0.0142665
828.531	0.0142545
828.610	0.0142435
828.688	0.0143572
828.766	0.0142931
828.844	0.0142393
828.922	0.0143913
829.000	0.0142182
829.078	0.0143757
829.156	0.0143510
829.235	0.0142551
829.313	0.0144131
829.391	0.0142239
829.469	0.0142480
829.547	0.0144370
829.625	0.0143526
829.703	0.0143172
829.781	0.0141495
829.860	0.0143223
829.938	0.0143847
830.016	0.0143758
830.094	0.0142195
830.172	0.0143619
830.250	0.0143530
830.328	0.0142702
830.406	0.0142560
830.485	0.0143587
830.563	0.0143110
830.641	0.0141393
830.719	0.0142857
830.797	0.0143000
830.875	0.0141811
830.953	0.0143443
831.031	0.0143392
831.110	0.0141647
831.188	0.0141638
831.266	0.0142970
831.344	0.0142375
831.422	0.0141262
831.500	0.0142720
831.578	0.0142357
831.656	0.0142064
831.735	0.0142629
831.813	0.0143126
831.891	0.0142265
831.969	0.0142184
832.047	0.0142170
832.125	0.0141784
832.203	0.0143193
832.281	0.0141743
832.360	0.0142358
832.438	0.0142133
832.516	0.0142276
832.594	0.0142256
832.672	0.0141269
832.750	0.0141957
832.828	0.0141568
832.906	0.0143040
832.985	0.0141805
833.063	0.0141908
833.141	0.0142779
833.219	0.0142824
833.297	0.0142094
833.375	0.0142017
833.453	0.0142754
833.531	0.0143126
833.610	0.0142765
833.688	0.0143086
833.766	0.0142135
833.844	0.0143727
833.922	0.0142184
834.000	0.0142979
834.078	0.0144086
834.156	0.0143799
834.235	0.0142306
834.313	0.0142487
834.391	0.0144025
834.469	0.0143438
834.547	0.0145059
834.625	0.0144597
834.703	0.0144170
834.781	0.0143582
834.860	0.0143256
834.938	0.0143696
835.016	0.0143953
835.094	0.0143844
835.172	0.0142934
835.250	0.0144103
835.328	0.0144054
835.406	0.0141699
835.485	0.0142218
835.563	0.0143212
835.641	0.0145539
835.719	0.0142899
835.797	0.0143213
835.875	0.0143049
835.953	0.0143391
836.031	0.0143268
836.110	0.0144189
836.188	0.0142822
836.266	0.0143195
836.344	0.0143250
836.422	0.0144205
836.500	0.0142411
836.578	0.0143618
836.656	0.0143056
836.735	0.0143945
836.813	0.0142190
836.891	0.0142306
836.969	0.0142611
837.047	0.0143425
837.125	0.0143204
837.203	0.0143466
837.281	0.0141984
837.360	0.0143163
837.438	0.0143780
837.516	0.0142310
837.594	0.0142252
837.672	0.0142270
837.750	0.0142234
837.828	0.0142725
837.906	0.0143076
837.985	0.0142818
838.063	0.0142777
838.141	0.0142463
838.219	0.0141928
838.297	0.0140805
838.375	0.0142386
838.453	0.0142027
838.531	0.0143040
838.610	0.0142168
838.688	0.0142972
838.766	0.0143347
838.844	0.0141436
838.922	0.0142328
839.000	0.0142950
839.078	0.0143107
839.156	0.0143414
839.235	0.0141372
839.313	0.0143048
839.391	0.0142577
839.469	0.0143624
839.547	0.0143393
839.625	0.0143664
839.703	0.0143288
839.781	0.0142079
839.860	0.0142471
839.938	0.0143041
840.016	0.0143623
840.094	0.0141954
840.172	0.0143925
840.250	0.0143332
840.328	0.0142236
840.406	0.0142725
840.485	0.0144118
840.563	0.0142785
840.641	0.0143335
840.719	0.0143619
840.797	0.0142895
840.875	0.0143070
840.953	0.0143098
841.031	0.0142223
841.110	0.0143394
841.188	0.0142749
841.266	0.0141781
841.344	0.0143278
841.422	0.0143107
841.500	0.0143102
841.578	0.0143935
841.656	0.0143320
841.735	0.0143577
841.813	0.0142921
841.891	0.0143445
841.969	0.0144199
842.047	0.0143771
842.125	0.0143118
842.203	0.0143089
842.281	0.0144407
842.360	0.0143084
842.438	0.0142692
842.516	0.0143732
842.594	0.0143671
842.672	0.0144112
842.750	0.0144070
842.828	0.0143422
842.906	0.0142545
842.985	0.0144444
843.063	0.0144489
843.141	0.0143353
843.219	0.0143869
843.297	0.0142202
843.375	0.0142770
843.453	0.0143007
843.531	0.0143111
843.610	0.0143778
843.688	0.0142980
843.766	0.0143143
843.844	0.0142543
843.922	0.0143728
844.000	0.0143970
844.078	0.0142920
844.156	0.0142789
844.235	0.0144039
844.313	0.0144362
844.391	0.0142458
844.469	0.0142452
844.547	0.0143682
844.625	0.0143623
844.703	0.0142066
844.781	0.0143703
844.860	0.0142775
844.938	0.0141796
845.016	0.0143156
845.094	0.0143592
845.172	0.0143116
845.250	0.0142582
845.328	0.0141542
845.406	0.0142068
845.485	0.0143386
845.563	0.0143539
845.641	0.0142409
845.719	0.0142468
845.797	0.0143116
845.875	0.0144738
845.953	0.0144000
846.031	0.0142831
846.110	0.0143999
846.188	0.0142965
846.266	0.0144166
846.344	0.0142607
846.422	0.0143862
846.500	0.0142863
846.578	0.0143183
846.656	0.0143533
846.735	0.0144570
846.813	0.0143880
846.891	0.0143406
846.969	0.0143811
847.047	0.0143867
847.125	0.0142137
847.203	0.0144119
847.281	0.0144318
847.360	0.0143291
847.438	0.0142316
847.516	0.0143150
847.594	0.0143926
847.672	0.0143558
847.750	0.0142130
847.828	0.0143211
847.906	0.0144455
847.985	0.0142680
848.063	0.0143286
848.141	0.0141528
848.219	0.0142344
848.297	0.0143552
848.375	0.0141515
848.453	0.0142870
848.531	0.0143055
848.610	0.0143946
848.688	0.0142196
848.766	0.0142281
848.844	0.0142853
848.922	0.0143464
849.000	0.0142351
849.078	0.0141741
849.156	0.0143089
849.235	0.0145171
849.313	0.0143513
849.391	0.0142204
849.469	0.0143430
849.547	0.0143096
849.625	0.0142288
849.703	0.0142130
849.781	0.0142531
849.860	0.0142961
849.938	0.0142632
850.016	0.0141744
850.094	0.0142863
850.172	0.0142620
850.250	0.0143026
850.328	0.0142650
850.406	0.0142478
850.485	0.0142199
850.563	0.0142470
850.641	0.0143664
850.719	0.0141775
850.797	0.0142019
850.875	0.0143795
850.953	0.0142660
851.031	0.0142780
851.110	0.0142654
851.188	0.0141266
851.266	0.0143619
851.344	0.0143259
851.422	0.0143427
851.500	0.0142676
851.578	0.0142195
851.656	0.0141425
851.735	0.0143306
851.813	0.0143148
851.891	0.0142893
851.969	0.0141801
852.047	0.0141403
852.125	0.0142783
852.203	0.0140978
852.281	0.0141054
852.360	0.0141103
852.438	0.0143152
852.516	0.0142023
852.594	0.0142387
852.672	0.0141598
852.750	0.0141697
852.828	0.0140236
852.906	0.0141002
852.985	0.0141756
853.063	0.0142127
853.141	0.0141605
853.219	0.0141389
853.297	0.0141508
853.375	0.0140508
853.453	0.0141987
853.531	0.0142229
853.610	0.0143549
853.688	0.0142134
853.766	0.0142929
853.844	0.0141453
853.922	0.0141409
854.000	0.0141827
854.078	0.0142800
854.156	0.0141971
854.235	0.0142209
854.313	0.0141961
854.391	0.0141080
854.469	0.0142219
854.547	0.0142570
854.625	0.0143707
854.703	0.0142931
854.781	0.0142361
854.860	0.0143230
854.938	0.0143690
855.016	0.0141642
855.094	0.0142727
855.172	0.0143041
855.250	0.0144234
855.328	0.0142277
855.406	0.0141456
855.485	0.0142759
855.563	0.0141734
855.641	0.0141965
855.719	0.0142479
855.797	0.0143941
855.875	0.0142802
855.953	0.0143033
856.031	0.0142541
856.110	0.0142052
856.188	0.0142586
856.266	0.0142436
856.344	0.0142531
856.422	0.0142674
856.500	0.0142863
856.578	0.0142409
856.656	0.0140942
856.735	0.0142798
856.813	0.0142549
856.891	0.0142325
856.969	0.0142173
857.047	0.0142546
857.125	0.0143797
857.203	0.0142759
857.281	0.0142237
857.360	0.0141999
857.438	0.0142873
857.516	0.0142370
857.594	0.0141159
857.672	0.0142539
857.750	0.0143372
857.828	0.0143114
857.906	0.0141644
857.985	0.0142418
858.063	0.0141118
858.141	0.0141942
858.219	0.0142796
858.297	0.0141786
858.375	0.0140508
858.453	0.0141937
858.531	0.0142165
858.610	0.0142294
858.688	0.0143036
858.766	0.0142834
858.844	0.0142149
858.922	0.0142284
859.000	0.0142313
859.078	0.0141954
859.156	0.0141579
859.235	0.0142448
859.313	0.0142486
859.391	0.0142074
859.469	0.0142835
859.547	0.0143710
859.625	0.0142354
859.703	0.0142290
859.781	0.0143863
859.860	0.0142827
859.938	0.0143876
860.016	0.0143405
860.094	0.0143284
860.172	0.0142626
860.250	0.0143110
860.328	0.0143271
860.406	0.0144316
860.485	0.0143309
860.563	0.0142617
860.641	0.0143372
860.719	0.0141719
860.797	0.0143499
860.875	0.0144442
860.953	0.0143090
861.031	0.0143605
861.110	0.0143707
861.188	0.0143761
861.266	0.0143571
861.344	0.0142869
861.422	0.0142067
861.500	0.0143352
861.578	0.0143615
861.656	0.0141962
861.735	0.0143046
861.813	0.0143170
861.891	0.0143513
861.969	0.0141895
862.047	0.0144551
862.125	0.0143374
862.203	0.0143194
862.281	0.0143422
862.360	0.0145882
862.438	0.0143774
862.516	0.0143435
862.594	0.0143805
862.672	0.0143130
862.750	0.0142580
862.828	0.0142960
862.906	0.0143139
862.985	0.0142334
863.063	0.0142060
863.141	0.0142185
863.219	0.0141810
863.297	0.0141553
863.375	0.0142152
863.453	0.0142312
863.531	0.0140340
863.610	0.0141705
863.688	0.0141679
863.766	0.0141127
863.844	0.0142084
863.922	0.0140215
864.000	0.0142126
864.078	0.0141933
864.156	0.0142879
864.235	0.0141956
864.313	0.0141774
864.391	0.0143148
864.469	0.0142377
864.547	0.0141630
864.625	0.0140820
864.703	0.0142487
864.781	0.0142803
864.860	0.0140884
864.938	0.0142323
865.016	0.0140978
865.094	0.0142251
865.172	0.0141315
865.250	0.0142014
865.328	0.0142566
865.406	0.0142033
865.485	0.0141975
865.563	0.0141190
865.641	0.0141818
865.719	0.0141145
865.797	0.0141499
865.875	0.0141772
865.953	0.0142111
866.031	0.0142418
866.110	0.0143033
866.188	0.0141985
866.266	0.0142412
866.344	0.0142960
866.422	0.0143301
866.500	0.0142305
866.578	0.0142054
866.656	0.0142674
866.735	0.0142896
866.813	0.0142351
866.891	0.0142021
866.969	0.0143305
867.047	0.0144241
867.125	0.0142858
867.203	0.0142797
867.281	0.0144146
867.360	0.0144419
867.438	0.0143132
867.516	0.0143794
867.594	0.0143913
867.672	0.0141660
867.750	0.0142395
867.828	0.0143047
867.906	0.0142615
867.985	0.0143017
868.063	0.0143873
868.141	0.0142999
868.219	0.0143996
868.297	0.0144296
868.375	0.0143521
868.453	0.0142275
868.531	0.0144395
868.610	0.0143524
868.688	0.0144478
868.766	0.0144733
868.844	0.0143777
868.922	0.0143402
869.000	0.0143457
869.078	0.0142987
869.156	0.0143903
869.235	0.0144662
869.313	0.0142858
869.391	0.0142150
869.469	0.0142508
869.547	0.0142139
869.625	0.0142569
869.703	0.0142782
869.781	0.0141190
869.860	0.0144095
869.938	0.0142301
870.016	0.0142328
870.094	0.0143798
870.172	0.0142699
870.250	0.0144291
870.328	0.0142476
870.406	0.0142397
870.485	0.0144679
870.563	0.0143639
870.641	0.0142530
870.719	0.0143592
870.797	0.0142799
870.875	0.0142695
870.953	0.0143478
871.031	0.0142756
871.110	0.0144558
871.188	0.0142232
871.266	0.0143066
871.344	0.0142986
871.422	0.0142751
871.500	0.0140668
871.578	0.0143045
871.656	0.0142211
871.735	0.0142911
871.813	0.0143259
871.891	0.0142005
871.969	0.0142563
872.047	0.0142315
872.125	0.0141218
872.203	0.0143133
872.281	0.0143243
872.360	0.0143188
872.438	0.0142041
872.516	0.0142112
872.594	0.0141720
872.672	0.0141945
872.750	0.0143163
872.828	0.0142014
872.906	0.0142755
872.985	0.0142921
873.063	0.0144093
873.141	0.0141904
873.219	0.0141338
873.297	0.0141831
873.375	0.0142501
873.453	0.0142516
873.531	0.0142461
873.610	0.0142084
873.688	0.0143399
873.766	0.0143043
873.844	0.0142670
873.922	0.0142375
874.000	0.0141878
874.078	0.0143053
874.156	0.0141371
874.235	0.0141458
874.313	0.0141717
874.391	0.0141525
874.469	0.0142746
874.547	0.0141779
874.625	0.0142661
874.703	0.0143627
874.781	0.0142680
874.860	0.0143303
874.938	0.0144089
875.016	0.0143656
875.094	0.0144221
875.172	0.0142669
875.250	0.0143955
875.328	0.0143703
875.406	0.0143126
875.485	0.0143752
875.563	0.0144569
875.641	0.0144882
875.719	0.0144231
875.797	0.0143523
875.875	0.0143235
875.953	0.0143513
876.031	0.0142889
876.110	0.0143259
876.188	0.0143315
876.266	0.0141993
876.344	0.0143770
876.422	0.0142601
876.500	0.0142307
876.578	0.0143139
876.656	0.0142797
876.735	0.0142564
876.813	0.0143922
876.891	0.0143802
876.969	0.0143627
877.047	0.0143926
877.125	0.0141171
877.203	0.0142576
877.281	0.0143450
877.360	0.0143055
877.438	0.0143440
877.516	0.0144024
877.594	0.0141504
877.672	0.0143219
877.750	0.0142418
877.828	0.0143805
877.906	0.0144586
877.985	0.0143530
878.063	0.0144027
878.141	0.0144446
878.219	0.0145013
878.297	0.0143618
878.375	0.0144140
878.453	0.0143558
878.531	0.0143630
878.610	0.0144269
878.688	0.0144598
878.766	0.0143875
878.844	0.0143592
878.922	0.0142467
879.000	0.0144072
879.078	0.0144044
879.156	0.0143143
879.235	0.0142811
879.313	0.0143816
879.391	0.0144089
879.469	0.0144399
879.547	0.0142919
879.625	0.0143051
879.703	0.0143133
879.781	0.0143703
879.860	0.0144402
879.938	0.0143417
880.016	0.0142282
880.094	0.0144147
880.172	0.0143919
880.250	0.0143749
880.328	0.0144048
880.406	0.0144003
880.485	0.0143557
880.563	0.0143636
880.641	0.0142129
880.719	0.0142554
880.797	0.0142351
880.875	0.0143649
880.953	0.0144363
881.031	0.0143787
881.110	0.0142599
881.188	0.0142525
881.266	0.0142601
881.344	0.0142106
881.422	0.0142854
881.500	0.0141280
881.578	0.0140808
881.656	0.0142427
881.735	0.0141378
881.813	0.0143490
881.891	0.0143963
881.969	0.0141804
882.047	0.0141711
882.125	0.0142528
882.203	0.0142227
882.281	0.0141814
882.360	0.0142245
882.438	0.0143223
882.516	0.0143051
882.594	0.0143374
882.672	0.0142860
882.750	0.0142108
882.828	0.0143414
882.906	0.0142860
882.985	0.0142908
883.063	0.0143452
883.141	0.0144386
883.219	0.0143768
883.297	0.0143439
883.375	0.0143642
883.453	0.0144025
883.531	0.0143546
883.610	0.0144283
883.688	0.0144081
883.766	0.0145096
883.844	0.0144608
883.922	0.0143581
884.000	0.0144061
884.078	0.0143526
884.156	0.0143616
884.235	0.0143813
884.313	0.0143597
884.391	0.0144006
884.469	0.0143131
884.547	0.0144240
884.625	0.0143525
884.703	0.0143862
884.781	0.0143548
884.860	0.0141553
884.938	0.0142971
885.016	0.0143074
885.094	0.0143327
885.172	0.0143269
885.250	0.0142842
885.328	0.0141583
885.406	0.0142374
885.485	0.0141988
885.563	0.0142368
885.641	0.0143329
885.719	0.0142062
885.797	0.0142389
885.875	0.0142933
885.953	0.0142540
886.031	0.0143800
886.110	0.0143300
886.188	0.0141714
886.266	0.0142009
886.344	0.0142754
886.422	0.0142474
886.500	0.0143726
886.578	0.0142197
886.656	0.0141347
886.735	0.0142106
886.813	0.0140054
886.891	0.0140966
886.969	0.0141907
887.047	0.0140932
887.125	0.0140978
887.203	0.0141570
887.281	0.0141126
887.360	0.0141280
887.438	0.0140806
887.516	0.0141850
887.594	0.0141409
887.672	0.0141821
887.750	0.0141145
887.828	0.0141293
887.906	0.0142073
887.985	0.0141573
888.063	0.0142635
888.141	0.0142168
888.219	0.0141432
888.297	0.0142211
888.375	0.0143445
888.453	0.0142742
888.531	0.0142918
888.610	0.0143133
888.688	0.0143039
888.766	0.0142834
888.844	0.0142347
888.922	0.0142278
889.000	0.0142504
889.078	0.0142885
889.156	0.0142914
889.235	0.0142516
889.313	0.0141949
889.391	0.0143094
889.469	0.0143994
889.547	0.0142751
889.625	0.0143368
889.703	0.0143998
889.781	0.0142068
889.860	0.0141666
889.938	0.0143562
890.016	0.0143961
890.094	0.0142197
890.172	0.0143414
890.250	0.0144608
890.328	0.0144234
890.406	0.0143410
890.485	0.0145835
890.563	0.0143327
890.641	0.0143602
890.719	0.0144185
890.797	0.0143281
890.875	0.0142323
890.953	0.0142661
891.031	0.0141283
891.110	0.0141899
891.188	0.0143519
891.266	0.0143912
891.344	0.0142451
891.422	0.0141545
891.500	0.0141262
891.578	0.0143540
891.656	0.0142442
891.735	0.0142529
891.813	0.0142786
891.891	0.0142950
891.969	0.0142791
892.047	0.0144321
892.125	0.0142814
892.203	0.0141866
892.281	0.0142055
892.360	0.0142063
892.438	0.0141917
892.516	0.0142992
892.594	0.0143111
892.672	0.0142601
892.750	0.0142201
892.828	0.0142043
892.906	0.0142870
892.985	0.0143089
893.063	0.0142342
893.141	0.0141631
893.219	0.0141257
893.297	0.0143282
893.375	0.0141724
893.453	0.0140543
893.531	0.0141962
893.610	0.0142915
893.688	0.0142889
893.766	0.0141394
893.844	0.0140743
893.922	0.0142265
894.000	0.0141735
894.078	0.0141309
894.156	0.0141811
894.235	0.0142172
894.313	0.0142035
894.391	0.0141876
894.469	0.0141061
894.547	0.0142451
894.625	0.0141322
894.703	0.0142414
894.781	0.0141083
894.860	0.0140997
894.938	0.0143459
895.016	0.0143349
895.094	0.0141945
895.172	0.0141920
895.250	0.0142599
895.328	0.0142756
895.406	0.0142528
895.485	0.0140646
895.563	0.0141603
895.641	0.0143079
895.719	0.0143717
895.797	0.0142838
895.875	0.0143281
895.953	0.0144097
896.031	0.0143365
896.110	0.0142456
896.188	0.0143299
896.266	0.0142284
896.344	0.0143565
896.422	0.0142204
896.500	0.0143039
896.578	0.0144189
896.656	0.0145048
896.735	0.0143667
896.813	0.0144153
896.891	0.0143839
896.969	0.0142797
897.047	0.0143578
897.125	0.0143643
897.203	0.0143409
897.281	0.0143670
897.360	0.0143291
897.438	0.0143163
897.516	0.0143120
897.594	0.0142736
897.672	0.0142871
897.750	0.0142336
897.828	0.0142003
897.906	0.0143063
897.985	0.0141848
898.063	0.0142321
898.141	0.0141957
898.219	0.0143252
898.297	0.0143834
898.375	0.0142268
898.453	0.0143626
898.531	0.0143626
898.610	0.0144042
898.688	0.0143816
898.766	0.0144096
898.844	0.0143941
898.922	0.0144146
899.000	0.0144324
899.078	0.0144772
899.156	0.0143954
899.235	0.0145387
899.313	0.0144354
899.391	0.0143292
899.469	0.0144391
899.547	0.0145357
899.625	0.0143623
899.703	0.0144561
899.781	0.0144263
899.860	0.0145754
899.938	0.0144962
900.016	0.0145892
900.094	0.0145751
900.172	0.0143826
900.250	0.0145446
900.328	0.0145890
900.406	0.0145097
900.485	0.0146255
900.563	0.0144512
900.641	0.0145287
900.719	0.0144686
900.797	0.0146506
900.875	0.0145933
900.953	0.0143884
901.031	0.0145026
901.110	0.0145190
901.188	0.0144778
901.266	0.0144907
901.344	0.0145123
901.422	0.0146223
901.500	0.0145336
901.578	0.0145517
901.656	0.0146604
901.735	0.0144186
901.813	0.0146039
901.891	0.0146337
901.969	0.0143999
902.047	0.0144445
902.125	0.0144613
902.203	0.0144859
902.281	0.0144437
902.360	0.0145671
902.438	0.0144833
902.516	0.0145161
902.594	0.0144374
902.672	0.0145499
902.750	0.0146085
902.828	0.0144758
902.906	0.0145695
902.985	0.0143855
903.063	0.0144763
903.141	0.0144289
903.219	0.0143576
903.297	0.0144346
903.375	0.0144612
903.453	0.0144613
903.531	0.0143885
903.610	0.0143092
903.688	0.0145476
903.766	0.0144715
903.844	0.0143807
903.922	0.0143626
904.000	0.0143074
904.078	0.0144592
904.156	0.0143226
904.235	0.0144321
904.313	0.0144023
904.391	0.0143059
904.469	0.0143797
904.547	0.0144395
904.625	0.0144658
904.703	0.0143418
904.781	0.0143450
904.860	0.0143905
904.938	0.0144703
905.016	0.0144073
905.094	0.0144142
905.172	0.0144106
905.250	0.0143360
905.328	0.0142624
905.406	0.0143313
905.485	0.0143777
905.563	0.0142397
905.641	0.0141621
905.719	0.0142030
905.797	0.0142749
905.875	0.0142843
905.953	0.0143526
906.031	0.0143265
906.110	0.0142171
906.188	0.0141364
906.266	0.0142573
906.344	0.0142496
906.422	0.0143981
906.500	0.0142465
906.578	0.0142968
906.656	0.0143715
906.735	0.0142162
906.813	0.0143130
906.891	0.0142301
906.969	0.0142672
907.047	0.0143253
907.125	0.0143876
907.203	0.0143870
907.281	0.0142921
907.360	0.0143324
907.438	0.0142486
907.516	0.0141933
907.594	0.0143422
907.672	0.0142606
907.750	0.0141477
907.828	0.0142365
907.906	0.0143280
907.985	0.0141663
908.063	0.0144281
908.141	0.0142877
908.219	0.0143379
908.297	0.0142161
908.375	0.0144516
908.453	0.0143034
908.531	0.0142308
908.610	0.0143845
908.688	0.0143404
908.766	0.0144915
908.844	0.0143507
908.922	0.0143050
909.000	0.0142844
909.078	0.0142300
909.156	0.0143387
909.235	0.0142978
909.313	0.0142382
909.391	0.0142409
909.469	0.0143146
909.547	0.0143188
909.625	0.0143080
909.703	0.0142905
909.781	0.0142465
909.860	0.0143359
909.938	0.0142883
910.016	0.0143179
910.094	0.0142118
910.172	0.0142789
910.250	0.0141585
910.328	0.0141761
910.406	0.0142652
910.485	0.0142463
910.563	0.0143381
910.641	0.0141267
910.719	0.0142428
910.797	0.0143182
910.875	0.0141816
910.953	0.0141524
911.031	0.0141884
911.110	0.0142766
911.188	0.0143444
911.266	0.0142607
911.344	0.0142696
911.422	0.0143655
911.500	0.0142885
911.578	0.0142775
911.656	0.0143134
911.735	0.0141891
911.813	0.0141846
911.891	0.0142297
911.969	0.0143677
912.047	0.0143553
912.125	0.0143229
912.203	0.0142616
912.281	0.0142641
912.360	0.0142347
912.438	0.0141901
912.516	0.0142469
912.594	0.0141573
912.672	0.0143209
912.750	0.0143092
912.828	0.0141737
912.906	0.0141763
912.985	0.0142416
913.063	0.0142693
913.141	0.0142715
913.219	0.0141822
913.297	0.0142387
913.375	0.0142564
913.453	0.0143534
913.531	0.0143349
913.610	0.0142944
913.688	0.0143040
913.766	0.0143236
913.844	0.0143740
913.922	0.0141479
914.000	0.0143294
914.078	0.0143324
914.156	0.0143365
914.235	0.0143609
914.313	0.0142370
914.391	0.0142405
914.469	0.0143558
914.547	0.0142368
914.625	0.0143302
914.703	0.0144655
914.781	0.0142696
914.860	0.0143135
914.938	0.0143463
915.016	0.0143592
915.094	0.0143394
915.172	0.0145244
915.250	0.0143727
915.328	0.0143130
915.406	0.0144898
915.485	0.0143808
915.563	0.0144073
915.641	0.0142470
915.719	0.0143192
915.797	0.0142670
915.875	0.0142474
915.953	0.0143191
916.031	0.0142186
916.110	0.0145067
916.188	0.0144901
916.266	0.0143073
916.344	0.0141707
916.422	0.0142296
916.500	0.0143706
916.578	0.0143008
916.656	0.0144778
916.735	0.0143657
916.813	0.0142197
916.891	0.0142373
916.969	0.0142463
917.047	0.0142518
917.125	0.0142422
917.203	0.0142272
917.281	0.0142121
917.360	0.0143485
917.438	0.0141972
917.516	0.0143363
917.594	0.0142461
917.672	0.0142486
917.750	0.0143227
917.828	0.0142171
917.906	0.0143204
917.985	0.0142994
918.063	0.0143331
918.141	0.0143687
918.219	0.0143271
918.297	0.0141550
918.375	0.0141979
918.453	0.0143385
918.531	0.0142216
918.610	0.0141021
918.688	0.0142436
918.766	0.0142137
918.844	0.0143179
918.922	0.0142287
919.000	0.0143021
919.078	0.0142911
919.156	0.0142843
919.235	0.0142764
919.313	0.0143808
919.391	0.0143438
919.469	0.0143593
919.547	0.0143595
919.625	0.0143365
919.703	0.0142437
919.781	0.0143247
919.860	0.0143475
919.938	0.0142549
920.016	0.0143918
920.094	0.0143420
920.172	0.0143975
920.250	0.0142934
920.328	0.0142807
920.406	0.0144523
920.485	0.0143599
920.563	0.0143842
920.641	0.0143003
920.719	0.0142643
920.797	0.0143639
920.875	0.0142442
920.953	0.0142807
921.031	0.0143594
921.110	0.0143866
921.188	0.0142219
921.266	0.0142442
921.344	0.0143719
921.422	0.0143156
921.500	0.0143640
921.578	0.0143829
921.656	0.0142722
921.735	0.0143257
921.813	0.0142875
921.891	0.0143423
921.969	0.0144834
922.047	0.0144894
922.125	0.0144017
922.203	0.0143254
922.281	0.0144206
922.360	0.0143243
922.438	0.0144762
922.516	0.0143919
922.594	0.0144269
922.672	0.0144860
922.750	0.0143482
922.828	0.0144458
922.906	0.0143523
922.985	0.0143324
923.063	0.0144409
923.141	0.0143339
923.219	0.0143774
923.297	0.0143086
923.375	0.0144070
923.453	0.0143584
923.531	0.0142837
923.610	0.0143941
923.688	0.0142926
923.766	0.0144242
923.844	0.0144379
923.922	0.0142777
924.000	0.0143126
924.078	0.0143855
924.156	0.0143607
924.235	0.0144166
924.313	0.0144121
924.391	0.0143958
924.469	0.0143556
924.547	0.0145702
924.625	0.0145159
924.703	0.0143398
924.781	0.0143279
924.860	0.0143480
924.938	0.0145476
925.016	0.0143435
925.094	0.0143800
925.172	0.0143804
925.250	0.0142648
925.328	0.0144112
925.406	0.0142090
925.485	0.0143049
925.563	0.0141447
925.641	0.0142272
925.719	0.0143026
925.797	0.0142796
925.875	0.0141551
925.953	0.0144250
926.031	0.0141540
926.110	0.0143253
926.188	0.0142268
926.266	0.0143176
926.344	0.0141544
926.422	0.0142278
926.500	0.0142332
926.578	0.0142739
926.656	0.0141284
926.735	0.0141044
926.813	0.0142806
926.891	0.0143444
926.969	0.0141914
927.047	0.0141121
927.125	0.0141972
927.203	0.0143439
927.281	0.0142972
927.360	0.0142780
927.438	0.0142225
927.516	0.0141427
927.594	0.0142739
927.672	0.0141549
927.750	0.0140292
927.828	0.0141970
927.906	0.0142867
927.985	0.0142474
928.063	0.0142184
928.141	0.0141067
928.219	0.0142475
928.297	0.0141860
928.375	0.0141039
928.453	0.0141089
928.531	0.0141984
928.610	0.0141520
928.688	0.0141540
928.766	0.0141657
928.844	0.0142374
928.922	0.0141664
929.000	0.0142074
929.078	0.0142470
929.156	0.0141233
929.235	0.0141511
929.313	0.0141882
929.391	0.0141589
929.469	0.0142488
929.547	0.0143518
929.625	0.0142727
929.703	0.0142886
929.781	0.0141480
929.860	0.0143669
929.938	0.0143380
930.016	0.0143590
930.094	0.0143275
930.172	0.0142228
930.250	0.0142328
930.328	0.0143458
930.406	0.0143556
930.485	0.0143678
930.563	0.0143157
930.641	0.0142892
930.719	0.0144091
930.797	0.0143237
930.875	0.0144356
930.953	0.0142626
931.031	0.0142573
931.110	0.0143558
931.188	0.0144548
931.266	0.0144753
931.344	0.0143783
931.422	0.0142979
931.500	0.0143628
931.578	0.0143613
931.656	0.0143377
931.735	0.0143653
931.813	0.0142364
931.891	0.0143075
931.969	0.0143879
932.047	0.0144220
932.125	0.0145262
932.203	0.0142817
932.281	0.0142841
932.360	0.0143253
932.438	0.0142152
932.516	0.0144007
932.594	0.0143401
932.672	0.0142844
932.750	0.0144225
932.828	0.0143225
932.906	0.0143104
932.985	0.0144427
933.063	0.0141593
933.141	0.0142320
933.219	0.0144300
933.297	0.0144791
933.375	0.0143138
933.453	0.0143382
933.531	0.0143691
933.610	0.0144265
933.688	0.0145411
933.766	0.0145158
933.844	0.0144602
933.922	0.0142380
934.000	0.0144943
934.078	0.0143279
934.156	0.0142883
934.235	0.0143165
934.313	0.0144538
934.391	0.0144671
934.469	0.0143666
934.547	0.0143530
934.625	0.0143864
934.703	0.0145089
934.781	0.0144439
934.860	0.0143271
934.938	0.0144923
935.016	0.0142970
935.094	0.0141892
935.172	0.0144126
935.250	0.0143274
935.328	0.0142741
935.406	0.0143080
935.485	0.0143854
935.563	0.0142798
935.641	0.0142395
935.719	0.0142565
935.797	0.0139992
935.875	0.0142999
935.953	0.0141853
936.031	0.0142686
936.110	0.0142964
936.188	0.0142821
936.266	0.0142247
936.344	0.0142294
936.422	0.0142548
936.500	0.0141762
936.578	0.0142715
936.656	0.0141592
936.735	0.0142758
936.813	0.0142365
936.891	0.0141915
936.969	0.0143756
937.047	0.0141601
937.125	0.0140585
937.203	0.0141640
937.281	0.0142972
937.360	0.0142011
937.438	0.0142101
937.516	0.0142174
937.594	0.0141602
937.672	0.0141659
937.750	0.0141852
937.828	0.0142933
937.906	0.0142399
937.985	0.0141850
938.063	0.0141276
938.141	0.0142780
938.219	0.0143841
938.297	0.0141410
938.375	0.0141743
938.453	0.0141191
938.531	0.0141849
938.610	0.0143414
938.688	0.0143272
938.766	0.0141365
938.844	0.0143318
938.922	0.0143673
939.000	0.0142731
939.078	0.0141206
939.156	0.0141068
939.235	0.0143834
939.313	0.0141957
939.391	0.0142184
939.469	0.0143432
939.547	0.0141354
939.625	0.0142792
939.703	0.0141747
939.781	0.0140630
939.860	0.0141929
939.938	0.0141897
940.016	0.0142890
940.094	0.0142287
940.172	0.0142677
940.250	0.0142102
940.328	0.0143636
940.406	0.0142231
940.485	0.0142480
940.563	0.0142010
940.641	0.0142964
940.719	0.0143070
940.797	0.0142750
940.875	0.0143036
940.953	0.0142604
941.031	0.0143391
941.110	0.0142622
941.188	0.0142487
941.266	0.0143716
941.344	0.0143304
941.422	0.0143215
941.500	0.0143101
941.578	0.0143575
941.656	0.0144244
941.735	0.0142838
941.813	0.0144146
941.891	0.0143722
941.969	0.0143612
942.047	0.0143054
942.125	0.0143419
942.203	0.0143896
942.281	0.0143443
942.360	0.0142665
942.438	0.0142010
942.516	0.0144142
942.594	0.0143264
942.672	0.0143111
942.750	0.0142182
942.828	0.0142129
942.906	0.0142283
942.985	0.0141831
943.063	0.0143034
943.141	0.0144127
943.219	0.0142596
943.297	0.0142448
943.375	0.0141911
943.453	0.0143250
943.531	0.0142905
943.610	0.0142426
943.688	0.0142403
943.766	0.0141644
943.844	0.0141807
943.922	0.0142460
944.000	0.0141812
944.078	0.0141458
944.156	0.0142428
944.235	0.0142184
944.313	0.0142636
944.391	0.0142427
944.469	0.0143015
944.547	0.0142238
944.625	0.0141991
944.703	0.0141949
944.781	0.0140993
944.860	0.0141308
944.938	0.0141998
945.016	0.0142605
945.094	0.0141930
945.172	0.0141068
945.250	0.0142390
945.328	0.0142175
945.406	0.0142212
945.485	0.0143432
945.563	0.0142909
945.641	0.0143074
945.719	0.0142726
945.797	0.0141233
945.875	0.0142067
945.953	0.0142357
946.031	0.0141695
946.110	0.0143143
946.188	0.0143582
946.266	0.0143372
946.344	0.0142163
946.422	0.0141495
946.500	0.0143119
946.578	0.0142508
946.656	0.0143208
946.735	0.0140974
946.813	0.0142541
946.891	0.0142357
946.969	0.0143909
947.047	0.0142780
947.125	0.0142004
947.203	0.0142441
947.281	0.0142085
947.360	0.0142097
947.438	0.0141837
947.516	0.0141088
947.594	0.0142790
947.672	0.0142731
947.750	0.0141930
947.828	0.0142206
947.906	0.0142179
947.985	0.0141071
948.063	0.0142294
948.141	0.0143035
948.219	0.0142328
948.297	0.0141565
948.375	0.0141256
948.453	0.0143383
948.531	0.0141393
948.610	0.0141584
948.688	0.0142744
948.766	0.0142329
948.844	0.0141791
948.922	0.0141698
949.000	0.0141902
949.078	0.0141934
949.156	0.0141769
949.235	0.0140342
949.313	0.0140368
949.391	0.0141943
949.469	0.0141103
949.547	0.0141988
949.625	0.0140125
949.703	0.0140477
949.781	0.0139636
949.860	0.0139677
949.938	0.0141576
