05/04/2022	21:45:04	Ver.	4.1	UNKNOWN
Optical Delay	630.015849	Delta X		0.078125	Sweeps	1	Scan Rate	0/0
Coordinates	Axis 1	NaN	Axis 2	NaN	Axis 3	NaN	Axis 4	NaN	Axis 5	NaN	Axis 6	0.000000
TX Power	0.000000	RX Power	0.000000

630.016	0.0145017
630.094	0.0147077
630.172	0.0145979
630.250	0.0143966
630.328	0.0145763
630.406	0.0145327
630.485	0.0144762
630.563	0.0145434
630.641	0.0145445
630.719	0.0145305
630.797	0.0145415
630.875	0.0146226
630.953	0.0145364
631.031	0.0144777
631.110	0.0144940
631.188	0.0145182
631.266	0.0144169
631.344	0.0146066
631.422	0.0144932
631.500	0.0144936
631.578	0.0144946
631.656	0.0145853
631.735	0.0145119
631.813	0.0145009
631.891	0.0145288
631.969	0.0145605
632.047	0.0146021
632.125	0.0145544
632.203	0.0146046
632.281	0.0144518
632.360	0.0146054
632.438	0.0145238
632.516	0.0145389
632.594	0.0145795
632.672	0.0145866
632.750	0.0145554
632.828	0.0144238
632.906	0.0144915
632.985	0.0144592
633.063	0.0145285
633.141	0.0145683
633.219	0.0145435
633.297	0.0144534
633.375	0.0144375
633.453	0.0145224
633.531	0.0145942
633.610	0.0145038
633.688	0.0143581
633.766	0.0145669
633.844	0.0146078
633.922	0.0144788
634.000	0.0145232
634.078	0.0144701
634.156	0.0144972
634.235	0.0144646
634.313	0.0145454
634.391	0.0145338
634.469	0.0146064
634.547	0.0144288
634.625	0.0145259
634.703	0.0145480
634.781	0.0144159
634.860	0.0144658
634.938	0.0144341
635.016	0.0144823
635.094	0.0145148
635.172	0.0145284
635.250	0.0145531
635.328	0.0145553
635.406	0.0146650
635.485	0.0145155
635.563	0.0145686
635.641	0.0146251
635.719	0.0146207
635.797	0.0145242
635.875	0.0145200
635.953	0.0145117
636.031	0.0146059
636.110	0.0145890
636.188	0.0145788
636.266	0.0146019
636.344	0.0145732
636.422	0.0145055
636.500	0.0146082
636.578	0.0144939
636.656	0.0144918
636.735	0.0147186
636.813	0.0146589
636.891	0.0146628
636.969	0.0145990
637.047	0.0146527
637.125	0.0145792
637.203	0.0145952
637.281	0.0145974
637.360	0.0147594
637.438	0.0145880
637.516	0.0144992
637.594	0.0146197
637.672	0.0146922
637.750	0.0146031
637.828	0.0145287
637.906	0.0146716
637.985	0.0146456
638.063	0.0146406
638.141	0.0145148
638.219	0.0144760
638.297	0.0146958
638.375	0.0147337
638.453	0.0146352
638.531	0.0145140
638.610	0.0145322
638.688	0.0147066
638.766	0.0145871
638.844	0.0146297
638.922	0.0146970
639.000	0.0148594
639.078	0.0146977
639.156	0.0146436
639.235	0.0146307
639.313	0.0146375
639.391	0.0146027
639.469	0.0146655
639.547	0.0147248
639.625	0.0146584
639.703	0.0144189
639.781	0.0145994
639.860	0.0147378
639.938	0.0146773
640.016	0.0146831
640.094	0.0144889
640.172	0.0146108
640.250	0.0146860
640.328	0.0146222
640.406	0.0146609
640.485	0.0146702
640.563	0.0148083
640.641	0.0147328
640.719	0.0147170
640.797	0.0147678
640.875	0.0147222
640.953	0.0145061
641.031	0.0146483
641.110	0.0147116
641.188	0.0145372
641.266	0.0147598
641.344	0.0145910
641.422	0.0146404
641.500	0.0146409
641.578	0.0146049
641.656	0.0146279
641.735	0.0145979
641.813	0.0147826
641.891	0.0146947
641.969	0.0145655
642.047	0.0144926
642.125	0.0145827
642.203	0.0146201
642.281	0.0146348
642.360	0.0146580
642.438	0.0146313
642.516	0.0145834
642.594	0.0145168
642.672	0.0146517
642.750	0.0145507
642.828	0.0146414
642.906	0.0146739
642.985	0.0145656
643.063	0.0146077
643.141	0.0145927
643.219	0.0146454
643.297	0.0146335
643.375	0.0145475
643.453	0.0145778
643.531	0.0145503
643.610	0.0146597
643.688	0.0146214
643.766	0.0145977
643.844	0.0146738
643.922	0.0146256
644.000	0.0145679
644.078	0.0145692
644.156	0.0145386
644.235	0.0144843
644.313	0.0145950
644.391	0.0146351
644.469	0.0145587
644.547	0.0144910
644.625	0.0145605
644.703	0.0145209
644.781	0.0146102
644.860	0.0146454
644.938	0.0144861
645.016	0.0143919
645.094	0.0145718
645.172	0.0145243
645.250	0.0144490
645.328	0.0145376
645.406	0.0145645
645.485	0.0144326
645.563	0.0147291
645.641	0.0147008
645.719	0.0145068
645.797	0.0145217
645.875	0.0144891
645.953	0.0146161
646.031	0.0144810
646.110	0.0146432
646.188	0.0145851
646.266	0.0145133
646.344	0.0144496
646.422	0.0145113
646.500	0.0145675
646.578	0.0144522
646.656	0.0144798
646.735	0.0145348
646.813	0.0145950
646.891	0.0144920
646.969	0.0145861
647.047	0.0147109
647.125	0.0145750
647.203	0.0145082
647.281	0.0143712
647.360	0.0145567
647.438	0.0146265
647.516	0.0146685
647.594	0.0145470
647.672	0.0144537
647.750	0.0145331
647.828	0.0144884
647.906	0.0146938
647.985	0.0146149
648.063	0.0145986
648.141	0.0146405
648.219	0.0146265
648.297	0.0146445
648.375	0.0145589
648.453	0.0144046
648.531	0.0147368
648.610	0.0145796
648.688	0.0144598
648.766	0.0147623
648.844	0.0145755
648.922	0.0146202
649.000	0.0146569
649.078	0.0145447
649.156	0.0146124
649.235	0.0145688
649.313	0.0146239
649.391	0.0145603
649.469	0.0146468
649.547	0.0145855
649.625	0.0146143
649.703	0.0146207
649.781	0.0144027
649.860	0.0146032
649.938	0.0145660
650.016	0.0144736
650.094	0.0144418
650.172	0.0146117
650.250	0.0145685
650.328	0.0145534
650.406	0.0146220
650.485	0.0146144
650.563	0.0145258
650.641	0.0146585
650.719	0.0144735
650.797	0.0145804
650.875	0.0145959
650.953	0.0145537
651.031	0.0146500
651.110	0.0145190
651.188	0.0144573
651.266	0.0146362
651.344	0.0145797
651.422	0.0144893
651.500	0.0144956
651.578	0.0144818
651.656	0.0145040
651.735	0.0145976
651.813	0.0145971
651.891	0.0147165
651.969	0.0146600
652.047	0.0144810
652.125	0.0145370
652.203	0.0145923
652.281	0.0146810
652.360	0.0145848
652.438	0.0145402
652.516	0.0144838
652.594	0.0144670
652.672	0.0145756
652.750	0.0145635
652.828	0.0146560
652.906	0.0147324
652.985	0.0145362
653.063	0.0145041
653.141	0.0145701
653.219	0.0146011
653.297	0.0146890
653.375	0.0145614
653.453	0.0145334
653.531	0.0146400
653.610	0.0145596
653.688	0.0144354
653.766	0.0143760
653.844	0.0146574
653.922	0.0147555
654.000	0.0146461
654.078	0.0146480
654.156	0.0146950
654.235	0.0145406
654.313	0.0145895
654.391	0.0145930
654.469	0.0147211
654.547	0.0145541
654.625	0.0146093
654.703	0.0146181
654.781	0.0146098
654.860	0.0146342
654.938	0.0146227
655.016	0.0146161
655.094	0.0146271
655.172	0.0145724
655.250	0.0146222
655.328	0.0148305
655.406	0.0147039
655.485	0.0145805
655.563	0.0148824
655.641	0.0146962
655.719	0.0147246
655.797	0.0147264
655.875	0.0145446
655.953	0.0144348
656.031	0.0147678
656.110	0.0146169
656.188	0.0146327
656.266	0.0146239
656.344	0.0145486
656.422	0.0145238
656.500	0.0145324
656.578	0.0146499
656.656	0.0147733
656.735	0.0146638
656.813	0.0144035
656.891	0.0145882
656.969	0.0146517
657.047	0.0145341
657.125	0.0145492
657.203	0.0145724
657.281	0.0147446
657.360	0.0146024
657.438	0.0145557
657.516	0.0145435
657.594	0.0145332
657.672	0.0145009
657.750	0.0145473
657.828	0.0144943
657.906	0.0146152
657.985	0.0144891
658.063	0.0144086
658.141	0.0143774
658.219	0.0146177
658.297	0.0146246
658.375	0.0146033
658.453	0.0146764
658.531	0.0146628
658.610	0.0145686
658.688	0.0146114
658.766	0.0145600
658.844	0.0145126
658.922	0.0146725
659.000	0.0144623
659.078	0.0145878
659.156	0.0146140
659.235	0.0145075
659.313	0.0146143
659.391	0.0145208
659.469	0.0144137
659.547	0.0144287
659.625	0.0145533
659.703	0.0146786
659.781	0.0143502
659.860	0.0143933
659.938	0.0144632
660.016	0.0144955
660.094	0.0144337
660.172	0.0144510
660.250	0.0145200
660.328	0.0144359
660.406	0.0144936
660.485	0.0145067
660.563	0.0144810
660.641	0.0145325
660.719	0.0144864
660.797	0.0144271
660.875	0.0144994
660.953	0.0146531
661.031	0.0146580
661.110	0.0146593
661.188	0.0146599
661.266	0.0146362
661.344	0.0146623
661.422	0.0145950
661.500	0.0146439
661.578	0.0143742
661.656	0.0143738
661.735	0.0145940
661.813	0.0144619
661.891	0.0144642
661.969	0.0144053
662.047	0.0144449
662.125	0.0145362
662.203	0.0145460
662.281	0.0145652
662.360	0.0144666
662.438	0.0146346
662.516	0.0146140
662.594	0.0146474
662.672	0.0145686
662.750	0.0146675
662.828	0.0145844
662.906	0.0146349
662.985	0.0146192
663.063	0.0146124
663.141	0.0144871
663.219	0.0146227
663.297	0.0145523
663.375	0.0144993
663.453	0.0145090
663.531	0.0144758
663.610	0.0145126
663.688	0.0144282
663.766	0.0145253
663.844	0.0144022
663.922	0.0144550
664.000	0.0145170
664.078	0.0144492
664.156	0.0145882
664.235	0.0145029
664.313	0.0144114
664.391	0.0146461
664.469	0.0145676
664.547	0.0146809
664.625	0.0145538
664.703	0.0146939
664.781	0.0144741
664.860	0.0145656
664.938	0.0147251
665.016	0.0146957
665.094	0.0146548
665.172	0.0147139
665.250	0.0147112
665.328	0.0145750
665.406	0.0146962
665.485	0.0146011
665.563	0.0145664
665.641	0.0145426
665.719	0.0146396
665.797	0.0147440
665.875	0.0146609
665.953	0.0146751
666.031	0.0146707
666.110	0.0146414
666.188	0.0146613
666.266	0.0147361
666.344	0.0145461
666.422	0.0146044
666.500	0.0145793
666.578	0.0146576
666.656	0.0144496
666.735	0.0146797
666.813	0.0147203
666.891	0.0146483
666.969	0.0146681
667.047	0.0145116
667.125	0.0144862
667.203	0.0146496
667.281	0.0147008
667.360	0.0146054
667.438	0.0148218
667.516	0.0146042
667.594	0.0145808
667.672	0.0147311
667.750	0.0147250
667.828	0.0146984
667.906	0.0148410
667.985	0.0147353
668.063	0.0147380
668.141	0.0147565
668.219	0.0148761
668.297	0.0146787
668.375	0.0146941
668.453	0.0146228
668.531	0.0147508
668.610	0.0148502
668.688	0.0148717
668.766	0.0148364
668.844	0.0147176
668.922	0.0149230
669.000	0.0147433
669.078	0.0147986
669.156	0.0147461
669.235	0.0145165
669.313	0.0145368
669.391	0.0143894
669.469	0.0144565
669.547	0.0145370
669.625	0.0143405
669.703	0.0142816
669.781	0.0142825
669.860	0.0144214
669.938	0.0143449
670.016	0.0142827
670.094	0.0144936
670.172	0.0145721
670.250	0.0145699
670.328	0.0146622
670.406	0.0147086
670.485	0.0145658
670.563	0.0147601
670.641	0.0147536
670.719	0.0149357
670.797	0.0147753
670.875	0.0148228
670.953	0.0145813
671.031	0.0145723
671.110	0.0146334
671.188	0.0146250
671.266	0.0146488
671.344	0.0145151
671.422	0.0146069
671.500	0.0144978
671.578	0.0144996
671.656	0.0145232
671.735	0.0145582
671.813	0.0145866
671.891	0.0146481
671.969	0.0145943
672.047	0.0144633
672.125	0.0146620
672.203	0.0145046
672.281	0.0144826
672.360	0.0145023
672.438	0.0145745
672.516	0.0145142
672.594	0.0144330
672.672	0.0144597
672.750	0.0145004
672.828	0.0143995
672.906	0.0146158
672.985	0.0145867
673.063	0.0145782
673.141	0.0146181
673.219	0.0146080
673.297	0.0147852
673.375	0.0147255
673.453	0.0148355
673.531	0.0147359
673.610	0.0146404
673.688	0.0145171
673.766	0.0146457
673.844	0.0143649
673.922	0.0143725
674.000	0.0143305
674.078	0.0141387
674.156	0.0140086
674.235	0.0139331
674.313	0.0139458
674.391	0.0142744
674.469	0.0140604
674.547	0.0142024
674.625	0.0143858
674.703	0.0144942
674.781	0.0145518
674.860	0.0147659
674.938	0.0148969
675.016	0.0149628
675.094	0.0148908
675.172	0.0150191
675.250	0.0148690
675.328	0.0149165
675.406	0.0149149
675.485	0.0148385
675.563	0.0146525
675.641	0.0143144
675.719	0.0143221
675.797	0.0142664
675.875	0.0142079
675.953	0.0141110
676.031	0.0140220
676.110	0.0143005
676.188	0.0141954
676.266	0.0144118
676.344	0.0144705
676.422	0.0146174
676.500	0.0145868
676.578	0.0146119
676.656	0.0147601
676.735	0.0146941
676.813	0.0147516
676.891	0.0148023
676.969	0.0148412
677.047	0.0147925
677.125	0.0146894
677.203	0.0146903
677.281	0.0145572
677.360	0.0145219
677.438	0.0144012
677.516	0.0141420
677.594	0.0141066
677.672	0.0139388
677.750	0.0140118
677.828	0.0139599
677.906	0.0140028
677.985	0.0141248
678.063	0.0140678
678.141	0.0142858
678.219	0.0143303
678.297	0.0145783
678.375	0.0146548
678.453	0.0147372
678.531	0.0147880
678.610	0.0148189
678.688	0.0149202
678.766	0.0149601
678.844	0.0149816
678.922	0.0149132
679.000	0.0148448
679.078	0.0147462
679.156	0.0146011
679.235	0.0145725
679.313	0.0145020
679.391	0.0145382
679.469	0.0144128
679.547	0.0143969
679.625	0.0142656
679.703	0.0142520
679.781	0.0142028
679.860	0.0143208
679.938	0.0142107
680.016	0.0142657
680.094	0.0143587
680.172	0.0143147
680.250	0.0145207
680.328	0.0144383
680.406	0.0144056
680.485	0.0144421
680.563	0.0142797
680.641	0.0141803
680.719	0.0142809
680.797	0.0143263
680.875	0.0141730
680.953	0.0142272
681.031	0.0143729
681.110	0.0143931
681.188	0.0145059
681.266	0.0146455
681.344	0.0146486
681.422	0.0147388
681.500	0.0148969
681.578	0.0150493
681.656	0.0150632
681.735	0.0150512
681.813	0.0148344
681.891	0.0148714
681.969	0.0147392
682.047	0.0145960
682.125	0.0143723
682.203	0.0140781
682.281	0.0140043
682.360	0.0138413
682.438	0.0137401
682.516	0.0134422
682.594	0.0134396
682.672	0.0135027
682.750	0.0136940
682.828	0.0139782
682.906	0.0140714
682.985	0.0143920
683.063	0.0143727
683.141	0.0144876
683.219	0.0146268
683.297	0.0150793
683.375	0.0151083
683.453	0.0151894
683.531	0.0151393
683.610	0.0152453
683.688	0.0152730
683.766	0.0150890
683.844	0.0151276
683.922	0.0150342
684.000	0.0149536
684.078	0.0149909
684.156	0.0149139
684.235	0.0147782
684.313	0.0147341
684.391	0.0146824
684.469	0.0146374
684.547	0.0145110
684.625	0.0146500
684.703	0.0147130
684.781	0.0145718
684.860	0.0145361
684.938	0.0144608
685.016	0.0142014
685.094	0.0140833
685.172	0.0139439
685.250	0.0136865
685.328	0.0135757
685.406	0.0133857
685.485	0.0135330
685.563	0.0135060
685.641	0.0136166
685.719	0.0136819
685.797	0.0139202
685.875	0.0141770
685.953	0.0141875
686.031	0.0145464
686.110	0.0147865
686.188	0.0149802
686.266	0.0152829
686.344	0.0153423
686.422	0.0155595
686.500	0.0154619
686.578	0.0156314
686.656	0.0155476
686.735	0.0155427
686.813	0.0154951
686.891	0.0153863
686.969	0.0151211
687.047	0.0148718
687.125	0.0145983
687.203	0.0146188
687.281	0.0143041
687.360	0.0142021
687.438	0.0139964
687.516	0.0140941
687.594	0.0138448
687.672	0.0139048
687.750	0.0138920
687.828	0.0138242
687.906	0.0137762
687.985	0.0138288
688.063	0.0139359
688.141	0.0139189
688.219	0.0138441
688.297	0.0138465
688.375	0.0138300
688.453	0.0139483
688.531	0.0139449
688.610	0.0139722
688.688	0.0141586
688.766	0.0143256
688.844	0.0142657
688.922	0.0145679
689.000	0.0148719
689.078	0.0150050
689.156	0.0151618
689.235	0.0154584
689.313	0.0154285
689.391	0.0154996
689.469	0.0156200
689.547	0.0155725
689.625	0.0155228
689.703	0.0153342
689.781	0.0152402
689.860	0.0150314
689.938	0.0147853
690.016	0.0145650
690.094	0.0143877
690.172	0.0142556
690.250	0.0141503
690.328	0.0140593
690.406	0.0138845
690.485	0.0138367
690.563	0.0139413
690.641	0.0139579
690.719	0.0140683
690.797	0.0140309
690.875	0.0141384
690.953	0.0142867
691.031	0.0143934
691.110	0.0144099
691.188	0.0145271
691.266	0.0146276
691.344	0.0145667
691.422	0.0145456
691.500	0.0146143
691.578	0.0148190
691.656	0.0148615
691.735	0.0149661
691.813	0.0149899
691.891	0.0150507
691.969	0.0150390
692.047	0.0152235
692.125	0.0151250
692.203	0.0152348
692.281	0.0150322
692.360	0.0151613
692.438	0.0148973
692.516	0.0149020
692.594	0.0147516
692.672	0.0144997
692.750	0.0143771
692.828	0.0143672
692.906	0.0143112
692.985	0.0141396
693.063	0.0139442
693.141	0.0139417
693.219	0.0139617
693.297	0.0139930
693.375	0.0140580
693.453	0.0141830
693.531	0.0143069
693.610	0.0145086
693.688	0.0146246
693.766	0.0147725
693.844	0.0149169
693.922	0.0148531
694.000	0.0149682
694.078	0.0150931
694.156	0.0150816
694.235	0.0151053
694.313	0.0150345
694.391	0.0148100
694.469	0.0148225
694.547	0.0145979
694.625	0.0145633
694.703	0.0143222
694.781	0.0143472
694.860	0.0142246
694.938	0.0139487
695.016	0.0140750
695.094	0.0139471
695.172	0.0140231
695.250	0.0138792
695.328	0.0140210
695.406	0.0141783
695.485	0.0141537
695.563	0.0142370
695.641	0.0142986
695.719	0.0145097
695.797	0.0144087
695.875	0.0146297
695.953	0.0146735
696.031	0.0146464
696.110	0.0147963
696.188	0.0147801
696.266	0.0147010
696.344	0.0148660
696.422	0.0148212
696.500	0.0147821
696.578	0.0148822
696.656	0.0146765
696.735	0.0145943
696.813	0.0146336
696.891	0.0146542
696.969	0.0146070
697.047	0.0144685
697.125	0.0145273
697.203	0.0145916
697.281	0.0146981
697.360	0.0146465
697.438	0.0146776
697.516	0.0146601
697.594	0.0143879
697.672	0.0144096
697.750	0.0143040
697.828	0.0141426
697.906	0.0141879
697.985	0.0140826
698.063	0.0140762
698.141	0.0140113
698.219	0.0140152
698.297	0.0141118
698.375	0.0141631
698.453	0.0140952
698.531	0.0143762
698.610	0.0143834
698.688	0.0144305
698.766	0.0145015
698.844	0.0144386
698.922	0.0145588
699.000	0.0145621
699.078	0.0144494
699.156	0.0144019
699.235	0.0144517
699.313	0.0144267
699.391	0.0141590
699.469	0.0141762
699.547	0.0143254
699.625	0.0140329
699.703	0.0141433
699.781	0.0140678
699.860	0.0142532
699.938	0.0141132
700.016	0.0142555
700.094	0.0143249
700.172	0.0141896
700.250	0.0141873
700.328	0.0143446
700.406	0.0143564
700.485	0.0144402
700.563	0.0143428
700.641	0.0143387
700.719	0.0144895
700.797	0.0145531
700.875	0.0144833
700.953	0.0145047
701.031	0.0146116
701.110	0.0146904
701.188	0.0146294
701.266	0.0146652
701.344	0.0146538
701.422	0.0145673
701.500	0.0145287
701.578	0.0146288
701.656	0.0145170
701.735	0.0143884
701.813	0.0144612
701.891	0.0144773
701.969	0.0145150
702.047	0.0144024
702.125	0.0144081
702.203	0.0144517
702.281	0.0143919
702.360	0.0145093
702.438	0.0145501
702.516	0.0146252
702.594	0.0144892
702.672	0.0145767
702.750	0.0144368
702.828	0.0144895
702.906	0.0143700
702.985	0.0143667
703.063	0.0142245
703.141	0.0143231
703.219	0.0142784
703.297	0.0142998
703.375	0.0143492
703.453	0.0144563
703.531	0.0145692
703.610	0.0146844
703.688	0.0145862
703.766	0.0147296
703.844	0.0150291
703.922	0.0148757
704.000	0.0148654
704.078	0.0148702
704.156	0.0148544
704.235	0.0149838
704.313	0.0148514
704.391	0.0148349
704.469	0.0146959
704.547	0.0146739
704.625	0.0147682
704.703	0.0147452
704.781	0.0146162
704.860	0.0145614
704.938	0.0145973
705.016	0.0146802
705.094	0.0147482
705.172	0.0146230
705.250	0.0145832
705.328	0.0146290
705.406	0.0146481
705.485	0.0144958
705.563	0.0143833
705.641	0.0143579
705.719	0.0142564
705.797	0.0143620
705.875	0.0141191
705.953	0.0141035
706.031	0.0140279
706.110	0.0140690
706.188	0.0140154
706.266	0.0139993
706.344	0.0141548
706.422	0.0141818
706.500	0.0140914
706.578	0.0141430
706.656	0.0142427
706.735	0.0143271
706.813	0.0145489
706.891	0.0143990
706.969	0.0145907
707.047	0.0147281
707.125	0.0147219
707.203	0.0147299
707.281	0.0147528
707.360	0.0147580
707.438	0.0148729
707.516	0.0146727
707.594	0.0147197
707.672	0.0145895
707.750	0.0147038
707.828	0.0145792
707.906	0.0146520
707.985	0.0145661
708.063	0.0146309
708.141	0.0144916
708.219	0.0146065
708.297	0.0146611
708.375	0.0145953
708.453	0.0144077
708.531	0.0144719
708.610	0.0144682
708.688	0.0144050
708.766	0.0144791
708.844	0.0143969
708.922	0.0142750
709.000	0.0143600
709.078	0.0143131
709.156	0.0141499
709.235	0.0141763
709.313	0.0141970
709.391	0.0141318
709.469	0.0145097
709.547	0.0143612
709.625	0.0144851
709.703	0.0146368
709.781	0.0146886
709.860	0.0146641
709.938	0.0147867
710.016	0.0146790
710.094	0.0147841
710.172	0.0148186
710.250	0.0147781
710.328	0.0147667
710.406	0.0146436
710.485	0.0146687
710.563	0.0147581
710.641	0.0147047
710.719	0.0145296
710.797	0.0146288
710.875	0.0145707
710.953	0.0147483
711.031	0.0144537
711.110	0.0144770
711.188	0.0145850
711.266	0.0147012
711.344	0.0145639
711.422	0.0145734
711.500	0.0144543
711.578	0.0146143
711.656	0.0146956
711.735	0.0146559
711.813	0.0146170
711.891	0.0146416
711.969	0.0146073
712.047	0.0146482
712.125	0.0147697
712.203	0.0147749
712.281	0.0147602
712.360	0.0147842
712.438	0.0150008
712.516	0.0150315
712.594	0.0149760
712.672	0.0150831
712.750	0.0149635
712.828	0.0150911
712.906	0.0149937
712.985	0.0149013
713.063	0.0148602
713.141	0.0147450
713.219	0.0146275
713.297	0.0143269
713.375	0.0143217
713.453	0.0144377
713.531	0.0140092
713.610	0.0139824
713.688	0.0138958
713.766	0.0139648
713.844	0.0139369
713.922	0.0139956
714.000	0.0139660
714.078	0.0141592
714.156	0.0141510
714.235	0.0141530
714.313	0.0143327
714.391	0.0143639
714.469	0.0144514
714.547	0.0145791
714.625	0.0145816
714.703	0.0147120
714.781	0.0150214
714.860	0.0150816
714.938	0.0151561
715.016	0.0150119
715.094	0.0153004
715.172	0.0150964
715.250	0.0149815
715.328	0.0150722
715.406	0.0151687
715.485	0.0149085
715.563	0.0147728
715.641	0.0147899
715.719	0.0145229
715.797	0.0144424
715.875	0.0144885
715.953	0.0142831
716.031	0.0141162
716.110	0.0141653
716.188	0.0139149
716.266	0.0139461
716.344	0.0139514
716.422	0.0137950
716.500	0.0138998
716.578	0.0138631
716.656	0.0139537
716.735	0.0140974
716.813	0.0142637
716.891	0.0143161
716.969	0.0145219
717.047	0.0145008
717.125	0.0146683
717.203	0.0147455
717.281	0.0147298
717.360	0.0147127
717.438	0.0148460
717.516	0.0149050
717.594	0.0148935
717.672	0.0150923
717.750	0.0149123
717.828	0.0149277
717.906	0.0148541
717.985	0.0149187
718.063	0.0148124
718.141	0.0147729
718.219	0.0146371
718.297	0.0145260
718.375	0.0146182
718.453	0.0145055
718.531	0.0143682
718.610	0.0144399
718.688	0.0141740
718.766	0.0143345
718.844	0.0142722
718.922	0.0140601
719.000	0.0141391
719.078	0.0144011
719.156	0.0142374
719.235	0.0142709
719.313	0.0142606
719.391	0.0144290
719.469	0.0144739
719.547	0.0145076
719.625	0.0145721
719.703	0.0147453
719.781	0.0145734
719.860	0.0146105
719.938	0.0147224
720.016	0.0147238
720.094	0.0147870
720.172	0.0148528
720.250	0.0148673
720.328	0.0148315
720.406	0.0148844
720.485	0.0146632
720.563	0.0147446
720.641	0.0148422
720.719	0.0147952
720.797	0.0145326
720.875	0.0145837
720.953	0.0145051
721.031	0.0144660
721.110	0.0144788
721.188	0.0144384
721.266	0.0143209
721.344	0.0142927
721.422	0.0143159
721.500	0.0143015
721.578	0.0142377
721.656	0.0142960
721.735	0.0142633
721.813	0.0143658
721.891	0.0143124
721.969	0.0145069
722.047	0.0144877
722.125	0.0144220
722.203	0.0145533
722.281	0.0145485
722.360	0.0145824
722.438	0.0144630
722.516	0.0144976
722.594	0.0146027
722.672	0.0145824
722.750	0.0145988
722.828	0.0147173
722.906	0.0145004
722.985	0.0145731
723.063	0.0145800
723.141	0.0145660
723.219	0.0145925
723.297	0.0144614
723.375	0.0145242
723.453	0.0144202
723.531	0.0143813
723.610	0.0144492
723.688	0.0143568
723.766	0.0143154
723.844	0.0144042
723.922	0.0143234
724.000	0.0143166
724.078	0.0142618
724.156	0.0141431
724.235	0.0142319
724.313	0.0143539
724.391	0.0141948
724.469	0.0142779
724.547	0.0144646
724.625	0.0146268
724.703	0.0145837
724.781	0.0144907
724.860	0.0145454
724.938	0.0147189
725.016	0.0147190
725.094	0.0147214
725.172	0.0148303
725.250	0.0146960
725.328	0.0147824
725.406	0.0148020
725.485	0.0147809
725.563	0.0147282
725.641	0.0147590
725.719	0.0146797
725.797	0.0147550
725.875	0.0146102
725.953	0.0144796
726.031	0.0145622
726.110	0.0144428
726.188	0.0144074
726.266	0.0145831
726.344	0.0145834
726.422	0.0143877
726.500	0.0144992
726.578	0.0145899
726.656	0.0145905
726.735	0.0144743
726.813	0.0144728
726.891	0.0145494
726.969	0.0146449
727.047	0.0146287
727.125	0.0146374
727.203	0.0147283
727.281	0.0146448
727.360	0.0147143
727.438	0.0146064
727.516	0.0145555
727.594	0.0146797
727.672	0.0146529
727.750	0.0147982
727.828	0.0148583
727.906	0.0146643
727.985	0.0148130
728.063	0.0146871
728.141	0.0147796
728.219	0.0146982
728.297	0.0146817
728.375	0.0147626
728.453	0.0145927
728.531	0.0146635
728.610	0.0146427
728.688	0.0144897
728.766	0.0145929
728.844	0.0145915
728.922	0.0145860
729.000	0.0144060
729.078	0.0144598
729.156	0.0145086
729.235	0.0145053
729.313	0.0145974
729.391	0.0145665
729.469	0.0146308
729.547	0.0145228
729.625	0.0145005
729.703	0.0145815
729.781	0.0145754
729.860	0.0147082
729.938	0.0146637
730.016	0.0147800
730.094	0.0148266
730.172	0.0146246
730.250	0.0146004
730.328	0.0146030
730.406	0.0147358
730.485	0.0146388
730.563	0.0146783
730.641	0.0145658
730.719	0.0147576
730.797	0.0146083
730.875	0.0146078
730.953	0.0145930
731.031	0.0145689
731.110	0.0146179
731.188	0.0145313
731.266	0.0144225
731.344	0.0146594
731.422	0.0145462
731.500	0.0145526
731.578	0.0145715
731.656	0.0145396
731.735	0.0146979
731.813	0.0146552
731.891	0.0146429
731.969	0.0148056
732.047	0.0147884
732.125	0.0147150
732.203	0.0146736
732.281	0.0146960
732.360	0.0146830
732.438	0.0148291
732.516	0.0147220
732.594	0.0147562
732.672	0.0148083
732.750	0.0148381
732.828	0.0146287
732.906	0.0145600
732.985	0.0146639
733.063	0.0146722
733.141	0.0146375
733.219	0.0146681
733.297	0.0146653
733.375	0.0146867
733.453	0.0145058
733.531	0.0145947
733.610	0.0144614
733.688	0.0144077
733.766	0.0145599
733.844	0.0144420
733.922	0.0145302
734.000	0.0144434
734.078	0.0143805
734.156	0.0143992
734.235	0.0143867
734.313	0.0143847
734.391	0.0146365
734.469	0.0145412
734.547	0.0144500
734.625	0.0145255
734.703	0.0144064
734.781	0.0147585
734.860	0.0146725
734.938	0.0145124
735.016	0.0147025
735.094	0.0146232
735.172	0.0146970
735.250	0.0145892
735.328	0.0146939
735.406	0.0147505
735.485	0.0148171
735.563	0.0147982
735.641	0.0146978
735.719	0.0148362
735.797	0.0148103
735.875	0.0146471
735.953	0.0146370
736.031	0.0146944
736.110	0.0146864
736.188	0.0145941
736.266	0.0145882
736.344	0.0146102
736.422	0.0145450
736.500	0.0144162
736.578	0.0145348
736.656	0.0145334
736.735	0.0147074
736.813	0.0145176
736.891	0.0146862
736.969	0.0145985
737.047	0.0144230
737.125	0.0145110
737.203	0.0145791
737.281	0.0145285
737.360	0.0146077
737.438	0.0146746
737.516	0.0147537
737.594	0.0147699
737.672	0.0147449
737.750	0.0147167
737.828	0.0146886
737.906	0.0147226
737.985	0.0146291
738.063	0.0146227
738.141	0.0147771
738.219	0.0147017
738.297	0.0146404
738.375	0.0147178
738.453	0.0147543
738.531	0.0145560
738.610	0.0145275
738.688	0.0146341
738.766	0.0144730
738.844	0.0144805
738.922	0.0145541
739.000	0.0145422
739.078	0.0145722
739.156	0.0145736
739.235	0.0145482
739.313	0.0146366
739.391	0.0146947
739.469	0.0146091
739.547	0.0146545
739.625	0.0147626
739.703	0.0146457
739.781	0.0145773
739.860	0.0146477
739.938	0.0146757
740.016	0.0147133
740.094	0.0147523
740.172	0.0147907
740.250	0.0146352
740.328	0.0147855
740.406	0.0147998
740.485	0.0147035
740.563	0.0146919
740.641	0.0148868
740.719	0.0146288
740.797	0.0146505
740.875	0.0147888
740.953	0.0146475
741.031	0.0147520
741.110	0.0147184
741.188	0.0146642
741.266	0.0146300
741.344	0.0146311
741.422	0.0146615
741.500	0.0145435
741.578	0.0144399
741.656	0.0144836
741.735	0.0144482
741.813	0.0145526
741.891	0.0145942
741.969	0.0143858
742.047	0.0143853
742.125	0.0146455
742.203	0.0145746
742.281	0.0146198
742.360	0.0146974
742.438	0.0145507
742.516	0.0147801
742.594	0.0146113
742.672	0.0147110
742.750	0.0147161
742.828	0.0146804
742.906	0.0147749
742.985	0.0147412
743.063	0.0147480
743.141	0.0147771
743.219	0.0148183
743.297	0.0146332
743.375	0.0145837
743.453	0.0146777
743.531	0.0145753
743.610	0.0146468
743.688	0.0145843
743.766	0.0145455
743.844	0.0146684
743.922	0.0147472
744.000	0.0146468
744.078	0.0145870
744.156	0.0145559
744.235	0.0143716
744.313	0.0143947
744.391	0.0145097
744.469	0.0145629
744.547	0.0144509
744.625	0.0146676
744.703	0.0145675
744.781	0.0145222
744.860	0.0147237
744.938	0.0146228
745.016	0.0146215
745.094	0.0144958
745.172	0.0145380
745.250	0.0146608
745.328	0.0147253
745.406	0.0146542
745.485	0.0147015
745.563	0.0147139
745.641	0.0146812
745.719	0.0145978
745.797	0.0146209
745.875	0.0147183
745.953	0.0145142
746.031	0.0147054
746.110	0.0146302
746.188	0.0144943
746.266	0.0146040
746.344	0.0145936
746.422	0.0145058
746.500	0.0143929
746.578	0.0145331
746.656	0.0144553
746.735	0.0145235
746.813	0.0146202
746.891	0.0145011
746.969	0.0146049
747.047	0.0145731
747.125	0.0144836
747.203	0.0146201
747.281	0.0145099
747.360	0.0147201
747.438	0.0146252
747.516	0.0145373
747.594	0.0146427
747.672	0.0148225
747.750	0.0148545
747.828	0.0146265
747.906	0.0146680
747.985	0.0146270
748.063	0.0146112
748.141	0.0147399
748.219	0.0145463
748.297	0.0145850
748.375	0.0146069
748.453	0.0146043
748.531	0.0145235
748.610	0.0146478
748.688	0.0145377
748.766	0.0146199
748.844	0.0144850
748.922	0.0145193
749.000	0.0144769
749.078	0.0145695
749.156	0.0145186
749.235	0.0145884
749.313	0.0145466
749.391	0.0143829
749.469	0.0144698
749.547	0.0145697
749.625	0.0145037
749.703	0.0144878
749.781	0.0144753
749.860	0.0146555
749.938	0.0144986
750.016	0.0145813
750.094	0.0145114
750.172	0.0145091
750.250	0.0146904
750.328	0.0146881
750.406	0.0145512
750.485	0.0145055
750.563	0.0147742
750.641	0.0146716
750.719	0.0147420
750.797	0.0146230
750.875	0.0146814
750.953	0.0146284
751.031	0.0148182
751.110	0.0145978
751.188	0.0145758
751.266	0.0146499
751.344	0.0145130
751.422	0.0146659
751.500	0.0144985
751.578	0.0145772
751.656	0.0144466
751.735	0.0145671
751.813	0.0144573
751.891	0.0143898
751.969	0.0146221
752.047	0.0144747
752.125	0.0145475
752.203	0.0144755
752.281	0.0145998
752.360	0.0144170
752.438	0.0144969
752.516	0.0145243
752.594	0.0146106
752.672	0.0145637
752.750	0.0144515
752.828	0.0144565
752.906	0.0145844
752.985	0.0145847
753.063	0.0147330
753.141	0.0145728
753.219	0.0145395
753.297	0.0147878
753.375	0.0146281
753.453	0.0146732
753.531	0.0147381
753.610	0.0145513
753.688	0.0145525
753.766	0.0145806
753.844	0.0145296
753.922	0.0147369
754.000	0.0145533
754.078	0.0146150
754.156	0.0145959
754.235	0.0145451
754.313	0.0145691
754.391	0.0146058
754.469	0.0145872
754.547	0.0145154
754.625	0.0146224
754.703	0.0146394
754.781	0.0146161
754.860	0.0146237
754.938	0.0146745
755.016	0.0145629
755.094	0.0145800
755.172	0.0145690
755.250	0.0145285
755.328	0.0145749
755.406	0.0145965
755.485	0.0146568
755.563	0.0146091
755.641	0.0146770
755.719	0.0146053
755.797	0.0146584
755.875	0.0146392
755.953	0.0146715
756.031	0.0145903
756.110	0.0147242
756.188	0.0145643
756.266	0.0146008
756.344	0.0144712
756.422	0.0144892
756.500	0.0146909
756.578	0.0146031
756.656	0.0145630
756.735	0.0145715
756.813	0.0145641
756.891	0.0145213
756.969	0.0146439
757.047	0.0145330
757.125	0.0144341
757.203	0.0144377
757.281	0.0145638
757.360	0.0145452
757.438	0.0144812
757.516	0.0144115
757.594	0.0144797
757.672	0.0146071
757.750	0.0144795
757.828	0.0144493
757.906	0.0145865
757.985	0.0146089
758.063	0.0145031
758.141	0.0146464
758.219	0.0146883
758.297	0.0146350
758.375	0.0145737
758.453	0.0144888
758.531	0.0145109
758.610	0.0145382
758.688	0.0146751
758.766	0.0146024
758.844	0.0146296
758.922	0.0145059
759.000	0.0145686
759.078	0.0145779
759.156	0.0145177
759.235	0.0144397
759.313	0.0144442
759.391	0.0144839
759.469	0.0144921
759.547	0.0144472
759.625	0.0144529
759.703	0.0144318
759.781	0.0142632
759.860	0.0143672
759.938	0.0143848
760.016	0.0143753
760.094	0.0143221
760.172	0.0143294
760.250	0.0144219
760.328	0.0143311
760.406	0.0143594
760.485	0.0144450
760.563	0.0144869
760.641	0.0144785
760.719	0.0143607
760.797	0.0143504
760.875	0.0144063
760.953	0.0144889
761.031	0.0144697
761.110	0.0144625
761.188	0.0145605
761.266	0.0143100
761.344	0.0144336
761.422	0.0144598
761.500	0.0144251
761.578	0.0145029
761.656	0.0143663
761.735	0.0143543
761.813	0.0143517
761.891	0.0144748
761.969	0.0142778
762.047	0.0144973
762.125	0.0145804
762.203	0.0143478
762.281	0.0144016
762.360	0.0145184
762.438	0.0145212
762.516	0.0144670
762.594	0.0144733
762.672	0.0147509
762.750	0.0146989
762.828	0.0146535
762.906	0.0146278
762.985	0.0146014
763.063	0.0146049
763.141	0.0145255
763.219	0.0146377
763.297	0.0145112
763.375	0.0146757
763.453	0.0146574
763.531	0.0147375
763.610	0.0146400
763.688	0.0145707
763.766	0.0146895
763.844	0.0145289
763.922	0.0147311
764.000	0.0147095
764.078	0.0146322
764.156	0.0146239
764.235	0.0147138
764.313	0.0146153
764.391	0.0146007
764.469	0.0143562
764.547	0.0144719
764.625	0.0145452
764.703	0.0146991
764.781	0.0144663
764.860	0.0145264
764.938	0.0146172
765.016	0.0145515
765.094	0.0144530
765.172	0.0144692
765.250	0.0144819
765.328	0.0144363
765.406	0.0145803
765.485	0.0146712
765.563	0.0145924
765.641	0.0146772
765.719	0.0146136
765.797	0.0145207
765.875	0.0146695
765.953	0.0146159
766.031	0.0146609
766.110	0.0147456
766.188	0.0146188
766.266	0.0146675
766.344	0.0147356
766.422	0.0146585
766.500	0.0146188
766.578	0.0145862
766.656	0.0145040
766.735	0.0146949
766.813	0.0146529
766.891	0.0145195
766.969	0.0146323
767.047	0.0145649
767.125	0.0146391
767.203	0.0145839
767.281	0.0146246
767.360	0.0147015
767.438	0.0147066
767.516	0.0145569
767.594	0.0146122
767.672	0.0144599
767.750	0.0145367
767.828	0.0145441
767.906	0.0145055
767.985	0.0144279
768.063	0.0146214
768.141	0.0145631
768.219	0.0145397
768.297	0.0144070
768.375	0.0145815
768.453	0.0144856
768.531	0.0145490
768.610	0.0146059
768.688	0.0144886
768.766	0.0144484
768.844	0.0146260
768.922	0.0145565
769.000	0.0143514
769.078	0.0144332
769.156	0.0145052
769.235	0.0144530
769.313	0.0144559
769.391	0.0144053
769.469	0.0145496
769.547	0.0144632
769.625	0.0146033
769.703	0.0144176
769.781	0.0145315
769.860	0.0144678
769.938	0.0144411
770.016	0.0145272
770.094	0.0145061
770.172	0.0145940
770.250	0.0144697
770.328	0.0145528
770.406	0.0144035
770.485	0.0145367
770.563	0.0144845
770.641	0.0144753
770.719	0.0145747
770.797	0.0145502
770.875	0.0145631
770.953	0.0146268
771.031	0.0144432
771.110	0.0145724
771.188	0.0146609
771.266	0.0145252
771.344	0.0145471
771.422	0.0147554
771.500	0.0145657
771.578	0.0145699
771.656	0.0147438
771.735	0.0146490
771.813	0.0145606
771.891	0.0144650
771.969	0.0145629
772.047	0.0146109
772.125	0.0146281
772.203	0.0144753
772.281	0.0146061
772.360	0.0145814
772.438	0.0144739
772.516	0.0145088
772.594	0.0144994
772.672	0.0145968
772.750	0.0145203
772.828	0.0145786
772.906	0.0145084
772.985	0.0145485
773.063	0.0146291
773.141	0.0143992
773.219	0.0145625
773.297	0.0144902
773.375	0.0145306
773.453	0.0146123
773.531	0.0144970
773.610	0.0146008
773.688	0.0147544
773.766	0.0144466
773.844	0.0145465
773.922	0.0146775
774.000	0.0146357
774.078	0.0145821
774.156	0.0146530
774.235	0.0145487
774.313	0.0145235
774.391	0.0145093
774.469	0.0146578
774.547	0.0145301
774.625	0.0143982
774.703	0.0146323
774.781	0.0146317
774.860	0.0145608
774.938	0.0145425
775.016	0.0144687
775.094	0.0145529
775.172	0.0145860
775.250	0.0144896
775.328	0.0145491
775.406	0.0145434
775.485	0.0145493
775.563	0.0145821
775.641	0.0146168
775.719	0.0146339
775.797	0.0146204
775.875	0.0145841
775.953	0.0145449
776.031	0.0146424
776.110	0.0146648
776.188	0.0146728
776.266	0.0147439
776.344	0.0145340
776.422	0.0147541
776.500	0.0148512
776.578	0.0146196
776.656	0.0144921
776.735	0.0147134
776.813	0.0145412
776.891	0.0144902
776.969	0.0144575
777.047	0.0144694
777.125	0.0144941
777.203	0.0145190
777.281	0.0144231
777.360	0.0145468
777.438	0.0145051
777.516	0.0144335
777.594	0.0145187
777.672	0.0145305
777.750	0.0144901
777.828	0.0144244
777.906	0.0144302
777.985	0.0144192
778.063	0.0145399
778.141	0.0143826
778.219	0.0143169
778.297	0.0146010
778.375	0.0145247
778.453	0.0143739
778.531	0.0144668
778.610	0.0144292
778.688	0.0143515
778.766	0.0144468
778.844	0.0144146
778.922	0.0143848
779.000	0.0143392
779.078	0.0143903
779.156	0.0144396
779.235	0.0142252
779.313	0.0143720
779.391	0.0144207
779.469	0.0144306
779.547	0.0145948
779.625	0.0145572
779.703	0.0144138
779.781	0.0144315
779.860	0.0145995
779.938	0.0145189
780.016	0.0145352
780.094	0.0146204
780.172	0.0143871
780.250	0.0143704
780.328	0.0146445
780.406	0.0146143
780.485	0.0145928
780.563	0.0145902
780.641	0.0144576
780.719	0.0144312
780.797	0.0144015
780.875	0.0144816
780.953	0.0146365
781.031	0.0145524
781.110	0.0144981
781.188	0.0145287
781.266	0.0146123
781.344	0.0145033
781.422	0.0144661
781.500	0.0144924
781.578	0.0146191
781.656	0.0145805
781.735	0.0146262
781.813	0.0146268
781.891	0.0146765
781.969	0.0145432
782.047	0.0146728
782.125	0.0145565
782.203	0.0145150
782.281	0.0145538
782.360	0.0146619
782.438	0.0146192
782.516	0.0145779
782.594	0.0145338
782.672	0.0146565
782.750	0.0145786
782.828	0.0146011
782.906	0.0146770
782.985	0.0145565
783.063	0.0147852
783.141	0.0146159
783.219	0.0144393
783.297	0.0146136
783.375	0.0146220
783.453	0.0146021
783.531	0.0144933
783.610	0.0145718
783.688	0.0145071
783.766	0.0145616
783.844	0.0145845
783.922	0.0143637
784.000	0.0143437
784.078	0.0145496
784.156	0.0145177
784.235	0.0145931
784.313	0.0144412
784.391	0.0144344
784.469	0.0143623
784.547	0.0142940
784.625	0.0145987
784.703	0.0145422
784.781	0.0145728
784.860	0.0145139
784.938	0.0145535
785.016	0.0144538
785.094	0.0145081
785.172	0.0146077
785.250	0.0146072
785.328	0.0145856
785.406	0.0145844
785.485	0.0145726
785.563	0.0145460
785.641	0.0145216
785.719	0.0145087
785.797	0.0144442
785.875	0.0144541
785.953	0.0145528
786.031	0.0145827
786.110	0.0145337
786.188	0.0145469
786.266	0.0144872
786.344	0.0144631
786.422	0.0145734
786.500	0.0145161
786.578	0.0145362
786.656	0.0145007
786.735	0.0144758
786.813	0.0145694
786.891	0.0145444
786.969	0.0146209
787.047	0.0145333
787.125	0.0144549
787.203	0.0145692
787.281	0.0147044
787.360	0.0145164
787.438	0.0145523
787.516	0.0144279
787.594	0.0145743
787.672	0.0144804
787.750	0.0146058
787.828	0.0146001
787.906	0.0146872
787.985	0.0144814
788.063	0.0145083
788.141	0.0144778
788.219	0.0145991
788.297	0.0145649
788.375	0.0146125
788.453	0.0144757
788.531	0.0143756
788.610	0.0144503
788.688	0.0144085
788.766	0.0145358
788.844	0.0145571
788.922	0.0145521
789.000	0.0143965
789.078	0.0143585
789.156	0.0145646
789.235	0.0143585
789.313	0.0144640
789.391	0.0144695
789.469	0.0145901
789.547	0.0146423
789.625	0.0145554
789.703	0.0143213
789.781	0.0144209
789.860	0.0144452
789.938	0.0144453
790.016	0.0144766
790.094	0.0144242
790.172	0.0143738
790.250	0.0143760
790.328	0.0144794
790.406	0.0144805
790.485	0.0145667
790.563	0.0144890
790.641	0.0143541
790.719	0.0144055
790.797	0.0144868
790.875	0.0146042
790.953	0.0144583
791.031	0.0143455
791.110	0.0143752
791.188	0.0145391
791.266	0.0144577
791.344	0.0144022
791.422	0.0144818
791.500	0.0145840
791.578	0.0144472
791.656	0.0144440
791.735	0.0145454
791.813	0.0143704
791.891	0.0144656
791.969	0.0145033
792.047	0.0145161
792.125	0.0144642
792.203	0.0144498
792.281	0.0143701
792.360	0.0142706
792.438	0.0147170
792.516	0.0145296
792.594	0.0144800
792.672	0.0144308
792.750	0.0145256
792.828	0.0144104
792.906	0.0144262
792.985	0.0145350
793.063	0.0145513
793.141	0.0145403
793.219	0.0144018
793.297	0.0146124
793.375	0.0144847
793.453	0.0144792
793.531	0.0144421
793.610	0.0144670
793.688	0.0145371
793.766	0.0143046
793.844	0.0143688
793.922	0.0144401
794.000	0.0143801
794.078	0.0143946
794.156	0.0144188
794.235	0.0144112
794.313	0.0144530
794.391	0.0144773
794.469	0.0144965
794.547	0.0145344
794.625	0.0144482
794.703	0.0145454
794.781	0.0146740
794.860	0.0145831
794.938	0.0145819
795.016	0.0146637
795.094	0.0145712
795.172	0.0147465
795.250	0.0145785
795.328	0.0146343
795.406	0.0147146
795.485	0.0147595
795.563	0.0146075
795.641	0.0148695
795.719	0.0147122
795.797	0.0147783
795.875	0.0146327
795.953	0.0147209
796.031	0.0146059
796.110	0.0147143
796.188	0.0147560
796.266	0.0145864
796.344	0.0146507
796.422	0.0146179
796.500	0.0146587
796.578	0.0147066
796.656	0.0145915
796.735	0.0146233
796.813	0.0148089
796.891	0.0148325
796.969	0.0146193
797.047	0.0146555
797.125	0.0147381
797.203	0.0147860
797.281	0.0147607
797.360	0.0147531
797.438	0.0146278
797.516	0.0146770
797.594	0.0147271
797.672	0.0148512
797.750	0.0148663
797.828	0.0147015
797.906	0.0146777
797.985	0.0146901
798.063	0.0147211
798.141	0.0147067
798.219	0.0147808
798.297	0.0145497
798.375	0.0145791
798.453	0.0145995
798.531	0.0145192
798.610	0.0144896
798.688	0.0145849
798.766	0.0145261
798.844	0.0144106
798.922	0.0146146
799.000	0.0145169
799.078	0.0144050
799.156	0.0144826
799.235	0.0145413
799.313	0.0144458
799.391	0.0143400
799.469	0.0145061
799.547	0.0144879
799.625	0.0146384
799.703	0.0145551
799.781	0.0144746
799.860	0.0144792
799.938	0.0145164
800.016	0.0144730
800.094	0.0143562
800.172	0.0143469
800.250	0.0144515
800.328	0.0145711
800.406	0.0145145
800.485	0.0144308
800.563	0.0145210
800.641	0.0145089
800.719	0.0145278
800.797	0.0144515
800.875	0.0145428
800.953	0.0144712
801.031	0.0146819
801.110	0.0144849
801.188	0.0144852
801.266	0.0145757
801.344	0.0145185
801.422	0.0144434
801.500	0.0143621
801.578	0.0145510
801.656	0.0146454
801.735	0.0144816
801.813	0.0145843
801.891	0.0145965
801.969	0.0145335
802.047	0.0147263
802.125	0.0144954
802.203	0.0144146
802.281	0.0146350
802.360	0.0145272
802.438	0.0145724
802.516	0.0146671
802.594	0.0146016
802.672	0.0146342
802.750	0.0147086
802.828	0.0146322
802.906	0.0145342
802.985	0.0146461
803.063	0.0146835
803.141	0.0145847
803.219	0.0147207
803.297	0.0145920
803.375	0.0146136
803.453	0.0146301
803.531	0.0146416
803.610	0.0146234
803.688	0.0145678
803.766	0.0147301
803.844	0.0148030
803.922	0.0146511
804.000	0.0145170
804.078	0.0145977
804.156	0.0147214
804.235	0.0146213
804.313	0.0145815
804.391	0.0145304
804.469	0.0146071
804.547	0.0144447
804.625	0.0144438
804.703	0.0146887
804.781	0.0146146
804.860	0.0144629
804.938	0.0146032
805.016	0.0144480
805.094	0.0145598
805.172	0.0145849
805.250	0.0145094
805.328	0.0146007
805.406	0.0146094
805.485	0.0145667
805.563	0.0146326
805.641	0.0146027
805.719	0.0144498
805.797	0.0145028
805.875	0.0145846
805.953	0.0145406
806.031	0.0145684
806.110	0.0146600
806.188	0.0145720
806.266	0.0144160
806.344	0.0144784
806.422	0.0144729
806.500	0.0145691
806.578	0.0146168
806.656	0.0146062
806.735	0.0144806
806.813	0.0145248
806.891	0.0145333
806.969	0.0145455
807.047	0.0145750
807.125	0.0144920
807.203	0.0144418
807.281	0.0145889
807.360	0.0144581
807.438	0.0143989
807.516	0.0144085
807.594	0.0144621
807.672	0.0144426
807.750	0.0144442
807.828	0.0145651
807.906	0.0144014
807.985	0.0143759
808.063	0.0144441
808.141	0.0145167
808.219	0.0146889
808.297	0.0144615
808.375	0.0145375
808.453	0.0146059
808.531	0.0146399
808.610	0.0146545
808.688	0.0143961
808.766	0.0144727
808.844	0.0146807
808.922	0.0146099
809.000	0.0147078
809.078	0.0146168
809.156	0.0145155
809.235	0.0145663
809.313	0.0146176
809.391	0.0146003
809.469	0.0145530
809.547	0.0145345
809.625	0.0144995
809.703	0.0145116
809.781	0.0145310
809.860	0.0144780
809.938	0.0146525
810.016	0.0144434
810.094	0.0145832
810.172	0.0144298
810.250	0.0145029
810.328	0.0144439
810.406	0.0144743
810.485	0.0145493
810.563	0.0145332
810.641	0.0145560
810.719	0.0145072
810.797	0.0145995
810.875	0.0146457
810.953	0.0144071
811.031	0.0147356
811.110	0.0146283
811.188	0.0146519
811.266	0.0144717
811.344	0.0146312
811.422	0.0146967
811.500	0.0147146
811.578	0.0146227
811.656	0.0146650
811.735	0.0146455
811.813	0.0145686
811.891	0.0145834
811.969	0.0146688
812.047	0.0146299
812.125	0.0145824
812.203	0.0145418
812.281	0.0145868
812.360	0.0144966
812.438	0.0144907
812.516	0.0144932
812.594	0.0144799
812.672	0.0144166
812.750	0.0144996
812.828	0.0144743
812.906	0.0144350
812.985	0.0145647
813.063	0.0146519
813.141	0.0144897
813.219	0.0145217
813.297	0.0145748
813.375	0.0144942
813.453	0.0146548
813.531	0.0145248
813.610	0.0145594
813.688	0.0145249
813.766	0.0146257
813.844	0.0145362
813.922	0.0146704
814.000	0.0146268
814.078	0.0144080
814.156	0.0146453
814.235	0.0146967
814.313	0.0146115
814.391	0.0145844
814.469	0.0144896
814.547	0.0145354
814.625	0.0145717
814.703	0.0146342
814.781	0.0146205
814.860	0.0146770
814.938	0.0147197
815.016	0.0146030
815.094	0.0144426
815.172	0.0145840
815.250	0.0145811
815.328	0.0146198
815.406	0.0146132
815.485	0.0147388
815.563	0.0146832
815.641	0.0146929
815.719	0.0145966
815.797	0.0145555
815.875	0.0146185
815.953	0.0147069
816.031	0.0145510
816.110	0.0146487
816.188	0.0146959
816.266	0.0145283
816.344	0.0146527
816.422	0.0146824
816.500	0.0146407
816.578	0.0145889
816.656	0.0146564
816.735	0.0146877
816.813	0.0145734
816.891	0.0146529
816.969	0.0145939
817.047	0.0144897
817.125	0.0146027
817.203	0.0144918
817.281	0.0145943
817.360	0.0146754
817.438	0.0145531
817.516	0.0146075
817.594	0.0145583
817.672	0.0143764
817.750	0.0145148
817.828	0.0146043
817.906	0.0145464
817.985	0.0145634
818.063	0.0145904
818.141	0.0146526
818.219	0.0145927
818.297	0.0144778
818.375	0.0144527
818.453	0.0144599
818.531	0.0145527
818.610	0.0145335
818.688	0.0146604
818.766	0.0144801
818.844	0.0145638
818.922	0.0147483
819.000	0.0146977
819.078	0.0146095
819.156	0.0145142
819.235	0.0145407
819.313	0.0146822
819.391	0.0146348
819.469	0.0147542
819.547	0.0146451
819.625	0.0144286
819.703	0.0145520
819.781	0.0144862
819.860	0.0145174
819.938	0.0146495
820.016	0.0146040
820.094	0.0145345
820.172	0.0145478
820.250	0.0144491
820.328	0.0146117
820.406	0.0144873
820.485	0.0145437
820.563	0.0144969
820.641	0.0144976
820.719	0.0144669
820.797	0.0144733
820.875	0.0144213
820.953	0.0144099
821.031	0.0145589
821.110	0.0144653
821.188	0.0145975
821.266	0.0146549
821.344	0.0143996
821.422	0.0145153
821.500	0.0145141
821.578	0.0145962
821.656	0.0145776
821.735	0.0145154
821.813	0.0145591
821.891	0.0145737
821.969	0.0146252
822.047	0.0144067
822.125	0.0146500
822.203	0.0145334
822.281	0.0145107
822.360	0.0144491
822.438	0.0145532
822.516	0.0144528
822.594	0.0145171
822.672	0.0145065
822.750	0.0145561
822.828	0.0144380
822.906	0.0145381
822.985	0.0145129
823.063	0.0144659
823.141	0.0144810
823.219	0.0145581
823.297	0.0145048
823.375	0.0144491
823.453	0.0145463
823.531	0.0146451
823.610	0.0147244
823.688	0.0145579
823.766	0.0144461
823.844	0.0144967
823.922	0.0145304
824.000	0.0145388
824.078	0.0144199
824.156	0.0145523
824.235	0.0143905
824.313	0.0145564
824.391	0.0145116
824.469	0.0145831
824.547	0.0144264
824.625	0.0144786
824.703	0.0144781
824.781	0.0145079
824.860	0.0145135
824.938	0.0144102
825.016	0.0145686
825.094	0.0145236
825.172	0.0145269
825.250	0.0145043
825.328	0.0144623
825.406	0.0144270
825.485	0.0145125
825.563	0.0145299
825.641	0.0145313
825.719	0.0145220
825.797	0.0144231
825.875	0.0143723
825.953	0.0144899
826.031	0.0144930
826.110	0.0143916
826.188	0.0145538
826.266	0.0144253
826.344	0.0144144
826.422	0.0145496
826.500	0.0144756
826.578	0.0145617
826.656	0.0145063
826.735	0.0143198
826.813	0.0145780
826.891	0.0145531
826.969	0.0145510
827.047	0.0147878
827.125	0.0147039
827.203	0.0145105
827.281	0.0144805
827.360	0.0145052
827.438	0.0144508
827.516	0.0145902
827.594	0.0145912
827.672	0.0145515
827.750	0.0146312
827.828	0.0146796
827.906	0.0145104
827.985	0.0145779
828.063	0.0146954
828.141	0.0146307
828.219	0.0146001
828.297	0.0145931
828.375	0.0147299
828.453	0.0146024
828.531	0.0146288
828.610	0.0145064
828.688	0.0145496
828.766	0.0145670
828.844	0.0145215
828.922	0.0146268
829.000	0.0145303
829.078	0.0145109
829.156	0.0145788
829.235	0.0146138
829.313	0.0144172
829.391	0.0144989
829.469	0.0146829
829.547	0.0145213
829.625	0.0143738
829.703	0.0145681
829.781	0.0144838
829.860	0.0145633
829.938	0.0146691
830.016	0.0145158
830.094	0.0145134
830.172	0.0146201
830.250	0.0146458
830.328	0.0145552
830.406	0.0145374
830.485	0.0146776
830.563	0.0145388
830.641	0.0146270
830.719	0.0146693
830.797	0.0147096
830.875	0.0146893
830.953	0.0146466
831.031	0.0144484
831.110	0.0146302
831.188	0.0147933
831.266	0.0147357
831.344	0.0146211
831.422	0.0146720
831.500	0.0147421
831.578	0.0146849
831.656	0.0146048
831.735	0.0148612
831.813	0.0148656
831.891	0.0146272
831.969	0.0146849
832.047	0.0146822
832.125	0.0147090
832.203	0.0146941
832.281	0.0147549
832.360	0.0147734
832.438	0.0147724
832.516	0.0147351
832.594	0.0147395
832.672	0.0147650
832.750	0.0147926
832.828	0.0146080
832.906	0.0146826
832.985	0.0148071
833.063	0.0147780
833.141	0.0146089
833.219	0.0146980
833.297	0.0146767
833.375	0.0145181
833.453	0.0146566
833.531	0.0146243
833.610	0.0145452
833.688	0.0145842
833.766	0.0145848
833.844	0.0146809
833.922	0.0146741
834.000	0.0145720
834.078	0.0146899
834.156	0.0146942
834.235	0.0145013
834.313	0.0147312
834.391	0.0147116
834.469	0.0145117
834.547	0.0145043
834.625	0.0146745
834.703	0.0145309
834.781	0.0146007
834.860	0.0146742
834.938	0.0148264
835.016	0.0145760
835.094	0.0145157
835.172	0.0146072
835.250	0.0145220
835.328	0.0144997
835.406	0.0143608
835.485	0.0143380
835.563	0.0145596
835.641	0.0145942
835.719	0.0145704
835.797	0.0145941
835.875	0.0145263
835.953	0.0144878
836.031	0.0144728
836.110	0.0143878
836.188	0.0144869
836.266	0.0145518
836.344	0.0145025
836.422	0.0146506
836.500	0.0146912
836.578	0.0145449
836.656	0.0143984
836.735	0.0144863
836.813	0.0146228
836.891	0.0145889
836.969	0.0144386
837.047	0.0144727
837.125	0.0145422
837.203	0.0145058
837.281	0.0144192
837.360	0.0145025
837.438	0.0146078
837.516	0.0144255
837.594	0.0143984
837.672	0.0143972
837.750	0.0145258
837.828	0.0145580
837.906	0.0145284
837.985	0.0144690
838.063	0.0144899
838.141	0.0145620
838.219	0.0145035
838.297	0.0145778
838.375	0.0145944
838.453	0.0144468
838.531	0.0145845
838.610	0.0146523
838.688	0.0144965
838.766	0.0145798
838.844	0.0145660
838.922	0.0145841
839.000	0.0144988
839.078	0.0146092
839.156	0.0146864
839.235	0.0146151
839.313	0.0145860
839.391	0.0146077
839.469	0.0144989
839.547	0.0145485
839.625	0.0146615
839.703	0.0146581
839.781	0.0145369
839.860	0.0145905
839.938	0.0146635
840.016	0.0145419
840.094	0.0146078
840.172	0.0145924
840.250	0.0146241
840.328	0.0147279
840.406	0.0146143
840.485	0.0145528
840.563	0.0146152
840.641	0.0146578
840.719	0.0145913
840.797	0.0145641
840.875	0.0147382
840.953	0.0146958
841.031	0.0146346
841.110	0.0144321
841.188	0.0146705
841.266	0.0146028
841.344	0.0144850
841.422	0.0144855
841.500	0.0145284
841.578	0.0145827
841.656	0.0145581
841.735	0.0145445
841.813	0.0146027
841.891	0.0144251
841.969	0.0145494
842.047	0.0146905
842.125	0.0145484
842.203	0.0146098
842.281	0.0146735
842.360	0.0146316
842.438	0.0145306
842.516	0.0146070
842.594	0.0145940
842.672	0.0146750
842.750	0.0145995
842.828	0.0147195
842.906	0.0145749
842.985	0.0145573
843.063	0.0145326
843.141	0.0145761
843.219	0.0145365
843.297	0.0146059
843.375	0.0147232
843.453	0.0144989
843.531	0.0145540
843.610	0.0144997
843.688	0.0145127
843.766	0.0145824
843.844	0.0145675
843.922	0.0144958
844.000	0.0145354
844.078	0.0146318
844.156	0.0146804
844.235	0.0145383
844.313	0.0145026
844.391	0.0144846
844.469	0.0144137
844.547	0.0145713
844.625	0.0146434
844.703	0.0145100
844.781	0.0144451
844.860	0.0144634
844.938	0.0145156
845.016	0.0144726
845.094	0.0144405
845.172	0.0145732
845.250	0.0144210
845.328	0.0144353
845.406	0.0145542
845.485	0.0145863
845.563	0.0145916
845.641	0.0144160
845.719	0.0144852
845.797	0.0145252
845.875	0.0145102
845.953	0.0145894
846.031	0.0146201
846.110	0.0146111
846.188	0.0144212
846.266	0.0144171
846.344	0.0146656
846.422	0.0147242
846.500	0.0145184
846.578	0.0143987
846.656	0.0146582
846.735	0.0145085
846.813	0.0144507
846.891	0.0146210
846.969	0.0145303
847.047	0.0143359
847.125	0.0143351
847.203	0.0144298
847.281	0.0145293
847.360	0.0144540
847.438	0.0145042
847.516	0.0144272
847.594	0.0144746
847.672	0.0144766
847.750	0.0144528
847.828	0.0142532
847.906	0.0144656
847.985	0.0145422
848.063	0.0145342
848.141	0.0144285
848.219	0.0144222
848.297	0.0144418
848.375	0.0144723
848.453	0.0144176
848.531	0.0144172
848.610	0.0144035
848.688	0.0144266
848.766	0.0144554
848.844	0.0144567
848.922	0.0144419
849.000	0.0144393
849.078	0.0145015
849.156	0.0144124
849.235	0.0144035
849.313	0.0144961
849.391	0.0145367
849.469	0.0145726
849.547	0.0145380
849.625	0.0144974
849.703	0.0144421
849.781	0.0143847
849.860	0.0145716
849.938	0.0144480
850.016	0.0145441
850.094	0.0145054
850.172	0.0144904
850.250	0.0144356
850.328	0.0144961
850.406	0.0145154
850.485	0.0145454
850.563	0.0146130
850.641	0.0145024
850.719	0.0145116
850.797	0.0145216
850.875	0.0145144
850.953	0.0145518
851.031	0.0145540
851.110	0.0145527
851.188	0.0143806
851.266	0.0145544
851.344	0.0146584
851.422	0.0144736
851.500	0.0144800
851.578	0.0145029
851.656	0.0145550
851.735	0.0145542
851.813	0.0145117
851.891	0.0146284
851.969	0.0145716
852.047	0.0143326
852.125	0.0144810
852.203	0.0144181
852.281	0.0144639
852.360	0.0145145
852.438	0.0145516
852.516	0.0144706
852.594	0.0144590
852.672	0.0144167
852.750	0.0144335
852.828	0.0144965
852.906	0.0145184
852.985	0.0144611
853.063	0.0144708
853.141	0.0144138
853.219	0.0144272
853.297	0.0145266
853.375	0.0145226
853.453	0.0145737
853.531	0.0145427
853.610	0.0145560
853.688	0.0144610
853.766	0.0144540
853.844	0.0144197
853.922	0.0145369
854.000	0.0145977
854.078	0.0145387
854.156	0.0145239
854.235	0.0144626
854.313	0.0144176
854.391	0.0145607
854.469	0.0145407
854.547	0.0145979
854.625	0.0146116
854.703	0.0144479
854.781	0.0145043
854.860	0.0145161
854.938	0.0144741
855.016	0.0145220
855.094	0.0145861
855.172	0.0144952
855.250	0.0144835
855.328	0.0145764
855.406	0.0144437
855.485	0.0145876
855.563	0.0145369
855.641	0.0145321
855.719	0.0145583
855.797	0.0144705
855.875	0.0143932
855.953	0.0145499
856.031	0.0144601
856.110	0.0146436
856.188	0.0145554
856.266	0.0144562
856.344	0.0143047
856.422	0.0145580
856.500	0.0145363
856.578	0.0145689
856.656	0.0146483
856.735	0.0148147
856.813	0.0146098
856.891	0.0144685
856.969	0.0145028
857.047	0.0144167
857.125	0.0144669
857.203	0.0145598
857.281	0.0145411
857.360	0.0146152
857.438	0.0145473
857.516	0.0145211
857.594	0.0145493
857.672	0.0145586
857.750	0.0144911
857.828	0.0145094
857.906	0.0147412
857.985	0.0145363
858.063	0.0144756
858.141	0.0145007
858.219	0.0146178
858.297	0.0145620
858.375	0.0145103
858.453	0.0146018
858.531	0.0145594
858.610	0.0146008
858.688	0.0144621
858.766	0.0144942
858.844	0.0144441
858.922	0.0144692
859.000	0.0146161
859.078	0.0145289
859.156	0.0145854
859.235	0.0145432
859.313	0.0145466
859.391	0.0146057
859.469	0.0144442
859.547	0.0145435
859.625	0.0146466
859.703	0.0145995
859.781	0.0144507
859.860	0.0144749
859.938	0.0145863
860.016	0.0144529
860.094	0.0145224
860.172	0.0144355
860.250	0.0145289
860.328	0.0145410
860.406	0.0144340
860.485	0.0143099
860.563	0.0143713
860.641	0.0144930
860.719	0.0146079
860.797	0.0144370
860.875	0.0143256
860.953	0.0144572
861.031	0.0143457
861.110	0.0143967
861.188	0.0144091
861.266	0.0143565
861.344	0.0144450
861.422	0.0146609
861.500	0.0144868
861.578	0.0144719
861.656	0.0144550
861.735	0.0145161
861.813	0.0142583
861.891	0.0144930
861.969	0.0146380
862.047	0.0144296
862.125	0.0145383
862.203	0.0145552
862.281	0.0145245
862.360	0.0144865
862.438	0.0145039
862.516	0.0146148
862.594	0.0145594
862.672	0.0144611
862.750	0.0145143
862.828	0.0145092
862.906	0.0144581
862.985	0.0145001
863.063	0.0145413
863.141	0.0144875
863.219	0.0144287
863.297	0.0144717
863.375	0.0144907
863.453	0.0144044
863.531	0.0142476
863.610	0.0144282
863.688	0.0144463
863.766	0.0144865
863.844	0.0144869
863.922	0.0144987
864.000	0.0144881
864.078	0.0144604
864.156	0.0146381
864.235	0.0144344
864.313	0.0143619
864.391	0.0145601
864.469	0.0145837
864.547	0.0145116
864.625	0.0145270
864.703	0.0145836
864.781	0.0146321
864.860	0.0146577
864.938	0.0146146
865.016	0.0147025
865.094	0.0145989
865.172	0.0144872
865.250	0.0145939
865.328	0.0146240
865.406	0.0145306
865.485	0.0146336
865.563	0.0145885
865.641	0.0146660
865.719	0.0144705
865.797	0.0145534
865.875	0.0145770
865.953	0.0145585
866.031	0.0146613
866.110	0.0145826
866.188	0.0146532
866.266	0.0145533
866.344	0.0144817
866.422	0.0147342
866.500	0.0147050
866.578	0.0147164
866.656	0.0145363
866.735	0.0144563
866.813	0.0146136
866.891	0.0147025
866.969	0.0146996
867.047	0.0145863
867.125	0.0147251
867.203	0.0145374
867.281	0.0145848
867.360	0.0145058
867.438	0.0146255
867.516	0.0145033
867.594	0.0145026
867.672	0.0144907
867.750	0.0146049
867.828	0.0146188
867.906	0.0145419
867.985	0.0145579
868.063	0.0145039
868.141	0.0145904
868.219	0.0145590
868.297	0.0145827
868.375	0.0144568
868.453	0.0145901
868.531	0.0147268
868.610	0.0146667
868.688	0.0146382
868.766	0.0146170
868.844	0.0147917
868.922	0.0146696
869.000	0.0143716
869.078	0.0145256
869.156	0.0146070
869.235	0.0145356
869.313	0.0144220
869.391	0.0145064
869.469	0.0144445
869.547	0.0145770
869.625	0.0145176
869.703	0.0145335
869.781	0.0145792
869.860	0.0145138
869.938	0.0145266
870.016	0.0145070
870.094	0.0146219
870.172	0.0144819
870.250	0.0146260
870.328	0.0145680
870.406	0.0145505
870.485	0.0144650
870.563	0.0144762
870.641	0.0145245
870.719	0.0145021
870.797	0.0144880
870.875	0.0145305
870.953	0.0144450
871.031	0.0143823
871.110	0.0145814
871.188	0.0145338
871.266	0.0144568
871.344	0.0142706
871.422	0.0145018
871.500	0.0145351
871.578	0.0144405
871.656	0.0145100
871.735	0.0144212
871.813	0.0144962
871.891	0.0145357
871.969	0.0145648
872.047	0.0144823
872.125	0.0145650
872.203	0.0145576
872.281	0.0144500
872.360	0.0144704
872.438	0.0146645
872.516	0.0145617
872.594	0.0146070
872.672	0.0146649
872.750	0.0144714
872.828	0.0146092
872.906	0.0146564
872.985	0.0145927
873.063	0.0146037
873.141	0.0145763
873.219	0.0145689
873.297	0.0146298
873.375	0.0145463
873.453	0.0146958
873.531	0.0145600
873.610	0.0146044
873.688	0.0145991
873.766	0.0144982
873.844	0.0144609
873.922	0.0144847
874.000	0.0145455
874.078	0.0146439
874.156	0.0144103
874.235	0.0145355
874.313	0.0145367
874.391	0.0145486
874.469	0.0146326
874.547	0.0144713
874.625	0.0145605
874.703	0.0145793
874.781	0.0145431
874.860	0.0146919
874.938	0.0146632
875.016	0.0146612
875.094	0.0147029
875.172	0.0146482
875.250	0.0146881
875.328	0.0146700
875.406	0.0147437
875.485	0.0147260
875.563	0.0147889
875.641	0.0146672
875.719	0.0147075
875.797	0.0146240
875.875	0.0147603
875.953	0.0148002
876.031	0.0146362
876.110	0.0146455
876.188	0.0147806
876.266	0.0147213
876.344	0.0145836
876.422	0.0144661
876.500	0.0145551
876.578	0.0146705
876.656	0.0146218
876.735	0.0144755
876.813	0.0143556
876.891	0.0143491
876.969	0.0144376
877.047	0.0142880
877.125	0.0143514
877.203	0.0144161
877.281	0.0144243
877.360	0.0144031
877.438	0.0143198
877.516	0.0142419
877.594	0.0144141
877.672	0.0144025
877.750	0.0144643
877.828	0.0146409
877.906	0.0144594
877.985	0.0144197
878.063	0.0144607
878.141	0.0144544
878.219	0.0144427
878.297	0.0144884
878.375	0.0144906
878.453	0.0143415
878.531	0.0144617
878.610	0.0144065
878.688	0.0143490
878.766	0.0144101
878.844	0.0143624
878.922	0.0143285
879.000	0.0142023
879.078	0.0142558
879.156	0.0142948
879.235	0.0144057
879.313	0.0144662
879.391	0.0143700
879.469	0.0143622
879.547	0.0143140
879.625	0.0143808
879.703	0.0143586
879.781	0.0143528
879.860	0.0142746
879.938	0.0144486
880.016	0.0144678
880.094	0.0144297
880.172	0.0145416
880.250	0.0143540
880.328	0.0145889
880.406	0.0145760
880.485	0.0146053
880.563	0.0144579
880.641	0.0145093
880.719	0.0145448
880.797	0.0145391
880.875	0.0144971
880.953	0.0145757
881.031	0.0145934
881.110	0.0145355
881.188	0.0145910
881.266	0.0145880
881.344	0.0145391
881.422	0.0145241
881.500	0.0145441
881.578	0.0145008
881.656	0.0145291
881.735	0.0145195
881.813	0.0144891
881.891	0.0145028
881.969	0.0144492
882.047	0.0144871
882.125	0.0146287
882.203	0.0145213
882.281	0.0147157
882.360	0.0145461
882.438	0.0146343
882.516	0.0145416
882.594	0.0146397
882.672	0.0144561
882.750	0.0145493
882.828	0.0146706
882.906	0.0146719
882.985	0.0146198
883.063	0.0148196
883.141	0.0147063
883.219	0.0145618
883.297	0.0146926
883.375	0.0147278
883.453	0.0146689
883.531	0.0147328
883.610	0.0146831
883.688	0.0146641
883.766	0.0146008
883.844	0.0146703
883.922	0.0145645
884.000	0.0147320
884.078	0.0145518
884.156	0.0146286
884.235	0.0146025
884.313	0.0145422
884.391	0.0145251
884.469	0.0145850
884.547	0.0144505
884.625	0.0144790
884.703	0.0145903
884.781	0.0144997
884.860	0.0144581
884.938	0.0145383
885.016	0.0146075
885.094	0.0144611
885.172	0.0145530
885.250	0.0146109
885.328	0.0145451
885.406	0.0145921
885.485	0.0146394
885.563	0.0147491
885.641	0.0146540
885.719	0.0145561
885.797	0.0147101
885.875	0.0146577
885.953	0.0146497
886.031	0.0146166
886.110	0.0148465
886.188	0.0147437
886.266	0.0146148
886.344	0.0146039
886.422	0.0145980
886.500	0.0145523
886.578	0.0147304
886.656	0.0147108
886.735	0.0145010
886.813	0.0145040
886.891	0.0145485
886.969	0.0144999
887.047	0.0146553
887.125	0.0146191
887.203	0.0144559
887.281	0.0145997
887.360	0.0145305
887.438	0.0146386
887.516	0.0145376
887.594	0.0145295
887.672	0.0144910
887.750	0.0144663
887.828	0.0145389
887.906	0.0145300
887.985	0.0145164
888.063	0.0145121
888.141	0.0144965
888.219	0.0144397
888.297	0.0145603
888.375	0.0145431
888.453	0.0143957
888.531	0.0143622
888.610	0.0143700
888.688	0.0143167
888.766	0.0143967
888.844	0.0142615
888.922	0.0143094
889.000	0.0144029
889.078	0.0143901
889.156	0.0142849
889.235	0.0143572
889.313	0.0142501
889.391	0.0143297
889.469	0.0142909
889.547	0.0142510
889.625	0.0143700
889.703	0.0142964
889.781	0.0144466
889.860	0.0143762
889.938	0.0144240
890.016	0.0144782
890.094	0.0144662
890.172	0.0144778
890.250	0.0145499
890.328	0.0143729
890.406	0.0144239
890.485	0.0144845
890.563	0.0145539
890.641	0.0146047
890.719	0.0143826
890.797	0.0143382
890.875	0.0144443
890.953	0.0145068
891.031	0.0144196
891.110	0.0144875
891.188	0.0146149
891.266	0.0145985
891.344	0.0144190
891.422	0.0144265
891.500	0.0145205
891.578	0.0145091
891.656	0.0145949
891.735	0.0145159
891.813	0.0146052
891.891	0.0145081
891.969	0.0145743
892.047	0.0146188
892.125	0.0146203
892.203	0.0146255
892.281	0.0145467
892.360	0.0146054
892.438	0.0146728
892.516	0.0145423
892.594	0.0144707
892.672	0.0145588
892.750	0.0146717
892.828	0.0147558
892.906	0.0145588
892.985	0.0145966
893.063	0.0146733
893.141	0.0146307
893.219	0.0146499
893.297	0.0146487
893.375	0.0147557
893.453	0.0146310
893.531	0.0147396
893.610	0.0147968
893.688	0.0147842
893.766	0.0146677
893.844	0.0146899
893.922	0.0147086
894.000	0.0147707
894.078	0.0148920
894.156	0.0147571
894.235	0.0147036
894.313	0.0148553
894.391	0.0147626
894.469	0.0146944
894.547	0.0146635
894.625	0.0146558
894.703	0.0146433
894.781	0.0145226
894.860	0.0146896
894.938	0.0147402
895.016	0.0147322
895.094	0.0145658
895.172	0.0146757
895.250	0.0146769
895.328	0.0143785
895.406	0.0146952
895.485	0.0147123
895.563	0.0147929
895.641	0.0146451
895.719	0.0145217
895.797	0.0147581
895.875	0.0147364
895.953	0.0146037
896.031	0.0145684
896.110	0.0145811
896.188	0.0145311
896.266	0.0146918
896.344	0.0147001
896.422	0.0147227
896.500	0.0147516
896.578	0.0146137
896.656	0.0147314
896.735	0.0146828
896.813	0.0147803
896.891	0.0147654
896.969	0.0146673
897.047	0.0146795
897.125	0.0147887
897.203	0.0149432
897.281	0.0148002
897.360	0.0146830
897.438	0.0148244
897.516	0.0147785
897.594	0.0146372
897.672	0.0145770
897.750	0.0147762
897.828	0.0147252
897.906	0.0146534
897.985	0.0145604
898.063	0.0146381
898.141	0.0146201
898.219	0.0147149
898.297	0.0147627
898.375	0.0147346
898.453	0.0147560
898.531	0.0147251
898.610	0.0147862
898.688	0.0147864
898.766	0.0146298
898.844	0.0146471
898.922	0.0146902
899.000	0.0147762
899.078	0.0148148
899.156	0.0147637
899.235	0.0146317
899.313	0.0147582
899.391	0.0148222
899.469	0.0147464
899.547	0.0145922
899.625	0.0146560
899.703	0.0146227
899.781	0.0145491
899.860	0.0146309
899.938	0.0145879
900.016	0.0146468
900.094	0.0146523
900.172	0.0147628
900.250	0.0146631
900.328	0.0146467
900.406	0.0145730
900.485	0.0145797
900.563	0.0146118
900.641	0.0145042
900.719	0.0145707
900.797	0.0144936
900.875	0.0146226
900.953	0.0145847
901.031	0.0145315
901.110	0.0145512
901.188	0.0145760
901.266	0.0145991
901.344	0.0145959
901.422	0.0146348
901.500	0.0145106
901.578	0.0146886
901.656	0.0146408
901.735	0.0145105
901.813	0.0145739
901.891	0.0144891
901.969	0.0146498
902.047	0.0146115
902.125	0.0145455
902.203	0.0144881
902.281	0.0145714
902.360	0.0143890
902.438	0.0143484
902.516	0.0145362
902.594	0.0144477
902.672	0.0144233
902.750	0.0146175
902.828	0.0145021
902.906	0.0143919
902.985	0.0144489
903.063	0.0142485
903.141	0.0144302
903.219	0.0144786
903.297	0.0145251
903.375	0.0145159
903.453	0.0145155
903.531	0.0144774
903.610	0.0144642
903.688	0.0144314
903.766	0.0144610
903.844	0.0145530
903.922	0.0144581
904.000	0.0146906
904.078	0.0145078
904.156	0.0145992
904.235	0.0146136
904.313	0.0144855
904.391	0.0145567
904.469	0.0146246
904.547	0.0146183
904.625	0.0146555
904.703	0.0145601
904.781	0.0145161
904.860	0.0144785
904.938	0.0144416
905.016	0.0145773
905.094	0.0145644
905.172	0.0145599
905.250	0.0144905
905.328	0.0144788
905.406	0.0146848
905.485	0.0145677
905.563	0.0144535
905.641	0.0145923
905.719	0.0146388
905.797	0.0146172
905.875	0.0145103
905.953	0.0146911
906.031	0.0146792
906.110	0.0146577
906.188	0.0146591
906.266	0.0146507
906.344	0.0145696
906.422	0.0146764
906.500	0.0146500
906.578	0.0147395
906.656	0.0146888
906.735	0.0147272
906.813	0.0146976
906.891	0.0146991
906.969	0.0147475
907.047	0.0148011
907.125	0.0147185
907.203	0.0146225
907.281	0.0146725
907.360	0.0146550
907.438	0.0146283
907.516	0.0147219
907.594	0.0147566
907.672	0.0145074
907.750	0.0146168
907.828	0.0145538
907.906	0.0145411
907.985	0.0145285
908.063	0.0146591
908.141	0.0146133
908.219	0.0145713
908.297	0.0146204
908.375	0.0145831
908.453	0.0145268
908.531	0.0146705
908.610	0.0145737
908.688	0.0146111
908.766	0.0146928
908.844	0.0147494
908.922	0.0145781
909.000	0.0144124
909.078	0.0146188
909.156	0.0146114
909.235	0.0143906
909.313	0.0145902
909.391	0.0145170
909.469	0.0145068
909.547	0.0146066
909.625	0.0145219
909.703	0.0144463
909.781	0.0145181
909.860	0.0144669
909.938	0.0145058
910.016	0.0145229
910.094	0.0145591
910.172	0.0144520
910.250	0.0145880
910.328	0.0145803
910.406	0.0144038
910.485	0.0144328
910.563	0.0144662
910.641	0.0144530
910.719	0.0146263
910.797	0.0146801
910.875	0.0144571
910.953	0.0144460
911.031	0.0146371
911.110	0.0146230
911.188	0.0146706
911.266	0.0146383
911.344	0.0146307
911.422	0.0145952
911.500	0.0144365
911.578	0.0146024
911.656	0.0146536
911.735	0.0144543
911.813	0.0143997
911.891	0.0144696
911.969	0.0144749
912.047	0.0145537
912.125	0.0144770
912.203	0.0145795
912.281	0.0145281
912.360	0.0145181
912.438	0.0144851
912.516	0.0144764
912.594	0.0145341
912.672	0.0145342
912.750	0.0145447
912.828	0.0144218
912.906	0.0145829
912.985	0.0145658
913.063	0.0144705
913.141	0.0146261
913.219	0.0146880
913.297	0.0144897
913.375	0.0146024
913.453	0.0145177
913.531	0.0146336
913.610	0.0145660
913.688	0.0144757
913.766	0.0146239
913.844	0.0146084
913.922	0.0145712
914.000	0.0145559
914.078	0.0144177
914.156	0.0145455
914.235	0.0144605
914.313	0.0145830
914.391	0.0144976
914.469	0.0145246
914.547	0.0145161
914.625	0.0146088
914.703	0.0145364
914.781	0.0145871
914.860	0.0145325
914.938	0.0146577
915.016	0.0144957
915.094	0.0146721
915.172	0.0145351
915.250	0.0146213
915.328	0.0146798
915.406	0.0144939
915.485	0.0144089
915.563	0.0143900
915.641	0.0145644
915.719	0.0146490
915.797	0.0144827
915.875	0.0145338
915.953	0.0146666
916.031	0.0146047
916.110	0.0146592
916.188	0.0145678
916.266	0.0145831
916.344	0.0146249
916.422	0.0144958
916.500	0.0145564
916.578	0.0146958
916.656	0.0145805
916.735	0.0146881
916.813	0.0145816
916.891	0.0145986
916.969	0.0144785
917.047	0.0145602
917.125	0.0145420
917.203	0.0145494
917.281	0.0145113
917.360	0.0145238
917.438	0.0145611
917.516	0.0145238
917.594	0.0145640
917.672	0.0144925
917.750	0.0144670
917.828	0.0143405
917.906	0.0145584
917.985	0.0145959
918.063	0.0146048
918.141	0.0145741
918.219	0.0143019
918.297	0.0143063
918.375	0.0144650
918.453	0.0144052
918.531	0.0144350
918.610	0.0145007
918.688	0.0142850
918.766	0.0144971
918.844	0.0144621
918.922	0.0143111
919.000	0.0145524
919.078	0.0145017
919.156	0.0145350
919.235	0.0146377
919.313	0.0143929
919.391	0.0145280
919.469	0.0145638
919.547	0.0145696
919.625	0.0144981
919.703	0.0144855
919.781	0.0146230
919.860	0.0146009
919.938	0.0145880
920.016	0.0146336
920.094	0.0146293
920.172	0.0144900
920.250	0.0144746
920.328	0.0145730
920.406	0.0145599
920.485	0.0145437
920.563	0.0145384
920.641	0.0144878
920.719	0.0146049
920.797	0.0145078
920.875	0.0145717
920.953	0.0146288
921.031	0.0145542
921.110	0.0144620
921.188	0.0146527
921.266	0.0147081
921.344	0.0145829
921.422	0.0145160
921.500	0.0146432
921.578	0.0145937
921.656	0.0145300
921.735	0.0146082
921.813	0.0147006
921.891	0.0147058
921.969	0.0146082
922.047	0.0147334
922.125	0.0146353
922.203	0.0147105
922.281	0.0145712
922.360	0.0145985
922.438	0.0144955
922.516	0.0146766
922.594	0.0146732
922.672	0.0144714
922.750	0.0144738
922.828	0.0146400
922.906	0.0145871
922.985	0.0146318
923.063	0.0145570
923.141	0.0145795
923.219	0.0145062
923.297	0.0145200
923.375	0.0145230
923.453	0.0144213
923.531	0.0145632
923.610	0.0144713
923.688	0.0145163
923.766	0.0146014
923.844	0.0144459
923.922	0.0143984
924.000	0.0143841
924.078	0.0142805
924.156	0.0143478
924.235	0.0145905
924.313	0.0143636
924.391	0.0142889
924.469	0.0143668
924.547	0.0143761
924.625	0.0143978
924.703	0.0144144
924.781	0.0143570
924.860	0.0144225
924.938	0.0143799
925.016	0.0143598
925.094	0.0143861
925.172	0.0143652
925.250	0.0145405
925.328	0.0144283
925.406	0.0142873
925.485	0.0143797
925.563	0.0143385
925.641	0.0144247
925.719	0.0144305
925.797	0.0143413
925.875	0.0144050
925.953	0.0143326
926.031	0.0143523
926.110	0.0145741
926.188	0.0144784
926.266	0.0142624
926.344	0.0143626
926.422	0.0145966
926.500	0.0144136
926.578	0.0143663
926.656	0.0143868
926.735	0.0144056
926.813	0.0144062
926.891	0.0144532
926.969	0.0146178
927.047	0.0145718
927.125	0.0145876
927.203	0.0146513
927.281	0.0145605
927.360	0.0145296
927.438	0.0146586
927.516	0.0145876
927.594	0.0146326
927.672	0.0147425
927.750	0.0146704
927.828	0.0146527
927.906	0.0144807
927.985	0.0146153
928.063	0.0145135
928.141	0.0146202
928.219	0.0145741
928.297	0.0145567
928.375	0.0146223
928.453	0.0145529
928.531	0.0145937
928.610	0.0145256
928.688	0.0145084
928.766	0.0146023
928.844	0.0146558
928.922	0.0145452
929.000	0.0145645
929.078	0.0146022
929.156	0.0145921
929.235	0.0145435
929.313	0.0145823
929.391	0.0146095
929.469	0.0146326
929.547	0.0146762
929.625	0.0147237
929.703	0.0147290
929.781	0.0145976
929.860	0.0146529
929.938	0.0147655
930.016	0.0147900
930.094	0.0146670
930.172	0.0146543
930.250	0.0145395
930.328	0.0145722
930.406	0.0146541
930.485	0.0146304
930.563	0.0145851
930.641	0.0145837
930.719	0.0146424
930.797	0.0148380
930.875	0.0145135
930.953	0.0146834
931.031	0.0147243
931.110	0.0146752
931.188	0.0145955
931.266	0.0147096
931.344	0.0147130
931.422	0.0146349
931.500	0.0147192
931.578	0.0147260
931.656	0.0146209
931.735	0.0146152
931.813	0.0146988
931.891	0.0145437
931.969	0.0145556
932.047	0.0144659
932.125	0.0144778
932.203	0.0144870
932.281	0.0145544
932.360	0.0145407
932.438	0.0145097
932.516	0.0145090
932.594	0.0145072
932.672	0.0145953
932.750	0.0145419
932.828	0.0145522
932.906	0.0143909
932.985	0.0143604
933.063	0.0145068
933.141	0.0145206
933.219	0.0144586
933.297	0.0144936
933.375	0.0143744
933.453	0.0143404
933.531	0.0143050
933.610	0.0144422
933.688	0.0144624
933.766	0.0144570
933.844	0.0145071
933.922	0.0142857
934.000	0.0143491
934.078	0.0144197
934.156	0.0144803
934.235	0.0144659
934.313	0.0143295
934.391	0.0144750
934.469	0.0144309
934.547	0.0145858
934.625	0.0144421
934.703	0.0145169
934.781	0.0144036
934.860	0.0142619
934.938	0.0144885
935.016	0.0144038
935.094	0.0143015
935.172	0.0143496
935.250	0.0143443
935.328	0.0143102
935.406	0.0143466
935.485	0.0144286
935.563	0.0144025
935.641	0.0144333
935.719	0.0143687
935.797	0.0144453
935.875	0.0142517
935.953	0.0143734
936.031	0.0145618
936.110	0.0144431
936.188	0.0142671
936.266	0.0144707
936.344	0.0145774
936.422	0.0143373
936.500	0.0145770
936.578	0.0144874
936.656	0.0145506
936.735	0.0146313
936.813	0.0145829
936.891	0.0144381
936.969	0.0144051
937.047	0.0145161
937.125	0.0144629
937.203	0.0144182
937.281	0.0144582
937.360	0.0143913
937.438	0.0143732
937.516	0.0144762
937.594	0.0144222
937.672	0.0144370
937.750	0.0145044
937.828	0.0144411
937.906	0.0142361
937.985	0.0143867
938.063	0.0144984
938.141	0.0144878
938.219	0.0144639
938.297	0.0145627
938.375	0.0144447
938.453	0.0145142
938.531	0.0145030
938.610	0.0145645
938.688	0.0145711
938.766	0.0144069
938.844	0.0143482
938.922	0.0146049
939.000	0.0144986
939.078	0.0146222
939.156	0.0144991
939.235	0.0144177
939.313	0.0146262
939.391	0.0144858
939.469	0.0146047
939.547	0.0145403
939.625	0.0145473
939.703	0.0144975
939.781	0.0143926
939.860	0.0143827
939.938	0.0145546
940.016	0.0142608
940.094	0.0143694
940.172	0.0145861
940.250	0.0144508
940.328	0.0143436
940.406	0.0144656
940.485	0.0144569
940.563	0.0143894
940.641	0.0142397
940.719	0.0144112
940.797	0.0144231
940.875	0.0146539
940.953	0.0143768
941.031	0.0143319
941.110	0.0143800
941.188	0.0144485
941.266	0.0143818
941.344	0.0142807
941.422	0.0144276
941.500	0.0143998
941.578	0.0143701
941.656	0.0144597
941.735	0.0142902
941.813	0.0144205
941.891	0.0144727
941.969	0.0143694
942.047	0.0145706
942.125	0.0142471
942.203	0.0142889
942.281	0.0144104
942.360	0.0144681
942.438	0.0143997
942.516	0.0141924
942.594	0.0143211
942.672	0.0144421
942.750	0.0144582
942.828	0.0144833
942.906	0.0143268
942.985	0.0144165
943.063	0.0142881
943.141	0.0142785
943.219	0.0143778
943.297	0.0145072
943.375	0.0143638
943.453	0.0143201
943.531	0.0143740
943.610	0.0143857
943.688	0.0143694
943.766	0.0144306
943.844	0.0144730
943.922	0.0145199
944.000	0.0145212
944.078	0.0143862
944.156	0.0144580
944.235	0.0144933
944.313	0.0144379
944.391	0.0145303
944.469	0.0144936
944.547	0.0143939
944.625	0.0145810
944.703	0.0145495
944.781	0.0144402
944.860	0.0144005
944.938	0.0144570
945.016	0.0145960
945.094	0.0142942
945.172	0.0143816
945.250	0.0143621
945.328	0.0145036
945.406	0.0145049
945.485	0.0144330
945.563	0.0145255
945.641	0.0143846
945.719	0.0144169
945.797	0.0144140
945.875	0.0145519
945.953	0.0144361
946.031	0.0143223
946.110	0.0145310
946.188	0.0145505
946.266	0.0144430
946.344	0.0144027
946.422	0.0144648
946.500	0.0144175
946.578	0.0143961
946.656	0.0144322
946.735	0.0143590
946.813	0.0144803
946.891	0.0142565
946.969	0.0144476
947.047	0.0143005
947.125	0.0142661
947.203	0.0142230
947.281	0.0143262
947.360	0.0142928
947.438	0.0142581
947.516	0.0143450
947.594	0.0142041
947.672	0.0141526
947.750	0.0142741
947.828	0.0141506
947.906	0.0142288
947.985	0.0142505
948.063	0.0143135
948.141	0.0142076
948.219	0.0142567
948.297	0.0142682
948.375	0.0143457
948.453	0.0142849
948.531	0.0142755
948.610	0.0141480
948.688	0.0142982
948.766	0.0143523
948.844	0.0143880
948.922	0.0144666
949.000	0.0143336
949.078	0.0143679
949.156	0.0144097
949.235	0.0144681
949.313	0.0144006
949.391	0.0142426
949.469	0.0144023
949.547	0.0143977
949.625	0.0143038
949.703	0.0144578
949.781	0.0143894
949.860	0.0142669
949.938	0.0143731
