05/04/2022	21:45:29	Ver.	4.1	UNKNOWN
Optical Delay	630.015849	Delta X		0.078125	Sweeps	1	Scan Rate	0/0
Coordinates	Axis 1	NaN	Axis 2	NaN	Axis 3	NaN	Axis 4	NaN	Axis 5	NaN	Axis 6	0.000000
TX Power	0.000000	RX Power	0.000000

630.016	0.0146422
630.094	0.0146738
630.172	0.0147912
630.250	0.0146037
630.328	0.0146255
630.406	0.0146571
630.485	0.0146592
630.563	0.0146761
630.641	0.0147546
630.719	0.0146761
630.797	0.0145171
630.875	0.0145672
630.953	0.0147354
631.031	0.0145496
631.110	0.0145079
631.188	0.0145927
631.266	0.0144603
631.344	0.0147108
631.422	0.0145959
631.500	0.0145750
631.578	0.0146976
631.656	0.0146289
631.735	0.0145784
631.813	0.0146127
631.891	0.0144955
631.969	0.0147029
632.047	0.0146924
632.125	0.0147044
632.203	0.0146292
632.281	0.0145687
632.360	0.0146095
632.438	0.0147456
632.516	0.0146558
632.594	0.0146213
632.672	0.0145162
632.750	0.0146014
632.828	0.0146678
632.906	0.0145051
632.985	0.0146765
633.063	0.0145838
633.141	0.0144812
633.219	0.0147189
633.297	0.0147485
633.375	0.0145235
633.453	0.0146472
633.531	0.0146823
633.610	0.0146317
633.688	0.0146039
633.766	0.0145007
633.844	0.0147292
633.922	0.0146539
634.000	0.0145302
634.078	0.0146022
634.156	0.0147355
634.235	0.0147347
634.313	0.0145237
634.391	0.0146008
634.469	0.0146017
634.547	0.0146365
634.625	0.0147061
634.703	0.0145895
634.781	0.0146456
634.860	0.0145985
634.938	0.0146924
635.016	0.0147314
635.094	0.0146172
635.172	0.0148119
635.250	0.0146729
635.328	0.0147520
635.406	0.0148273
635.485	0.0146174
635.563	0.0147433
635.641	0.0147085
635.719	0.0147498
635.797	0.0148495
635.875	0.0147284
635.953	0.0147690
636.031	0.0148048
636.110	0.0147160
636.188	0.0147471
636.266	0.0147003
636.344	0.0147591
636.422	0.0146570
636.500	0.0146986
636.578	0.0146172
636.656	0.0147182
636.735	0.0147366
636.813	0.0147662
636.891	0.0146342
636.969	0.0147783
637.047	0.0147741
637.125	0.0147580
637.203	0.0147768
637.281	0.0147832
637.360	0.0145981
637.438	0.0148806
637.516	0.0148091
637.594	0.0148598
637.672	0.0148073
637.750	0.0147436
637.828	0.0146098
637.906	0.0147993
637.985	0.0147510
638.063	0.0148007
638.141	0.0147585
638.219	0.0148384
638.297	0.0148299
638.375	0.0145843
638.453	0.0148047
638.531	0.0147945
638.610	0.0146223
638.688	0.0147096
638.766	0.0147850
638.844	0.0146915
638.922	0.0148313
639.000	0.0148341
639.078	0.0148003
639.156	0.0147381
639.235	0.0148058
639.313	0.0147373
639.391	0.0146046
639.469	0.0147173
639.547	0.0147621
639.625	0.0148048
639.703	0.0146747
639.781	0.0148148
639.860	0.0146412
639.938	0.0147657
640.016	0.0147346
640.094	0.0147688
640.172	0.0147986
640.250	0.0146671
640.328	0.0147794
640.406	0.0146665
640.485	0.0148022
640.563	0.0148320
640.641	0.0147720
640.719	0.0147789
640.797	0.0146837
640.875	0.0148360
640.953	0.0147294
641.031	0.0147005
641.110	0.0148997
641.188	0.0146856
641.266	0.0146598
641.344	0.0147222
641.422	0.0146468
641.500	0.0148439
641.578	0.0147260
641.656	0.0147183
641.735	0.0147907
641.813	0.0146288
641.891	0.0147048
641.969	0.0147754
642.047	0.0146587
642.125	0.0145158
642.203	0.0146916
642.281	0.0147009
642.360	0.0147448
642.438	0.0146755
642.516	0.0145396
642.594	0.0147092
642.672	0.0147272
642.750	0.0146815
642.828	0.0144995
642.906	0.0147506
642.985	0.0146605
643.063	0.0146446
643.141	0.0146864
643.219	0.0146247
643.297	0.0145883
643.375	0.0145441
643.453	0.0144563
643.531	0.0145972
643.610	0.0146345
643.688	0.0144589
643.766	0.0146121
643.844	0.0145770
643.922	0.0147460
644.000	0.0145396
644.078	0.0146454
644.156	0.0147043
644.235	0.0145367
644.313	0.0145764
644.391	0.0147608
644.469	0.0147378
644.547	0.0145424
644.625	0.0146506
644.703	0.0146256
644.781	0.0147681
644.860	0.0146942
644.938	0.0145701
645.016	0.0145518
645.094	0.0144801
645.172	0.0146880
645.250	0.0147835
645.328	0.0146911
645.406	0.0145558
645.485	0.0146269
645.563	0.0145588
645.641	0.0147072
645.719	0.0146233
645.797	0.0146534
645.875	0.0147548
645.953	0.0145800
646.031	0.0147296
646.110	0.0145951
646.188	0.0146071
646.266	0.0146281
646.344	0.0145576
646.422	0.0146574
646.500	0.0145506
646.578	0.0146730
646.656	0.0146706
646.735	0.0146001
646.813	0.0146031
646.891	0.0146401
646.969	0.0145819
647.047	0.0147089
647.125	0.0148656
647.203	0.0147181
647.281	0.0145739
647.360	0.0146632
647.438	0.0146122
647.516	0.0146804
647.594	0.0147127
647.672	0.0147021
647.750	0.0145822
647.828	0.0146571
647.906	0.0146636
647.985	0.0146217
648.063	0.0146458
648.141	0.0146655
648.219	0.0146711
648.297	0.0146552
648.375	0.0144743
648.453	0.0146629
648.531	0.0146266
648.610	0.0147882
648.688	0.0146439
648.766	0.0145677
648.844	0.0145936
648.922	0.0147054
649.000	0.0146121
649.078	0.0146893
649.156	0.0146978
649.235	0.0146107
649.313	0.0147107
649.391	0.0144885
649.469	0.0145682
649.547	0.0146430
649.625	0.0146461
649.703	0.0147291
649.781	0.0146538
649.860	0.0147064
649.938	0.0146645
650.016	0.0144481
650.094	0.0146500
650.172	0.0146652
650.250	0.0146378
650.328	0.0146987
650.406	0.0147940
650.485	0.0146117
650.563	0.0145795
650.641	0.0146190
650.719	0.0145550
650.797	0.0146824
650.875	0.0146703
650.953	0.0145942
651.031	0.0147514
651.110	0.0146078
651.188	0.0145844
651.266	0.0147396
651.344	0.0145568
651.422	0.0146662
651.500	0.0147455
651.578	0.0147386
651.656	0.0145409
651.735	0.0145933
651.813	0.0146424
651.891	0.0146095
651.969	0.0146690
652.047	0.0147017
652.125	0.0144877
652.203	0.0146142
652.281	0.0145877
652.360	0.0144859
652.438	0.0146496
652.516	0.0147180
652.594	0.0145817
652.672	0.0147082
652.750	0.0146739
652.828	0.0144950
652.906	0.0147003
652.985	0.0146218
653.063	0.0146015
653.141	0.0146448
653.219	0.0145033
653.297	0.0146453
653.375	0.0146860
653.453	0.0145913
653.531	0.0144707
653.610	0.0145004
653.688	0.0146103
653.766	0.0147322
653.844	0.0146886
653.922	0.0146913
654.000	0.0147631
654.078	0.0148331
654.156	0.0147990
654.235	0.0145775
654.313	0.0146938
654.391	0.0146851
654.469	0.0146770
654.547	0.0146213
654.625	0.0144666
654.703	0.0146625
654.781	0.0148000
654.860	0.0146893
654.938	0.0146537
655.016	0.0146007
655.094	0.0144638
655.172	0.0146043
655.250	0.0146466
655.328	0.0145661
655.406	0.0145939
655.485	0.0145415
655.563	0.0145769
655.641	0.0147202
655.719	0.0145646
655.797	0.0144520
655.875	0.0144209
655.953	0.0144424
656.031	0.0145513
656.110	0.0145983
656.188	0.0145814
656.266	0.0144816
656.344	0.0144971
656.422	0.0144641
656.500	0.0146304
656.578	0.0145752
656.656	0.0145718
656.735	0.0146114
656.813	0.0145081
656.891	0.0145943
656.969	0.0146706
657.047	0.0146294
657.125	0.0146622
657.203	0.0145787
657.281	0.0145708
657.360	0.0147894
657.438	0.0145570
657.516	0.0145959
657.594	0.0144997
657.672	0.0145713
657.750	0.0146629
657.828	0.0144559
657.906	0.0146163
657.985	0.0146268
658.063	0.0145213
658.141	0.0145607
658.219	0.0146172
658.297	0.0147572
658.375	0.0147288
658.453	0.0147848
658.531	0.0147409
658.610	0.0146513
658.688	0.0146537
658.766	0.0145432
658.844	0.0145715
658.922	0.0146528
659.000	0.0145320
659.078	0.0146095
659.156	0.0146751
659.235	0.0146333
659.313	0.0145950
659.391	0.0146767
659.469	0.0145161
659.547	0.0144794
659.625	0.0146938
659.703	0.0146477
659.781	0.0145007
659.860	0.0144388
659.938	0.0145987
660.016	0.0145632
660.094	0.0146456
660.172	0.0147012
660.250	0.0147378
660.328	0.0147301
660.406	0.0145302
660.485	0.0145962
660.563	0.0147546
660.641	0.0147087
660.719	0.0147617
660.797	0.0147318
660.875	0.0146402
660.953	0.0147160
661.031	0.0146865
661.110	0.0147782
661.188	0.0146948
661.266	0.0146365
661.344	0.0147202
661.422	0.0145856
661.500	0.0144325
661.578	0.0145771
661.656	0.0146817
661.735	0.0145108
661.813	0.0144426
661.891	0.0146094
661.969	0.0145787
662.047	0.0145160
662.125	0.0145468
662.203	0.0145146
662.281	0.0147305
662.360	0.0146655
662.438	0.0147067
662.516	0.0145942
662.594	0.0145907
662.672	0.0147227
662.750	0.0148413
662.828	0.0147217
662.906	0.0147200
662.985	0.0145277
663.063	0.0148354
663.141	0.0146417
663.219	0.0146646
663.297	0.0146699
663.375	0.0146943
663.453	0.0144999
663.531	0.0147430
663.610	0.0145636
663.688	0.0146014
663.766	0.0146657
663.844	0.0146662
663.922	0.0147661
664.000	0.0145955
664.078	0.0148009
664.156	0.0146490
664.235	0.0145213
664.313	0.0147054
664.391	0.0147643
664.469	0.0148247
664.547	0.0148013
664.625	0.0147368
664.703	0.0149010
664.781	0.0148486
664.860	0.0147835
664.938	0.0147920
665.016	0.0147845
665.094	0.0147981
665.172	0.0148502
665.250	0.0148798
665.328	0.0148352
665.406	0.0147985
665.485	0.0148933
665.563	0.0147442
665.641	0.0146870
665.719	0.0146910
665.797	0.0148344
665.875	0.0148849
665.953	0.0147473
666.031	0.0146534
666.110	0.0147338
666.188	0.0147409
666.266	0.0147210
666.344	0.0146584
666.422	0.0146523
666.500	0.0148232
666.578	0.0146025
666.656	0.0146447
666.735	0.0146647
666.813	0.0147618
666.891	0.0146780
666.969	0.0147759
667.047	0.0147213
667.125	0.0146574
667.203	0.0148166
667.281	0.0147782
667.360	0.0148086
667.438	0.0146835
667.516	0.0147329
667.594	0.0147649
667.672	0.0148759
667.750	0.0147393
667.828	0.0147308
667.906	0.0147640
667.985	0.0148098
668.063	0.0148293
668.141	0.0145840
668.219	0.0148425
668.297	0.0147387
668.375	0.0146290
668.453	0.0148078
668.531	0.0148430
668.610	0.0147538
668.688	0.0147132
668.766	0.0146835
668.844	0.0148563
668.922	0.0147658
669.000	0.0146746
669.078	0.0146701
669.156	0.0146559
669.235	0.0145241
669.313	0.0144689
669.391	0.0143266
669.469	0.0143546
669.547	0.0142765
669.625	0.0142803
669.703	0.0142394
669.781	0.0144247
669.860	0.0143686
669.938	0.0143163
670.016	0.0145237
670.094	0.0146291
670.172	0.0145569
670.250	0.0146381
670.328	0.0148213
670.406	0.0148446
670.485	0.0147512
670.563	0.0149216
670.641	0.0150538
670.719	0.0148759
670.797	0.0147765
670.875	0.0147237
670.953	0.0148619
671.031	0.0147855
671.110	0.0147559
671.188	0.0145671
671.266	0.0145979
671.344	0.0145572
671.422	0.0146539
671.500	0.0146305
671.578	0.0145685
671.656	0.0146163
671.735	0.0146027
671.813	0.0146816
671.891	0.0145628
671.969	0.0145750
672.047	0.0146090
672.125	0.0145273
672.203	0.0146448
672.281	0.0146557
672.360	0.0144160
672.438	0.0144085
672.516	0.0143735
672.594	0.0144579
672.672	0.0145325
672.750	0.0143944
672.828	0.0146209
672.906	0.0145925
672.985	0.0145779
673.063	0.0147223
673.141	0.0147681
673.219	0.0148331
673.297	0.0149081
673.375	0.0146876
673.453	0.0146826
673.531	0.0146387
673.610	0.0146298
673.688	0.0145129
673.766	0.0144692
673.844	0.0143861
673.922	0.0144195
674.000	0.0141970
674.078	0.0141757
674.156	0.0142218
674.235	0.0142170
674.313	0.0141629
674.391	0.0142534
674.469	0.0144039
674.547	0.0143455
674.625	0.0145276
674.703	0.0145001
674.781	0.0149413
674.860	0.0147323
674.938	0.0149316
675.016	0.0150179
675.094	0.0152036
675.172	0.0149603
675.250	0.0149989
675.328	0.0149815
675.406	0.0148766
675.485	0.0147593
675.563	0.0145275
675.641	0.0143490
675.719	0.0143800
675.797	0.0143031
675.875	0.0142027
675.953	0.0141496
676.031	0.0142235
676.110	0.0142368
676.188	0.0143380
676.266	0.0145137
676.344	0.0142627
676.422	0.0146659
676.500	0.0146784
676.578	0.0146732
676.656	0.0147074
676.735	0.0146654
676.813	0.0148185
676.891	0.0149801
676.969	0.0148592
677.047	0.0148676
677.125	0.0147984
677.203	0.0145893
677.281	0.0144965
677.360	0.0145619
677.438	0.0142258
677.516	0.0140852
677.594	0.0141960
677.672	0.0140357
677.750	0.0139223
677.828	0.0138165
677.906	0.0140346
677.985	0.0140660
678.063	0.0142290
678.141	0.0142755
678.219	0.0144335
678.297	0.0146897
678.375	0.0147247
678.453	0.0148580
678.531	0.0149348
678.610	0.0149731
678.688	0.0148656
678.766	0.0150380
678.844	0.0148597
678.922	0.0148217
679.000	0.0148660
679.078	0.0147424
679.156	0.0147672
679.235	0.0146378
679.313	0.0145221
679.391	0.0145338
679.469	0.0144619
679.547	0.0143537
679.625	0.0143640
679.703	0.0143017
679.781	0.0143932
679.860	0.0142451
679.938	0.0143036
680.016	0.0144186
680.094	0.0143700
680.172	0.0144988
680.250	0.0145843
680.328	0.0143876
680.406	0.0144810
680.485	0.0143834
680.563	0.0144004
680.641	0.0144676
680.719	0.0145834
680.797	0.0143483
680.875	0.0143353
680.953	0.0143777
681.031	0.0145479
681.110	0.0145972
681.188	0.0147437
681.266	0.0148059
681.344	0.0148566
681.422	0.0150907
681.500	0.0149632
681.578	0.0152066
681.656	0.0151917
681.735	0.0151225
681.813	0.0150825
681.891	0.0149699
681.969	0.0148849
682.047	0.0146925
682.125	0.0142684
682.203	0.0140483
682.281	0.0139741
682.360	0.0137476
682.438	0.0136986
682.516	0.0136140
682.594	0.0137349
682.672	0.0136793
682.750	0.0138779
682.828	0.0139552
682.906	0.0142812
682.985	0.0143099
683.063	0.0145049
683.141	0.0147117
683.219	0.0149103
683.297	0.0151020
683.375	0.0152026
683.453	0.0152116
683.531	0.0152264
683.610	0.0151494
683.688	0.0152723
683.766	0.0153130
683.844	0.0151234
683.922	0.0151169
684.000	0.0150768
684.078	0.0149781
684.156	0.0149789
684.235	0.0148580
684.313	0.0148264
684.391	0.0147765
684.469	0.0148159
684.547	0.0149379
684.625	0.0148090
684.703	0.0146371
684.781	0.0145058
684.860	0.0144974
684.938	0.0146233
685.016	0.0143266
685.094	0.0141473
685.172	0.0139436
685.250	0.0137167
685.328	0.0136793
685.406	0.0136572
685.485	0.0137354
685.563	0.0136160
685.641	0.0137112
685.719	0.0138150
685.797	0.0139732
685.875	0.0141880
685.953	0.0143382
686.031	0.0147013
686.110	0.0149691
686.188	0.0151119
686.266	0.0151450
686.344	0.0152757
686.422	0.0153737
686.500	0.0154421
686.578	0.0155918
686.656	0.0155636
686.735	0.0153325
686.813	0.0154008
686.891	0.0150553
686.969	0.0151398
687.047	0.0148014
687.125	0.0146986
687.203	0.0145282
687.281	0.0144451
687.360	0.0142441
687.438	0.0140655
687.516	0.0140022
687.594	0.0138907
687.672	0.0140099
687.750	0.0138462
687.828	0.0137926
687.906	0.0138682
687.985	0.0139229
688.063	0.0138593
688.141	0.0139450
688.219	0.0139664
688.297	0.0140687
688.375	0.0140853
688.453	0.0140633
688.531	0.0141959
688.610	0.0142178
688.688	0.0143542
688.766	0.0144090
688.844	0.0146940
688.922	0.0148464
689.000	0.0150623
689.078	0.0151091
689.156	0.0154879
689.235	0.0155050
689.313	0.0156641
689.391	0.0158022
689.469	0.0159840
689.547	0.0157777
689.625	0.0157339
689.703	0.0156545
689.781	0.0153467
689.860	0.0150509
689.938	0.0148261
690.016	0.0146314
690.094	0.0145425
690.172	0.0144060
690.250	0.0142066
690.328	0.0140841
690.406	0.0141198
690.485	0.0140656
690.563	0.0140171
690.641	0.0139603
690.719	0.0140773
690.797	0.0141162
690.875	0.0142025
690.953	0.0143755
691.031	0.0145189
691.110	0.0145515
691.188	0.0144116
691.266	0.0146494
691.344	0.0146857
691.422	0.0147099
691.500	0.0147375
691.578	0.0148737
691.656	0.0148823
691.735	0.0148795
691.813	0.0149854
691.891	0.0151662
691.969	0.0152180
692.047	0.0153053
692.125	0.0152078
692.203	0.0151019
692.281	0.0152044
692.360	0.0151500
692.438	0.0149959
692.516	0.0148030
692.594	0.0146383
692.672	0.0144273
692.750	0.0142304
692.828	0.0140218
692.906	0.0140948
692.985	0.0138712
693.063	0.0138303
693.141	0.0138311
693.219	0.0139127
693.297	0.0140605
693.375	0.0140311
693.453	0.0142433
693.531	0.0143620
693.610	0.0144640
693.688	0.0145464
693.766	0.0146898
693.844	0.0147935
693.922	0.0149692
694.000	0.0149435
694.078	0.0149701
694.156	0.0149873
694.235	0.0148978
694.313	0.0148518
694.391	0.0148132
694.469	0.0147434
694.547	0.0144678
694.625	0.0144556
694.703	0.0143152
694.781	0.0142753
694.860	0.0142048
694.938	0.0141210
695.016	0.0141014
695.094	0.0140752
695.172	0.0141114
695.250	0.0139832
695.328	0.0140874
695.406	0.0140195
695.485	0.0142149
695.563	0.0143601
695.641	0.0143927
695.719	0.0144402
695.797	0.0144769
695.875	0.0145705
695.953	0.0146829
696.031	0.0147686
696.110	0.0147526
696.188	0.0147516
696.266	0.0148585
696.344	0.0147133
696.422	0.0147691
696.500	0.0147605
696.578	0.0147361
696.656	0.0147052
696.735	0.0145291
696.813	0.0146394
696.891	0.0146266
696.969	0.0147243
697.047	0.0145042
697.125	0.0144877
697.203	0.0145554
697.281	0.0145357
697.360	0.0144868
697.438	0.0145821
697.516	0.0144504
697.594	0.0144493
697.672	0.0144444
697.750	0.0143019
697.828	0.0142786
697.906	0.0141618
697.985	0.0140910
698.063	0.0141426
698.141	0.0141092
698.219	0.0140975
698.297	0.0141327
698.375	0.0141273
698.453	0.0143355
698.531	0.0143298
698.610	0.0144078
698.688	0.0144642
698.766	0.0145772
698.844	0.0145925
698.922	0.0145020
699.000	0.0146139
699.078	0.0146832
699.156	0.0146920
699.235	0.0145685
699.313	0.0145869
699.391	0.0145619
699.469	0.0144892
699.547	0.0145200
699.625	0.0144901
699.703	0.0144732
699.781	0.0145186
699.860	0.0145035
699.938	0.0145653
700.016	0.0145275
700.094	0.0147331
700.172	0.0146815
700.250	0.0147369
700.328	0.0146931
700.406	0.0145905
700.485	0.0145571
700.563	0.0148172
700.641	0.0148135
700.719	0.0146416
700.797	0.0148008
700.875	0.0146535
700.953	0.0146932
701.031	0.0149110
701.110	0.0148636
701.188	0.0147598
701.266	0.0147151
701.344	0.0147414
701.422	0.0146735
701.500	0.0146867
701.578	0.0147871
701.656	0.0146967
701.735	0.0146842
701.813	0.0147091
701.891	0.0146458
701.969	0.0146574
702.047	0.0146380
702.125	0.0146342
702.203	0.0145975
702.281	0.0146899
702.360	0.0146725
702.438	0.0148038
702.516	0.0148740
702.594	0.0148251
702.672	0.0147208
702.750	0.0146354
702.828	0.0144550
702.906	0.0145332
702.985	0.0144646
703.063	0.0145329
703.141	0.0142104
703.219	0.0141520
703.297	0.0143622
703.375	0.0143481
703.453	0.0144925
703.531	0.0145229
703.610	0.0147386
703.688	0.0146980
703.766	0.0146204
703.844	0.0148016
703.922	0.0149368
704.000	0.0149065
704.078	0.0146939
704.156	0.0148483
704.235	0.0147216
704.313	0.0147640
704.391	0.0147769
704.469	0.0147759
704.547	0.0146667
704.625	0.0146684
704.703	0.0145467
704.781	0.0147092
704.860	0.0146262
704.938	0.0146989
705.016	0.0145724
705.094	0.0145506
705.172	0.0145718
705.250	0.0145842
705.328	0.0145730
705.406	0.0144827
705.485	0.0145583
705.563	0.0144021
705.641	0.0143018
705.719	0.0142666
705.797	0.0143415
705.875	0.0141730
705.953	0.0141993
706.031	0.0142210
706.110	0.0140489
706.188	0.0141747
706.266	0.0141467
706.344	0.0142281
706.422	0.0142816
706.500	0.0141135
706.578	0.0143088
706.656	0.0144150
706.735	0.0145210
706.813	0.0146133
706.891	0.0146541
706.969	0.0147888
707.047	0.0148249
707.125	0.0149874
707.203	0.0150648
707.281	0.0149921
707.360	0.0148966
707.438	0.0150383
707.516	0.0150008
707.594	0.0149651
707.672	0.0151106
707.750	0.0151139
707.828	0.0150582
707.906	0.0149426
707.985	0.0150085
708.063	0.0149235
708.141	0.0148507
708.219	0.0147987
708.297	0.0149800
708.375	0.0147615
708.453	0.0147708
708.531	0.0147796
708.610	0.0147857
708.688	0.0147332
708.766	0.0144878
708.844	0.0145014
708.922	0.0144950
709.000	0.0143806
709.078	0.0144447
709.156	0.0143722
709.235	0.0144771
709.313	0.0143537
709.391	0.0145169
709.469	0.0144716
709.547	0.0146480
709.625	0.0146673
709.703	0.0147842
709.781	0.0147137
709.860	0.0147816
709.938	0.0149974
710.016	0.0149226
710.094	0.0149796
710.172	0.0148726
710.250	0.0148183
710.328	0.0149251
710.406	0.0149285
710.485	0.0148325
710.563	0.0147716
710.641	0.0147796
710.719	0.0148379
710.797	0.0146889
710.875	0.0145750
710.953	0.0147207
711.031	0.0146410
711.110	0.0146606
711.188	0.0145814
711.266	0.0145445
711.344	0.0145754
711.422	0.0147475
711.500	0.0146669
711.578	0.0146456
711.656	0.0145315
711.735	0.0146895
711.813	0.0146859
711.891	0.0145789
711.969	0.0146195
712.047	0.0147977
712.125	0.0146815
712.203	0.0146674
712.281	0.0146849
712.360	0.0149356
712.438	0.0149505
712.516	0.0150710
712.594	0.0149015
712.672	0.0148775
712.750	0.0150434
712.828	0.0150698
712.906	0.0150534
712.985	0.0149339
713.063	0.0148988
713.141	0.0148289
713.219	0.0147205
713.297	0.0145482
713.375	0.0144807
713.453	0.0143633
713.531	0.0142329
713.610	0.0140709
713.688	0.0140040
713.766	0.0140223
713.844	0.0141064
713.922	0.0139836
714.000	0.0139771
714.078	0.0141393
714.156	0.0141796
714.235	0.0141672
714.313	0.0143212
714.391	0.0145063
714.469	0.0145651
714.547	0.0147141
714.625	0.0148003
714.703	0.0148417
714.781	0.0149568
714.860	0.0150985
714.938	0.0151279
715.016	0.0151920
715.094	0.0152909
715.172	0.0153187
715.250	0.0151640
715.328	0.0150352
715.406	0.0150616
715.485	0.0151736
715.563	0.0150144
715.641	0.0149762
715.719	0.0147364
715.797	0.0146530
715.875	0.0146835
715.953	0.0145033
716.031	0.0144431
716.110	0.0143301
716.188	0.0142972
716.266	0.0142738
716.344	0.0140657
716.422	0.0140995
716.500	0.0141907
716.578	0.0141157
716.656	0.0140857
716.735	0.0142260
716.813	0.0142396
716.891	0.0144244
716.969	0.0144917
717.047	0.0144975
717.125	0.0146779
717.203	0.0147414
717.281	0.0148876
717.360	0.0148633
717.438	0.0149564
717.516	0.0149003
717.594	0.0149868
717.672	0.0149650
717.750	0.0149438
717.828	0.0150047
717.906	0.0147617
717.985	0.0148757
718.063	0.0149133
718.141	0.0148080
718.219	0.0148707
718.297	0.0147396
718.375	0.0145572
718.453	0.0145605
718.531	0.0145578
718.610	0.0144811
718.688	0.0144009
718.766	0.0144176
718.844	0.0142749
718.922	0.0142283
719.000	0.0143959
719.078	0.0141489
719.156	0.0143529
719.235	0.0144859
719.313	0.0143893
719.391	0.0144598
719.469	0.0143513
719.547	0.0145135
719.625	0.0146645
719.703	0.0146673
719.781	0.0146557
719.860	0.0145773
719.938	0.0147241
720.016	0.0147288
720.094	0.0147534
720.172	0.0148249
720.250	0.0149729
720.328	0.0149928
720.406	0.0149364
720.485	0.0148344
720.563	0.0147474
720.641	0.0147227
720.719	0.0147032
720.797	0.0146479
720.875	0.0146184
720.953	0.0146622
721.031	0.0146965
721.110	0.0145090
721.188	0.0144095
721.266	0.0144414
721.344	0.0145656
721.422	0.0143807
721.500	0.0142789
721.578	0.0143752
721.656	0.0143834
721.735	0.0144896
721.813	0.0143468
721.891	0.0143710
721.969	0.0145371
722.047	0.0145722
722.125	0.0146156
722.203	0.0144680
722.281	0.0146821
722.360	0.0148016
722.438	0.0147173
722.516	0.0147173
722.594	0.0146577
722.672	0.0146826
722.750	0.0147211
722.828	0.0147083
722.906	0.0147646
722.985	0.0148320
723.063	0.0147007
723.141	0.0147408
723.219	0.0146352
723.297	0.0146581
723.375	0.0146146
723.453	0.0145972
723.531	0.0146783
723.610	0.0146938
723.688	0.0144640
723.766	0.0145012
723.844	0.0144864
723.922	0.0143906
724.000	0.0143053
724.078	0.0144503
724.156	0.0145621
724.235	0.0145114
724.313	0.0144477
724.391	0.0144563
724.469	0.0145493
724.547	0.0145485
724.625	0.0145750
724.703	0.0147511
724.781	0.0148033
724.860	0.0147203
724.938	0.0148481
725.016	0.0148050
725.094	0.0148790
725.172	0.0148180
725.250	0.0148747
725.328	0.0148251
725.406	0.0149696
725.485	0.0149514
725.563	0.0148702
725.641	0.0147352
725.719	0.0148080
725.797	0.0147099
725.875	0.0147262
725.953	0.0146259
726.031	0.0145621
726.110	0.0147169
726.188	0.0146956
726.266	0.0145780
726.344	0.0146571
726.422	0.0145936
726.500	0.0145400
726.578	0.0147984
726.656	0.0145960
726.735	0.0146274
726.813	0.0146750
726.891	0.0146292
726.969	0.0147357
727.047	0.0146127
727.125	0.0146857
727.203	0.0146877
727.281	0.0147698
727.360	0.0148186
727.438	0.0146133
727.516	0.0147500
727.594	0.0148237
727.672	0.0149880
727.750	0.0149062
727.828	0.0148922
727.906	0.0149144
727.985	0.0149632
728.063	0.0147917
728.141	0.0149554
728.219	0.0148983
728.297	0.0149471
728.375	0.0147342
728.453	0.0147593
728.531	0.0148607
728.610	0.0147785
728.688	0.0148270
728.766	0.0147282
728.844	0.0146274
728.922	0.0146494
729.000	0.0147044
729.078	0.0145801
729.156	0.0146319
729.235	0.0145886
729.313	0.0145096
729.391	0.0145782
729.469	0.0146815
729.547	0.0146210
729.625	0.0146323
729.703	0.0145840
729.781	0.0146242
729.860	0.0147920
729.938	0.0147356
730.016	0.0148318
730.094	0.0146950
730.172	0.0147495
730.250	0.0147377
730.328	0.0146846
730.406	0.0147688
730.485	0.0146370
730.563	0.0149329
730.641	0.0146644
730.719	0.0146176
730.797	0.0146684
730.875	0.0148103
730.953	0.0146301
731.031	0.0146381
731.110	0.0145287
731.188	0.0145394
731.266	0.0145019
731.344	0.0144543
731.422	0.0144987
731.500	0.0146497
731.578	0.0144955
731.656	0.0146635
731.735	0.0146796
731.813	0.0147102
731.891	0.0147484
731.969	0.0147655
732.047	0.0147353
732.125	0.0148032
732.203	0.0149430
732.281	0.0148185
732.360	0.0148531
732.438	0.0148199
732.516	0.0147465
732.594	0.0148159
732.672	0.0147688
732.750	0.0147368
732.828	0.0147802
732.906	0.0147450
732.985	0.0148058
733.063	0.0146574
733.141	0.0146911
733.219	0.0147102
733.297	0.0145887
733.375	0.0144897
733.453	0.0146423
733.531	0.0146493
733.610	0.0147569
733.688	0.0146751
733.766	0.0146477
733.844	0.0146270
733.922	0.0146928
734.000	0.0144411
734.078	0.0143848
734.156	0.0146210
734.235	0.0146417
734.313	0.0145019
734.391	0.0145596
734.469	0.0146219
734.547	0.0146378
734.625	0.0145950
734.703	0.0147281
734.781	0.0146055
734.860	0.0144911
734.938	0.0147409
735.016	0.0146365
735.094	0.0147260
735.172	0.0147131
735.250	0.0146652
735.328	0.0147456
735.406	0.0148065
735.485	0.0147251
735.563	0.0147201
735.641	0.0148939
735.719	0.0149796
735.797	0.0149963
735.875	0.0147763
735.953	0.0148487
736.031	0.0146589
736.110	0.0146769
736.188	0.0147050
736.266	0.0146394
736.344	0.0147796
736.422	0.0145857
736.500	0.0146736
736.578	0.0145591
736.656	0.0146750
736.735	0.0146966
736.813	0.0145834
736.891	0.0145654
736.969	0.0145391
737.047	0.0147597
737.125	0.0145627
737.203	0.0146158
737.281	0.0146878
737.360	0.0146370
737.438	0.0146299
737.516	0.0146504
737.594	0.0147556
737.672	0.0147065
737.750	0.0146499
737.828	0.0146803
737.906	0.0147388
737.985	0.0147358
738.063	0.0146570
738.141	0.0146438
738.219	0.0146201
738.297	0.0146786
738.375	0.0145081
738.453	0.0146296
738.531	0.0147057
738.610	0.0146288
738.688	0.0145769
738.766	0.0146442
738.844	0.0145895
738.922	0.0145251
739.000	0.0146318
739.078	0.0147195
739.156	0.0147443
739.235	0.0146867
739.313	0.0147070
739.391	0.0146638
739.469	0.0147888
739.547	0.0147773
739.625	0.0148699
739.703	0.0145772
739.781	0.0146949
739.860	0.0147478
739.938	0.0147694
740.016	0.0146864
740.094	0.0146102
740.172	0.0146727
740.250	0.0147604
740.328	0.0146970
740.406	0.0146705
740.485	0.0146425
740.563	0.0147763
740.641	0.0148348
740.719	0.0147384
740.797	0.0147912
740.875	0.0146569
740.953	0.0147594
741.031	0.0148193
741.110	0.0147879
741.188	0.0147487
741.266	0.0146190
741.344	0.0146970
741.422	0.0145347
741.500	0.0146803
741.578	0.0146281
741.656	0.0146374
741.735	0.0145068
741.813	0.0145750
741.891	0.0145900
741.969	0.0145870
742.047	0.0144994
742.125	0.0146571
742.203	0.0147491
742.281	0.0146311
742.360	0.0146951
742.438	0.0147505
742.516	0.0146639
742.594	0.0148605
742.672	0.0146249
742.750	0.0147279
742.828	0.0148224
742.906	0.0146811
742.985	0.0147808
743.063	0.0147754
743.141	0.0147508
743.219	0.0148197
743.297	0.0147366
743.375	0.0148059
743.453	0.0146727
743.531	0.0146335
743.610	0.0146862
743.688	0.0146301
743.766	0.0146757
743.844	0.0146721
743.922	0.0145768
744.000	0.0147102
744.078	0.0146458
744.156	0.0147236
744.235	0.0146102
744.313	0.0146229
744.391	0.0146345
744.469	0.0145238
744.547	0.0147110
744.625	0.0146334
744.703	0.0146172
744.781	0.0146967
744.860	0.0147124
744.938	0.0146939
745.016	0.0146144
745.094	0.0146783
745.172	0.0147386
745.250	0.0148588
745.328	0.0147861
745.406	0.0146965
745.485	0.0147047
745.563	0.0147014
745.641	0.0147395
745.719	0.0146659
745.797	0.0147449
745.875	0.0147031
745.953	0.0147836
746.031	0.0145560
746.110	0.0145959
746.188	0.0146764
746.266	0.0145736
746.344	0.0147150
746.422	0.0147083
746.500	0.0146476
746.578	0.0146835
746.656	0.0147642
746.735	0.0145979
746.813	0.0146782
746.891	0.0146143
746.969	0.0146295
747.047	0.0148237
747.125	0.0147979
747.203	0.0147609
747.281	0.0147125
747.360	0.0147641
747.438	0.0146798
747.516	0.0145559
747.594	0.0147392
747.672	0.0148031
747.750	0.0147205
747.828	0.0146706
747.906	0.0147733
747.985	0.0147239
748.063	0.0148079
748.141	0.0147060
748.219	0.0147395
748.297	0.0146539
748.375	0.0147219
748.453	0.0146551
748.531	0.0146501
748.610	0.0146446
748.688	0.0147247
748.766	0.0145921
748.844	0.0146515
748.922	0.0146304
749.000	0.0146242
749.078	0.0146346
749.156	0.0146465
749.235	0.0145589
749.313	0.0146776
749.391	0.0147778
749.469	0.0144108
749.547	0.0146475
749.625	0.0145903
749.703	0.0145763
749.781	0.0145348
749.860	0.0145280
749.938	0.0145792
750.016	0.0147642
750.094	0.0146230
750.172	0.0146466
750.250	0.0147501
750.328	0.0146574
750.406	0.0146536
750.485	0.0146877
750.563	0.0146760
750.641	0.0146611
750.719	0.0147076
750.797	0.0148219
750.875	0.0148552
750.953	0.0147179
751.031	0.0147069
751.110	0.0146979
751.188	0.0147124
751.266	0.0146359
751.344	0.0146678
751.422	0.0146927
751.500	0.0146881
751.578	0.0145107
751.656	0.0145186
751.735	0.0146305
751.813	0.0146210
751.891	0.0145401
751.969	0.0146677
752.047	0.0146945
752.125	0.0145299
752.203	0.0145313
752.281	0.0145499
752.360	0.0145739
752.438	0.0147266
752.516	0.0145097
752.594	0.0146538
752.672	0.0145633
752.750	0.0146447
752.828	0.0146648
752.906	0.0147182
752.985	0.0146816
753.063	0.0145801
753.141	0.0146868
753.219	0.0147559
753.297	0.0146381
753.375	0.0145921
753.453	0.0148395
753.531	0.0147615
753.610	0.0147002
753.688	0.0147031
753.766	0.0147368
753.844	0.0146308
753.922	0.0146232
754.000	0.0144930
754.078	0.0147072
754.156	0.0146316
754.235	0.0146587
754.313	0.0145819
754.391	0.0146832
754.469	0.0145168
754.547	0.0146194
754.625	0.0146371
754.703	0.0146780
754.781	0.0145211
754.860	0.0147204
754.938	0.0145404
755.016	0.0146079
755.094	0.0146590
755.172	0.0146690
755.250	0.0144685
755.328	0.0146945
755.406	0.0147320
755.485	0.0146109
755.563	0.0146922
755.641	0.0147287
755.719	0.0146612
755.797	0.0146326
755.875	0.0147057
755.953	0.0146667
756.031	0.0145654
756.110	0.0146053
756.188	0.0148075
756.266	0.0147546
756.344	0.0145960
756.422	0.0145597
756.500	0.0145566
756.578	0.0145603
756.656	0.0146300
756.735	0.0146050
756.813	0.0146156
756.891	0.0144417
756.969	0.0145118
757.047	0.0144814
757.125	0.0144894
757.203	0.0143924
757.281	0.0144554
757.360	0.0144880
757.438	0.0143799
757.516	0.0143741
757.594	0.0145798
757.672	0.0143646
757.750	0.0143299
757.828	0.0146545
757.906	0.0145267
757.985	0.0145057
758.063	0.0144799
758.141	0.0146493
758.219	0.0144789
758.297	0.0146027
758.375	0.0146954
758.453	0.0146406
758.531	0.0144794
758.610	0.0145279
758.688	0.0145292
758.766	0.0146516
758.844	0.0145184
758.922	0.0145288
759.000	0.0145245
759.078	0.0145878
759.156	0.0147077
759.235	0.0145605
759.313	0.0145152
759.391	0.0144621
759.469	0.0145599
759.547	0.0145443
759.625	0.0145822
759.703	0.0146277
759.781	0.0145104
759.860	0.0146154
759.938	0.0145918
760.016	0.0144701
760.094	0.0145598
760.172	0.0145947
760.250	0.0146812
760.328	0.0145988
760.406	0.0147091
760.485	0.0146383
760.563	0.0147857
760.641	0.0147179
760.719	0.0146488
760.797	0.0147507
760.875	0.0148043
760.953	0.0146770
761.031	0.0147941
761.110	0.0146616
761.188	0.0147128
761.266	0.0146861
761.344	0.0147059
761.422	0.0147097
761.500	0.0145962
761.578	0.0145641
761.656	0.0147750
761.735	0.0146378
761.813	0.0145839
761.891	0.0146716
761.969	0.0146838
762.047	0.0147007
762.125	0.0146336
762.203	0.0146564
762.281	0.0147093
762.360	0.0146986
762.438	0.0145843
762.516	0.0147741
762.594	0.0147297
762.672	0.0147623
762.750	0.0147651
762.828	0.0146043
762.906	0.0147717
762.985	0.0147437
763.063	0.0147312
763.141	0.0147229
763.219	0.0147962
763.297	0.0146577
763.375	0.0146738
763.453	0.0146872
763.531	0.0147955
763.610	0.0147833
763.688	0.0146354
763.766	0.0147744
763.844	0.0148604
763.922	0.0147147
764.000	0.0146986
764.078	0.0148412
764.156	0.0147203
764.235	0.0146758
764.313	0.0146680
764.391	0.0146651
764.469	0.0147076
764.547	0.0146394
764.625	0.0146734
764.703	0.0145687
764.781	0.0147469
764.860	0.0146362
764.938	0.0146503
765.016	0.0147005
765.094	0.0145115
765.172	0.0144882
765.250	0.0145561
765.328	0.0145749
765.406	0.0144966
765.485	0.0146310
765.563	0.0146370
765.641	0.0146016
765.719	0.0145763
765.797	0.0144958
765.875	0.0145358
765.953	0.0146795
766.031	0.0146853
766.110	0.0145747
766.188	0.0145007
766.266	0.0145303
766.344	0.0145106
766.422	0.0146688
766.500	0.0146154
766.578	0.0146564
766.656	0.0146109
766.735	0.0145918
766.813	0.0148283
766.891	0.0146784
766.969	0.0146409
767.047	0.0146248
767.125	0.0147556
767.203	0.0147522
767.281	0.0145071
767.360	0.0146339
767.438	0.0147765
767.516	0.0145689
767.594	0.0145537
767.672	0.0144650
767.750	0.0146328
767.828	0.0147252
767.906	0.0147151
767.985	0.0145818
768.063	0.0145853
768.141	0.0147155
768.219	0.0147738
768.297	0.0146213
768.375	0.0146179
768.453	0.0147006
768.531	0.0147516
768.610	0.0146372
768.688	0.0146510
768.766	0.0146259
768.844	0.0147189
768.922	0.0147575
769.000	0.0145716
769.078	0.0144849
769.156	0.0146511
769.235	0.0145135
769.313	0.0146066
769.391	0.0146693
769.469	0.0147218
769.547	0.0147171
769.625	0.0145074
769.703	0.0145100
769.781	0.0145444
769.860	0.0146330
769.938	0.0145872
770.016	0.0146200
770.094	0.0146857
770.172	0.0146717
770.250	0.0144327
770.328	0.0145667
770.406	0.0146397
770.485	0.0146201
770.563	0.0144936
770.641	0.0147385
770.719	0.0145517
770.797	0.0144946
770.875	0.0146416
770.953	0.0146671
771.031	0.0145892
771.110	0.0145707
771.188	0.0146567
771.266	0.0145502
771.344	0.0147731
771.422	0.0145570
771.500	0.0147508
771.578	0.0148296
771.656	0.0145788
771.735	0.0147732
771.813	0.0146737
771.891	0.0147456
771.969	0.0146394
772.047	0.0145525
772.125	0.0145741
772.203	0.0146057
772.281	0.0146827
772.360	0.0146848
772.438	0.0145139
772.516	0.0146352
772.594	0.0144965
772.672	0.0145510
772.750	0.0148008
772.828	0.0146349
772.906	0.0146474
772.985	0.0146615
773.063	0.0145464
773.141	0.0145658
773.219	0.0145702
773.297	0.0146821
773.375	0.0146674
773.453	0.0146511
773.531	0.0145795
773.610	0.0146049
773.688	0.0145558
773.766	0.0145583
773.844	0.0146332
773.922	0.0146307
774.000	0.0145066
774.078	0.0146055
774.156	0.0146831
774.235	0.0146171
774.313	0.0146803
774.391	0.0146402
774.469	0.0146641
774.547	0.0145978
774.625	0.0145799
774.703	0.0145717
774.781	0.0146764
774.860	0.0145852
774.938	0.0146415
775.016	0.0145880
775.094	0.0145686
775.172	0.0146809
775.250	0.0144579
775.328	0.0144482
775.406	0.0145440
775.485	0.0145296
775.563	0.0145950
775.641	0.0145747
775.719	0.0145869
775.797	0.0145642
775.875	0.0146227
775.953	0.0146537
776.031	0.0145674
776.110	0.0146708
776.188	0.0146186
776.266	0.0145997
776.344	0.0146270
776.422	0.0146826
776.500	0.0146855
776.578	0.0146588
776.656	0.0144612
776.735	0.0145579
776.813	0.0145507
776.891	0.0145699
776.969	0.0145315
777.047	0.0145961
777.125	0.0145746
777.203	0.0144405
777.281	0.0144724
777.360	0.0145511
777.438	0.0145017
777.516	0.0144859
777.594	0.0145811
777.672	0.0144244
777.750	0.0145470
777.828	0.0146586
777.906	0.0145181
777.985	0.0146359
778.063	0.0145277
778.141	0.0145065
778.219	0.0145053
778.297	0.0144908
778.375	0.0144279
778.453	0.0144922
778.531	0.0144377
778.610	0.0145107
778.688	0.0144984
778.766	0.0145510
778.844	0.0145995
778.922	0.0146584
779.000	0.0145294
779.078	0.0145859
779.156	0.0146152
779.235	0.0147822
779.313	0.0145869
779.391	0.0144991
779.469	0.0147445
779.547	0.0145474
779.625	0.0147025
779.703	0.0145592
779.781	0.0146125
779.860	0.0146232
779.938	0.0145560
780.016	0.0145360
780.094	0.0147387
780.172	0.0147242
780.250	0.0147205
780.328	0.0146913
780.406	0.0146148
780.485	0.0145639
780.563	0.0145586
780.641	0.0147275
780.719	0.0147394
780.797	0.0147479
780.875	0.0145935
780.953	0.0146670
781.031	0.0145731
781.110	0.0145995
781.188	0.0147077
781.266	0.0147563
781.344	0.0148032
781.422	0.0146179
781.500	0.0145938
781.578	0.0146622
781.656	0.0146476
781.735	0.0146193
781.813	0.0146178
781.891	0.0146573
781.969	0.0147335
782.047	0.0146548
782.125	0.0146542
782.203	0.0145750
782.281	0.0146536
782.360	0.0148037
782.438	0.0145498
782.516	0.0146309
782.594	0.0145103
782.672	0.0147071
782.750	0.0146255
782.828	0.0146954
782.906	0.0147197
782.985	0.0145024
783.063	0.0147202
783.141	0.0146037
783.219	0.0145625
783.297	0.0146964
783.375	0.0146740
783.453	0.0145396
783.531	0.0146284
783.610	0.0145309
783.688	0.0145125
783.766	0.0145324
783.844	0.0145746
783.922	0.0145699
784.000	0.0146254
784.078	0.0145952
784.156	0.0146362
784.235	0.0145447
784.313	0.0147929
784.391	0.0144772
784.469	0.0146333
784.547	0.0144508
784.625	0.0145924
784.703	0.0146464
784.781	0.0146291
784.860	0.0147450
784.938	0.0147643
785.016	0.0146924
785.094	0.0146713
785.172	0.0147286
785.250	0.0147110
785.328	0.0147223
785.406	0.0146551
785.485	0.0148196
785.563	0.0147141
785.641	0.0146243
785.719	0.0146291
785.797	0.0147417
785.875	0.0145734
785.953	0.0145748
786.031	0.0146960
786.110	0.0145750
786.188	0.0146468
786.266	0.0146869
786.344	0.0147647
786.422	0.0145058
786.500	0.0145858
786.578	0.0146986
786.656	0.0145426
786.735	0.0145064
786.813	0.0146564
786.891	0.0145897
786.969	0.0146741
787.047	0.0147109
787.125	0.0146224
787.203	0.0145248
787.281	0.0145359
787.360	0.0145535
787.438	0.0145347
787.516	0.0147297
787.594	0.0147739
787.672	0.0145608
787.750	0.0145621
787.828	0.0145689
787.906	0.0145605
787.985	0.0145218
788.063	0.0146961
788.141	0.0145568
788.219	0.0145158
788.297	0.0145551
788.375	0.0146784
788.453	0.0145674
788.531	0.0146765
788.610	0.0145454
788.688	0.0145532
788.766	0.0146493
788.844	0.0146390
788.922	0.0146086
789.000	0.0144891
789.078	0.0144709
789.156	0.0146481
789.235	0.0145766
789.313	0.0145544
789.391	0.0144655
789.469	0.0144540
789.547	0.0145360
789.625	0.0145216
789.703	0.0146111
789.781	0.0145628
789.860	0.0145940
789.938	0.0145570
790.016	0.0144841
790.094	0.0144033
790.172	0.0145177
790.250	0.0146349
790.328	0.0146014
790.406	0.0145815
790.485	0.0145683
790.563	0.0146170
790.641	0.0145306
790.719	0.0144438
790.797	0.0145023
790.875	0.0145618
790.953	0.0145659
791.031	0.0144241
791.110	0.0145175
791.188	0.0145004
791.266	0.0144905
791.344	0.0145594
791.422	0.0145188
791.500	0.0145348
791.578	0.0145194
791.656	0.0145136
791.735	0.0146732
791.813	0.0145042
791.891	0.0146397
791.969	0.0146703
792.047	0.0147352
792.125	0.0146178
792.203	0.0145972
792.281	0.0146663
792.360	0.0147141
792.438	0.0146583
792.516	0.0145841
792.594	0.0144653
792.672	0.0146481
792.750	0.0146418
792.828	0.0145994
792.906	0.0146572
792.985	0.0146078
793.063	0.0145533
793.141	0.0145772
793.219	0.0147128
793.297	0.0145602
793.375	0.0144422
793.453	0.0146598
793.531	0.0145940
793.610	0.0146470
793.688	0.0145650
793.766	0.0146216
793.844	0.0145385
793.922	0.0144322
794.000	0.0145850
794.078	0.0146278
794.156	0.0147166
794.235	0.0146101
794.313	0.0146684
794.391	0.0145601
794.469	0.0148000
794.547	0.0146460
794.625	0.0147855
794.703	0.0147861
794.781	0.0146478
794.860	0.0147369
794.938	0.0149065
795.016	0.0147870
795.094	0.0148492
795.172	0.0148058
795.250	0.0148096
795.328	0.0148195
795.406	0.0148300
795.485	0.0146768
795.563	0.0147552
795.641	0.0148087
795.719	0.0146652
795.797	0.0148123
795.875	0.0147060
795.953	0.0147341
796.031	0.0147057
796.110	0.0146513
796.188	0.0146796
796.266	0.0147662
796.344	0.0147665
796.422	0.0146602
796.500	0.0146764
796.578	0.0146597
796.656	0.0145740
796.735	0.0146848
796.813	0.0146082
796.891	0.0146030
796.969	0.0146967
797.047	0.0145685
797.125	0.0145161
797.203	0.0146283
797.281	0.0146423
797.360	0.0147741
797.438	0.0145863
797.516	0.0145302
797.594	0.0146927
797.672	0.0147372
797.750	0.0146800
797.828	0.0145924
797.906	0.0143628
797.985	0.0145451
798.063	0.0144917
798.141	0.0145241
798.219	0.0146284
798.297	0.0145696
798.375	0.0144797
798.453	0.0145155
798.531	0.0145538
798.610	0.0144425
798.688	0.0145280
798.766	0.0145916
798.844	0.0145821
798.922	0.0146195
799.000	0.0145937
799.078	0.0145435
799.156	0.0144138
799.235	0.0145502
799.313	0.0146174
799.391	0.0146124
799.469	0.0146452
799.547	0.0145402
799.625	0.0145277
799.703	0.0145910
799.781	0.0145680
799.860	0.0146166
799.938	0.0147840
800.016	0.0146360
800.094	0.0146871
800.172	0.0148328
800.250	0.0146712
800.328	0.0147192
800.406	0.0148914
800.485	0.0147684
800.563	0.0146157
800.641	0.0146706
800.719	0.0146753
800.797	0.0147653
800.875	0.0148606
800.953	0.0148397
801.031	0.0147349
801.110	0.0146423
801.188	0.0147358
801.266	0.0147513
801.344	0.0145583
801.422	0.0147468
801.500	0.0147112
801.578	0.0146580
801.656	0.0145687
801.735	0.0147183
801.813	0.0147391
801.891	0.0148671
801.969	0.0146943
802.047	0.0146345
802.125	0.0147586
802.203	0.0146945
802.281	0.0146387
802.360	0.0147434
802.438	0.0145804
802.516	0.0146799
802.594	0.0146619
802.672	0.0146891
802.750	0.0147283
802.828	0.0146511
802.906	0.0146046
802.985	0.0146843
803.063	0.0145583
803.141	0.0146848
803.219	0.0147289
803.297	0.0145821
803.375	0.0146288
803.453	0.0146384
803.531	0.0146174
803.610	0.0147427
803.688	0.0147583
803.766	0.0148088
803.844	0.0147061
803.922	0.0147089
804.000	0.0147452
804.078	0.0146716
804.156	0.0146970
804.235	0.0146043
804.313	0.0146413
804.391	0.0146625
804.469	0.0145765
804.547	0.0144556
804.625	0.0147162
804.703	0.0145477
804.781	0.0146678
804.860	0.0144756
804.938	0.0146145
805.016	0.0145762
805.094	0.0144905
805.172	0.0145467
805.250	0.0146347
805.328	0.0145163
805.406	0.0146969
805.485	0.0146471
805.563	0.0145821
805.641	0.0148067
805.719	0.0146810
805.797	0.0146920
805.875	0.0146782
805.953	0.0146698
806.031	0.0146906
806.110	0.0146668
806.188	0.0146172
806.266	0.0147416
806.344	0.0146485
806.422	0.0146057
806.500	0.0147156
806.578	0.0147997
806.656	0.0145227
806.735	0.0147701
806.813	0.0146055
806.891	0.0146498
806.969	0.0146588
807.047	0.0147527
807.125	0.0146640
807.203	0.0146497
807.281	0.0146603
807.360	0.0146306
807.438	0.0146041
807.516	0.0145570
807.594	0.0146868
807.672	0.0146173
807.750	0.0144735
807.828	0.0146368
807.906	0.0147743
807.985	0.0146609
808.063	0.0148254
808.141	0.0147050
808.219	0.0146319
808.297	0.0145473
808.375	0.0145539
808.453	0.0146793
808.531	0.0148219
808.610	0.0147269
808.688	0.0147306
808.766	0.0148086
808.844	0.0145562
808.922	0.0147875
809.000	0.0146863
809.078	0.0147184
809.156	0.0146858
809.235	0.0147726
809.313	0.0147866
809.391	0.0146844
809.469	0.0147278
809.547	0.0146284
809.625	0.0146008
809.703	0.0147190
809.781	0.0148429
809.860	0.0146741
809.938	0.0148188
810.016	0.0147531
810.094	0.0147440
810.172	0.0147295
810.250	0.0146188
810.328	0.0146194
810.406	0.0145362
810.485	0.0145260
810.563	0.0145942
810.641	0.0146492
810.719	0.0146827
810.797	0.0145480
810.875	0.0147076
810.953	0.0146346
811.031	0.0146366
811.110	0.0147006
811.188	0.0146696
811.266	0.0146281
811.344	0.0147589
811.422	0.0148170
811.500	0.0147845
811.578	0.0147398
811.656	0.0147372
811.735	0.0145412
811.813	0.0145856
811.891	0.0148588
811.969	0.0147301
812.047	0.0147016
812.125	0.0146530
812.203	0.0146076
812.281	0.0145720
812.360	0.0145516
812.438	0.0144858
812.516	0.0147012
812.594	0.0145956
812.672	0.0146175
812.750	0.0146211
812.828	0.0147385
812.906	0.0145281
812.985	0.0146387
813.063	0.0146517
813.141	0.0146800
813.219	0.0146857
813.297	0.0145512
813.375	0.0147162
813.453	0.0147250
813.531	0.0147659
813.610	0.0146964
813.688	0.0148270
813.766	0.0149052
813.844	0.0147003
813.922	0.0147506
814.000	0.0147279
814.078	0.0147092
814.156	0.0146569
814.235	0.0147189
814.313	0.0145689
814.391	0.0146947
814.469	0.0146021
814.547	0.0146918
814.625	0.0147688
814.703	0.0146392
814.781	0.0144956
814.860	0.0147770
814.938	0.0146680
815.016	0.0146669
815.094	0.0146931
815.172	0.0147219
815.250	0.0145664
815.328	0.0145885
815.406	0.0146903
815.485	0.0146657
815.563	0.0145940
815.641	0.0145649
815.719	0.0147184
815.797	0.0146738
815.875	0.0147559
815.953	0.0146130
816.031	0.0146955
816.110	0.0147892
816.188	0.0146225
816.266	0.0147769
816.344	0.0146208
816.422	0.0146285
816.500	0.0147495
816.578	0.0146934
816.656	0.0147128
816.735	0.0148522
816.813	0.0146506
816.891	0.0147080
816.969	0.0146513
817.047	0.0146861
817.125	0.0146231
817.203	0.0145382
817.281	0.0147072
817.360	0.0146113
817.438	0.0148022
817.516	0.0144692
817.594	0.0145142
817.672	0.0146887
817.750	0.0145453
817.828	0.0146505
817.906	0.0146004
817.985	0.0145819
818.063	0.0145470
818.141	0.0144593
818.219	0.0145258
818.297	0.0146848
818.375	0.0145724
818.453	0.0146064
818.531	0.0147279
818.610	0.0145253
818.688	0.0145869
818.766	0.0146237
818.844	0.0148407
818.922	0.0147583
819.000	0.0145584
819.078	0.0147102
819.156	0.0146186
819.235	0.0146552
819.313	0.0146219
819.391	0.0145924
819.469	0.0146511
819.547	0.0147886
819.625	0.0146507
819.703	0.0145602
819.781	0.0147688
819.860	0.0146712
819.938	0.0146902
820.016	0.0146397
820.094	0.0146545
820.172	0.0146455
820.250	0.0146642
820.328	0.0146781
820.406	0.0145409
820.485	0.0146520
820.563	0.0147585
820.641	0.0147404
820.719	0.0147043
820.797	0.0146136
820.875	0.0145599
820.953	0.0147218
821.031	0.0147069
821.110	0.0145689
821.188	0.0146675
821.266	0.0145872
821.344	0.0145915
821.422	0.0147490
821.500	0.0146516
821.578	0.0146010
821.656	0.0147573
821.735	0.0146970
821.813	0.0146630
821.891	0.0146126
821.969	0.0147834
822.047	0.0146926
822.125	0.0144383
822.203	0.0145982
822.281	0.0146066
822.360	0.0145232
822.438	0.0145437
822.516	0.0146105
822.594	0.0146531
822.672	0.0145076
822.750	0.0144568
822.828	0.0146107
822.906	0.0147115
822.985	0.0145565
823.063	0.0145138
823.141	0.0146025
823.219	0.0146970
823.297	0.0144546
823.375	0.0146622
823.453	0.0144896
823.531	0.0146447
823.610	0.0146950
823.688	0.0147173
823.766	0.0146687
823.844	0.0144792
823.922	0.0146709
824.000	0.0146183
824.078	0.0145436
824.156	0.0145713
824.235	0.0146829
824.313	0.0146259
824.391	0.0146510
824.469	0.0146849
824.547	0.0145242
824.625	0.0145952
824.703	0.0146062
824.781	0.0146786
824.860	0.0147321
824.938	0.0147063
825.016	0.0145889
825.094	0.0146632
825.172	0.0146838
825.250	0.0145586
825.328	0.0145320
825.406	0.0146681
825.485	0.0146541
825.563	0.0146620
825.641	0.0146022
825.719	0.0146736
825.797	0.0146925
825.875	0.0145589
825.953	0.0146291
826.031	0.0144993
826.110	0.0145331
826.188	0.0145736
826.266	0.0146771
826.344	0.0146228
826.422	0.0146528
826.500	0.0146455
826.578	0.0146347
826.656	0.0146488
826.735	0.0145306
826.813	0.0147610
826.891	0.0147811
826.969	0.0146542
827.047	0.0146343
827.125	0.0147440
827.203	0.0147769
827.281	0.0146759
827.360	0.0147425
827.438	0.0148374
827.516	0.0146052
827.594	0.0147186
827.672	0.0147446
827.750	0.0148246
827.828	0.0147382
827.906	0.0146554
827.985	0.0148093
828.063	0.0145564
828.141	0.0145010
828.219	0.0147189
828.297	0.0148737
828.375	0.0146915
828.453	0.0146157
828.531	0.0146750
828.610	0.0149062
828.688	0.0146182
828.766	0.0147856
828.844	0.0146526
828.922	0.0147571
829.000	0.0148385
829.078	0.0146941
829.156	0.0146758
829.235	0.0147067
829.313	0.0146825
829.391	0.0147878
829.469	0.0146030
829.547	0.0148683
829.625	0.0147551
829.703	0.0147108
829.781	0.0146696
829.860	0.0147079
829.938	0.0146758
830.016	0.0147882
830.094	0.0149254
830.172	0.0147147
830.250	0.0147687
830.328	0.0147847
830.406	0.0147343
830.485	0.0148547
830.563	0.0149050
830.641	0.0148824
830.719	0.0148688
830.797	0.0149248
830.875	0.0147762
830.953	0.0147198
831.031	0.0146879
831.110	0.0148648
831.188	0.0148209
831.266	0.0147789
831.344	0.0148276
831.422	0.0147037
831.500	0.0146544
831.578	0.0146434
831.656	0.0149261
831.735	0.0147369
831.813	0.0146873
831.891	0.0147197
831.969	0.0147926
832.047	0.0145989
832.125	0.0146012
832.203	0.0145986
832.281	0.0148141
832.360	0.0147427
832.438	0.0146645
832.516	0.0147226
832.594	0.0146967
832.672	0.0147219
832.750	0.0146057
832.828	0.0146161
832.906	0.0146848
832.985	0.0146828
833.063	0.0144621
833.141	0.0146131
833.219	0.0145108
833.297	0.0145065
833.375	0.0144998
833.453	0.0145113
833.531	0.0143943
833.610	0.0144836
833.688	0.0146630
833.766	0.0145465
833.844	0.0145876
833.922	0.0145083
834.000	0.0144585
834.078	0.0146370
834.156	0.0145898
834.235	0.0145708
834.313	0.0146277
834.391	0.0145863
834.469	0.0146541
834.547	0.0146005
834.625	0.0146431
834.703	0.0145233
834.781	0.0146219
834.860	0.0146027
834.938	0.0145686
835.016	0.0145538
835.094	0.0145882
835.172	0.0145822
835.250	0.0144614
835.328	0.0145110
835.406	0.0146584
835.485	0.0145158
835.563	0.0145308
835.641	0.0145588
835.719	0.0147044
835.797	0.0145837
835.875	0.0145053
835.953	0.0145790
836.031	0.0143304
836.110	0.0145153
836.188	0.0145782
836.266	0.0144625
836.344	0.0145324
836.422	0.0145383
836.500	0.0146333
836.578	0.0146669
836.656	0.0146788
836.735	0.0146066
836.813	0.0146466
836.891	0.0146455
836.969	0.0144757
837.047	0.0145155
837.125	0.0145914
837.203	0.0147311
837.281	0.0146616
837.360	0.0147244
837.438	0.0146945
837.516	0.0146336
837.594	0.0146505
837.672	0.0146164
837.750	0.0145779
837.828	0.0147956
837.906	0.0147131
837.985	0.0146237
838.063	0.0147680
838.141	0.0147630
838.219	0.0147065
838.297	0.0148307
838.375	0.0145934
838.453	0.0146999
838.531	0.0147791
838.610	0.0146889
838.688	0.0146810
838.766	0.0146542
838.844	0.0148626
838.922	0.0147363
839.000	0.0146675
839.078	0.0147615
839.156	0.0147038
839.235	0.0146375
839.313	0.0146975
839.391	0.0148146
839.469	0.0146124
839.547	0.0147425
839.625	0.0147455
839.703	0.0146877
839.781	0.0146691
839.860	0.0147121
839.938	0.0145358
840.016	0.0146748
840.094	0.0147363
840.172	0.0146381
840.250	0.0146202
840.328	0.0146739
840.406	0.0147520
840.485	0.0147337
840.563	0.0147901
840.641	0.0146862
840.719	0.0145946
840.797	0.0146099
840.875	0.0147263
840.953	0.0145706
841.031	0.0146218
841.110	0.0145824
841.188	0.0147572
841.266	0.0146381
841.344	0.0147308
841.422	0.0145795
841.500	0.0145972
841.578	0.0145844
841.656	0.0146115
841.735	0.0145789
841.813	0.0145468
841.891	0.0145763
841.969	0.0146566
842.047	0.0146954
842.125	0.0146729
842.203	0.0145316
842.281	0.0145114
842.360	0.0145173
842.438	0.0145750
842.516	0.0146814
842.594	0.0146310
842.672	0.0146019
842.750	0.0144741
842.828	0.0145132
842.906	0.0145993
842.985	0.0147034
843.063	0.0146255
843.141	0.0145276
843.219	0.0145480
843.297	0.0145644
843.375	0.0144360
843.453	0.0145446
843.531	0.0144722
843.610	0.0145120
843.688	0.0145041
843.766	0.0145959
843.844	0.0146047
843.922	0.0144246
844.000	0.0144434
844.078	0.0143002
844.156	0.0145613
844.235	0.0145308
844.313	0.0143721
844.391	0.0144592
844.469	0.0143637
844.547	0.0146033
844.625	0.0146402
844.703	0.0145377
844.781	0.0143929
844.860	0.0144189
844.938	0.0145283
845.016	0.0144899
845.094	0.0144571
845.172	0.0146264
845.250	0.0146587
845.328	0.0146307
845.406	0.0144920
845.485	0.0143970
845.563	0.0146081
845.641	0.0146329
845.719	0.0145963
845.797	0.0144839
845.875	0.0146163
845.953	0.0146792
846.031	0.0145972
846.110	0.0144875
846.188	0.0144315
846.266	0.0146869
846.344	0.0146545
846.422	0.0145200
846.500	0.0146579
846.578	0.0145449
846.656	0.0146233
846.735	0.0144540
846.813	0.0145300
846.891	0.0146584
846.969	0.0145948
847.047	0.0145583
847.125	0.0146531
847.203	0.0146490
847.281	0.0146083
847.360	0.0146289
847.438	0.0145874
847.516	0.0144894
847.594	0.0145425
847.672	0.0147524
847.750	0.0146997
847.828	0.0146550
847.906	0.0146011
847.985	0.0145599
848.063	0.0146461
848.141	0.0146815
848.219	0.0145831
848.297	0.0146175
848.375	0.0145870
848.453	0.0146049
848.531	0.0145594
848.610	0.0145766
848.688	0.0146046
848.766	0.0146496
848.844	0.0145804
848.922	0.0147447
849.000	0.0147642
849.078	0.0147131
849.156	0.0147137
849.235	0.0146658
849.313	0.0146089
849.391	0.0145454
849.469	0.0145466
849.547	0.0146429
849.625	0.0145282
849.703	0.0146066
849.781	0.0146703
849.860	0.0146464
849.938	0.0145899
850.016	0.0146362
850.094	0.0146747
850.172	0.0145918
850.250	0.0146572
850.328	0.0145618
850.406	0.0146019
850.485	0.0145619
850.563	0.0146318
850.641	0.0146084
850.719	0.0145037
850.797	0.0144226
850.875	0.0146202
850.953	0.0147105
851.031	0.0146317
851.110	0.0146191
851.188	0.0146812
851.266	0.0145018
851.344	0.0145686
851.422	0.0146585
851.500	0.0145496
851.578	0.0146034
851.656	0.0146484
851.735	0.0145085
851.813	0.0145486
851.891	0.0146085
851.969	0.0147211
852.047	0.0146968
852.125	0.0145943
852.203	0.0145710
852.281	0.0145157
852.360	0.0145883
852.438	0.0146504
852.516	0.0147227
852.594	0.0146581
852.672	0.0146886
852.750	0.0145746
852.828	0.0145122
852.906	0.0146785
852.985	0.0146917
853.063	0.0144466
853.141	0.0145222
853.219	0.0145175
853.297	0.0145155
853.375	0.0145780
853.453	0.0144093
853.531	0.0144904
853.610	0.0146114
853.688	0.0146393
853.766	0.0144488
853.844	0.0146400
853.922	0.0147015
854.000	0.0146416
854.078	0.0145948
854.156	0.0145433
854.235	0.0145535
854.313	0.0146391
854.391	0.0146436
854.469	0.0145794
854.547	0.0145329
854.625	0.0145921
854.703	0.0144973
854.781	0.0145364
854.860	0.0145747
854.938	0.0145930
855.016	0.0144471
855.094	0.0144809
855.172	0.0147081
855.250	0.0145808
855.328	0.0144321
855.406	0.0146249
855.485	0.0147432
855.563	0.0146301
855.641	0.0146503
855.719	0.0147301
855.797	0.0145447
855.875	0.0146894
855.953	0.0145673
856.031	0.0143947
856.110	0.0147007
856.188	0.0145272
856.266	0.0146832
856.344	0.0144556
856.422	0.0147366
856.500	0.0147208
856.578	0.0146980
856.656	0.0146668
856.735	0.0147044
856.813	0.0147205
856.891	0.0147332
856.969	0.0146980
857.047	0.0146233
857.125	0.0147131
857.203	0.0146752
857.281	0.0147012
857.360	0.0146653
857.438	0.0146199
857.516	0.0147649
857.594	0.0147241
857.672	0.0144573
857.750	0.0145866
857.828	0.0146594
857.906	0.0145725
857.985	0.0147380
858.063	0.0146844
858.141	0.0146028
858.219	0.0145236
858.297	0.0146616
858.375	0.0145883
858.453	0.0147116
858.531	0.0145783
858.610	0.0145736
858.688	0.0146033
858.766	0.0146622
858.844	0.0146214
858.922	0.0145210
859.000	0.0145979
859.078	0.0147029
859.156	0.0147073
859.235	0.0145049
859.313	0.0145255
859.391	0.0146882
859.469	0.0146513
859.547	0.0147746
859.625	0.0147768
859.703	0.0147148
859.781	0.0146227
859.860	0.0146751
859.938	0.0148502
860.016	0.0146304
860.094	0.0146265
860.172	0.0146700
860.250	0.0146406
860.328	0.0145887
860.406	0.0145280
860.485	0.0145274
860.563	0.0146693
860.641	0.0146683
860.719	0.0147194
860.797	0.0144202
860.875	0.0144098
860.953	0.0145508
861.031	0.0145982
861.110	0.0146178
861.188	0.0144460
861.266	0.0144597
861.344	0.0145057
861.422	0.0144560
861.500	0.0145081
861.578	0.0146605
861.656	0.0145594
861.735	0.0144872
861.813	0.0145658
861.891	0.0146007
861.969	0.0146108
862.047	0.0147016
862.125	0.0146344
862.203	0.0146577
862.281	0.0147488
862.360	0.0146381
862.438	0.0146641
862.516	0.0146646
862.594	0.0147817
862.672	0.0146770
862.750	0.0147182
862.828	0.0147229
862.906	0.0146895
862.985	0.0147359
863.063	0.0144291
863.141	0.0147646
863.219	0.0147230
863.297	0.0146371
863.375	0.0146037
863.453	0.0145950
863.531	0.0147372
863.610	0.0146703
863.688	0.0146366
863.766	0.0146275
863.844	0.0147376
863.922	0.0147816
864.000	0.0147099
864.078	0.0146428
864.156	0.0147599
864.235	0.0147253
864.313	0.0147661
864.391	0.0148465
864.469	0.0147485
864.547	0.0147083
864.625	0.0147829
864.703	0.0148399
864.781	0.0146831
864.860	0.0147337
864.938	0.0147045
865.016	0.0147971
865.094	0.0147653
865.172	0.0147142
865.250	0.0147995
865.328	0.0147383
865.406	0.0147303
865.485	0.0147093
865.563	0.0148462
865.641	0.0147533
865.719	0.0147014
865.797	0.0146957
865.875	0.0147240
865.953	0.0148502
866.031	0.0145377
866.110	0.0147119
866.188	0.0146250
866.266	0.0145964
866.344	0.0147130
866.422	0.0146845
866.500	0.0145554
866.578	0.0145952
866.656	0.0146887
866.735	0.0146456
866.813	0.0147485
866.891	0.0146081
866.969	0.0146340
867.047	0.0145842
867.125	0.0146677
867.203	0.0147783
867.281	0.0147487
867.360	0.0145219
867.438	0.0145172
867.516	0.0147513
867.594	0.0145209
867.672	0.0145672
867.750	0.0144128
867.828	0.0144363
867.906	0.0145197
867.985	0.0147401
868.063	0.0146127
868.141	0.0145226
868.219	0.0146305
868.297	0.0146649
868.375	0.0145667
868.453	0.0146417
868.531	0.0145657
868.610	0.0146248
868.688	0.0147408
868.766	0.0146313
868.844	0.0146739
868.922	0.0146414
869.000	0.0146168
869.078	0.0144000
869.156	0.0145723
869.235	0.0144424
869.313	0.0144193
869.391	0.0145902
869.469	0.0145287
869.547	0.0144598
869.625	0.0145010
869.703	0.0146400
869.781	0.0145672
869.860	0.0144630
869.938	0.0147048
870.016	0.0146072
870.094	0.0145892
870.172	0.0145990
870.250	0.0145304
870.328	0.0147458
870.406	0.0147045
870.485	0.0147132
870.563	0.0146280
870.641	0.0146477
870.719	0.0146523
870.797	0.0147729
870.875	0.0146253
870.953	0.0147199
871.031	0.0146333
871.110	0.0146474
871.188	0.0146712
871.266	0.0147112
871.344	0.0146155
871.422	0.0146590
871.500	0.0147527
871.578	0.0147539
871.656	0.0146638
871.735	0.0145731
871.813	0.0146797
871.891	0.0146771
871.969	0.0146225
872.047	0.0146374
872.125	0.0147318
872.203	0.0145779
872.281	0.0147570
872.360	0.0146146
872.438	0.0146597
872.516	0.0147586
872.594	0.0147575
872.672	0.0147274
872.750	0.0146692
872.828	0.0146674
872.906	0.0148438
872.985	0.0147445
873.063	0.0146931
873.141	0.0147279
873.219	0.0146828
873.297	0.0146693
873.375	0.0148357
873.453	0.0149149
873.531	0.0147633
873.610	0.0147634
873.688	0.0146770
873.766	0.0146864
873.844	0.0146515
873.922	0.0145859
874.000	0.0146856
874.078	0.0146516
874.156	0.0146151
874.235	0.0146155
874.313	0.0145197
874.391	0.0146961
874.469	0.0145964
874.547	0.0145804
874.625	0.0145106
874.703	0.0146357
874.781	0.0147572
874.860	0.0146720
874.938	0.0145529
875.016	0.0145901
875.094	0.0146326
875.172	0.0146793
875.250	0.0146292
875.328	0.0146461
875.406	0.0145990
875.485	0.0147157
875.563	0.0145189
875.641	0.0146287
875.719	0.0146006
875.797	0.0146131
875.875	0.0146580
875.953	0.0144658
876.031	0.0144396
876.110	0.0147298
876.188	0.0145284
876.266	0.0144292
876.344	0.0144226
876.422	0.0144324
876.500	0.0145158
876.578	0.0145538
876.656	0.0145166
876.735	0.0143769
876.813	0.0143635
876.891	0.0143984
876.969	0.0144099
877.047	0.0143237
877.125	0.0142433
877.203	0.0144560
877.281	0.0142898
877.360	0.0143923
877.438	0.0144457
877.516	0.0144404
877.594	0.0142892
877.672	0.0145614
877.750	0.0145637
877.828	0.0145612
877.906	0.0144981
877.985	0.0146711
878.063	0.0145980
878.141	0.0145287
878.219	0.0145120
878.297	0.0146778
878.375	0.0146732
878.453	0.0146668
878.531	0.0145745
878.610	0.0146172
878.688	0.0146654
878.766	0.0144888
878.844	0.0146379
878.922	0.0145636
879.000	0.0147470
879.078	0.0146706
879.156	0.0145620
879.235	0.0145799
879.313	0.0147431
879.391	0.0145938
879.469	0.0146709
879.547	0.0146626
879.625	0.0147466
879.703	0.0146272
879.781	0.0146810
879.860	0.0147346
879.938	0.0148370
880.016	0.0148569
880.094	0.0147469
880.172	0.0147458
880.250	0.0148302
880.328	0.0148401
880.406	0.0149498
880.485	0.0148630
880.563	0.0148541
880.641	0.0148660
880.719	0.0146999
880.797	0.0147619
880.875	0.0148756
880.953	0.0149000
881.031	0.0149294
881.110	0.0148660
881.188	0.0148585
881.266	0.0146825
881.344	0.0147388
881.422	0.0146760
881.500	0.0147487
881.578	0.0147253
881.656	0.0146777
881.735	0.0146392
881.813	0.0146854
881.891	0.0145949
881.969	0.0146790
882.047	0.0146101
882.125	0.0145087
882.203	0.0146669
882.281	0.0145771
882.360	0.0145779
882.438	0.0145273
882.516	0.0146770
882.594	0.0146694
882.672	0.0146243
882.750	0.0147366
882.828	0.0147047
882.906	0.0146825
882.985	0.0147132
883.063	0.0146038
883.141	0.0147147
883.219	0.0147020
883.297	0.0144953
883.375	0.0147056
883.453	0.0147186
883.531	0.0146573
883.610	0.0147232
883.688	0.0147477
883.766	0.0145119
883.844	0.0147258
883.922	0.0147959
884.000	0.0146513
884.078	0.0145805
884.156	0.0145393
884.235	0.0145634
884.313	0.0146632
884.391	0.0146851
884.469	0.0145750
884.547	0.0146889
884.625	0.0145033
884.703	0.0145794
884.781	0.0145238
884.860	0.0144987
884.938	0.0145820
885.016	0.0145531
885.094	0.0145742
885.172	0.0146014
885.250	0.0147167
885.328	0.0146868
885.406	0.0146039
885.485	0.0148422
885.563	0.0145374
885.641	0.0147685
885.719	0.0147350
885.797	0.0147005
885.875	0.0146946
885.953	0.0148534
886.031	0.0146551
886.110	0.0146039
886.188	0.0147462
886.266	0.0146693
886.344	0.0145431
886.422	0.0146957
886.500	0.0146514
886.578	0.0146309
886.656	0.0146697
886.735	0.0145895
886.813	0.0145695
886.891	0.0146186
886.969	0.0145737
887.047	0.0145734
887.125	0.0144588
887.203	0.0146024
887.281	0.0146342
887.360	0.0145708
887.438	0.0145997
887.516	0.0146665
887.594	0.0145895
887.672	0.0144689
887.750	0.0146151
887.828	0.0146045
887.906	0.0146545
887.985	0.0146899
888.063	0.0145740
888.141	0.0146371
888.219	0.0145815
888.297	0.0147142
888.375	0.0147377
888.453	0.0146774
888.531	0.0146915
888.610	0.0145914
888.688	0.0145814
888.766	0.0146549
888.844	0.0146052
888.922	0.0146548
889.000	0.0145915
889.078	0.0145928
889.156	0.0146853
889.235	0.0147172
889.313	0.0147036
889.391	0.0146889
889.469	0.0145641
889.547	0.0146639
889.625	0.0146832
889.703	0.0147128
889.781	0.0146307
889.860	0.0146496
889.938	0.0146465
890.016	0.0147232
890.094	0.0147395
890.172	0.0147774
890.250	0.0146703
890.328	0.0146577
890.406	0.0146581
890.485	0.0147028
890.563	0.0147514
890.641	0.0146907
890.719	0.0146516
890.797	0.0148433
890.875	0.0148238
890.953	0.0147359
891.031	0.0148831
891.110	0.0148528
891.188	0.0146758
891.266	0.0147143
891.344	0.0148067
891.422	0.0147832
891.500	0.0147678
891.578	0.0147533
891.656	0.0146378
891.735	0.0147437
891.813	0.0147693
891.891	0.0148645
891.969	0.0148803
892.047	0.0147127
892.125	0.0147308
892.203	0.0148310
892.281	0.0148530
892.360	0.0147450
892.438	0.0148586
892.516	0.0147684
892.594	0.0147292
892.672	0.0148254
892.750	0.0147580
892.828	0.0148005
892.906	0.0148283
892.985	0.0148075
893.063	0.0148772
893.141	0.0146358
893.219	0.0145835
893.297	0.0149182
893.375	0.0147993
893.453	0.0148325
893.531	0.0148014
893.610	0.0147765
893.688	0.0147578
893.766	0.0148513
893.844	0.0147659
893.922	0.0148285
894.000	0.0147768
894.078	0.0147889
894.156	0.0148512
894.235	0.0148536
894.313	0.0148067
894.391	0.0146513
894.469	0.0147848
894.547	0.0147336
894.625	0.0148119
894.703	0.0148003
894.781	0.0148032
894.860	0.0146381
894.938	0.0148698
895.016	0.0147765
895.094	0.0146597
895.172	0.0148003
895.250	0.0148217
895.328	0.0148386
895.406	0.0148425
895.485	0.0147346
895.563	0.0148901
895.641	0.0148620
895.719	0.0148378
895.797	0.0148497
895.875	0.0148107
895.953	0.0148339
896.031	0.0147800
896.110	0.0148503
896.188	0.0148509
896.266	0.0149403
896.344	0.0147773
896.422	0.0146947
896.500	0.0146380
896.578	0.0147947
896.656	0.0148651
896.735	0.0148658
896.813	0.0148328
896.891	0.0147927
896.969	0.0147546
897.047	0.0148120
897.125	0.0148055
897.203	0.0147884
897.281	0.0147504
897.360	0.0147903
897.438	0.0146924
897.516	0.0147640
897.594	0.0147419
897.672	0.0147244
897.750	0.0146964
897.828	0.0146618
897.906	0.0147622
897.985	0.0146548
898.063	0.0147640
898.141	0.0147883
898.219	0.0147647
898.297	0.0146157
898.375	0.0147366
898.453	0.0148229
898.531	0.0147674
898.610	0.0147392
898.688	0.0146501
898.766	0.0147682
898.844	0.0148940
898.922	0.0147958
899.000	0.0148230
899.078	0.0148888
899.156	0.0147997
899.235	0.0147348
899.313	0.0146532
899.391	0.0147554
899.469	0.0146630
899.547	0.0146015
899.625	0.0146066
899.703	0.0147580
899.781	0.0147184
899.860	0.0147805
899.938	0.0146349
900.016	0.0146329
900.094	0.0146417
900.172	0.0147700
900.250	0.0146534
900.328	0.0146278
900.406	0.0146198
900.485	0.0146510
900.563	0.0146646
900.641	0.0147234
900.719	0.0146539
900.797	0.0146299
900.875	0.0146332
900.953	0.0147346
901.031	0.0146082
901.110	0.0146581
901.188	0.0146723
901.266	0.0146346
901.344	0.0145345
901.422	0.0145195
901.500	0.0145989
901.578	0.0147681
901.656	0.0147151
901.735	0.0145723
901.813	0.0147055
901.891	0.0147171
901.969	0.0146569
902.047	0.0146269
902.125	0.0145324
902.203	0.0146596
902.281	0.0146920
902.360	0.0146181
902.438	0.0146134
902.516	0.0147100
902.594	0.0146945
902.672	0.0147584
902.750	0.0147506
902.828	0.0148304
902.906	0.0146505
902.985	0.0148020
903.063	0.0146548
903.141	0.0146615
903.219	0.0147186
903.297	0.0146265
903.375	0.0146872
903.453	0.0147778
903.531	0.0146949
903.610	0.0147495
903.688	0.0147163
903.766	0.0146500
903.844	0.0146648
903.922	0.0147086
904.000	0.0146136
904.078	0.0147795
904.156	0.0146610
904.235	0.0147147
904.313	0.0148199
904.391	0.0147765
904.469	0.0148822
904.547	0.0148154
904.625	0.0147276
904.703	0.0147254
904.781	0.0147088
904.860	0.0146812
904.938	0.0147153
905.016	0.0147661
905.094	0.0147044
905.172	0.0146764
905.250	0.0147908
905.328	0.0148092
905.406	0.0147691
905.485	0.0146397
905.563	0.0147412
905.641	0.0146147
905.719	0.0146938
905.797	0.0146944
905.875	0.0147315
905.953	0.0146941
906.031	0.0147353
906.110	0.0146945
906.188	0.0148349
906.266	0.0146710
906.344	0.0147242
906.422	0.0147783
906.500	0.0146806
906.578	0.0147079
906.656	0.0147442
906.735	0.0147693
906.813	0.0147453
906.891	0.0148418
906.969	0.0147711
907.047	0.0148959
907.125	0.0146364
907.203	0.0148152
907.281	0.0148062
907.360	0.0145274
907.438	0.0145972
907.516	0.0146571
907.594	0.0145855
907.672	0.0145588
907.750	0.0147048
907.828	0.0146727
907.906	0.0145104
907.985	0.0145736
908.063	0.0145617
908.141	0.0146983
908.219	0.0146029
908.297	0.0145438
908.375	0.0146102
908.453	0.0146935
908.531	0.0145425
908.610	0.0145232
908.688	0.0147014
908.766	0.0147473
908.844	0.0147542
908.922	0.0145841
909.000	0.0146374
909.078	0.0146227
909.156	0.0147240
909.235	0.0145896
909.313	0.0145773
909.391	0.0145801
909.469	0.0146867
909.547	0.0147359
909.625	0.0147321
909.703	0.0145431
909.781	0.0144763
909.860	0.0145733
909.938	0.0147906
910.016	0.0147106
910.094	0.0147509
910.172	0.0145837
910.250	0.0146333
910.328	0.0146910
910.406	0.0147476
910.485	0.0146936
910.563	0.0146078
910.641	0.0145454
910.719	0.0146435
910.797	0.0147335
910.875	0.0146199
910.953	0.0145819
911.031	0.0146044
911.110	0.0146281
911.188	0.0146927
911.266	0.0147729
911.344	0.0145826
911.422	0.0146087
911.500	0.0147172
911.578	0.0147427
911.656	0.0146814
911.735	0.0146545
911.813	0.0146204
911.891	0.0146687
911.969	0.0146898
912.047	0.0146111
912.125	0.0146146
912.203	0.0146912
912.281	0.0146794
912.360	0.0144958
912.438	0.0145670
912.516	0.0145788
912.594	0.0145673
912.672	0.0144952
912.750	0.0146275
912.828	0.0145641
912.906	0.0145290
912.985	0.0147687
913.063	0.0146722
913.141	0.0145876
913.219	0.0145889
913.297	0.0144793
913.375	0.0146888
913.453	0.0147361
913.531	0.0145317
913.610	0.0146112
913.688	0.0146745
913.766	0.0146889
913.844	0.0146856
913.922	0.0145702
914.000	0.0145584
914.078	0.0146236
914.156	0.0146371
914.235	0.0146503
914.313	0.0145918
914.391	0.0145490
914.469	0.0146947
914.547	0.0148051
914.625	0.0146020
914.703	0.0145604
914.781	0.0146008
914.860	0.0147244
914.938	0.0146904
915.016	0.0146513
915.094	0.0145867
915.172	0.0146023
915.250	0.0146552
915.328	0.0146655
915.406	0.0146597
915.485	0.0146666
915.563	0.0146330
915.641	0.0147348
915.719	0.0145799
915.797	0.0145050
915.875	0.0145863
915.953	0.0146561
916.031	0.0145601
916.110	0.0146400
916.188	0.0146141
916.266	0.0145602
916.344	0.0146339
916.422	0.0145510
916.500	0.0146313
916.578	0.0146455
916.656	0.0145209
916.735	0.0146283
916.813	0.0146135
916.891	0.0145834
916.969	0.0146066
917.047	0.0145545
917.125	0.0145859
917.203	0.0144969
917.281	0.0145114
917.360	0.0146223
917.438	0.0145032
917.516	0.0147341
917.594	0.0144656
917.672	0.0144872
917.750	0.0147043
917.828	0.0146212
917.906	0.0145125
917.985	0.0146438
918.063	0.0146912
918.141	0.0145724
918.219	0.0145111
918.297	0.0146665
918.375	0.0145367
918.453	0.0144939
918.531	0.0146710
918.610	0.0145804
918.688	0.0146459
918.766	0.0146929
918.844	0.0146246
918.922	0.0147019
919.000	0.0147072
919.078	0.0147561
919.156	0.0146151
919.235	0.0147082
919.313	0.0147121
919.391	0.0147255
919.469	0.0147344
919.547	0.0147332
919.625	0.0148432
919.703	0.0148370
919.781	0.0147503
919.860	0.0146703
919.938	0.0147278
920.016	0.0147278
920.094	0.0147833
920.172	0.0147531
920.250	0.0146222
920.328	0.0146875
920.406	0.0146043
920.485	0.0146597
920.563	0.0145728
920.641	0.0146532
920.719	0.0146540
920.797	0.0147707
920.875	0.0146309
920.953	0.0146575
921.031	0.0147341
921.110	0.0147202
921.188	0.0145930
921.266	0.0147345
921.344	0.0145807
921.422	0.0145950
921.500	0.0145461
921.578	0.0147273
921.656	0.0148186
921.735	0.0145555
921.813	0.0145708
921.891	0.0146732
921.969	0.0146281
922.047	0.0146217
922.125	0.0145232
922.203	0.0146868
922.281	0.0146212
922.360	0.0145722
922.438	0.0146117
922.516	0.0145885
922.594	0.0145300
922.672	0.0145861
922.750	0.0145692
922.828	0.0146015
922.906	0.0146571
922.985	0.0145200
923.063	0.0145145
923.141	0.0145927
923.219	0.0145569
923.297	0.0144784
923.375	0.0146000
923.453	0.0145533
923.531	0.0145640
923.610	0.0145410
923.688	0.0146790
923.766	0.0146027
923.844	0.0146271
923.922	0.0144981
924.000	0.0144275
924.078	0.0145494
924.156	0.0145822
924.235	0.0144859
924.313	0.0145757
924.391	0.0145326
924.469	0.0146588
924.547	0.0146561
924.625	0.0146021
924.703	0.0144994
924.781	0.0145760
924.860	0.0146088
924.938	0.0146182
925.016	0.0144498
925.094	0.0147156
925.172	0.0146099
925.250	0.0147546
925.328	0.0146851
925.406	0.0145621
925.485	0.0145901
925.563	0.0147291
925.641	0.0147323
925.719	0.0148296
925.797	0.0146696
925.875	0.0147398
925.953	0.0147908
926.031	0.0148334
926.110	0.0147438
926.188	0.0146988
926.266	0.0147569
926.344	0.0146969
926.422	0.0147437
926.500	0.0148392
926.578	0.0147359
926.656	0.0149150
926.735	0.0148602
926.813	0.0147881
926.891	0.0149878
926.969	0.0149734
927.047	0.0149056
927.125	0.0148491
927.203	0.0148336
927.281	0.0148601
927.360	0.0149450
927.438	0.0148435
927.516	0.0149557
927.594	0.0149972
927.672	0.0147289
927.750	0.0149698
927.828	0.0150339
927.906	0.0148380
927.985	0.0148669
928.063	0.0149751
928.141	0.0147620
928.219	0.0148026
928.297	0.0148469
928.375	0.0148407
928.453	0.0148088
928.531	0.0146780
928.610	0.0145400
928.688	0.0147808
928.766	0.0147407
928.844	0.0146085
928.922	0.0147446
929.000	0.0147443
929.078	0.0147498
929.156	0.0148346
929.235	0.0146620
929.313	0.0147128
929.391	0.0146792
929.469	0.0147018
929.547	0.0146343
929.625	0.0147274
929.703	0.0146731
929.781	0.0146019
929.860	0.0146801
929.938	0.0146058
930.016	0.0147668
930.094	0.0147376
930.172	0.0145988
930.250	0.0146676
930.328	0.0145853
930.406	0.0146078
930.485	0.0146542
930.563	0.0146500
930.641	0.0145745
930.719	0.0147070
930.797	0.0145644
930.875	0.0146264
930.953	0.0148627
931.031	0.0146085
931.110	0.0146449
931.188	0.0147021
931.266	0.0148505
931.344	0.0146937
931.422	0.0145356
931.500	0.0145902
931.578	0.0146960
931.656	0.0145348
931.735	0.0145367
931.813	0.0145392
931.891	0.0145564
931.969	0.0146402
932.047	0.0144698
932.125	0.0145287
932.203	0.0145609
932.281	0.0145895
932.360	0.0145452
932.438	0.0145190
932.516	0.0142757
932.594	0.0144052
932.672	0.0145374
932.750	0.0144902
932.828	0.0144257
932.906	0.0143950
932.985	0.0145229
933.063	0.0144724
933.141	0.0144433
933.219	0.0145753
933.297	0.0144991
933.375	0.0144876
933.453	0.0145115
933.531	0.0144213
933.610	0.0143597
933.688	0.0146098
933.766	0.0147144
933.844	0.0145353
933.922	0.0145985
934.000	0.0144767
934.078	0.0145818
934.156	0.0145923
934.235	0.0145972
934.313	0.0145966
934.391	0.0146091
934.469	0.0144776
934.547	0.0144695
934.625	0.0144865
934.703	0.0145864
934.781	0.0146550
934.860	0.0146151
934.938	0.0146005
935.016	0.0147196
935.094	0.0146908
935.172	0.0146209
935.250	0.0145412
935.328	0.0145886
935.406	0.0145933
935.485	0.0145383
935.563	0.0145955
935.641	0.0146053
935.719	0.0145345
935.797	0.0146245
935.875	0.0145159
935.953	0.0145223
936.031	0.0144600
936.110	0.0145470
936.188	0.0146517
936.266	0.0146372
936.344	0.0146364
936.422	0.0145361
936.500	0.0147182
936.578	0.0145956
936.656	0.0147620
936.735	0.0145805
936.813	0.0145287
936.891	0.0146886
936.969	0.0145506
937.047	0.0146869
937.125	0.0146651
937.203	0.0145248
937.281	0.0145016
937.360	0.0146266
937.438	0.0146050
937.516	0.0145325
937.594	0.0144219
937.672	0.0145174
937.750	0.0144473
937.828	0.0146060
937.906	0.0145724
937.985	0.0144314
938.063	0.0145179
938.141	0.0145113
938.219	0.0146381
938.297	0.0145108
938.375	0.0145569
938.453	0.0145173
938.531	0.0143587
938.610	0.0145465
938.688	0.0146490
938.766	0.0145355
938.844	0.0145419
938.922	0.0146157
939.000	0.0147297
939.078	0.0147015
939.156	0.0145224
939.235	0.0145519
939.313	0.0145401
939.391	0.0146806
939.469	0.0145979
939.547	0.0146552
939.625	0.0146659
939.703	0.0145210
939.781	0.0144146
939.860	0.0144916
939.938	0.0146146
940.016	0.0145441
940.094	0.0145070
940.172	0.0145190
940.250	0.0144032
940.328	0.0144270
940.406	0.0145265
940.485	0.0145383
940.563	0.0144724
940.641	0.0144976
940.719	0.0143314
940.797	0.0145780
940.875	0.0146121
940.953	0.0144946
941.031	0.0146715
941.110	0.0146248
941.188	0.0144523
941.266	0.0143784
941.344	0.0146317
941.422	0.0145962
941.500	0.0145832
941.578	0.0146302
941.656	0.0144526
941.735	0.0145619
941.813	0.0146436
941.891	0.0147451
941.969	0.0145592
942.047	0.0144575
942.125	0.0147614
942.203	0.0147208
942.281	0.0145978
942.360	0.0146161
942.438	0.0145849
942.516	0.0147034
942.594	0.0146956
942.672	0.0144983
942.750	0.0146693
942.828	0.0145592
942.906	0.0145444
942.985	0.0145262
943.063	0.0146292
943.141	0.0145827
943.219	0.0144917
943.297	0.0145335
943.375	0.0144886
943.453	0.0146125
943.531	0.0144860
943.610	0.0144228
943.688	0.0145980
943.766	0.0147002
943.844	0.0145688
943.922	0.0146365
944.000	0.0146361
944.078	0.0147002
944.156	0.0145911
944.235	0.0144532
944.313	0.0145079
944.391	0.0146784
944.469	0.0146111
944.547	0.0145754
944.625	0.0146319
944.703	0.0146033
944.781	0.0146088
944.860	0.0146970
944.938	0.0143957
945.016	0.0146053
945.094	0.0144949
945.172	0.0144898
945.250	0.0145244
945.328	0.0144926
945.406	0.0144271
945.485	0.0144822
945.563	0.0144153
945.641	0.0144769
945.719	0.0144147
945.797	0.0144257
945.875	0.0144908
945.953	0.0144548
946.031	0.0143423
946.110	0.0144505
946.188	0.0145622
946.266	0.0144317
946.344	0.0144640
946.422	0.0145345
946.500	0.0143107
946.578	0.0142757
946.656	0.0143527
946.735	0.0144221
946.813	0.0143914
946.891	0.0144764
946.969	0.0143437
947.047	0.0144482
947.125	0.0143723
947.203	0.0145447
947.281	0.0143883
947.360	0.0144759
947.438	0.0143756
947.516	0.0143909
947.594	0.0144704
947.672	0.0145277
947.750	0.0144951
947.828	0.0144016
947.906	0.0144443
947.985	0.0145168
948.063	0.0145179
948.141	0.0146170
948.219	0.0145408
948.297	0.0145587
948.375	0.0146461
948.453	0.0146152
948.531	0.0147713
948.610	0.0147699
948.688	0.0146258
948.766	0.0145675
948.844	0.0147300
948.922	0.0146207
949.000	0.0147711
949.078	0.0147307
949.156	0.0146041
949.235	0.0146669
949.313	0.0147863
949.391	0.0147987
949.469	0.0147767
949.547	0.0146994
949.625	0.0147807
949.703	0.0148251
949.781	0.0147495
949.860	0.0147752
949.938	0.0147598
