05/04/2022	20:56:01	Ver.	4.1	UNKNOWN
Optical Delay	678.996401	Delta X		0.078125	Sweeps	1	Scan Rate	0/0
Coordinates	Axis 1	NaN	Axis 2	NaN	Axis 3	NaN	Axis 4	NaN	Axis 5	NaN	Axis 6	0.000000
TX Power	0.000000	RX Power	0.000000

678.996	0.0142446
679.075	0.0142944
679.153	0.0141924
679.231	0.0142670
679.309	0.0142403
679.387	0.0141943
679.465	0.0140987
679.543	0.0142359
679.621	0.0141924
679.700	0.0142123
679.778	0.0142995
679.856	0.0143383
679.934	0.0141974
680.012	0.0143475
680.090	0.0142581
680.168	0.0142504
680.246	0.0142645
680.325	0.0141547
680.403	0.0141184
680.481	0.0141208
680.559	0.0142825
680.637	0.0142131
680.715	0.0142733
680.793	0.0142394
680.871	0.0142635
680.950	0.0142507
681.028	0.0141623
681.106	0.0142965
681.184	0.0142422
681.262	0.0141035
681.340	0.0143139
681.418	0.0143269
681.496	0.0142053
681.575	0.0141438
681.653	0.0142793
681.731	0.0142879
681.809	0.0141199
681.887	0.0143052
681.965	0.0142508
682.043	0.0141727
682.121	0.0141843
682.200	0.0142887
682.278	0.0142453
682.356	0.0141257
682.434	0.0141937
682.512	0.0142628
682.590	0.0141914
682.668	0.0142113
682.746	0.0142323
682.825	0.0141961
682.903	0.0141842
682.981	0.0141568
683.059	0.0141904
683.137	0.0141901
683.215	0.0141434
683.293	0.0143993
683.371	0.0142247
683.450	0.0141827
683.528	0.0142051
683.606	0.0141968
683.684	0.0140893
683.762	0.0142843
683.840	0.0142575
683.918	0.0141602
683.996	0.0142550
684.075	0.0141164
684.153	0.0141304
684.231	0.0142199
684.309	0.0142315
684.387	0.0141943
684.465	0.0141896
684.543	0.0143227
684.621	0.0141498
684.700	0.0142696
684.778	0.0141480
684.856	0.0141858
684.934	0.0143311
685.012	0.0143193
685.090	0.0142289
685.168	0.0142762
685.246	0.0141930
685.325	0.0142950
685.403	0.0142702
685.481	0.0142448
685.559	0.0142191
685.637	0.0142635
685.715	0.0141165
685.793	0.0143670
685.871	0.0142451
685.950	0.0142804
686.028	0.0142670
686.106	0.0141960
686.184	0.0142141
686.262	0.0142496
686.340	0.0142450
686.418	0.0143188
686.496	0.0142326
686.575	0.0143281
686.653	0.0141570
686.731	0.0143491
686.809	0.0142054
686.887	0.0141812
686.965	0.0142451
687.043	0.0142215
687.121	0.0143188
687.200	0.0142141
687.278	0.0141528
687.356	0.0143469
687.434	0.0143830
687.512	0.0143212
687.590	0.0141576
687.668	0.0141991
687.746	0.0142404
687.825	0.0142136
687.903	0.0143588
687.981	0.0142281
688.059	0.0141315
688.137	0.0141371
688.215	0.0142573
688.293	0.0141994
688.371	0.0142130
688.450	0.0141095
688.528	0.0141933
688.606	0.0141332
688.684	0.0143420
688.762	0.0142411
688.840	0.0142105
688.918	0.0142483
688.996	0.0143270
689.075	0.0142357
689.153	0.0143177
689.231	0.0142365
689.309	0.0140824
689.387	0.0142441
689.465	0.0142915
689.543	0.0143270
689.621	0.0143336
689.700	0.0142399
689.778	0.0143337
689.856	0.0142832
689.934	0.0142580
690.012	0.0142908
690.090	0.0141791
690.168	0.0143204
690.246	0.0141908
690.325	0.0141672
690.403	0.0142242
690.481	0.0141367
690.559	0.0142455
690.637	0.0142139
690.715	0.0142366
690.793	0.0141845
690.871	0.0142751
690.950	0.0143032
691.028	0.0142220
691.106	0.0141259
691.184	0.0141706
691.262	0.0142181
691.340	0.0142345
691.418	0.0141912
691.496	0.0142533
691.575	0.0142285
691.653	0.0142424
691.731	0.0141936
691.809	0.0141466
691.887	0.0142031
691.965	0.0141740
692.043	0.0142966
692.121	0.0142944
692.200	0.0142851
692.278	0.0141470
692.356	0.0143522
692.434	0.0143683
692.512	0.0142181
692.590	0.0141840
692.668	0.0141606
692.746	0.0141931
692.825	0.0142101
692.903	0.0142509
692.981	0.0142517
693.059	0.0141819
693.137	0.0141419
693.215	0.0143593
693.293	0.0143371
693.371	0.0141945
693.450	0.0142040
693.528	0.0142546
693.606	0.0142297
693.684	0.0141610
693.762	0.0143561
693.840	0.0141672
693.918	0.0142293
693.996	0.0143407
694.075	0.0143151
694.153	0.0141535
694.231	0.0140816
694.309	0.0142407
694.387	0.0142377
694.465	0.0142082
694.543	0.0140238
694.621	0.0141998
694.700	0.0142768
694.778	0.0142726
694.856	0.0142178
694.934	0.0142840
695.012	0.0141711
695.090	0.0142535
695.168	0.0142810
695.246	0.0143298
695.325	0.0142253
695.403	0.0142655
695.481	0.0143309
695.559	0.0143089
695.637	0.0141891
695.715	0.0142425
695.793	0.0142131
695.871	0.0142363
695.950	0.0140932
696.028	0.0142226
696.106	0.0140806
696.184	0.0141696
696.262	0.0142725
696.340	0.0142572
696.418	0.0142984
696.496	0.0143060
696.575	0.0141252
696.653	0.0140802
696.731	0.0142419
696.809	0.0141685
696.887	0.0142500
696.965	0.0141885
697.043	0.0142927
697.121	0.0142165
697.200	0.0142871
697.278	0.0142969
697.356	0.0141244
697.434	0.0141220
697.512	0.0141560
697.590	0.0141335
697.668	0.0141521
697.746	0.0143221
697.825	0.0141922
697.903	0.0141776
697.981	0.0141404
698.059	0.0142471
698.137	0.0141434
698.215	0.0142040
698.293	0.0142077
698.371	0.0141833
698.450	0.0141937
698.528	0.0142326
698.606	0.0142815
698.684	0.0143722
698.762	0.0142814
698.840	0.0142033
698.918	0.0143171
698.996	0.0143927
699.075	0.0143024
699.153	0.0141232
699.231	0.0142731
699.309	0.0142992
699.387	0.0142934
699.465	0.0142963
699.543	0.0141802
699.621	0.0141698
699.700	0.0141758
699.778	0.0142644
699.856	0.0141870
699.934	0.0142252
700.012	0.0140823
700.090	0.0141709
700.168	0.0141751
700.246	0.0141016
700.325	0.0141995
700.403	0.0141656
700.481	0.0141027
700.559	0.0142113
700.637	0.0142731
700.715	0.0142396
700.793	0.0141631
700.871	0.0141151
700.950	0.0142126
701.028	0.0143156
701.106	0.0142114
701.184	0.0142223
701.262	0.0142854
701.340	0.0143417
701.418	0.0140250
701.496	0.0141283
701.575	0.0144221
701.653	0.0142322
701.731	0.0141748
701.809	0.0142332
701.887	0.0142387
701.965	0.0141919
702.043	0.0143346
702.121	0.0142225
702.200	0.0141694
702.278	0.0142537
702.356	0.0142418
702.434	0.0143745
702.512	0.0143056
702.590	0.0143126
702.668	0.0143592
702.746	0.0142483
702.825	0.0142483
702.903	0.0142371
702.981	0.0141782
703.059	0.0141862
703.137	0.0142613
703.215	0.0141968
703.293	0.0143086
703.371	0.0142403
703.450	0.0142512
703.528	0.0143513
703.606	0.0142405
703.684	0.0142264
703.762	0.0143581
703.840	0.0141727
703.918	0.0141805
703.996	0.0143021
704.075	0.0143753
704.153	0.0142774
704.231	0.0143520
704.309	0.0143075
704.387	0.0142204
704.465	0.0143096
704.543	0.0144558
704.621	0.0143211
704.700	0.0142870
704.778	0.0142752
704.856	0.0142157
704.934	0.0142229
705.012	0.0143974
705.090	0.0142860
705.168	0.0142892
705.246	0.0143091
705.325	0.0142522
705.403	0.0143023
705.481	0.0142249
705.559	0.0142319
705.637	0.0142635
705.715	0.0142222
705.793	0.0143568
705.871	0.0142481
705.950	0.0141619
706.028	0.0142905
706.106	0.0142364
706.184	0.0141996
706.262	0.0141206
706.340	0.0143145
706.418	0.0141983
706.496	0.0142133
706.575	0.0144178
706.653	0.0142784
706.731	0.0141454
706.809	0.0142395
706.887	0.0142421
706.965	0.0143312
707.043	0.0143141
707.121	0.0142766
707.200	0.0141711
707.278	0.0142832
707.356	0.0144359
707.434	0.0144039
707.512	0.0142526
707.590	0.0143409
707.668	0.0143587
707.746	0.0142097
707.825	0.0142474
707.903	0.0143542
707.981	0.0142645
708.059	0.0143310
708.137	0.0142566
708.215	0.0141004
708.293	0.0142046
708.371	0.0141342
708.450	0.0142518
708.528	0.0143097
708.606	0.0141896
708.684	0.0144038
708.762	0.0141820
708.840	0.0140646
708.918	0.0142303
708.996	0.0142563
709.075	0.0142433
709.153	0.0143106
709.231	0.0142140
709.309	0.0141747
709.387	0.0142587
709.465	0.0141503
709.543	0.0141962
709.621	0.0141007
709.700	0.0140970
709.778	0.0139629
709.856	0.0141437
709.934	0.0142733
710.012	0.0144804
710.090	0.0144791
710.168	0.0146198
710.246	0.0147659
710.325	0.0146238
710.403	0.0143400
710.481	0.0144469
710.559	0.0141864
710.637	0.0141069
710.715	0.0137873
710.793	0.0138181
710.871	0.0137634
710.950	0.0139432
711.028	0.0141317
711.106	0.0142584
711.184	0.0142870
711.262	0.0145749
711.340	0.0145034
711.418	0.0147562
711.496	0.0146079
711.575	0.0145480
711.653	0.0144559
711.731	0.0144106
711.809	0.0142881
711.887	0.0142424
711.965	0.0140125
712.043	0.0140005
712.121	0.0141326
712.200	0.0142265
712.278	0.0142400
712.356	0.0142150
712.434	0.0142413
712.512	0.0144361
712.590	0.0143318
712.668	0.0143117
712.746	0.0142722
712.825	0.0144335
712.903	0.0143532
712.981	0.0144189
713.059	0.0145466
713.137	0.0146803
713.215	0.0144860
713.293	0.0146251
713.371	0.0145381
713.450	0.0144529
713.528	0.0141744
713.606	0.0140007
713.684	0.0138670
713.762	0.0137727
713.840	0.0138924
713.918	0.0139800
713.996	0.0140946
714.075	0.0144661
714.153	0.0147055
714.231	0.0148324
714.309	0.0150489
714.387	0.0149242
714.465	0.0149262
714.543	0.0147442
714.621	0.0144092
714.700	0.0140394
714.778	0.0134895
714.856	0.0132536
714.934	0.0128351
715.012	0.0127314
715.090	0.0123809
715.168	0.0122627
715.246	0.0125712
715.325	0.0127707
715.403	0.0130867
715.481	0.0135901
715.559	0.0141686
715.637	0.0147234
715.715	0.0151752
715.793	0.0154086
715.871	0.0156235
715.950	0.0158909
716.028	0.0157859
716.106	0.0158391
716.184	0.0157106
716.262	0.0153866
716.340	0.0149421
716.418	0.0145760
716.496	0.0143063
716.575	0.0138472
716.653	0.0135937
716.731	0.0132581
716.809	0.0131174
716.887	0.0130659
716.965	0.0133828
717.043	0.0136433
717.121	0.0138641
717.200	0.0142107
717.278	0.0147398
717.356	0.0151041
717.434	0.0153008
717.512	0.0154092
717.590	0.0155845
717.668	0.0155501
717.746	0.0152781
717.825	0.0151249
717.903	0.0149288
717.981	0.0144293
718.059	0.0140035
718.137	0.0136591
718.215	0.0131487
718.293	0.0129208
718.371	0.0127869
718.450	0.0130617
718.528	0.0133477
718.606	0.0136421
718.684	0.0139143
718.762	0.0144776
718.840	0.0147893
718.918	0.0148520
718.996	0.0152231
719.075	0.0152200
719.153	0.0151561
719.231	0.0149976
719.309	0.0148190
719.387	0.0144404
719.465	0.0141038
719.543	0.0137292
719.621	0.0134441
719.700	0.0134032
719.778	0.0134364
719.856	0.0135961
719.934	0.0137948
720.012	0.0137939
720.090	0.0140045
720.168	0.0141691
720.246	0.0143510
720.325	0.0145839
720.403	0.0146008
720.481	0.0146711
720.559	0.0147784
720.637	0.0146748
720.715	0.0146046
720.793	0.0144083
720.871	0.0142654
720.950	0.0140140
721.028	0.0136794
721.106	0.0134992
721.184	0.0134512
721.262	0.0132001
721.340	0.0129939
721.418	0.0130901
721.496	0.0134191
721.575	0.0134561
721.653	0.0137298
721.731	0.0140062
721.809	0.0145396
721.887	0.0148313
721.965	0.0149707
722.043	0.0152617
722.121	0.0156174
722.200	0.0157203
722.278	0.0156153
722.356	0.0157127
722.434	0.0156629
722.512	0.0153629
722.590	0.0150693
722.668	0.0148020
722.746	0.0144810
722.825	0.0142122
722.903	0.0140343
722.981	0.0136329
723.059	0.0133992
723.137	0.0131937
723.215	0.0129423
723.293	0.0128877
723.371	0.0128586
723.450	0.0129899
723.528	0.0132299
723.606	0.0136119
723.684	0.0139426
723.762	0.0143906
723.840	0.0146089
723.918	0.0149163
723.996	0.0152567
724.075	0.0155169
724.153	0.0156364
724.231	0.0156397
724.309	0.0157997
724.387	0.0157568
724.465	0.0154907
724.543	0.0151653
724.621	0.0145874
724.700	0.0142279
724.778	0.0137486
724.856	0.0133508
724.934	0.0129099
725.012	0.0128466
725.090	0.0127831
725.168	0.0127418
725.246	0.0128357
725.325	0.0128903
725.403	0.0129846
725.481	0.0133375
725.559	0.0134461
725.637	0.0138056
725.715	0.0142773
725.793	0.0146372
725.871	0.0150635
725.950	0.0152546
726.028	0.0156057
726.106	0.0155603
726.184	0.0155626
726.262	0.0155083
726.340	0.0154377
726.418	0.0152014
726.496	0.0146891
726.575	0.0143604
726.653	0.0139925
726.731	0.0136428
726.809	0.0134343
726.887	0.0131304
726.965	0.0129391
727.043	0.0129981
727.121	0.0129325
727.200	0.0131491
727.278	0.0133484
727.356	0.0136264
727.434	0.0138971
727.512	0.0140919
727.590	0.0145655
727.668	0.0147549
727.746	0.0149255
727.825	0.0151077
727.903	0.0152924
727.981	0.0153904
728.059	0.0151798
728.137	0.0152900
728.215	0.0150215
728.293	0.0149683
728.371	0.0146725
728.450	0.0144857
728.528	0.0142873
728.606	0.0140280
728.684	0.0138079
728.762	0.0136688
728.840	0.0135613
728.918	0.0134811
728.996	0.0135805
729.075	0.0134922
729.153	0.0136275
729.231	0.0137199
729.309	0.0136501
729.387	0.0138409
729.465	0.0139548
729.543	0.0140768
729.621	0.0142651
729.700	0.0142812
729.778	0.0143877
729.856	0.0143197
729.934	0.0144244
730.012	0.0145139
730.090	0.0146732
730.168	0.0146656
730.246	0.0145963
730.325	0.0145665
730.403	0.0146993
730.481	0.0147929
730.559	0.0147250
730.637	0.0145667
730.715	0.0144440
730.793	0.0144321
730.871	0.0141827
730.950	0.0140572
731.028	0.0138566
731.106	0.0136687
731.184	0.0136957
731.262	0.0134306
731.340	0.0134398
731.418	0.0134208
731.496	0.0134660
731.575	0.0135673
731.653	0.0137517
731.731	0.0139315
731.809	0.0140410
731.887	0.0140677
731.965	0.0142710
732.043	0.0143127
732.121	0.0145287
732.200	0.0146146
732.278	0.0145019
732.356	0.0146148
732.434	0.0146748
732.512	0.0146359
732.590	0.0142915
732.668	0.0143288
732.746	0.0141560
732.825	0.0139471
732.903	0.0139399
732.981	0.0140051
733.059	0.0139134
733.137	0.0137799
733.215	0.0136710
733.293	0.0137334
733.371	0.0138712
733.450	0.0138076
733.528	0.0138732
733.606	0.0138657
733.684	0.0140594
733.762	0.0141541
733.840	0.0142748
733.918	0.0143925
733.996	0.0142607
734.075	0.0145943
734.153	0.0144802
734.231	0.0145512
734.309	0.0144751
734.387	0.0145141
734.465	0.0145501
734.543	0.0145541
734.621	0.0144016
734.700	0.0144496
734.778	0.0144266
734.856	0.0144151
734.934	0.0143272
735.012	0.0143180
735.090	0.0140343
735.168	0.0140846
735.246	0.0141005
735.325	0.0138491
735.403	0.0137025
735.481	0.0137376
735.559	0.0136167
735.637	0.0136101
735.715	0.0138941
735.793	0.0140545
735.871	0.0140710
735.950	0.0141878
736.028	0.0145071
736.106	0.0146937
736.184	0.0149033
736.262	0.0149754
736.340	0.0151539
736.418	0.0151579
736.496	0.0152113
736.575	0.0152888
736.653	0.0150604
736.731	0.0148929
736.809	0.0148376
736.887	0.0145319
736.965	0.0143244
737.043	0.0143292
737.121	0.0140878
737.200	0.0137630
737.278	0.0137034
737.356	0.0137694
737.434	0.0137714
737.512	0.0137526
737.590	0.0137857
737.668	0.0138335
737.746	0.0138700
737.825	0.0138544
737.903	0.0142189
737.981	0.0142691
738.059	0.0143444
738.137	0.0142561
738.215	0.0142054
738.293	0.0144828
738.371	0.0142445
738.450	0.0143486
738.528	0.0141405
738.606	0.0143353
738.684	0.0143565
738.762	0.0140984
738.840	0.0141177
738.918	0.0142117
738.996	0.0144098
739.075	0.0142310
739.153	0.0141177
739.231	0.0142377
739.309	0.0141496
739.387	0.0142749
739.465	0.0139957
739.543	0.0137846
739.621	0.0138213
739.700	0.0138255
739.778	0.0138407
739.856	0.0137085
739.934	0.0137006
740.012	0.0136662
740.090	0.0136592
740.168	0.0138506
740.246	0.0138754
740.325	0.0142934
740.403	0.0144390
740.481	0.0145419
740.559	0.0148184
740.637	0.0149716
740.715	0.0150289
740.793	0.0152708
740.871	0.0153551
740.950	0.0151939
741.028	0.0150902
741.106	0.0149860
741.184	0.0147517
741.262	0.0145020
741.340	0.0142052
741.418	0.0141544
741.496	0.0140242
741.575	0.0138644
741.653	0.0135596
741.731	0.0134113
741.809	0.0134740
741.887	0.0134300
741.965	0.0135294
742.043	0.0134911
742.121	0.0135831
742.200	0.0137478
742.278	0.0139429
742.356	0.0140100
742.434	0.0141174
742.512	0.0140273
742.590	0.0143288
742.668	0.0145082
742.746	0.0146785
742.825	0.0146523
742.903	0.0147228
742.981	0.0149228
743.059	0.0149057
743.137	0.0147379
743.215	0.0148135
743.293	0.0147825
743.371	0.0147227
743.450	0.0145745
743.528	0.0144864
743.606	0.0144111
743.684	0.0142519
743.762	0.0141222
743.840	0.0138921
743.918	0.0138705
743.996	0.0136067
744.075	0.0135587
744.153	0.0136707
744.231	0.0137175
744.309	0.0137893
744.387	0.0138335
744.465	0.0138663
744.543	0.0139937
744.621	0.0142293
744.700	0.0143493
744.778	0.0144607
744.856	0.0146816
744.934	0.0146548
745.012	0.0146706
745.090	0.0147939
745.168	0.0148966
745.246	0.0147752
745.325	0.0148247
745.403	0.0148127
745.481	0.0147044
745.559	0.0145068
745.637	0.0143237
745.715	0.0142297
745.793	0.0141739
745.871	0.0141334
745.950	0.0139806
746.028	0.0139440
746.106	0.0138657
746.184	0.0138526
746.262	0.0140616
746.340	0.0139137
746.418	0.0141187
746.496	0.0140973
746.575	0.0142215
746.653	0.0143804
746.731	0.0146281
746.809	0.0145506
746.887	0.0145148
746.965	0.0146580
747.043	0.0144763
747.121	0.0144469
747.200	0.0144464
747.278	0.0144108
747.356	0.0142470
747.434	0.0142690
747.512	0.0141045
747.590	0.0141551
747.668	0.0141715
747.746	0.0141225
747.825	0.0141226
747.903	0.0140803
747.981	0.0140973
748.059	0.0142128
748.137	0.0145042
748.215	0.0143999
748.293	0.0143611
748.371	0.0144806
748.450	0.0145260
748.528	0.0146500
748.606	0.0145034
748.684	0.0146465
748.762	0.0146181
748.840	0.0144611
748.918	0.0143022
748.996	0.0141951
749.075	0.0141893
749.153	0.0138632
749.231	0.0139226
749.309	0.0138020
749.387	0.0136950
749.465	0.0137029
749.543	0.0137553
749.621	0.0139797
749.700	0.0138606
749.778	0.0139198
749.856	0.0139542
749.934	0.0141614
750.012	0.0141795
750.090	0.0144377
750.168	0.0145381
750.246	0.0146356
750.325	0.0145972
750.403	0.0146082
750.481	0.0147211
750.559	0.0146972
750.637	0.0145467
750.715	0.0145598
750.793	0.0145303
750.871	0.0144789
750.950	0.0143652
751.028	0.0143075
751.106	0.0142009
751.184	0.0141969
751.262	0.0141180
751.340	0.0140841
751.418	0.0140264
751.496	0.0139283
751.575	0.0137856
751.653	0.0138612
751.731	0.0136855
751.809	0.0137094
751.887	0.0139014
751.965	0.0138438
752.043	0.0137690
752.121	0.0141362
752.200	0.0140869
752.278	0.0142642
752.356	0.0144560
752.434	0.0146165
752.512	0.0146643
752.590	0.0147108
752.668	0.0148441
752.746	0.0149321
752.825	0.0149252
752.903	0.0149249
752.981	0.0147241
753.059	0.0149329
753.137	0.0144868
753.215	0.0144054
753.293	0.0142917
753.371	0.0141695
753.450	0.0140700
753.528	0.0138778
753.606	0.0136111
753.684	0.0136723
753.762	0.0135651
753.840	0.0136098
753.918	0.0137426
753.996	0.0137437
754.075	0.0137355
754.153	0.0139165
754.231	0.0139967
754.309	0.0139986
754.387	0.0143542
754.465	0.0144554
754.543	0.0145288
754.621	0.0144785
754.700	0.0145479
754.778	0.0146243
754.856	0.0145896
754.934	0.0145886
755.012	0.0146306
755.090	0.0143800
755.168	0.0143811
755.246	0.0143783
755.325	0.0143810
755.403	0.0142659
755.481	0.0141593
755.559	0.0143277
755.637	0.0141440
755.715	0.0139989
755.793	0.0140364
755.871	0.0140301
755.950	0.0141068
756.028	0.0139427
756.106	0.0138630
756.184	0.0138213
756.262	0.0139377
756.340	0.0140167
756.418	0.0139265
756.496	0.0140298
756.575	0.0140770
756.653	0.0140132
756.731	0.0139989
756.809	0.0140747
756.887	0.0141310
756.965	0.0142711
757.043	0.0143499
757.121	0.0142779
757.200	0.0143874
757.278	0.0144270
757.356	0.0145186
757.434	0.0145792
757.512	0.0145475
757.590	0.0145746
757.668	0.0145645
757.746	0.0146268
757.825	0.0143785
757.903	0.0143455
757.981	0.0143988
758.059	0.0142197
758.137	0.0141811
758.215	0.0141904
758.293	0.0142086
758.371	0.0141944
758.450	0.0141185
758.528	0.0140962
758.606	0.0141046
758.684	0.0142985
758.762	0.0141769
758.840	0.0141131
758.918	0.0141846
758.996	0.0141506
759.075	0.0142944
759.153	0.0142234
759.231	0.0141793
759.309	0.0143207
759.387	0.0142678
759.465	0.0142399
759.543	0.0141853
759.621	0.0144035
759.700	0.0142434
759.778	0.0142487
759.856	0.0142113
759.934	0.0143566
760.012	0.0143298
760.090	0.0143236
760.168	0.0144962
760.246	0.0145067
760.325	0.0144627
760.403	0.0145149
760.481	0.0145470
760.559	0.0143823
760.637	0.0144233
760.715	0.0145029
760.793	0.0144128
760.871	0.0143962
760.950	0.0143419
761.028	0.0143211
761.106	0.0143261
761.184	0.0143104
761.262	0.0140617
761.340	0.0139844
761.418	0.0139471
761.496	0.0140353
761.575	0.0139574
761.653	0.0139771
761.731	0.0140308
761.809	0.0141632
761.887	0.0140237
761.965	0.0141965
762.043	0.0143053
762.121	0.0143468
762.200	0.0145297
762.278	0.0144997
762.356	0.0145891
762.434	0.0146440
762.512	0.0145231
762.590	0.0146957
762.668	0.0146665
762.746	0.0144833
762.825	0.0145477
762.903	0.0145112
762.981	0.0144273
763.059	0.0143682
763.137	0.0142757
763.215	0.0141350
763.293	0.0142142
763.371	0.0141876
763.450	0.0139008
763.528	0.0139686
763.606	0.0138444
763.684	0.0138425
763.762	0.0139795
763.840	0.0139676
763.918	0.0139713
763.996	0.0139233
764.075	0.0139217
764.153	0.0139831
764.231	0.0142879
764.309	0.0143065
764.387	0.0142547
764.465	0.0143880
764.543	0.0143506
764.621	0.0145361
764.700	0.0143968
764.778	0.0144498
764.856	0.0146549
764.934	0.0143707
765.012	0.0145622
765.090	0.0144668
765.168	0.0144945
765.246	0.0145055
765.325	0.0144065
765.403	0.0142688
765.481	0.0141389
765.559	0.0141702
765.637	0.0140044
765.715	0.0140734
765.793	0.0139960
765.871	0.0141205
765.950	0.0141062
766.028	0.0137818
766.106	0.0141246
766.184	0.0140946
766.262	0.0140511
766.340	0.0140616
766.418	0.0141575
766.496	0.0142324
766.575	0.0142357
766.653	0.0143126
766.731	0.0144704
766.809	0.0143220
766.887	0.0144036
766.965	0.0144737
767.043	0.0144055
767.121	0.0144903
767.200	0.0143789
767.278	0.0143716
767.356	0.0142233
767.434	0.0143935
767.512	0.0143220
767.590	0.0142973
767.668	0.0142221
767.746	0.0141520
767.825	0.0142023
767.903	0.0142294
767.981	0.0144397
768.059	0.0142788
768.137	0.0142323
768.215	0.0142085
768.293	0.0142774
768.371	0.0142906
768.450	0.0141630
768.528	0.0142540
768.606	0.0142265
768.684	0.0142153
768.762	0.0142519
768.840	0.0142963
768.918	0.0142340
768.996	0.0143262
769.075	0.0141458
769.153	0.0141179
769.231	0.0141682
769.309	0.0142338
769.387	0.0142654
769.465	0.0142769
769.543	0.0142780
769.621	0.0142009
769.700	0.0143497
769.778	0.0144614
769.856	0.0143282
769.934	0.0142812
770.012	0.0144032
770.090	0.0143207
770.168	0.0144316
770.246	0.0144265
770.325	0.0142402
770.403	0.0142955
770.481	0.0143585
770.559	0.0143062
770.637	0.0143347
770.715	0.0142928
770.793	0.0141656
770.871	0.0141157
770.950	0.0141999
771.028	0.0141558
771.106	0.0141315
771.184	0.0140991
771.262	0.0141343
771.340	0.0142299
771.418	0.0143401
771.496	0.0142111
771.575	0.0141460
771.653	0.0141413
771.731	0.0142611
771.809	0.0142999
771.887	0.0143324
771.965	0.0144157
772.043	0.0143907
772.121	0.0143832
772.200	0.0143504
772.278	0.0144332
772.356	0.0144617
772.434	0.0142873
772.512	0.0144188
772.590	0.0143024
772.668	0.0143539
772.746	0.0143079
772.825	0.0144218
772.903	0.0143661
772.981	0.0142596
773.059	0.0143798
773.137	0.0141636
773.215	0.0143309
773.293	0.0144446
773.371	0.0143726
773.450	0.0141738
773.528	0.0141823
773.606	0.0142273
773.684	0.0141824
773.762	0.0141512
773.840	0.0142309
773.918	0.0143031
773.996	0.0141151
774.075	0.0142572
774.153	0.0142297
774.231	0.0141451
774.309	0.0144134
774.387	0.0144236
774.465	0.0143114
774.543	0.0142770
774.621	0.0143831
774.700	0.0144040
774.778	0.0145295
774.856	0.0143139
774.934	0.0143864
775.012	0.0142713
775.090	0.0143086
775.168	0.0143057
775.246	0.0144234
775.325	0.0144180
775.403	0.0143152
775.481	0.0142123
775.559	0.0142050
775.637	0.0141608
775.715	0.0141965
775.793	0.0142352
775.871	0.0143648
775.950	0.0141967
776.028	0.0142273
776.106	0.0142798
776.184	0.0141864
776.262	0.0143741
776.340	0.0142836
776.418	0.0142003
776.496	0.0141756
776.575	0.0142770
776.653	0.0144153
776.731	0.0143194
776.809	0.0142371
776.887	0.0143691
776.965	0.0143595
777.043	0.0143459
777.121	0.0145144
777.200	0.0144112
777.278	0.0143816
777.356	0.0144634
777.434	0.0143898
777.512	0.0143031
777.590	0.0143504
777.668	0.0142805
777.746	0.0143883
777.825	0.0142828
777.903	0.0142357
777.981	0.0143478
778.059	0.0142893
778.137	0.0141650
778.215	0.0140807
778.293	0.0142033
778.371	0.0143187
778.450	0.0142085
778.528	0.0143600
778.606	0.0142921
778.684	0.0143988
778.762	0.0143439
778.840	0.0142730
778.918	0.0145520
778.996	0.0144869
779.075	0.0143115
779.153	0.0143868
779.231	0.0143805
779.309	0.0144282
779.387	0.0142870
779.465	0.0143147
779.543	0.0142397
779.621	0.0141587
779.700	0.0141982
779.778	0.0141604
779.856	0.0142420
779.934	0.0141884
780.012	0.0141069
780.090	0.0141888
780.168	0.0143117
780.246	0.0142916
780.325	0.0141488
780.403	0.0141329
780.481	0.0141348
780.559	0.0141602
780.637	0.0142990
780.715	0.0142982
780.793	0.0142754
780.871	0.0143351
780.950	0.0142642
781.028	0.0142019
781.106	0.0143315
781.184	0.0143952
781.262	0.0143441
781.340	0.0142440
781.418	0.0140656
781.496	0.0141575
781.575	0.0143104
781.653	0.0143204
781.731	0.0143041
781.809	0.0142060
781.887	0.0141193
781.965	0.0141765
782.043	0.0143055
782.121	0.0142961
782.200	0.0143077
782.278	0.0142337
782.356	0.0141497
782.434	0.0142824
782.512	0.0143848
782.590	0.0142905
782.668	0.0143207
782.746	0.0143037
782.825	0.0143202
782.903	0.0142760
782.981	0.0142876
783.059	0.0142680
783.137	0.0143166
783.215	0.0142599
783.293	0.0141283
783.371	0.0142494
783.450	0.0142529
783.528	0.0142879
783.606	0.0142603
783.684	0.0143754
783.762	0.0142129
783.840	0.0140102
783.918	0.0141805
783.996	0.0143073
784.075	0.0142983
784.153	0.0142377
784.231	0.0142283
784.309	0.0143056
784.387	0.0143464
784.465	0.0143338
784.543	0.0143076
784.621	0.0141703
784.700	0.0144270
784.778	0.0142332
784.856	0.0142313
784.934	0.0141983
785.012	0.0142814
785.090	0.0142242
785.168	0.0143018
785.246	0.0142463
785.325	0.0142436
785.403	0.0142018
785.481	0.0142289
785.559	0.0142324
785.637	0.0143559
785.715	0.0142243
785.793	0.0142706
785.871	0.0143871
785.950	0.0141524
786.028	0.0142757
786.106	0.0142458
786.184	0.0142798
786.262	0.0141853
786.340	0.0141634
786.418	0.0142603
786.496	0.0142309
786.575	0.0143282
786.653	0.0141840
786.731	0.0141227
786.809	0.0141530
786.887	0.0142932
786.965	0.0141735
787.043	0.0142619
787.121	0.0141865
787.200	0.0141134
787.278	0.0142426
787.356	0.0142796
787.434	0.0141803
787.512	0.0143100
787.590	0.0142773
787.668	0.0143133
787.746	0.0144057
787.825	0.0143208
787.903	0.0142233
787.981	0.0143340
788.059	0.0142023
788.137	0.0140898
788.215	0.0142731
788.293	0.0142419
788.371	0.0142434
788.450	0.0142490
788.528	0.0140571
788.606	0.0142873
788.684	0.0143007
788.762	0.0141741
788.840	0.0143826
788.918	0.0142227
788.996	0.0142105
789.075	0.0141174
789.153	0.0142253
789.231	0.0142757
789.309	0.0141869
789.387	0.0142452
789.465	0.0142593
789.543	0.0143481
789.621	0.0143016
789.700	0.0142227
789.778	0.0143316
789.856	0.0142490
789.934	0.0142196
790.012	0.0143154
790.090	0.0143273
790.168	0.0142814
790.246	0.0142288
790.325	0.0142722
790.403	0.0142532
790.481	0.0142365
790.559	0.0141551
790.637	0.0141460
790.715	0.0141320
790.793	0.0142031
790.871	0.0140790
790.950	0.0142699
791.028	0.0141609
791.106	0.0141724
791.184	0.0142134
791.262	0.0142915
791.340	0.0143375
791.418	0.0143922
791.496	0.0144092
791.575	0.0143925
791.653	0.0143200
791.731	0.0142991
791.809	0.0142341
791.887	0.0142722
791.965	0.0142223
792.043	0.0141344
792.121	0.0142699
792.200	0.0142426
792.278	0.0141347
792.356	0.0141898
792.434	0.0140084
792.512	0.0141385
792.590	0.0141885
792.668	0.0141859
792.746	0.0141612
792.825	0.0140914
792.903	0.0141320
792.981	0.0141441
793.059	0.0141686
793.137	0.0142737
793.215	0.0143097
793.293	0.0143142
793.371	0.0143335
793.450	0.0142965
793.528	0.0143404
793.606	0.0143414
793.684	0.0143623
793.762	0.0145435
793.840	0.0145583
793.918	0.0142838
793.996	0.0142560
794.075	0.0143739
794.153	0.0141689
794.231	0.0141911
794.309	0.0143121
794.387	0.0142964
794.465	0.0141943
794.543	0.0142264
794.621	0.0142915
794.700	0.0141078
794.778	0.0141439
794.856	0.0143313
794.934	0.0143327
795.012	0.0142089
795.090	0.0141929
795.168	0.0142601
795.246	0.0142722
795.325	0.0143238
795.403	0.0142422
795.481	0.0144071
795.559	0.0143101
795.637	0.0142059
795.715	0.0142071
795.793	0.0141499
795.871	0.0141850
795.950	0.0142218
796.028	0.0141675
796.106	0.0142444
796.184	0.0142040
796.262	0.0142049
796.340	0.0143678
796.418	0.0142538
796.496	0.0141872
796.575	0.0142883
796.653	0.0143111
796.731	0.0143257
796.809	0.0143608
796.887	0.0142052
796.965	0.0143587
797.043	0.0143538
797.121	0.0143428
797.200	0.0141477
797.278	0.0143365
797.356	0.0142959
797.434	0.0142988
797.512	0.0142410
797.590	0.0143237
797.668	0.0141722
797.746	0.0142169
797.825	0.0142560
797.903	0.0142284
797.981	0.0143007
798.059	0.0143158
798.137	0.0144733
798.215	0.0142211
798.293	0.0142278
798.371	0.0143697
798.450	0.0142438
798.528	0.0142735
798.606	0.0143718
798.684	0.0143115
798.762	0.0144523
798.840	0.0143840
798.918	0.0141304
798.996	0.0142149
799.075	0.0141922
799.153	0.0142001
799.231	0.0143067
799.309	0.0143266
799.387	0.0142314
799.465	0.0142940
799.543	0.0142651
799.621	0.0142892
799.700	0.0141193
799.778	0.0142187
799.856	0.0142237
799.934	0.0142175
800.012	0.0142248
800.090	0.0142709
800.168	0.0141061
800.246	0.0142484
800.325	0.0143509
800.403	0.0142090
800.481	0.0141125
800.559	0.0141906
800.637	0.0143970
800.715	0.0143150
800.793	0.0142027
800.871	0.0141393
800.950	0.0142196
801.028	0.0143171
801.106	0.0142392
801.184	0.0142435
801.262	0.0143235
801.340	0.0142708
801.418	0.0140774
801.496	0.0141429
801.575	0.0141808
801.653	0.0142619
801.731	0.0141722
801.809	0.0142310
801.887	0.0142291
801.965	0.0142158
802.043	0.0143095
802.121	0.0143056
802.200	0.0142924
802.278	0.0142727
802.356	0.0144414
802.434	0.0142986
802.512	0.0141921
802.590	0.0143442
802.668	0.0142072
802.746	0.0142286
802.825	0.0143494
802.903	0.0142249
802.981	0.0142928
803.059	0.0142909
803.137	0.0142859
803.215	0.0142691
803.293	0.0144282
803.371	0.0143109
803.450	0.0142265
803.528	0.0141903
803.606	0.0142609
803.684	0.0142435
803.762	0.0141700
803.840	0.0142332
803.918	0.0143047
803.996	0.0143317
804.075	0.0141841
804.153	0.0142650
804.231	0.0143985
804.309	0.0142097
804.387	0.0141429
804.465	0.0141443
804.543	0.0141487
804.621	0.0142709
804.700	0.0143702
804.778	0.0141667
804.856	0.0141216
804.934	0.0142084
805.012	0.0142567
805.090	0.0141398
805.168	0.0142519
805.246	0.0143733
805.325	0.0142233
805.403	0.0140812
805.481	0.0142005
805.559	0.0141625
805.637	0.0143402
805.715	0.0143051
805.793	0.0142043
805.871	0.0142922
805.950	0.0143000
806.028	0.0143668
806.106	0.0143136
806.184	0.0142622
806.262	0.0144234
806.340	0.0143412
806.418	0.0142715
806.496	0.0142343
806.575	0.0142292
806.653	0.0141457
806.731	0.0143377
806.809	0.0142301
806.887	0.0141818
806.965	0.0140184
807.043	0.0141805
807.121	0.0142432
807.200	0.0143447
807.278	0.0141484
807.356	0.0142677
807.434	0.0142156
807.512	0.0141775
807.590	0.0142575
807.668	0.0143377
807.746	0.0143104
807.825	0.0141951
807.903	0.0141416
807.981	0.0142795
808.059	0.0143126
808.137	0.0142841
808.215	0.0144347
808.293	0.0144229
808.371	0.0143482
808.450	0.0143381
808.528	0.0143127
808.606	0.0143025
808.684	0.0143847
808.762	0.0143479
808.840	0.0142847
808.918	0.0144172
808.996	0.0143241
809.075	0.0143373
809.153	0.0143024
809.231	0.0142180
809.309	0.0144902
809.387	0.0142942
809.465	0.0142110
809.543	0.0141987
809.621	0.0141871
809.700	0.0142987
809.778	0.0142562
809.856	0.0140652
809.934	0.0142224
810.012	0.0142631
810.090	0.0142747
810.168	0.0141626
810.246	0.0141997
810.325	0.0142500
810.403	0.0142615
810.481	0.0142441
810.559	0.0141627
810.637	0.0143292
810.715	0.0141372
810.793	0.0141015
810.871	0.0142144
810.950	0.0141733
811.028	0.0142390
811.106	0.0142381
811.184	0.0142188
811.262	0.0139979
811.340	0.0141503
811.418	0.0141741
811.496	0.0139282
811.575	0.0142117
811.653	0.0141974
811.731	0.0141622
811.809	0.0141401
811.887	0.0143094
811.965	0.0142438
812.043	0.0142294
812.121	0.0142231
812.200	0.0143957
812.278	0.0143290
812.356	0.0142603
812.434	0.0143632
812.512	0.0142489
812.590	0.0141759
812.668	0.0142166
812.746	0.0142896
812.825	0.0141332
812.903	0.0142767
812.981	0.0142136
813.059	0.0141992
813.137	0.0143619
813.215	0.0142930
813.293	0.0142756
813.371	0.0142510
813.450	0.0143013
813.528	0.0142812
813.606	0.0141118
813.684	0.0141399
813.762	0.0143658
813.840	0.0141716
813.918	0.0141537
813.996	0.0141883
814.075	0.0140250
814.153	0.0141203
814.231	0.0141216
814.309	0.0141599
814.387	0.0142267
814.465	0.0141002
814.543	0.0141949
814.621	0.0143396
814.700	0.0142604
814.778	0.0142239
814.856	0.0142902
814.934	0.0142566
815.012	0.0143366
815.090	0.0143678
815.168	0.0142924
815.246	0.0141355
815.325	0.0142637
815.403	0.0142951
815.481	0.0143230
815.559	0.0141253
815.637	0.0142068
815.715	0.0141216
815.793	0.0141033
815.871	0.0141405
815.950	0.0142515
816.028	0.0142148
816.106	0.0141801
816.184	0.0143546
816.262	0.0140891
816.340	0.0143407
816.418	0.0142612
816.496	0.0142764
816.575	0.0141723
816.653	0.0141676
816.731	0.0142751
816.809	0.0141888
816.887	0.0141371
816.965	0.0141615
817.043	0.0143118
817.121	0.0142151
817.200	0.0141199
817.278	0.0141669
817.356	0.0142690
817.434	0.0141789
817.512	0.0141988
817.590	0.0143528
817.668	0.0142883
817.746	0.0142197
817.825	0.0142557
817.903	0.0143134
817.981	0.0143148
818.059	0.0143848
818.137	0.0142819
818.215	0.0145494
818.293	0.0145000
818.371	0.0142554
818.450	0.0142722
818.528	0.0143076
818.606	0.0143300
818.684	0.0143009
818.762	0.0144021
818.840	0.0142796
818.918	0.0142839
818.996	0.0142453
819.075	0.0143300
819.153	0.0143736
819.231	0.0143034
819.309	0.0142546
819.387	0.0143353
819.465	0.0142807
819.543	0.0143274
819.621	0.0143896
819.700	0.0143923
819.778	0.0142964
819.856	0.0143810
819.934	0.0143643
820.012	0.0143038
820.090	0.0143190
820.168	0.0145592
820.246	0.0144590
820.325	0.0142560
820.403	0.0145396
820.481	0.0143944
820.559	0.0143597
820.637	0.0145354
820.715	0.0142912
820.793	0.0144055
820.871	0.0145045
820.950	0.0142549
821.028	0.0143459
821.106	0.0142054
821.184	0.0142795
821.262	0.0144173
821.340	0.0143465
821.418	0.0141932
821.496	0.0142542
821.575	0.0143180
821.653	0.0142527
821.731	0.0142854
821.809	0.0142576
821.887	0.0141584
821.965	0.0141570
822.043	0.0141817
822.121	0.0141901
822.200	0.0140915
822.278	0.0141333
822.356	0.0141523
822.434	0.0142657
822.512	0.0141628
822.590	0.0141633
822.668	0.0142771
822.746	0.0141730
822.825	0.0141619
822.903	0.0141889
822.981	0.0142622
823.059	0.0142697
823.137	0.0142544
823.215	0.0142946
823.293	0.0142768
823.371	0.0142217
823.450	0.0143462
823.528	0.0142372
823.606	0.0142093
823.684	0.0142332
823.762	0.0142673
823.840	0.0142152
823.918	0.0141864
823.996	0.0142083
824.075	0.0140707
824.153	0.0141021
824.231	0.0141409
824.309	0.0141647
824.387	0.0141600
824.465	0.0141691
824.543	0.0141846
824.621	0.0143572
824.700	0.0142082
824.778	0.0142300
824.856	0.0141611
824.934	0.0142013
825.012	0.0141889
825.090	0.0141791
825.168	0.0142825
825.246	0.0142096
825.325	0.0141927
825.403	0.0143661
825.481	0.0141978
825.559	0.0142294
825.637	0.0142275
825.715	0.0142290
825.793	0.0141146
825.871	0.0142439
825.950	0.0143228
826.028	0.0143458
826.106	0.0142371
826.184	0.0144452
826.262	0.0142765
826.340	0.0141865
826.418	0.0142748
826.496	0.0142525
826.575	0.0143514
826.653	0.0142370
826.731	0.0143571
826.809	0.0143192
826.887	0.0142947
826.965	0.0142519
827.043	0.0142433
827.121	0.0143027
827.200	0.0142189
827.278	0.0142433
827.356	0.0141900
827.434	0.0141602
827.512	0.0141671
827.590	0.0142665
827.668	0.0142020
827.746	0.0142908
827.825	0.0142535
827.903	0.0142890
827.981	0.0142632
828.059	0.0141973
828.137	0.0142422
828.215	0.0142464
828.293	0.0143409
828.371	0.0142002
828.450	0.0142788
828.528	0.0142411
828.606	0.0141972
828.684	0.0142309
828.762	0.0142414
828.840	0.0142136
828.918	0.0140601
828.996	0.0141225
829.075	0.0141319
829.153	0.0141537
829.231	0.0141857
829.309	0.0142044
829.387	0.0143510
829.465	0.0141419
829.543	0.0141933
829.621	0.0141082
829.700	0.0142411
829.778	0.0143488
829.856	0.0140137
829.934	0.0141561
830.012	0.0142400
830.090	0.0141047
830.168	0.0141608
830.246	0.0142638
830.325	0.0142789
830.403	0.0141503
830.481	0.0141769
830.559	0.0143166
830.637	0.0141325
830.715	0.0142185
830.793	0.0143266
830.871	0.0142633
830.950	0.0142988
831.028	0.0141517
831.106	0.0142635
831.184	0.0143546
831.262	0.0142690
831.340	0.0142995
831.418	0.0143367
831.496	0.0142470
831.575	0.0142751
831.653	0.0142522
831.731	0.0142654
831.809	0.0141941
831.887	0.0142261
831.965	0.0141942
832.043	0.0142437
832.121	0.0143304
832.200	0.0142682
832.278	0.0143066
832.356	0.0142179
832.434	0.0143118
832.512	0.0142049
832.590	0.0142458
832.668	0.0142722
832.746	0.0143518
832.825	0.0141697
832.903	0.0143802
832.981	0.0142104
833.059	0.0142294
833.137	0.0142529
833.215	0.0141950
833.293	0.0141427
833.371	0.0141542
833.450	0.0142181
833.528	0.0142393
833.606	0.0142188
833.684	0.0141310
833.762	0.0142312
833.840	0.0140861
833.918	0.0142138
833.996	0.0141586
834.075	0.0141102
834.153	0.0140421
834.231	0.0143021
834.309	0.0141879
834.387	0.0142666
834.465	0.0141658
834.543	0.0142167
834.621	0.0143704
834.700	0.0144358
834.778	0.0142222
834.856	0.0143688
834.934	0.0142993
835.012	0.0142478
835.090	0.0143707
835.168	0.0143227
835.246	0.0143739
835.325	0.0143039
835.403	0.0142474
835.481	0.0141621
835.559	0.0141197
835.637	0.0140034
835.715	0.0141384
835.793	0.0142370
835.871	0.0142780
835.950	0.0142175
836.028	0.0142495
836.106	0.0141094
836.184	0.0142735
836.262	0.0141621
836.340	0.0141755
836.418	0.0141591
836.496	0.0141747
836.575	0.0142110
836.653	0.0142334
836.731	0.0143522
836.809	0.0142181
836.887	0.0142178
836.965	0.0143633
837.043	0.0142759
837.121	0.0142986
837.200	0.0143842
837.278	0.0143346
837.356	0.0143911
837.434	0.0144532
837.512	0.0143053
837.590	0.0142472
837.668	0.0143163
837.746	0.0142772
837.825	0.0143249
837.903	0.0142310
837.981	0.0142052
838.059	0.0140351
838.137	0.0142226
838.215	0.0142191
838.293	0.0141646
838.371	0.0141543
838.450	0.0143129
838.528	0.0143484
838.606	0.0141254
838.684	0.0142512
838.762	0.0142648
838.840	0.0142339
838.918	0.0141413
838.996	0.0142504
839.075	0.0143082
839.153	0.0142660
839.231	0.0143507
839.309	0.0142362
839.387	0.0144044
839.465	0.0143320
839.543	0.0143434
839.621	0.0144043
839.700	0.0144556
839.778	0.0143993
839.856	0.0143079
839.934	0.0143683
840.012	0.0142480
840.090	0.0143938
840.168	0.0144514
840.246	0.0142274
840.325	0.0142044
840.403	0.0142750
840.481	0.0142950
840.559	0.0142314
840.637	0.0142924
840.715	0.0141616
840.793	0.0143257
840.871	0.0142917
840.950	0.0144063
841.028	0.0143832
841.106	0.0143224
841.184	0.0145091
841.262	0.0143799
841.340	0.0144453
841.418	0.0143399
841.496	0.0143815
841.575	0.0142496
841.653	0.0144741
841.731	0.0144963
841.809	0.0143035
841.887	0.0143693
841.965	0.0142082
842.043	0.0142617
842.121	0.0143037
842.200	0.0141475
842.278	0.0141125
842.356	0.0140399
842.434	0.0141759
842.512	0.0141415
842.590	0.0141872
842.668	0.0140620
842.746	0.0142372
842.825	0.0143134
842.903	0.0143262
842.981	0.0141709
843.059	0.0144942
843.137	0.0144334
843.215	0.0143620
843.293	0.0142706
843.371	0.0144987
843.450	0.0143089
843.528	0.0142831
843.606	0.0144263
843.684	0.0144080
843.762	0.0141759
843.840	0.0141436
843.918	0.0140768
843.996	0.0142346
844.075	0.0141708
844.153	0.0140849
844.231	0.0142776
844.309	0.0142428
844.387	0.0142053
844.465	0.0141725
844.543	0.0141231
844.621	0.0141821
844.700	0.0142944
844.778	0.0143692
844.856	0.0144832
844.934	0.0143842
845.012	0.0144604
845.090	0.0143684
845.168	0.0143649
845.246	0.0142156
845.325	0.0142325
845.403	0.0144777
845.481	0.0143172
845.559	0.0143041
845.637	0.0143078
845.715	0.0143034
845.793	0.0141219
845.871	0.0141589
845.950	0.0142538
846.028	0.0141419
846.106	0.0141748
846.184	0.0142447
846.262	0.0141556
846.340	0.0141092
846.418	0.0141235
846.496	0.0142555
846.575	0.0143222
846.653	0.0142506
846.731	0.0143224
846.809	0.0142307
846.887	0.0143970
846.965	0.0143129
847.043	0.0143929
847.121	0.0143690
847.200	0.0144361
847.278	0.0143946
847.356	0.0141845
847.434	0.0143094
847.512	0.0143199
847.590	0.0143211
847.668	0.0142940
847.746	0.0143227
847.825	0.0142486
847.903	0.0141454
847.981	0.0141216
848.059	0.0142244
848.137	0.0142458
848.215	0.0141903
848.293	0.0142048
848.371	0.0141464
848.450	0.0142365
848.528	0.0141814
848.606	0.0142423
848.684	0.0142316
848.762	0.0142962
848.840	0.0142040
848.918	0.0143076
848.996	0.0145159
849.075	0.0145302
849.153	0.0144339
849.231	0.0144386
849.309	0.0143629
849.387	0.0145010
849.465	0.0144854
849.543	0.0142543
849.621	0.0143127
849.700	0.0143143
849.778	0.0142285
849.856	0.0142143
849.934	0.0142471
850.012	0.0141537
850.090	0.0140730
850.168	0.0141253
850.246	0.0141911
850.325	0.0142040
850.403	0.0142295
850.481	0.0141805
850.559	0.0142793
850.637	0.0141357
850.715	0.0143704
850.793	0.0143109
850.871	0.0142294
850.950	0.0142998
851.028	0.0143233
851.106	0.0142160
851.184	0.0143178
851.262	0.0143293
851.340	0.0143096
851.418	0.0143420
851.496	0.0143111
851.575	0.0142284
851.653	0.0142946
851.731	0.0143087
851.809	0.0142306
851.887	0.0141505
851.965	0.0141676
852.043	0.0142882
852.121	0.0141743
852.200	0.0141700
852.278	0.0141636
852.356	0.0140980
852.434	0.0142268
852.512	0.0142086
852.590	0.0140335
852.668	0.0143001
852.746	0.0141771
852.825	0.0141190
852.903	0.0141460
852.981	0.0143388
853.059	0.0141717
853.137	0.0143842
853.215	0.0143432
853.293	0.0142568
853.371	0.0143861
853.450	0.0141772
853.528	0.0142048
853.606	0.0143431
853.684	0.0142290
853.762	0.0142747
853.840	0.0143731
853.918	0.0143298
853.996	0.0143295
854.075	0.0143454
854.153	0.0142611
854.231	0.0142595
854.309	0.0143420
854.387	0.0140940
854.465	0.0140281
854.543	0.0142867
854.621	0.0142387
854.700	0.0141750
854.778	0.0142643
854.856	0.0144350
854.934	0.0142989
855.012	0.0143262
855.090	0.0144182
855.168	0.0143513
855.246	0.0143677
855.325	0.0143927
855.403	0.0143700
855.481	0.0143303
855.559	0.0143402
855.637	0.0143932
855.715	0.0143902
855.793	0.0144628
855.871	0.0142971
855.950	0.0143102
856.028	0.0144557
856.106	0.0144159
856.184	0.0143612
856.262	0.0143575
856.340	0.0142355
856.418	0.0141630
856.496	0.0142496
856.575	0.0143182
856.653	0.0142387
856.731	0.0141230
856.809	0.0141941
856.887	0.0142985
856.965	0.0143110
857.043	0.0143246
857.121	0.0143227
857.200	0.0143226
857.278	0.0143002
857.356	0.0143591
857.434	0.0142157
857.512	0.0144088
857.590	0.0141425
857.668	0.0140810
857.746	0.0142216
857.825	0.0143271
857.903	0.0143064
857.981	0.0143148
858.059	0.0141829
858.137	0.0141620
858.215	0.0143093
858.293	0.0142221
858.371	0.0141120
858.450	0.0142274
858.528	0.0141962
858.606	0.0143163
858.684	0.0141542
858.762	0.0142142
858.840	0.0141290
858.918	0.0141755
858.996	0.0142290
859.075	0.0140986
859.153	0.0142903
859.231	0.0141685
859.309	0.0141731
859.387	0.0142101
859.465	0.0142326
859.543	0.0141253
859.621	0.0142017
859.700	0.0141731
859.778	0.0141663
859.856	0.0142925
859.934	0.0142608
860.012	0.0141730
860.090	0.0141479
860.168	0.0142960
860.246	0.0142738
860.325	0.0142002
860.403	0.0142213
860.481	0.0143297
860.559	0.0142623
860.637	0.0143124
860.715	0.0142524
860.793	0.0142029
860.871	0.0142868
860.950	0.0142245
861.028	0.0142222
861.106	0.0142480
861.184	0.0140861
861.262	0.0142162
861.340	0.0141784
861.418	0.0142823
861.496	0.0142161
861.575	0.0142548
861.653	0.0142636
861.731	0.0141553
861.809	0.0141713
861.887	0.0142081
861.965	0.0143025
862.043	0.0142442
862.121	0.0142669
862.200	0.0142455
862.278	0.0141301
862.356	0.0141978
862.434	0.0141770
862.512	0.0142376
862.590	0.0142049
862.668	0.0143483
862.746	0.0142010
862.825	0.0141546
862.903	0.0142536
862.981	0.0141796
863.059	0.0142125
863.137	0.0141718
863.215	0.0142294
863.293	0.0142452
863.371	0.0142563
863.450	0.0141615
863.528	0.0141478
863.606	0.0142710
863.684	0.0141708
863.762	0.0142893
863.840	0.0142358
863.918	0.0142999
863.996	0.0142541
864.075	0.0141240
864.153	0.0142072
864.231	0.0141457
864.309	0.0141592
864.387	0.0141546
864.465	0.0143707
864.543	0.0142339
864.621	0.0141861
864.700	0.0141516
864.778	0.0141512
864.856	0.0143254
864.934	0.0142131
865.012	0.0141985
865.090	0.0142210
865.168	0.0142120
865.246	0.0142371
865.325	0.0142988
865.403	0.0142163
865.481	0.0143065
865.559	0.0143663
865.637	0.0143433
865.715	0.0143014
865.793	0.0141788
865.871	0.0142212
865.950	0.0142005
866.028	0.0142908
866.106	0.0141837
866.184	0.0143258
866.262	0.0142562
866.340	0.0142858
866.418	0.0143400
866.496	0.0141666
866.575	0.0143150
866.653	0.0141555
866.731	0.0142646
866.809	0.0142815
866.887	0.0142944
866.965	0.0142665
867.043	0.0142957
867.121	0.0142789
867.200	0.0141841
867.278	0.0142839
867.356	0.0144189
867.434	0.0143012
867.512	0.0141676
867.590	0.0143102
867.668	0.0142724
867.746	0.0141799
867.825	0.0143455
867.903	0.0142197
867.981	0.0142435
868.059	0.0142899
868.137	0.0143517
868.215	0.0142078
868.293	0.0142362
868.371	0.0142339
868.450	0.0142796
868.528	0.0141449
868.606	0.0142399
868.684	0.0142479
868.762	0.0142838
868.840	0.0142683
868.918	0.0141016
868.996	0.0142630
869.075	0.0142786
869.153	0.0141506
869.231	0.0140862
869.309	0.0142843
869.387	0.0142808
869.465	0.0141900
869.543	0.0143472
869.621	0.0142721
869.700	0.0142075
869.778	0.0142921
869.856	0.0142203
869.934	0.0141194
870.012	0.0141863
870.090	0.0142264
870.168	0.0142251
870.246	0.0142455
870.325	0.0142298
870.403	0.0141539
870.481	0.0142068
870.559	0.0142709
870.637	0.0141730
870.715	0.0142341
870.793	0.0141553
870.871	0.0142809
870.950	0.0143379
871.028	0.0142161
871.106	0.0143621
871.184	0.0143050
871.262	0.0142712
871.340	0.0142269
871.418	0.0141442
871.496	0.0142096
871.575	0.0142342
871.653	0.0142052
871.731	0.0143249
871.809	0.0141962
871.887	0.0142207
871.965	0.0142353
872.043	0.0141940
872.121	0.0142278
872.200	0.0140859
872.278	0.0142149
872.356	0.0142996
872.434	0.0142359
872.512	0.0141735
872.590	0.0141990
872.668	0.0143788
872.746	0.0141663
872.825	0.0142292
872.903	0.0142949
872.981	0.0142261
873.059	0.0142484
873.137	0.0143062
873.215	0.0141512
873.293	0.0141941
873.371	0.0143022
873.450	0.0144015
873.528	0.0142496
873.606	0.0142248
873.684	0.0141705
873.762	0.0143362
873.840	0.0140180
873.918	0.0141448
873.996	0.0142960
874.075	0.0141866
874.153	0.0141940
874.231	0.0141321
874.309	0.0141180
874.387	0.0142846
874.465	0.0141850
874.543	0.0143428
874.621	0.0142593
874.700	0.0142398
874.778	0.0142448
874.856	0.0142696
874.934	0.0143668
875.012	0.0142286
875.090	0.0142182
875.168	0.0142813
875.246	0.0141798
875.325	0.0143061
875.403	0.0143186
875.481	0.0142447
875.559	0.0142013
875.637	0.0141933
875.715	0.0142422
875.793	0.0143041
875.871	0.0142427
875.950	0.0142936
876.028	0.0141928
876.106	0.0143398
876.184	0.0141709
876.262	0.0141438
876.340	0.0142247
876.418	0.0143020
876.496	0.0143397
876.575	0.0142542
876.653	0.0143427
876.731	0.0141580
876.809	0.0141787
876.887	0.0141111
876.965	0.0143314
877.043	0.0142017
877.121	0.0142823
877.200	0.0143069
877.278	0.0142870
877.356	0.0143228
877.434	0.0143239
877.512	0.0141801
877.590	0.0142083
877.668	0.0142247
877.746	0.0142793
877.825	0.0142859
877.903	0.0142690
877.981	0.0143157
878.059	0.0141739
878.137	0.0141090
878.215	0.0141145
878.293	0.0142226
878.371	0.0140911
878.450	0.0140558
878.528	0.0141412
878.606	0.0142503
878.684	0.0142352
878.762	0.0140964
878.840	0.0142165
878.918	0.0142599
878.996	0.0142250
879.075	0.0141634
879.153	0.0142813
879.231	0.0142668
879.309	0.0143700
879.387	0.0144393
879.465	0.0143156
879.543	0.0142165
879.621	0.0143066
879.700	0.0141830
879.778	0.0142252
879.856	0.0143028
879.934	0.0142393
880.012	0.0141192
880.090	0.0141786
880.168	0.0141644
880.246	0.0141868
880.325	0.0140773
880.403	0.0141666
880.481	0.0141412
880.559	0.0140635
880.637	0.0141142
880.715	0.0141656
880.793	0.0142636
880.871	0.0142670
880.950	0.0141022
881.028	0.0141587
881.106	0.0143278
881.184	0.0142857
881.262	0.0141889
881.340	0.0141836
881.418	0.0141241
881.496	0.0143443
881.575	0.0143540
881.653	0.0143074
881.731	0.0143459
881.809	0.0142797
881.887	0.0141911
881.965	0.0143474
882.043	0.0142097
882.121	0.0141846
882.200	0.0141572
882.278	0.0141369
882.356	0.0142318
882.434	0.0140500
882.512	0.0141529
882.590	0.0141237
882.668	0.0142350
882.746	0.0142348
882.825	0.0142289
882.903	0.0142630
882.981	0.0141936
883.059	0.0142596
883.137	0.0142948
883.215	0.0143497
883.293	0.0142712
883.371	0.0143176
883.450	0.0141830
883.528	0.0143272
883.606	0.0143687
883.684	0.0143861
883.762	0.0142391
883.840	0.0142349
883.918	0.0140452
883.996	0.0142751
884.075	0.0143067
884.153	0.0143833
884.231	0.0142592
884.309	0.0141814
884.387	0.0141476
884.465	0.0143393
884.543	0.0142129
884.621	0.0141768
884.700	0.0141113
884.778	0.0142541
884.856	0.0141325
884.934	0.0142377
885.012	0.0142669
885.090	0.0142323
885.168	0.0142872
885.246	0.0142286
885.325	0.0141109
885.403	0.0142400
885.481	0.0142122
885.559	0.0142427
885.637	0.0142361
885.715	0.0142310
885.793	0.0141936
885.871	0.0143809
885.950	0.0142968
886.028	0.0142222
886.106	0.0142101
886.184	0.0141299
886.262	0.0141533
886.340	0.0141660
886.418	0.0141165
886.496	0.0141659
886.575	0.0141089
886.653	0.0142113
886.731	0.0141223
886.809	0.0142200
886.887	0.0140288
886.965	0.0141611
887.043	0.0140966
887.121	0.0141548
887.200	0.0142152
887.278	0.0141127
887.356	0.0143282
887.434	0.0141806
887.512	0.0142279
887.590	0.0143192
887.668	0.0142434
887.746	0.0141788
887.825	0.0143029
887.903	0.0143117
887.981	0.0142287
888.059	0.0142265
888.137	0.0141545
888.215	0.0141506
888.293	0.0140343
888.371	0.0140508
888.450	0.0140838
888.528	0.0140868
888.606	0.0141607
888.684	0.0140941
888.762	0.0142874
888.840	0.0143259
888.918	0.0141906
888.996	0.0141055
889.075	0.0142268
889.153	0.0142332
889.231	0.0142165
889.309	0.0142445
889.387	0.0141804
889.465	0.0142818
889.543	0.0141626
889.621	0.0141542
889.700	0.0142288
889.778	0.0141316
889.856	0.0142162
889.934	0.0142586
890.012	0.0143757
890.090	0.0141714
890.168	0.0141903
890.246	0.0142659
890.325	0.0142625
890.403	0.0142262
890.481	0.0142184
890.559	0.0142096
890.637	0.0143117
890.715	0.0142905
890.793	0.0142908
890.871	0.0142885
890.950	0.0143000
891.028	0.0141418
891.106	0.0141998
891.184	0.0140858
891.262	0.0142629
891.340	0.0143420
891.418	0.0142593
891.496	0.0141618
891.575	0.0142390
891.653	0.0141929
891.731	0.0143272
891.809	0.0142032
891.887	0.0141323
891.965	0.0143088
892.043	0.0142885
892.121	0.0142601
892.200	0.0142723
892.278	0.0143396
892.356	0.0141489
892.434	0.0141389
892.512	0.0141944
892.590	0.0142067
892.668	0.0143096
892.746	0.0143359
892.825	0.0142205
892.903	0.0141048
892.981	0.0141159
893.059	0.0141928
893.137	0.0141248
893.215	0.0142277
893.293	0.0142219
893.371	0.0142663
893.450	0.0142426
893.528	0.0142319
893.606	0.0140582
893.684	0.0143307
893.762	0.0142736
893.840	0.0142817
893.918	0.0141587
893.996	0.0141191
894.075	0.0141388
894.153	0.0142378
894.231	0.0142262
894.309	0.0140006
894.387	0.0140926
894.465	0.0141072
894.543	0.0142941
894.621	0.0141277
894.700	0.0140134
894.778	0.0141160
894.856	0.0141441
894.934	0.0140760
895.012	0.0139815
895.090	0.0141123
895.168	0.0141370
895.246	0.0142597
895.325	0.0141057
895.403	0.0142106
895.481	0.0142156
895.559	0.0142008
895.637	0.0140868
895.715	0.0142464
895.793	0.0142012
895.871	0.0141234
895.950	0.0142192
896.028	0.0141570
896.106	0.0142329
896.184	0.0141340
896.262	0.0140359
896.340	0.0140627
896.418	0.0141261
896.496	0.0141039
896.575	0.0139136
896.653	0.0140039
896.731	0.0140611
896.809	0.0139719
896.887	0.0140193
896.965	0.0140455
897.043	0.0141622
897.121	0.0140839
897.200	0.0140907
897.278	0.0140826
897.356	0.0141250
897.434	0.0140958
897.512	0.0142056
897.590	0.0141585
897.668	0.0141322
897.746	0.0142138
897.825	0.0143062
897.903	0.0142899
897.981	0.0142031
898.059	0.0142610
898.137	0.0143869
898.215	0.0142735
898.293	0.0142667
898.371	0.0142410
898.450	0.0142369
898.528	0.0141727
898.606	0.0141370
898.684	0.0141384
898.762	0.0140815
898.840	0.0141469
898.918	0.0142490
898.996	0.0142213
899.075	0.0142129
899.153	0.0140957
899.231	0.0141504
899.309	0.0142709
899.387	0.0141557
899.465	0.0142230
899.543	0.0142245
899.621	0.0141151
899.700	0.0141971
899.778	0.0143583
899.856	0.0142760
899.934	0.0142567
900.012	0.0142699
900.090	0.0143093
900.168	0.0143339
900.246	0.0142979
900.325	0.0142075
900.403	0.0142654
900.481	0.0142933
900.559	0.0142577
900.637	0.0142168
900.715	0.0143284
900.793	0.0143484
900.871	0.0140479
900.950	0.0141814
901.028	0.0142556
901.106	0.0144427
901.184	0.0141987
901.262	0.0141083
901.340	0.0142249
901.418	0.0142880
901.496	0.0142784
901.575	0.0142120
901.653	0.0143098
901.731	0.0144031
901.809	0.0142826
901.887	0.0142638
901.965	0.0142974
902.043	0.0142923
902.121	0.0143587
902.200	0.0142528
902.278	0.0142156
902.356	0.0141750
902.434	0.0141171
902.512	0.0141570
902.590	0.0142149
902.668	0.0143390
902.746	0.0142992
902.825	0.0142978
902.903	0.0143378
902.981	0.0143846
903.059	0.0141882
903.137	0.0142883
903.215	0.0143105
903.293	0.0142606
903.371	0.0142432
903.450	0.0142251
903.528	0.0142309
903.606	0.0143375
903.684	0.0142207
903.762	0.0141660
903.840	0.0141794
903.918	0.0141151
903.996	0.0140231
904.075	0.0141910
904.153	0.0142944
904.231	0.0140971
904.309	0.0142438
904.387	0.0142604
904.465	0.0143065
904.543	0.0143259
904.621	0.0143056
904.700	0.0142065
904.778	0.0141933
904.856	0.0141747
904.934	0.0142868
905.012	0.0142432
905.090	0.0141891
905.168	0.0141272
905.246	0.0141005
905.325	0.0142956
905.403	0.0142456
905.481	0.0141537
905.559	0.0141049
905.637	0.0141827
905.715	0.0142451
905.793	0.0142354
905.871	0.0143488
905.950	0.0142506
906.028	0.0143475
906.106	0.0143575
906.184	0.0143491
906.262	0.0142966
906.340	0.0141541
906.418	0.0141932
906.496	0.0141306
906.575	0.0142400
906.653	0.0141365
906.731	0.0141577
906.809	0.0141859
906.887	0.0141004
906.965	0.0141456
907.043	0.0141645
907.121	0.0140415
907.200	0.0142221
907.278	0.0143486
907.356	0.0144382
907.434	0.0145890
907.512	0.0144128
907.590	0.0142491
907.668	0.0144209
907.746	0.0144373
907.825	0.0142891
907.903	0.0143183
907.981	0.0142895
908.059	0.0143007
908.137	0.0141426
908.215	0.0142101
908.293	0.0140468
908.371	0.0140253
908.450	0.0140524
908.528	0.0140986
908.606	0.0141273
908.684	0.0140461
908.762	0.0140312
908.840	0.0141054
908.918	0.0140739
908.996	0.0142468
909.075	0.0141445
909.153	0.0142773
909.231	0.0142832
909.309	0.0142495
909.387	0.0142861
909.465	0.0142069
909.543	0.0141745
909.621	0.0143633
909.700	0.0141833
909.778	0.0141350
909.856	0.0141772
909.934	0.0142474
910.012	0.0143485
910.090	0.0141964
910.168	0.0142202
910.246	0.0142466
910.325	0.0141682
910.403	0.0142458
910.481	0.0141194
910.559	0.0142669
910.637	0.0142760
910.715	0.0142606
910.793	0.0141991
910.871	0.0142126
910.950	0.0142085
911.028	0.0143459
911.106	0.0141685
911.184	0.0141996
911.262	0.0142194
911.340	0.0142292
911.418	0.0143230
911.496	0.0140893
911.575	0.0141216
911.653	0.0142761
911.731	0.0143462
911.809	0.0143365
911.887	0.0143898
911.965	0.0144547
912.043	0.0142975
912.121	0.0144338
912.200	0.0144139
912.278	0.0144344
912.356	0.0142558
912.434	0.0142530
912.512	0.0143560
912.590	0.0143503
912.668	0.0143071
912.746	0.0143579
912.825	0.0142570
912.903	0.0143636
912.981	0.0143084
913.059	0.0141882
913.137	0.0143023
913.215	0.0142698
913.293	0.0141414
913.371	0.0140613
913.450	0.0141212
913.528	0.0143779
913.606	0.0143552
913.684	0.0142065
913.762	0.0144033
913.840	0.0144991
913.918	0.0144601
913.996	0.0144707
914.075	0.0144022
914.153	0.0144391
914.231	0.0144021
914.309	0.0143603
914.387	0.0142214
914.465	0.0142879
914.543	0.0142135
914.621	0.0143585
914.700	0.0141994
914.778	0.0140796
914.856	0.0141273
914.934	0.0140953
915.012	0.0141047
915.090	0.0142807
915.168	0.0141425
915.246	0.0141808
915.325	0.0142264
915.403	0.0141390
915.481	0.0141724
915.559	0.0142233
915.637	0.0142886
915.715	0.0144688
915.793	0.0144511
915.871	0.0143778
915.950	0.0144454
916.028	0.0144183
916.106	0.0144305
916.184	0.0142639
916.262	0.0144561
916.340	0.0144022
916.418	0.0143044
916.496	0.0140746
916.575	0.0142860
916.653	0.0141920
916.731	0.0141965
916.809	0.0142487
916.887	0.0141974
916.965	0.0141766
917.043	0.0139677
917.121	0.0142319
917.200	0.0141436
917.278	0.0143402
917.356	0.0142393
917.434	0.0143739
917.512	0.0143645
917.590	0.0143797
917.668	0.0142715
917.746	0.0142055
917.825	0.0145052
917.903	0.0143893
917.981	0.0143860
918.059	0.0145016
918.137	0.0144195
918.215	0.0142771
918.293	0.0144263
918.371	0.0141342
918.450	0.0142273
918.528	0.0141116
918.606	0.0140202
918.684	0.0141836
918.762	0.0140323
918.840	0.0139005
918.918	0.0140456
918.996	0.0141349
919.075	0.0141441
919.153	0.0142284
919.231	0.0141409
919.309	0.0142175
919.387	0.0142744
919.465	0.0144154
919.543	0.0143031
919.621	0.0143869
919.700	0.0143921
919.778	0.0142538
919.856	0.0143666
919.934	0.0143069
920.012	0.0143140
920.090	0.0143575
920.168	0.0142155
920.246	0.0142628
920.325	0.0142816
920.403	0.0142347
920.481	0.0140741
920.559	0.0141572
920.637	0.0141447
920.715	0.0140299
920.793	0.0141111
920.871	0.0141718
920.950	0.0140158
921.028	0.0139400
921.106	0.0142126
921.184	0.0143201
921.262	0.0141872
921.340	0.0141737
921.418	0.0141209
921.496	0.0140720
921.575	0.0142820
921.653	0.0143629
921.731	0.0143577
921.809	0.0143893
921.887	0.0143925
921.965	0.0143573
922.043	0.0143373
922.121	0.0143917
922.200	0.0144291
922.278	0.0143284
922.356	0.0142858
922.434	0.0143390
922.512	0.0141867
922.590	0.0140225
922.668	0.0142213
922.746	0.0141047
922.825	0.0141345
922.903	0.0141497
922.981	0.0140347
923.059	0.0141225
923.137	0.0141154
923.215	0.0141337
923.293	0.0141452
923.371	0.0142139
923.450	0.0141874
923.528	0.0141967
923.606	0.0142710
923.684	0.0142563
923.762	0.0141441
923.840	0.0141963
923.918	0.0142020
923.996	0.0143026
924.075	0.0142052
924.153	0.0143468
924.231	0.0143602
924.309	0.0142751
924.387	0.0142372
924.465	0.0143266
924.543	0.0144059
924.621	0.0142564
924.700	0.0142765
924.778	0.0142828
924.856	0.0141471
924.934	0.0142009
925.012	0.0142998
925.090	0.0142055
925.168	0.0141824
925.246	0.0143462
925.325	0.0143361
925.403	0.0142216
925.481	0.0143076
925.559	0.0144231
925.637	0.0143828
925.715	0.0143660
925.793	0.0142311
925.871	0.0142975
925.950	0.0142903
926.028	0.0142413
926.106	0.0141689
926.184	0.0143095
926.262	0.0141789
926.340	0.0142998
926.418	0.0142584
926.496	0.0142007
926.575	0.0141039
926.653	0.0141682
926.731	0.0142683
926.809	0.0142169
926.887	0.0142020
926.965	0.0142588
927.043	0.0141808
927.121	0.0141340
927.200	0.0142153
927.278	0.0142201
927.356	0.0141698
927.434	0.0141755
927.512	0.0141550
927.590	0.0141393
927.668	0.0142276
927.746	0.0141632
927.825	0.0143768
927.903	0.0142902
927.981	0.0142548
928.059	0.0142567
928.137	0.0141764
928.215	0.0142919
928.293	0.0142404
928.371	0.0141745
928.450	0.0142362
928.528	0.0141577
928.606	0.0142245
928.684	0.0142001
928.762	0.0141564
928.840	0.0142272
928.918	0.0140715
928.996	0.0140701
929.075	0.0141142
929.153	0.0142745
929.231	0.0142080
929.309	0.0141945
929.387	0.0142213
929.465	0.0141618
929.543	0.0143196
929.621	0.0143634
929.700	0.0141994
929.778	0.0142870
929.856	0.0143003
929.934	0.0143327
930.012	0.0141425
930.090	0.0142657
930.168	0.0142692
930.246	0.0143690
930.325	0.0144018
930.403	0.0142673
930.481	0.0143793
930.559	0.0143502
930.637	0.0142801
930.715	0.0142646
930.793	0.0142951
930.871	0.0142878
930.950	0.0142661
931.028	0.0142905
931.106	0.0141483
931.184	0.0141367
931.262	0.0142081
931.340	0.0143130
931.418	0.0141679
931.496	0.0142218
931.575	0.0142072
931.653	0.0141777
931.731	0.0142892
931.809	0.0142948
931.887	0.0142564
931.965	0.0142635
932.043	0.0142911
932.121	0.0143980
932.200	0.0142940
932.278	0.0141975
932.356	0.0142992
932.434	0.0143037
932.512	0.0142706
932.590	0.0143897
932.668	0.0142873
932.746	0.0142085
932.825	0.0141989
932.903	0.0140180
932.981	0.0141371
933.059	0.0142126
933.137	0.0142618
933.215	0.0141680
933.293	0.0141966
933.371	0.0141142
933.450	0.0141758
933.528	0.0142245
933.606	0.0141866
933.684	0.0143031
933.762	0.0143837
933.840	0.0143279
933.918	0.0143453
933.996	0.0143930
934.075	0.0143694
934.153	0.0143858
934.231	0.0143234
934.309	0.0144263
934.387	0.0144514
934.465	0.0142488
934.543	0.0143526
934.621	0.0143509
934.700	0.0143937
934.778	0.0143323
934.856	0.0143195
934.934	0.0145045
935.012	0.0144318
935.090	0.0143104
935.168	0.0143353
935.246	0.0144234
935.325	0.0141950
935.403	0.0141679
935.481	0.0142541
935.559	0.0142367
935.637	0.0142384
935.715	0.0141920
935.793	0.0142026
935.871	0.0142702
935.950	0.0143586
936.028	0.0143966
936.106	0.0143246
936.184	0.0143564
936.262	0.0142732
936.340	0.0143227
936.418	0.0144436
936.496	0.0143507
936.575	0.0145271
936.653	0.0144256
936.731	0.0142012
936.809	0.0143129
936.887	0.0142932
936.965	0.0144012
937.043	0.0143237
937.121	0.0143791
937.200	0.0143676
937.278	0.0141570
937.356	0.0141801
937.434	0.0142235
937.512	0.0140965
937.590	0.0141354
937.668	0.0141979
937.746	0.0140855
937.825	0.0142124
937.903	0.0141797
937.981	0.0142192
938.059	0.0142316
938.137	0.0141790
938.215	0.0143938
938.293	0.0145100
938.371	0.0143152
938.450	0.0143497
938.528	0.0143855
938.606	0.0143308
938.684	0.0143716
938.762	0.0143170
938.840	0.0142197
938.918	0.0143842
938.996	0.0143888
939.075	0.0142619
939.153	0.0143254
939.231	0.0142529
939.309	0.0142575
939.387	0.0144128
939.465	0.0142690
939.543	0.0141693
939.621	0.0140947
939.700	0.0142209
939.778	0.0141815
939.856	0.0142562
939.934	0.0142274
940.012	0.0141877
940.090	0.0143082
940.168	0.0143506
940.246	0.0143636
940.325	0.0142264
940.403	0.0143849
940.481	0.0144124
940.559	0.0143705
940.637	0.0143047
940.715	0.0143873
940.793	0.0144070
940.871	0.0143092
940.950	0.0142578
941.028	0.0143053
941.106	0.0143317
941.184	0.0141560
941.262	0.0142462
941.340	0.0142746
941.418	0.0141852
941.496	0.0141501
941.575	0.0141586
941.653	0.0143612
941.731	0.0142803
941.809	0.0142171
941.887	0.0142384
941.965	0.0143530
942.043	0.0142088
942.121	0.0142249
942.200	0.0141209
942.278	0.0142487
942.356	0.0142078
942.434	0.0142896
942.512	0.0142469
942.590	0.0142484
942.668	0.0143106
942.746	0.0142354
942.825	0.0142343
942.903	0.0143270
942.981	0.0143051
943.059	0.0143261
943.137	0.0143071
943.215	0.0142448
943.293	0.0141122
943.371	0.0141353
943.450	0.0142725
943.528	0.0143124
943.606	0.0142753
943.684	0.0142595
943.762	0.0142941
943.840	0.0142811
943.918	0.0142602
943.996	0.0143488
944.075	0.0143923
944.153	0.0142054
944.231	0.0143244
944.309	0.0143680
944.387	0.0142890
944.465	0.0143182
944.543	0.0142918
944.621	0.0143134
944.700	0.0143039
944.778	0.0142468
944.856	0.0140973
944.934	0.0142593
945.012	0.0141263
945.090	0.0142628
945.168	0.0141276
945.246	0.0142407
945.325	0.0140208
945.403	0.0141691
945.481	0.0143326
945.559	0.0142298
945.637	0.0141863
945.715	0.0141016
945.793	0.0142712
945.871	0.0144134
945.950	0.0143739
946.028	0.0141470
946.106	0.0143669
946.184	0.0144771
946.262	0.0142973
946.340	0.0142311
946.418	0.0144232
946.496	0.0143420
946.575	0.0142403
946.653	0.0142666
946.731	0.0141790
946.809	0.0142835
946.887	0.0142213
946.965	0.0142188
947.043	0.0140882
947.121	0.0141047
947.200	0.0142819
947.278	0.0142659
947.356	0.0142436
947.434	0.0142876
947.512	0.0141904
947.590	0.0141466
947.668	0.0142088
947.746	0.0142902
947.825	0.0143656
947.903	0.0143570
947.981	0.0142113
948.059	0.0143477
948.137	0.0142885
948.215	0.0142501
948.293	0.0142986
948.371	0.0143670
948.450	0.0143534
948.528	0.0143965
948.606	0.0142057
948.684	0.0143035
948.762	0.0143204
948.840	0.0144106
948.918	0.0142550
948.996	0.0142717
949.075	0.0142807
949.153	0.0144560
949.231	0.0142638
949.309	0.0142174
949.387	0.0142525
949.465	0.0141613
949.543	0.0143879
949.621	0.0144424
949.700	0.0142549
949.778	0.0141709
949.856	0.0144076
949.934	0.0144176
950.012	0.0143732
950.090	0.0142944
950.168	0.0143487
950.246	0.0144940
950.325	0.0143168
950.403	0.0144231
950.481	0.0142671
950.559	0.0143539
950.637	0.0143998
950.715	0.0144666
950.793	0.0143288
950.871	0.0144362
950.950	0.0143646
951.028	0.0142796
951.106	0.0143513
951.184	0.0143846
951.262	0.0141643
951.340	0.0142800
951.418	0.0143937
951.496	0.0142256
951.575	0.0143247
951.653	0.0142491
951.731	0.0142133
951.809	0.0143604
951.887	0.0143231
951.965	0.0141762
952.043	0.0142069
952.121	0.0142075
952.200	0.0142027
952.278	0.0141817
952.356	0.0142855
952.434	0.0141319
952.512	0.0142413
952.590	0.0142793
952.668	0.0143835
952.746	0.0142348
952.825	0.0141248
952.903	0.0143132
952.981	0.0143281
953.059	0.0143918
953.137	0.0141490
953.215	0.0143587
953.293	0.0143446
953.371	0.0142278
953.450	0.0142764
953.528	0.0142349
953.606	0.0141065
953.684	0.0142322
953.762	0.0140859
953.840	0.0142537
953.918	0.0140594
953.996	0.0141911
954.075	0.0141679
954.153	0.0141741
954.231	0.0142375
954.309	0.0142157
954.387	0.0142257
954.465	0.0141641
954.543	0.0141800
954.621	0.0142578
954.700	0.0142892
954.778	0.0143065
954.856	0.0142029
954.934	0.0142259
955.012	0.0142721
955.090	0.0142924
955.168	0.0142375
955.246	0.0142545
955.325	0.0141534
955.403	0.0141422
955.481	0.0142151
955.559	0.0142507
955.637	0.0141392
955.715	0.0142166
955.793	0.0143398
955.871	0.0144192
955.950	0.0143478
956.028	0.0142967
956.106	0.0142539
956.184	0.0143044
956.262	0.0143781
956.340	0.0143681
956.418	0.0144299
956.496	0.0143396
956.575	0.0140587
956.653	0.0142975
956.731	0.0142728
956.809	0.0141714
956.887	0.0142570
956.965	0.0142926
957.043	0.0144423
957.121	0.0143739
957.200	0.0142986
957.278	0.0142473
957.356	0.0142072
957.434	0.0143200
957.512	0.0142582
957.590	0.0142528
957.668	0.0142172
957.746	0.0143494
957.825	0.0142477
957.903	0.0142368
957.981	0.0141951
958.059	0.0141899
958.137	0.0142796
958.215	0.0142726
958.293	0.0142021
958.371	0.0142334
958.450	0.0142915
958.528	0.0143271
958.606	0.0141799
958.684	0.0142168
958.762	0.0143932
958.840	0.0143362
958.918	0.0142409
958.996	0.0143139
959.075	0.0142405
959.153	0.0141135
959.231	0.0141900
959.309	0.0142507
959.387	0.0143637
959.465	0.0141592
959.543	0.0141357
959.621	0.0142033
959.700	0.0142084
959.778	0.0141779
959.856	0.0141653
959.934	0.0142140
960.012	0.0143359
960.090	0.0143060
960.168	0.0143265
960.246	0.0141861
960.325	0.0143568
960.403	0.0143065
960.481	0.0142630
960.559	0.0142446
960.637	0.0142946
960.715	0.0142507
960.793	0.0142274
960.871	0.0143012
960.950	0.0143795
961.028	0.0143230
961.106	0.0143124
961.184	0.0143892
961.262	0.0142402
961.340	0.0143772
961.418	0.0144270
961.496	0.0142764
961.575	0.0144684
961.653	0.0143868
961.731	0.0143176
961.809	0.0144782
961.887	0.0142886
961.965	0.0142162
962.043	0.0143293
962.121	0.0144326
962.200	0.0142400
962.278	0.0143065
962.356	0.0143063
962.434	0.0140909
962.512	0.0141908
962.590	0.0142136
962.668	0.0142089
962.746	0.0141119
962.825	0.0140864
962.903	0.0141570
962.981	0.0140946
963.059	0.0142503
963.137	0.0142518
963.215	0.0143751
963.293	0.0143011
963.371	0.0144687
963.450	0.0143230
963.528	0.0143323
963.606	0.0144064
963.684	0.0143550
963.762	0.0143604
963.840	0.0142085
963.918	0.0142258
963.996	0.0143004
964.075	0.0142760
964.153	0.0142329
964.231	0.0143093
964.309	0.0141241
964.387	0.0140488
964.465	0.0141555
964.543	0.0141503
964.621	0.0142501
964.700	0.0141202
964.778	0.0140720
964.856	0.0141019
964.934	0.0141827
965.012	0.0141725
965.090	0.0141885
965.168	0.0141512
965.246	0.0140885
965.325	0.0141148
965.403	0.0142520
965.481	0.0143410
965.559	0.0143072
965.637	0.0141383
965.715	0.0142020
965.793	0.0143160
965.871	0.0142484
965.950	0.0141849
966.028	0.0143091
966.106	0.0143086
966.184	0.0143472
966.262	0.0141300
966.340	0.0142404
966.418	0.0141900
966.496	0.0142824
966.575	0.0142127
966.653	0.0142066
966.731	0.0141640
966.809	0.0142483
966.887	0.0144019
966.965	0.0143565
967.043	0.0142472
967.121	0.0143784
967.200	0.0143328
967.278	0.0143169
967.356	0.0143591
967.434	0.0143065
967.512	0.0143330
967.590	0.0143273
967.668	0.0145016
967.746	0.0143203
967.825	0.0142036
967.903	0.0142004
967.981	0.0142268
968.059	0.0142012
968.137	0.0141449
968.215	0.0141832
968.293	0.0143056
968.371	0.0142403
968.450	0.0142122
968.528	0.0142422
968.606	0.0142268
968.684	0.0141573
968.762	0.0142165
968.840	0.0142619
968.918	0.0141664
968.996	0.0143340
969.075	0.0142127
969.153	0.0142758
969.231	0.0143073
969.309	0.0143496
969.387	0.0142673
969.465	0.0143539
969.543	0.0143353
969.621	0.0143562
969.700	0.0143877
969.778	0.0142989
969.856	0.0142365
969.934	0.0143372
970.012	0.0141821
970.090	0.0144093
970.168	0.0143340
970.246	0.0143056
970.325	0.0144601
970.403	0.0142138
970.481	0.0142704
970.559	0.0141500
970.637	0.0141936
970.715	0.0143385
970.793	0.0142970
970.871	0.0142985
970.950	0.0142554
971.028	0.0142219
971.106	0.0143125
971.184	0.0143544
971.262	0.0142155
971.340	0.0143216
971.418	0.0143298
971.496	0.0142966
971.575	0.0143385
971.653	0.0142925
971.731	0.0142867
971.809	0.0144514
971.887	0.0142238
971.965	0.0142851
972.043	0.0143093
972.121	0.0143623
972.200	0.0142813
972.278	0.0142915
972.356	0.0142728
972.434	0.0143822
972.512	0.0141918
972.590	0.0140769
972.668	0.0141518
972.746	0.0142937
972.825	0.0141582
972.903	0.0140800
972.981	0.0142020
973.059	0.0141773
973.137	0.0141222
973.215	0.0142715
973.293	0.0142272
973.371	0.0142664
973.450	0.0141397
973.528	0.0142525
973.606	0.0143166
973.684	0.0143295
973.762	0.0143959
973.840	0.0144560
973.918	0.0144090
973.996	0.0143905
974.075	0.0144648
974.153	0.0143931
974.231	0.0143147
974.309	0.0144346
974.387	0.0142799
974.465	0.0141453
974.543	0.0141770
974.621	0.0141670
974.700	0.0142569
974.778	0.0141283
974.856	0.0140970
974.934	0.0141854
975.012	0.0141178
975.090	0.0141027
975.168	0.0141528
975.246	0.0141767
975.325	0.0141608
975.403	0.0142557
975.481	0.0142902
975.559	0.0142273
975.637	0.0141539
975.715	0.0142800
975.793	0.0142555
975.871	0.0142387
975.950	0.0141190
976.028	0.0143587
976.106	0.0143530
976.184	0.0144227
976.262	0.0143361
976.340	0.0142703
976.418	0.0141613
976.496	0.0142795
976.575	0.0142973
976.653	0.0142844
976.731	0.0142022
976.809	0.0142439
976.887	0.0142387
976.965	0.0141570
977.043	0.0141545
977.121	0.0141066
977.200	0.0142023
977.278	0.0140892
977.356	0.0143199
977.434	0.0142867
977.512	0.0142863
977.590	0.0143187
977.668	0.0141989
977.746	0.0142807
977.825	0.0143801
977.903	0.0142319
977.981	0.0142764
978.059	0.0142689
978.137	0.0141900
978.215	0.0143719
978.293	0.0143703
978.371	0.0142599
978.450	0.0142293
978.528	0.0141514
978.606	0.0141666
978.684	0.0142036
978.762	0.0142234
978.840	0.0140619
978.918	0.0142023
978.996	0.0142181
979.075	0.0141312
979.153	0.0141616
979.231	0.0142447
979.309	0.0141306
979.387	0.0142350
979.465	0.0142324
979.543	0.0142899
979.621	0.0142489
979.700	0.0142519
979.778	0.0142417
979.856	0.0142628
979.934	0.0142809
980.012	0.0143725
980.090	0.0143200
980.168	0.0143195
980.246	0.0141897
980.325	0.0142221
980.403	0.0142168
980.481	0.0141003
980.559	0.0142584
980.637	0.0143066
980.715	0.0141373
980.793	0.0143349
980.871	0.0142900
980.950	0.0142172
981.028	0.0141605
981.106	0.0141022
981.184	0.0140813
981.262	0.0140844
981.340	0.0141235
981.418	0.0142936
981.496	0.0140893
981.575	0.0141559
981.653	0.0142107
981.731	0.0142871
981.809	0.0141598
981.887	0.0141586
981.965	0.0140936
982.043	0.0142193
982.121	0.0142440
982.200	0.0141933
982.278	0.0142873
982.356	0.0143672
982.434	0.0142758
982.512	0.0142903
982.590	0.0142570
982.668	0.0143028
982.746	0.0144746
982.825	0.0143038
982.903	0.0142366
982.981	0.0141898
983.059	0.0141377
983.137	0.0140911
983.215	0.0141733
983.293	0.0141930
983.371	0.0140903
983.450	0.0141922
983.528	0.0142334
983.606	0.0141731
983.684	0.0141611
983.762	0.0140818
983.840	0.0140992
983.918	0.0143063
983.996	0.0142730
984.075	0.0140930
984.153	0.0142165
984.231	0.0141827
984.309	0.0142910
984.387	0.0141111
984.465	0.0142361
984.543	0.0142696
984.621	0.0141571
984.700	0.0142623
984.778	0.0143587
984.856	0.0142529
984.934	0.0141720
985.012	0.0142928
985.090	0.0142165
985.168	0.0141809
985.246	0.0141635
985.325	0.0141483
985.403	0.0141431
985.481	0.0141177
985.559	0.0141805
985.637	0.0140446
985.715	0.0142127
985.793	0.0141492
985.871	0.0142346
985.950	0.0140545
986.028	0.0141784
986.106	0.0143432
986.184	0.0141819
986.262	0.0141293
986.340	0.0142018
986.418	0.0142393
986.496	0.0142548
986.575	0.0142303
986.653	0.0142088
986.731	0.0142670
986.809	0.0143220
986.887	0.0142611
986.965	0.0142991
987.043	0.0141867
987.121	0.0142038
987.200	0.0143230
987.278	0.0141993
987.356	0.0141501
987.434	0.0141868
987.512	0.0143700
987.590	0.0140971
987.668	0.0141781
987.746	0.0141158
987.825	0.0142696
987.903	0.0142493
987.981	0.0142109
988.059	0.0142290
988.137	0.0141868
988.215	0.0143301
988.293	0.0141904
988.371	0.0142904
988.450	0.0141978
988.528	0.0142062
988.606	0.0140998
988.684	0.0141022
988.762	0.0141832
988.840	0.0143511
988.918	0.0142632
988.996	0.0141802
989.075	0.0141048
989.153	0.0143624
989.231	0.0143199
989.309	0.0142909
989.387	0.0142065
989.465	0.0141246
989.543	0.0142368
989.621	0.0142819
989.700	0.0141773
989.778	0.0143392
989.856	0.0142588
989.934	0.0143858
990.012	0.0143182
990.090	0.0141534
990.168	0.0142643
990.246	0.0142448
990.325	0.0141993
990.403	0.0141158
990.481	0.0142345
990.559	0.0142246
990.637	0.0142128
990.715	0.0141980
990.793	0.0140897
990.871	0.0142706
990.950	0.0141481
991.028	0.0141833
991.106	0.0143571
991.184	0.0142406
991.262	0.0143427
991.340	0.0143065
991.418	0.0141359
991.496	0.0141765
991.575	0.0143604
991.653	0.0141715
991.731	0.0142618
991.809	0.0142693
991.887	0.0141876
991.965	0.0143498
992.043	0.0143848
992.121	0.0142538
992.200	0.0142754
992.278	0.0141616
992.356	0.0141838
992.434	0.0141881
992.512	0.0141848
992.590	0.0141587
992.668	0.0143251
992.746	0.0142050
992.825	0.0141040
992.903	0.0142293
992.981	0.0142588
993.059	0.0141123
993.137	0.0141680
993.215	0.0141946
993.293	0.0140160
993.371	0.0141752
993.450	0.0141022
993.528	0.0141670
993.606	0.0141214
993.684	0.0141486
993.762	0.0142052
993.840	0.0142249
993.918	0.0141970
993.996	0.0142713
994.075	0.0142827
994.153	0.0143601
994.231	0.0141568
994.309	0.0143394
994.387	0.0144756
994.465	0.0143340
994.543	0.0142114
994.621	0.0142117
994.700	0.0142860
994.778	0.0143130
994.856	0.0143210
994.934	0.0141502
995.012	0.0142573
995.090	0.0142786
995.168	0.0143543
995.246	0.0141869
995.325	0.0142000
995.403	0.0140765
995.481	0.0141936
995.559	0.0142035
995.637	0.0140092
995.715	0.0141421
995.793	0.0142847
995.871	0.0141035
995.950	0.0142068
996.028	0.0141795
996.106	0.0141565
996.184	0.0142334
996.262	0.0142643
996.340	0.0142189
996.418	0.0142577
996.496	0.0141662
996.575	0.0140617
996.653	0.0142631
996.731	0.0142776
996.809	0.0144238
996.887	0.0142397
996.965	0.0141833
997.043	0.0141226
997.121	0.0142527
997.200	0.0141210
997.278	0.0140157
997.356	0.0142553
997.434	0.0143439
997.512	0.0142602
997.590	0.0143652
997.668	0.0141274
997.746	0.0141177
997.825	0.0141248
997.903	0.0143209
997.981	0.0142070
998.059	0.0144450
998.137	0.0142577
998.215	0.0142528
998.293	0.0142380
998.371	0.0143819
998.450	0.0141662
998.528	0.0142384
998.606	0.0141942
998.684	0.0141341
998.762	0.0142601
998.840	0.0141772
998.918	0.0143188
